##NAMES=Enstatite
##RRUFFID=R070550
##IDEAL CHEMISTRY=MgSiO_3_
##LOCALITY=Tanzania
##OWNER=RRUFF
##SOURCE=www.multicolour.com
##DESCRIPTION=Brown, translucent, vitreous crystal fragment
##STATUS=The identification of this mineral has been confirmed by X-ray diffraction and chemical analysis
##URL=rruff.info/R070550
##MEASURED CHEMISTRY=(Mg_0.90_Fe_0.10_)_Î£=1_Si_1.00_O_3_
##PIN_ID=L01656
##ORIENTATION=Laser parallel to a* (1 0 0). Fiducial mark perpendicular to laser is parallel to -b [0 -1 0]
112.8890, 0.0000000E+00
114.1310, 55.12793
115.3720, 109.6216
116.6130, 32.70923
117.8540, 35.00623
119.0950, 17.71790
120.3360, 4.125854
121.5760, 1.578491
122.8160, 28.76416
124.0560, 109.0544
125.2960, 126.7238
126.5350, 171.0873
127.7750, 229.7883
129.0140, 269.5337
130.2530, 310.3943
131.4920, 356.2920
132.7300, 380.9795
133.9690, 430.2471
135.2070, 463.8486
136.4450, 484.6182
137.6830, 574.4219
138.9210, 663.1519
140.1580, 838.7175
141.3950, 939.0449
142.6330, 979.0718
143.8690, 1221.747
145.1060, 1289.027
146.3430, 1479.881
147.5790, 1499.275
148.8150, 1548.183
150.0510, 1561.578
151.2870, 1615.366
152.5220, 1449.657
153.7580, 1282.329
154.9930, 1262.171
156.2280, 1037.180
157.4620, 1019.355
158.6970, 947.6973
159.9310, 845.2056
161.1660, 883.8804
162.4000, 846.7209
163.6330, 866.7278
164.8670, 778.9004
166.1000, 704.2385
167.3340, 653.0430
168.5670, 509.4131
169.8000, 490.2520
171.0320, 397.2571
172.2650, 298.4268
173.4970, 329.7629
174.7290, 302.2822
175.9610, 349.0000
177.1930, 363.9172
178.4240, 501.0288
179.6550, 643.3293
180.8870, 792.8137
182.1170, 1159.477
183.3480, 1444.315
184.5790, 1834.323
185.8090, 2377.498
187.0390, 3034.785
188.2690, 3636.026
189.4990, 4420.472
190.7290, 4868.630
191.9580, 5025.588
193.1870, 4991.619
194.4160, 4657.999
195.6450, 4197.469
196.8740, 3559.038
198.1020, 3046.706
199.3310, 2529.479
200.5590, 2095.359
201.7870, 1763.347
203.0140, 1431.161
204.2420, 1202.654
205.4690, 966.9746
206.6960, 816.4072
207.9230, 685.9517
209.1500, 574.6069
210.3760, 569.3726
211.6030, 506.2483
212.8290, 523.2334
214.0550, 473.3271
215.2810, 506.5288
216.5060, 646.8376
217.7320, 734.2524
218.9570, 784.7737
220.1820, 924.3999
221.4070, 1128.169
222.6320, 1339.072
223.8560, 1714.086
225.0800, 2077.208
226.3040, 2696.426
227.5280, 3397.736
228.7520, 4230.139
229.9760, 5126.630
231.1990, 6346.215
232.4220, 7904.935
233.6450, 9596.954
234.8680, 10965.34
236.0910, 11875.07
237.3130, 11235.10
238.5350, 10107.33
239.7570, 8307.641
240.9790, 6568.015
242.2010, 4811.456
243.4220, 3452.959
244.6430, 2276.526
245.8640, 1725.157
247.0850, 980.8511
248.3060, 663.6082
249.5270, 489.4275
250.7470, 347.3086
251.9670, 205.2517
253.1870, 280.2551
254.4070, 193.3193
255.6260, 195.8645
256.8460, 306.9490
258.0650, 136.8711
259.2840, 380.1733
260.5030, 214.0967
261.7220, 114.5444
262.9400, 148.8813
264.1580, 192.0432
265.3760, 244.9026
266.5940, 181.2463
267.8120, 137.7087
269.0290, 155.8472
270.2470, 40.78491
271.4640, 26.52148
272.6810, 98.92920
273.8980, 65.55811
275.1140, 118.3538
276.3310, 167.3069
277.5470, 75.40918
278.7630, 85.65332
279.9790, 132.0322
281.1940, 221.5383
282.4100, 137.1660
283.6250, 201.9099
284.8400, 221.7651
286.0550, 349.7275
287.2700, 364.7935
288.4850, 640.9590
289.6990, 841.2214
290.9130, 1134.578
292.1270, 1502.438
293.3410, 1949.561
294.5540, 2313.184
295.7680, 2779.890
296.9810, 3221.678
298.1940, 3529.542
299.4070, 3450.474
300.6200, 3303.473
301.8320, 2933.538
303.0450, 2657.670
304.2570, 2354.866
305.4690, 2104.126
306.6800, 2005.377
307.8920, 1902.837
309.1030, 2002.286
310.3150, 2087.797
311.5260, 2360.368
312.7360, 2609.000
313.9470, 3027.692
315.1580, 3586.442
316.3680, 4322.250
317.5780, 4878.117
318.7880, 5542.039
319.9980, 5940.018
321.2070, 6341.052
322.4170, 6506.144
323.6260, 6530.296
324.8350, 6854.508
326.0430, 7421.785
327.2520, 8097.128
328.4610, 9326.532
329.6690, 10861.04
330.8770, 13006.56
332.0850, 15590.18
333.2920, 18501.76
334.5000, 21998.37
335.7070, 26083.95
336.9140, 30581.45
338.1210, 34797.97
339.3280, 38119.53
340.5350, 39361.14
341.7410, 38608.81
342.9470, 36052.53
344.1540, 31951.30
345.3590, 27333.12
346.5650, 22834.99
347.7710, 18688.91
348.9760, 15287.16
350.1810, 12450.39
351.3860, 10293.29
352.5910, 8601.164
353.7950, 7404.673
355.0000, 6379.558
356.2040, 5653.469
357.4080, 5016.753
358.6120, 4485.913
359.8150, 4153.633
361.0190, 3843.511
362.2220, 3606.652
363.4250, 3413.026
364.6280, 3250.708
365.8310, 3193.049
367.0340, 3163.015
368.2360, 3197.592
369.4380, 3265.297
370.6400, 3431.041
371.8420, 3665.155
373.0440, 3960.218
374.2450, 4358.500
375.4470, 4792.394
376.6480, 5339.325
377.8490, 5970.293
379.0490, 6438.294
380.2500, 6907.331
381.4500, 7073.399
382.6510, 7474.499
383.8510, 7392.627
385.0500, 7503.786
386.2500, 7438.978
387.4500, 7654.197
388.6490, 8114.447
389.8480, 8592.728
391.0470, 9445.034
392.2460, 10605.37
393.4440, 11613.74
394.6430, 12939.13
395.8410, 14084.56
397.0390, 14961.01
398.2370, 15678.49
399.4340, 15892.99
400.6320, 15621.53
401.8290, 15070.09
403.0260, 14361.68
404.2230, 13357.30
405.4200, 12617.97
406.6170, 12058.73
407.8130, 11573.26
409.0090, 11268.06
410.2050, 10893.60
411.4010, 10932.98
412.5970, 10847.14
413.7920, 10481.67
414.9880, 10080.03
416.1830, 9717.719
417.3780, 9077.848
418.5730, 8312.017
419.7670, 7559.224
420.9620, 6580.472
422.1560, 5672.759
423.3500, 4713.081
424.5440, 3941.442
425.7380, 3140.839
426.9310, 2444.271
428.1240, 1962.739
429.3180, 1514.241
430.5110, 1154.778
431.7030, 925.3481
432.8960, 729.9509
434.0890, 616.5872
435.2810, 417.2549
436.4730, 412.9546
437.6650, 333.6858
438.8570, 322.4475
440.0480, 290.2397
441.2390, 291.0620
442.4310, 215.9141
443.6220, 272.7954
444.8120, 226.7058
446.0030, 220.6445
447.1940, 233.6116
448.3840, 250.6069
449.5740, 335.6294
450.7640, 432.6792
451.9540, 516.7561
453.1430, 572.8594
454.3330, 598.2568
455.5220, 657.1443
456.7110, 588.3252
457.9000, 515.5317
459.0890, 468.7629
460.2770, 328.0188
461.4650, 272.2993
462.6540, 225.6035
463.8420, 157.1040
465.0290, 163.7393
466.2170, 36.31982
467.4050, 78.33887
468.5920, 91.49878
469.7790, 41.73120
470.9660, 50.87891
472.1530, 21.30664
473.3390, 97.77539
474.5250, 28.60474
475.7120, 1.801025
476.8980, 104.2988
478.0840, 31.62866
479.2690, 99.16333
480.4550, 164.7173
481.6400, 251.2913
482.8250, 265.8843
484.0100, 299.4985
485.1950, 251.1313
486.3800, 308.7944
487.5640, 162.4768
488.7480, 132.1831
489.9320, 50.91162
491.1160, 28.67041
492.3000, 107.5513
493.4840, 135.8132
494.6670, 236.1282
495.8500, 245.5703
497.0330, 131.0752
498.2160, 249.6572
499.3990, 169.3481
500.5810, 183.1006
501.7630, 105.9084
502.9460, 124.7466
504.1280, 19.63135
505.3090, 82.49634
506.4910, 194.6555
507.6720, 254.8506
508.8540, 565.0791
510.0350, 755.3369
511.2160, 1083.615
512.3960, 1306.940
513.5770, 1822.280
514.7570, 2243.649
515.9380, 2727.054
517.1180, 3166.485
518.2970, 3545.953
519.4770, 3926.477
520.6570, 4384.036
521.8360, 4794.634
523.0150, 5312.259
524.1940, 5450.908
525.3730, 5648.599
526.5510, 5338.322
527.7300, 4965.077
528.9080, 4623.869
530.0860, 4280.670
531.2640, 3923.516
532.4420, 3805.400
533.6200, 3757.306
534.7970, 4113.241
535.9740, 4474.201
537.1510, 4662.179
538.3280, 4719.357
539.5050, 4824.201
540.6810, 4522.222
541.8580, 4146.270
543.0340, 3784.322
544.2100, 3606.382
545.3860, 3391.446
546.5610, 3337.514
547.7370, 3409.588
548.9120, 3584.678
550.0870, 3536.798
551.2620, 3446.956
552.4370, 3111.153
553.6120, 2766.379
554.7860, 2364.623
555.9600, 1936.891
557.1340, 1748.164
558.3080, 1400.441
559.4820, 1322.720
560.6560, 1273.999
561.8290, 1192.277
563.0020, 1254.556
564.1750, 1369.834
565.3480, 1394.112
566.5210, 1525.388
567.6930, 1707.663
568.8660, 1969.937
570.0380, 2235.209
571.2100, 2628.478
572.3820, 3006.745
573.5530, 3391.009
574.7250, 3798.269
575.8960, 3873.527
577.0670, 3950.780
578.2380, 3853.030
579.4090, 3622.275
580.5800, 3167.516
581.7500, 2707.752
582.9210, 2253.983
584.0910, 1960.208
585.2610, 1587.428
586.4300, 1330.641
587.6000, 1148.849
588.7690, 1031.050
589.9390, 1040.244
591.1080, 1054.432
592.2770, 1017.611
593.4450, 951.7839
594.6140, 892.9485
595.7820, 738.1045
596.9500, 705.2529
598.1190, 464.3923
599.2860, 400.5227
600.4540, 309.6443
601.6220, 194.7563
602.7890, 164.8586
603.9560, 109.1772
605.1230, 101.0312
606.2900, 58.09814
607.4570, 45.14209
608.6230, 17.15967
609.7890, 10.85986
610.9560, 59.07422
612.1220, 24.98071
613.2870, 80.81226
614.4530, 95.66602
615.6180, 78.44897
616.7840, 147.3030
617.9490, 74.10938
619.1140, 201.8481
620.2790, 170.6213
621.4430, 260.3816
622.6080, 273.2073
623.7720, 255.2678
624.9360, 222.0195
626.1000, 294.2295
627.2640, 358.0874
628.4270, 471.9551
629.5910, 536.6741
630.7540, 590.2109
631.9170, 678.0757
633.0800, 686.9939
634.2430, 792.7800
635.4050, 808.8911
636.5680, 835.7061
637.7300, 1025.855
638.8920, 1024.227
640.0540, 1301.310
641.2150, 1486.789
642.3770, 1712.647
643.5380, 1952.979
644.7000, 2249.323
645.8610, 2670.747
647.0210, 3103.216
648.1820, 3624.225
649.3430, 4396.149
650.5030, 5190.892
651.6630, 6097.430
652.8230, 7562.445
653.9830, 9142.381
655.1430, 11051.13
656.3020, 13337.61
657.4620, 15608.11
658.6210, 18057.49
659.7800, 20561.35
660.9390, 22340.11
662.0970, 23100.91
663.2560, 23142.10
664.4140, 21954.94
665.5720, 19860.92
666.7300, 17785.46
667.8880, 15893.29
669.0460, 14229.99
670.2030, 13193.24
671.3600, 12667.19
672.5180, 12732.91
673.6740, 13139.04
674.8310, 14464.51
675.9880, 15793.94
677.1440, 17756.79
678.3010, 20004.98
679.4570, 22435.87
680.6130, 24906.46
681.7690, 26682.55
682.9240, 27978.36
684.0800, 28365.14
685.2350, 27602.89
686.3900, 25201.70
687.5450, 22126.40
688.7000, 18747.96
689.8540, 15663.06
691.0090, 12533.68
692.1630, 10142.28
693.3170, 8443.840
694.4710, 6846.529
695.6250, 5469.038
696.7780, 4643.519
697.9320, 3947.971
699.0850, 3318.394
700.2380, 2960.788
701.3910, 2486.155
702.5440, 2183.492
703.6970, 1989.801
704.8490, 1725.081
706.0010, 1619.332
707.1530, 1453.554
708.3050, 1328.748
709.4570, 1176.912
710.6090, 1067.047
711.7600, 926.1538
712.9110, 925.2314
714.0620, 762.2798
715.2130, 838.2993
716.3640, 731.2900
717.5150, 674.2510
718.6650, 641.1836
719.8150, 637.0867
720.9650, 583.9609
722.1150, 594.8059
723.2650, 551.6218
724.4150, 564.2488
725.5640, 587.1670
726.7130, 588.8958
727.8630, 547.5955
729.0110, 547.2666
730.1600, 538.9082
731.3090, 512.8752
732.4570, 496.3420
733.6060, 472.6602
734.7540, 431.1860
735.9020, 402.6836
737.0490, 395.2219
738.1970, 377.1882
739.3440, 384.0027
740.4920, 375.3848
741.6390, 363.7385
742.7860, 377.8911
743.9320, 443.9033
745.0790, 483.9656
746.2250, 486.5833
747.3720, 599.0542
748.5180, 589.9092
749.6640, 594.9028
750.8100, 650.6855
751.9550, 573.1833
753.1010, 493.9268
754.2460, 518.2954
755.3910, 333.3486
756.5360, 308.5623
757.6810, 243.5635
758.8250, 201.5383
759.9700, 109.4866
761.1140, 82.40747
762.2580, 118.2986
763.4020, 5.163330
764.5460, 91.97754
765.6900, 33.76343
766.8330, 37.51196
767.9760, 3.775879
769.1200, 21.88306
770.2620, 18.50439
771.4050, 8.116943
772.5480, 23.91943
773.6900, 2.643799
774.8330, 22.00537
775.9750, 2.344238
777.1170, 35.67505
778.2590, 88.02368
779.4000, 39.41333
780.5420, 17.83740
781.6830, 54.27881
782.8240, 29.78125
783.9650, 47.34424
785.1060, 40.97681
786.2470, 24.67480
787.3870, 9.570557
788.5280, 100.2219
789.6680, 30.89014
790.8080, 29.02710
791.9480, 59.00122
793.0870, 24.04688
794.2270, 73.14526
795.3660, 136.3213
796.5060, 65.60767
797.6450, 80.96655
798.7830, 35.40552
799.9220, 26.89941
801.0610, 102.4436
802.1990, 58.07642
803.3370, 68.77441
804.4750, 74.54199
805.6130, 7.618652
806.7510, 116.2488
807.8890, 97.20825
809.0260, 31.24927
810.1630, 71.33569
811.3000, 46.48804
812.4370, 31.69214
813.5740, 55.93945
814.7110, 15.24146
815.8470, 47.42407
816.9830, 56.92822
818.1190, 3.666992
819.2550, 55.24097
820.3910, 43.79810
821.5270, 60.05615
822.6620, 10.86377
823.7970, 33.37085
824.9330, 20.13745
826.0670, 31.67163
827.2020, 67.76294
828.3370, 81.18286
829.4710, 57.58838
830.6060, 5.019775
831.7400, 26.35522
832.8740, 106.7168
834.0080, 17.06543
835.1410, 107.4016
836.2750, 13.72534
837.4080, 77.03711
838.5410, 105.3367
839.6740, 156.6248
840.8070, 182.9021
841.9400, 249.1680
843.0730, 257.4236
844.2050, 307.6692
845.3370, 400.9048
846.4690, 430.1309
847.6010, 601.3481
848.7330, 686.5564
849.8640, 811.7563
850.9960, 925.9482
852.1270, 1243.132
853.2580, 1411.309
854.3890, 1576.478
855.5200, 1606.641
856.6500, 1669.797
857.7810, 1698.947
858.9110, 1585.091
860.0410, 1533.229
861.1710, 1409.362
862.3010, 1287.330
863.4310, 1059.613
864.5600, 1008.732
865.6900, 844.8469
866.8190, 692.9580
867.9480, 563.0662
869.0770, 566.1709
870.2050, 487.2725
871.3340, 289.4370
872.4620, 478.4692
873.5900, 309.5645
874.7180, 362.7563
875.8460, 353.8877
876.9740, 428.8418
878.1010, 315.9326
879.2290, 339.0239
880.3560, 353.1167
881.4830, 285.2158
882.6100, 251.3232
883.7370, 288.4443
884.8630, 306.5864
885.9900, 332.6494
887.1160, 495.8972
888.2420, 444.0647
889.3680, 471.2358
890.4940, 587.4131
891.6200, 552.5930
892.7450, 633.7803
893.8700, 538.9705
894.9960, 630.1641
896.1210, 616.2827
897.2460, 612.1580
898.3700, 601.3320
899.4950, 573.0391
900.6190, 532.0889
901.7430, 546.1206
902.8670, 484.2917
903.9910, 497.6367
905.1150, 500.3005
906.2390, 599.0957
907.3620, 567.3345
908.4850, 560.3193
909.6080, 675.9990
910.7310, 676.0122
911.8540, 752.8149
912.9770, 879.5747
914.0990, 1043.099
915.2210, 1126.723
916.3440, 1396.754
917.4660, 1588.551
918.5870, 1824.941
919.7090, 2180.288
920.8310, 2611.097
921.9520, 3053.987
923.0730, 3660.062
924.1940, 4087.342
925.3150, 4804.143
926.4360, 5153.021
927.5560, 5351.095
928.6770, 5689.436
929.7970, 5635.774
930.9170, 5743.225
932.0370, 5835.190
933.1570, 5861.275
934.2760, 6070.303
935.3960, 6119.946
936.5150, 6127.942
937.6340, 5897.814
938.7530, 5666.106
939.8720, 5355.140
940.9910, 4981.305
942.1090, 4286.910
943.2280, 3886.820
944.3460, 3461.995
945.4640, 3073.766
946.5820, 2626.217
947.6990, 2400.704
948.8170, 2090.793
949.9340, 1790.556
951.0520, 1653.625
952.1690, 1467.010
953.2860, 1347.885
954.4030, 1270.060
955.5190, 1210.262
956.6360, 1156.496
957.7520, 1059.702
958.8680, 1050.026
959.9840, 959.5176
961.1000, 964.4619
962.2160, 896.9180
963.3310, 966.4077
964.4470, 961.9370
965.5620, 967.3540
966.6770, 955.9556
967.7920, 922.5908
968.9060, 1029.265
970.0210, 911.9697
971.1360, 937.7090
972.2500, 1017.479
973.3640, 1015.282
974.4780, 1106.125
975.5920, 1195.724
976.7050, 1340.929
977.8190, 1407.897
978.9320, 1532.432
980.0450, 1630.259
981.1580, 1765.073
982.2710, 1895.225
983.3840, 2110.420
984.4970, 2254.653
985.6090, 2487.920
986.7210, 2742.218
987.8330, 3114.552
988.9450, 3460.921
990.0570, 4006.323
991.1690, 4450.768
992.2800, 5135.244
993.3920, 6017.758
994.5030, 6952.305
995.6140, 7976.887
996.7250, 9533.499
997.8350, 11170.15
998.9460, 13253.85
1000.056, 15803.58
1001.167, 18766.35
1002.277, 22663.15
1003.387, 27018.99
1004.496, 32081.86
1005.606, 37645.76
1006.715, 43458.69
1007.825, 48346.66
1008.934, 51794.64
1010.043, 53473.69
1011.152, 51770.75
1012.260, 48945.84
1013.369, 44913.97
1014.477, 40993.14
1015.586, 37091.33
1016.694, 34837.55
1017.802, 33423.81
1018.909, 32832.10
1020.017, 32766.42
1021.124, 32910.77
1022.232, 33307.15
1023.339, 33998.57
1024.446, 34781.02
1025.553, 35507.51
1026.659, 36208.01
1027.766, 36610.54
1028.872, 36387.11
1029.979, 36185.72
1031.085, 34908.35
1032.191, 33626.02
1033.296, 31822.72
1034.402, 29332.47
1035.507, 26933.24
1036.613, 24676.11
1037.718, 22473.96
1038.823, 20230.86
1039.928, 18059.80
1041.032, 16828.78
1042.137, 14732.76
1043.241, 13188.59
1044.346, 11490.68
1045.450, 9982.812
1046.554, 8777.996
1047.657, 7842.244
1048.761, 6865.898
1049.864, 6093.598
1050.968, 5522.524
1052.071, 4901.822
1053.174, 4533.503
1054.277, 3986.059
1055.379, 3783.674
1056.482, 3354.178
1057.584, 3132.874
1058.687, 2827.602
1059.789, 2641.103
1060.891, 2311.449
1061.992, 2099.249
1063.094, 1907.303
1064.196, 1692.553
1065.297, 1567.081
1066.398, 1378.912
1067.499, 1252.062
1068.600, 1146.260
1069.701, 1044.384
1070.801, 984.2100
1071.902, 891.4990
1073.002, 761.3638
1074.102, 694.8145
1075.202, 671.9277
1076.302, 658.3208
1077.402, 669.2603
1078.501, 548.0273
1079.600, 525.1826
1080.700, 536.2090
1081.799, 365.4224
1082.898, 403.1343
1083.996, 408.5732
1085.095, 375.0073
1086.193, 378.0059
1087.292, 390.6587
1088.390, 323.7954
1089.488, 279.2578
1090.586, 240.2158
1091.683, 278.4912
1092.781, 260.7729
1093.878, 291.5200
1094.975, 266.9399
1096.073, 211.5625
1097.169, 196.1328
1098.266, 225.2676
1099.363, 192.3662
1100.459, 189.8726
1101.556, 193.6367
1102.652, 176.8379
1103.748, 197.5757
1104.844, 209.5615
1105.940, 150.1382
1107.035, 152.4229
1108.131, 130.2959
1109.226, 92.57422
1110.321, 142.7495
1111.416, 191.0332
1112.511, 174.0723
1113.605, 194.3379
1114.700, 129.8838
1115.794, 143.6958
1116.889, 279.0283
1117.983, 222.5835
1119.077, 298.9985
1120.170, 293.6436
1121.264, 304.3379
1122.357, 302.5967
1123.451, 294.4619
1124.544, 313.4033
1125.637, 280.1250
1126.730, 209.6353
1127.823, 208.0762
1128.915, 220.4277
1130.008, 212.9180
1131.100, 130.1362
1132.192, 205.2651
1133.284, 135.0371
1134.376, 240.0693
1135.467, 242.1787
1136.559, 166.8872
1137.650, 172.4478
1138.742, 120.5386
1139.833, 138.2363
1140.924, 132.0317
1142.014, 85.88623
1143.105, 140.4038
1144.195, 613.1777
1145.286, 761.8667
1146.376, 714.3931
1147.466, 927.1152
1148.556, 551.3579
1149.646, 1016.890
1150.735, 69.46924
1151.825, 84.00391
1152.914, 40.55908
1154.003, 33.09521
1155.092, 1.729980
1156.181, 125.2661
1157.270, 130.8662
1158.358, 38.40186
1159.447, 82.93701
1160.535, 35.48291
1161.623, 70.01562
1162.711, 92.54688
1163.799, 5.075684
1164.886, 34.60498
1165.974, 9.129395
1167.061, 4.349121
1168.148, 51.16895
1169.235, 101.6831
1170.322, 1.193359
1171.409, 41.69922
1172.496, 94.20117
1173.582, 35.30176
1174.669, 25.18262
1175.755, 39.66113
1176.841, 5.134277
1177.927, 58.60156
1179.012, 18.93848
1180.098, 18.48828
1181.183, 24.04980
1182.269, 32.62500
1183.354, 40.32715
1184.439, 2.171875
1185.524, 34.44922
1186.608, 30.08984
1187.693, 34.25195
1188.777, 7.583008
1189.862, 61.09570
1190.946, 17.81006
1192.030, 45.54199
1193.113, 29.30371
1194.197, 55.91211
1195.281, 18.88379
1196.364, 17.70068
1197.447, 31.46191
1198.530, 38.38867
1199.613, 17.59424
1200.696, 9.341309
1201.779, 49.03613
1202.861, 6.004883
1203.944, 23.00635
1205.026, 39.96533
1206.108, 90.00977
1207.190, 33.11230
1208.271, 60.18848
1209.353, 0.3911130
1210.435, 60.61768
1211.516, 29.85889
1212.597, 20.18115
1213.678, 30.21387
1214.759, 3.579590
1215.840, 29.29492
1216.920, 22.28076
1218.001, 3.111328
1219.081, 54.63232
1220.161, 45.13818
1221.241, 48.77393
1222.321, 21.53271
1223.401, 85.18311
1224.480, 1.021973
1225.560, 16.80664
1226.639, 14.67920
1227.718, 10.40527
1228.797, 7.458496
1229.876, 5.521484
1230.955, 24.45801
1232.033, 15.41016
1233.112, 29.33057
1234.190, 24.06250
1235.268, 4.914063
1236.346, 0.9057620
1237.424, 7.315430
1238.501, 28.58350
1239.579, 9.908203
1240.656, 26.49316
1241.733, 21.54395
1242.811, 24.11230
1243.888, 11.65771
1244.964, 19.74561
1246.041, 33.11133
1247.117, 79.44434
1248.194, 33.75244
1249.270, 29.02637
1250.346, 70.26514
1251.422, 0.5224610
1252.498, 63.79883
1253.573, 25.93311
1254.649, 78.02881
1255.724, 41.09766
1256.800, 145.1323
1257.875, 22.14209
1258.950, 20.18652
1260.024, 7.117188
1261.099, 62.09570
1262.173, 88.94629
1263.248, 69.76855
1264.322, 67.56006
1265.396, 103.3208
1266.470, 141.0537
1267.544, 72.76172
1268.617, 113.4380
1269.691, 100.0928
1270.764, 94.71826
1271.837, 177.3154
1272.910, 107.8862
1273.983, 126.4287
1275.056, 169.9438
1276.129, 122.4326
1277.201, 76.89355
1278.273, 204.3213
1279.346, 161.7231
1280.418, 204.0977
1281.489, 170.4463
1282.561, 241.7681
1283.633, 154.0625
1284.704, 203.3184
1285.776, 164.5591
1286.847, 211.7725
1287.918, 267.9595
1288.989, 180.1211
1290.059, 232.2554
1291.130, 289.3687
1292.200, 230.4546
1293.271, 186.5137
1294.341, 281.5459
1295.411, 296.5508
1296.481, 278.4756
1297.551, 244.4258
1298.620, 270.3481
1299.690, 266.2319
1300.759, 237.0996
1301.828, 240.8594
1302.897, 323.0015
1303.966, 258.7861
1305.035, 211.5430
1306.103, 320.2725
1307.172, 241.9741
1308.240, 325.2925
1309.308, 255.5835
1310.376, 260.6743
1311.444, 237.4233
1312.512, 238.7925
1313.580, 236.6084
1314.647, 221.8066
1315.714, 230.4131
1316.781, 218.8638
1317.848, 205.2866
1318.915, 321.9531
1319.982, 256.7993
1321.049, 265.2046
1322.115, 206.3809
1323.181, 282.6592
1324.248, 236.1763
1325.314, 251.6729
1326.380, 265.8672
1327.445, 98.02686
1328.511, 156.2939
1329.576, 138.8789
1330.642, 238.0254
1331.707, 274.6201
1332.772, 184.6333
1333.837, 275.0190
1334.902, 183.1553
1335.966, 165.7568
1337.031, 195.5542
1338.095, 185.9780
1339.159, 166.5425
1340.223, 190.9365
1341.287, 196.8384
1342.351, 216.0122
1343.415, 153.2065
1344.478, 157.2441
1345.541, 144.8140
1346.605, 248.3052
1347.668, 145.4678
1348.731, 206.1343
1349.793, 242.4819
1350.856, 173.8257
1351.918, 224.7100
1352.981, 193.9199
1354.043, 147.9253
1355.105, 209.9800
1356.167, 180.4688
1357.229, 163.7207
1358.290, 223.1035
1359.352, 297.9551
1360.413, 250.3657
1361.475, 208.2358
1362.536, 258.8550
1363.597, 248.8916
1364.657, 187.2036
1365.718, 236.9238
1366.779, 193.2344
1367.839, 189.6938
1368.899, 197.9888
1369.959, 98.52295
1371.019, 276.8257
1372.079, 235.8428
1373.139, 169.5879
1374.198, 152.8247
1375.258, 142.8149
1376.317, 154.9395
1377.376, 225.8276
1378.435, 137.7754
1379.494, 68.03662
1380.553, 219.7261
1381.611, 231.2505
1382.670, 141.0298
1383.728, 180.0132
1384.786, 235.0996
1385.844, 84.55273
1386.902, 180.5356
1387.960, 73.78320
1389.017, 184.1147
1390.075, 141.7954
1391.132, 193.2085
1392.189, 222.5371
1393.246, 167.2603
1394.303, 105.2847
1395.360, 116.6108
1396.417, 103.4663
1397.473, 221.0723
1398.529, 153.6104
1399.585, 187.4790
1400.642, 164.0835
1401.697, 172.7642
1402.753, 109.6001
1403.809, 96.23193
1404.864, 201.3350
1405.920, 113.1401
1406.975, 117.8906
1408.030, 108.6772
1409.085, 219.4355
1410.140, 147.2026
1411.194, 153.8643
1412.249, 92.61523
1413.303, 96.07764
1414.358, 122.9746
1415.412, 97.96191
1416.466, 135.6411
1417.520, 125.8389
1418.573, 166.4824
1419.627, 120.1162
1420.680, 106.7393
1421.733, 182.3555
1422.787, 135.9634
1423.840, 127.5625
1424.892, 196.1528
1425.945, 185.7339
1426.998, 187.3066
1428.050, 240.8579
1429.103, 210.3262
1430.155, 131.7842
1431.207, 204.2275
1432.259, 111.6523
1433.310, 240.0576
1434.362, 198.4380
1435.414, 190.8076
1436.465, 203.1685
1437.516, 203.5259
1438.567, 193.5640
1439.618, 174.2876
1440.669, 193.6196
1441.720, 169.0840
1442.770, 213.2031
1443.820, 171.4692
1444.871, 185.7168
1445.921, 201.9380
1446.971, 168.4146
1448.021, 142.1689
1449.070, 206.3364
1450.120, 175.4463
1451.169, 191.5449
1452.219, 274.7544
1453.268, 227.9424
1454.317, 244.0464
1455.366, 153.3032
1456.414, 213.4292
1457.463, 238.6221
1458.511, 239.9390
1459.560, 159.3057
1460.608, 76.69531
1461.656, 143.0923
1462.704, 127.4985
1463.752, 165.8994
1464.799, 146.3032
1465.847, 136.7363
1466.894, 72.22266
1467.941, 112.2158
1468.988, 92.27295
1470.035, 123.9150
1471.082, 127.5566
1472.129, 121.9512
1473.175, 166.6670
1474.222, 108.3521
1475.268, 119.0405
1476.314, 99.63867
1477.360, 155.2388
1478.406, 73.97998
1479.452, 110.7271
1480.498, 205.4712
1481.543, 184.2026
1482.588, 154.9336
1483.633, 154.6641
1484.679, 148.3921
1485.723, 62.12646
1486.768, 134.8584
1487.813, 129.5864
1488.857, 32.31299
1489.902, 151.0386
1490.946, 39.75732
1491.990, 154.4536
1493.034, 21.14990
1494.078, 42.84619
1495.122, 102.5439
1496.165, 46.24219
1497.209, 73.94385
1498.252, 77.65088
1499.295, 26.36475
1500.338, 94.08740
1501.381, 107.8193
1502.424, 82.56152
1503.466, 6.315918
1504.509, 94.08545
1505.551, 116.8716
1506.593, 130.6948
1507.635, 28.54590
1508.677, 29.42188
1509.719, 17.32324
1510.761, 18.74854
1511.802, 87.20557
1512.844, 135.1826
1513.885, 75.18115
1514.926, 136.2021
1515.967, 39.24561
1517.008, 105.3101
1518.049, 30.39014
1519.089, 1.489746
1520.130, 61.60742
1521.170, 15.25488
1522.210, 103.9004
1523.250, 59.07178
1524.290, 163.2627
1525.330, 87.47314
1526.370, 36.70605
1527.409, 107.9224
1528.448, 95.20459
1529.488, 76.33496
1530.527, 90.67529
1531.566, 82.05078
1532.605, 99.39404
1533.643, 90.93311
1534.682, 82.36963
1535.720, 75.37549
1536.759, 77.94043
1537.797, 60.15381
1538.835, 100.5464
1539.873, 3.7108999E-02
1540.910, 99.40234
1541.948, 19.03613
1542.986, 43.73193
1544.023, 97.84668
1545.060, 94.93896
1546.097, 70.00195
1547.134, 69.02783
1548.171, 51.00049
1549.208, 161.8960
1550.244, 92.71777
1551.281, 177.6577
1552.317, 40.77832
1553.353, 98.27393
1554.389, 92.84473
1555.425, 144.0127
1556.461, 38.63379
1557.497, 46.48975
1558.532, 4.439453
1559.567, 16.97656
1560.603, 42.61084
1561.638, 61.49316
1562.673, 8.463379
1563.708, 0.0000000E+00
##END=



