##NAMES=Enstatite
##RRUFFID=R060630
##IDEAL CHEMISTRY=MgSiO_3_
##LOCALITY=unknown
##OWNER=RRUFF
##SOURCE=Gemological Institute of America
##DESCRIPTION=Tan colored fragment
##STATUS=The identification of this mineral has been confirmed by X-ray diffraction and chemical analysis
##URL=rruff.info/R060630
##MEASURED CHEMISTRY=(Mg_0.89_Fe_0.07_Al_0.04_)_Σ=1_(Si_0.96_Al_0.04_)_Σ=1_O_3_
##PIN_ID=L00984
##ORIENTATION=Laser parallel to a* (1 0 0). Fiducial mark perpendicular to laser is parallel to -b [0 -1 0]
118.1340, 0.0000000E+00
119.3650, 97.95703
120.5960, 12.83984
121.8270, 16.60254
123.0580, 153.6504
124.2880, 210.4102
125.5190, 97.03418
126.7490, 52.25684
127.9790, 32.13477
129.2090, 110.0312
130.4390, 95.40234
131.6680, 214.7627
132.8980, 157.7090
134.1270, 108.9082
135.3560, 301.0869
136.5850, 278.0508
137.8140, 491.8467
139.0430, 713.3789
140.2710, 809.3965
141.5000, 662.6963
142.7280, 829.1211
143.9560, 972.5391
145.1840, 914.8506
146.4120, 1231.975
147.6390, 1272.844
148.8670, 1292.400
150.0940, 1482.594
151.3210, 1630.381
152.5490, 1684.725
153.7750, 1705.544
155.0020, 1527.785
156.2290, 1586.718
157.4550, 1437.045
158.6810, 1297.652
159.9080, 1293.346
161.1340, 1263.133
162.3590, 1309.021
163.5850, 1306.016
164.8110, 1317.126
166.0360, 1056.357
167.2610, 819.7148
168.4860, 699.2021
169.7110, 771.8311
170.9360, 742.6191
172.1610, 566.5752
173.3850, 422.7041
174.6100, 393.0039
175.8340, 410.4717
177.0580, 527.1064
178.2820, 460.9053
179.5050, 515.8701
180.7290, 559.9971
181.9520, 833.2842
183.1760, 882.7334
184.3990, 1290.340
185.6220, 1427.106
186.8450, 1763.028
188.0670, 1962.107
189.2900, 2495.338
190.5120, 2660.998
191.7340, 3009.138
192.9560, 3304.845
194.1780, 3476.206
195.4000, 3705.925
196.6220, 3806.048
197.8430, 3761.990
199.0640, 3810.033
200.2860, 3538.180
201.5070, 3298.438
202.7270, 3097.814
203.9480, 2661.311
205.1690, 2152.929
206.3890, 1807.672
207.6090, 1689.558
208.8290, 1374.588
210.0490, 1119.743
211.2690, 1218.027
212.4890, 1242.438
213.7080, 1196.974
214.9280, 1162.635
216.1470, 1236.421
217.3660, 1348.331
218.5850, 1555.377
219.8030, 1706.695
221.0220, 1970.301
222.2400, 2289.118
223.4590, 2746.215
224.6770, 3077.520
225.8950, 3872.948
227.1120, 4761.488
228.3300, 5876.133
229.5480, 6652.879
230.7650, 7713.724
231.9820, 8814.665
233.1990, 10429.70
234.4160, 10330.84
235.6330, 11064.07
236.8490, 10919.39
238.0660, 10091.82
239.2820, 8768.337
240.4980, 7268.953
241.7140, 6084.666
242.9300, 5036.471
244.1460, 3847.376
245.3610, 2835.377
246.5770, 2204.471
247.7920, 1912.660
249.0070, 1207.945
250.2220, 1033.322
251.4370, 726.7930
252.6510, 516.3584
253.8660, 458.0176
255.0800, 192.7676
256.2940, 81.61328
257.5080, 359.5508
258.7220, 168.6504
259.9360, 609.7012
261.1490, 144.9131
262.3630, 157.7832
263.5760, 221.4131
264.7890, 172.3193
266.0020, 217.0195
267.2150, 40.42773
268.4270, 106.4004
269.6400, 218.1631
270.8520, 124.6318
272.0640, 199.8213
273.2760, 119.7705
274.4880, 87.48828
275.7000, 115.0107
276.9120, 82.72266
278.1230, 116.6357
279.3340, 280.7334
280.5450, 254.0078
281.7560, 452.4502
282.9670, 516.0518
284.1780, 723.8037
285.3880, 962.6982
286.5980, 999.7285
287.8090, 1196.889
289.0190, 1419.175
290.2290, 1694.580
291.4380, 1853.174
292.6480, 2090.738
293.8570, 2204.484
295.0670, 2356.337
296.2760, 2519.319
297.4850, 2507.377
298.6930, 2360.532
299.9020, 2088.785
301.1110, 1938.129
302.3190, 1814.556
303.5270, 1672.059
304.7350, 1535.638
305.9430, 1465.293
307.1510, 1432.022
308.3580, 1419.826
309.5660, 1476.707
310.7730, 1670.660
311.9800, 1931.688
313.1870, 1976.788
314.3940, 2324.963
315.6010, 2377.210
316.8070, 2759.531
318.0130, 3090.731
319.2200, 3293.988
320.4260, 3720.963
321.6310, 3962.830
322.8370, 4541.291
324.0430, 4950.557
325.2480, 5297.578
326.4540, 5750.756
327.6590, 6365.674
328.8640, 6996.205
330.0680, 7771.354
331.2730, 8227.708
332.4780, 9062.187
333.6820, 10012.68
334.8860, 10872.24
336.0900, 12024.81
337.2940, 12867.32
338.4980, 14194.82
339.7010, 15218.30
340.9050, 16391.74
342.1080, 17571.21
343.3110, 18609.75
344.5140, 19356.35
345.7170, 19632.02
346.9200, 19823.76
348.1220, 19869.57
349.3240, 19348.45
350.5270, 18623.39
351.7290, 17556.40
352.9310, 16460.48
354.1320, 15400.62
355.3340, 14149.82
356.5350, 13348.09
357.7370, 12342.43
358.9380, 11018.83
360.1390, 10136.30
361.3400, 9268.832
362.5400, 8749.428
363.7410, 7941.086
364.9410, 7334.807
366.1410, 6875.589
367.3410, 6323.436
368.5410, 5938.340
369.7410, 5778.305
370.9400, 5806.328
372.1400, 5961.411
373.3390, 5342.553
374.5380, 5391.754
375.7370, 5327.014
376.9360, 5613.332
378.1350, 5667.708
379.3330, 5891.143
380.5310, 6233.634
381.7300, 6134.186
382.9280, 6406.791
384.1260, 6631.456
385.3230, 6710.178
386.5210, 6630.957
387.7180, 7000.795
388.9160, 6926.688
390.1130, 7202.641
391.3100, 7249.648
392.5060, 7708.715
393.7030, 7811.837
394.9000, 8159.017
396.0960, 8209.251
397.2920, 8531.541
398.4880, 8720.886
399.6840, 8687.288
400.8800, 8769.746
402.0750, 8608.648
403.2710, 8555.824
404.4660, 8223.443
405.6610, 8084.117
406.8560, 7960.730
408.0510, 7894.661
409.2450, 7747.791
410.4400, 7821.093
411.6340, 7935.186
412.8280, 7949.202
414.0220, 7979.727
415.2160, 7940.203
416.4100, 7904.676
417.6030, 7596.474
418.7970, 7133.525
419.9900, 6736.048
421.1830, 6094.640
422.3760, 5383.298
423.5690, 4738.023
424.7610, 3718.815
425.9540, 3149.672
427.1460, 2646.592
428.3380, 2165.576
429.5300, 1745.625
430.7220, 1307.734
431.9140, 981.2578
433.1050, 638.1426
434.2970, 460.4375
435.4880, 257.7939
436.6790, 179.2100
437.8700, 104.6875
439.0610, 50.77637
440.2510, 80.79785
441.4420, 37.43164
442.6320, 61.12109
443.8220, 62.87109
445.0120, 72.27734
446.2020, 116.5410
447.3910, 98.46094
448.5810, 184.4375
449.7700, 165.4697
450.9600, 216.5596
452.1490, 239.8545
453.3370, 120.9053
454.5260, 256.1602
455.7150, 159.4688
456.9030, 108.8330
458.0910, 215.2510
459.2800, 98.72559
460.4670, 39.65918
461.6550, 209.2871
462.8430, 26.35840
464.0300, 209.4395
465.2180, 93.47168
466.4050, 7.707031
467.5920, 178.4971
468.7790, 117.6221
469.9650, 89.86426
471.1520, 78.95020
472.3380, 25.52051
473.5250, 41.72754
474.7110, 24.52441
475.8970, 146.1943
477.0820, 105.9102
478.2680, 191.6729
479.4540, 122.4824
480.6390, 175.3369
481.8240, 184.2373
483.0090, 167.1885
484.1940, 165.1836
485.3780, 84.22754
486.5630, 154.3164
487.7470, 104.9062
488.9320, 147.6406
490.1160, 83.87500
491.3000, 128.1689
492.4830, 145.5166
493.6670, 40.92188
494.8500, 54.37793
496.0340, 101.9043
497.2170, 146.5215
498.4000, 110.2402
499.5820, 103.0312
500.7650, 347.9072
501.9480, 293.8408
503.1300, 278.8447
504.3120, 532.8984
505.4940, 779.9961
506.6760, 628.1680
507.8580, 914.4424
509.0390, 1006.807
510.2210, 1272.254
511.4020, 1502.778
512.5830, 1711.364
513.7640, 1874.017
514.9450, 2041.864
516.1250, 2152.479
517.3060, 2261.314
518.4860, 2483.198
519.6660, 2477.126
520.8460, 2451.133
522.0260, 2659.234
523.2060, 2547.411
524.3850, 2643.646
525.5650, 2865.949
526.7440, 2776.330
527.9230, 2888.815
529.1020, 2983.397
530.2810, 3110.078
531.4590, 3234.825
532.6380, 3375.634
533.8160, 3392.504
534.9940, 3294.408
536.1720, 3227.355
537.3500, 3028.338
538.5270, 2933.372
539.7050, 2535.440
540.8820, 2127.539
542.0590, 1974.800
543.2360, 1752.561
544.4130, 1623.021
545.5900, 1561.242
546.7660, 1615.492
547.9430, 1584.771
549.1190, 1485.104
550.2950, 1533.499
551.4710, 1393.948
552.6470, 1488.458
553.8220, 1438.000
554.9980, 1331.584
556.1730, 1338.228
557.3480, 1346.914
558.5230, 1232.655
559.6980, 1076.438
560.8730, 1090.258
562.0470, 1173.101
563.2220, 1314.967
564.3960, 1539.855
565.5700, 1704.767
566.7440, 2082.701
567.9170, 2270.656
569.0910, 2600.633
570.2640, 3190.631
571.4380, 3501.648
572.6110, 3919.687
573.7840, 3969.744
574.9570, 4100.822
576.1290, 4033.916
577.3020, 3696.030
578.4740, 3442.160
579.6460, 3055.311
580.8180, 2702.449
581.9900, 2217.633
583.1620, 1832.832
584.3330, 1350.048
585.5040, 1235.278
586.6760, 1151.524
587.8470, 845.7861
589.0180, 921.0625
590.1880, 711.3516
591.3590, 710.6553
592.5290, 577.9717
593.7000, 403.3018
594.8700, 470.6426
596.0400, 241.9971
597.2090, 238.3623
598.3790, 101.7393
599.5490, 93.12793
600.7180, 9.555664
601.8870, 44.11230
603.0560, 130.2773
604.2250, 111.3496
605.3940, 136.2695
606.5620, 123.7480
607.7300, 15.00781
608.8990, 66.92480
610.0670, 7.042969
611.2350, 17.66309
612.4020, 20.07910
613.5700, 175.2744
614.7370, 34.66406
615.9050, 64.33203
617.0720, 239.3828
618.2390, 76.44043
619.4060, 205.5078
620.5720, 315.5811
621.7390, 391.6650
622.9050, 604.0391
624.0710, 542.1357
625.2370, 531.2900
626.4030, 761.4004
627.5690, 1011.082
628.7340, 1161.204
629.9000, 1622.307
631.0650, 1510.191
632.2300, 2059.255
633.3950, 2139.629
634.5600, 2478.304
635.7240, 2580.116
636.8890, 3031.627
638.0530, 3037.896
639.2170, 3253.575
640.3810, 3399.705
641.5450, 3653.256
642.7080, 3949.264
643.8720, 4309.756
645.0350, 4607.772
646.1980, 5239.697
647.3610, 6033.107
648.5240, 6617.339
649.6870, 7586.963
650.8490, 8703.422
652.0120, 9485.897
653.1740, 10670.72
654.3360, 11746.85
655.4980, 12721.45
656.6600, 13386.27
657.8210, 14089.27
658.9830, 14319.71
660.1440, 14427.14
661.3050, 14289.79
662.4660, 13917.16
663.6270, 13369.08
664.7870, 12526.38
665.9480, 11964.88
667.1080, 11785.34
668.2680, 11403.93
669.4280, 11606.92
670.5880, 11782.88
671.7480, 12613.49
672.9070, 13432.29
674.0670, 14634.44
675.2260, 16482.02
676.3850, 18504.99
677.5440, 20882.08
678.7030, 23562.98
679.8610, 26039.70
681.0200, 28353.40
682.1780, 30156.08
683.3360, 31488.72
684.4940, 31794.35
685.6520, 31169.96
686.8090, 30072.53
687.9670, 27567.09
689.1240, 24760.62
690.2810, 21722.12
691.4380, 19142.60
692.5950, 16239.05
693.7520, 14296.48
694.9080, 12037.88
696.0650, 10431.26
697.2210, 8774.602
698.3770, 7715.924
699.5330, 6841.215
700.6880, 6196.479
701.8440, 5412.717
702.9990, 4913.926
704.1550, 4419.107
705.3100, 3954.258
706.4650, 3683.383
707.6190, 3525.480
708.7740, 2830.549
709.9290, 2737.588
711.0830, 2706.600
712.2370, 2674.578
713.3910, 2208.533
714.5450, 2297.455
715.6980, 2018.350
716.8520, 2117.213
718.0050, 1694.051
719.1580, 1905.855
720.3110, 1633.643
721.4640, 1509.398
722.6170, 1736.127
723.7700, 1806.824
724.9220, 1446.492
726.0740, 1517.129
727.2260, 1451.736
728.3780, 1573.314
729.5300, 1329.861
730.6810, 1362.377
731.8330, 1271.865
732.9840, 1261.320
734.1350, 1115.746
735.2860, 1076.143
736.4370, 1242.506
737.5880, 858.8418
738.7380, 855.1406
739.8880, 975.3262
741.0390, 885.7656
742.1890, 829.6270
743.3380, 798.5137
744.4880, 723.3301
745.6380, 704.9336
746.7870, 702.9375
747.9360, 658.9746
749.0850, 646.8613
750.2340, 599.7207
751.3830, 642.3926
752.5310, 587.5957
753.6800, 664.6035
754.8280, 592.1836
755.9760, 514.8750
757.1240, 478.9727
758.2720, 319.0410
759.4190, 257.0801
760.5670, 143.0938
761.7140, 335.0801
762.8610, 170.0332
764.0080, 327.9629
765.1550, 115.8633
766.3020, 375.7305
767.4480, 85.57227
768.5950, 20.37695
769.7410, 40.12695
770.8870, 30.83203
772.0330, 52.48633
773.1780, 29.90234
774.3240, 105.3691
775.4690, 149.9531
776.6140, 45.68164
777.7590, 85.49805
778.9040, 2.580078
780.0490, 37.40234
781.1940, 50.53516
782.3380, 75.43359
783.4820, 54.70508
784.6260, 174.9277
785.7700, 125.3047
786.9140, 100.8047
788.0580, 83.41406
789.2010, 21.12305
790.3450, 43.89844
791.4880, 51.24609
792.6310, 58.64258
793.7730, 63.61719
794.9160, 12.32422
796.0590, 40.21875
797.2010, 100.9219
798.3430, 175.1641
799.4850, 95.54883
800.6270, 42.03125
801.7690, 65.58594
802.9100, 118.2207
804.0520, 214.9609
805.1930, 202.8613
806.3340, 195.0605
807.4750, 85.10547
808.6160, 65.38672
809.7560, 70.74219
810.8970, 67.82617
812.0370, 7.626953
813.1770, 76.87695
814.3170, 51.64062
815.4570, 73.78320
816.5960, 154.1855
817.7360, 184.5684
818.8750, 103.9355
820.0140, 324.2852
821.1530, 242.6133
822.2920, 337.9297
823.4310, 145.2285
824.5690, 401.5098
825.7070, 356.7773
826.8460, 347.0254
827.9840, 478.2617
829.1220, 606.4824
830.2590, 625.6895
831.3970, 743.8809
832.5340, 771.0605
833.6710, 594.2266
834.8080, 821.3750
835.9450, 980.5156
837.0820, 1117.645
838.2190, 1377.762
839.3550, 1323.865
840.4910, 1358.957
841.6270, 1488.041
842.7630, 1331.111
843.8990, 1407.174
845.0350, 1360.225
846.1700, 1210.266
847.3060, 1371.297
848.4410, 1007.318
849.5760, 1155.332
850.7100, 1086.340
851.8450, 858.3379
852.9800, 799.3281
854.1140, 760.3105
855.2480, 617.2871
856.3820, 420.2559
857.5160, 642.2188
858.6500, 518.1738
859.7830, 461.1250
860.9170, 547.0684
862.0500, 518.0098
863.1830, 522.5352
864.3160, 348.8750
865.4480, 505.8047
866.5810, 448.7285
867.7130, 402.6465
868.8460, 451.5625
869.9780, 420.4766
871.1100, 370.3887
872.2410, 510.2969
873.3730, 510.2031
874.5050, 292.1094
875.6360, 666.0156
876.7670, 435.9297
877.8980, 569.8516
879.0290, 547.8125
880.1590, 546.8145
881.2900, 652.8633
882.4200, 468.9473
883.5500, 767.0449
884.6800, 736.1680
885.8100, 641.2988
886.9400, 671.4434
888.0690, 746.5918
889.1990, 821.7422
890.3280, 870.9082
891.4570, 948.1289
892.5860, 809.2676
893.7140, 1097.467
894.8430, 1111.682
895.9710, 1210.914
897.1000, 917.8652
898.2280, 1060.113
899.3560, 1101.322
900.4830, 1096.641
901.6110, 1320.410
902.7380, 1350.750
903.8660, 1273.133
904.9930, 1373.740
906.1200, 1349.184
907.2460, 1518.326
908.3730, 1599.180
909.5000, 1544.906
910.6260, 1843.945
911.7520, 1845.260
912.8780, 2035.191
914.0040, 2038.680
915.1290, 2282.760
916.2550, 2395.393
917.3800, 2767.594
918.5050, 2675.289
919.6300, 3037.115
920.7550, 3168.475
921.8800, 3662.043
923.0040, 3902.252
924.1290, 4115.637
925.2530, 4760.014
926.3770, 5017.061
927.5010, 5571.820
928.6250, 5929.148
929.7480, 6176.271
930.8720, 6577.227
931.9950, 6451.043
933.1180, 6943.117
934.2410, 6837.633
935.3640, 6391.246
936.4860, 6513.371
937.6090, 6093.125
938.7310, 5854.701
939.8530, 5543.322
940.9750, 5423.828
942.0970, 5279.965
943.2180, 5301.160
944.3400, 4809.729
945.4610, 4883.129
946.5820, 4666.221
947.7030, 4396.879
948.8240, 4340.211
949.9450, 4294.451
951.0650, 4163.898
952.1860, 4023.527
953.3060, 3732.189
954.4260, 3510.885
955.5460, 3282.635
956.6650, 3122.418
957.7850, 3005.246
958.9040, 2585.141
960.0230, 2306.074
961.1420, 2102.039
962.2610, 2126.072
963.3800, 1802.143
964.4990, 1662.254
965.6170, 1512.453
966.7350, 1401.682
967.8530, 1456.947
968.9710, 1375.248
970.0890, 1324.600
971.2070, 1472.984
972.3240, 1439.404
973.4410, 1474.859
974.5580, 1603.111
975.6750, 1648.877
976.7920, 1856.479
977.9090, 2031.113
979.0250, 2218.783
980.1410, 2682.498
981.2580, 2975.250
982.3740, 3155.037
983.4890, 3965.859
984.6050, 4186.721
985.7200, 5024.617
986.8360, 5617.551
987.9510, 6662.516
989.0660, 7895.516
990.1810, 8753.553
991.2950, 10235.62
992.4100, 11604.76
993.5240, 13791.94
994.6390, 15526.15
995.7530, 17376.41
996.8660, 20244.70
997.9800, 22419.03
999.0940, 24997.38
1000.207, 27465.78
1001.320, 30151.20
1002.433, 32623.67
1003.546, 35184.17
1004.659, 37746.70
1005.772, 39440.29
1006.884, 40650.88
1007.996, 41419.52
1009.108, 41591.21
1010.220, 41408.09
1011.332, 40358.84
1012.444, 38890.64
1013.555, 37160.51
1014.666, 35120.40
1015.777, 33319.29
1016.888, 31576.27
1017.999, 30372.39
1019.110, 28702.38
1020.220, 27913.40
1021.331, 27170.46
1022.441, 26234.54
1023.551, 25684.68
1024.661, 25254.83
1025.770, 24940.29
1026.880, 25083.08
1027.989, 24984.12
1029.098, 24747.68
1030.207, 24536.00
1031.316, 24725.58
1032.425, 24110.97
1033.533, 23698.17
1034.642, 22601.31
1035.750, 21324.86
1036.858, 20160.73
1037.966, 18968.46
1039.073, 17667.15
1040.181, 16224.81
1041.288, 15096.90
1042.396, 14032.79
1043.503, 12955.55
1044.610, 12005.28
1045.716, 10616.75
1046.823, 9831.850
1047.929, 9052.895
1049.036, 8622.168
1050.142, 7713.107
1051.248, 7154.721
1052.353, 6637.422
1053.459, 5995.592
1054.564, 5560.168
1055.670, 5086.131
1056.775, 4539.656
1057.880, 4259.314
1058.985, 3986.320
1060.089, 3668.275
1061.194, 3364.072
1062.298, 3071.412
1063.402, 2713.443
1064.506, 2516.266
1065.610, 2212.570
1066.713, 2019.680
1067.817, 1778.719
1068.920, 1796.957
1070.023, 1588.213
1071.126, 1390.008
1072.229, 1232.713
1073.332, 1085.416
1074.435, 1014.084
1075.537, 912.1328
1076.639, 694.3008
1077.741, 715.9004
1078.843, 588.3203
1079.945, 665.7734
1081.046, 649.3477
1082.148, 567.2852
1083.249, 432.2715
1084.350, 499.1758
1085.451, 404.1504
1086.551, 263.6191
1087.652, 364.9473
1088.752, 240.2422
1089.853, 197.8848
1090.953, 291.2871
1092.053, 264.2480
1093.152, 230.3477
1094.252, 313.0859
1095.351, 378.7129
1096.451, 152.5488
1097.550, 295.4121
1098.649, 247.7344
1099.748, 284.7988
1100.846, 161.6543
1101.945, 296.8477
1103.043, 112.0020
1104.141, 337.9531
1105.239, 187.6816
1106.337, 231.8984
1107.434, 331.0957
1108.532, 372.9434
1109.629, 293.3965
1110.726, 268.6348
1111.823, 271.2402
1112.920, 241.1309
1114.017, 239.1543
1115.113, 105.0410
1116.210, 265.3535
1117.306, 176.7148
1118.402, 261.7637
1119.498, 580.6953
1120.593, 335.8730
1121.689, 392.7773
1122.784, 441.2930
1123.879, 330.5684
1124.974, 453.5703
1126.069, 227.5000
1127.164, 316.0996
1128.259, 81.37500
1129.353, 226.2578
1130.447, 226.2871
1131.541, 137.1582
1132.635, 63.02734
1133.729, 121.7812
1134.822, 242.6367
1135.916, 128.4902
1137.009, 156.3340
1138.102, 29.33594
1139.195, 129.4492
1140.288, 60.02734
1141.380, 13.01562
1142.473, 5.960938
1143.565, 40.24219
1144.657, 47.87891
1145.749, 1.113281
1146.841, 13.63867
1147.932, 44.47461
1149.024, 10.63867
1150.115, 31.33008
1151.206, 5.978516
1152.297, 38.54883
1153.388, 17.58008
1154.479, 4.628906
1155.569, 31.27539
1156.659, 97.09180
1157.750, 19.55078
1158.839, 68.99219
1159.929, 75.47461
1161.019, 77.15625
1162.108, 32.80469
1163.198, 48.27930
1164.287, 219.7031
1165.376, 39.23828
1166.465, 26.99414
1167.553, 48.54688
1168.642, 8.625000
1169.730, 30.77930
1170.818, 53.13477
1171.906, 1.748047
1172.994, 23.34375
1174.082, 85.66992
1175.170, 77.26758
1176.257, 54.18555
1177.344, 53.75000
1178.431, 151.6660
1179.518, 47.56055
1180.605, 147.1328
1181.691, 12.37109
1182.778, 91.37109
1183.864, 16.72852
1184.950, 52.13086
1186.036, 71.55859
1187.122, 108.9082
1188.207, 95.35156
1189.292, 17.23047
1190.378, 54.48633
1191.463, 77.88867
1192.548, 11.63281
1193.632, 78.57617
1194.717, 178.7520
1195.801, 41.90430
1196.886, 99.26758
1197.970, 138.3555
1199.054, 112.5859
1200.137, 117.3633
1201.221, 5.716797
1202.305, 54.14453
1203.388, 68.17969
1204.471, 12.02539
1205.554, 63.29492
1206.637, 46.34570
1207.719, 68.04883
1208.802, 0.4589840
1209.884, 19.18945
1210.966, 110.3789
1212.048, 35.10156
1213.130, 122.1934
1214.212, 148.3535
1215.293, 137.4805
1216.374, 62.57227
1217.456, 18.37695
1218.536, 89.59961
1219.617, 11.53320
1220.698, 63.59375
1221.778, 53.17773
1222.859, 144.9023
1223.939, 65.41211
1225.019, 74.16992
1226.099, 36.70898
1227.178, 127.8086
1228.258, 116.5352
1229.337, 178.8379
1230.417, 298.1016
1231.496, 1.671875
1232.574, 168.4785
1233.653, 220.5918
1234.732, 87.66602
1235.810, 162.6934
1236.888, 170.6836
1237.966, 70.36719
1239.044, 125.4688
1240.122, 169.2617
1241.199, 62.01562
1242.277, 89.71289
1243.354, 155.3633
1244.431, 119.3398
1245.508, 161.7852
1246.585, 152.3320
1247.661, 228.8398
1248.738, 258.3047
1249.814, 200.7754
1250.890, 332.1660
1251.966, 138.5176
1253.042, 51.17383
1254.117, 248.0234
1255.193, 266.1797
1256.268, 77.32812
1257.343, 184.4180
1258.418, 282.4688
1259.493, 244.4766
1260.567, 318.4453
1261.642, 305.3828
1262.716, 122.2832
1263.790, 297.1348
1264.864, 331.9453
1265.938, 439.7168
1267.011, 250.4492
1268.085, 224.1387
1269.158, 142.7871
1270.231, 112.9258
1271.304, 253.7695
1272.377, 180.2734
1273.450, 274.7402
1274.522, 444.1191
1275.594, 349.4609
1276.666, 265.8066
1277.738, 272.0586
1278.810, 239.1602
1279.882, 265.3828
1280.953, 292.5625
1282.025, 408.7051
1283.096, 211.8066
1284.167, 427.8574
1285.238, 364.8770
1286.308, 85.57812
1287.379, 408.9395
1288.449, 380.0430
1289.519, 262.6094
1290.589, 170.4121
1291.659, 277.9473
1292.729, 256.7070
1293.798, 241.6113
1294.868, 396.5605
1295.937, 231.0879
1297.006, 397.2832
1298.075, 371.6230
1299.143, 237.0000
1300.212, 346.4141
1301.280, 387.5078
1302.348, 230.7422
1303.416, 290.2734
1304.484, 265.6602
1305.552, 525.3535
1306.620, 290.4414
1307.687, 420.6113
1308.754, 182.5625
1309.821, 352.8594
1310.888, 212.4805
1311.955, 299.0039
1313.021, 405.0781
1314.088, 261.7656
1315.154, 361.1387
1316.220, 332.9766
1317.286, 264.7090
1318.352, 180.3828
1319.417, 195.3809
1320.483, 392.1699
1321.548, 256.5352
1322.613, 292.9453
1323.678, 448.5645
1324.743, 198.6934
1325.807, 301.0430
1326.872, 482.5078
1327.936, 407.7988
1329.000, 376.0801
1330.064, 335.8438
1331.128, 198.7246
1332.191, 323.6602
1333.255, 296.6816
1334.318, 436.3730
1335.381, 344.2422
1336.444, 265.4141
1337.507, 163.7812
1338.569, 222.1035
1339.632, 297.3008
1340.694, 193.1230
1341.756, 297.9043
1342.818, 423.7578
1343.880, 310.3477
1344.941, 365.6094
1346.003, 285.9941
1347.064, 285.6172
1348.125, 384.4395
1349.186, 292.7070
1350.247, 291.4023
1351.308, 331.9414
1352.368, 415.8281
1353.428, 327.8066
1354.489, 359.5645
1355.549, 323.2812
1356.608, 448.5215
1357.668, 232.0215
1358.727, 257.6934
1359.787, 257.0098
1360.846, 385.3496
1361.905, 319.8750
1362.964, 327.1543
1364.022, 354.8516
1365.081, 280.0762
1366.139, 312.6367
1367.197, 355.5684
1368.255, 164.6992
1369.313, 380.4434
1370.371, 393.9062
1371.428, 103.8945
1372.486, 353.6016
1373.543, 389.7656
1374.600, 360.6621
1375.657, 170.8516
1376.713, 156.1387
1377.770, 227.4609
1378.826, 391.7402
1379.882, 387.3828
1380.938, 263.3223
1381.994, 257.4434
1383.050, 210.2129
1384.106, 249.6836
1385.161, 363.4570
1386.216, 252.6055
1387.271, 362.6992
1388.326, 339.7363
1389.381, 378.8359
1390.435, 340.3809
1391.490, 208.1035
1392.544, 257.1641
1393.598, 230.2051
1394.652, 272.0684
1395.705, 363.8008
1396.759, 276.0488
1397.812, 447.8906
1398.866, 344.6855
1399.919, 218.1582
1400.972, 517.0098
1402.024, 192.9512
1403.077, 191.8828
1404.129, 271.7129
1405.181, 307.5742
1406.233, 151.3926
1407.285, 375.0352
1408.337, 524.9766
1409.389, 687.8555
1410.440, 158.4648
1411.491, 233.3262
1412.542, 297.0898
1413.593, 243.1582
1414.644, 530.9023
1415.695, 250.6523
1416.745, 237.1387
1417.795, 337.1914
1418.845, 128.7188
1419.895, 137.1211
1420.945, 323.8301
1421.995, 377.4531
1423.044, 316.0234
1424.093, 344.5996
1425.142, 325.4219
1426.191, 252.7754
1427.240, 105.3301
1428.289, 118.8594
1429.337, 82.11914
1430.385, 223.5996
1431.433, 244.9941
1432.481, 328.4707
1433.529, 173.0039
1434.577, 140.4512
1435.624, 363.7812
1436.672, 142.2285
1437.719, 198.3887
1438.766, 264.8379
1439.812, 5.716797
1440.859, 360.8125
1441.905, 292.2754
1442.952, 402.8223
1443.998, 54.24023
1445.044, 135.3984
1446.090, 274.7207
1447.135, 157.1309
1448.181, 408.3281
1449.226, 209.6797
1450.271, 282.0605
1451.316, 126.6523
1452.361, 162.2930
1453.405, 254.7129
1454.450, 294.3340
1455.494, 185.0000
1456.538, 165.4160
1457.582, 116.1445
1458.626, 428.8730
1459.670, 218.6816
1460.713, 44.48828
1461.757, 413.3125
1462.800, 116.2090
1463.843, 130.1348
1464.886, 178.0996
1465.928, 197.1738
1466.971, 512.2383
1468.013, 376.3359
1469.055, 7.572266
1470.097, 306.5137
1471.139, 108.6895
1472.181, 218.8613
1473.222, 128.7480
1474.263, 421.9102
1475.305, 209.0410
1476.346, 242.1035
1477.386, 130.2109
1478.427, 129.4082
1479.468, 269.5430
1480.508, 174.6875
1481.548, 153.8164
1482.588, 99.93555
1483.628, 106.0312
1484.668, 200.1816
1485.707, 119.3086
1486.747, 190.4629
1487.786, 135.6230
1488.825, 98.78711
1489.864, 291.9570
1490.902, 278.1309
1491.941, 373.3086
1492.979, 289.4961
1494.017, 179.7012
1495.055, 99.92773
1496.093, 192.1719
1497.131, 107.3574
1498.168, 92.36523
1499.206, 163.9297
1500.243, 358.2383
1501.280, 184.2715
1502.317, 13.74023
1503.354, 193.6270
1504.390, 315.0137
1505.426, 87.42383
1506.463, 216.8691
1507.499, 97.48438
1508.535, 139.9805
1509.570, 323.9316
1510.606, 259.4512
1511.641, 78.99805
1512.676, 21.41406
1513.711, 259.2070
1514.746, 415.8555
1515.781, 221.5449
1516.816, 356.2598
1517.850, 231.3828
1518.884, 255.1445
1519.918, 311.9277
1520.952, 134.7344
1521.986, 294.5762
1523.019, 223.3848
1524.053, 272.2188
1525.086, 144.0781
1526.119, 129.9629
1527.152, 257.8711
1528.185, 101.7441
1529.217, 99.71094
1530.250, 75.70703
1531.282, 211.6641
1532.314, 290.7266
1533.346, 208.8262
1534.377, 88.90625
1535.409, 226.0820
1536.440, 174.4297
1537.472, 44.08984
1538.503, 249.1133
1539.534, 193.3789
1540.564, 205.8691
1541.595, 307.6445
1542.625, 449.9062
1543.656, 244.4902
1544.686, 10.74023
1545.716, 259.8730
1546.745, 24.87109
1547.775, 171.7539
1548.804, 24.49414
1549.834, 190.0293
1550.863, 167.0215
1551.892, 273.6426
1552.920, 135.2324
1553.949, 382.5703
1554.977, 296.8281
1556.006, 153.5723
1557.034, 45.62695
1558.062, 281.2734
1559.089, 3.087891
1560.117, 154.7871
1561.144, 98.30664
1562.172, 84.73633
1563.199, 103.3633
1564.226, 39.33203
1565.252, 104.6523
1566.279, 40.92773
1567.305, 216.3633
1568.332, 57.10547
1569.358, 33.19141
1570.384, 228.3496
1571.409, 0.7089840
1572.435, 0.0000000E+00
##END=



