##NAMES=Enstatite
##RRUFFID=R070550
##IDEAL CHEMISTRY=MgSiO_3_
##LOCALITY=Tanzania
##OWNER=RRUFF
##SOURCE=www.multicolour.com
##DESCRIPTION=Brown, translucent, vitreous crystal fragment
##STATUS=The identification of this mineral has been confirmed by X-ray diffraction and chemical analysis
##URL=rruff.info/R070550
##MEASURED CHEMISTRY=(Mg_0.90_Fe_0.10_)_Î£=1_Si_1.00_O_3_
##PIN_ID=L01656
##ORIENTATION=Laser parallel to a* (1 0 0). Fiducial mark perpendicular to laser is parallel to -b [0 -1 0]
112.8890, 0.0000000E+00
114.1310, 1.704590
115.3720, 77.36938
116.6130, 25.48828
117.8540, 144.3618
119.0950, 287.3481
120.3360, 892.0444
121.5760, 1552.709
122.8160, 2453.326
124.0560, 3401.727
125.2960, 4772.410
126.5350, 6804.133
127.7750, 9239.892
129.0140, 11009.94
130.2530, 11769.90
131.4920, 11128.49
132.7300, 9906.711
133.9690, 8224.832
135.2070, 6427.529
136.4450, 4817.363
137.6830, 3565.987
138.9210, 2838.130
140.1580, 2474.575
141.3950, 2130.150
142.6330, 1823.714
143.8690, 1692.123
145.1060, 1800.822
146.3430, 1751.545
147.5790, 1799.006
148.8150, 1774.141
150.0510, 1739.967
151.2870, 1665.698
152.5220, 1562.633
153.7580, 1425.078
154.9930, 1276.727
156.2280, 1081.491
157.4620, 873.9751
158.6970, 721.2207
159.9310, 753.2666
161.1660, 976.1450
162.4000, 1038.886
163.6330, 1400.516
164.8670, 1571.056
166.1000, 1489.524
167.3340, 1163.936
168.5670, 984.3057
169.8000, 703.6484
171.0320, 473.9746
172.2650, 200.2949
173.4970, 103.6226
174.7290, 128.0151
175.9610, 118.5908
177.1930, 67.09082
178.4240, 71.48535
179.6550, 124.1377
180.8870, 271.8667
182.1170, 362.6709
183.3480, 589.5513
184.5790, 760.5073
185.8090, 1274.539
187.0390, 1785.804
188.2690, 2353.102
189.4990, 2739.006
190.7290, 3300.004
191.9580, 3555.431
193.1870, 3475.115
194.4160, 3445.915
195.6450, 3169.725
196.8740, 2919.129
198.1020, 2522.906
199.3310, 2356.065
200.5590, 2154.403
201.7870, 1933.919
203.0140, 1726.607
204.2420, 1262.463
205.4690, 972.4844
206.6960, 734.6694
207.9230, 474.0132
209.1500, 268.5112
210.3760, 196.1597
211.6030, 201.9541
212.8290, 117.8906
214.0550, 224.9668
215.2810, 352.1787
216.5060, 269.5229
217.7320, 367.9761
218.9570, 612.4883
220.1820, 895.1191
221.4070, 1123.875
222.6320, 1472.754
223.8560, 1989.754
225.0800, 2621.868
226.3040, 3534.085
227.5280, 4437.390
228.7520, 5755.782
229.9760, 7247.255
231.1990, 9138.845
232.4220, 11552.62
233.6450, 13843.67
234.8680, 15701.06
236.0910, 16377.85
237.3130, 16041.98
238.5350, 14637.42
239.7570, 13264.95
240.9790, 10939.53
242.2010, 8744.162
243.4220, 6564.843
244.6430, 5001.573
245.8640, 3555.350
247.0850, 2511.177
248.3060, 1760.050
249.5270, 1263.972
250.7470, 827.9404
251.9670, 449.9561
253.1870, 372.0176
254.4070, 266.1250
255.6260, 143.2773
256.8460, 136.4746
258.0650, 152.7163
259.2840, 116.0449
260.5030, 0.6220700
261.7220, 87.09229
262.9400, 212.2666
264.1580, 314.3428
265.3760, 266.3208
266.5940, 326.8076
267.8120, 358.9023
269.0290, 273.6777
270.2470, 236.1685
271.4640, 182.4072
272.6810, 179.4165
273.8980, 79.22510
275.1140, 35.83496
276.3310, 6.732422
277.5470, 39.53369
278.7630, 23.65430
279.9790, 51.63916
281.1940, 14.49219
282.4100, 19.74170
283.6250, 113.0996
284.8400, 202.5654
286.0550, 218.1318
287.2700, 343.7935
288.4850, 448.5449
289.6990, 594.3809
290.9130, 966.2271
292.1270, 1290.060
293.3410, 1603.972
294.5540, 2055.960
295.7680, 2456.021
296.9810, 2878.153
298.1940, 3223.343
299.4070, 3288.572
300.6200, 3268.829
301.8320, 3113.111
303.0450, 2974.418
304.2570, 3053.749
305.4690, 2955.108
306.6800, 2907.494
307.8920, 2743.909
309.1030, 2624.351
310.3150, 2664.824
311.5260, 2711.326
312.7360, 2574.859
313.9470, 2659.422
315.1580, 3006.015
316.3680, 3469.640
317.5780, 3864.361
318.7880, 4400.980
319.9980, 4833.702
321.2070, 5060.265
322.4170, 5316.161
323.6260, 5682.679
324.8350, 6123.565
326.0430, 6988.495
327.2520, 7958.456
328.4610, 9452.455
329.6690, 11172.51
330.8770, 13707.59
332.0850, 16663.71
333.2920, 20207.83
334.5000, 24371.89
335.7070, 29429.71
336.9140, 34935.25
338.1210, 40205.59
339.3280, 44732.79
340.5350, 46825.97
341.7410, 46907.14
342.9470, 44532.28
344.1540, 40447.46
345.3590, 35214.66
346.5650, 29769.93
347.7710, 24731.09
348.9760, 20422.26
350.1810, 16797.41
351.3860, 13831.02
352.5910, 11804.93
353.7950, 10342.20
355.0000, 9224.270
356.2040, 8410.675
357.4080, 7834.480
358.6120, 7238.230
359.8150, 6645.417
361.0190, 5976.850
362.2220, 5319.274
363.4250, 4956.510
364.6280, 4461.320
365.8310, 4283.161
367.0340, 4091.033
368.2360, 4001.934
369.4380, 4134.862
370.6400, 4289.820
371.8420, 4446.806
373.0440, 4885.818
374.2450, 5458.860
375.4470, 6000.928
376.6480, 6632.024
377.8490, 7025.146
379.0490, 7403.292
380.2500, 7426.462
381.4500, 7472.654
382.6510, 7358.867
383.8510, 6899.100
385.0500, 6771.351
386.2500, 6640.621
387.4500, 6733.909
388.6490, 7003.217
389.8480, 7365.543
391.0470, 8263.888
392.2460, 8920.250
393.4440, 10028.63
394.6430, 11280.03
395.8410, 12421.45
397.0390, 13392.89
398.2370, 14146.34
399.4340, 14525.81
400.6320, 14466.30
401.8290, 14224.80
403.0260, 13874.33
404.2230, 13125.87
405.4200, 12454.83
406.6170, 11870.46
407.8130, 11591.06
409.0090, 11250.15
410.2050, 10991.83
411.4010, 11056.22
412.5970, 11132.84
413.7920, 11205.08
414.9880, 11215.34
416.1830, 10777.46
417.3780, 10463.72
418.5730, 9923.996
419.7670, 9120.359
420.9620, 8387.674
422.1560, 7215.849
423.3500, 6218.744
424.5440, 5146.299
425.7380, 4326.915
426.9310, 3375.729
428.1240, 2873.850
429.3180, 2419.990
430.5110, 2056.149
431.7030, 1866.326
432.8960, 1848.521
434.0890, 1930.735
435.2810, 2240.966
436.4730, 2438.214
437.6650, 2847.480
438.8570, 3278.763
440.0480, 3673.062
441.2390, 3892.378
442.4310, 3692.709
443.6220, 3545.054
444.8120, 3126.417
446.0030, 2506.793
447.1940, 2088.186
448.3840, 1707.592
449.5740, 1376.013
450.7640, 1247.449
451.9540, 1093.898
453.1430, 993.3623
454.3330, 1000.840
455.5220, 973.3306
456.7110, 919.8359
457.9000, 822.3535
459.0890, 908.8843
460.2770, 903.4282
461.4650, 814.9844
462.6540, 941.4434
463.8420, 833.2036
465.0290, 933.6719
466.2170, 713.3442
467.4050, 745.7339
468.5920, 687.7061
469.7790, 584.2305
470.9660, 499.1670
472.1530, 476.2378
473.3390, 386.1494
474.5250, 380.6123
475.7120, 396.9019
476.8980, 270.7598
478.0840, 128.8667
479.2690, 188.8115
480.4550, 180.2051
481.6400, 181.9697
482.8250, 219.7451
484.0100, 226.5337
485.1950, 175.3330
486.3800, 156.1455
487.5640, 106.9688
488.7480, 32.80371
489.9320, 10.36133
491.1160, 7.455078
492.3000, 127.7363
493.4840, 135.0010
494.6670, 105.3242
495.8500, 144.7085
497.0330, 242.1685
498.2160, 246.7373
499.3990, 186.4404
500.5810, 219.2432
501.7630, 175.1538
502.9460, 196.1499
504.1280, 59.22803
505.3090, 14.66016
506.4910, 113.5566
507.6720, 311.4639
508.8540, 547.1729
510.0350, 831.3696
511.2160, 1191.387
512.3960, 1594.454
513.5770, 2028.551
514.7570, 2651.689
515.9380, 3307.865
517.1180, 3970.058
518.2970, 4393.273
519.4770, 4852.533
520.6570, 4939.818
521.8360, 4861.142
523.0150, 4981.501
524.1940, 4843.899
525.3730, 4773.337
526.5510, 4422.798
527.7300, 4096.290
528.9080, 3678.813
530.0860, 3472.362
531.2640, 3032.952
532.4420, 3077.554
533.6200, 3114.188
534.7970, 3303.843
535.9740, 3596.527
537.1510, 4098.224
538.3280, 4412.964
539.5050, 4353.725
540.6810, 4519.496
541.8580, 4330.296
543.0340, 4159.098
544.2100, 4070.902
545.3860, 3896.714
546.5610, 3760.543
547.7370, 3654.388
548.9120, 3712.242
550.0870, 3431.150
551.2620, 3310.139
552.4370, 2895.193
553.6120, 2419.327
554.7860, 2089.547
555.9600, 1660.832
557.1340, 1479.175
558.3080, 1249.564
559.4820, 1138.998
560.6560, 1008.454
561.8290, 890.9248
563.0020, 858.4014
564.1750, 929.8921
565.3480, 789.3940
566.5210, 1032.913
567.6930, 1041.435
568.8660, 1258.960
570.0380, 1381.479
571.2100, 1583.993
572.3820, 1836.500
573.5530, 2126.000
574.7250, 2388.494
575.8960, 2519.981
577.0670, 2631.461
578.2380, 2591.934
579.4090, 2332.397
580.5800, 2136.854
581.7500, 1919.302
582.9210, 1504.742
584.0910, 1320.173
585.2610, 1108.596
586.4300, 824.0088
587.6000, 935.4126
588.7690, 825.8062
589.9390, 834.1904
591.1080, 776.5640
592.2770, 759.9277
593.4450, 715.2812
594.6140, 581.6230
595.7820, 616.9541
596.9500, 520.2739
598.1190, 282.5825
599.2860, 393.8794
600.4540, 217.1641
601.6220, 142.4370
602.7890, 57.69678
603.9560, 43.93555
605.1230, 14.14990
606.2900, 9.331543
607.4570, 18.52148
608.6230, 4.574219
609.7890, 93.63086
610.9560, 22.66895
612.1220, 43.32373
613.2870, 44.61816
614.4530, 70.53369
615.6180, 83.42725
616.7840, 49.29980
617.9490, 100.1455
619.1140, 117.0791
620.2790, 79.78076
621.4430, 181.5674
622.6080, 187.3374
623.7720, 187.0913
624.9360, 304.2432
626.1000, 383.5503
627.2640, 464.2549
628.4270, 614.9424
629.5910, 625.7573
630.7540, 669.6025
631.9170, 662.2471
633.0800, 767.0283
634.2430, 956.3525
635.4050, 1015.816
636.5680, 1179.716
637.7300, 1357.099
638.8920, 1494.974
640.0540, 1598.640
641.2150, 1900.658
642.3770, 2097.453
643.5380, 2401.163
644.7000, 2833.577
645.8610, 3325.400
647.0210, 3893.475
648.1820, 4546.627
649.3430, 5499.719
650.5030, 6440.518
651.6630, 7851.621
652.8230, 9440.298
653.9830, 11484.62
655.1430, 13989.59
656.3020, 16854.43
657.4620, 19878.23
658.6210, 23607.46
659.7800, 26826.81
660.9390, 29796.84
662.0970, 31574.96
663.2560, 32016.68
664.4140, 30680.88
665.5720, 28273.04
666.7300, 25886.44
667.8880, 22967.57
669.0460, 20489.38
670.2030, 18788.12
671.3600, 17735.64
672.5180, 17431.92
673.6740, 18133.19
674.8310, 19385.84
675.9880, 21145.04
677.1440, 23646.89
678.3010, 26838.85
679.4570, 30250.38
680.6130, 33839.30
681.7690, 37436.29
682.9240, 39349.22
684.0800, 40801.02
685.2350, 39486.23
686.3900, 37012.95
687.5450, 33403.38
688.7000, 28957.21
689.8540, 24050.27
691.0090, 19877.92
692.1630, 16056.44
693.3170, 13071.92
694.4710, 10851.37
695.6250, 8689.786
696.7780, 7200.171
697.9320, 6073.524
699.0850, 5248.845
700.2380, 4428.130
701.3910, 3849.382
702.5440, 3559.600
703.6970, 3061.784
704.8490, 2680.935
706.0010, 2545.052
707.1530, 2249.135
708.3050, 1906.183
709.4570, 1808.196
710.6090, 1660.177
711.7600, 1495.122
712.9110, 1444.033
714.0620, 1402.910
715.2130, 1182.753
716.3640, 1120.561
717.5150, 1086.335
718.6650, 1032.075
719.8150, 1028.780
720.9650, 961.4443
722.1150, 917.0879
723.2650, 879.6904
724.4150, 813.2588
725.5640, 839.7925
726.7130, 892.2920
727.8630, 899.7583
729.0110, 803.1895
730.1600, 930.5864
731.3090, 924.9497
732.4570, 878.2783
733.6060, 994.5732
734.7540, 979.8340
735.9020, 1091.061
737.0490, 1096.254
738.1970, 1042.413
739.3440, 1194.538
740.4920, 1218.629
741.6390, 1273.797
742.7860, 1351.663
743.9320, 1463.772
745.0790, 1593.150
746.2250, 1705.876
747.3720, 1921.457
748.5180, 2092.903
749.6640, 2296.034
750.8100, 2388.449
751.9550, 2336.002
753.1010, 2116.979
754.2460, 1807.107
755.3910, 1410.645
756.5360, 1001.910
757.6810, 906.3159
758.8250, 729.2534
759.9700, 479.8008
761.1140, 275.3174
762.2580, 248.8032
763.4020, 318.2598
764.5460, 154.6855
765.6900, 145.0811
766.8330, 109.4468
767.9760, 118.7871
769.1200, 48.11230
770.2620, 42.41016
771.4050, 36.28662
772.5480, 23.98730
773.6900, 7.257324
774.8330, 61.47510
775.9750, 33.77930
777.1170, 15.06836
778.2590, 19.62842
779.4000, 23.32178
780.5420, 74.02393
781.6830, 5.756348
782.8240, 25.51562
783.9650, 41.66895
785.1060, 41.18066
786.2470, 57.10205
787.3870, 117.1030
788.5280, 122.9058
789.6680, 53.43896
790.8080, 96.73926
791.9480, 76.13721
793.0870, 11.62207
794.2270, 28.15869
795.3660, 115.7563
796.5060, 39.45898
797.6450, 99.22656
798.7830, 86.08838
799.9220, 97.03857
801.0610, 106.0815
802.1990, 43.22070
803.3370, 80.42188
804.4750, 77.70557
805.6130, 58.06787
806.7510, 122.4971
807.8890, 9.027344
809.0260, 86.59766
810.1630, 56.24658
811.3000, 79.95947
812.4370, 26.74609
813.5740, 134.5786
814.7110, 58.51172
815.8470, 21.50488
816.9830, 93.53760
818.1190, 11.35400
819.2550, 11.22217
820.3910, 16.93213
821.5270, 58.11865
822.6620, 19.35889
823.7970, 33.63086
824.9330, 5.9570000E-02
826.0670, 9.272949
827.2020, 4.092285
828.3370, 19.22607
829.4710, 25.59961
830.6060, 40.18945
831.7400, 50.76318
832.8740, 53.32080
834.0080, 232.8628
835.1410, 89.38965
836.2750, 200.9019
837.4080, 117.3994
838.5410, 250.8828
839.6740, 241.3530
840.8070, 310.8091
841.9400, 272.2534
843.0730, 325.6841
844.2050, 470.1035
845.3370, 571.5117
846.4690, 732.9072
847.6010, 895.2930
848.7330, 1174.667
849.8640, 1289.031
850.9960, 1780.386
852.1270, 2174.731
853.2580, 2782.067
854.3890, 3056.395
855.5200, 3362.713
856.6500, 3479.024
857.7810, 3465.327
858.9110, 3322.623
860.0410, 2998.911
861.1710, 2739.194
862.3010, 2423.471
863.4310, 2182.740
864.5600, 1843.005
865.6900, 1646.265
866.8190, 1396.520
867.9480, 1248.771
869.0770, 1075.017
870.2050, 980.2607
871.3340, 885.5000
872.4620, 740.7368
873.5900, 720.9712
874.7180, 611.2036
875.8460, 578.4336
876.9740, 512.6626
878.1010, 473.8950
879.2290, 528.1318
880.3560, 498.3779
881.4830, 530.6270
882.6100, 546.9102
883.7370, 567.1992
884.8630, 568.4912
885.9900, 536.7920
887.1160, 513.1201
888.2420, 560.4565
889.3680, 655.7979
890.4940, 738.1455
891.6200, 800.5010
892.7450, 842.7983
893.8700, 785.2275
894.9960, 870.6030
896.1210, 897.9829
897.2460, 862.3667
898.3700, 925.7559
899.4950, 972.1504
900.6190, 900.5488
901.7430, 899.9541
902.8670, 821.2173
903.9910, 686.5771
905.1150, 731.1636
906.2390, 683.6772
907.3620, 681.2085
908.4850, 687.3267
909.6080, 656.6904
910.7310, 736.7925
911.8540, 722.3091
912.9770, 836.2461
914.0990, 983.1216
915.2210, 1067.820
916.3440, 1107.388
917.4660, 1334.290
918.5870, 1507.999
919.7090, 1773.660
920.8310, 2111.733
921.9520, 2437.616
923.0730, 2890.812
924.1940, 3335.704
925.3150, 3886.027
926.4360, 4136.698
927.5560, 4516.732
928.6770, 4813.884
929.7970, 4903.072
930.9170, 4881.875
932.0370, 5046.553
933.1570, 5402.562
934.2760, 5233.497
935.3960, 5331.832
936.5150, 5303.699
937.6340, 5080.616
938.7530, 4998.307
939.8720, 4775.296
940.9910, 4388.642
942.1090, 3940.069
943.2280, 3522.730
944.3460, 3115.635
945.4640, 2742.550
946.5820, 2461.108
947.6990, 2140.119
948.8170, 1957.502
949.9340, 1842.800
951.0520, 1567.942
952.1690, 1457.904
953.2860, 1232.208
954.4030, 1050.568
955.5190, 1099.071
956.6360, 1015.167
957.7520, 1027.764
958.8680, 916.6777
959.9840, 967.2041
961.1000, 862.5229
962.2160, 837.2637
963.3310, 866.1455
964.4470, 824.0879
965.5620, 847.0615
966.6770, 850.0688
967.7920, 745.1104
968.9060, 780.1938
970.0210, 909.3154
971.1360, 830.4946
972.2500, 798.7070
973.3640, 961.9790
974.4780, 1101.286
975.5920, 1045.634
976.7050, 1149.048
977.8190, 1217.503
978.9320, 1236.000
980.0450, 1350.546
981.1580, 1518.127
982.2710, 1601.772
983.3840, 1788.451
984.4970, 1930.166
985.6090, 2184.923
986.7210, 2409.716
987.8330, 2760.552
988.9450, 3041.424
990.0570, 3372.346
991.1690, 3962.306
992.2800, 4508.323
993.3920, 5195.380
994.5030, 6120.475
995.6140, 7043.607
996.7250, 8342.780
997.8350, 9776.985
998.9460, 11302.23
1000.056, 13645.52
1001.167, 15987.86
1002.277, 18899.24
1003.387, 22430.67
1004.496, 26343.14
1005.606, 31241.66
1006.715, 36396.20
1007.825, 41400.79
1008.934, 45138.40
1010.043, 47332.06
1011.152, 46974.76
1012.260, 45266.48
1013.369, 42259.26
1014.477, 38964.05
1015.586, 36342.90
1016.694, 33918.77
1017.802, 32685.68
1018.909, 31821.63
1020.017, 31619.62
1021.124, 31642.63
1022.232, 32076.69
1023.339, 32245.78
1024.446, 32688.90
1025.553, 33370.06
1026.659, 34251.27
1027.766, 34099.09
1028.872, 34151.36
1029.979, 33758.65
1031.085, 33108.98
1032.191, 31644.36
1033.296, 29567.75
1034.402, 27429.20
1035.507, 25157.67
1036.613, 22953.18
1037.718, 20590.72
1038.823, 18656.30
1039.928, 16726.01
1041.032, 14923.69
1042.137, 13347.40
1043.241, 11957.16
1044.346, 10546.62
1045.450, 9366.843
1046.554, 8223.744
1047.657, 7193.248
1048.761, 6410.022
1049.864, 5640.091
1050.968, 5187.205
1052.071, 4573.370
1053.174, 4252.571
1054.277, 3873.826
1055.379, 3700.570
1056.482, 3341.040
1057.584, 3188.212
1058.687, 2924.846
1059.789, 2796.546
1060.891, 2444.194
1061.992, 2267.885
1063.094, 2120.526
1064.196, 1784.266
1065.297, 1639.298
1066.398, 1552.136
1067.499, 1409.266
1068.600, 1245.830
1069.701, 1139.455
1070.801, 1048.693
1071.902, 1005.183
1073.002, 830.9888
1074.102, 813.1162
1075.202, 806.5518
1076.302, 686.0317
1077.402, 712.5918
1078.501, 621.2817
1079.600, 749.9023
1080.700, 537.7021
1081.799, 417.1377
1082.898, 502.5596
1083.996, 474.8062
1085.095, 399.4277
1086.193, 491.4526
1087.292, 414.2549
1088.390, 349.6597
1089.488, 391.0073
1090.586, 431.0371
1091.683, 299.6460
1092.781, 382.2700
1093.878, 297.5435
1094.975, 427.3496
1096.073, 349.1108
1097.169, 395.1826
1098.266, 327.6299
1099.363, 248.1265
1100.459, 241.4644
1101.556, 285.7451
1102.652, 260.5601
1103.748, 258.9248
1104.844, 335.0278
1105.940, 271.9082
1107.035, 299.6636
1108.131, 232.4697
1109.226, 300.2607
1110.321, 324.4614
1111.416, 260.9673
1112.511, 360.8262
1113.605, 276.8550
1114.700, 328.3359
1115.794, 367.8765
1116.889, 388.1084
1117.983, 579.7446
1119.077, 422.9849
1120.170, 591.6538
1121.264, 679.6660
1122.357, 598.5493
1123.451, 601.2969
1124.544, 613.9336
1125.637, 426.8071
1126.730, 363.8936
1127.823, 213.0322
1128.915, 406.0073
1130.008, 334.0342
1131.100, 255.2476
1132.192, 193.9624
1133.284, 244.4365
1134.376, 317.1504
1135.467, 255.9824
1136.559, 311.4917
1137.650, 206.2065
1138.742, 327.4077
1139.833, 291.0645
1140.924, 182.6768
1142.014, 241.2520
1143.105, 247.1226
1144.195, 117.7920
1145.286, 159.3276
1146.376, 217.6367
1147.466, 179.2104
1148.556, 113.9546
1149.646, 180.3799
1150.735, 143.9072
1151.825, 70.32715
1152.914, 152.7437
1154.003, 65.21973
1155.092, 160.7861
1156.181, 155.6162
1157.270, 55.13525
1158.358, 38.46777
1159.447, 41.10986
1160.535, 7.621094
1161.623, 14.26514
1162.711, 78.62109
1163.799, 41.98291
1164.886, 64.33789
1165.974, 82.68555
1167.061, 58.02637
1168.148, 108.3589
1169.235, 165.6836
1170.322, 7.000488
1171.409, 106.3047
1172.496, 35.60107
1173.582, 143.8877
1174.669, 64.16504
1175.755, 105.4307
1176.841, 167.6855
1177.927, 51.97510
1179.012, 31.75830
1180.098, 143.4556
1181.183, 36.63867
1182.269, 99.80859
1183.354, 58.96582
1184.439, 16.10938
1185.524, 108.7612
1186.608, 0.6962890
1187.693, 43.57471
1188.777, 0.5590820
1189.862, 0.7441410
1190.946, 115.8306
1192.030, 29.79248
1193.113, 152.0742
1194.197, 39.22607
1195.281, 2.584961
1196.364, 83.62549
1197.447, 12.10010
1198.530, 42.19482
1199.613, 40.53467
1200.696, 63.91943
1201.779, 113.2368
1202.861, 83.94727
1203.944, 86.70898
1205.026, 25.38281
1206.108, 8.100098
1207.190, 60.28613
1208.271, 66.48926
1209.353, 11.66699
1210.435, 84.20557
1211.516, 75.99316
1212.597, 25.94141
1213.678, 11.98047
1214.759, 25.12988
1215.840, 57.70752
1216.920, 7.516113
1218.001, 16.54932
1219.081, 13.74170
1220.161, 38.82666
1221.241, 14.46436
1222.321, 60.90967
1223.401, 10.64209
1224.480, 12.92236
1225.560, 58.54102
1226.639, 146.9897
1227.718, 53.65137
1228.797, 52.29102
1229.876, 1.712402
1230.955, 23.87061
1232.033, 50.94141
1233.112, 105.1187
1234.190, 52.87695
1235.268, 45.06738
1236.346, 21.95264
1237.424, 76.20752
1238.501, 24.53564
1239.579, 17.23340
1240.656, 4.118164
1241.733, 61.46924
1242.811, 57.98096
1243.888, 131.4795
1244.964, 121.9058
1246.041, 25.29785
1247.117, 107.6406
1248.194, 27.94922
1249.270, 108.2085
1250.346, 2.567871
1251.422, 83.59082
1252.498, 28.28906
1253.573, 51.75146
1254.649, 92.74707
1255.724, 77.70508
1256.800, 76.62305
1257.875, 89.51270
1258.950, 87.45557
1260.024, 78.25439
1261.099, 20.70508
1262.173, 69.98828
1263.248, 13.72852
1264.322, 118.3149
1265.396, 72.86377
1266.470, 146.7300
1267.544, 90.19775
1268.617, 164.6230
1269.691, 177.0122
1270.764, 187.3652
1271.837, 125.6821
1272.910, 167.9595
1273.983, 201.1997
1275.056, 93.40381
1276.129, 194.7036
1277.201, 154.8281
1278.273, 277.7285
1279.346, 209.7803
1280.418, 240.4575
1281.489, 267.7734
1282.561, 223.7168
1283.633, 202.6240
1284.704, 144.4941
1285.776, 214.3242
1286.847, 269.1182
1287.918, 198.2720
1288.989, 213.9951
1290.059, 184.6807
1291.130, 286.3276
1292.200, 315.1768
1293.271, 315.7515
1294.341, 380.2905
1295.411, 338.8442
1296.481, 351.3096
1297.551, 326.7388
1298.620, 327.1313
1299.690, 276.3950
1300.759, 274.7153
1301.828, 268.9985
1302.897, 306.2451
1303.966, 264.4546
1305.035, 332.6274
1306.103, 238.7637
1307.172, 322.3120
1308.240, 256.6035
1309.308, 283.6284
1310.376, 271.6172
1311.444, 269.5679
1312.512, 316.4834
1313.580, 320.3613
1314.647, 307.6450
1315.714, 243.4927
1316.781, 295.5469
1317.848, 199.1562
1318.915, 223.7314
1319.982, 298.3828
1321.049, 216.9971
1322.115, 365.6729
1323.181, 343.2749
1324.248, 257.5986
1325.314, 324.1143
1326.380, 301.4243
1327.445, 288.2959
1328.511, 302.1367
1329.576, 213.3755
1330.642, 103.3853
1331.707, 98.09912
1332.772, 279.5068
1333.837, 242.6382
1334.902, 192.7256
1335.966, 301.7544
1337.031, 237.9331
1338.095, 264.6655
1339.159, 177.4907
1340.223, 192.7124
1341.287, 260.9595
1342.351, 340.3843
1343.415, 325.4541
1344.478, 292.1147
1345.541, 167.9912
1346.605, 184.2642
1347.668, 206.6030
1348.731, 248.4106
1349.793, 224.4888
1350.856, 174.5454
1351.918, 286.9453
1352.981, 234.8052
1354.043, 129.6987
1355.105, 252.2725
1356.167, 307.4624
1357.229, 271.5918
1358.290, 260.8726
1359.352, 164.1992
1360.413, 170.8784
1361.475, 251.1924
1362.536, 165.6597
1363.597, 248.3389
1364.657, 292.1328
1365.718, 257.8643
1366.779, 242.5991
1367.839, 186.9106
1368.899, 217.9062
1369.959, 299.5361
1371.019, 223.9834
1372.079, 198.9663
1373.139, 241.9634
1374.198, 205.1704
1375.258, 188.1631
1376.317, 286.5420
1377.376, 275.2710
1378.435, 203.6484
1379.494, 211.1377
1380.553, 160.7476
1381.611, 174.4561
1382.670, 207.9121
1383.728, 148.1421
1384.786, 130.3066
1385.844, 107.6206
1386.902, 155.8687
1387.960, 70.82324
1389.017, 207.3555
1390.075, 107.1128
1391.132, 146.7139
1392.189, 179.0845
1393.246, 46.76465
1394.303, 183.2227
1395.360, 167.1782
1396.417, 206.6641
1397.473, 243.2222
1398.529, 223.7583
1399.585, 166.9834
1400.642, 246.3950
1401.697, 213.9248
1402.753, 84.66602
1403.809, 199.1279
1404.864, 13.40332
1405.920, 191.9829
1406.975, 144.4434
1408.030, 216.9927
1409.085, 154.5264
1410.140, 193.9849
1411.194, 129.3374
1412.249, 172.4111
1413.303, 179.7798
1414.358, 221.1758
1415.412, 116.0962
1416.466, 116.3335
1417.520, 167.4297
1418.573, 50.91895
1419.627, 162.2446
1420.680, 255.5581
1421.733, 92.85645
1422.787, 112.1411
1423.840, 164.4111
1424.892, 183.6660
1425.945, 169.0435
1426.998, 213.2681
1428.050, 144.4487
1429.103, 138.6167
1430.155, 180.7632
1431.207, 257.8945
1432.259, 389.0112
1433.310, 273.0059
1434.362, 343.0869
1435.414, 255.2012
1436.465, 376.2598
1437.516, 96.31104
1438.567, 148.5674
1439.618, 219.3521
1440.669, 171.3188
1441.720, 231.1938
1442.770, 207.6768
1443.820, 325.3325
1444.871, 189.2197
1445.921, 200.0913
1446.971, 230.9497
1448.021, 310.6836
1449.070, 238.8271
1450.120, 336.7920
1451.169, 279.5845
1452.219, 241.5342
1453.268, 277.2603
1454.317, 353.2754
1455.366, 341.1636
1456.414, 353.8696
1457.463, 349.0088
1458.511, 329.9775
1459.560, 257.0576
1460.608, 249.9043
1461.656, 331.9937
1462.704, 158.9985
1463.752, 233.0981
1464.799, 169.2393
1465.847, 280.4414
1466.894, 299.6895
1467.941, 234.9639
1468.988, 283.2959
1470.035, 216.6211
1471.082, 162.9463
1472.129, 134.2891
1473.175, 297.6729
1474.222, 22.08984
1475.268, 250.4922
1476.314, 156.7637
1477.360, 191.7852
1478.406, 224.1064
1479.452, 72.04883
1480.498, 192.5195
1481.543, 256.9902
1482.588, 204.4570
1483.633, 233.9229
1484.679, 146.1777
1485.723, 153.3564
1486.768, 162.8008
1487.813, 177.2402
1488.857, 223.6807
1489.902, 256.1201
1490.946, 218.5508
1491.990, 103.5762
1493.034, 70.00098
1494.078, 68.33496
1495.122, 93.75977
1496.165, 136.1846
1497.209, 168.6133
1498.252, 25.04492
1499.295, 94.48633
1500.338, 1.934570
1501.381, 1.425781
1502.424, 88.85742
1503.466, 42.33887
1504.509, 111.8467
1505.551, 218.3789
1506.593, 49.93066
1507.635, 145.5381
1508.677, 127.1709
1509.719, 154.8291
1510.761, 104.5117
1511.802, 65.22168
1512.844, 61.04492
1513.885, 47.71484
1514.926, 119.4980
1515.967, 17.30078
1517.008, 165.1221
1518.049, 64.95996
1519.089, 51.81348
1520.130, 68.25684
1521.170, 64.14160
1522.210, 30.05371
1523.250, 95.98828
1524.290, 94.94531
1525.330, 134.9375
1526.370, 123.9736
1527.409, 127.0361
1528.448, 134.7314
1529.488, 131.1113
1530.527, 133.4434
1531.566, 134.3301
1532.605, 137.7725
1533.643, 138.1963
1534.682, 56.45410
1535.720, 101.7734
1536.759, 83.13574
1537.797, 121.5400
1538.835, 53.93164
1539.873, 11.38574
1540.910, 77.75391
1541.948, 118.3545
1542.986, 6.6405997E-02
1544.023, 105.1914
1545.060, 72.63672
1546.097, 37.99316
1547.134, 78.23438
1548.171, 105.3408
1549.208, 81.36035
1550.244, 0.1914060
1551.281, 163.7412
1552.317, 270.0605
1553.353, 180.2852
1554.389, 297.5498
1555.425, 279.3203
1556.461, 249.8926
1557.497, 91.71680
1558.532, 164.9961
1559.567, 4.741211
1560.603, 38.53809
1561.638, 88.44043
1562.673, 0.3085940
1563.708, 0.0000000E+00
##END=



