##NAMES=Enstatite
##RRUFFID=R040094
##IDEAL CHEMISTRY=MgSiO_3_
##LOCALITY=unknown
##OWNER=RRUFF
##SOURCE=University of Arizona Mineral Museum
##DESCRIPTION=Dark green massive, associated with anthophyllite
##STATUS=The identification of this mineral has been confirmed by X-ray diffraction and chemical analysis
##URL=rruff.info/R040094
##MEASURED CHEMISTRY=(Mg_0.84_Fe_0.15_)(Si_0.99_Al_0.01_)O_3_; = Enstatite :  [box](Mg_0.83_Fe_0.14_Na_0.01_Ca_0.01_)_7_(Si_0.99_Al_0.01_)_8_O_22_(OH)_2_ = Anthophyllite
##PIN_ID=M00384
##ORIENTATION=Laser parallel to c* (0 0 1). Fiducial mark perpendicular to laser is parallel to a [1 0 0]
53.716, 0.000
55.122, 37.144
56.528, 72.552
57.933, 63.987
59.338, 41.815
60.743, 124.538
62.147, 172.569
63.551, 171.606
64.955, 281.958
66.359, 220.662
67.763, 163.041
69.166, 146.185
70.569, 60.047
71.972, 4.841
73.374, 56.984
74.776, 50.279
76.178, 28.983
77.580, 7.163
78.982, 78.147
80.383, 369.913
81.784, 602.104
83.185, 753.696
84.585, 538.665
85.985, 300.991
87.385, 121.657
88.785, 43.647
90.185, 33.949
91.584, 153.550
92.983, 313.441
94.382, 381.614
95.780, 453.059
97.178, 472.766
98.576, 462.719
99.974, 551.902
101.372, 651.295
102.769, 602.877
104.166, 623.641
105.563, 748.578
106.959, 898.686
108.355, 1091.957
109.751, 957.384
111.147, 875.965
112.543, 964.699
113.938, 983.584
115.333, 1024.618
116.728, 1058.833
118.122, 1207.120
119.517, 1075.583
120.911, 1010.187
122.304, 956.926
123.698, 1073.802
125.091, 1086.810
126.484, 1042.956
127.877, 1040.243
129.270, 1099.669
130.662, 1153.233
132.054, 1183.932
133.446, 1133.763
134.837, 1153.724
136.229, 1103.812
137.620, 1161.023
139.011, 1203.339
140.401, 1398.734
141.791, 1385.188
143.181, 1423.686
144.571, 1535.207
145.961, 1488.747
147.350, 1599.277
148.739, 1512.745
150.128, 1424.212
151.517, 1279.733
152.905, 1235.312
154.293, 1262.952
155.681, 1173.652
157.069, 1195.416
158.456, 1129.326
159.843, 1130.219
161.230, 1247.125
162.617, 1462.203
164.003, 1491.296
165.389, 1543.458
166.775, 1600.688
168.161, 1319.625
169.546, 1044.396
170.931, 814.920
172.316, 781.516
173.701, 815.182
175.085, 713.919
176.469, 733.726
177.853, 684.604
179.237, 728.555
180.620, 811.578
182.003, 892.674
183.386, 1135.843
184.769, 1253.083
186.152, 1581.395
187.534, 1796.777
188.916, 2154.230
190.297, 2581.753
191.679, 2639.346
193.060, 2840.008
194.441, 2746.739
195.822, 2585.583
197.202, 2272.575
198.583, 1851.744
199.963, 1617.050
201.342, 1261.437
202.722, 1209.886
204.101, 1007.396
205.480, 957.966
206.859, 831.594
208.237, 744.283
209.616, 798.030
210.994, 668.835
212.372, 686.699
213.749, 658.620
215.126, 696.598
216.504, 641.633
217.880, 680.724
219.257, 694.871
220.633, 768.162
222.009, 881.156
223.385, 920.819
224.761, 956.226
226.136, 1149.093
227.511, 1262.000
228.886, 1579.717
230.261, 1872.162
231.635, 2382.151
233.009, 2966.946
234.383, 3470.674
235.757, 4024.500
237.130, 4044.721
238.504, 3871.705
239.877, 3260.428
241.249, 2497.905
242.622, 1877.159
243.994, 1336.206
245.366, 943.774
246.738, 616.628
248.109, 545.557
249.480, 435.560
250.851, 382.633
252.222, 301.777
253.593, 223.989
254.963, 215.252
256.333, 137.584
257.703, 94.994
259.072, 59.466
260.442, 11.001
261.811, 7.404
263.179, 103.251
264.548, 87.965
265.916, 14.736
267.284, 70.563
268.652, 31.447
270.020, 73.386
271.387, 168.380
272.754, 133.427
274.121, 197.527
275.488, 167.680
276.854, 211.885
278.221, 136.142
279.587, 70.448
280.952, 206.805
282.318, 62.533
283.683, 243.767
285.048, 168.888
286.413, 154.486
287.777, 142.376
289.141, 221.113
290.505, 265.913
291.869, 411.759
293.233, 502.663
294.596, 648.611
295.959, 740.648
297.322, 853.742
298.684, 775.907
300.047, 961.127
301.409, 785.405
302.771, 804.742
304.132, 770.121
305.494, 663.544
306.855, 703.007
308.216, 589.561
309.576, 700.112
310.937, 726.716
312.297, 876.349
313.657, 1094.022
315.016, 1448.736
316.376, 1843.491
317.735, 2001.288
319.094, 2241.124
320.453, 2432.001
321.811, 2243.918
323.170, 2242.875
324.528, 2142.872
325.885, 2227.908
327.243, 2302.984
328.600, 2549.099
329.957, 2933.253
331.314, 3327.445
332.671, 4181.677
334.027, 4937.241
335.383, 6116.548
336.739, 7426.189
338.095, 8795.559
339.450, 10164.223
340.805, 10687.118
342.160, 11452.497
343.515, 11951.060
344.869, 9285.616
346.224, 8020.205
347.578, 6794.875
348.931, 5675.532
350.285, 4588.223
351.638, 3809.947
352.991, 3306.704
354.344, 2702.493
355.696, 2393.314
357.049, 2047.167
358.401, 1952.050
359.753, 1683.966
361.104, 1533.911
362.456, 1520.886
363.807, 1349.890
365.158, 1374.922
366.508, 1257.983
367.859, 1369.071
369.209, 1415.188
370.559, 1416.332
371.908, 1641.503
373.258, 1644.701
374.607, 1964.926
375.956, 2094.176
377.305, 2332.454
378.653, 2666.757
380.002, 2836.086
381.350, 3172.440
382.698, 3137.820
384.045, 3291.226
385.392, 3210.657
386.740, 3143.118
388.086, 3200.609
389.433, 3219.131
390.779, 3452.684
392.126, 3735.270
393.472, 4115.888
394.817, 4401.542
396.163, 4626.232
397.508, 4997.959
398.853, 5192.721
400.198, 5157.522
401.542, 5134.367
402.886, 4757.247
404.230, 4571.181
405.574, 4321.162
406.918, 4130.183
408.261, 4076.235
409.604, 3843.319
410.947, 3825.433
412.290, 3753.576
413.632, 3631.750
414.974, 3311.953
416.316, 3031.185
417.658, 2764.446
418.999, 2457.344
420.341, 1998.053
421.682, 1918.398
423.022, 1393.771
424.363, 1202.118
425.703, 845.544
427.043, 768.997
428.383, 450.476
429.723, 395.980
431.062, 236.510
432.401, 172.065
433.740, 149.645
435.079, 93.250
436.417, 138.878
437.755, 130.531
439.093, 39.207
440.431, 165.906
441.768, 34.629
443.106, 60.126
444.443, 124.860
445.779, 66.762
447.116, 11.510
448.452, 16.712
449.788, 194.687
451.124, 189.394
452.460, 290.243
453.795, 292.849
455.130, 198.749
456.465, 232.174
457.800, 116.026
459.134, 70.502
460.468, 62.330
461.802, 138.537
463.136, 49.877
464.470, 70.947
465.803, 83.728
467.136, 52.833
468.469, 0.030
469.801, 24.617
471.134, 2.892
472.466, 63.003
473.798, 27.220
475.129, 5.482
476.461, 54.774
477.792, 69.101
479.123, 143.460
480.454, 129.843
481.784, 217.264
483.115, 184.698
484.445, 189.150
485.774, 265.624
487.104, 178.112
488.433, 166.618
489.762, 110.143
491.091, 58.694
492.420, 23.280
493.748, 95.122
495.077, 13.458
496.405, 112.952
497.732, 106.401
499.060, 90.886
500.387, 167.403
501.714, 17.985
503.041, 84.571
504.367, 49.814
505.694, 66.237
507.020, 7.667
508.346, 142.122
509.671, 177.600
510.997, 386.083
512.322, 466.572
513.647, 639.064
514.972, 1031.562
516.296, 1162.062
517.620, 1539.568
518.944, 1749.078
520.268, 1732.599
521.592, 1780.125
522.915, 1881.653
524.238, 1994.186
525.561, 1906.722
526.884, 1857.260
528.206, 1617.800
529.528, 1327.341
530.850, 1402.883
532.172, 1108.438
533.494, 1236.005
534.815, 1333.573
536.136, 1314.142
537.457, 1564.711
538.777, 1461.280
540.098, 1498.848
541.418, 1389.416
542.738, 1196.982
544.057, 1168.547
545.377, 1017.112
546.696, 1137.674
548.015, 1155.234
549.334, 1237.792
550.652, 1265.348
551.970, 1072.900
553.289, 1019.450
554.606, 815.997
555.924, 675.539
557.241, 710.078
558.559, 600.612
559.875, 633.143
561.192, 667.668
562.509, 556.188
563.825, 677.703
565.141, 703.211
566.457, 976.714
567.772, 1005.210
569.088, 1260.700
570.403, 1547.182
571.718, 1746.658
573.032, 2078.137
574.347, 2226.608
575.661, 2428.070
576.975, 2400.525
578.288, 2129.972
579.602, 1945.409
580.915, 1473.838
582.228, 1319.257
583.541, 1271.667
584.854, 892.068
586.166, 744.459
587.478, 615.839
588.790, 533.209
590.102, 521.568
591.413, 416.917
592.724, 494.254
594.035, 402.580
595.346, 399.894
596.657, 286.196
597.967, 217.486
599.277, 202.764
600.587, 0.971
601.897, 40.948
603.206, 32.605
604.515, 3.856
605.824, 66.653
607.133, 131.226
608.442, 23.202
609.750, 67.615
611.058, 3.503
612.366, 112.500
613.673, 125.667
614.981, 4.015
616.288, 60.895
617.595, 1.947
618.902, 7.196
620.208, 24.504
621.514, 112.943
622.820, 49.334
624.126, 92.203
625.432, 115.882
626.737, 33.414
628.042, 142.270
629.347, 107.091
630.652, 148.709
631.956, 229.646
633.260, 241.073
634.564, 328.512
635.868, 359.648
637.172, 402.416
638.475, 592.709
639.778, 399.749
641.081, 629.258
642.384, 589.156
643.686, 654.028
644.988, 820.028
646.290, 1018.991
647.592, 1331.050
648.894, 1421.209
650.195, 1688.702
651.496, 2195.364
652.797, 2532.685
654.097, 3181.591
655.398, 3766.753
656.698, 4724.452
657.998, 5815.187
659.298, 6730.191
660.597, 7802.028
661.896, 7875.356
663.196, 7791.307
664.494, 7341.915
665.793, 6391.731
667.091, 5847.487
668.389, 5203.220
669.687, 4780.931
670.985, 4749.615
672.283, 4913.297
673.580, 5286.095
674.877, 5791.952
676.174, 6679.153
677.470, 7714.979
678.767, 8720.813
680.063, 10166.349
681.359, 10662.269
682.655, 11397.729
683.950, 11203.171
685.245, 10328.582
686.540, 9334.056
687.835, 7611.591
689.130, 6439.563
690.424, 5134.871
691.718, 4155.426
693.012, 3427.681
694.306, 2685.908
695.599, 2234.109
696.893, 1877.284
698.186, 1498.433
699.478, 1431.555
700.771, 1136.650
702.063, 1044.720
703.356, 960.762
704.647, 843.778
705.939, 787.767
707.231, 653.729
708.522, 542.665
709.813, 548.574
711.104, 378.455
712.394, 518.310
713.685, 370.139
714.975, 476.940
716.265, 463.715
717.554, 333.463
718.844, 433.184
720.133, 375.879
721.422, 300.546
722.711, 344.187
724.000, 327.800
725.288, 486.388
726.576, 381.948
727.864, 489.695
729.152, 451.202
730.439, 480.682
731.727, 533.134
733.014, 321.561
734.300, 250.960
735.587, 266.333
736.873, 206.678
738.160, 226.998
739.446, 292.290
740.731, 275.555
742.017, 348.794
743.302, 329.006
744.587, 298.191
745.872, 323.351
747.157, 307.484
748.441, 403.590
749.725, 384.670
751.009, 392.724
752.293, 334.751
753.576, 258.753
754.860, 379.728
756.143, 209.177
757.426, 242.596
758.708, 155.162
759.991, 57.540
761.273, 132.404
762.555, 29.638
763.837, 67.550
765.118, 63.312
766.399, 22.307
767.681, 59.973
768.961, 54.712
770.242, 84.856
771.523, 90.938
772.803, 124.661
774.083, 124.970
775.363, 120.806
776.642, 35.611
777.921, 66.306
779.201, 31.332
780.480, 113.971
781.758, 36.245
783.037, 12.975
784.315, 86.161
785.593, 87.676
786.871, 32.600
788.148, 49.581
789.426, 45.628
790.703, 8.784
791.980, 65.893
793.257, 27.880
794.533, 9.625
795.809, 14.663
797.085, 30.004
798.361, 2.355
799.637, 2.751
800.912, 37.186
802.188, 71.674
803.463, 43.765
804.737, 22.821
806.012, 56.568
807.286, 77.935
808.560, 83.305
809.834, 157.677
811.108, 64.050
812.381, 130.439
813.654, 123.815
814.927, 100.809
816.200, 92.483
817.473, 60.243
818.745, 48.028
820.017, 165.132
821.289, 117.274
822.561, 188.399
823.833, 160.508
825.104, 108.600
826.375, 73.674
827.646, 52.427
828.916, 15.232
830.187, 45.772
831.457, 35.759
832.727, 100.727
833.997, 14.679
835.266, 186.612
836.536, 100.528
837.805, 129.430
839.074, 78.316
840.342, 30.813
841.611, 38.977
842.879, 124.819
844.147, 28.601
845.415, 157.366
846.682, 97.117
847.950, 253.854
849.217, 377.583
850.484, 291.299
851.751, 361.002
853.017, 347.694
854.283, 402.374
855.550, 444.042
856.815, 519.698
858.081, 503.342
859.347, 620.973
860.612, 586.593
861.877, 632.201
863.142, 753.806
864.406, 520.399
865.670, 452.024
866.935, 277.640
868.199, 270.244
869.462, 191.837
870.726, 257.419
871.989, 315.991
873.252, 168.553
874.515, 208.105
875.778, 190.649
877.040, 132.183
878.302, 317.707
879.564, 54.733
880.826, 208.796
882.088, 89.317
883.349, 160.829
884.610, 176.332
885.871, 105.827
887.132, 330.312
888.392, 277.791
889.652, 330.265
890.913, 407.730
892.172, 313.191
893.432, 273.672
894.691, 300.145
895.951, 247.964
897.210, 320.112
898.468, 246.584
899.727, 352.052
900.985, 405.512
902.243, 327.981
903.501, 483.446
904.759, 195.904
906.017, 234.368
907.274, 449.827
908.531, 255.292
909.788, 466.756
911.044, 430.060
912.301, 493.156
913.557, 684.377
914.813, 657.876
916.069, 763.551
917.324, 743.143
918.580, 839.581
919.835, 935.202
921.090, 1006.938
922.345, 1226.173
923.599, 1521.536
924.853, 1645.062
926.108, 1825.966
927.361, 1909.374
928.615, 2038.169
929.869, 2150.463
931.122, 2184.929
932.375, 2316.473
933.628, 2285.716
934.880, 2355.963
936.133, 2557.408
937.385, 2409.518
938.637, 2398.116
939.888, 2456.684
941.140, 2234.535
942.391, 2312.735
943.642, 1953.400
944.893, 1735.300
946.144, 1710.716
947.394, 1355.727
948.645, 1351.741
949.895, 1147.630
951.145, 1115.537
952.394, 1072.327
953.644, 841.999
954.893, 1064.317
956.142, 966.150
957.391, 848.602
958.639, 751.150
959.888, 646.734
961.136, 660.509
962.384, 740.031
963.631, 563.821
964.879, 770.615
966.126, 685.938
967.373, 736.619
968.620, 803.582
969.867, 700.360
971.113, 752.179
972.359, 684.003
973.606, 664.846
974.851, 744.694
976.097, 827.526
977.342, 789.226
978.588, 958.847
979.833, 1067.105
981.077, 1269.722
982.322, 1194.308
983.566, 1360.207
984.810, 1499.699
986.054, 1662.634
987.298, 1868.612
988.541, 2100.604
989.785, 2252.513
991.028, 2990.347
992.271, 3477.721
993.513, 3759.744
994.756, 4861.499
995.998, 5443.539
997.240, 6715.597
998.482, 7858.818
999.724, 9240.893
1000.965, 11483.034
1002.206, 13615.604
1003.447, 16277.757
1004.688, 20180.164
1005.929, 22672.330
1007.169, 25014.508
1008.409, 25136.689
1009.649, 23748.885
1010.889, 22251.084
1012.128, 19435.135
1013.368, 17787.350
1014.607, 15899.636
1015.846, 14731.962
1017.084, 14284.210
1018.323, 13146.466
1019.561, 12948.729
1020.799, 12561.021
1022.037, 12023.314
1023.274, 12055.621
1024.512, 11588.244
1025.749, 11270.563
1026.986, 11462.892
1028.223, 10715.734
1029.460, 10785.862
1030.696, 10198.240
1031.932, 9470.649
1033.168, 9343.040
1034.404, 8325.439
1035.639, 7647.845
1036.875, 7380.259
1038.110, 6293.436
1039.345, 6025.863
1040.580, 5528.725
1041.814, 4787.371
1043.048, 4749.818
1044.282, 3697.044
1045.516, 3769.513
1046.750, 3291.988
1047.983, 2894.632
1049.217, 2907.120
1050.450, 2252.064
1051.683, 2192.822
1052.915, 2173.328
1054.148, 1725.437
1055.380, 1628.162
1056.612, 1489.686
1057.844, 1265.472
1059.075, 1488.022
1060.307, 1147.579
1061.538, 1361.230
1062.769, 1066.805
1064.000, 908.377
1065.230, 959.976
1066.461, 890.583
1067.691, 675.959
1068.921, 760.589
1070.151, 565.227
1071.380, 690.225
1072.609, 789.884
1073.838, 516.549
1075.067, 671.217
1076.296, 567.933
1077.525, 394.655
1078.753, 492.383
1079.981, 301.134
1081.209, 458.067
1082.437, 362.846
1083.664, 307.269
1084.891, 514.088
1086.118, 384.944
1087.345, 379.820
1088.572, 447.724
1089.798, 385.651
1091.024, 455.635
1092.250, 258.607
1093.476, 189.785
1094.702, 319.002
1095.927, 271.005
1097.153, 359.762
1098.378, 421.783
1099.602, 198.815
1100.827, 551.024
1102.051, 281.105
1103.275, 171.190
1104.499, 396.293
1105.723, 225.396
1106.947, 123.204
1108.170, 112.601
1109.393, 93.711
1110.616, 391.222
1111.839, 194.336
1113.061, 273.534
1114.284, 467.683
1115.506, 185.833
1116.728, 234.007
1117.949, 185.198
1119.171, 51.391
1120.392, 249.253
1121.613, 81.446
1122.834, 188.749
1124.055, 216.222
1125.275, 220.416
1126.496, 267.738
1127.716, 189.939
1128.936, 74.142
1130.155, 317.950
1131.375, 33.151
1132.594, 13.548
1133.813, 188.942
1135.032, 18.141
1136.251, 185.337
1137.469, 116.124
1138.687, 168.326
1139.905, 462.819
1141.123, 162.083
1142.341, 214.291
1143.558, 204.139
1144.775, 38.659
1145.992, 263.528
1147.209, 7.000
1148.426, 16.821
1149.642, 349.546
1150.858, 5.288
1152.074, 217.871
1153.290, 364.025
1154.506, 35.175
1155.721, 250.320
1156.936, 94.898
1158.151, 43.967
1159.366, 42.221
1160.580, 173.946
1161.795, 19.068
1163.009, 222.260
1164.223, 98.335
1165.437, 299.333
1166.650, 224.797
1167.864, 98.783
1169.077, 252.762
1170.290, 2.266
1171.502, 98.696
1172.715, 127.783
1173.927, 173.215
1175.139, 61.636
1176.351, 142.477
1177.563, 60.324
1178.775, 283.164
1179.986, 153.074
1181.197, 194.899
1182.408, 129.716
1183.619, 9.475
1184.829, 72.318
1186.039, 0.896
1187.250, 96.125
1188.459, 141.584
1189.669, 71.459
1190.879, 234.191
1192.088, 191.833
1193.297, 41.467
1194.506, 233.091
1195.715, 48.294
1196.923, 21.281
1198.131, 274.846
1199.339, 33.378
1200.547, 36.146
1201.755, 128.658
1202.962, 32.683
1204.170, 285.175
1205.377, 159.665
1206.584, 73.139
1207.790, 256.604
1208.997, 2.940
1210.203, 168.496
1211.409, 193.924
1212.615, 93.657
1213.821, 165.694
1215.026, 103.035
1216.231, 21.671
1217.437, 237.992
1218.641, 200.304
1219.846, 206.607
1221.051, 247.902
1222.255, 131.223
1223.459, 130.531
1224.663, 123.832
1225.866, 65.124
1227.070, 277.407
1228.273, 10.682
1229.476, 243.940
1230.679, 172.188
1231.882, 171.425
1233.084, 318.651
1234.286, 243.865
1235.488, 7.933
1236.690, 207.243
1237.892, 6.404
1239.093, 66.528
1240.295, 166.645
1241.496, 49.249
1242.697, 279.103
1243.897, 277.166
1245.098, 87.221
1246.298, 284.258
1247.498, 295.285
1248.698, 126.303
1249.897, 381.311
1251.097, 22.295
1252.296, 60.264
1253.495, 275.220
1254.694, 8.167
1255.893, 310.139
1257.091, 111.971
1258.289, 164.863
1259.487, 433.670
1260.685, 159.463
1261.883, 235.228
1263.080, 207.981
1264.278, 10.300
1265.475, 150.343
1266.672, 108.973
1267.868, 68.588
1269.065, 239.400
1270.261, 105.981
1271.457, 231.634
1272.653, 365.181
1273.849, 71.314
1275.044, 267.148
1276.239, 91.599
1277.434, 127.967
1278.629, 170.368
1279.824, 192.688
1281.018, 36.995
1282.213, 333.284
1283.407, 72.561
1284.601, 126.806
1285.794, 429.036
1286.988, 6.746
1288.181, 373.446
1289.374, 146.468
1290.567, 33.368
1291.760, 170.693
1292.952, 111.676
1294.145, 146.362
1295.337, 206.145
1296.529, 312.157
1297.720, 305.137
1298.912, 274.104
1300.103, 51.057
1301.294, 398.993
1302.485, 120.078
1303.676, 30.986
1304.866, 283.768
1306.057, 11.502
1307.247, 111.307
1308.437, 316.292
1309.627, 41.935
1310.816, 499.802
1312.005, 231.523
1313.195, 154.230
1314.383, 441.608
1315.572, 96.285
1316.761, 114.945
1317.949, 174.081
1319.137, 87.288
1320.325, 181.300
1321.513, 207.853
1322.701, 98.416
1323.888, 292.962
1325.075, 227.498
1326.262, 214.022
1327.449, 529.778
1328.635, 192.282
1329.822, 136.347
1331.008, 200.628
1332.194, 15.894
1333.380, 251.805
1334.565, 243.258
1335.751, 204.702
1336.936, 424.979
1338.121, 170.414
1339.306, 213.393
1340.490, 397.560
1341.675, 46.982
1342.859, 154.805
1344.043, 304.015
1345.227, 41.569
1346.411, 289.592
1347.594, 94.997
1348.777, 180.407
1349.960, 541.738
1351.143, 306.266
1352.326, 290.712
1353.508, 449.153
1354.690, 159.607
1355.873, 314.319
1357.054, 350.804
1358.236, 25.691
1359.418, 357.482
1360.599, 197.024
1361.780, 273.596
1362.961, 237.201
1364.142, 94.027
1365.322, 408.707
1366.502, 314.434
1367.682, 213.217
1368.862, 322.887
1370.042, 120.809
1371.222, 80.486
1372.401, 348.785
1373.580, 110.951
1374.759, 173.999
1375.938, 546.015
1377.116, 295.154
1378.295, 633.249
1379.473, 558.915
1380.651, 285.131
1381.829, 494.152
1383.006, 357.991
1384.184, 28.968
1385.361, 464.184
1386.538, 180.809
1387.715, 264.207
1388.891, 548.993
1390.068, 214.851
1391.244, 465.687
1392.420, 478.508
1393.596, 203.836
1394.771, 439.437
1395.947, 299.164
1397.122, 62.172
1398.297, 414.559
1399.472, 52.039
1400.647, 185.788
1401.821, 429.814
1402.995, 147.988
1404.170, 382.356
1405.343, 531.348
1406.517, 129.009
1407.691, 440.162
1408.864, 241.295
1410.037, 1.837
1411.210, 370.888
1412.383, 25.506
1413.555, 227.572
1414.728, 401.608
1415.900, 75.670
1417.072, 501.535
1418.244, 341.557
1419.415, 203.704
1420.587, 451.604
1421.758, 216.602
1422.929, 183.590
1424.100, 381.575
1425.270, 758.199
1426.441, 308.265
1427.611, 468.321
1428.781, 114.393
1429.951, 448.126
1431.120, 558.240
1432.290, 432.543
1433.459, 492.550
1434.628, 382.554
1435.797, 182.562
1436.966, 492.605
1438.134, 228.609
1439.303, 208.618
1440.471, 678.606
1441.639, 158.451
1442.806, 508.271
1443.974, 588.057
1445.141, 286.171
1446.308, 535.731
1447.475, 415.269
1448.642, 12.191
1449.809, 474.396
1450.975, 313.354
1452.141, 232.848
1453.307, 502.320
1454.473, 321.739
1455.639, 521.170
1456.804, 620.554
1457.969, 319.988
1459.134, 589.518
1460.299, 499.239
1461.464, 149.028
1462.628, 469.110
1463.793, 218.635
1464.957, 158.510
1466.121, 518.719
1467.284, 239.010
1468.448, 519.436
1469.611, 680.008
1470.774, 230.607
1471.937, 541.330
1473.100, 402.086
1474.262, 202.884
1475.425, 323.893
1476.587, 334.955
1477.749, 86.141
1478.911, 537.463
1480.072, 248.871
1481.234, 250.581
1482.395, 692.633
1483.556, 354.027
1484.717, 596.435
1485.878, 589.056
1487.038, 111.923
1488.198, 445.063
1489.358, 288.487
1490.518, 2.221
1491.678, 486.303
1492.837, 140.736
1493.997, 195.551
1495.156, 790.785
1496.315, 356.496
1497.474, 452.735
1498.632, 679.570
1499.790, 157.062
1500.949, 385.360
1502.107, 474.497
1503.264, 85.413
1504.422, 604.578
1505.579, 236.920
1506.737, 300.749
1507.894, 796.354
1509.051, 664.118
1510.207, 458.447
1511.364, 617.947
1512.520, 222.396
1513.676, 322.083
1514.832, 459.615
1515.988, 0.000
##END=



