##NAMES=Epidote
##RRUFFID=R050131
##IDEAL CHEMISTRY=Ca_2_Fe^3+^Al_2_(Si_2_O_7_)(SiO_4_)O(OH)
##LOCALITY=Calumet mine, Chaffee County, Colorado, USA
##OWNER=RRUFF
##SOURCE=Dave Bunk Minerals
##DESCRIPTION=Green prismatic crystal
##STATUS=The identification of this mineral has been confirmed by X-ray diffraction and chemical analysis
##URL=rruff.info/R050131
##MEASURED CHEMISTRY=Ca_2.00_Al_2.00_(Fe^3+^_0.75_Al_0.25_)(SiO_4_)(Si_2_O_7_)O(OH)
##PIN_ID=L00405
##ORIENTATION=Laser parallel to b* (0 1 0). Fiducial mark perpendicular to laser is parallel to c [0 0 1]
121.310, 0.000
122.701, 8.665
124.092, 141.806
125.482, 286.110
126.873, 721.694
128.263, 1345.051
129.653, 2081.316
131.042, 3337.038
132.432, 4177.768
133.821, 4921.235
135.210, 4980.539
136.599, 4489.324
137.987, 3812.663
139.376, 2842.546
140.764, 2090.840
142.152, 1615.776
143.539, 1502.624
144.927, 1154.932
146.314, 1252.134
147.701, 1285.000
149.088, 1152.220
150.474, 1029.346
151.861, 754.494
153.247, 677.622
154.633, 711.804
156.018, 979.687
157.404, 1225.456
158.789, 1557.242
160.174, 2177.361
161.559, 2733.432
162.943, 3640.030
164.327, 4186.169
165.711, 4735.358
167.095, 5119.003
168.479, 4674.130
169.862, 4359.591
171.246, 3519.377
172.628, 2874.439
174.011, 2376.759
175.394, 1869.314
176.776, 1438.089
178.158, 1066.068
179.540, 767.237
180.922, 513.565
182.303, 315.012
183.684, 212.554
185.065, 137.271
186.446, 56.860
187.826, 50.473
189.207, 64.606
190.587, 167.774
191.967, 119.968
193.346, 170.182
194.726, 167.407
196.105, 138.643
197.484, 132.884
198.862, 35.125
200.241, 29.363
201.619, 73.406
202.997, 156.188
204.375, 255.013
205.753, 305.987
207.130, 213.137
208.507, 223.468
209.884, 132.971
211.261, 115.635
212.638, 121.448
214.014, 127.394
215.390, 272.457
216.766, 301.620
218.141, 420.488
219.517, 687.338
220.892, 686.834
222.267, 1031.259
223.642, 1244.693
225.016, 1558.123
226.391, 1844.549
227.765, 2248.974
229.139, 2490.396
230.512, 2603.822
231.886, 2672.252
233.259, 2426.689
234.632, 2392.133
236.005, 2158.560
237.377, 2267.885
238.749, 2403.943
240.122, 2817.668
241.493, 3461.050
242.865, 3929.183
244.237, 4869.218
245.608, 5192.278
246.979, 5611.383
248.350, 5502.882
249.720, 4852.333
251.090, 4382.751
252.461, 3400.777
253.830, 2736.782
255.200, 2098.812
256.570, 1658.234
257.939, 1316.712
259.308, 1022.246
260.677, 834.834
262.045, 706.477
263.414, 622.371
264.782, 636.020
266.150, 670.829
267.517, 827.693
268.885, 1027.612
270.252, 1240.583
271.619, 1656.603
272.986, 2184.675
274.353, 2612.801
275.719, 3175.979
277.085, 3313.213
278.451, 2891.501
279.817, 2490.845
281.182, 1946.245
282.548, 1527.701
283.913, 1313.212
285.278, 1172.777
286.642, 1279.306
288.007, 1331.234
289.371, 1669.878
290.735, 1879.800
292.099, 2155.877
293.462, 2692.026
294.826, 2978.197
296.189, 3267.340
297.552, 3242.411
298.914, 3016.392
300.277, 2619.275
301.639, 1926.063
303.001, 1704.742
304.363, 1303.248
305.724, 1106.528
307.086, 835.594
308.447, 651.475
309.808, 451.194
311.168, 219.774
312.529, 177.233
313.889, 119.586
315.249, 195.847
316.609, 95.019
317.969, 167.061
319.328, 251.764
320.687, 283.883
322.046, 490.404
323.405, 692.363
324.764, 825.958
326.122, 1145.430
327.480, 1211.929
328.838, 1370.466
330.196, 1303.030
331.553, 1263.613
332.910, 1193.226
334.267, 1298.882
335.624, 1326.581
336.981, 1372.316
338.337, 1644.091
339.693, 1672.902
341.049, 2033.748
342.405, 2418.627
343.760, 2921.540
345.116, 3749.484
346.471, 4475.147
347.826, 5628.281
349.180, 6302.635
350.535, 6681.169
351.889, 6783.975
353.243, 6076.018
354.597, 5337.712
355.950, 4209.536
357.304, 3280.336
358.657, 2591.441
360.010, 1887.483
361.362, 1504.017
362.715, 1004.820
364.067, 827.116
365.419, 655.367
366.771, 447.887
368.123, 370.001
369.474, 214.369
370.825, 165.388
372.176, 39.513
373.527, 99.916
374.877, 114.438
376.228, 186.879
377.578, 194.266
378.928, 239.919
380.277, 188.570
381.627, 237.247
382.976, 162.963
384.325, 115.696
385.674, 69.434
387.023, 145.833
388.371, 261.116
389.719, 397.418
391.067, 582.737
392.415, 591.073
393.762, 607.429
395.110, 448.805
396.457, 434.202
397.804, 205.625
399.150, 115.085
400.497, 105.583
401.843, 77.127
403.189, 82.721
404.535, 39.365
405.881, 1.936
407.226, 73.810
408.571, 47.596
409.916, 160.443
411.261, 163.304
412.605, 285.145
413.950, 457.915
415.294, 651.630
416.638, 978.342
417.981, 1340.108
419.325, 1805.943
420.668, 2461.846
422.011, 3280.814
423.354, 5792.853
424.697, 5303.948
426.039, 6169.111
427.381, 6252.333
428.723, 6365.601
430.065, 6158.934
431.406, 5589.310
432.748, 5574.744
434.089, 5143.228
435.430, 5334.743
436.770, 5162.312
438.111, 5063.907
439.451, 5398.531
440.791, 5219.185
442.131, 5474.862
443.471, 5834.565
444.810, 6458.289
446.149, 7612.033
447.488, 8975.795
448.827, 10839.560
450.166, 11803.324
451.504, 12487.092
452.842, 12560.851
454.180, 11794.605
455.518, 11628.356
456.855, 10942.101
458.193, 10855.838
459.530, 10849.570
460.867, 10163.294
462.203, 9247.016
463.540, 8190.734
464.876, 7694.444
466.212, 6718.151
467.548, 5911.855
468.883, 5312.558
470.219, 4280.259
471.554, 3920.959
472.889, 3182.660
474.224, 2848.328
475.558, 2528.759
476.892, 2130.467
478.227, 1945.806
479.561, 1682.452
480.894, 1672.171
482.228, 1640.895
483.561, 1519.765
484.894, 1692.575
486.227, 1659.477
487.559, 1763.669
488.892, 1793.904
490.224, 1840.014
491.556, 1970.915
492.888, 1960.243
494.220, 2207.675
495.551, 2190.065
496.882, 2369.937
498.213, 2589.171
499.544, 2731.157
500.874, 3155.035
502.205, 3305.922
503.535, 3643.817
504.865, 3953.721
506.194, 4013.632
507.524, 4435.554
508.853, 4325.484
510.182, 4601.431
511.511, 4471.401
512.840, 4189.418
514.168, 4003.486
515.496, 3367.631
516.824, 3081.841
518.152, 2771.127
519.480, 2632.488
520.807, 2801.916
522.134, 2832.409
523.461, 3244.940
524.788, 3356.508
526.114, 3215.090
527.441, 3008.680
528.767, 2452.274
530.093, 2093.872
531.418, 1522.476
532.744, 1165.961
534.069, 887.777
535.394, 661.850
536.719, 540.454
538.044, 390.640
539.368, 337.006
540.693, 263.639
542.017, 246.265
543.340, 273.601
544.664, 178.848
545.987, 226.355
547.311, 363.019
548.634, 345.994
549.956, 498.936
551.279, 543.050
552.601, 722.204
553.923, 843.500
555.245, 1049.476
556.567, 1262.723
557.889, 1474.886
559.210, 2045.358
560.531, 2629.142
561.852, 3579.491
563.173, 4729.718
564.493, 6230.079
565.813, 8360.110
567.133, 9508.604
568.453, 9962.193
569.773, 8882.036
571.092, 6835.479
572.412, 5274.439
573.731, 3703.064
575.049, 2912.848
576.368, 2227.362
577.686, 1835.729
579.005, 1766.395
580.323, 1633.294
581.640, 1646.316
582.958, 1680.635
584.275, 1723.149
585.593, 1973.035
586.909, 2027.790
588.226, 2430.137
589.543, 2529.037
590.859, 2644.532
592.175, 3119.729
593.491, 3250.246
594.807, 3902.120
596.122, 4381.336
597.438, 4942.343
598.753, 5735.037
600.068, 6078.423
601.382, 6499.822
602.697, 6262.600
604.011, 5912.189
605.325, 5646.630
606.639, 4953.988
607.952, 4529.326
609.266, 3950.648
610.579, 3419.949
611.892, 3220.233
613.205, 2733.498
614.518, 2646.744
615.830, 2237.972
617.142, 2068.180
618.454, 1947.370
619.766, 1524.541
621.078, 1364.692
622.389, 1157.823
623.700, 1005.936
625.011, 820.029
626.322, 658.103
627.632, 618.336
628.943, 605.463
630.253, 460.635
631.563, 452.106
632.872, 306.350
634.182, 324.010
635.491, 211.419
636.800, 277.665
638.109, 243.064
639.418, 170.193
640.726, 128.446
642.035, 146.570
643.343, 128.478
644.651, 63.903
645.958, 57.854
647.266, 91.855
648.573, 0.684
649.880, 47.354
651.187, 26.109
652.494, 39.724
653.800, 167.310
655.106, 83.874
656.412, 146.410
657.718, 180.922
659.024, 179.410
660.329, 262.874
661.634, 238.315
662.939, 270.731
664.244, 314.123
665.549, 258.490
666.853, 324.834
668.157, 295.153
669.461, 316.446
670.765, 283.715
672.069, 278.958
673.372, 380.174
674.675, 309.365
675.978, 357.529
677.281, 423.666
678.583, 352.775
679.886, 461.856
681.188, 472.910
682.490, 596.934
683.792, 579.930
685.093, 654.898
686.394, 751.836
687.696, 755.746
688.997, 778.626
690.297, 802.484
691.598, 735.331
692.898, 695.170
694.198, 461.021
695.498, 484.885
696.798, 451.773
698.097, 299.673
699.397, 403.595
700.696, 291.522
701.995, 267.440
703.293, 224.338
704.592, 135.207
705.890, 145.042
707.188, 105.844
708.486, 97.613
709.784, 65.346
711.081, 21.043
712.378, 14.697
713.675, 32.697
714.972, 37.163
716.269, 57.704
717.565, 66.331
718.862, 64.048
720.158, 81.855
721.453, 45.761
722.749, 19.746
724.045, 100.798
725.340, 40.960
726.635, 98.199
727.930, 58.548
729.224, 100.983
730.519, 103.528
731.813, 115.185
733.107, 112.958
734.401, 117.848
735.694, 105.857
736.988, 123.978
738.281, 81.220
739.574, 116.562
740.867, 91.021
742.160, 41.584
743.452, 115.225
744.744, 28.983
746.036, 86.811
747.328, 66.740
748.620, 7.241
749.911, 78.828
751.202, 51.006
752.493, 14.804
753.784, 1.556
755.075, 32.256
756.365, 29.916
757.655, 115.536
758.945, 155.124
760.235, 184.681
761.525, 242.207
762.814, 291.327
764.103, 352.172
765.392, 415.611
766.681, 487.021
767.969, 565.401
769.258, 585.126
770.546, 648.078
771.834, 603.373
773.122, 561.640
774.409, 525.879
775.697, 417.090
776.984, 423.272
778.271, 331.427
779.558, 196.555
780.844, 189.655
782.131, 133.728
783.417, 152.771
784.703, 135.786
785.989, 57.773
787.274, 105.729
788.560, 17.656
789.845, 53.548
791.130, 86.410
792.415, 43.243
793.699, 101.045
794.983, 64.819
796.268, 88.427
797.552, 133.079
798.835, 12.623
800.119, 107.860
801.402, 88.040
802.686, 121.330
803.969, 157.815
805.251, 119.859
806.534, 224.784
807.816, 148.737
809.098, 206.195
810.380, 280.276
811.662, 234.590
812.944, 348.999
814.225, 353.233
815.506, 363.325
816.787, 428.084
818.068, 397.400
819.349, 462.694
820.629, 516.965
821.909, 676.214
823.189, 710.034
824.469, 653.646
825.749, 844.830
827.028, 833.992
828.307, 899.132
829.586, 1070.252
830.865, 1053.351
832.144, 1121.429
833.422, 1111.486
834.700, 1113.523
835.978, 1080.541
837.256, 960.538
838.534, 957.516
839.811, 928.474
841.088, 828.413
842.365, 985.333
843.642, 919.234
844.919, 887.117
846.195, 905.981
847.472, 866.827
848.748, 952.655
850.023, 965.467
851.299, 1085.261
852.575, 1150.041
853.850, 1146.801
855.125, 1291.543
856.400, 1337.268
857.674, 1465.975
858.949, 1647.372
860.223, 1583.788
861.497, 1830.030
862.771, 2041.219
864.045, 2086.255
865.318, 2371.604
866.591, 2428.668
867.864, 2689.805
869.137, 2903.630
870.410, 3013.129
871.682, 3341.065
872.955, 3600.111
874.227, 3707.008
875.499, 4227.159
876.770, 4082.932
878.042, 4508.595
879.313, 4610.994
880.584, 4514.782
881.855, 4395.051
883.126, 3947.652
884.396, 3845.083
885.667, 3607.776
886.937, 3335.603
888.207, 3310.122
889.476, 3044.394
890.746, 3090.532
892.015, 2943.361
893.284, 2700.982
894.553, 2916.219
895.822, 2702.583
897.090, 2863.343
898.359, 2995.541
899.627, 2963.141
900.895, 3303.025
902.163, 3367.583
903.430, 3725.772
904.698, 4071.607
905.965, 4443.641
907.232, 5107.973
908.499, 5522.601
909.765, 5910.205
911.032, 6669.417
912.298, 6966.802
913.564, 7754.324
914.830, 8091.919
916.095, 8039.519
917.361, 8367.126
918.626, 7814.738
919.891, 7672.371
921.156, 7200.016
922.420, 6107.674
923.685, 5888.341
924.949, 5110.014
926.213, 4569.695
927.477, 4101.382
928.740, 3515.077
930.004, 3211.779
931.267, 2841.490
932.530, 2442.209
933.793, 2316.935
935.056, 1948.491
936.318, 1868.141
937.581, 1701.735
938.843, 1450.019
940.104, 1588.518
941.366, 1311.591
942.628, 1212.905
943.889, 1221.374
945.150, 997.679
946.411, 1135.256
947.672, 1023.699
948.932, 968.263
950.193, 989.032
951.453, 919.273
952.713, 935.976
953.973, 997.621
955.232, 902.424
956.491, 1006.371
957.751, 864.219
959.010, 981.194
960.268, 1077.194
961.527, 962.208
962.785, 1033.235
964.044, 952.275
965.302, 924.327
966.559, 959.396
967.817, 864.478
969.075, 919.573
970.332, 986.681
971.589, 920.807
972.846, 1068.947
974.102, 1071.102
975.359, 1319.271
976.615, 1577.455
977.871, 1795.652
979.127, 2285.864
980.383, 2351.090
981.638, 2782.338
982.893, 2794.601
984.149, 2797.882
985.404, 2720.186
986.658, 2327.505
987.913, 1952.846
989.167, 1734.203
990.421, 1420.402
991.675, 1200.972
992.929, 968.383
994.183, 837.816
995.436, 691.267
996.689, 620.739
997.942, 498.235
999.195, 396.746
1000.448, 311.957
1001.700, 321.512
1002.952, 279.625
1004.204, 169.223
1005.456, 205.850
1006.708, 145.486
1007.959, 174.147
1009.210, 120.225
1010.461, 104.923
1011.712, 158.909
1012.963, 99.984
1014.213, 164.581
1015.464, 201.390
1016.714, 154.203
1017.964, 263.896
1019.214, 210.519
1020.463, 223.901
1021.712, 362.063
1022.962, 339.210
1024.210, 426.265
1025.459, 444.400
1026.708, 389.425
1027.956, 589.842
1029.204, 542.916
1030.452, 678.411
1031.700, 807.261
1032.948, 789.585
1034.195, 1017.622
1035.442, 1068.408
1036.689, 1235.307
1037.936, 1592.968
1039.183, 1591.660
1040.429, 1939.395
1041.676, 2085.203
1042.922, 2197.062
1044.168, 2433.980
1045.413, 2321.659
1046.659, 2279.672
1047.904, 2315.607
1049.149, 2039.348
1050.394, 2028.518
1051.639, 1918.920
1052.884, 1653.421
1054.128, 1623.710
1055.372, 1487.018
1056.616, 1517.348
1057.860, 1476.704
1059.104, 1387.081
1060.347, 1518.476
1061.590, 1383.888
1062.833, 1388.336
1064.076, 1444.778
1065.319, 1318.233
1066.561, 1253.702
1067.803, 1250.217
1069.046, 1132.970
1070.287, 1315.706
1071.529, 1243.972
1072.771, 1244.623
1074.012, 1525.212
1075.253, 1595.823
1076.494, 1927.398
1077.735, 2135.986
1078.975, 2402.585
1080.216, 2902.198
1081.456, 3136.892
1082.696, 3604.571
1083.936, 4242.306
1085.175, 4476.967
1086.415, 5377.642
1087.654, 5745.329
1088.893, 5907.039
1090.132, 5935.412
1091.371, 5509.486
1092.609, 5104.679
1093.847, 4154.438
1095.085, 3054.219
1096.323, 2533.116
1097.561, 1864.804
1098.799, 1415.670
1100.036, 1124.653
1101.273, 844.592
1102.510, 702.441
1103.747, 645.297
1104.983, 450.498
1106.220, 503.490
1107.456, 326.376
1108.692, 343.709
1109.928, 334.768
1111.163, 260.681
1112.399, 285.644
1113.634, 226.576
1114.869, 170.350
1116.104, 201.299
1117.339, 142.328
1118.573, 212.450
1119.808, 250.268
1121.042, 188.480
1122.276, 441.721
1123.509, 503.953
1124.743, 338.105
1125.976, 301.132
1127.210, 134.243
1128.443, 180.315
1129.675, 156.101
1130.908, 27.245
1132.141, 105.117
1133.373, 67.075
1134.605, 34.260
1135.837, 83.111
1137.068, 30.373
1138.300, 53.010
1139.531, 41.171
1140.762, 71.335
1141.993, 26.305
1143.224, 27.705
1144.455, 25.325
1145.685, 86.206
1146.915, 48.306
1148.145, 30.394
1149.375, 39.305
1150.605, 25.252
1151.834, 10.114
1153.063, 1.302
1154.292, 5.569
1155.521, 32.755
1156.750, 86.259
1157.978, 20.909
1159.207, 63.548
1160.435, 15.487
1161.663, 29.965
1162.891, 34.179
1164.118, 9.312
1165.345, 29.121
1166.573, 48.914
1167.800, 17.695
1169.026, 74.013
1170.253, 5.947
1171.480, 4.190
1172.706, 85.456
1173.932, 82.203
1175.158, 8.395
1176.383, 24.377
1177.609, 7.268
1178.834, 56.090
1180.059, 45.171
1181.284, 17.115
1182.509, 8.484
1183.734, 9.639
1184.958, 0.381
1186.182, 2.010
1187.406, 8.140
1188.630, 7.799
1189.854, 29.828
1191.077, 27.458
1192.301, 33.522
1193.524, 16.311
1194.747, 16.630
1195.969, 29.417
1197.192, 41.682
1198.414, 20.303
1199.636, 1.583
1200.858, 17.295
1202.080, 34.036
1203.302, 35.693
1204.523, 58.444
1205.744, 22.254
1206.966, 49.885
1208.186, 42.586
1209.407, 13.163
1210.628, 39.802
1211.848, 22.356
1213.068, 25.899
1214.288, 17.433
1215.508, 45.011
1216.727, 11.856
1217.947, 19.584
1219.166, 11.404
1220.385, 23.819
1221.604, 23.222
1222.822, 65.612
1224.041, 75.990
1225.259, 61.449
1226.477, 90.706
1227.695, 26.045
1228.913, 34.369
1230.130, 25.681
1231.348, 70.101
1232.565, 70.409
1233.782, 72.874
1234.999, 50.241
1236.215, 80.919
1237.432, 68.265
1238.648, 13.514
1239.864, 93.710
1241.080, 28.104
1242.296, 34.133
1243.511, 7.278
1244.726, 50.408
1245.942, 28.534
1247.156, 41.629
1248.371, 7.708
1249.586, 77.771
1250.800, 24.818
1252.014, 44.931
1253.228, 78.948
1254.442, 13.049
1255.656, 39.922
1256.869, 105.875
1258.083, 69.804
1259.296, 87.015
1260.509, 17.898
1261.722, 100.792
1262.934, 67.623
1264.147, 48.513
1265.359, 20.290
1266.571, 41.057
1267.783, 40.910
1268.994, 42.676
1270.206, 56.336
1271.417, 89.046
1272.628, 71.658
1273.839, 83.458
1275.050, 5.875
1276.260, 71.420
1277.471, 26.986
1278.681, 4.481
1279.891, 68.949
1281.101, 7.397
1282.310, 55.813
1283.520, 38.259
1284.729, 23.612
1285.938, 85.376
1287.147, 7.705
1288.356, 52.255
1289.564, 15.489
1290.773, 10.696
1291.981, 111.135
1293.189, 24.294
1294.397, 14.951
1295.604, 54.149
1296.812, 2.694
1298.019, 27.751
1299.226, 74.804
1300.433, 6.817
1301.640, 35.036
1302.846, 91.600
1304.053, 17.555
1305.259, 138.257
1306.465, 46.817
1307.671, 9.852
1308.876, 46.667
1310.082, 43.526
1311.287, 70.561
1312.492, 63.652
1313.697, 35.933
1314.902, 88.459
1316.106, 71.023
1317.310, 47.703
1318.515, 48.333
1319.719, 20.088
1320.922, 74.463
1322.126, 53.215
1323.329, 46.563
1324.533, 85.589
1325.736, 50.164
1326.939, 19.060
1328.141, 32.243
1329.344, 26.352
1330.546, 48.735
1331.748, 80.128
1332.950, 19.492
1334.152, 48.852
1335.354, 66.176
1336.555, 15.477
1337.757, 79.044
1338.958, 42.298
1340.159, 14.331
1341.359, 35.312
1342.560, 40.489
1343.760, 85.457
1344.960, 49.333
1346.160, 75.445
1347.360, 93.537
1348.560, 68.641
1349.759, 53.694
1350.959, 92.727
1352.158, 73.741
1353.357, 152.735
1354.555, 83.689
1355.754, 106.646
1356.952, 111.584
1358.151, 175.964
1359.349, 93.835
1360.546, 183.462
1361.744, 87.192
1362.941, 127.299
1364.139, 147.016
1365.336, 152.792
1366.533, 182.543
1367.730, 167.351
1368.926, 167.190
1370.123, 132.865
1371.319, 130.566
1372.515, 143.177
1373.711, 103.053
1374.906, 68.598
1376.102, 92.208
1377.297, 53.115
1378.492, 71.100
1379.687, 32.950
1380.882, 72.322
1382.077, 88.028
1383.271, 178.723
1384.465, 100.188
1385.659, 77.681
1386.853, 148.945
1388.047, 151.407
1389.240, 91.158
1390.434, 146.611
1391.627, 124.155
1392.820, 151.497
1394.013, 109.761
1395.205, 76.559
1396.398, 176.427
1397.590, 158.570
1398.782, 101.703
1399.974, 166.783
1401.166, 107.497
1402.357, 36.191
1403.549, 108.208
1404.740, 79.762
1405.931, 140.396
1407.122, 66.014
1408.313, 95.276
1409.503, 74.675
1410.693, 47.727
1411.883, 57.475
1413.073, 98.998
1414.263, 57.921
1415.453, 147.490
1416.642, 80.998
1417.831, 57.239
1419.020, 70.341
1420.209, 59.794
1421.398, 96.785
1422.587, 100.456
1423.775, 94.729
1424.963, 125.971
1426.151, 54.069
1427.339, 70.892
1428.526, 5.516
1429.714, 55.079
1430.901, 9.790
1432.088, 113.722
1433.275, 72.345
1434.462, 11.188
1435.648, 72.648
1436.835, 15.376
1438.021, 33.124
1439.207, 66.088
1440.393, 56.885
1441.579, 46.685
1442.764, 68.573
1443.949, 10.431
1445.135, 123.255
1446.320, 48.044
1447.504, 38.799
1448.689, 161.229
1449.873, 111.296
1451.058, 68.795
1452.242, 37.299
1453.426, 23.651
1454.609, 30.643
1455.793, 57.496
1456.976, 59.864
1458.159, 86.990
1459.342, 71.235
1460.525, 67.452
1461.708, 57.938
1462.890, 81.065
1464.073, 82.103
1465.255, 96.351
1466.437, 96.915
1467.619, 73.365
1468.800, 105.789
1469.982, 79.041
1471.163, 106.661
1472.344, 110.712
1473.525, 80.958
1474.706, 110.100
1475.886, 86.615
1477.066, 55.183
1478.247, 178.863
1479.427, 32.368
1480.607, 94.832
1481.786, 70.166
1482.966, 13.679
1484.145, 76.772
1485.324, 65.094
1486.503, 63.258
1487.682, 61.877
1488.860, 99.171
1490.039, 19.468
1491.217, 61.780
1492.395, 92.119
1493.573, 33.475
1494.751, 84.842
1495.928, 71.208
1497.106, 52.570
1498.283, 83.017
1499.460, 6.505
1500.637, 102.049
1501.814, 33.127
1502.990, 6.754
1504.166, 131.452
1505.342, 27.921
1506.518, 47.729
1507.694, 53.603
1508.870, 21.558
1510.045, 12.142
1511.221, 60.458
1512.396, 42.006
1513.571, 99.701
1514.745, 0.811
1515.920, 60.340
1517.094, 44.544
1518.269, 54.124
1519.443, 0.000
##END=



