##NAMES=Epidote
##RRUFFID=R050064
##IDEAL CHEMISTRY=Ca_2_Fe^3+^Al_2_(Si_2_O_7_)(SiO_4_)O(OH)
##LOCALITY=East Xichang City, Meigu County, Sichuan Province, China
##OWNER=RRUFF
##SOURCE=Rock Currier
##DESCRIPTION=Green prismatic crystals
##STATUS=The identification of this mineral has been confirmed by X-ray diffraction and chemical analysis
##URL=rruff.info/R050064
##MEASURED CHEMISTRY=(Ca_1.99_Mn_0.01_)_Î£=2_Fe^3+^_1.00_Al_2.00_(Si_2.00_O_7_)(Si_1.00_O_4_)O(OH); 
##PIN_ID=L00177
##ORIENTATION=Laser parallel to -c* (0 0 -1). Fiducial mark perpendicular to laser is parallel to a [1 0 0]
84.529, 0.000
85.929, 12.688
87.329, 377.236
88.728, 1141.617
90.128, 2145.484
91.527, 3620.197
92.926, 5727.569
94.324, 8687.728
95.723, 11956.546
97.121, 14009.687
98.519, 13838.937
99.917, 11651.206
101.314, 9057.004
102.712, 6527.012
104.109, 4658.259
105.505, 3384.331
106.902, 2303.438
108.298, 1725.484
109.694, 1195.150
111.090, 1017.402
112.486, 766.219
113.881, 844.771
115.277, 678.035
116.672, 674.438
118.066, 567.545
119.461, 545.095
120.855, 626.711
122.249, 834.325
123.643, 1023.877
125.036, 1202.372
126.430, 1362.937
127.823, 1244.504
129.216, 1274.993
130.608, 911.338
132.001, 661.479
133.393, 441.365
134.785, 249.941
136.176, 142.162
137.568, 81.981
138.959, 36.637
140.350, 65.731
141.741, 177.348
143.131, 216.545
144.521, 220.351
145.911, 180.781
147.301, 194.802
148.691, 196.426
150.080, 140.929
151.469, 35.096
152.858, 106.816
154.247, 299.543
155.635, 526.332
157.024, 804.422
158.411, 1100.806
159.799, 1619.477
161.187, 2013.426
162.574, 2603.650
163.961, 3540.514
165.348, 4826.676
166.734, 6492.414
168.121, 7807.286
169.507, 8972.150
170.893, 9337.087
172.278, 9262.126
173.664, 8557.281
175.049, 7312.561
176.434, 5967.956
177.819, 4679.461
179.203, 3561.069
180.587, 2652.779
181.971, 2085.584
183.355, 1772.462
184.739, 1460.379
186.122, 1297.335
187.505, 1106.335
188.888, 799.390
190.271, 591.503
191.653, 377.679
193.035, 261.924
194.417, 150.237
195.799, 147.506
197.180, 317.562
198.562, 437.357
199.943, 544.941
201.324, 619.414
202.704, 529.979
204.084, 433.662
205.465, 265.464
206.844, 117.386
208.224, 89.428
209.603, 42.410
210.983, 23.129
212.362, 8.271
213.740, 136.790
215.119, 295.426
216.497, 530.180
217.875, 826.051
219.253, 1184.038
220.631, 1874.142
222.008, 2526.361
223.385, 3440.694
224.762, 4266.144
226.139, 5022.707
227.515, 5630.383
228.891, 5818.173
230.267, 6046.067
231.643, 5804.047
233.018, 5732.137
234.394, 5720.341
235.769, 6108.658
237.144, 6437.086
238.518, 6875.625
239.893, 7354.278
241.267, 6764.311
242.641, 6418.441
244.014, 5491.739
245.388, 4606.007
246.761, 3715.237
248.134, 3089.965
249.507, 2501.536
250.879, 2207.098
252.252, 2059.270
253.624, 1947.792
254.996, 1746.080
256.367, 1651.895
257.739, 1483.096
259.110, 1203.562
260.481, 1060.208
261.852, 1057.993
263.222, 1122.893
264.592, 1352.877
265.962, 1725.840
267.332, 2436.721
268.702, 3157.544
270.071, 4323.342
271.440, 5563.137
272.809, 6742.944
274.178, 7732.781
275.546, 8252.658
276.915, 8152.568
278.283, 7562.222
279.650, 6711.293
281.018, 5949.858
282.385, 5657.989
283.752, 5015.985
285.119, 4556.140
286.486, 4081.450
287.852, 3740.911
289.218, 3469.519
290.584, 3332.359
291.950, 3180.158
293.316, 3311.181
294.681, 3354.333
296.046, 3481.613
297.411, 3479.065
298.775, 3541.540
300.140, 3458.181
301.504, 3382.937
302.868, 3349.567
304.231, 3650.600
305.595, 4218.388
306.958, 5069.420
308.321, 6105.522
309.684, 7291.761
311.047, 8080.564
312.409, 8538.747
313.771, 8247.045
315.133, 7448.655
316.495, 6266.131
317.856, 5367.085
319.217, 4648.134
320.578, 4121.280
321.939, 3956.518
323.299, 3916.849
324.660, 4118.271
326.020, 4204.783
327.380, 4225.385
328.739, 4164.120
330.099, 4174.834
331.458, 3761.667
332.817, 3357.567
334.176, 2883.537
335.534, 2628.576
336.892, 2451.682
338.251, 2623.857
339.608, 2860.099
340.966, 3526.408
342.323, 4319.785
343.681, 5501.225
345.037, 6333.733
346.394, 7366.307
347.751, 7578.946
349.107, 7451.651
350.463, 6884.421
351.819, 6257.257
353.174, 5280.156
354.530, 4479.122
355.885, 3800.152
357.240, 3394.519
358.594, 3117.406
359.949, 3071.629
361.303, 3164.919
362.657, 3419.275
364.011, 3725.700
365.365, 3770.193
366.718, 3886.755
368.071, 3680.383
369.424, 3184.081
370.777, 2630.844
372.129, 2055.675
373.481, 1537.031
374.833, 1062.190
376.185, 680.173
377.537, 452.265
378.888, 330.421
380.239, 437.642
381.590, 526.925
382.941, 883.271
384.291, 1250.680
385.642, 1623.152
386.992, 1690.685
388.341, 1645.284
389.691, 1419.961
391.040, 1006.707
392.389, 532.523
393.738, 273.409
395.087, 25.633
396.435, 223.601
397.784, 465.531
399.132, 555.479
400.479, 641.454
401.827, 597.478
403.174, 598.543
404.521, 466.663
405.868, 387.952
407.215, 210.519
408.561, 2.310
409.908, 351.798
411.254, 715.949
412.599, 1391.197
413.945, 2014.544
415.290, 3106.980
416.636, 4370.523
417.980, 6339.146
419.325, 8723.859
420.670, 11238.658
422.014, 14133.537
423.358, 15908.495
424.702, 17093.537
426.045, 17188.672
427.389, 17693.871
428.732, 18429.150
430.075, 20094.514
431.417, 22089.971
432.760, 23565.506
434.102, 24211.129
435.444, 23006.836
436.786, 20652.621
438.127, 18818.496
439.469, 16494.457
440.810, 15030.521
442.151, 14926.665
443.492, 14872.906
444.832, 16529.242
446.172, 19005.662
447.512, 21282.170
448.852, 24428.770
450.192, 27055.443
451.531, 29832.219
452.870, 32029.066
454.209, 32545.996
455.548, 32373.000
456.887, 29700.086
458.225, 25997.242
459.563, 22134.477
460.901, 17791.787
462.238, 14369.161
463.576, 11266.605
464.913, 9194.116
466.250, 7271.714
467.587, 6109.410
468.923, 5105.211
470.259, 4176.131
471.596, 3589.165
472.931, 2809.299
474.267, 2397.537
475.603, 2058.876
476.938, 1634.305
478.273, 1505.798
479.608, 1335.336
480.942, 1302.918
482.276, 1141.543
483.611, 1333.211
484.944, 1388.919
486.278, 1407.669
487.612, 1674.458
488.945, 1930.285
490.278, 2427.151
491.611, 3002.054
492.943, 3737.995
494.276, 4726.971
495.608, 5888.983
496.940, 6928.029
498.271, 7557.112
499.603, 8056.229
500.934, 8265.379
502.265, 8384.562
503.596, 8593.775
504.927, 8663.024
506.257, 8772.307
507.587, 8681.617
508.917, 8050.959
510.247, 7470.331
511.577, 6439.733
512.906, 5409.165
514.235, 4574.623
515.564, 3948.111
516.892, 3655.627
518.221, 3569.170
519.549, 3790.740
520.877, 3716.335
522.205, 3539.956
523.533, 3295.602
524.860, 2632.272
526.187, 2043.966
527.514, 1462.684
528.841, 1002.425
530.167, 728.188
531.493, 466.627
532.820, 307.136
534.145, 259.615
535.471, 153.478
536.796, 153.362
538.122, 89.266
539.447, 125.188
540.771, 140.128
542.096, 233.086
543.420, 350.060
544.744, 434.951
546.068, 584.163
547.392, 683.158
548.715, 872.506
550.039, 1024.100
551.362, 1462.025
552.684, 1831.857
554.007, 2413.427
555.329, 3090.395
556.652, 4390.310
557.973, 6058.255
559.295, 8769.289
560.617, 12304.812
561.938, 16342.516
563.259, 19509.635
564.580, 20204.842
565.901, 18594.107
567.221, 15104.455
568.541, 11692.816
569.861, 9070.215
571.181, 7198.250
572.501, 6123.036
573.820, 5479.146
575.139, 5239.113
576.458, 5506.336
577.777, 5853.843
579.095, 6746.826
580.414, 7891.645
581.732, 9379.394
583.049, 10865.804
584.367, 12110.606
585.685, 13608.345
587.002, 14715.737
588.319, 15951.559
589.636, 17151.146
590.952, 19257.674
592.268, 21826.594
593.585, 24832.461
594.900, 27269.602
596.216, 28938.646
597.532, 29437.232
598.847, 28826.873
600.162, 26563.648
601.477, 24782.785
602.792, 22561.160
604.106, 20986.885
605.420, 20313.371
606.734, 19709.594
608.048, 19846.957
609.361, 20243.270
610.675, 20209.186
611.988, 19914.262
613.301, 18788.793
614.614, 17114.229
615.926, 14920.191
617.238, 12864.806
618.550, 10678.770
619.862, 9012.303
621.174, 7346.659
622.485, 6064.182
623.797, 5112.320
625.108, 4334.826
626.418, 3781.760
627.729, 3250.178
629.039, 2766.913
630.349, 2483.468
631.659, 2170.541
632.969, 2057.744
634.279, 1781.403
635.588, 1606.609
636.897, 1473.775
638.206, 1382.750
639.515, 1192.691
640.823, 1150.503
642.131, 1006.255
643.439, 845.847
644.747, 836.405
646.055, 753.901
647.362, 667.266
648.669, 602.594
649.976, 544.885
651.283, 469.140
652.589, 487.356
653.896, 432.534
655.202, 387.675
656.508, 360.776
657.814, 321.838
659.119, 358.861
660.424, 344.844
661.729, 317.786
663.034, 312.688
664.339, 263.549
665.643, 288.369
666.947, 352.146
668.251, 215.882
669.555, 299.576
670.859, 231.227
672.162, 299.835
673.465, 197.399
674.768, 245.920
676.071, 244.397
677.373, 323.830
678.676, 381.218
679.978, 372.561
681.280, 441.952
682.581, 490.111
683.883, 521.317
685.184, 584.478
686.485, 628.592
687.786, 665.659
689.087, 628.679
690.387, 554.653
691.687, 509.578
692.987, 447.456
694.287, 337.286
695.586, 332.067
696.886, 175.800
698.185, 180.483
699.484, 146.118
700.783, 125.703
702.081, 118.238
703.379, 41.722
704.677, 10.856
705.975, 21.483
707.273, 13.753
708.570, 16.951
709.868, 4.040
711.165, 36.872
712.462, 53.914
713.758, 55.016
715.055, 108.124
716.351, 100.154
717.647, 93.350
718.943, 84.450
720.238, 89.540
721.533, 84.260
722.829, 108.811
724.124, 88.062
725.418, 65.438
726.713, 74.934
728.007, 22.553
729.301, 11.270
730.595, 104.078
731.889, 28.026
733.182, 48.075
734.476, 71.235
735.769, 20.519
737.061, 66.901
738.354, 45.405
739.647, 67.019
740.939, 18.755
742.231, 60.589
743.523, 35.541
744.814, 95.599
746.106, 46.795
747.397, 85.103
748.688, 36.542
749.978, 57.088
751.269, 87.751
752.559, 80.548
753.849, 97.849
755.139, 52.536
756.429, 90.714
757.719, 79.025
759.008, 37.464
760.297, 50.009
761.586, 46.665
762.875, 65.431
764.163, 49.524
765.451, 43.930
766.739, 31.415
768.027, 23.618
769.315, 38.917
770.602, 48.318
771.890, 27.828
773.177, 18.435
774.463, 12.654
775.750, 26.917
777.036, 1.204
778.323, 9.755
779.609, 16.798
780.894, 53.072
782.180, 21.880
783.465, 61.622
784.750, 72.337
786.035, 128.926
787.320, 103.495
788.605, 52.009
789.889, 92.463
791.173, 91.863
792.457, 109.207
793.741, 107.498
795.024, 127.101
796.307, 131.921
797.591, 160.055
798.873, 158.140
800.156, 162.831
801.439, 201.161
802.721, 193.099
804.003, 198.991
805.285, 228.835
806.566, 240.832
807.848, 313.384
809.129, 306.089
810.410, 365.748
811.691, 428.362
812.971, 382.931
814.252, 464.455
815.532, 550.934
816.812, 563.370
818.092, 634.762
819.371, 701.111
820.651, 806.416
821.930, 909.958
823.209, 1062.899
824.488, 1178.077
825.766, 1326.894
827.045, 1519.308
828.323, 1600.361
829.601, 1756.375
830.878, 1864.347
832.156, 1932.279
833.433, 1982.171
834.710, 1830.024
835.987, 1879.838
837.264, 1809.612
838.540, 1876.349
839.817, 1779.047
841.093, 1819.708
842.369, 1736.331
843.644, 1810.917
844.920, 1945.465
846.195, 1936.979
847.470, 2063.455
848.745, 2128.897
850.020, 2316.303
851.294, 2509.675
852.568, 2680.011
853.842, 2943.315
855.116, 3308.559
856.390, 3640.726
857.663, 4060.965
858.936, 4482.838
860.209, 4864.450
861.482, 5452.718
862.755, 6024.073
864.027, 6257.677
865.299, 6586.667
866.571, 6897.547
867.843, 6999.315
869.115, 7128.708
870.386, 7072.559
871.657, 7522.791
872.928, 7723.533
874.199, 8303.902
875.470, 8984.549
876.740, 9993.595
878.010, 11763.890
879.280, 13115.555
880.550, 15416.573
881.820, 17310.836
883.089, 19785.764
884.358, 21414.824
885.627, 22268.625
886.896, 22061.129
888.164, 20992.156
889.433, 19106.336
890.701, 17257.578
891.969, 15020.146
893.236, 13451.336
894.504, 12285.537
895.771, 11277.098
897.038, 10960.217
898.305, 10929.555
899.572, 10961.953
900.838, 11311.942
902.105, 12274.977
903.371, 13156.726
904.637, 14316.551
905.902, 15876.835
907.168, 18106.049
908.433, 20078.115
909.698, 22757.805
910.963, 25388.240
912.228, 28211.312
913.492, 30923.621
914.757, 32116.168
916.021, 32317.561
917.285, 31569.994
918.548, 28702.818
919.812, 25866.457
921.075, 22080.631
922.338, 19073.885
923.601, 16226.602
924.864, 13460.649
926.126, 11595.335
927.388, 10000.434
928.650, 8524.692
929.912, 7370.773
931.174, 6369.224
932.435, 5642.295
933.697, 5060.923
934.958, 4512.054
936.218, 4036.851
937.479, 3729.813
938.739, 3444.240
940.000, 3162.520
941.260, 2872.326
942.520, 2640.568
943.779, 2545.833
945.039, 2485.276
946.298, 2403.741
947.557, 2286.320
948.816, 2203.944
950.074, 2298.720
951.333, 2294.522
952.591, 2455.374
953.849, 2400.351
955.107, 2639.359
956.365, 2719.396
957.622, 2802.464
958.879, 2930.557
960.136, 2881.685
961.393, 2734.843
962.650, 2647.029
963.906, 2442.246
965.162, 2410.485
966.418, 2376.760
967.674, 2331.061
968.930, 2527.392
970.185, 2660.754
971.441, 2877.141
972.696, 3392.549
973.950, 3912.984
975.205, 4652.440
976.459, 5275.925
977.714, 5957.435
978.968, 6572.970
980.222, 6621.533
981.475, 6159.119
982.729, 5537.732
983.982, 4599.370
985.235, 3981.032
986.488, 3233.719
987.740, 2653.430
988.993, 2204.174
990.245, 1870.947
991.497, 1601.745
992.749, 1379.572
994.000, 1182.425
995.252, 1086.309
996.503, 948.222
997.754, 894.162
999.005, 803.130
1000.256, 764.128
1001.506, 703.155
1002.756, 692.212
1004.006, 620.555
1005.256, 621.375
1006.506, 613.526
1007.755, 700.453
1009.005, 759.746
1010.254, 817.315
1011.502, 978.981
1012.751, 1173.477
1014.000, 1502.083
1015.248, 1811.383
1016.496, 2043.630
1017.744, 2355.188
1018.991, 2303.901
1020.239, 2250.771
1021.486, 2086.352
1022.733, 1796.300
1023.980, 1694.263
1025.227, 1437.815
1026.473, 1381.247
1027.719, 1362.631
1028.965, 1374.191
1030.211, 1461.608
1031.457, 1639.740
1032.702, 1826.241
1033.948, 2059.847
1035.193, 2354.584
1036.438, 2789.723
1037.682, 3171.272
1038.927, 3511.624
1040.171, 3766.435
1041.415, 3842.760
1042.659, 3735.169
1043.903, 3607.185
1045.146, 3240.922
1046.390, 3087.091
1047.633, 2689.597
1048.876, 2400.200
1050.118, 2243.854
1051.361, 1966.330
1052.603, 1959.274
1053.845, 1879.801
1055.087, 1921.155
1056.329, 2053.821
1057.571, 2219.559
1058.812, 2522.357
1060.053, 2784.226
1061.294, 2740.162
1062.535, 2790.154
1063.775, 2648.223
1065.016, 2389.388
1066.256, 2391.887
1067.496, 2261.117
1068.736, 2305.450
1069.975, 2372.096
1071.214, 2485.557
1072.454, 2793.143
1073.693, 3238.669
1074.931, 3704.256
1076.170, 4526.857
1077.408, 5357.504
1078.647, 6673.338
1079.885, 8259.077
1081.122, 10363.611
1082.360, 13267.760
1083.597, 15872.189
1084.835, 17256.090
1086.072, 17330.021
1087.308, 14744.456
1088.545, 12448.521
1089.781, 9702.544
1091.018, 7386.773
1092.254, 5606.069
1093.490, 4125.912
1094.725, 3163.078
1095.961, 2551.769
1097.196, 1959.610
1098.431, 1609.357
1099.666, 1416.926
1100.900, 1150.561
1102.135, 1069.084
1103.369, 886.243
1104.603, 869.842
1105.837, 668.771
1107.071, 683.174
1108.304, 600.434
1109.538, 523.390
1110.771, 476.678
1112.004, 423.652
1113.236, 423.850
1114.469, 366.740
1115.701, 360.724
1116.933, 372.111
1118.165, 349.104
1119.397, 336.131
1120.629, 393.980
1121.860, 345.253
1123.091, 407.071
1124.322, 292.115
1125.553, 281.059
1126.783, 240.313
1128.014, 238.074
1129.244, 216.946
1130.474, 152.978
1131.704, 193.880
1132.933, 169.721
1134.163, 169.673
1135.392, 123.565
1136.621, 97.249
1137.850, 170.492
1139.079, 60.429
1140.307, 54.034
1141.535, 80.003
1142.763, 14.699
1143.991, 38.352
1145.219, 56.455
1146.446, 7.620
1147.674, 13.055
1148.901, 6.312
1150.128, 5.104
1151.354, 18.705
1152.581, 38.048
1153.807, 19.304
1155.033, 38.418
1156.259, 48.845
1157.485, 19.634
1158.710, 56.119
1159.936, 76.467
1161.161, 50.495
1162.386, 67.458
1163.611, 63.690
1164.835, 69.470
1166.060, 70.917
1167.284, 72.042
1168.508, 62.496
1169.732, 68.669
1170.955, 40.720
1172.179, 25.283
1173.402, 18.037
1174.625, 12.614
1175.848, 46.298
1177.070, 6.922
1178.293, 28.983
1179.515, 3.507
1180.737, 5.649
1181.959, 62.032
1183.181, 19.248
1184.402, 28.524
1185.624, 20.520
1186.845, 9.585
1188.066, 41.037
1189.286, 14.992
1190.507, 26.412
1191.727, 19.567
1192.947, 1.555
1194.167, 8.244
1195.387, 34.044
1196.607, 7.680
1197.826, 0.917
1199.045, 11.150
1200.264, 29.940
1201.483, 17.027
1202.702, 21.007
1203.920, 7.989
1205.138, 10.856
1206.356, 12.810
1207.574, 9.183
1208.792, 33.506
1210.009, 7.468
1211.227, 6.295
1212.444, 0.890
1213.661, 16.913
1214.877, 8.705
1216.094, 1.486
1217.310, 9.252
1218.526, 7.341
1219.742, 13.209
1220.958, 13.475
1222.173, 22.190
1223.389, 18.893
1224.604, 11.583
1225.819, 25.257
1227.034, 2.082
1228.248, 8.559
1229.463, 3.182
1230.677, 23.785
1231.891, 27.372
1233.105, 8.022
1234.318, 22.069
1235.532, 57.150
1236.745, 19.779
1237.958, 19.406
1239.171, 7.897
1240.384, 12.646
1241.596, 14.768
1242.809, 13.149
1244.021, 17.411
1245.233, 13.121
1246.444, 3.276
1247.656, 25.509
1248.867, 18.335
1250.079, 8.048
1251.290, 27.916
1252.500, 15.294
1253.711, 30.549
1254.921, 8.504
1256.132, 3.537
1257.342, 11.361
1258.552, 36.569
1259.761, 18.379
1260.971, 14.630
1262.180, 8.485
1263.389, 0.492
1264.598, 42.303
1265.807, 50.162
1267.015, 35.993
1268.223, 78.718
1269.432, 23.731
1270.640, 55.489
1271.847, 47.097
1273.055, 34.822
1274.262, 77.461
1275.470, 60.185
1276.677, 78.771
1277.883, 121.248
1279.090, 79.790
1280.296, 100.203
1281.503, 23.554
1282.709, 64.910
1283.915, 107.166
1285.120, 55.480
1286.326, 110.606
1287.531, 55.699
1288.736, 58.762
1289.941, 94.848
1291.146, 85.940
1292.350, 71.918
1293.555, 82.868
1294.759, 61.790
1295.963, 98.681
1297.167, 69.289
1298.370, 47.420
1299.574, 92.221
1300.777, 75.248
1301.980, 106.914
1303.183, 79.322
1304.386, 72.641
1305.588, 59.141
1306.790, 56.539
1307.993, 34.256
1309.195, 100.082
1310.396, 71.620
1311.598, 65.004
1312.799, 37.276
1314.000, 43.876
1315.201, 49.148
1316.402, 70.464
1317.603, 39.205
1318.803, 44.101
1320.003, 62.086
1321.203, 10.932
1322.403, 0.950
1323.603, 32.284
1324.802, 2.268
1326.002, 64.160
1327.201, 22.963
1328.400, 24.385
1329.599, 45.423
1330.797, 41.692
1331.995, 33.526
1333.194, 42.880
1334.392, 31.179
1335.589, 43.908
1336.787, 39.937
1337.985, 37.568
1339.182, 86.889
1340.379, 72.160
1341.576, 59.405
1342.772, 132.874
1343.969, 95.895
1345.165, 106.365
1346.361, 103.048
1347.557, 114.458
1348.753, 140.839
1349.949, 119.191
1351.144, 157.514
1352.339, 149.810
1353.534, 113.079
1354.729, 175.302
1355.924, 174.460
1357.118, 179.321
1358.312, 178.483
1359.506, 186.013
1360.700, 192.456
1361.894, 197.471
1363.088, 194.393
1364.281, 192.408
1365.474, 169.390
1366.667, 176.387
1367.860, 166.762
1369.052, 213.192
1370.245, 170.126
1371.437, 178.590
1372.629, 205.173
1373.821, 149.562
1375.013, 215.068
1376.204, 132.413
1377.395, 162.112
1378.586, 163.444
1379.777, 129.279
1380.968, 126.682
1382.159, 168.150
1383.349, 152.763
1384.539, 169.710
1385.729, 138.080
1386.919, 108.361
1388.109, 134.370
1389.298, 92.244
1390.487, 140.535
1391.676, 135.205
1392.865, 88.897
1394.054, 118.025
1395.242, 91.804
1396.431, 98.115
1397.619, 117.225
1398.807, 112.555
1399.995, 88.753
1401.182, 133.648
1402.370, 88.075
1403.557, 88.541
1404.744, 119.362
1405.931, 75.656
1407.118, 118.575
1408.304, 94.138
1409.490, 95.180
1410.676, 114.360
1411.862, 57.284
1413.048, 86.516
1414.234, 124.426
1415.419, 78.420
1416.604, 88.260
1417.789, 64.595
1418.974, 82.763
1420.159, 89.582
1421.343, 58.622
1422.528, 76.350
1423.712, 78.418
1424.896, 62.688
1426.079, 73.829
1427.263, 48.277
1428.446, 82.741
1429.629, 91.749
1430.812, 98.158
1431.995, 66.383
1433.178, 57.856
1434.360, 95.292
1435.543, 85.609
1436.725, 103.088
1437.907, 84.514
1439.088, 116.885
1440.270, 124.201
1441.451, 78.460
1442.632, 116.655
1443.813, 112.789
1444.994, 79.869
1446.175, 93.899
1447.355, 121.672
1448.535, 101.293
1449.715, 90.839
1450.895, 54.651
1452.075, 55.308
1453.255, 88.947
1454.434, 82.936
1455.613, 107.500
1456.792, 83.821
1457.971, 50.420
1459.149, 54.780
1460.328, 79.696
1461.506, 104.669
1462.684, 59.821
1463.862, 114.889
1465.040, 97.996
1466.217, 116.909
1467.395, 94.330
1468.572, 91.222
1469.749, 59.045
1470.925, 69.202
1472.102, 101.357
1473.278, 56.223
1474.455, 64.899
1475.631, 142.416
1476.807, 48.184
1477.982, 53.907
1479.158, 91.590
1480.333, 59.237
1481.508, 31.852
1482.683, 75.452
1483.858, 29.902
1485.033, 82.367
1486.207, 46.924
1487.381, 46.374
1488.555, 97.951
1489.729, 75.577
1490.903, 63.272
1492.076, 44.073
1493.250, 67.978
1494.423, 55.968
1495.596, 70.992
1496.769, 60.059
1497.941, 67.163
1499.114, 34.279
1500.286, 4.461
1501.458, 59.799
1502.630, 29.268
1503.802, 44.880
1504.973, 36.641
1506.145, 74.558
1507.316, 31.667
1508.487, 21.568
1509.657, 55.970
1510.828, 38.624
1511.999, 1.465
1513.169, 47.308
1514.339, 0.510
1515.509, 0.000
##END=



