##NAMES=Epididymite
##RRUFFID=R070580
##IDEAL CHEMISTRY=Na_2_Be_2_Si_6_O_15_&#183;H_2_O
##LOCALITY=Narsarsuk, Narsaq, Kitaa, Greenland
##OWNER=RRUFF
##SOURCE=James Shigley
##DESCRIPTION=A translucent to white elongated prism.
##STATUS=The identification of this mineral is confirmed by single-crystal X-ray diffraction and chemical analysis.
##URL=rruff.info/R070580
##MEASURED CHEMISTRY=(Na_1.97_K_0.03_)_Σ=2_Be_2_Si_6.00_O_15_·H_2_O; trace amounts of Al; Be and H_2_O assumed by stoichiometry
##PIN_ID=M01755
##ORIENTATION=Laser parallel to -a* (-1 0 0). Fiducial mark perpendicular to laser is parallel to b [0 1 0]
111.2060, 0.0000000E+00
112.4440, 93.08301
113.6810, 430.7832
114.9180, 731.0166
116.1550, 1213.014
117.3920, 1976.713
118.6290, 2833.884
119.8650, 3561.545
121.1010, 3760.701
122.3370, 3925.964
123.5730, 3544.153
124.8090, 2955.562
126.0450, 2150.244
127.2800, 1849.787
128.5150, 1822.723
129.7500, 2034.757
130.9850, 2289.948
132.2200, 2480.886
133.4540, 2184.012
134.6890, 2113.675
135.9230, 1913.206
137.1570, 1625.137
138.3900, 1248.685
139.6240, 1550.738
140.8580, 1885.987
142.0910, 2268.500
143.3240, 2293.506
144.5570, 2648.184
145.7900, 2645.802
147.0220, 2478.168
148.2550, 2348.803
149.4870, 2054.804
150.7190, 1687.144
151.9510, 1471.972
153.1830, 1146.124
154.4140, 813.5352
155.6460, 560.1865
156.8770, 430.1064
158.1080, 199.5635
159.3390, 2.888672
160.5690, 49.72266
161.8000, 13.80371
163.0300, 154.2236
164.2600, 93.58203
165.4900, 10.04492
166.7200, 103.6104
167.9500, 21.73047
169.1790, 122.0146
170.4080, 35.15918
171.6380, 101.7393
172.8670, 191.7051
174.0950, 128.6953
175.3240, 73.50391
176.5520, 46.77246
177.7810, 111.9268
179.0090, 103.8086
180.2370, 73.55957
181.4640, 69.97266
182.6920, 47.58887
183.9190, 48.75977
185.1460, 49.01465
186.3730, 297.2197
187.6000, 339.4473
188.8270, 441.7227
190.0530, 497.0557
191.2800, 640.4141
192.5060, 783.7900
193.7320, 901.8682
194.9580, 1122.715
196.1830, 1152.208
197.4090, 1337.734
198.6340, 1386.280
199.8590, 1312.834
201.0840, 1257.525
202.3090, 1140.094
203.5340, 899.0928
204.7580, 707.8770
205.9820, 656.6172
207.2060, 491.3740
208.4300, 492.6426
209.6540, 346.5898
210.8780, 456.4082
212.1010, 466.8730
213.3240, 345.1660
214.5470, 395.4434
215.7700, 341.3398
216.9930, 385.6123
218.2150, 547.8057
219.4380, 570.9561
220.6600, 670.0869
221.8820, 668.2188
223.1040, 961.3691
224.3260, 1080.540
225.5470, 1128.726
226.7680, 1185.928
227.9900, 1318.142
229.2110, 1447.369
230.4310, 1824.607
231.6520, 2218.856
232.8720, 2562.131
234.0930, 3046.467
235.3130, 3417.224
236.5330, 4099.668
237.7530, 4650.703
238.9720, 5318.032
240.1920, 5451.320
241.4110, 5614.527
242.6300, 5564.302
243.8490, 5107.990
245.0680, 4608.681
246.2860, 3994.371
247.5040, 3352.062
248.7230, 2722.754
249.9410, 2218.442
251.1590, 1858.127
252.3760, 1668.807
253.5940, 1297.484
254.8110, 1156.159
256.0280, 1000.831
257.2450, 932.4980
258.4620, 665.6172
259.6790, 1013.652
260.8950, 849.7188
262.1120, 657.4297
263.3280, 513.5674
264.5440, 334.9922
265.7600, 408.6084
266.9750, 299.3428
268.1910, 148.1436
269.4060, 197.9814
270.6210, 7.833984
271.8360, 117.6465
273.0510, 237.4053
274.2650, 66.07422
275.4800, 125.6406
276.6940, 111.1123
277.9080, 124.5049
279.1220, 216.8281
280.3360, 265.0898
281.5490, 152.2949
282.7630, 411.4297
283.9760, 415.2686
285.1890, 332.9180
286.4020, 291.4082
287.6150, 189.7344
288.8270, 118.7061
290.0400, 121.4521
291.2520, 64.02832
292.4640, 192.5312
293.6760, 146.9941
294.8870, 24.46973
296.0990, 61.94238
297.3100, 36.58301
298.5210, 26.12988
299.7320, 79.69922
300.9430, 43.87109
302.1540, 15.22461
303.3640, 99.70605
304.5750, 117.5908
305.7850, 2.541016
306.9950, 124.7744
308.2050, 50.80176
309.4140, 110.7676
310.6240, 73.67383
311.8330, 51.77246
313.0420, 23.10938
314.2510, 175.1494
315.4600, 32.46484
316.6680, 154.4678
317.8770, 109.8760
319.0850, 1.862305
320.2930, 255.0654
321.5010, 253.9922
322.7090, 255.2803
323.9160, 172.0791
325.1240, 302.9668
326.3310, 345.8174
327.5380, 509.6738
328.7450, 673.8574
329.9520, 793.6855
331.1580, 777.4990
332.3650, 815.3008
333.5710, 760.0898
334.7770, 763.3145
335.9830, 791.6250
337.1880, 696.3457
338.3940, 611.0537
339.5990, 503.7402
340.8040, 457.9316
342.0090, 399.0693
343.2140, 370.7109
344.4190, 403.3369
345.6230, 374.9482
346.8280, 335.6416
348.0320, 316.1094
349.2360, 230.6406
350.4400, 225.1006
351.6430, 168.4990
352.8470, 109.8008
354.0500, 110.6035
355.2530, 101.9688
356.4560, 83.93164
357.6590, 68.86816
358.8620, 39.77734
360.0640, 16.66504
361.2660, 137.5186
362.4680, 64.63379
363.6700, 84.81641
364.8720, 171.9629
366.0740, 196.2617
367.2750, 76.44824
368.4760, 157.1680
369.6770, 303.1182
370.8780, 99.50195
372.0790, 149.1172
373.2800, 199.7266
374.4800, 183.3320
375.6800, 298.9316
376.8800, 366.5283
378.0800, 418.1191
379.2800, 421.7041
380.4790, 513.5820
381.6790, 621.8477
382.8780, 631.3945
384.0770, 701.9004
385.2760, 696.3369
386.4750, 621.6807
387.6730, 582.0322
388.8720, 659.3809
390.0700, 650.7275
391.2680, 547.0791
392.4660, 682.4277
393.6630, 493.7910
394.8610, 712.1572
396.0580, 948.5215
397.2550, 1254.884
398.4520, 1782.244
399.6490, 2278.602
400.8460, 2789.974
402.0420, 3606.344
403.2390, 4448.715
404.4350, 5595.078
405.6310, 6945.432
406.8270, 8246.768
408.0220, 8805.112
409.2180, 8339.437
410.4130, 7043.743
411.6080, 5349.074
412.8030, 3980.401
413.9980, 2483.710
415.1920, 1707.299
416.3870, 1104.608
417.5810, 764.8965
418.7750, 749.5781
419.9690, 374.8271
421.1630, 331.0566
422.3570, 177.2842
423.5500, 339.4922
424.7430, 176.6855
425.9360, 389.8623
427.1290, 233.0195
428.3220, 341.1602
429.5150, 296.2852
430.7070, 436.3945
431.8990, 573.4902
433.0910, 650.5205
434.2830, 718.5566
435.4750, 575.3545
436.6670, 525.4141
437.8580, 468.4785
439.0490, 312.6777
440.2400, 263.3447
441.4310, 200.7178
442.6220, 15.95312
443.8130, 145.0488
445.0030, 27.02051
446.1930, 44.77246
447.3830, 16.79492
448.5730, 4.523438
449.7630, 134.7100
450.9520, 131.8262
452.1420, 161.0566
453.3310, 54.68359
454.5200, 235.6797
455.7090, 217.0830
456.8980, 224.5713
458.0860, 432.5225
459.2740, 382.6328
460.4630, 514.6006
461.6510, 456.5186
462.8380, 601.4609
464.0260, 594.5137
465.2140, 785.5801
466.4010, 1118.653
467.5880, 1453.746
468.7750, 1918.833
469.9620, 2484.936
471.1490, 3111.031
472.3350, 4005.135
473.5220, 4803.230
474.7080, 5571.326
475.8940, 6074.414
477.0800, 6157.498
478.2650, 5532.573
479.4510, 4717.643
480.6360, 3930.706
481.8210, 3652.765
483.0060, 3278.814
484.1910, 3391.861
485.3760, 3277.900
486.5600, 3011.934
487.7440, 2780.961
488.9290, 2160.982
490.1130, 1799.002
491.2960, 1620.017
492.4800, 1106.024
493.6630, 1062.027
494.8470, 876.0264
496.0300, 933.0029
497.2130, 754.9805
498.3960, 920.9150
499.5780, 962.7520
500.7610, 1037.453
501.9430, 1163.734
503.1250, 1477.521
504.3070, 1697.495
505.4890, 2100.567
506.6710, 2547.387
507.8520, 3372.359
509.0330, 4648.217
510.2140, 5988.334
511.3950, 7822.305
512.5760, 10228.51
513.7570, 13206.41
514.9370, 16309.39
516.1170, 19960.43
517.2980, 24323.41
518.4780, 27612.59
519.6570, 29837.67
520.8370, 29088.65
522.0160, 26331.63
523.1960, 21994.58
524.3750, 16832.09
525.5540, 12746.36
526.7320, 9256.340
527.9110, 6886.540
529.0890, 5235.637
530.2680, 4012.771
531.4460, 3229.788
532.6240, 2719.412
533.8010, 2044.426
534.9790, 1795.535
536.1560, 1553.426
537.3340, 1203.527
538.5110, 1195.855
539.6880, 843.9785
540.8650, 1045.035
542.0410, 800.7188
543.2180, 690.7227
544.3940, 670.7266
545.5700, 641.7773
546.7460, 618.1816
547.9220, 349.1797
549.0970, 452.1113
550.2730, 371.1055
551.4480, 516.2109
552.6230, 525.1172
553.7980, 479.0605
554.9730, 383.6465
556.1470, 354.4512
557.3210, 374.6172
558.4960, 266.9277
559.6700, 317.2344
560.8440, 208.2734
562.0170, 459.3105
563.1910, 280.4121
564.3640, 170.7441
565.5380, 410.3457
566.7110, 487.6230
567.8840, 348.6484
569.0560, 202.6699
570.2290, 148.8066
571.4010, 410.8242
572.5740, 415.8379
573.7460, 469.8496
574.9180, 745.4453
576.0890, 766.3262
577.2610, 881.3457
578.4320, 1166.711
579.6040, 1227.967
580.7750, 1648.268
581.9450, 1843.463
583.1160, 1999.961
584.2870, 2145.633
585.4570, 2066.557
586.6270, 1974.564
587.7980, 1736.623
588.9670, 1484.004
590.1370, 1140.086
591.3070, 1018.885
592.4760, 989.8105
593.6450, 844.1230
594.8140, 771.4316
595.9830, 699.7422
597.1520, 505.3027
598.3210, 549.6250
599.4890, 443.9473
600.6570, 562.5488
601.8250, 529.8711
602.9930, 469.3457
604.1610, 353.8945
605.3290, 329.0762
606.4960, 375.9121
607.6630, 228.2266
608.8300, 161.5371
609.9970, 109.3438
611.1640, 178.9023
612.3300, 82.19727
613.4970, 215.4844
614.6630, 229.0156
615.8290, 249.2949
616.9950, 235.5684
618.1610, 128.8359
619.3260, 214.0996
620.4920, 161.3613
621.6570, 271.6152
622.8220, 304.8652
623.9870, 322.1152
625.1520, 309.3613
626.3160, 238.6016
627.4810, 400.8359
628.6450, 390.0625
629.8090, 298.0488
630.9730, 628.2656
632.1370, 509.5137
633.3000, 443.7207
634.4640, 517.9219
635.6270, 485.1152
636.7900, 473.6191
637.9530, 307.8027
639.1160, 262.0176
640.2780, 385.3730
641.4410, 248.5371
642.6030, 423.9473
643.7650, 313.1074
644.9270, 83.09570
646.0890, 208.2695
647.2500, 228.8145
648.4120, 115.0059
649.5730, 68.36719
650.7340, 93.44336
651.8950, 156.6680
653.0560, 218.2422
654.2160, 98.96484
655.3770, 56.74414
656.5370, 161.2969
657.6970, 27.06641
658.8570, 49.52734
660.0170, 135.7539
661.1760, 109.1738
662.3360, 18.27344
663.4950, 61.89258
664.6540, 20.95508
665.8130, 17.87109
666.9720, 39.71289
668.1310, 37.58789
669.2890, 58.58789
670.4470, 169.5957
671.6050, 28.31250
672.7630, 111.8555
673.9210, 67.06445
675.0790, 12.81445
676.2360, 74.20508
677.3930, 20.21289
678.5510, 70.20703
679.7080, 87.04102
680.8640, 57.83594
682.0210, 104.0898
683.1770, 119.0410
684.3340, 89.98438
685.4900, 7.917969
686.6460, 161.8359
687.8020, 91.25977
688.9570, 130.8887
690.1130, 79.81836
691.2680, 169.2266
692.4230, 59.62500
693.5780, 39.17578
694.7330, 82.90039
695.8880, 56.16602
697.0420, 54.90039
698.1960, 56.62891
699.3510, 241.2871
700.5040, 188.9277
701.6580, 53.44336
702.8120, 52.13867
703.9650, 7.701172
705.1190, 65.24609
706.2720, 125.7773
707.4250, 178.2930
708.5780, 98.79688
709.7300, 151.1973
710.8830, 302.9941
712.0350, 146.4551
713.1870, 11.98438
714.3390, 14.52148
715.4910, 130.1289
716.6430, 37.48633
717.7940, 73.96875
718.9460, 66.29297
720.0970, 93.59961
721.2480, 32.89062
722.3990, 189.1621
723.5500, 244.4238
724.7000, 187.6660
725.8500, 119.9004
727.0010, 198.1152
728.1510, 83.31836
729.3010, 3.507813
730.4500, 22.29883
731.6000, 200.8574
732.7490, 144.9980
733.8980, 230.3203
735.0470, 84.42578
736.1960, 155.5156
737.3450, 154.5840
738.4940, 78.63672
739.6420, 264.6738
740.7900, 108.6895
741.9380, 93.68750
743.0860, 87.66797
744.2340, 117.6270
745.3810, 166.5703
746.5290, 171.4941
747.6760, 16.40039
748.8230, 232.2832
749.9700, 203.1484
751.1170, 208.1699
752.2630, 6.015625
753.4100, 231.9082
754.5560, 238.6914
755.7020, 446.4551
756.8480, 292.3359
757.9940, 472.0625
759.1390, 319.7734
760.2850, 377.4648
761.4300, 348.1289
762.5750, 247.7832
763.7200, 162.4199
764.8650, 209.0430
766.0100, 181.6426
767.1540, 26.39453
768.2980, 269.9512
769.4420, 153.4023
770.5860, 355.9238
771.7300, 166.4238
772.8740, 187.9043
774.0170, 87.36719
775.1610, 278.8105
776.3040, 154.2324
777.4470, 119.6387
778.5900, 244.0215
779.7320, 104.3867
780.8750, 178.7285
782.0170, 28.05469
783.1590, 279.0078
784.3010, 83.28711
785.4430, 356.5430
786.5850, 75.78125
787.7260, 43.63867
788.8680, 158.9707
790.0090, 3.861328
791.1500, 62.95703
792.2910, 55.37109
793.4310, 95.38867
794.5720, 55.44531
795.7120, 112.2871
796.8520, 202.1953
797.9920, 119.1875
799.1320, 82.84180
800.2720, 122.7168
801.4120, 45.76367
802.5510, 359.3340
803.6900, 229.1895
804.8290, 239.7930
805.9680, 150.9785
807.1070, 4.933594
808.2450, 231.6543
809.3840, 145.9277
810.5220, 226.3438
811.6600, 119.9102
812.7980, 288.8965
813.9360, 288.9785
815.0730, 315.3145
816.2110, 427.7812
817.3480, 345.2910
818.4850, 330.1562
819.6220, 583.4551
820.7590, 483.5605
821.8960, 212.0156
823.0320, 206.2363
824.1680, 419.6777
825.3040, 119.6387
826.4400, 420.1211
827.5760, 200.7422
828.7120, 46.81250
829.8470, 383.2891
830.9830, 22.75977
832.1180, 209.6738
833.2530, 86.74219
834.3880, 163.6367
835.5220, 262.5176
836.6570, 223.6445
837.7910, 280.3906
838.9250, 201.7695
840.0590, 262.5371
841.1930, 262.0117
842.3270, 192.7910
843.4600, 262.8008
844.5940, 210.7910
845.7270, 116.6426
846.8600, 267.5957
847.9930, 266.5273
849.1250, 151.4434
850.2580, 155.7500
851.3900, 108.7520
852.5230, 397.5996
853.6550, 138.0781
854.7870, 377.6465
855.9180, 274.1582
857.0500, 356.7637
858.1810, 324.0762
859.3130, 171.8164
860.4440, 197.5410
861.5750, 220.2461
862.7050, 193.8594
863.8360, 282.5293
864.9660, 434.9453
866.0970, 336.5742
867.2270, 270.5410
868.3570, 287.1387
869.4870, 109.7168
870.6160, 225.2773
871.7460, 301.5742
872.8750, 223.1016
874.0040, 234.6074
875.1330, 297.8203
876.2620, 298.2930
877.3910, 228.5918
878.5190, 386.8066
879.6470, 413.9805
880.7760, 261.2578
881.9040, 180.6426
883.0310, 337.0137
884.1590, 196.6035
885.2870, 176.9395
886.4140, 108.2598
887.5410, 145.5625
888.6680, 125.5996
889.7950, 204.8672
890.9220, 226.1211
892.0480, 18.35547
893.1750, 281.5645
894.3010, 261.7559
895.4270, 204.9355
896.5530, 9.5702998E-02
897.6790, 230.2207
898.8040, 287.3320
899.9300, 196.4277
901.0550, 308.5059
902.1800, 99.57227
903.3050, 216.8555
904.4300, 22.88672
905.5540, 224.8613
906.6790, 260.8535
907.8030, 237.8301
908.9270, 294.7910
910.0510, 209.4219
911.1750, 331.3555
912.2990, 181.2324
913.4220, 364.9531
914.5450, 277.8418
915.6690, 160.4609
916.7920, 166.3203
917.9140, 29.33008
919.0370, 151.1543
920.1600, 166.6172
921.2820, 345.4160
922.4040, 187.8184
923.5260, 91.00000
924.6480, 274.7461
925.7700, 156.2305
926.8910, 162.5664
928.0130, 283.8203
929.1340, 359.2910
930.2550, 351.6406
931.3760, 359.1816
932.4970, 266.7617
933.6170, 243.2832
934.7380, 19.64648
935.8580, 99.84570
936.9780, 135.1211
938.0980, 356.7383
939.2180, 299.3730
940.3370, 1.990234
941.4570, 15.44727
942.5760, 109.2676
943.6950, 57.87695
944.8140, 70.61719
945.9330, 195.9258
947.0520, 44.26367
948.1700, 16.80664
949.2890, 83.33984
950.4070, 135.8613
951.5250, 260.3750
952.6430, 140.8789
953.7600, 104.6094
954.8780, 12.82617
955.9950, 85.24805
957.1120, 50.66016
958.2290, 121.0605
959.3460, 164.5488
960.4630, 158.4941
961.5800, 131.2871
962.6960, 175.8301
963.8120, 203.2344
964.9280, 141.4023
966.0440, 18.57031
967.1600, 288.5898
968.2760, 214.3770
969.3910, 277.5117
970.5060, 158.7031
971.6210, 223.8867
972.7360, 167.0605
973.8510, 243.2754
974.9660, 281.2832
976.0800, 324.5996
977.1950, 348.7676
978.3090, 155.9316
979.4230, 62.08594
980.5370, 309.0039
981.6500, 180.1465
982.7640, 345.2793
983.8770, 168.3262
984.9900, 315.3906
986.1030, 537.2637
987.2160, 471.3867
988.3290, 450.4023
989.4420, 489.5293
990.5540, 923.6523
991.6660, 634.0586
992.7780, 899.8828
993.8900, 280.9922
995.0020, 530.0938
996.1140, 339.1934
997.2250, 417.2891
998.3360, 250.3770
999.4470, 440.4629
1000.558, 429.5469
1001.669, 473.6387
1002.780, 568.4688
1003.890, 544.4082
1005.001, 657.6895
1006.111, 524.7637
1007.221, 480.8379
1008.331, 404.9062
1009.440, 515.9707
1010.550, 561.0332
1011.659, 639.0918
1012.768, 412.1484
1013.877, 570.1992
1014.986, 401.2500
1016.095, 405.2988
1017.204, 203.3418
1018.312, 147.3867
1019.420, 288.4297
1020.528, 348.2949
1021.636, 302.3145
1022.744, 225.2598
1023.852, 385.3125
1024.959, 204.3613
1026.066, 466.2754
1027.173, 358.3184
1028.280, 14.36328
1029.387, 212.4043
1030.494, 397.4570
1031.600, 622.4961
1032.707, 329.5332
1033.813, 386.5703
1034.919, 462.6074
1036.025, 638.4707
1037.130, 480.5098
1038.236, 729.6328
1039.341, 565.6699
1040.446, 713.7090
1041.552, 841.7461
1042.656, 948.7812
1043.761, 1075.818
1044.866, 1107.855
1045.970, 1152.893
1047.074, 1152.930
1048.179, 1235.971
1049.282, 1189.010
1050.386, 1086.051
1051.490, 1273.439
1052.593, 1154.264
1053.697, 837.5312
1054.800, 1108.582
1055.903, 1062.633
1057.006, 1078.543
1058.108, 1162.320
1059.211, 1158.867
1060.313, 924.9414
1061.415, 1038.926
1062.517, 794.0020
1063.619, 984.0801
1064.721, 937.9473
1065.823, 920.0332
1066.924, 864.1172
1068.025, 947.6211
1069.126, 985.0605
1070.227, 787.1836
1071.328, 851.6523
1072.429, 738.7832
1073.529, 775.4199
1074.629, 704.0801
1075.729, 741.2246
1076.829, 537.1895
1077.929, 305.6016
1079.029, 476.7500
1080.128, 384.8828
1081.228, 484.1602
1082.327, 330.2656
1083.426, 388.4238
1084.525, 576.5879
1085.623, 688.5527
1086.722, 593.9414
1087.820, 501.7363
1088.919, 214.8965
1090.017, 231.3027
1091.115, 265.1133
1092.212, 121.8320
1093.310, 169.9531
1094.407, 96.80078
1095.505, 317.0117
1096.602, 449.3359
1097.699, 295.5820
1098.795, 164.8496
1099.892, 257.2422
1100.989, 190.4922
1102.085, 422.4570
1103.181, 203.7500
1104.277, 436.0469
1105.373, 392.3496
1106.469, 364.6582
1107.564, 252.0391
1108.660, 348.3574
1109.755, 643.6816
1110.850, 498.0098
1111.945, 503.3457
1113.040, 264.7188
1114.134, 564.0996
1115.229, 752.4824
1116.323, 686.8750
1117.417, 708.2734
1118.511, 491.6758
1119.605, 826.2754
1120.698, 1067.693
1121.792, 951.1152
1122.885, 805.5430
1123.978, 1086.979
1125.071, 1419.420
1126.164, 1575.865
1127.257, 1524.318
1128.349, 1619.777
1129.442, 1973.242
1130.534, 2059.715
1131.626, 2393.191
1132.718, 2663.680
1133.810, 2861.170
1134.901, 3152.670
1135.993, 3502.176
1137.084, 3485.688
1138.175, 3581.207
1139.266, 3488.732
1140.357, 3349.264
1141.448, 3208.805
1142.538, 3027.354
1143.628, 2746.912
1144.719, 2668.475
1145.809, 1988.045
1146.898, 1767.623
1147.988, 1408.207
1149.078, 1298.801
1150.167, 1088.398
1151.256, 1107.006
1152.345, 665.6211
1153.434, 548.2559
1154.523, 675.0371
1155.612, 964.7109
1156.700, 524.4199
1157.788, 302.1426
1158.877, 623.8750
1159.964, 325.6152
1161.052, 444.3613
1162.140, 339.1230
1163.227, 309.8945
1164.315, 304.6738
1165.402, 291.4590
1166.489, 272.2539
1167.576, 197.0566
1168.663, 214.8672
1169.749, 137.6895
1170.836, 235.5215
1171.922, 175.3613
1173.008, 81.20898
1174.094, 216.0645
1175.180, 249.9297
1176.265, 283.8008
1177.351, 168.6836
1178.436, 181.5723
1179.521, 338.4688
1180.606, 110.3730
1181.691, 222.2891
1182.776, 22.21484
1183.860, 8.150391
1184.944, 226.0938
1186.029, 93.04492
1187.113, 11.00586
1188.197, 96.02344
1189.280, 91.54883
1190.364, 42.82031
1191.447, 22.26562
1192.531, 49.64844
1193.614, 137.5723
1194.697, 19.49805
1195.779, 191.4336
1196.862, 43.37500
1197.945, 51.32422
1199.027, 166.2832
1200.109, 157.2891
1201.191, 106.6992
1202.273, 134.2754
1203.355, 89.25781
1204.436, 147.7422
1205.518, 38.20703
1206.599, 109.1660
1207.680, 113.1348
1208.761, 119.1367
1209.842, 4.851563
1210.922, 16.83398
1212.003, 143.1914
1213.083, 86.22266
1214.163, 230.2637
1215.243, 19.68750
1216.323, 177.3652
1217.402, 5.541016
1218.482, 168.7617
1219.561, 324.8867
1220.641, 88.02344
1221.720, 68.16797
1222.798, 143.3730
1223.877, 198.6328
1224.956, 179.9414
1226.034, 24.74023
1227.112, 44.57617
1228.191, 53.90234
1229.269, 212.2461
1230.346, 145.4023
1231.424, 84.89258
1232.501, 292.1973
1233.579, 16.51172
1234.656, 94.83203
1235.733, 71.16211
1236.810, 0.5000000
1237.886, 151.8496
1238.963, 168.2051
1240.039, 53.57031
1241.116, 315.9453
1242.192, 330.7344
1243.268, 274.1230
1244.343, 280.5215
1245.419, 393.9316
1246.494, 115.3457
1247.570, 191.7715
1248.645, 0.7929690
1249.720, 119.6465
1250.795, 183.0938
1251.869, 304.5508
1252.944, 339.0176
1254.018, 180.4902
1255.093, 330.9727
1256.167, 104.4648
1257.240, 305.9668
1258.314, 341.4766
1259.388, 98.99414
1260.461, 319.5215
1261.535, 417.0566
1262.608, 204.6016
1263.681, 214.1562
1264.753, 179.7188
1265.826, 57.29102
1266.899, 84.87109
1267.971, 99.04102
1269.043, 36.05664
1270.115, 185.6641
1271.187, 252.7402
1272.259, 235.3652
1273.330, 267.0000
1274.402, 333.6406
1275.473, 101.2930
1276.544, 74.95117
1277.615, 87.62305
1278.686, 76.30078
1279.756, 138.9883
1280.827, 249.6855
1281.897, 5.392578
1282.967, 56.35742
1284.037, 242.3379
1285.107, 192.5938
1286.177, 468.3066
1287.247, 246.0273
1288.316, 323.7578
1289.385, 190.4980
1290.454, 80.24414
1291.523, 61.00195
1292.592, 135.7676
1293.661, 81.55273
1294.729, 353.3652
1295.797, 18.18945
1296.866, 247.0215
1297.934, 218.8633
1299.001, 448.7129
1300.069, 364.5742
1301.137, 319.4453
1302.204, 275.3242
1303.271, 135.2168
1304.338, 109.1172
1305.405, 176.6855
1306.472, 225.9414
1307.539, 333.8672
1308.605, 383.8008
1309.671, 348.7402
1310.737, 196.6934
1311.803, 163.6504
1312.869, 213.6172
1313.935, 366.5879
1315.000, 124.5703
1316.066, 299.5586
1317.131, 147.8359
1318.196, 129.3633
1319.261, 156.3770
1320.326, 143.5879
1321.390, 400.5195
1322.455, 206.5586
1323.519, 359.8223
1324.583, 329.8809
1325.647, 281.9492
1326.711, 199.0273
1327.775, 168.1152
1328.838, 161.6348
1329.902, 69.96875
1330.965, 212.0742
1332.028, 246.1895
1333.091, 341.4609
1334.153, 282.5957
1335.216, 73.73828
1336.279, 348.8926
1337.341, 267.0566
1338.403, 255.0293
1339.465, 443.5352
1340.527, 452.7305
1341.588, 289.8965
1342.650, 242.0723
1343.711, 128.4590
1344.772, 233.6543
1345.834, 47.36719
1346.894, 34.38086
1347.955, 302.2168
1349.016, 126.4434
1350.076, 69.68164
1351.136, 285.9297
1352.197, 163.1855
1353.257, 153.4531
1354.316, 211.6465
1355.376, 225.9316
1356.436, 271.6074
1357.495, 268.5293
1358.554, 318.0781
1359.613, 221.4043
1360.672, 136.7422
1361.731, 269.0273
1362.789, 337.2773
1363.848, 365.5352
1364.906, 273.7363
1365.964, 66.01758
1367.022, 267.3066
1368.080, 153.5039
1369.138, 137.0898
1370.195, 243.1953
1371.253, 23.49023
1372.310, 194.7930
1373.367, 325.1074
1374.424, 145.4297
1375.480, 143.7617
1376.537, 217.9141
1377.593, 97.26562
1378.650, 322.6270
1379.706, 221.9980
1380.762, 309.3789
1381.818, 116.7695
1382.873, 105.1699
1383.929, 165.5781
1384.984, 56.00000
1386.039, 165.4297
1387.094, 446.8711
1388.149, 212.3223
1389.204, 308.7832
1390.259, 264.2539
1391.313, 186.7363
1392.367, 175.2305
1393.422, 43.69531
1394.476, 78.17188
1395.529, 114.6562
1396.583, 191.1523
1397.637, 13.33984
1398.690, 19.17578
1399.743, 62.70117
1400.796, 433.2383
1401.849, 287.7910
1402.902, 42.35742
1403.954, 244.9375
1405.007, 57.53320
1406.059, 199.1445
1407.111, 2.765625
1408.163, 140.4062
1409.215, 150.9492
1410.267, 325.5723
1411.318, 120.7773
1412.370, 124.8633
1413.421, 119.5195
1414.472, 130.1953
1415.523, 319.8906
1416.574, 225.6055
1417.624, 138.3398
1418.675, 127.1016
1419.725, 131.2617
1420.775, 273.2617
1421.825, 249.3359
1422.875, 321.9648
1423.925, 269.8555
1424.974, 150.7773
1426.024, 74.73438
1427.073, 148.7266
1428.122, 114.6680
1429.171, 309.8281
1430.220, 245.5469
1431.268, 199.2539
1432.317, 361.9492
1433.365, 400.6016
1434.413, 225.1836
1435.461, 147.7383
1436.509, 207.7773
1437.557, 279.2930
1438.605, 217.2695
1439.652, 109.9883
1440.699, 138.6797
1441.746, 296.4453
1442.793, 218.2500
1443.840, 342.8281
1444.887, 353.9062
1445.933, 453.7617
1446.980, 300.6250
1448.026, 248.5508
1449.072, 120.5352
1450.118, 139.5625
1451.163, 314.6055
1452.209, 274.6758
1453.254, 410.7617
1454.300, 206.8672
1455.345, 302.4570
1456.390, 239.5430
1457.435, 176.6484
1458.479, 340.7695
1459.524, 276.9062
1460.568, 260.0742
1461.612, 360.2969
1462.656, 289.0234
1463.700, 87.87109
1464.744, 193.1914
1465.788, 189.5312
1466.831, 10.32031
1467.874, 119.5938
1468.918, 121.8906
1469.961, 406.2031
1471.003, 214.5430
1472.046, 55.10156
1473.089, 236.2734
1474.131, 244.6719
1475.173, 134.0898
1476.215, 333.5312
1477.257, 454.9883
1478.299, 224.4688
1479.341, 192.9688
1480.382, 398.4922
1481.424, 225.3359
1482.465, 136.8945
1483.506, 616.4727
1484.547, 437.0820
1485.587, 57.70703
1486.628, 282.4805
1487.668, 385.2109
1488.709, 164.6094
1489.749, 324.0234
1490.789, 129.4531
1491.828, 277.8789
1492.868, 129.2383
1493.908, 238.6055
1494.947, 142.9766
1495.986, 220.3555
1497.025, 193.7344
1498.064, 233.8672
1499.103, 256.9453
1500.141, 279.9844
1501.180, 294.4375
1502.218, 178.9180
1503.256, 183.4102
1504.294, 342.9258
1505.332, 462.4609
1506.370, 367.0078
1507.407, 163.5742
1508.445, 361.1523
1509.482, 406.7656
1510.519, 310.4180
1511.556, 368.0859
1512.593, 294.7695
1513.629, 266.4570
1514.666, 304.1562
1515.702, 124.0742
1516.738, 112.0117
1517.774, 196.2852
1518.810, 470.0508
1519.846, 482.8281
1520.882, 454.6094
1521.917, 437.3867
1522.952, 385.1914
1523.987, 363.9922
1525.022, 569.9883
1526.057, 378.5117
1527.092, 346.0859
1528.126, 494.7148
1529.161, 396.4023
1530.195, 417.1562
1531.229, 280.9766
1532.263, 308.8789
1533.297, 350.8633
1534.330, 147.9297
1535.364, 380.0859
1536.397, 200.3477
1537.430, 590.7070
1538.463, 264.1875
1539.496, 286.7852
1540.529, 234.7227
1541.561, 481.0586
1542.594, 151.6172
1543.626, 15.56641
1544.658, 42.48438
1545.690, 275.8398
1546.722, 310.4453
1547.753, 429.3633
1548.785, 510.6406
1549.816, 511.3320
1550.847, 377.4922
1551.878, 512.1953
1552.909, 441.4609
1553.940, 609.0430
1554.971, 372.3359
1556.001, 274.6680
1557.031, 191.0859
1558.062, 320.8164
1559.092, 173.5586
1560.121, 0.5937500
1561.151, 243.0742
1562.181, 0.0000000E+00
##END=



