##NAMES=Epidote
##RRUFFID=R050131
##IDEAL CHEMISTRY=Ca_2_Fe^3+^Al_2_(Si_2_O_7_)(SiO_4_)O(OH)
##LOCALITY=Calumet mine, Chaffee County, Colorado, USA
##OWNER=RRUFF
##SOURCE=Dave Bunk Minerals
##DESCRIPTION=Green prismatic crystal
##STATUS=The identification of this mineral has been confirmed by X-ray diffraction and chemical analysis
##URL=rruff.info/R050131
##MEASURED CHEMISTRY=Ca_2.00_Al_2.00_(Fe^3+^_0.75_Al_0.25_)(SiO_4_)(Si_2_O_7_)O(OH)
##PIN_ID=L00405
##ORIENTATION=Laser parallel to b* (0 1 0). Fiducial mark perpendicular to laser is parallel to c [0 0 1]
121.310, 0.000
122.701, 9.939
124.092, 223.667
125.482, 392.828
126.873, 787.954
128.263, 1629.230
129.653, 2558.207
131.042, 4308.101
132.432, 5633.328
133.821, 6886.195
135.210, 7666.087
136.599, 7188.564
137.987, 6509.814
139.376, 5023.223
140.764, 3905.943
142.152, 2753.509
143.539, 1870.313
144.927, 1297.753
146.314, 846.914
147.701, 745.650
149.088, 417.089
150.474, 453.133
151.861, 419.865
153.247, 532.912
154.633, 623.896
156.018, 540.318
157.404, 695.104
158.789, 662.482
160.174, 924.694
161.559, 1207.240
162.943, 1591.055
164.327, 1917.112
165.711, 2201.402
167.095, 2513.920
168.479, 2318.653
169.862, 2160.587
171.246, 1702.707
172.628, 1272.987
174.011, 845.411
175.394, 541.970
176.776, 303.770
178.158, 0.056
179.540, 101.038
180.922, 144.446
182.303, 244.821
183.684, 221.032
185.065, 168.498
186.446, 64.428
187.826, 29.836
189.207, 59.314
190.587, 158.054
191.967, 250.412
193.346, 392.414
194.726, 523.083
196.105, 856.441
197.484, 1076.510
198.862, 1426.307
200.241, 1846.853
201.619, 2234.165
202.997, 2650.262
204.375, 3054.236
205.753, 3426.324
207.130, 3377.545
208.507, 3587.894
209.884, 3565.357
211.261, 3398.920
212.638, 3541.564
214.014, 3539.262
215.390, 3936.000
216.766, 4184.762
218.141, 4759.540
219.517, 5403.307
220.892, 6096.996
222.267, 7120.591
223.642, 7964.107
225.016, 9427.557
226.391, 10350.946
227.765, 11274.280
229.139, 12078.316
230.512, 11989.308
231.886, 11687.132
233.259, 10316.981
234.632, 9059.867
236.005, 7434.591
237.377, 6288.250
238.749, 5656.955
240.122, 5192.457
241.493, 5627.828
242.865, 5900.377
244.237, 6751.684
245.608, 7346.272
246.979, 7758.011
248.350, 8007.130
249.720, 7284.838
251.090, 6642.058
252.461, 5609.341
253.830, 4826.689
255.200, 4059.102
256.570, 3321.578
257.939, 3118.113
259.308, 2564.705
260.677, 2532.339
262.045, 2532.003
263.414, 2493.700
264.782, 2774.430
266.150, 3007.193
267.517, 3748.991
268.885, 4623.827
270.252, 6028.705
271.619, 7846.627
272.986, 10334.599
274.353, 13082.622
275.719, 14710.699
277.085, 15178.839
278.451, 13307.037
279.817, 10455.300
281.182, 7763.631
282.548, 5352.028
283.913, 3988.496
285.278, 2749.035
286.642, 2379.203
288.007, 1801.971
289.371, 1698.500
290.735, 1603.149
292.099, 1481.799
293.462, 1717.388
294.826, 1776.849
296.189, 2016.120
297.552, 2170.191
298.914, 2308.072
300.277, 2354.772
301.639, 2327.189
303.001, 2301.199
304.363, 2006.833
305.724, 1864.180
307.086, 1659.295
308.447, 1268.213
309.808, 1137.960
311.168, 836.560
312.529, 866.031
313.889, 668.335
315.249, 722.979
316.609, 778.153
317.969, 763.169
319.328, 963.800
320.687, 1160.911
322.046, 1543.693
323.405, 1967.420
324.764, 2468.588
326.122, 2973.790
327.480, 2884.027
328.838, 3035.296
330.196, 2284.597
331.553, 1615.928
332.910, 1054.290
334.267, 512.680
335.624, 275.098
336.981, 78.459
338.337, 203.030
339.693, 318.074
341.049, 483.483
342.405, 466.523
343.760, 505.057
345.116, 448.465
346.471, 399.307
347.826, 259.782
349.180, 118.042
350.535, 52.798
351.889, 69.623
353.243, 111.705
354.597, 108.977
355.950, 26.417
357.304, 89.101
358.657, 4.078
360.010, 86.705
361.362, 73.348
362.715, 134.003
364.067, 131.684
365.419, 69.386
366.771, 96.095
368.123, 1.814
369.474, 58.526
370.825, 1.760
372.176, 25.055
373.527, 8.642
374.877, 71.668
376.228, 119.989
377.578, 268.046
378.928, 437.667
380.277, 685.024
381.627, 925.394
382.976, 1248.777
384.325, 1801.173
385.674, 2123.583
387.023, 2886.005
388.371, 3570.444
389.719, 4204.896
391.067, 4894.366
392.415, 5131.850
393.762, 5193.179
395.110, 4673.157
396.457, 3958.734
397.804, 3359.986
399.150, 2680.142
400.497, 2528.339
401.843, 2122.609
403.189, 2081.927
404.535, 1979.290
405.881, 1865.665
407.226, 1985.074
408.571, 1928.527
409.916, 2099.066
411.261, 2313.691
412.605, 2755.429
413.950, 3369.281
415.294, 3924.249
416.638, 5302.317
417.981, 6493.494
419.325, 8664.779
420.668, 11326.188
422.011, 14607.722
423.354, 19009.373
424.697, 22321.125
426.039, 25793.006
427.381, 26095.004
428.723, 24867.109
430.065, 23159.334
431.406, 19751.658
432.748, 17684.098
434.089, 15486.644
435.430, 13859.283
436.770, 12762.039
438.111, 11194.885
439.451, 10917.816
440.791, 9880.842
442.131, 10303.935
443.471, 9647.117
444.810, 9810.354
446.149, 11303.644
447.488, 12606.993
448.827, 14630.346
450.166, 16123.696
451.504, 16697.049
452.842, 17100.391
454.180, 15823.734
455.518, 15837.073
456.855, 14930.405
458.193, 14653.731
459.530, 14097.057
460.867, 13210.383
462.203, 12903.703
463.540, 11847.027
464.876, 11080.351
466.212, 10293.678
467.548, 9127.006
468.883, 8540.342
470.219, 7473.685
471.554, 6757.035
472.889, 5900.394
474.224, 5333.761
475.558, 4874.139
476.892, 4288.529
478.227, 4171.938
479.561, 3741.369
480.894, 3732.825
482.228, 3726.308
483.561, 3633.814
484.894, 4119.343
486.227, 3965.893
487.559, 4347.464
488.892, 4658.054
490.224, 4535.665
491.556, 4878.296
492.888, 4776.944
494.220, 4896.616
495.551, 5130.303
496.882, 5183.516
498.213, 5708.536
499.544, 5665.861
500.874, 6306.088
502.205, 6726.070
503.535, 7147.365
504.865, 7866.711
506.194, 8170.170
507.524, 9207.498
508.853, 9514.318
510.182, 10290.662
511.511, 10641.480
512.840, 10355.323
514.168, 10469.425
515.496, 9843.579
516.824, 9747.448
518.152, 9967.052
519.480, 10400.580
520.807, 12020.636
522.134, 12811.530
523.461, 14598.926
524.788, 15426.618
526.114, 15028.047
527.441, 14308.216
528.767, 11702.178
530.093, 9904.389
531.418, 7778.525
532.744, 6222.957
534.069, 5176.982
535.394, 4333.701
536.719, 4017.668
538.044, 3549.767
539.368, 3366.889
540.693, 3376.038
542.017, 3086.211
543.340, 3306.411
544.664, 3126.634
545.987, 3307.884
547.311, 3607.156
548.634, 3695.504
549.956, 4146.824
551.279, 4199.756
552.601, 4800.790
553.923, 5346.699
555.245, 5782.783
556.567, 6589.100
557.889, 7371.100
559.210, 8873.445
560.531, 10626.452
561.852, 13412.508
563.173, 17787.975
564.493, 22283.744
565.813, 29273.457
567.133, 33357.508
568.453, 33978.582
569.773, 31155.596
571.092, 24307.371
572.412, 18848.289
573.731, 14180.104
575.049, 11107.921
576.368, 9317.901
577.686, 7748.164
579.005, 7392.044
580.323, 6935.277
581.640, 6727.870
582.958, 6877.443
584.275, 7001.217
585.593, 7664.369
586.909, 7865.208
588.226, 8727.316
589.543, 9495.678
590.859, 9927.770
592.175, 11148.633
593.491, 11865.266
594.807, 13667.522
596.122, 15413.863
597.438, 17130.064
598.753, 19847.008
600.068, 20838.613
601.382, 22213.922
602.697, 22273.076
604.011, 20821.045
605.325, 20210.902
606.639, 17576.986
607.952, 16202.958
609.266, 14278.711
610.579, 12464.452
611.892, 11630.182
613.205, 10215.897
614.518, 9641.601
615.830, 8687.290
617.142, 7702.969
618.454, 7238.634
619.766, 6004.286
621.078, 5679.925
622.389, 4892.548
623.700, 4181.161
625.011, 3974.790
626.322, 3814.374
627.632, 3338.792
628.943, 2933.094
630.253, 2660.970
631.563, 2453.903
632.872, 2061.784
634.182, 2011.666
635.491, 1826.438
636.800, 1667.910
638.109, 1657.815
639.418, 1433.003
640.726, 1392.805
642.035, 1160.201
643.343, 1045.580
644.651, 1054.942
645.958, 946.286
647.266, 942.611
648.573, 878.919
649.880, 829.208
651.187, 883.478
652.494, 750.729
653.800, 1044.962
655.106, 904.177
656.412, 1021.414
657.718, 1185.706
659.024, 1228.081
660.329, 1400.583
661.634, 1465.205
662.939, 1598.956
664.244, 1648.820
665.549, 1595.778
666.853, 1782.791
668.157, 1620.821
669.461, 1639.847
670.765, 1650.850
672.069, 1446.831
673.372, 1686.790
674.675, 1558.725
675.978, 1608.662
677.281, 1676.581
678.583, 1718.498
679.886, 1899.410
681.188, 1885.331
682.490, 1920.261
683.792, 2012.182
685.093, 1998.101
686.394, 2214.997
687.696, 2057.881
688.997, 2051.742
690.297, 2055.577
691.598, 1730.389
692.898, 1611.173
694.198, 1280.929
695.498, 1021.654
696.798, 933.349
698.097, 662.013
699.397, 709.647
700.696, 489.250
701.995, 431.821
703.293, 398.361
704.592, 182.869
705.890, 239.345
707.188, 58.788
708.486, 42.194
709.784, 79.561
711.081, 45.890
712.378, 26.179
713.675, 65.581
714.972, 69.438
716.269, 78.397
717.565, 125.463
718.862, 114.660
720.158, 117.984
721.453, 179.438
722.749, 88.053
724.045, 198.783
725.340, 132.687
726.635, 207.729
727.930, 192.950
729.224, 206.342
730.519, 141.914
731.813, 175.630
733.107, 179.510
734.401, 236.555
735.694, 225.795
736.988, 215.226
738.281, 166.841
739.574, 233.615
740.867, 223.583
742.160, 186.740
743.452, 207.066
744.744, 147.573
746.036, 207.227
747.328, 188.062
748.620, 121.065
749.911, 211.202
751.202, 117.520
752.493, 115.969
753.784, 128.547
755.075, 44.261
756.365, 104.067
757.655, 6.994
758.945, 11.008
760.235, 20.050
761.525, 126.816
762.814, 148.646
764.103, 252.442
765.392, 261.206
766.681, 351.939
767.969, 442.640
769.258, 453.309
770.546, 486.947
771.834, 460.555
773.122, 363.131
774.409, 411.676
775.697, 291.191
776.984, 289.676
778.271, 200.130
779.558, 158.554
780.844, 168.948
782.131, 112.033
783.417, 65.643
784.703, 75.942
785.989, 56.208
787.274, 62.441
788.560, 55.642
789.845, 75.810
791.130, 140.947
792.415, 31.055
793.699, 148.130
794.983, 100.176
796.268, 137.193
797.552, 211.183
798.835, 195.145
800.119, 324.081
801.402, 332.989
802.686, 355.871
803.969, 457.726
805.251, 413.555
806.534, 617.359
807.816, 592.136
809.098, 733.888
810.380, 845.615
811.662, 832.316
812.944, 1072.992
814.225, 1058.643
815.506, 1143.267
816.787, 1285.865
818.068, 1366.436
819.349, 1564.980
820.629, 1683.497
821.909, 1869.986
823.189, 2375.448
824.469, 2462.883
825.749, 3115.289
827.028, 3643.669
828.307, 3779.023
829.586, 4230.350
830.865, 4258.652
832.144, 4413.927
833.422, 4439.175
834.700, 4139.399
835.978, 4019.597
837.256, 3552.770
838.534, 3374.917
839.811, 3280.038
841.088, 2828.135
842.365, 2894.207
843.642, 2605.254
844.919, 2539.277
846.195, 2556.277
847.472, 2374.253
848.748, 2551.205
850.023, 2523.134
851.299, 2645.041
852.575, 2871.924
853.850, 2793.787
855.125, 3085.628
856.400, 3262.451
857.674, 3343.258
858.949, 3764.004
860.223, 3778.786
861.497, 3995.977
862.771, 4249.077
864.045, 4356.306
865.318, 4754.382
866.591, 4748.246
867.864, 5082.439
869.137, 5328.310
870.410, 5108.537
871.682, 5463.733
872.955, 5386.544
874.227, 5265.097
875.499, 5396.743
876.770, 4841.075
878.042, 4807.412
879.313, 4532.866
880.584, 4121.573
881.855, 4228.185
883.126, 3854.934
884.396, 3838.695
885.667, 3878.334
886.937, 3810.733
888.207, 4119.545
889.476, 3950.034
890.746, 4277.181
892.015, 4573.371
893.284, 4640.389
894.553, 5316.050
895.822, 5636.048
897.090, 6324.790
898.359, 7170.298
899.627, 7692.108
900.895, 8885.157
902.163, 9602.479
903.430, 10884.198
904.698, 12541.863
905.965, 13329.688
907.232, 15406.795
908.499, 17139.252
909.765, 18548.033
911.032, 21202.957
912.298, 22439.098
913.564, 24653.352
914.830, 26921.400
916.095, 27159.576
917.361, 29187.994
918.626, 28816.430
919.891, 28024.891
921.156, 27393.377
922.420, 23951.889
923.685, 23190.424
924.949, 20148.992
926.213, 17767.574
927.477, 16696.201
928.740, 14214.840
930.004, 12913.521
931.267, 11392.229
932.530, 9820.927
933.793, 9369.685
935.056, 7898.259
936.318, 7336.681
937.581, 6795.180
938.843, 6043.635
940.104, 6032.153
941.366, 5416.682
942.628, 4916.332
943.889, 4824.298
945.150, 4368.842
946.411, 4388.873
947.672, 4117.787
948.932, 3978.875
950.193, 4060.997
951.453, 3819.150
952.713, 3926.332
953.973, 3929.544
955.232, 3723.785
956.491, 4051.057
957.751, 3896.360
959.010, 4074.692
960.268, 4171.056
961.527, 3997.454
962.785, 4119.881
964.044, 3981.341
965.302, 3659.833
966.559, 3781.359
967.817, 3446.918
969.075, 3487.507
970.332, 3468.128
971.589, 3438.782
972.846, 3712.469
974.102, 3754.188
975.359, 4309.939
976.615, 4994.722
977.871, 5497.539
979.127, 6661.389
980.383, 7371.271
981.638, 8151.188
982.893, 8621.139
984.149, 8051.121
985.404, 7691.141
986.658, 6781.193
987.913, 5641.284
989.167, 5116.408
990.421, 4042.573
991.675, 3495.775
992.929, 3080.010
994.183, 2510.285
995.436, 2405.597
996.689, 1938.944
997.942, 1661.329
999.195, 1580.750
1000.448, 1235.205
1001.700, 1262.697
1002.952, 1065.226
1004.204, 758.790
1005.456, 748.568
1006.708, 548.660
1007.959, 528.235
1009.210, 468.996
1010.461, 325.243
1011.712, 404.210
1012.963, 313.420
1014.213, 277.480
1015.464, 376.669
1016.714, 209.253
1017.964, 336.521
1019.214, 394.168
1020.463, 358.563
1021.712, 496.521
1022.962, 432.915
1024.210, 570.404
1025.459, 764.133
1026.708, 656.853
1027.956, 976.623
1029.204, 1001.895
1030.452, 1132.624
1031.700, 1427.402
1032.948, 1604.570
1034.195, 1877.640
1035.442, 2245.366
1036.689, 2410.065
1037.936, 3073.335
1039.183, 3285.388
1040.429, 3787.892
1041.676, 4224.768
1042.922, 4226.707
1044.168, 4682.729
1045.413, 4559.933
1046.659, 4539.937
1047.904, 4736.499
1049.149, 4063.707
1050.394, 4208.542
1051.639, 4062.369
1052.884, 3596.375
1054.128, 3805.629
1055.372, 3630.710
1056.616, 3785.072
1057.860, 3973.994
1059.104, 3993.726
1060.347, 4397.892
1061.590, 4405.805
1062.833, 4123.464
1064.076, 4451.005
1065.319, 3869.912
1066.561, 3678.592
1067.803, 3781.969
1069.046, 3447.209
1070.287, 3941.635
1071.529, 3922.084
1072.771, 4245.621
1074.012, 4944.117
1075.253, 5167.247
1076.494, 6336.808
1077.735, 7171.374
1078.975, 8039.044
1080.216, 9783.680
1081.456, 10708.361
1082.696, 12333.028
1083.936, 14677.702
1085.175, 15722.585
1086.415, 18587.426
1087.654, 20202.168
1088.893, 20607.012
1090.132, 20608.844
1091.371, 19196.674
1092.609, 17512.207
1093.847, 14397.049
1095.085, 10612.332
1096.323, 8537.215
1097.561, 6292.120
1098.799, 4570.392
1100.036, 3742.668
1101.273, 2708.681
1102.510, 2196.783
1103.747, 1862.876
1104.983, 1389.255
1106.220, 1371.360
1107.456, 1032.401
1108.692, 850.551
1109.928, 801.536
1111.163, 663.633
1112.399, 645.303
1113.634, 577.472
1114.869, 447.462
1116.104, 499.710
1117.339, 375.872
1118.573, 441.060
1119.808, 441.622
1121.042, 401.879
1122.276, 717.217
1123.509, 754.444
1124.743, 536.766
1125.976, 453.185
1127.210, 340.446
1128.443, 286.901
1129.675, 250.210
1130.908, 216.503
1132.141, 271.951
1133.373, 267.743
1134.605, 187.067
1135.837, 227.311
1137.068, 105.742
1138.300, 157.639
1139.531, 189.030
1140.762, 119.453
1141.993, 123.276
1143.224, 117.829
1144.455, 39.617
1145.685, 118.477
1146.915, 47.973
1148.145, 49.535
1149.375, 81.055
1150.605, 14.584
1151.834, 10.125
1153.063, 10.220
1154.292, 22.430
1155.521, 36.026
1156.750, 63.578
1157.978, 49.559
1159.207, 83.912
1160.435, 44.276
1161.663, 7.094
1162.891, 81.483
1164.118, 67.117
1165.345, 8.885
1166.573, 63.168
1167.800, 34.292
1169.026, 43.667
1170.253, 85.831
1171.480, 116.254
1172.706, 100.963
1173.932, 81.463
1175.158, 79.024
1176.383, 115.390
1177.609, 71.664
1178.834, 100.768
1180.059, 87.728
1181.284, 13.897
1182.509, 106.149
1183.734, 118.468
1184.958, 60.462
1186.182, 53.626
1187.406, 24.805
1188.630, 27.695
1189.854, 57.870
1191.077, 23.849
1192.301, 23.562
1193.524, 0.150
1194.747, 6.540
1195.969, 61.903
1197.192, 13.639
1198.414, 81.594
1199.636, 18.062
1200.858, 50.897
1202.080, 13.708
1203.302, 15.649
1204.523, 10.336
1205.744, 16.903
1206.966, 50.396
1208.186, 18.401
1209.407, 27.241
1210.628, 11.044
1211.848, 25.949
1213.068, 4.313
1214.288, 64.379
1215.508, 25.048
1216.727, 76.683
1217.947, 88.294
1219.166, 24.881
1220.385, 99.432
1221.604, 38.985
1222.822, 30.479
1224.041, 94.938
1225.259, 4.608
1226.477, 84.771
1227.695, 81.238
1228.913, 93.745
1230.130, 124.043
1231.348, 69.314
1232.565, 76.557
1233.782, 153.771
1234.999, 89.958
1236.215, 94.115
1237.432, 178.251
1238.648, 60.362
1239.864, 171.445
1241.080, 74.499
1242.296, 138.526
1243.511, 166.529
1244.726, 49.513
1245.942, 85.530
1247.156, 122.446
1248.371, 107.460
1249.586, 116.317
1250.800, 91.257
1252.014, 126.365
1253.228, 181.139
1254.442, 127.943
1255.656, 75.871
1256.869, 152.556
1258.083, 92.423
1259.296, 147.065
1260.509, 83.645
1261.722, 139.419
1262.934, 200.979
1264.147, 164.864
1265.359, 112.386
1266.571, 158.869
1267.783, 144.331
1268.994, 207.653
1270.206, 157.937
1271.417, 139.410
1272.628, 195.619
1273.839, 139.772
1275.050, 179.241
1276.260, 216.414
1277.471, 154.449
1278.681, 123.363
1279.891, 219.308
1281.101, 104.485
1282.310, 175.486
1283.520, 83.514
1284.729, 192.812
1285.938, 189.437
1287.147, 90.169
1288.356, 164.895
1289.564, 140.493
1290.773, 137.076
1291.981, 191.039
1293.189, 177.766
1294.397, 190.545
1295.604, 190.639
1296.812, 190.054
1298.019, 167.576
1299.226, 154.801
1300.433, 58.626
1301.640, 194.725
1302.846, 136.957
1304.053, 72.842
1305.259, 160.800
1306.465, 121.521
1307.671, 162.538
1308.876, 109.291
1310.082, 112.654
1311.287, 143.540
1312.492, 128.884
1313.697, 145.387
1314.902, 127.698
1316.106, 140.416
1317.310, 166.083
1318.515, 128.672
1319.719, 75.216
1320.922, 106.930
1322.126, 92.862
1323.329, 79.717
1324.533, 130.446
1325.736, 162.832
1326.939, 187.387
1328.141, 175.639
1329.344, 46.375
1330.546, 104.897
1331.748, 98.792
1332.950, 33.225
1334.152, 89.426
1335.354, 69.084
1336.555, 52.166
1337.757, 134.244
1338.958, 90.482
1340.159, 9.231
1341.359, 83.374
1342.560, 63.957
1343.760, 70.611
1344.960, 121.130
1346.160, 97.465
1347.360, 117.018
1348.560, 122.650
1349.759, 75.124
1350.959, 139.128
1352.158, 97.735
1353.357, 129.605
1354.555, 217.749
1355.754, 98.013
1356.952, 203.901
1358.151, 166.991
1359.349, 160.373
1360.546, 165.882
1361.744, 212.199
1362.941, 178.483
1364.139, 210.673
1365.336, 120.894
1366.533, 179.470
1367.730, 201.608
1368.926, 120.733
1370.123, 155.745
1371.319, 95.787
1372.515, 79.774
1373.711, 156.776
1374.906, 161.767
1376.102, 186.770
1377.297, 198.602
1378.492, 189.019
1379.687, 220.148
1380.882, 186.477
1382.077, 142.112
1383.271, 182.971
1384.465, 154.796
1385.659, 167.534
1386.853, 163.376
1388.047, 121.915
1389.240, 106.765
1390.434, 147.654
1391.627, 92.793
1392.820, 146.477
1394.013, 96.125
1395.205, 60.240
1396.398, 148.623
1397.590, 107.791
1398.782, 70.966
1399.974, 142.252
1401.166, 69.765
1402.357, 113.848
1403.549, 168.969
1404.740, 64.854
1405.931, 102.790
1407.122, 42.545
1408.313, 93.972
1409.503, 94.358
1410.693, 90.499
1411.883, 125.806
1413.073, 135.266
1414.263, 51.305
1415.453, 99.151
1416.642, 118.743
1417.831, 32.531
1419.020, 72.336
1420.209, 97.746
1421.398, 0.397
1422.587, 99.591
1423.775, 34.112
1424.963, 56.355
1426.151, 39.692
1427.339, 11.279
1428.526, 2.300
1429.714, 71.786
1430.901, 62.619
1432.088, 115.810
1433.275, 69.654
1434.462, 29.291
1435.648, 82.003
1436.835, 44.042
1438.021, 45.230
1439.207, 65.426
1440.393, 31.857
1441.579, 51.279
1442.764, 111.673
1443.949, 3.997
1445.135, 54.369
1446.320, 25.696
1447.504, 74.495
1448.689, 118.823
1449.873, 35.123
1451.058, 104.397
1452.242, 75.612
1453.426, 23.772
1454.609, 97.876
1455.793, 92.749
1456.976, 46.459
1458.159, 86.148
1459.342, 111.316
1460.525, 34.485
1461.708, 87.702
1462.890, 20.344
1464.073, 61.332
1465.255, 104.749
1466.437, 52.919
1467.619, 59.575
1468.800, 105.635
1469.982, 55.430
1471.163, 109.936
1472.344, 130.128
1473.525, 32.760
1474.706, 97.411
1475.886, 29.385
1477.066, 7.004
1478.247, 136.827
1479.427, 16.061
1480.607, 72.140
1481.786, 89.744
1482.966, 59.418
1484.145, 95.666
1485.324, 81.865
1486.503, 92.407
1487.682, 58.585
1488.860, 34.472
1490.039, 39.938
1491.217, 121.141
1492.395, 81.933
1493.573, 35.526
1494.751, 75.954
1495.928, 24.415
1497.106, 30.838
1498.283, 74.801
1499.460, 57.299
1500.637, 74.181
1501.814, 53.649
1502.990, 35.228
1504.166, 44.756
1505.342, 52.275
1506.518, 74.772
1507.694, 60.315
1508.870, 56.683
1510.045, 92.204
1511.221, 47.256
1512.396, 43.448
1513.571, 25.782
1514.745, 52.341
1515.920, 28.292
1517.094, 1.345
1518.269, 39.549
1519.443, 0.362
1520.616, 0.000
##END=



