##NAMES=Epidote
##RRUFFID=R050131
##IDEAL CHEMISTRY=Ca_2_Fe^3+^Al_2_(Si_2_O_7_)(SiO_4_)O(OH)
##LOCALITY=Calumet mine, Chaffee County, Colorado, USA
##OWNER=RRUFF
##SOURCE=Dave Bunk Minerals
##DESCRIPTION=Green prismatic crystal
##STATUS=The identification of this mineral has been confirmed by X-ray diffraction and chemical analysis
##URL=rruff.info/R050131
##MEASURED CHEMISTRY=Ca_2.00_Al_2.00_(Fe^3+^_0.75_Al_0.25_)(SiO_4_)(Si_2_O_7_)O(OH)
##PIN_ID=L00140
##ORIENTATION=Laser parallel to -a* (-1 0 0). Fiducial mark perpendicular to laser is parallel to b [0 1 0]
83.128, 0.000
84.529, 0.638
85.929, 61.598
87.329, 310.120
88.728, 542.337
90.128, 990.924
91.527, 1387.537
92.926, 1351.682
94.324, 1328.595
95.723, 1158.390
97.121, 1014.157
98.519, 830.166
99.917, 569.669
101.314, 467.138
102.712, 273.326
104.109, 200.749
105.505, 228.297
106.902, 115.646
108.298, 45.527
109.694, 88.104
111.090, 101.714
112.486, 143.944
113.881, 92.552
115.277, 23.492
116.672, 5.786
118.066, 29.639
119.461, 37.788
120.855, 31.323
122.249, 62.740
123.643, 233.515
125.036, 355.638
126.430, 930.082
127.823, 1345.816
129.216, 2028.813
130.608, 2717.043
132.001, 3388.480
133.393, 3752.094
134.785, 3545.864
136.176, 3060.773
137.568, 2625.810
138.959, 2213.965
140.350, 1877.232
141.741, 1719.602
143.131, 1979.070
144.521, 2036.628
145.911, 2460.275
147.301, 2630.004
148.691, 2601.810
150.080, 2200.692
151.469, 1811.645
152.858, 1669.665
154.247, 1788.751
155.635, 2032.899
157.024, 2568.107
158.411, 3392.469
159.799, 4485.678
161.187, 5904.746
162.574, 7664.081
163.961, 9148.613
165.348, 10473.237
166.734, 10837.903
168.121, 10152.585
169.507, 9227.269
170.893, 7561.954
172.278, 6466.625
173.664, 5310.269
175.049, 4447.875
176.434, 3541.432
177.819, 2863.940
179.203, 2420.386
180.587, 1731.661
181.971, 1518.898
183.355, 1156.048
184.739, 1026.091
186.122, 840.083
187.505, 686.064
188.888, 526.040
190.271, 404.012
191.653, 386.982
193.035, 319.951
194.417, 321.921
195.799, 343.893
197.180, 482.867
198.562, 496.846
199.943, 577.829
201.324, 728.819
202.704, 749.814
204.084, 633.817
205.465, 596.828
206.844, 384.847
208.224, 386.874
209.603, 128.909
210.983, 110.952
212.362, 58.003
213.740, 45.063
215.119, 91.687
216.497, 64.208
217.875, 219.293
219.253, 200.387
220.631, 263.490
222.008, 429.602
223.385, 487.724
224.762, 672.855
226.139, 800.996
227.515, 1001.146
228.891, 1115.307
230.267, 1317.478
231.643, 1574.658
233.018, 1967.979
234.394, 2768.636
235.769, 3530.751
237.144, 4694.443
238.518, 5885.236
239.893, 7573.548
241.267, 9208.718
242.641, 10890.844
244.014, 12119.301
245.388, 12184.849
246.761, 12072.212
248.134, 10617.229
249.507, 8942.952
250.879, 7208.676
252.252, 5598.304
253.624, 4419.791
254.996, 3488.119
256.367, 2787.255
257.739, 2206.200
259.110, 1794.959
260.481, 1584.567
261.852, 1287.974
263.222, 1205.891
264.592, 1050.782
265.962, 1065.472
267.332, 986.911
268.702, 1029.366
270.071, 1128.622
271.440, 1142.093
272.809, 1184.067
274.178, 1251.260
275.546, 1361.423
276.915, 1413.644
278.283, 1463.186
279.650, 1573.546
281.018, 1523.893
282.385, 1791.296
283.752, 1886.750
285.119, 2276.926
286.486, 2750.236
287.852, 3268.902
289.218, 4228.980
290.584, 5127.087
291.950, 6453.224
293.316, 7551.384
294.681, 8015.572
296.046, 8209.784
297.411, 7214.019
298.775, 6037.277
300.140, 4684.557
301.504, 3660.857
302.868, 2847.179
304.231, 2120.521
305.595, 1753.883
306.958, 1348.264
308.321, 1066.664
309.684, 880.083
311.047, 759.519
312.409, 802.973
313.771, 692.444
315.133, 806.933
316.495, 807.438
317.856, 942.959
319.217, 1091.497
320.578, 1278.051
321.939, 1580.620
323.299, 1883.204
324.660, 2346.798
326.020, 2546.400
327.380, 2801.009
328.739, 2912.621
330.099, 2892.239
331.458, 3141.861
332.817, 3177.488
334.176, 3550.118
335.534, 3908.753
336.892, 4341.393
338.251, 4924.036
339.608, 5438.684
340.966, 6502.336
342.323, 7602.994
343.681, 9347.658
345.037, 11262.328
346.394, 13217.002
347.751, 15841.684
349.107, 16886.371
350.463, 17831.070
351.819, 17225.771
353.174, 15430.482
354.530, 13465.202
355.885, 10699.927
357.240, 8704.660
358.594, 6757.400
359.949, 5184.147
361.303, 4240.903
362.657, 3277.666
364.011, 2597.436
365.365, 2050.213
366.718, 1697.997
368.071, 1318.788
369.424, 986.586
370.777, 797.391
372.129, 481.203
373.481, 389.022
374.833, 217.848
376.185, 154.681
377.537, 49.521
378.888, 37.955
380.239, 90.793
381.590, 164.974
382.941, 175.194
384.291, 205.457
385.642, 191.770
386.992, 181.130
388.341, 157.534
389.691, 146.977
391.040, 124.455
392.389, 87.963
393.738, 25.510
395.087, 43.988
396.435, 26.572
397.784, 92.239
399.132, 42.045
400.479, 57.957
401.827, 20.958
403.174, 18.015
404.521, 36.010
405.868, 28.066
407.215, 39.146
408.561, 29.230
409.908, 19.678
411.254, 105.593
412.599, 219.525
413.945, 317.463
415.290, 485.417
416.636, 714.383
417.980, 979.354
419.325, 1431.342
420.670, 1765.350
422.014, 2411.379
423.358, 2974.434
424.702, 3507.512
426.045, 4103.622
427.389, 4424.761
428.732, 4838.927
430.075, 5179.116
431.417, 5712.327
432.760, 6517.573
434.102, 7207.848
435.444, 8119.167
436.786, 8353.525
438.127, 8937.945
439.469, 8742.398
440.810, 8726.884
442.151, 9231.389
443.492, 9385.939
444.832, 10940.521
446.172, 13065.142
447.512, 15389.803
448.852, 18514.494
450.192, 19319.215
451.531, 20123.955
452.870, 18408.721
454.209, 16733.502
455.548, 15308.297
456.887, 13413.110
458.225, 12467.938
459.563, 10932.775
460.901, 9817.621
462.238, 8762.487
463.576, 7328.372
464.913, 6472.266
466.250, 5509.173
467.587, 4802.092
468.923, 3997.017
470.259, 3527.950
471.596, 3224.891
472.931, 2781.838
474.267, 2632.797
475.603, 2442.762
476.938, 2320.739
478.273, 2287.720
479.608, 2230.705
480.942, 2364.697
482.276, 2314.692
483.611, 2506.692
484.944, 2606.696
486.278, 2732.704
487.612, 3089.715
488.945, 3213.800
490.278, 3545.817
491.611, 3895.970
492.943, 4265.991
494.276, 4857.048
495.608, 5373.544
496.940, 6091.101
498.271, 6701.127
499.603, 7450.157
500.934, 8297.188
502.265, 8602.218
503.596, 8977.250
504.927, 8722.280
506.257, 8477.313
507.587, 8402.348
508.917, 7887.379
510.247, 7912.412
511.577, 7197.445
512.906, 6322.476
514.235, 5531.509
515.564, 4392.540
516.892, 3663.571
518.221, 3003.601
519.549, 2647.631
520.877, 2385.659
522.205, 2337.687
523.533, 2296.713
524.860, 2134.738
526.187, 2034.760
527.514, 1759.781
528.841, 1448.801
530.167, 1174.819
531.493, 868.835
532.820, 768.848
534.145, 609.860
535.471, 495.868
536.796, 464.874
538.122, 375.878
539.447, 342.394
540.771, 320.587
542.096, 318.118
543.420, 300.004
544.744, 246.988
546.068, 320.829
547.392, 296.340
548.715, 393.333
550.039, 469.993
551.362, 518.072
552.684, 781.447
554.007, 896.371
555.329, 1163.380
556.652, 1524.582
557.973, 1936.780
559.295, 2665.299
560.617, 3476.052
561.938, 5013.891
563.259, 6766.258
564.580, 9074.818
565.901, 11058.535
567.221, 11483.278
568.541, 10539.511
569.861, 8755.641
571.181, 6275.379
572.501, 4694.343
573.820, 3325.357
575.139, 2610.731
576.458, 2149.434
577.777, 1857.227
579.095, 1867.891
580.414, 1724.549
581.732, 1912.083
583.049, 2021.051
584.367, 2277.214
585.685, 2590.066
587.002, 2812.235
588.319, 3250.844
589.636, 3410.151
590.952, 3727.922
592.268, 4117.580
593.585, 4551.640
594.900, 5366.713
596.216, 5974.806
597.532, 6859.117
598.847, 7684.204
600.162, 7785.938
601.477, 8027.589
602.792, 7472.057
604.106, 7017.033
605.420, 6266.107
606.734, 5462.722
608.048, 5000.887
609.361, 4271.028
610.675, 3898.592
611.988, 3616.583
613.301, 3222.468
614.614, 3031.945
615.926, 2577.094
617.238, 2411.628
618.550, 1970.708
619.862, 1679.855
621.174, 1515.134
622.485, 1169.032
623.797, 1054.997
625.108, 871.473
626.418, 756.688
627.729, 624.256
629.039, 528.622
630.349, 502.866
631.659, 415.212
632.969, 375.471
634.279, 350.852
635.588, 276.822
636.897, 259.873
638.206, 262.951
639.515, 225.032
640.823, 204.073
642.131, 134.914
643.439, 182.806
644.747, 163.577
646.055, 91.253
647.362, 132.080
648.669, 77.610
649.976, 173.186
651.283, 102.649
652.589, 112.133
653.896, 166.701
655.202, 142.044
656.508, 184.499
657.814, 131.806
659.119, 135.095
660.424, 177.365
661.729, 189.617
663.034, 184.851
664.339, 199.066
665.643, 178.262
666.947, 201.440
668.251, 175.599
669.555, 205.739
670.859, 174.860
672.162, 184.962
673.465, 196.044
674.768, 208.967
676.071, 268.152
677.373, 271.176
678.676, 329.181
679.978, 379.166
681.280, 420.131
682.581, 539.076
683.883, 535.002
685.184, 652.908
686.485, 764.793
687.786, 773.658
689.087, 866.503
690.387, 840.327
691.687, 825.131
692.987, 762.915
694.287, 680.678
695.586, 649.420
696.886, 532.154
698.185, 561.895
699.484, 506.660
700.783, 469.454
702.081, 499.284
703.379, 428.146
704.677, 366.037
705.975, 317.951
707.273, 247.886
708.570, 260.834
709.868, 214.788
711.165, 133.720
712.462, 148.630
713.758, 127.527
715.055, 91.430
716.351, 41.322
717.647, 77.207
718.943, 36.075
720.238, 26.083
721.533, 30.723
722.829, 14.489
724.124, 28.731
725.418, 0.986
726.713, 39.333
728.007, 5.292
729.301, 27.117
730.595, 16.577
731.889, 15.917
733.182, 22.619
734.476, 36.205
735.769, 35.847
737.061, 49.546
738.354, 40.308
739.647, 59.131
740.939, 54.022
742.231, 42.981
743.523, 18.001
744.814, 13.070
746.106, 68.184
747.397, 50.373
748.688, 88.628
749.978, 56.969
751.269, 41.378
752.559, 60.849
753.849, 41.391
755.139, 19.994
756.429, 50.648
757.719, 31.924
759.008, 40.235
760.297, 41.978
761.586, 34.875
762.875, 59.829
764.163, 27.854
765.451, 18.933
766.739, 26.061
768.027, 7.758
769.315, 34.457
770.602, 2.271
771.890, 16.962
773.177, 2.622
774.463, 14.755
775.750, 33.177
777.036, 4.344
778.323, 2.831
779.609, 5.719
780.894, 31.691
782.180, 9.073
783.465, 15.423
784.750, 21.742
786.035, 5.967
787.320, 17.285
788.605, 7.492
789.889, 54.690
791.173, 31.847
792.457, 25.976
793.741, 23.079
795.024, 25.154
796.307, 62.202
797.591, 45.225
798.873, 69.223
800.156, 87.196
801.439, 46.074
802.721, 111.998
804.003, 95.765
805.285, 117.642
806.566, 107.463
807.848, 82.296
809.129, 135.105
810.410, 98.894
811.691, 140.660
812.971, 141.405
814.252, 169.129
815.532, 208.831
816.812, 221.513
818.092, 182.175
819.371, 245.815
820.651, 217.436
821.930, 241.036
823.209, 301.615
824.488, 280.175
825.766, 348.714
827.045, 341.233
828.323, 375.733
829.601, 397.213
830.878, 391.673
832.156, 446.114
833.433, 454.535
834.710, 497.938
835.987, 575.321
837.264, 553.686
838.540, 627.032
839.817, 668.359
841.093, 709.667
842.369, 757.957
843.644, 809.229
844.920, 864.485
846.195, 925.722
847.470, 1027.942
848.745, 1118.144
850.020, 1170.328
851.294, 1314.496
852.568, 1448.647
853.842, 1479.781
855.116, 1708.897
856.390, 1841.998
857.663, 2032.080
858.936, 2238.147
860.209, 2415.197
861.482, 2777.228
862.755, 3047.244
864.027, 3354.243
865.299, 3823.200
866.571, 4137.165
867.843, 4509.055
869.115, 4938.775
870.386, 5180.265
871.657, 5963.888
872.928, 6231.318
874.199, 7134.394
875.470, 7634.756
876.740, 8012.481
878.010, 8998.271
879.280, 8696.891
880.550, 9002.938
881.820, 8651.751
883.089, 8213.497
884.358, 8049.870
885.627, 7696.899
886.896, 7353.823
888.164, 7273.862
889.433, 6832.891
890.701, 6674.030
891.969, 6127.718
893.236, 5580.199
894.504, 5142.973
895.771, 4459.417
897.038, 4126.406
898.305, 3740.683
899.572, 3346.480
900.838, 3230.376
902.105, 3064.858
903.371, 3024.312
904.637, 3000.730
905.902, 2973.918
907.168, 3173.317
908.433, 3239.051
909.698, 3393.853
910.963, 3609.826
912.228, 3562.272
913.492, 3822.605
914.757, 3657.384
916.021, 3550.595
917.285, 3494.815
918.548, 3079.598
919.812, 2914.938
921.075, 2488.368
922.338, 2196.191
923.601, 2056.326
924.864, 1720.061
926.126, 1562.234
927.388, 1382.325
928.650, 1135.269
929.912, 1096.579
931.174, 975.806
932.435, 868.509
933.697, 836.455
934.958, 658.034
936.218, 666.987
937.479, 588.806
938.739, 606.429
940.000, 523.260
941.260, 423.954
942.520, 442.044
943.779, 410.039
945.039, 378.992
946.298, 350.929
947.557, 332.891
948.816, 313.543
950.074, 288.144
951.333, 282.350
952.591, 297.642
953.849, 275.772
955.107, 248.184
956.365, 288.534
957.622, 226.986
958.879, 323.404
960.136, 271.726
961.393, 305.260
962.650, 342.667
963.906, 298.209
965.162, 327.755
966.418, 367.307
967.674, 314.863
968.930, 461.427
970.185, 431.001
971.441, 521.579
972.696, 619.168
973.950, 693.763
975.205, 870.363
976.459, 974.967
977.714, 1118.580
978.968, 1353.198
980.222, 1482.821
981.475, 1586.449
982.729, 1680.089
983.982, 1459.735
985.235, 1403.386
986.488, 1148.152
987.740, 1014.816
988.993, 911.486
990.245, 720.168
991.497, 595.856
992.749, 497.558
994.000, 417.267
995.252, 403.495
996.503, 363.219
997.754, 359.948
999.005, 299.719
1000.256, 236.466
1001.506, 285.439
1002.756, 224.405
1004.006, 214.184
1005.256, 260.182
1006.506, 212.379
1007.755, 260.182
1009.005, 254.485
1010.254, 290.308
1011.502, 321.346
1012.751, 310.806
1014.000, 407.659
1015.248, 431.109
1016.496, 538.984
1017.744, 658.199
1018.991, 757.334
1020.239, 813.244
1021.486, 899.341
1022.733, 807.440
1023.980, 904.387
1025.227, 787.634
1026.473, 786.841
1027.719, 746.844
1028.965, 673.271
1030.211, 676.313
1031.457, 687.658
1032.702, 676.741
1033.948, 728.851
1035.193, 747.982
1036.438, 859.126
1037.682, 907.294
1038.927, 983.491
1040.171, 1071.713
1041.415, 1090.967
1042.659, 1151.248
1043.903, 1183.562
1045.146, 1089.966
1046.390, 1144.341
1047.633, 1003.738
1048.876, 873.156
1050.118, 891.658
1051.361, 741.808
1052.603, 678.339
1053.845, 656.896
1055.087, 563.976
1056.329, 571.594
1057.571, 552.280
1058.812, 524.951
1060.053, 584.653
1061.294, 490.381
1062.535, 521.136
1063.775, 571.921
1065.016, 470.732
1066.256, 496.576
1067.496, 503.444
1068.736, 489.336
1069.975, 474.251
1071.214, 465.182
1072.454, 508.139
1073.693, 571.112
1074.931, 563.099
1076.170, 668.103
1077.408, 748.127
1078.647, 840.345
1079.885, 982.410
1081.122, 1023.492
1082.360, 1264.593
1083.597, 1396.705
1084.835, 1542.976
1086.072, 1813.116
1087.308, 1776.268
1088.545, 1812.175
1089.781, 1782.357
1091.018, 1503.558
1092.254, 1387.098
1093.490, 1071.321
1094.725, 791.033
1095.961, 740.280
1097.196, 521.845
1098.431, 497.364
1099.666, 448.670
1100.900, 346.010
1102.135, 353.360
1103.369, 279.669
1104.603, 249.988
1105.837, 292.991
1107.071, 217.067
1108.304, 205.969
1109.538, 184.352
1110.771, 184.212
1112.004, 150.608
1113.236, 120.125
1114.469, 168.020
1115.701, 133.532
1116.933, 91.013
1118.165, 130.695
1119.397, 100.115
1120.629, 123.264
1121.860, 264.956
1123.091, 250.398
1124.322, 201.047
1125.553, 109.375
1126.783, 56.839
1128.014, 99.354
1129.244, 67.070
1130.474, 39.908
1131.704, 66.626
1132.933, 25.141
1134.163, 9.289
1135.392, 26.524
1136.621, 14.041
1137.850, 27.093
1139.079, 2.734
1140.307, 2.019
1141.535, 15.926
1142.763, 25.383
1143.991, 45.257
1145.219, 30.895
1146.446, 2.846
1147.674, 24.951
1148.901, 13.531
1150.128, 12.695
1151.354, 12.305
1152.581, 12.817
1153.807, 19.814
1155.033, 11.790
1156.259, 22.557
1157.485, 6.026
1158.710, 11.962
1159.936, 25.590
1161.161, 20.711
1162.386, 24.251
1163.611, 8.417
1164.835, 15.448
1166.060, 12.097
1167.284, 4.511
1168.508, 37.576
1169.732, 8.848
1170.955, 30.191
1172.179, 12.674
1173.402, 10.780
1174.625, 22.106
1175.848, 16.147
1177.070, 12.807
1178.293, 37.376
1179.515, 21.245
1180.737, 1.849
1181.959, 15.687
1183.181, 64.344
1184.402, 10.570
1185.624, 14.709
1186.845, 52.398
1188.066, 1.196
1189.286, 41.989
1190.507, 43.889
1191.727, 2.304
1192.947, 17.467
1194.167, 37.088
1195.387, 43.848
1196.607, 1.528
1197.826, 18.839
1199.045, 0.810
1200.264, 36.441
1201.483, 13.945
1202.702, 45.699
1203.920, 0.328
1205.138, 64.276
1206.356, 57.880
1207.574, 27.483
1208.792, 3.083
1210.009, 45.694
1211.227, 9.290
1212.444, 24.884
1213.661, 19.477
1214.877, 17.066
1216.094, 31.653
1217.310, 4.237
1218.526, 5.818
1219.742, 42.395
1220.958, 27.969
1222.173, 72.539
1223.389, 63.771
1224.604, 1.331
1225.819, 54.226
1227.034, 26.778
1228.248, 13.327
1229.463, 46.871
1230.677, 0.414
1231.891, 13.955
1233.105, 35.492
1234.318, 9.975
1235.532, 7.552
1236.745, 18.071
1237.958, 1.408
1239.171, 14.080
1240.384, 3.434
1241.596, 27.041
1242.809, 16.490
1244.021, 47.033
1245.233, 8.404
1246.444, 11.156
1247.656, 10.743
1248.867, 34.653
1250.079, 19.043
1251.290, 3.574
1252.500, 4.200
1253.711, 0.842
1254.921, 12.509
1256.132, 0.854
1257.342, 15.183
1258.552, 9.495
1259.761, 1.801
1260.971, 11.095
1262.180, 6.624
1263.389, 9.363
1264.598, 40.884
1265.807, 15.876
1267.015, 9.342
1268.223, 40.545
1269.432, 11.732
1270.640, 1.011
1271.847, 46.137
1273.055, 21.274
1274.262, 12.401
1275.470, 7.484
1276.677, 13.614
1277.883, 30.698
1279.090, 20.777
1280.296, 12.798
1281.503, 40.846
1282.709, 8.381
1283.915, 20.638
1285.120, 11.352
1286.326, 13.642
1287.531, 20.693
1288.736, 23.155
1289.941, 24.117
1291.146, 7.070
1292.350, 18.981
1293.555, 2.911
1294.759, 18.613
1295.963, 4.680
1297.167, 18.212
1298.370, 14.882
1299.574, 41.351
1300.777, 31.212
1301.980, 2.569
1303.183, 15.406
1304.386, 7.021
1305.588, 8.213
1306.790, 15.008
1307.993, 1.204
1309.195, 6.029
1310.396, 7.495
1311.598, 47.997
1312.799, 2.276
1314.000, 26.261
1315.201, 14.796
1316.402, 12.482
1317.603, 19.879
1318.803, 20.316
1320.003, 26.965
1321.203, 18.202
1322.403, 23.828
1323.603, 45.167
1324.802, 1.772
1326.002, 22.364
1327.201, 38.954
1328.400, 10.514
1329.599, 13.062
1330.797, 33.597
1331.995, 26.121
1333.194, 26.646
1334.392, 22.149
1335.589, 26.641
1336.787, 28.798
1337.985, 59.535
1339.182, 29.995
1340.379, 52.446
1341.576, 36.837
1342.772, 44.599
1343.969, 49.311
1345.165, 63.719
1346.361, 44.624
1347.557, 20.013
1348.753, 56.354
1349.949, 66.913
1351.144, 55.273
1352.339, 75.624
1353.534, 51.966
1354.729, 56.299
1355.924, 106.624
1357.118, 78.084
1358.312, 77.393
1359.506, 114.681
1360.700, 77.961
1361.894, 102.222
1363.088, 131.474
1364.281, 76.716
1365.474, 116.936
1366.667, 106.145
1367.860, 91.343
1369.052, 93.362
1370.245, 69.543
1371.437, 87.724
1372.629, 106.920
1373.821, 69.771
1375.013, 113.754
1376.204, 104.967
1377.395, 78.575
1378.586, 67.008
1379.777, 102.546
1380.968, 50.952
1382.159, 95.542
1383.349, 82.350
1384.539, 87.600
1385.729, 93.721
1386.919, 72.886
1388.109, 75.887
1389.298, 50.240
1390.487, 53.461
1391.676, 93.822
1392.865, 65.198
1394.054, 50.762
1395.242, 84.993
1396.431, 71.641
1397.619, 88.054
1398.807, 59.179
1399.995, 49.624
1401.182, 75.418
1402.370, 85.519
1403.557, 58.901
1404.744, 60.734
1405.931, 47.859
1407.118, 66.205
1408.304, 72.364
1409.490, 99.718
1410.676, 39.922
1411.862, 72.033
1413.048, 19.003
1414.234, 45.262
1415.419, 66.542
1416.604, 32.418
1417.789, 42.842
1418.974, 54.037
1420.159, 36.509
1421.343, 29.045
1422.528, 15.224
1423.712, 35.717
1424.896, 4.141
1426.079, 49.151
1427.263, 51.729
1428.446, 36.390
1429.629, 14.068
1430.812, 51.751
1431.995, 41.849
1433.178, 56.541
1434.360, 60.190
1435.543, 52.935
1436.725, 68.455
1437.907, 42.051
1439.088, 48.621
1440.270, 47.167
1441.451, 55.688
1442.632, 22.187
1443.813, 27.659
1444.994, 21.084
1446.175, 43.469
1447.355, 55.820
1448.535, 25.170
1449.715, 19.541
1450.895, 31.891
1452.075, 5.195
1453.255, 42.535
1454.434, 21.860
1455.613, 30.171
1456.792, 37.456
1457.971, 62.765
1459.149, 36.072
1460.328, 49.403
1461.506, 36.738
1462.684, 49.098
1463.862, 40.278
1465.040, 12.766
1466.217, 18.268
1467.395, 22.795
1468.572, 9.116
1469.749, 42.348
1470.925, 8.873
1472.102, 42.160
1473.278, 74.666
1474.455, 5.167
1475.631, 72.657
1476.807, 51.138
1477.982, 39.612
1479.158, 27.075
1480.333, 44.536
1481.508, 11.013
1482.683, 30.497
1483.858, 47.535
1485.033, 4.977
1486.207, 65.526
1487.381, 30.043
1488.555, 45.574
1489.729, 21.124
1490.903, 3.325
1492.076, 5.230
1493.250, 48.925
1494.423, 13.568
1495.596, 52.316
1496.769, 61.095
1497.941, 2.084
1499.114, 41.800
1500.286, 45.641
1501.458, 16.382
1502.630, 41.759
1503.802, 38.273
1504.973, 19.719
1506.145, 31.413
1507.316, 6.302
1508.487, 63.384
1509.657, 28.493
1510.828, 70.544
1511.999, 49.752
1513.169, 0.000
##END=



