##NAMES=Epidote
##RRUFFID=R040092
##IDEAL CHEMISTRY=Ca_2_Fe^3+^Al_2_(Si_2_O_7_)(SiO_4_)O(OH)
##LOCALITY=Nahant, Massachusetts, USA
##OWNER=RRUFF
##SOURCE=University of Arizona Mineral Museum
##DESCRIPTION=Green prismatic crystals imbedded in quartz
##STATUS=The identification of this mineral has been confirmed by X-ray diffraction and chemical analysis
##URL=rruff.info/R040092
##MEASURED CHEMISTRY=Ca_2.01_Al_2.00_Fe_1.00_(Si_1.00_O_4_)(Si_1.97_Fe_0.02_Al_0.01_Ti_0.01_O_7_)O(OH)
##PIN_ID=M00463
##ORIENTATION=Laser parallel to [-1 0 -1]. Fiducial mark perpendicular to laser is parallel to b* (0 1 0)
51.466, 0.000
52.866, 230.344
54.266, 730.917
55.666, 1295.255
57.065, 1593.149
58.464, 1628.686
59.863, 1309.321
61.262, 1150.873
62.661, 806.612
64.059, 226.981
65.458, 28.414
66.856, 23.805
68.253, 28.416
69.651, 77.463
71.048, 31.863
72.445, 208.643
73.842, 473.026
75.239, 817.641
76.635, 1170.113
78.031, 1721.314
79.427, 2535.129
80.823, 4109.445
82.218, 6240.170
83.614, 8353.215
85.009, 10096.503
86.404, 11686.968
87.798, 12964.547
89.193, 13711.182
90.587, 13746.832
91.981, 13212.451
93.375, 12221.137
94.768, 10828.950
96.161, 9354.787
97.554, 7980.549
98.947, 6744.139
100.340, 5540.488
101.732, 4435.548
103.124, 3533.275
104.516, 2946.634
105.908, 2769.594
107.300, 2411.122
108.691, 1942.201
110.082, 1325.809
111.473, 1093.926
112.864, 1093.537
114.254, 1355.629
115.644, 1656.188
117.034, 1683.201
118.424, 1451.659
119.813, 1032.555
121.203, 982.875
122.592, 847.616
123.981, 736.767
125.369, 811.323
126.758, 774.279
128.146, 969.629
129.534, 1272.365
130.922, 1238.484
132.309, 1309.208
133.696, 1058.148
135.083, 1080.162
136.470, 889.449
137.857, 910.785
139.243, 817.109
140.630, 653.385
142.016, 365.536
143.401, 233.469
144.787, 308.256
146.172, 345.079
147.557, 368.972
148.942, 347.947
150.327, 377.018
151.711, 612.195
153.096, 737.488
154.480, 960.904
155.863, 1294.454
157.247, 1544.143
158.630, 1972.977
160.013, 2725.961
161.396, 3594.102
162.779, 4781.400
164.161, 6063.865
165.544, 7206.496
166.926, 8414.298
168.308, 9618.277
169.689, 10246.431
171.070, 10734.761
172.452, 10402.276
173.833, 9671.974
175.213, 8675.855
176.594, 7538.926
177.974, 6480.182
179.354, 5429.625
180.734, 4690.258
182.114, 4114.078
183.493, 3723.091
184.872, 3370.291
186.251, 3063.686
187.630, 2634.271
189.008, 2335.049
190.387, 2166.019
191.765, 1702.185
193.143, 1454.541
194.520, 1179.094
195.898, 1074.843
197.275, 1065.784
198.652, 951.922
200.029, 1115.256
201.405, 1147.784
202.782, 1161.509
204.158, 1207.428
205.534, 1163.443
206.909, 1025.854
208.285, 1022.359
209.660, 954.060
211.035, 774.956
212.410, 880.671
213.784, 988.608
215.159, 1319.111
216.533, 1771.459
217.907, 2204.922
219.281, 2874.680
220.654, 3644.878
222.027, 4471.174
223.400, 5497.832
224.773, 6453.241
226.146, 7476.723
227.518, 8146.865
228.891, 8584.371
230.263, 8894.117
231.634, 9077.796
233.006, 9025.507
234.377, 8966.590
235.748, 8922.179
237.119, 8831.165
238.490, 9025.783
239.860, 8878.863
241.231, 8531.220
242.601, 8072.847
243.970, 7272.734
245.340, 6451.875
246.709, 5456.264
248.079, 4806.896
249.448, 3964.766
250.816, 3590.867
252.185, 3172.197
253.553, 2961.752
254.921, 2623.575
256.289, 2492.516
257.657, 2083.719
259.024, 1935.129
260.391, 1657.742
261.758, 1426.559
263.125, 1486.570
264.492, 1496.776
265.858, 1568.174
267.224, 1982.762
268.590, 2217.536
269.956, 3004.495
271.321, 3508.639
272.687, 3720.961
274.052, 3516.467
275.416, 3636.146
276.781, 3145.005
278.146, 2443.039
279.510, 1853.245
280.874, 1333.623
282.237, 941.173
283.601, 597.893
284.964, 434.780
286.327, 548.834
287.690, 532.055
289.053, 492.438
290.416, 666.986
291.778, 759.695
293.140, 868.566
294.502, 703.597
295.863, 747.784
297.225, 740.129
298.586, 736.619
299.947, 704.249
301.308, 695.015
302.668, 646.918
304.029, 934.961
305.389, 960.142
306.749, 872.463
308.108, 1167.926
309.468, 1101.531
310.827, 1177.280
312.186, 1089.171
313.545, 1137.205
314.903, 1091.383
316.262, 917.704
317.620, 1107.168
318.978, 948.773
320.336, 1136.522
321.693, 1010.414
323.051, 1143.447
324.408, 1062.623
325.765, 1370.938
327.121, 1407.396
328.478, 1605.995
329.834, 1723.734
331.190, 2035.613
332.546, 1994.630
333.902, 2416.787
335.257, 2625.084
336.612, 3082.518
337.967, 3650.089
339.322, 4535.598
340.677, 5523.641
342.031, 6866.623
343.385, 8282.737
344.739, 9914.990
346.093, 11053.377
347.446, 12204.895
348.799, 12503.548
350.153, 12269.333
351.505, 11358.253
352.858, 9967.302
354.210, 8422.481
355.563, 6832.792
356.915, 5387.230
358.267, 4118.802
359.618, 3033.500
360.969, 2431.325
362.321, 1586.277
363.672, 1162.357
365.022, 587.562
366.373, 425.895
367.723, 29.350
369.073, 168.071
370.423, 502.394
371.773, 682.675
373.122, 736.948
374.471, 866.229
375.821, 951.647
377.169, 819.362
378.518, 729.426
379.866, 401.757
381.215, 64.082
382.563, 469.705
383.910, 942.631
385.258, 1364.698
386.605, 1968.912
387.952, 2125.276
389.299, 2636.795
390.646, 2510.470
391.992, 2378.302
393.339, 2124.308
394.685, 1720.504
396.031, 1468.896
397.376, 780.480
398.722, 672.271
400.067, 387.278
401.412, 258.472
402.757, 357.883
404.101, 179.483
405.446, 118.271
406.790, 413.261
408.134, 567.459
409.478, 827.882
410.821, 1178.528
412.165, 1303.383
413.508, 1881.484
414.851, 2259.807
416.193, 2655.317
417.536, 3618.058
418.878, 4442.013
420.220, 5451.195
421.562, 6313.598
422.904, 7525.207
424.245, 8810.021
425.586, 9779.037
426.927, 11279.266
428.268, 12542.704
429.609, 14158.368
430.949, 15894.241
432.289, 17957.318
433.629, 18772.611
434.969, 19857.094
436.309, 19471.773
437.648, 19274.639
438.987, 18064.689
440.326, 17181.904
441.665, 16138.288
443.003, 15938.841
444.342, 15674.552
445.680, 15799.417
447.018, 16183.435
448.355, 16215.629
449.693, 16525.959
451.030, 16531.424
452.367, 16333.047
453.704, 15267.782
455.041, 14932.662
456.377, 13575.662
457.713, 12769.789
459.049, 11356.036
460.385, 10154.406
461.721, 8974.905
463.056, 7656.519
464.391, 6472.251
465.726, 5634.100
467.061, 4674.061
468.395, 3934.129
469.730, 3514.307
471.064, 2943.598
472.398, 2543.989
473.731, 1956.485
475.065, 1663.080
476.398, 1451.775
477.731, 1328.564
479.064, 1036.451
480.397, 1066.434
481.729, 1057.509
483.062, 1076.675
484.394, 1265.929
485.725, 1417.273
487.057, 1680.704
488.389, 1836.223
489.720, 2098.826
491.051, 2618.514
492.382, 3056.285
493.712, 3715.140
495.043, 4243.078
496.373, 4944.096
497.703, 5832.191
499.032, 6698.370
500.362, 7224.623
501.691, 7826.956
503.020, 8043.367
504.349, 8595.849
505.678, 8615.408
507.007, 8805.043
508.335, 8427.745
509.663, 7924.521
510.991, 7414.367
512.319, 6129.284
513.646, 5233.270
514.973, 4267.323
516.300, 3687.442
517.627, 2800.629
518.954, 2166.880
520.280, 1877.195
521.607, 1482.574
522.933, 1188.014
524.259, 819.516
525.584, 787.078
526.910, 686.698
528.235, 515.378
529.560, 529.127
530.885, 310.877
532.209, 239.528
533.534, 308.712
534.858, 289.791
536.182, 362.618
537.506, 289.134
538.829, 397.854
540.152, 405.152
541.476, 600.609
542.799, 560.938
544.121, 816.323
545.444, 956.771
546.766, 1138.275
548.088, 1289.837
549.410, 1711.455
550.732, 1964.160
552.053, 2383.947
553.375, 3012.904
554.696, 4017.818
556.017, 4424.979
557.337, 5608.859
558.658, 7068.258
559.978, 8776.652
561.298, 10670.925
562.618, 12015.827
563.938, 12725.397
565.257, 12894.849
566.576, 11444.051
567.895, 10101.648
569.214, 8545.885
570.533, 7169.128
571.851, 6198.377
573.170, 5917.084
574.488, 5809.055
575.805, 5720.568
577.123, 6044.195
578.440, 6765.354
579.758, 7417.651
581.075, 8308.105
582.391, 9580.778
583.708, 10372.945
585.024, 11423.498
586.341, 12940.250
587.657, 13998.597
588.972, 15381.572
590.288, 16725.166
591.603, 18139.361
592.918, 19918.041
594.233, 21873.480
595.548, 23108.977
596.863, 23892.135
598.177, 23724.121
599.491, 23621.514
600.805, 22029.604
602.119, 20681.971
603.432, 19504.150
604.746, 18258.652
606.059, 17410.590
607.372, 16582.250
608.685, 15891.484
609.997, 15359.901
611.309, 14719.159
612.621, 14271.604
613.933, 13478.957
615.245, 12567.861
616.557, 11598.364
617.868, 10102.316
619.179, 8950.147
620.490, 7701.865
621.801, 6849.088
623.111, 5774.270
624.421, 5150.890
625.731, 4335.195
627.041, 4151.168
628.351, 3498.920
629.660, 3430.118
630.970, 3069.903
632.279, 2820.176
633.588, 2613.312
634.896, 2290.287
636.205, 2355.372
637.513, 2064.101
638.821, 2016.646
640.129, 1892.795
641.437, 1783.887
642.744, 1598.922
644.051, 1512.897
645.358, 1407.814
646.665, 1325.670
647.972, 1249.466
649.278, 1120.198
650.584, 1050.869
651.890, 1061.476
653.196, 898.020
654.502, 967.498
655.807, 791.909
657.113, 710.255
658.418, 774.532
659.722, 692.742
661.027, 686.883
662.331, 684.955
663.636, 736.954
664.940, 662.884
666.244, 672.742
667.547, 624.525
668.851, 702.237
670.154, 656.874
671.457, 636.437
672.760, 741.923
674.062, 689.333
675.365, 758.665
676.667, 708.921
677.969, 715.059
679.271, 836.197
680.572, 687.216
681.874, 761.154
683.175, 716.961
684.476, 710.697
685.777, 759.480
687.077, 707.117
688.378, 764.752
689.678, 698.417
690.978, 658.124
692.278, 625.898
693.577, 721.759
694.877, 641.675
696.176, 649.630
697.475, 557.561
698.774, 474.413
700.072, 442.178
701.371, 412.853
702.669, 311.438
703.967, 343.934
705.265, 389.336
706.562, 228.648
707.860, 90.866
709.157, 211.969
710.454, 65.975
711.751, 63.855
713.047, 26.606
714.344, 107.787
715.640, 25.399
716.936, 148.188
718.232, 44.217
719.527, 36.436
720.823, 95.840
722.118, 121.463
723.413, 189.319
724.708, 181.446
726.002, 131.841
727.297, 273.477
728.591, 183.431
729.885, 58.657
731.179, 225.090
732.472, 161.818
733.766, 216.809
735.059, 186.092
736.352, 155.653
737.645, 126.475
738.937, 133.544
740.230, 170.864
741.522, 173.457
742.814, 230.321
744.106, 144.490
745.397, 185.917
746.689, 179.625
747.980, 123.609
749.271, 119.842
750.562, 89.321
751.853, 100.030
753.143, 49.974
754.433, 41.057
755.723, 20.938
757.013, 10.037
758.303, 7.777
759.592, 13.702
760.881, 72.817
762.170, 79.848
763.459, 57.366
764.748, 16.271
766.036, 195.903
767.325, 32.955
768.613, 133.843
769.901, 108.600
771.188, 122.216
772.476, 145.699
773.763, 39.050
775.050, 209.246
776.337, 124.321
777.624, 123.262
778.910, 205.072
780.196, 225.762
781.482, 176.336
782.768, 130.787
784.054, 325.110
785.339, 248.326
786.625, 300.429
787.910, 309.426
789.195, 328.316
790.479, 301.100
791.764, 359.779
793.048, 389.355
794.332, 471.830
795.616, 480.206
796.900, 484.486
798.183, 563.668
799.467, 658.753
800.750, 635.743
802.033, 670.637
803.316, 833.436
804.598, 720.139
805.880, 830.748
807.163, 922.263
808.445, 1047.684
809.726, 1028.011
811.008, 1210.245
812.289, 1233.387
813.570, 1371.437
814.851, 1405.395
816.132, 1542.262
817.413, 1664.198
818.693, 1903.725
819.973, 1967.321
821.253, 2164.828
822.533, 2386.246
823.813, 2503.577
825.092, 2750.818
826.371, 2787.973
827.650, 2966.041
828.929, 3087.122
830.208, 3300.918
831.486, 3293.729
832.764, 3400.453
834.042, 3458.094
835.320, 3532.653
836.598, 3594.127
837.875, 3605.533
839.152, 3492.856
840.429, 3703.103
841.706, 3608.280
842.983, 3571.378
844.259, 3758.407
845.536, 3622.355
846.812, 3833.226
848.088, 3972.029
849.363, 4264.753
850.639, 4387.402
851.914, 4539.982
853.189, 4714.492
854.464, 5075.925
855.739, 5350.291
857.013, 5473.578
858.288, 5708.808
859.562, 6295.962
860.836, 6550.015
862.110, 6654.968
863.383, 7117.747
864.656, 7150.564
865.930, 7297.113
867.203, 7510.924
868.475, 7604.209
869.748, 7616.468
871.020, 8134.838
872.292, 8408.550
873.564, 8855.571
874.836, 9533.692
876.108, 10186.037
877.379, 11232.955
878.650, 12210.216
879.922, 13132.433
881.192, 14096.619
882.463, 14843.316
883.733, 15503.719
885.004, 16039.551
886.274, 16201.238
887.544, 16250.098
888.813, 15881.317
890.083, 15706.087
891.352, 15304.599
892.621, 14656.587
893.890, 14545.155
895.159, 14990.497
896.427, 14580.208
897.695, 15291.254
898.964, 16099.653
900.232, 16715.408
901.499, 17802.645
902.767, 19261.098
904.034, 20692.443
905.301, 22636.102
906.568, 24830.896
907.835, 27005.244
909.102, 29380.857
910.368, 31773.160
911.634, 34133.609
912.900, 35723.707
914.166, 37548.102
915.432, 36919.625
916.697, 35606.410
917.962, 34205.434
919.227, 30909.574
920.492, 27703.486
921.757, 24778.459
923.021, 21873.832
924.285, 19175.564
925.550, 16823.814
926.813, 14645.138
928.077, 12777.536
929.341, 11221.880
930.604, 10049.238
931.867, 8831.611
933.130, 7980.254
934.393, 7290.188
935.655, 6325.299
936.918, 5934.921
938.180, 5346.910
939.442, 4793.373
940.703, 4586.924
941.965, 4144.596
943.226, 3758.111
944.488, 3658.940
945.749, 3537.904
947.009, 3300.223
948.270, 3210.553
949.530, 3151.901
950.791, 3176.261
952.051, 3047.637
953.311, 2939.036
954.570, 3138.449
955.830, 2995.887
957.089, 2996.338
958.348, 2933.809
959.607, 2857.295
960.866, 2729.051
962.124, 2572.958
963.383, 2408.928
964.641, 2238.547
965.899, 2089.206
967.156, 2022.896
968.414, 1899.605
969.671, 2048.338
970.928, 1985.093
972.185, 2257.871
973.442, 2253.690
974.699, 2675.532
975.955, 2764.400
977.211, 2955.294
978.468, 3230.235
979.723, 3147.201
980.979, 2940.204
982.234, 2861.235
983.490, 2369.304
984.745, 2286.487
986.000, 1858.641
987.254, 1632.824
988.509, 1394.086
989.763, 1416.350
991.017, 1140.551
992.271, 1120.125
993.525, 979.010
994.779, 990.644
996.032, 831.320
997.285, 750.106
998.538, 621.982
999.791, 743.724
1001.044, 685.611
1002.296, 639.630
1003.548, 650.441
1004.800, 641.088
1006.052, 638.823
1007.304, 746.654
1008.555, 705.568
1009.807, 807.520
1011.058, 906.311
1012.309, 1068.837
1013.559, 1316.157
1014.810, 1401.658
1016.060, 1739.291
1017.310, 1896.538
1018.560, 1986.613
1019.810, 2193.084
1021.060, 2021.711
1022.309, 1941.403
1023.558, 1778.441
1024.807, 1735.497
1026.056, 1627.646
1027.305, 1523.774
1028.553, 1679.740
1029.801, 1572.174
1031.049, 1714.733
1032.297, 1755.472
1033.545, 1995.347
1034.793, 2047.328
1036.040, 2235.484
1037.287, 2380.065
1038.534, 2330.235
1039.781, 2624.825
1041.027, 2393.543
1042.274, 2391.379
1043.520, 2536.350
1044.766, 2183.465
1046.012, 2069.721
1047.257, 1997.126
1048.503, 1944.654
1049.748, 1672.325
1050.993, 1738.127
1052.238, 1577.056
1053.483, 1476.102
1054.727, 1472.260
1055.971, 1453.527
1057.216, 1387.896
1058.459, 1339.363
1059.703, 1252.925
1060.947, 1215.581
1062.190, 1156.330
1063.433, 1053.168
1064.676, 979.116
1065.919, 893.130
1067.162, 925.043
1068.404, 904.385
1069.646, 1031.611
1070.888, 1231.912
1072.130, 1309.274
1073.372, 1569.698
1074.613, 1807.184
1075.855, 2176.723
1077.096, 2544.336
1078.337, 3144.132
1079.578, 3800.732
1080.818, 4570.518
1082.059, 5507.357
1083.299, 6418.246
1084.539, 7399.188
1085.779, 7915.188
1087.018, 8161.234
1088.258, 7741.331
1089.497, 6891.471
1090.736, 5765.658
1091.975, 4635.891
1093.213, 3620.298
1094.452, 2972.619
1095.690, 2228.980
1096.928, 1841.385
1098.166, 1594.971
1099.404, 1375.455
1100.642, 940.118
1101.879, 981.710
1103.116, 809.315
1104.353, 816.445
1105.590, 634.251
1106.827, 685.973
1108.063, 519.733
1109.299, 530.846
1110.536, 422.543
1111.771, 308.819
1113.007, 362.742
1114.243, 329.287
1115.478, 260.893
1116.713, 238.035
1117.948, 217.312
1119.183, 179.401
1120.418, 282.679
1121.652, 738.455
1122.886, 987.647
1124.120, 771.108
1125.354, 428.530
1126.588, 232.425
1127.821, 58.748
1129.055, 153.098
1130.288, 99.869
1131.521, 39.094
1132.753, 4.351
1133.986, 22.185
1135.218, 72.104
1136.450, 133.600
1137.682, 49.535
1138.914, 55.170
1140.146, 104.586
1141.377, 34.875
1142.609, 102.520
1143.840, 15.780
1145.071, 20.202
1146.301, 134.147
1147.532, 11.107
1148.762, 65.652
1149.992, 102.788
1151.222, 94.089
1152.452, 49.972
1153.682, 86.715
1154.911, 14.364
1156.140, 171.599
1157.369, 53.946
1158.598, 78.253
1159.827, 27.638
1161.055, 145.306
1162.284, 148.111
1163.512, 23.258
1164.740, 45.688
1165.967, 127.612
1167.195, 49.315
1168.422, 79.029
1169.650, 91.573
1170.877, 51.171
1172.103, 48.133
1173.330, 5.156
1174.557, 122.139
1175.783, 28.010
1177.009, 16.378
1178.235, 13.971
1179.461, 136.305
1180.686, 56.229
1181.912, 83.769
1183.137, 138.815
1184.362, 69.609
1185.587, 73.207
1186.811, 73.854
1188.036, 165.712
1189.260, 162.421
1190.484, 143.831
1191.708, 144.870
1192.932, 74.128
1194.155, 194.082
1195.378, 204.670
1196.602, 96.081
1197.825, 93.469
1199.047, 306.198
1200.270, 114.566
1201.492, 229.275
1202.715, 72.153
1203.937, 224.583
1205.159, 204.410
1206.380, 220.855
1207.602, 145.688
1208.823, 154.258
1210.044, 132.045
1211.265, 206.285
1212.486, 146.114
1213.707, 173.615
1214.927, 136.658
1216.147, 131.315
1217.367, 187.998
1218.587, 192.989
1219.807, 178.646
1221.027, 126.126
1222.246, 100.453
1223.465, 101.918
1224.684, 125.762
1225.903, 106.065
1227.121, 84.301
1228.340, 46.710
1229.558, 47.750
1230.776, 70.174
1231.994, 38.402
1233.212, 87.002
1234.429, 76.467
1235.646, 92.667
1236.864, 157.799
1238.081, 83.918
1239.297, 30.065
1240.514, 115.118
1241.730, 99.207
1242.947, 55.287
1244.163, 7.372
1245.378, 77.375
1246.594, 41.344
1247.810, 5.804
1249.025, 98.117
1250.240, 7.055
1251.455, 57.846
1252.670, 175.548
1253.885, 99.573
1255.099, 45.213
1256.313, 40.183
1257.527, 15.355
1258.741, 23.528
1259.955, 31.318
1261.168, 19.021
1262.382, 96.313
1263.595, 76.548
1264.808, 342.752
1266.021, 100.926
1267.233, 6.876
1268.446, 165.193
1269.658, 93.172
1270.870, 114.100
1272.082, 17.021
1273.294, 180.763
1274.505, 30.691
1275.716, 76.337
1276.928, 37.916
1278.139, 2.597
1279.349, 35.694
1280.560, 83.949
1281.770, 71.137
1282.981, 8.157
1284.191, 25.135
1285.401, 20.481
1286.610, 61.738
1287.820, 46.979
1289.029, 17.440
1290.239, 21.834
1291.448, 102.095
1292.656, 103.249
1293.865, 76.514
1295.073, 156.590
1296.282, 68.510
1297.490, 101.623
1298.698, 7.114
1299.906, 112.041
1301.113, 2.914
1302.320, 45.965
1303.528, 68.921
1304.735, 17.954
1305.942, 26.239
1307.148, 99.724
1308.355, 6.989
1309.561, 1.833
1310.767, 26.708
1311.973, 27.431
1313.179, 36.202
1314.384, 70.031
1315.590, 45.746
1316.795, 55.157
1318.000, 9.936
1319.205, 47.917
1320.410, 86.163
1321.614, 0.985
1322.819, 16.729
1324.023, 44.601
1325.227, 34.979
1326.431, 20.487
1327.634, 70.081
1328.838, 17.746
1330.041, 21.508
1331.244, 47.689
1332.447, 77.808
1333.650, 85.865
1334.852, 6.863
1336.055, 3.210
1337.257, 33.645
1338.459, 77.433
1339.661, 97.161
1340.862, 60.833
1342.064, 112.440
1343.265, 50.992
1344.466, 114.479
1345.667, 91.910
1346.868, 188.279
1348.068, 109.596
1349.269, 86.853
1350.469, 108.053
1351.669, 49.194
1352.869, 57.711
1354.069, 194.296
1355.268, 69.267
1356.468, 177.179
1357.667, 252.042
1358.866, 138.856
1360.065, 206.623
1361.263, 196.340
1362.462, 140.011
1363.660, 193.634
1364.858, 231.213
1366.056, 266.750
1367.254, 225.247
1368.451, 147.705
1369.649, 108.124
1370.846, 264.506
1372.043, 217.855
1373.240, 299.622
1374.436, 238.923
1375.633, 245.246
1376.829, 160.420
1378.025, 176.510
1379.221, 233.546
1380.417, 250.636
1381.613, 253.503
1382.808, 247.021
1384.003, 267.171
1385.199, 257.886
1386.393, 255.414
1387.588, 250.338
1388.783, 267.881
1389.977, 264.262
1391.171, 275.008
1392.365, 241.354
1393.559, 235.026
1394.753, 265.829
1395.946, 303.628
1397.140, 196.952
1398.333, 290.336
1399.526, 302.133
1400.719, 201.633
1401.911, 239.010
1403.104, 367.999
1404.296, 333.160
1405.488, 354.644
1406.680, 298.046
1407.872, 262.847
1409.063, 362.355
1410.255, 250.193
1411.446, 359.443
1412.637, 309.389
1413.828, 354.461
1415.018, 280.583
1416.209, 303.933
1417.399, 186.683
1418.589, 374.138
1419.779, 217.901
1420.969, 360.225
1422.159, 254.350
1423.348, 239.787
1424.537, 273.383
1425.726, 259.297
1426.915, 249.559
1428.104, 267.619
1429.293, 228.421
1430.481, 221.400
1431.669, 266.009
1432.857, 295.170
1434.045, 251.736
1435.233, 297.316
1436.420, 299.050
1437.608, 273.870
1438.795, 308.356
1439.982, 255.478
1441.169, 378.682
1442.355, 339.641
1443.542, 286.268
1444.728, 303.234
1445.914, 405.354
1447.100, 386.949
1448.286, 312.563
1449.472, 223.124
1450.657, 293.628
1451.842, 312.585
1453.027, 288.258
1454.212, 422.583
1455.397, 295.638
1456.581, 357.810
1457.766, 296.389
1458.950, 264.268
1460.134, 375.252
1461.318, 327.178
1462.501, 295.325
1463.685, 334.729
1464.868, 306.021
1466.051, 343.887
1467.234, 315.888
1468.417, 292.599
1469.600, 267.370
1470.782, 236.469
1471.965, 253.852
1473.147, 253.611
1474.329, 324.814
1475.510, 243.142
1476.692, 138.658
1477.873, 230.219
1479.055, 130.755
1480.236, 291.452
1481.416, 77.106
1482.597, 230.717
1483.778, 191.282
1484.958, 186.811
1486.138, 149.311
1487.318, 210.784
1488.498, 109.260
1489.678, 180.766
1490.857, 172.339
1492.037, 260.036
1493.216, 325.845
1494.395, 152.808
1495.574, 249.957
1496.752, 142.307
1497.931, 230.806
1499.109, 93.413
1500.287, 39.125
1501.465, 20.946
1502.643, 99.901
1503.820, 142.033
1504.998, 71.380
1506.175, 104.990
1507.352, 77.897
1508.529, 104.127
1509.706, 108.696
1510.882, 204.655
1512.059, 80.090
1513.235, 93.108
1514.411, 7.166
1515.587, 12.419
1516.762, 9.117
1517.938, 70.993
1519.113, 91.238
1520.288, 0.000
##END=



