##NAMES=Epidote
##RRUFFID=R050131
##IDEAL CHEMISTRY=Ca_2_Fe^3+^Al_2_(Si_2_O_7_)(SiO_4_)O(OH)
##LOCALITY=Calumet mine, Chaffee County, Colorado, USA
##OWNER=RRUFF
##SOURCE=Dave Bunk Minerals
##DESCRIPTION=Green prismatic crystal
##STATUS=The identification of this mineral has been confirmed by X-ray diffraction and chemical analysis
##URL=rruff.info/R050131
##MEASURED CHEMISTRY=Ca_2.00_Al_2.00_(Fe^3+^_0.75_Al_0.25_)(SiO_4_)(Si_2_O_7_)O(OH)
##PIN_ID=L00405
##ORIENTATION=Laser parallel to b* (0 1 0). Fiducial mark perpendicular to laser is parallel to c [0 0 1]
121.310, 0.000
122.701, 11.896
124.092, 197.945
125.482, 24.328
126.873, 68.590
128.263, 315.148
129.653, 473.289
131.042, 1053.539
132.432, 1429.050
133.821, 1958.406
135.210, 2073.025
136.599, 2231.741
137.987, 2049.142
139.376, 1602.428
140.764, 1613.184
142.152, 1232.113
143.539, 1561.404
144.927, 1887.314
146.314, 2684.229
147.701, 3318.132
149.088, 3395.993
150.474, 3421.279
151.861, 2389.369
153.247, 2219.573
154.633, 1867.182
156.018, 2123.572
157.404, 2505.956
158.789, 3223.433
160.174, 4673.886
161.559, 5738.753
162.943, 8262.933
164.327, 9597.513
165.711, 11680.052
167.095, 12465.321
168.479, 11481.369
169.862, 10932.230
171.246, 8598.908
172.628, 7390.717
174.011, 5951.680
175.394, 4882.858
176.776, 4264.235
178.158, 3236.797
179.540, 2841.529
180.922, 2103.419
182.303, 1897.457
183.684, 1510.633
185.065, 1256.937
186.446, 1181.509
187.826, 842.345
189.207, 908.583
190.587, 530.470
191.967, 571.365
193.346, 387.176
194.726, 364.872
196.105, 358.450
197.484, 243.919
198.862, 515.289
200.241, 407.566
201.619, 523.761
202.997, 561.879
204.375, 545.957
205.753, 548.078
207.130, 209.220
208.507, 291.424
209.884, 30.696
211.261, 38.961
212.638, 156.550
214.014, 245.072
215.390, 117.532
216.766, 230.933
218.141, 93.283
219.517, 178.588
220.892, 105.855
222.267, 1.914
223.642, 37.285
225.016, 361.544
226.391, 255.401
227.765, 628.271
229.139, 728.132
230.512, 988.972
231.886, 1489.794
233.259, 1789.600
234.632, 2659.391
236.005, 3118.168
237.377, 4332.935
238.749, 5218.693
240.122, 6524.440
241.493, 8490.181
242.865, 9825.909
244.237, 12611.632
245.608, 13467.346
246.979, 14893.056
248.350, 14738.742
249.720, 12954.863
251.090, 11962.697
252.461, 8979.162
253.830, 7766.121
255.200, 5776.067
256.570, 4687.593
257.939, 3927.014
259.308, 2971.466
260.677, 2795.331
262.045, 2166.995
263.414, 2207.280
264.782, 1855.781
266.150, 1830.220
267.517, 2040.269
268.885, 1789.361
270.252, 2013.494
271.619, 1870.664
272.986, 2299.868
274.353, 2327.107
275.719, 2375.382
277.085, 2609.696
278.451, 2185.048
279.817, 2324.438
281.182, 1956.869
282.548, 2078.338
283.913, 2182.847
285.278, 2213.394
286.642, 2729.835
288.007, 2862.067
289.371, 3610.164
290.735, 3976.972
292.099, 4779.566
293.462, 5937.321
294.826, 6355.192
296.189, 7743.150
297.552, 7141.173
298.914, 7079.236
300.277, 6007.315
301.639, 4805.395
303.001, 4267.465
304.363, 3155.521
305.724, 3034.561
307.086, 2356.581
308.447, 1976.581
309.808, 1571.525
311.168, 1138.373
312.529, 1046.119
313.889, 737.777
315.249, 850.358
316.609, 813.870
317.969, 826.323
319.328, 1032.722
320.687, 944.074
322.046, 1280.383
323.405, 1264.651
324.764, 1685.882
326.122, 1857.081
327.480, 1907.251
328.838, 2496.391
330.196, 2242.461
331.553, 2950.186
332.910, 3053.438
334.267, 3578.283
335.624, 4268.779
336.981, 4388.157
338.337, 5579.564
339.693, 5754.999
341.049, 6910.457
342.405, 8075.939
343.760, 9401.444
345.116, 12296.976
346.471, 13902.527
347.826, 17988.098
349.180, 19763.686
350.535, 21519.301
351.889, 22374.920
353.243, 19350.549
354.597, 17916.186
355.950, 13961.821
357.304, 11597.463
358.657, 9003.108
360.010, 6858.759
361.362, 5704.221
362.715, 4119.881
364.067, 3563.548
365.419, 2652.220
366.771, 2075.898
368.123, 1796.584
369.474, 1228.275
370.825, 1061.703
372.176, 621.407
373.527, 499.512
374.877, 293.639
376.228, 109.456
377.578, 98.784
378.928, 125.818
380.277, 106.515
381.627, 264.545
382.976, 240.943
384.325, 169.783
385.674, 302.848
387.023, 166.397
388.371, 214.039
389.719, 158.736
391.067, 94.473
392.415, 114.231
393.762, 20.981
395.110, 137.802
396.457, 60.383
397.804, 4.575
399.150, 10.779
400.497, 81.988
401.843, 18.791
403.189, 233.447
404.535, 43.698
405.881, 81.989
407.226, 175.314
408.571, 24.682
409.916, 262.111
411.261, 166.578
412.605, 370.084
413.950, 452.588
415.294, 650.018
416.638, 1031.376
417.981, 1175.635
419.325, 1815.847
420.668, 2176.065
422.011, 2963.293
423.354, 3998.598
424.697, 4551.959
426.039, 6058.378
427.381, 6163.860
428.723, 6909.398
430.065, 7145.001
431.406, 7020.636
432.748, 8026.308
434.089, 7792.011
435.430, 9237.734
436.770, 9413.493
438.111, 10099.273
439.451, 11345.081
440.791, 10920.900
442.131, 12526.735
443.471, 12472.588
444.810, 14328.450
446.149, 16774.326
447.488, 19270.225
448.827, 24456.113
450.166, 25791.998
451.504, 29177.885
452.842, 28133.775
454.180, 25349.666
455.518, 25645.545
456.855, 22221.430
458.193, 22337.299
459.530, 20303.164
460.867, 18959.023
462.203, 18474.873
463.540, 15820.718
464.876, 15566.555
466.212, 13172.386
467.548, 11778.205
468.883, 10794.023
470.219, 8689.828
471.554, 8225.628
472.889, 6681.418
474.224, 6397.207
475.558, 5722.986
476.892, 5108.765
478.227, 5134.537
479.561, 4434.306
480.894, 4735.171
482.228, 4450.233
483.561, 4375.993
484.894, 4837.362
486.227, 4378.451
487.559, 4906.738
488.892, 4802.220
490.224, 4918.259
491.556, 5235.609
492.888, 5003.884
494.220, 5697.895
495.551, 5484.394
496.882, 6110.390
498.213, 6446.895
499.544, 6592.636
500.874, 7628.576
502.205, 7484.538
503.535, 8670.282
504.865, 8716.215
506.194, 8651.960
507.524, 9517.700
508.853, 8693.443
510.182, 9399.184
511.511, 8684.925
512.840, 8050.675
514.168, 7566.412
515.496, 5922.337
516.824, 5358.073
518.152, 4183.805
519.480, 3678.536
520.807, 3634.264
522.134, 3130.990
523.461, 3548.715
524.788, 3446.437
526.114, 3601.155
527.441, 3361.872
528.767, 2752.585
530.093, 2674.295
531.418, 1803.002
532.744, 1593.707
534.069, 1220.419
535.394, 924.159
536.719, 864.474
538.044, 586.900
539.368, 682.246
540.693, 507.386
542.017, 451.900
543.340, 532.370
544.664, 310.627
545.987, 379.628
547.311, 412.371
548.634, 423.164
549.956, 547.468
551.279, 599.848
552.601, 905.029
553.923, 1027.867
555.245, 1346.230
556.567, 1791.712
557.889, 2044.328
559.210, 2912.719
560.531, 3469.940
561.852, 4911.267
563.173, 6587.641
564.493, 8621.878
565.813, 12404.174
567.133, 13498.726
568.453, 15007.701
569.773, 13190.944
571.092, 9805.238
572.412, 7871.965
573.731, 5115.507
575.049, 4088.000
576.368, 3110.841
577.686, 2608.642
579.005, 2411.142
580.323, 2139.450
581.640, 2388.557
582.958, 2296.420
584.275, 2424.758
585.593, 2881.506
586.909, 2796.228
588.226, 3452.188
589.543, 3486.415
590.859, 3827.698
592.175, 4243.160
593.491, 4400.046
594.807, 5468.189
596.122, 5812.828
597.438, 6839.966
598.753, 7886.557
600.068, 8082.775
601.382, 9168.882
602.697, 8424.713
604.011, 8120.527
605.325, 7916.321
606.639, 6342.096
607.952, 6317.853
609.266, 5046.591
610.579, 4605.309
611.892, 4310.007
613.205, 3554.686
614.518, 3739.345
615.830, 3059.984
617.142, 2895.603
618.454, 2648.202
619.766, 2017.781
621.078, 1960.340
622.389, 1445.878
623.700, 1287.396
625.011, 1138.892
626.322, 843.368
627.632, 784.823
628.943, 571.257
630.253, 528.670
631.563, 508.409
632.872, 296.922
634.182, 362.799
635.491, 236.692
636.800, 269.567
638.109, 191.526
639.418, 144.372
640.726, 251.249
642.035, 71.124
643.343, 137.943
644.651, 90.796
645.958, 44.554
647.266, 150.334
648.573, 75.961
649.880, 94.455
651.187, 157.815
652.494, 41.811
653.800, 163.081
655.106, 43.021
656.412, 242.931
657.718, 179.815
659.024, 174.675
660.329, 359.508
661.634, 184.317
662.939, 326.100
664.244, 279.858
665.549, 240.591
666.853, 300.300
668.157, 244.984
669.461, 230.643
670.765, 283.277
672.069, 188.885
673.372, 330.466
674.675, 257.022
675.978, 409.552
677.281, 419.057
678.583, 501.536
679.886, 690.990
681.188, 578.417
682.490, 829.818
683.792, 914.193
685.093, 1012.542
686.394, 1288.865
687.696, 1249.161
688.997, 1443.431
690.297, 1394.674
691.598, 1310.891
692.898, 1335.080
694.198, 1054.245
695.498, 1014.384
696.798, 926.539
698.097, 728.701
699.397, 836.911
700.696, 573.162
701.995, 688.432
703.293, 607.756
704.592, 505.097
705.890, 504.469
707.188, 282.856
708.486, 337.241
709.784, 226.628
711.081, 116.990
712.378, 116.354
713.675, 9.685
714.972, 90.967
716.269, 32.216
717.565, 25.577
718.862, 34.566
720.158, 89.335
721.453, 55.340
722.749, 88.432
724.045, 164.630
725.340, 66.973
726.635, 83.411
727.930, 121.953
729.224, 166.620
730.519, 181.675
731.813, 123.406
733.107, 186.502
734.401, 181.758
735.694, 99.169
736.988, 191.695
738.281, 108.381
739.574, 132.185
740.867, 123.119
742.160, 107.179
743.452, 127.355
744.744, 4.659
746.036, 22.025
747.328, 9.463
748.620, 55.035
749.911, 21.506
751.202, 19.882
752.493, 33.222
753.784, 83.519
755.075, 166.779
756.365, 188.006
757.655, 334.200
758.945, 360.364
760.235, 497.498
761.525, 679.602
762.814, 655.675
764.103, 1025.720
765.392, 1101.734
766.681, 1304.719
767.969, 1466.674
769.258, 1493.600
770.546, 1685.496
771.834, 1536.363
773.122, 1484.201
774.409, 1421.010
775.697, 1051.790
776.984, 1025.542
778.271, 735.264
779.558, 626.958
780.844, 561.623
782.131, 312.259
783.417, 297.868
784.703, 261.448
785.989, 136.000
787.274, 183.521
788.560, 90.013
789.845, 79.473
791.130, 76.900
792.415, 50.295
793.699, 70.558
794.983, 55.439
796.268, 48.885
797.552, 54.537
798.835, 38.433
800.119, 53.096
801.402, 39.530
802.686, 68.372
803.969, 91.868
805.251, 115.408
806.534, 197.182
807.816, 120.441
809.098, 237.177
810.380, 267.382
811.662, 197.323
812.944, 319.044
814.225, 267.716
815.506, 263.583
816.787, 378.241
818.068, 226.059
819.349, 357.854
820.629, 259.625
821.909, 351.372
823.189, 379.095
824.469, 338.785
825.749, 342.461
827.028, 331.925
828.307, 367.555
829.586, 447.163
830.865, 328.748
832.144, 504.311
833.422, 517.851
834.700, 439.370
835.978, 599.866
837.256, 516.341
838.534, 588.800
839.811, 697.238
841.088, 594.655
842.365, 815.050
843.642, 754.425
844.919, 901.778
846.195, 953.112
847.472, 932.425
848.748, 1182.718
850.023, 1131.993
851.299, 1293.246
852.575, 1564.483
853.850, 1547.700
855.125, 1716.897
856.400, 1886.075
857.674, 1922.232
858.949, 2275.391
860.223, 2240.552
861.497, 2671.675
862.771, 2712.802
864.045, 3099.141
865.318, 3634.633
866.591, 3671.221
867.864, 4428.247
869.137, 4829.560
870.410, 5143.331
871.682, 6164.985
872.955, 6387.739
874.227, 7448.297
875.499, 8500.938
876.770, 8501.459
878.042, 9937.149
879.313, 9508.941
880.584, 9479.659
881.855, 9457.923
883.126, 7893.356
884.396, 7897.817
885.667, 6655.917
886.937, 5987.047
888.207, 5761.459
889.476, 4728.050
890.746, 4809.826
892.015, 4231.830
893.284, 3778.342
894.553, 3786.427
895.822, 3185.534
897.090, 3113.386
898.359, 2933.953
899.627, 2652.448
900.895, 2827.750
902.163, 2526.610
903.430, 2709.193
904.698, 2881.264
905.965, 2717.818
907.232, 3178.903
908.499, 3202.341
909.765, 3333.879
911.032, 3821.675
912.298, 3704.473
913.564, 4137.284
914.830, 4108.096
916.095, 3891.910
917.361, 3983.726
918.626, 3412.543
919.891, 3331.363
921.156, 2978.188
922.420, 2598.015
923.685, 2377.850
924.949, 1866.687
926.213, 1677.527
927.477, 1564.371
928.740, 1192.218
930.004, 1244.072
931.267, 964.930
932.530, 865.792
933.793, 819.660
935.056, 625.532
936.318, 734.419
937.581, 577.311
938.843, 518.859
940.104, 604.618
941.366, 413.998
942.628, 426.345
943.889, 438.696
945.150, 281.948
946.411, 432.300
947.672, 304.611
948.932, 262.909
950.193, 287.250
951.453, 248.538
952.713, 313.904
953.973, 343.234
955.232, 334.701
956.491, 366.283
957.751, 271.980
959.010, 345.026
960.268, 323.790
961.527, 294.868
962.785, 394.957
964.044, 339.062
965.302, 336.178
966.559, 444.304
967.817, 408.444
969.075, 582.598
970.332, 635.770
971.589, 703.952
972.846, 976.145
974.102, 938.355
975.359, 1300.576
976.615, 1564.808
977.871, 1792.049
979.127, 2409.302
980.383, 2510.565
981.638, 3027.839
982.893, 3209.133
984.149, 2953.440
985.404, 3006.760
986.658, 2353.091
987.913, 2019.437
989.167, 1800.174
990.421, 1214.544
991.675, 1132.928
992.929, 911.322
994.183, 656.742
995.436, 625.174
996.689, 475.618
997.942, 335.084
999.195, 318.766
1000.448, 138.261
1001.700, 214.770
1002.952, 132.941
1004.204, 94.482
1005.456, 108.117
1006.708, 20.802
1007.959, 110.383
1009.210, 34.219
1010.461, 0.175
1011.712, 69.502
1012.963, 0.052
1014.213, 35.390
1015.464, 116.637
1016.714, 15.087
1017.964, 83.624
1019.214, 28.358
1020.463, 131.114
1021.712, 288.037
1022.962, 191.982
1024.210, 305.825
1025.459, 326.944
1026.708, 224.886
1027.956, 364.881
1029.204, 362.324
1030.452, 324.438
1031.700, 465.612
1032.948, 371.545
1034.195, 566.853
1035.442, 693.233
1036.689, 641.438
1037.936, 901.963
1039.183, 880.604
1040.429, 1044.260
1041.676, 1227.001
1042.922, 1132.313
1044.168, 1408.173
1045.413, 1267.010
1046.659, 1305.986
1047.904, 1353.023
1049.149, 1083.457
1050.394, 1195.557
1051.639, 1062.687
1052.884, 949.834
1054.128, 972.014
1055.372, 828.215
1056.616, 857.435
1057.860, 794.671
1059.104, 729.923
1060.347, 906.187
1061.590, 761.666
1062.833, 755.668
1064.076, 877.968
1065.319, 774.282
1066.561, 753.607
1067.803, 744.944
1069.046, 653.382
1070.287, 892.266
1071.529, 770.678
1072.771, 916.032
1074.012, 1061.427
1075.253, 957.832
1076.494, 1364.272
1077.735, 1439.700
1078.975, 1586.055
1080.216, 2032.510
1081.456, 2094.976
1082.696, 2520.716
1083.936, 2867.204
1085.175, 2962.193
1086.415, 3744.755
1087.654, 3848.274
1088.893, 3889.857
1090.132, 4267.404
1091.371, 3535.155
1092.609, 3504.392
1093.847, 2798.975
1095.085, 2023.984
1096.323, 1847.759
1097.561, 1281.605
1098.799, 1036.167
1100.036, 906.870
1101.273, 647.557
1102.510, 592.205
1103.747, 566.118
1104.983, 441.923
1106.220, 544.644
1107.456, 409.354
1108.692, 394.905
1109.928, 467.632
1111.163, 325.403
1112.399, 411.910
1113.634, 246.712
1114.869, 179.649
1116.104, 299.882
1117.339, 125.275
1118.573, 226.110
1119.808, 246.297
1121.042, 275.248
1122.276, 327.961
1123.509, 305.356
1124.743, 324.846
1125.976, 282.888
1127.210, 131.708
1128.443, 137.733
1129.675, 185.628
1130.908, 0.489
1132.141, 170.355
1133.373, 109.255
1134.605, 19.676
1135.837, 123.200
1137.068, 52.863
1138.300, 8.532
1139.531, 49.840
1140.762, 27.696
1141.993, 52.962
1143.224, 20.935
1144.455, 22.947
1145.685, 120.184
1146.915, 11.945
1148.145, 56.254
1149.375, 37.504
1150.605, 27.546
1151.834, 43.250
1153.063, 4.846
1154.292, 6.931
1155.521, 43.773
1156.750, 118.279
1157.978, 23.554
1159.207, 35.798
1160.435, 28.962
1161.663, 31.592
1162.891, 14.994
1164.118, 21.986
1165.345, 27.338
1166.573, 6.197
1167.800, 11.375
1169.026, 5.631
1170.253, 53.827
1171.480, 30.405
1172.706, 8.302
1173.932, 63.697
1175.158, 33.995
1176.383, 36.006
1177.609, 46.331
1178.834, 60.471
1180.059, 19.683
1181.284, 130.530
1182.509, 24.988
1183.734, 39.263
1184.958, 67.931
1186.182, 24.163
1187.406, 71.572
1188.630, 60.766
1189.854, 11.375
1191.077, 43.409
1192.301, 54.870
1193.524, 34.744
1194.747, 62.350
1195.969, 5.675
1197.192, 142.059
1198.414, 66.640
1199.636, 37.379
1200.858, 109.979
1202.080, 20.642
1203.302, 55.184
1204.523, 77.899
1205.744, 14.529
1206.966, 92.972
1208.186, 2.662
1209.407, 41.743
1210.628, 72.699
1211.848, 28.537
1213.068, 56.956
1214.288, 50.364
1215.508, 11.848
1216.727, 0.768
1217.947, 26.600
1219.166, 7.989
1220.385, 88.345
1221.604, 65.809
1222.822, 37.118
1224.041, 137.414
1225.259, 3.986
1226.477, 143.275
1227.695, 89.522
1228.913, 11.123
1230.130, 152.340
1231.348, 26.402
1232.565, 42.765
1233.782, 93.917
1234.999, 48.570
1236.215, 87.706
1237.432, 19.829
1238.648, 7.003
1239.864, 82.088
1241.080, 14.199
1242.296, 15.743
1243.511, 22.295
1244.726, 5.413
1245.942, 58.412
1247.156, 66.393
1248.371, 6.354
1249.586, 26.288
1250.800, 50.206
1252.014, 74.235
1253.228, 120.118
1254.442, 21.012
1255.656, 146.905
1256.869, 75.723
1258.083, 2.478
1259.296, 74.297
1260.509, 45.057
1261.722, 3.825
1262.934, 22.519
1264.147, 4.797
1265.359, 30.852
1266.571, 55.470
1267.783, 0.931
1268.994, 68.724
1270.206, 55.268
1271.417, 43.854
1272.628, 118.340
1273.839, 52.802
1275.050, 86.583
1276.260, 96.982
1277.471, 15.649
1278.681, 91.695
1279.891, 34.007
1281.101, 31.298
1282.310, 88.560
1283.520, 35.422
1284.729, 39.708
1285.938, 156.916
1287.147, 19.910
1288.356, 84.386
1289.564, 76.505
1290.773, 2.395
1291.981, 128.675
1293.189, 17.521
1294.397, 48.546
1295.604, 97.566
1296.812, 5.898
1298.019, 109.057
1299.226, 106.911
1300.433, 32.706
1301.640, 100.931
1302.846, 120.552
1304.053, 10.608
1305.259, 111.275
1306.465, 6.260
1307.671, 25.125
1308.876, 68.499
1310.082, 8.618
1311.287, 103.296
1312.492, 14.952
1313.697, 16.418
1314.902, 131.043
1316.106, 44.493
1317.310, 11.067
1318.515, 63.627
1319.719, 42.127
1320.922, 63.612
1322.126, 38.934
1323.329, 4.636
1324.533, 94.799
1325.736, 44.476
1326.939, 32.826
1328.141, 123.526
1329.344, 42.075
1330.546, 66.360
1331.748, 102.585
1332.950, 8.829
1334.152, 70.222
1335.354, 85.273
1336.555, 98.901
1337.757, 127.141
1338.958, 118.274
1340.159, 47.382
1341.359, 80.652
1342.560, 173.396
1343.760, 75.440
1344.960, 106.463
1346.160, 89.468
1347.360, 201.453
1348.560, 72.414
1349.759, 104.355
1350.959, 177.269
1352.158, 68.166
1353.357, 87.831
1354.555, 184.014
1355.754, 45.844
1356.952, 143.653
1358.151, 134.542
1359.349, 93.314
1360.546, 179.934
1361.744, 114.595
1362.941, 101.221
1364.139, 171.896
1365.336, 79.520
1366.533, 239.120
1367.730, 192.673
1368.926, 11.220
1370.123, 222.790
1371.319, 169.245
1372.515, 48.671
1373.711, 195.800
1374.906, 99.170
1376.102, 122.034
1377.297, 172.339
1378.492, 5.125
1379.687, 193.729
1380.882, 142.816
1382.077, 92.883
1383.271, 235.361
1384.465, 101.910
1385.659, 149.235
1386.853, 225.663
1388.047, 84.143
1389.240, 165.591
1390.434, 232.047
1391.627, 129.623
1392.820, 226.979
1394.013, 166.646
1395.205, 72.611
1396.398, 218.361
1397.590, 138.309
1398.782, 88.353
1399.974, 175.807
1401.166, 114.366
1402.357, 150.621
1403.549, 141.047
1404.740, 88.641
1405.931, 164.367
1407.122, 91.500
1408.313, 93.687
1409.503, 212.895
1410.693, 104.434
1411.883, 72.998
1413.073, 152.858
1414.263, 68.791
1415.453, 212.834
1416.642, 137.357
1417.831, 23.336
1419.020, 126.943
1420.209, 129.196
1421.398, 79.309
1422.587, 129.912
1423.775, 70.276
1424.963, 113.672
1426.151, 193.384
1427.339, 50.826
1428.526, 64.533
1429.714, 76.554
1430.901, 31.698
1432.088, 143.356
1433.275, 122.704
1434.462, 110.862
1435.648, 149.286
1436.835, 88.536
1438.021, 59.622
1439.207, 105.376
1440.393, 22.937
1441.579, 69.521
1442.764, 80.924
1443.949, 12.554
1445.135, 177.640
1446.320, 83.468
1447.504, 27.860
1448.689, 145.371
1449.873, 25.730
1451.058, 106.922
1452.242, 150.784
1453.426, 109.635
1454.609, 220.366
1455.793, 131.540
1456.976, 48.711
1458.159, 119.545
1459.342, 40.439
1460.525, 6.503
1461.708, 139.521
1462.890, 41.486
1464.073, 5.502
1465.255, 83.565
1466.437, 32.397
1467.619, 126.323
1468.800, 111.514
1469.982, 1.249
1471.163, 172.022
1472.344, 99.330
1473.525, 46.433
1474.706, 140.716
1475.886, 54.516
1477.066, 51.799
1478.247, 168.062
1479.427, 46.252
1480.607, 53.732
1481.786, 98.655
1482.966, 16.139
1484.145, 124.562
1485.324, 79.348
1486.503, 29.602
1487.682, 155.864
1488.860, 83.136
1490.039, 82.047
1491.217, 175.254
1492.395, 105.223
1493.573, 130.257
1494.751, 124.385
1495.928, 12.546
1497.106, 81.694
1498.283, 110.846
1499.460, 5.976
1500.637, 172.174
1501.814, 42.291
1502.990, 7.170
1504.166, 131.237
1505.342, 48.598
1506.518, 102.905
1507.694, 90.635
1508.870, 71.685
1510.045, 118.820
1511.221, 113.327
1512.396, 5.298
1513.571, 97.658
1514.745, 40.257
1515.920, 26.874
1517.094, 91.837
1518.269, 0.000
##END=



