##NAMES=Epidote
##RRUFFID=R050064
##IDEAL CHEMISTRY=Ca_2_Fe^3+^Al_2_(Si_2_O_7_)(SiO_4_)O(OH)
##LOCALITY=East Xichang City, Meigu County, Sichuan Province, China
##OWNER=RRUFF
##SOURCE=Rock Currier
##DESCRIPTION=Green prismatic crystals
##STATUS=The identification of this mineral has been confirmed by X-ray diffraction and chemical analysis
##URL=rruff.info/R050064
##MEASURED CHEMISTRY=(Ca_1.99_Mn_0.01_)_Î£=2_Fe^3+^_1.00_Al_2.00_(Si_2.00_O_7_)(Si_1.00_O_4_)O(OH); 
##PIN_ID=L00177
##ORIENTATION=Laser parallel to -c* (0 0 -1). Fiducial mark perpendicular to laser is parallel to a [1 0 0]
84.529, 0.000
85.929, 5.306
87.329, 116.581
88.728, 398.589
90.128, 900.886
91.527, 1569.156
92.926, 2614.439
94.324, 3890.677
95.723, 5232.991
97.121, 5952.853
98.519, 5803.943
99.917, 4938.399
101.314, 3779.106
102.712, 2663.957
104.109, 1945.477
105.505, 1468.893
106.902, 1067.344
108.298, 893.917
109.694, 728.346
111.090, 761.260
112.486, 556.118
113.881, 461.148
115.277, 333.124
116.672, 227.950
118.066, 153.833
119.461, 108.189
120.855, 273.796
122.249, 344.032
123.643, 439.880
125.036, 539.274
126.430, 624.155
127.823, 573.469
129.216, 458.172
130.608, 428.229
132.001, 276.613
133.393, 192.831
134.785, 60.751
136.176, 25.293
137.568, 86.275
138.959, 72.009
140.350, 45.509
141.741, 77.800
143.131, 43.892
144.521, 27.203
145.911, 118.476
147.301, 44.921
148.691, 57.076
150.080, 12.763
151.469, 27.555
152.858, 0.402
154.247, 129.705
155.635, 230.774
157.024, 381.815
158.411, 644.946
159.799, 966.771
161.187, 1334.698
162.574, 1813.569
163.961, 2280.394
165.348, 2552.180
166.734, 2681.931
168.121, 2518.629
169.507, 2282.238
170.893, 1922.802
172.278, 1630.350
173.664, 1215.893
175.049, 921.444
176.434, 552.007
177.819, 262.586
179.203, 121.184
180.587, 15.806
181.971, 24.552
183.355, 57.894
184.739, 5.219
186.122, 8.526
187.505, 90.190
188.888, 99.931
190.271, 152.700
191.653, 229.500
193.035, 429.331
194.417, 781.142
195.799, 1171.896
197.180, 1732.608
198.562, 2211.348
199.943, 2517.114
201.324, 2615.113
202.704, 2735.691
204.084, 2418.542
205.465, 2108.441
206.844, 1744.387
208.224, 1481.382
209.603, 1270.424
210.983, 1133.516
212.362, 1216.027
213.740, 1368.387
215.119, 1495.832
216.497, 1805.091
217.875, 2066.735
219.253, 2425.434
220.631, 3016.206
222.008, 3450.048
223.385, 4085.963
224.762, 4574.946
226.139, 4977.000
227.515, 4947.124
228.891, 4771.316
230.267, 4243.578
231.643, 3581.141
233.018, 3048.030
234.394, 2840.757
235.769, 2707.808
237.144, 2783.919
238.518, 3134.088
239.893, 3409.316
241.267, 3392.603
242.641, 3373.948
244.014, 2971.349
245.388, 2559.809
246.761, 2071.327
248.134, 1780.906
249.507, 1567.547
250.879, 1335.665
252.252, 1222.658
253.624, 1101.373
254.996, 1154.542
256.367, 1082.056
257.739, 1183.840
259.110, 1225.837
260.481, 1409.010
261.852, 1736.333
263.222, 2062.791
264.592, 2765.345
265.962, 3902.970
267.332, 5390.660
268.702, 7433.415
270.071, 10143.234
271.440, 13473.123
272.809, 16263.076
274.178, 18153.098
275.546, 17933.180
276.915, 16023.162
278.283, 13113.055
279.650, 10292.868
281.018, 8052.762
282.385, 6502.672
283.752, 5235.605
285.119, 4739.605
286.486, 4235.680
287.852, 4186.827
289.218, 4323.043
290.584, 4783.326
291.950, 5560.673
293.316, 6484.084
294.681, 7494.557
296.046, 8325.089
297.411, 8575.683
298.775, 8276.305
300.140, 7436.933
301.504, 6396.042
302.868, 5425.477
304.231, 4808.670
305.595, 4369.182
306.958, 4362.304
308.321, 4281.085
309.684, 4376.087
311.047, 4446.139
312.409, 4237.245
313.771, 3888.780
315.133, 3478.234
316.495, 2866.104
317.856, 2503.075
319.217, 2148.378
320.578, 1930.715
321.939, 1806.090
323.299, 1825.502
324.660, 1943.946
326.020, 1810.423
327.380, 1675.933
328.739, 1488.477
330.099, 1199.054
331.458, 976.665
332.817, 653.309
334.176, 333.989
335.534, 65.704
336.892, 151.547
338.251, 290.804
339.608, 343.103
340.966, 420.454
342.323, 401.877
343.681, 258.368
345.037, 212.891
346.394, 17.218
347.751, 56.864
349.107, 119.842
350.463, 183.725
351.819, 102.318
353.174, 115.947
354.530, 106.610
355.885, 65.310
357.240, 175.043
358.594, 301.813
359.949, 471.619
361.303, 695.461
362.657, 901.339
364.011, 1129.253
365.365, 1166.204
366.718, 1182.189
368.071, 1074.212
369.424, 895.270
370.777, 611.363
372.129, 434.492
373.481, 147.657
374.833, 28.144
376.185, 121.074
377.537, 172.251
378.888, 189.648
380.239, 132.734
381.590, 118.602
382.941, 113.935
384.291, 310.514
385.642, 554.134
386.992, 635.795
388.341, 711.497
389.691, 678.240
391.040, 583.027
392.389, 392.857
393.738, 285.731
395.087, 134.613
396.435, 196.457
397.784, 17.290
399.132, 114.188
400.479, 173.157
401.827, 195.197
403.174, 374.305
404.521, 450.487
405.868, 682.740
407.215, 897.075
408.561, 1323.488
409.908, 1806.991
411.254, 2370.571
412.599, 3239.222
413.945, 4309.961
415.290, 5923.787
416.636, 8115.701
417.980, 11088.701
419.325, 15001.794
420.670, 19164.961
422.014, 23038.205
423.358, 25031.518
424.702, 25334.912
426.045, 23038.379
427.389, 20391.920
428.732, 17525.527
430.075, 15119.213
431.417, 13442.964
432.760, 12606.784
434.102, 11990.678
435.444, 11564.636
436.786, 11318.652
438.127, 11422.736
439.469, 11516.889
440.810, 12361.113
442.151, 13955.393
443.492, 15939.731
444.832, 19254.133
446.172, 23138.590
447.512, 27353.102
448.852, 32237.668
450.192, 36622.273
451.531, 41246.934
452.870, 44701.656
454.209, 46716.445
455.548, 46781.258
456.887, 43456.109
458.225, 38441.004
459.563, 32375.930
460.901, 26540.885
462.238, 21595.879
463.576, 17030.906
464.913, 13815.982
466.250, 10991.117
467.587, 9126.291
468.923, 7461.514
470.259, 6211.775
471.596, 5093.062
472.931, 4497.377
474.267, 3843.719
475.603, 3274.099
476.938, 2892.509
478.273, 2541.951
479.608, 2352.420
480.942, 2224.912
482.276, 2005.429
483.611, 2064.968
484.944, 2057.529
486.278, 1926.113
487.612, 2097.720
488.945, 2193.347
490.278, 2381.997
491.611, 2785.667
492.943, 3038.359
494.276, 3541.071
495.608, 4216.803
496.940, 4649.557
498.271, 4867.924
499.603, 5096.513
500.934, 5125.071
502.265, 4927.136
503.596, 4907.328
504.927, 4691.969
506.257, 4723.230
507.587, 4752.635
508.917, 4604.598
510.247, 4492.585
511.577, 4232.602
512.906, 4137.635
514.235, 4188.691
515.564, 4492.770
516.892, 5148.865
518.221, 6032.983
519.549, 7425.119
520.877, 7861.276
522.205, 7947.450
523.533, 7503.641
524.860, 6086.853
526.187, 4806.082
527.514, 3598.329
528.841, 2721.592
530.167, 1990.873
531.493, 1462.170
532.820, 1101.483
534.145, 901.812
535.471, 751.992
536.796, 683.396
538.122, 580.065
539.447, 485.844
540.771, 500.777
542.096, 662.538
543.420, 665.989
544.744, 761.459
546.068, 991.946
547.392, 1084.451
548.715, 1374.972
550.039, 1628.034
551.362, 2028.317
552.684, 2652.717
554.007, 3409.602
555.329, 4359.540
556.652, 6206.457
557.973, 8637.305
559.295, 12480.584
560.617, 17633.488
561.938, 23196.264
563.259, 27509.979
564.580, 28713.760
565.901, 25909.814
567.221, 21044.811
568.541, 15532.902
569.861, 11638.251
571.181, 8711.743
572.501, 6886.581
573.820, 5728.892
575.139, 5134.122
576.458, 4883.892
577.777, 4947.458
579.095, 5357.758
580.414, 5937.412
581.732, 6805.441
583.049, 7754.033
584.367, 8800.632
585.685, 9324.854
587.002, 10059.712
588.319, 10574.271
589.636, 11199.291
590.952, 12483.893
592.268, 14108.452
593.585, 16022.858
594.900, 17845.221
596.216, 18949.195
597.532, 19463.463
598.847, 19059.398
600.162, 17479.867
601.477, 16302.637
602.792, 14385.025
604.106, 13226.845
605.420, 12499.101
606.734, 11687.781
608.048, 11508.472
609.361, 11249.355
610.675, 11193.013
611.988, 10803.854
613.301, 10081.490
614.614, 9299.981
615.926, 8216.936
617.238, 7058.505
618.550, 5930.713
619.862, 5012.897
621.174, 4186.766
622.485, 3411.549
623.797, 3001.900
625.108, 2504.534
626.418, 2268.642
627.729, 1982.184
629.039, 1701.590
630.349, 1508.147
631.659, 1294.458
632.969, 1236.743
634.279, 1112.104
635.588, 956.489
636.897, 937.609
638.206, 852.635
639.515, 727.626
640.823, 647.590
642.131, 608.527
643.439, 580.436
644.747, 507.317
646.055, 500.170
647.362, 463.995
648.669, 385.791
649.976, 349.559
651.283, 299.297
652.589, 404.006
653.896, 322.686
655.202, 338.335
656.508, 351.998
657.814, 306.707
659.119, 386.473
660.424, 408.316
661.729, 375.232
663.034, 459.184
664.339, 426.161
665.643, 451.111
666.947, 457.030
668.251, 468.917
669.555, 480.771
670.859, 504.593
672.162, 536.566
673.465, 581.522
674.768, 618.863
676.071, 705.553
677.373, 760.209
678.676, 853.833
679.978, 987.422
681.280, 1143.978
682.581, 1360.499
683.883, 1596.986
685.184, 1687.438
686.485, 1879.856
687.786, 1866.239
689.087, 1748.586
690.387, 1606.898
691.687, 1346.175
692.987, 1110.429
694.287, 863.679
695.586, 756.938
696.886, 559.208
698.185, 427.478
699.484, 358.742
700.783, 272.970
702.081, 244.161
703.379, 132.315
704.677, 131.432
705.975, 69.512
707.273, 57.548
708.570, 52.539
709.868, 8.517
711.165, 40.644
712.462, 23.859
713.758, 38.155
715.055, 60.537
716.351, 54.019
717.647, 51.597
718.943, 66.271
720.238, 67.047
721.533, 102.927
722.829, 85.930
724.124, 135.047
725.418, 91.303
726.713, 61.675
728.007, 83.149
729.301, 90.735
730.595, 121.436
731.889, 114.270
733.182, 127.232
734.476, 107.329
735.769, 65.549
737.061, 87.871
738.354, 97.307
739.647, 113.861
740.939, 76.541
742.231, 87.327
743.523, 83.224
744.814, 91.231
746.106, 85.351
747.397, 85.579
748.688, 83.917
749.978, 52.362
751.269, 78.897
752.559, 84.536
753.849, 112.281
755.139, 26.146
756.429, 64.085
757.719, 59.118
759.008, 51.240
760.297, 59.448
761.586, 3.744
762.875, 37.100
764.163, 41.530
765.451, 87.038
766.739, 43.646
768.027, 6.670
769.315, 9.064
770.602, 42.145
771.890, 3.315
773.177, 15.437
774.463, 13.516
775.750, 33.554
777.036, 36.553
778.323, 17.486
779.609, 44.421
780.894, 3.292
782.180, 45.120
783.465, 55.913
784.750, 32.673
786.035, 60.397
787.320, 58.090
788.605, 39.750
789.889, 31.377
791.173, 71.970
792.457, 85.534
793.741, 150.067
795.024, 147.572
796.307, 165.048
797.591, 153.495
798.873, 209.915
800.156, 214.306
801.439, 158.670
802.721, 284.007
804.003, 190.317
805.285, 255.600
806.566, 304.857
807.848, 369.087
809.129, 341.292
810.410, 448.472
811.691, 460.625
812.971, 521.753
814.252, 594.856
815.532, 666.099
816.812, 769.984
818.092, 860.009
819.371, 992.008
820.651, 1107.981
821.930, 1362.929
823.209, 1507.852
824.488, 1728.751
825.766, 1992.625
827.045, 2205.476
828.323, 2393.302
829.601, 2429.105
830.878, 2528.885
832.156, 2553.642
833.433, 2448.376
834.710, 2321.089
835.987, 2217.780
837.264, 2058.449
838.540, 2065.097
839.817, 1917.724
841.093, 1984.331
842.369, 1904.917
843.644, 1921.484
844.920, 2046.031
846.195, 2137.560
847.470, 2198.069
848.745, 2392.560
850.020, 2577.031
851.294, 2786.486
852.568, 3143.924
853.842, 3306.344
855.116, 3759.749
856.390, 4059.139
857.663, 4626.515
858.936, 5244.882
860.209, 5604.709
861.482, 6395.321
862.755, 7325.817
864.027, 7819.837
865.299, 8432.812
866.571, 8996.812
867.843, 9449.887
869.115, 9491.537
870.386, 9173.566
871.657, 9295.743
872.928, 8796.983
874.199, 8718.170
875.470, 8497.099
876.740, 8657.087
878.010, 9303.990
879.280, 9613.646
880.550, 10655.169
881.820, 11495.359
883.089, 12645.085
884.358, 13412.901
885.627, 13671.191
886.896, 13468.697
888.164, 12967.486
889.433, 12008.942
890.701, 11239.031
891.969, 10148.573
893.236, 9397.115
894.504, 8978.044
895.771, 8638.347
897.038, 8538.953
898.305, 8959.118
899.572, 9339.708
900.838, 9890.355
902.105, 11021.175
903.371, 12024.052
904.637, 13335.341
905.902, 14706.345
907.168, 16915.678
908.433, 18560.504
909.698, 20823.029
910.963, 22835.951
912.228, 24869.455
913.492, 26572.545
914.757, 27099.225
916.021, 26793.910
917.285, 26218.418
918.548, 23380.166
919.812, 21094.729
921.075, 17872.496
922.338, 15549.420
923.601, 13127.878
924.864, 11075.737
926.126, 9463.964
927.388, 8082.219
928.650, 6864.796
929.912, 5964.461
931.174, 5073.565
932.435, 4487.385
933.697, 3946.732
934.958, 3514.647
936.218, 3219.698
937.479, 2863.600
938.739, 2693.755
940.000, 2403.939
941.260, 2223.051
942.520, 2079.141
943.779, 2031.499
945.039, 1921.953
946.298, 1855.445
947.557, 1887.968
948.816, 1822.520
950.074, 1899.101
951.333, 1885.710
952.591, 1956.348
953.849, 2100.013
955.107, 2146.709
956.365, 2266.434
957.622, 2349.190
958.879, 2464.977
960.136, 2455.793
961.393, 2752.639
962.650, 2847.515
963.906, 2347.422
965.162, 2423.360
966.418, 2529.328
967.674, 2604.329
968.930, 3009.364
970.185, 3388.430
971.441, 3936.530
972.696, 4600.665
973.950, 5690.831
975.205, 7104.028
976.459, 8352.258
977.714, 9822.518
978.968, 10852.813
980.222, 11113.139
981.475, 10513.500
982.729, 9683.896
983.982, 8134.321
985.235, 6815.780
986.488, 5618.276
987.740, 4609.805
988.993, 3889.370
990.245, 3283.968
991.497, 2791.602
992.749, 2334.270
994.000, 2029.973
995.252, 1778.713
996.503, 1515.489
997.754, 1385.301
999.005, 1285.148
1000.256, 1107.033
1001.506, 1074.106
1002.756, 933.127
1004.006, 888.366
1005.256, 867.567
1006.506, 814.164
1007.755, 876.905
1009.005, 844.263
1010.254, 921.546
1011.502, 1066.683
1012.751, 1132.958
1014.000, 1333.296
1015.248, 1472.338
1016.496, 1700.775
1017.744, 1848.707
1018.991, 1919.442
1020.239, 2027.086
1021.486, 2008.374
1022.733, 1834.318
1023.980, 1921.563
1025.227, 1841.153
1026.473, 1995.958
1027.719, 2151.963
1028.965, 2477.401
1030.211, 2829.303
1031.457, 3398.042
1032.702, 3898.754
1033.948, 4737.788
1035.193, 5505.638
1036.438, 6589.424
1037.682, 7691.710
1038.927, 8589.204
1040.171, 9273.182
1041.415, 9339.237
1042.659, 9154.159
1043.903, 8678.091
1045.146, 7872.869
1046.390, 7281.491
1047.633, 6237.960
1048.876, 5743.359
1050.118, 5183.013
1051.361, 4722.063
1052.603, 4537.342
1053.845, 4590.642
1055.087, 4779.902
1056.329, 5194.569
1057.571, 5806.417
1058.812, 6518.672
1060.053, 7162.475
1061.294, 7308.423
1062.535, 7155.597
1063.775, 6712.928
1065.016, 5932.155
1066.256, 5569.973
1067.496, 5118.081
1068.736, 5005.708
1069.975, 4947.009
1071.214, 5085.780
1072.454, 5352.154
1073.693, 5981.725
1074.931, 6565.134
1076.170, 7584.594
1077.408, 8620.677
1078.647, 10265.511
1079.885, 12421.055
1081.122, 14905.634
1082.360, 18680.238
1083.597, 21714.873
1084.835, 23369.891
1086.072, 23034.586
1087.308, 19320.926
1088.545, 16176.113
1089.781, 12341.618
1091.018, 9376.719
1092.254, 6912.037
1093.490, 5184.427
1094.725, 3974.728
1095.961, 3218.210
1097.196, 2490.631
1098.431, 2091.780
1099.666, 1764.704
1100.900, 1471.687
1102.135, 1330.650
1103.369, 1215.942
1104.603, 1124.007
1105.837, 957.438
1107.071, 858.775
1108.304, 773.873
1109.538, 708.024
1110.771, 638.163
1112.004, 623.518
1113.236, 576.733
1114.469, 553.926
1115.701, 521.526
1116.933, 479.427
1118.165, 486.697
1119.397, 390.294
1120.629, 486.293
1121.860, 535.531
1123.091, 480.784
1124.322, 466.156
1125.553, 389.488
1126.783, 312.870
1128.014, 370.329
1129.244, 229.652
1130.474, 289.069
1131.704, 280.631
1132.933, 244.992
1134.163, 226.201
1135.392, 192.584
1136.621, 201.282
1137.850, 208.996
1139.079, 176.466
1140.307, 109.119
1141.535, 136.787
1142.763, 66.935
1143.991, 95.662
1145.219, 72.524
1146.446, 41.243
1147.674, 47.202
1148.901, 11.099
1150.128, 3.991
1151.354, 15.747
1152.581, 11.183
1153.807, 26.882
1155.033, 29.924
1156.259, 46.594
1157.485, 5.498
1158.710, 36.514
1159.936, 4.421
1161.161, 62.743
1162.386, 53.263
1163.611, 11.696
1164.835, 45.606
1166.060, 38.369
1167.284, 2.898
1168.508, 67.562
1169.732, 57.989
1170.955, 40.074
1172.179, 65.615
1173.402, 23.934
1174.625, 26.097
1175.848, 54.144
1177.070, 40.612
1178.293, 54.942
1179.515, 31.344
1180.737, 35.656
1181.959, 49.006
1183.181, 63.268
1184.402, 51.485
1185.624, 84.734
1186.845, 20.962
1188.066, 56.646
1189.286, 34.430
1190.507, 12.219
1191.727, 26.724
1192.947, 21.382
1194.167, 50.114
1195.387, 12.126
1196.607, 64.010
1197.826, 36.053
1199.045, 53.255
1200.264, 51.359
1201.483, 16.578
1202.702, 3.899
1203.920, 21.243
1205.138, 41.620
1206.356, 0.041
1207.574, 32.487
1208.792, 49.974
1210.009, 34.513
1211.227, 46.961
1212.444, 6.734
1213.661, 25.402
1214.877, 18.887
1216.094, 56.155
1217.310, 1.407
1218.526, 37.627
1219.742, 8.170
1220.958, 4.005
1222.173, 47.124
1223.389, 4.235
1224.604, 31.312
1225.819, 17.368
1227.034, 64.395
1228.248, 72.403
1229.463, 59.393
1230.677, 37.366
1231.891, 55.316
1233.105, 12.245
1234.318, 39.141
1235.532, 33.014
1236.745, 45.862
1237.958, 41.686
1239.171, 41.702
1240.384, 46.268
1241.596, 43.028
1242.809, 46.764
1244.021, 57.479
1245.233, 88.172
1246.444, 76.240
1247.656, 98.497
1248.867, 61.125
1250.079, 76.871
1251.290, 60.543
1252.500, 66.099
1253.711, 88.730
1254.921, 82.241
1256.132, 91.654
1257.342, 74.189
1258.552, 85.623
1259.761, 97.031
1260.971, 70.412
1262.180, 61.762
1263.389, 96.134
1264.598, 76.425
1265.807, 63.683
1267.015, 121.170
1268.223, 125.384
1269.432, 99.620
1270.640, 113.783
1271.847, 107.034
1273.055, 99.452
1274.262, 136.562
1275.470, 113.603
1276.677, 98.636
1277.883, 136.707
1279.090, 73.620
1280.296, 148.444
1281.503, 98.233
1282.709, 99.052
1283.915, 130.863
1285.120, 106.639
1286.326, 107.399
1287.531, 85.079
1288.736, 106.713
1289.941, 100.325
1291.146, 110.843
1292.350, 98.332
1293.555, 115.790
1294.759, 103.066
1295.963, 81.415
1297.167, 142.593
1298.370, 56.763
1299.574, 103.544
1300.777, 87.189
1301.980, 96.224
1303.183, 102.371
1304.386, 104.644
1305.588, 69.792
1306.790, 49.913
1307.993, 100.328
1309.195, 71.381
1310.396, 86.967
1311.598, 84.781
1312.799, 139.721
1314.000, 71.054
1315.201, 95.762
1316.402, 71.208
1317.603, 105.346
1318.803, 94.317
1320.003, 87.158
1321.203, 112.593
1322.403, 97.706
1323.603, 99.477
1324.802, 91.117
1326.002, 91.114
1327.201, 82.350
1328.400, 75.691
1329.599, 73.586
1330.797, 66.323
1331.995, 93.609
1333.194, 43.895
1334.392, 94.327
1335.589, 69.799
1336.787, 76.469
1337.985, 79.332
1339.182, 110.420
1340.379, 84.594
1341.576, 96.556
1342.772, 142.162
1343.969, 86.579
1345.165, 100.008
1346.361, 164.515
1347.557, 132.659
1348.753, 173.665
1349.949, 129.290
1351.144, 135.401
1352.339, 170.400
1353.534, 149.205
1354.729, 165.886
1355.924, 187.692
1357.118, 170.931
1358.312, 183.909
1359.506, 204.408
1360.700, 165.263
1361.894, 179.664
1363.088, 215.483
1364.281, 194.116
1365.474, 212.931
1366.667, 177.708
1367.860, 146.882
1369.052, 185.322
1370.245, 199.073
1371.437, 162.815
1372.629, 145.555
1373.821, 158.683
1375.013, 166.071
1376.204, 153.433
1377.395, 141.046
1378.586, 154.603
1379.777, 163.081
1380.968, 155.500
1382.159, 155.637
1383.349, 119.532
1384.539, 134.566
1385.729, 122.366
1386.919, 100.249
1388.109, 135.307
1389.298, 103.078
1390.487, 91.615
1391.676, 143.735
1392.865, 50.373
1394.054, 63.262
1395.242, 107.915
1396.431, 61.414
1397.619, 99.031
1398.807, 165.431
1399.995, 294.022
1401.182, 245.142
1402.370, 300.927
1403.557, 185.172
1404.744, 99.663
1405.931, 67.010
1407.118, 80.407
1408.304, 98.237
1409.490, 24.372
1410.676, 65.489
1411.862, 51.190
1413.048, 53.568
1414.234, 26.030
1415.419, 5.574
1416.604, 33.532
1417.789, 38.963
1418.974, 31.449
1420.159, 17.847
1421.343, 41.401
1422.528, 66.693
1423.712, 51.524
1424.896, 32.120
1426.079, 22.481
1427.263, 21.391
1428.446, 15.962
1429.629, 26.295
1430.812, 28.623
1431.995, 25.843
1433.178, 51.428
1434.360, 51.032
1435.543, 48.655
1436.725, 39.347
1437.907, 34.100
1439.088, 23.879
1440.270, 48.634
1441.451, 44.381
1442.632, 46.143
1443.813, 36.898
1444.994, 26.636
1446.175, 78.330
1447.355, 65.990
1448.535, 25.634
1449.715, 67.248
1450.895, 46.817
1452.075, 70.325
1453.255, 61.776
1454.434, 60.170
1455.613, 70.203
1456.792, 34.297
1457.971, 49.312
1459.149, 77.508
1460.328, 93.677
1461.506, 15.827
1462.684, 45.830
1463.862, 50.282
1465.040, 14.172
1466.217, 37.819
1467.395, 16.784
1468.572, 15.653
1469.749, 77.412
1470.925, 61.892
1472.102, 45.947
1473.278, 43.901
1474.455, 6.151
1475.631, 62.596
1476.807, 14.246
1477.982, 58.842
1479.158, 76.273
1480.333, 5.881
1481.508, 42.358
1482.683, 66.934
1483.858, 54.393
1485.033, 25.948
1486.207, 52.505
1487.381, 34.089
1488.555, 48.708
1489.729, 41.216
1490.903, 35.922
1492.076, 65.584
1493.250, 62.441
1494.423, 42.444
1495.596, 69.530
1496.769, 34.462
1497.941, 66.678
1499.114, 32.749
1500.286, 36.114
1501.458, 82.588
1502.630, 50.188
1503.802, 34.942
1504.973, 43.880
1506.145, 38.013
1507.316, 76.365
1508.487, 77.996
1509.657, 84.964
1510.828, 76.334
1511.999, 50.209
1513.169, 75.743
1514.339, 0.831
1515.509, 89.857
1516.678, 0.000
##END=



