##NAMES=Epidote
##RRUFFID=R050064
##IDEAL CHEMISTRY=Ca_2_Fe^3+^Al_2_(Si_2_O_7_)(SiO_4_)O(OH)
##LOCALITY=East Xichang City, Meigu County, Sichuan Province, China
##OWNER=RRUFF
##SOURCE=Rock Currier
##DESCRIPTION=Green prismatic crystals
##STATUS=The identification of this mineral has been confirmed by X-ray diffraction and chemical analysis
##URL=rruff.info/R050064
##MEASURED CHEMISTRY=(Ca_1.99_Mn_0.01_)_Î£=2_Fe^3+^_1.00_Al_2.00_(Si_2.00_O_7_)(Si_1.00_O_4_)O(OH); 
##PIN_ID=L00111
##ORIENTATION=Laser parallel to (-1 0 -1). Fiducial mark perpendicular to laser is parallel to -b [0 -1 0]
95.723, 0.000
97.121, 929.816
98.519, 1780.855
99.917, 1800.946
101.314, 1791.855
102.712, 1235.664
104.109, 1080.577
105.505, 556.963
106.902, 421.962
108.298, 307.096
109.694, 74.494
111.090, 268.647
112.486, 5.333
113.881, 347.081
115.277, 112.633
116.672, 200.410
118.066, 151.768
119.461, 122.310
120.855, 431.873
122.249, 323.919
123.643, 976.887
125.036, 811.126
126.430, 1196.919
127.823, 1432.499
129.216, 1462.053
130.608, 1800.734
132.001, 1388.684
133.393, 1486.083
134.785, 906.040
136.176, 814.621
137.568, 756.879
138.959, 573.522
140.350, 922.078
141.741, 560.445
143.131, 1205.107
144.521, 864.774
145.911, 1196.795
147.301, 1178.154
148.691, 1009.836
150.080, 1142.825
151.469, 693.107
152.858, 1007.668
154.247, 591.494
155.635, 712.578
157.024, 790.910
158.411, 544.479
159.799, 986.265
161.187, 617.243
162.574, 944.400
163.961, 682.738
165.348, 824.253
166.734, 935.955
168.121, 413.457
169.507, 855.582
170.893, 181.178
172.278, 519.913
173.664, 239.770
175.049, 249.747
176.434, 194.847
177.819, 101.931
179.203, 216.416
180.587, 237.109
181.971, 1.496
183.355, 214.783
184.739, 151.947
186.122, 33.034
187.505, 304.048
188.888, 121.054
190.271, 134.730
191.653, 337.600
193.035, 228.036
194.417, 428.578
195.799, 898.222
197.180, 1042.967
198.562, 1837.811
199.943, 1782.752
201.324, 2387.775
202.704, 2552.865
204.084, 2208.016
205.465, 2363.230
206.844, 1618.514
208.224, 1773.865
209.603, 1049.287
210.983, 994.784
212.362, 880.354
213.740, 676.002
215.119, 821.728
216.497, 343.532
217.875, 773.416
219.253, 407.383
220.631, 535.323
222.008, 671.140
223.385, 576.795
224.762, 902.322
226.139, 667.786
227.515, 1193.301
228.891, 1028.920
230.267, 1364.645
231.643, 1610.474
233.018, 1726.406
234.394, 2452.542
235.769, 2679.007
237.144, 3755.619
238.518, 4523.319
239.893, 5248.641
241.267, 6081.041
242.641, 6032.955
244.014, 6138.884
245.388, 5095.700
246.761, 4643.285
248.134, 3770.288
249.507, 2767.390
250.879, 2484.587
252.252, 1571.878
253.624, 1699.263
254.996, 1146.741
256.367, 1234.312
257.739, 1131.979
259.110, 809.737
260.481, 1317.593
261.852, 1075.760
263.222, 1574.344
264.592, 1733.046
265.962, 2201.700
267.332, 3140.387
268.702, 3728.667
270.071, 5367.031
271.440, 6475.526
272.809, 8274.134
274.178, 9402.826
275.546, 9766.740
276.915, 9805.570
278.283, 8084.057
279.650, 7093.002
281.018, 5332.005
282.385, 4591.058
283.752, 3850.122
285.119, 3359.165
286.486, 3658.199
287.852, 3057.231
289.218, 3826.273
290.584, 3635.331
291.950, 4454.413
293.316, 5373.525
294.681, 5752.668
296.046, 7201.850
297.411, 7091.072
298.775, 7510.336
300.140, 6929.646
301.504, 6039.004
302.868, 5298.253
304.231, 3937.229
305.595, 3755.846
306.958, 2964.160
308.321, 2942.418
309.684, 2890.768
311.047, 2709.207
312.409, 3507.737
313.771, 2926.355
315.133, 3365.062
316.495, 2803.854
317.856, 2392.730
319.217, 2391.690
320.578, 1500.736
321.939, 1939.861
323.299, 1509.068
324.660, 1878.356
326.020, 2007.724
327.380, 1867.170
328.739, 2496.693
330.099, 1896.297
331.458, 2465.990
332.817, 2055.759
334.176, 1905.597
335.534, 1975.505
336.892, 1235.480
338.251, 1725.534
339.608, 1215.656
340.966, 1565.845
342.323, 1577.169
343.681, 1897.490
345.037, 2690.860
346.394, 2619.184
347.751, 3464.456
349.107, 3273.918
350.463, 3410.861
351.819, 3351.277
353.174, 2732.090
354.530, 2733.612
355.885, 1654.554
357.240, 1705.559
358.594, 1416.629
359.949, 1067.763
361.303, 1448.959
362.657, 990.217
364.011, 1731.538
365.365, 1432.922
366.718, 1524.367
368.071, 1705.875
369.424, 1166.348
370.777, 1387.979
372.129, 741.465
373.481, 793.215
374.833, 495.448
376.185, 145.379
377.537, 327.307
378.888, 425.208
380.239, 126.754
381.590, 391.226
382.941, 159.223
384.291, 7.184
385.642, 336.158
386.992, 355.932
388.341, 231.920
389.691, 140.250
391.040, 222.478
392.389, 34.808
393.738, 367.196
395.087, 30.357
396.435, 472.206
397.784, 144.826
399.132, 57.573
400.479, 490.374
401.827, 113.140
403.174, 675.907
404.521, 378.699
405.868, 671.570
407.215, 804.451
408.561, 717.389
409.908, 1480.387
411.254, 1283.436
412.599, 2226.624
413.945, 2579.862
415.290, 3403.152
416.636, 4856.549
417.980, 6059.996
419.325, 8583.584
420.670, 10317.220
422.014, 12920.910
423.358, 14934.687
424.702, 15478.507
426.045, 15852.481
427.389, 14156.500
428.732, 13180.565
430.075, 11764.727
431.417, 10718.938
432.760, 11073.273
434.102, 10547.654
435.444, 11732.083
436.786, 11766.603
438.127, 12621.189
439.469, 13855.884
440.810, 14210.619
442.151, 16755.404
443.492, 18100.297
444.832, 21705.234
446.172, 25920.281
447.512, 29225.369
448.852, 35070.504
450.192, 38335.750
451.531, 43391.051
452.870, 46416.426
454.209, 48991.848
455.548, 51607.309
456.887, 49402.895
458.225, 46678.527
459.563, 41534.207
460.901, 34939.941
462.238, 29775.713
463.576, 23191.605
464.913, 19567.541
466.250, 15443.565
467.587, 12609.632
468.923, 10415.747
470.259, 8231.971
471.596, 7328.241
472.931, 5664.576
474.267, 5370.955
475.603, 4477.375
476.938, 3853.896
478.273, 3990.456
479.608, 3017.058
480.942, 3473.708
482.276, 2780.399
483.611, 3087.174
484.944, 3093.986
486.278, 2440.839
487.612, 3247.730
488.945, 2674.661
490.278, 2901.660
491.611, 3321.560
492.943, 3068.629
494.276, 4355.737
495.608, 4092.879
496.940, 5090.072
498.271, 5319.299
499.603, 5276.559
500.934, 5963.854
502.265, 4891.283
503.596, 5338.682
504.927, 4709.271
506.257, 4456.805
507.587, 4834.400
508.917, 3592.093
510.247, 3899.864
511.577, 2890.406
512.906, 2348.340
514.235, 2176.301
515.564, 1074.331
516.892, 1332.388
518.221, 700.470
519.549, 888.577
520.877, 716.710
522.205, 194.865
523.533, 923.045
524.860, 41.249
526.187, 329.476
527.514, 87.724
528.841, 214.005
530.167, 264.204
531.493, 437.565
532.820, 200.493
534.145, 11.429
535.471, 193.340
536.796, 444.694
538.122, 327.253
539.447, 352.605
540.771, 20.555
542.096, 82.331
543.420, 495.485
544.744, 226.696
546.068, 897.820
547.392, 375.775
548.715, 595.543
550.039, 1133.533
551.362, 801.143
552.684, 2039.163
554.007, 1777.305
555.329, 2529.642
556.652, 3787.706
557.973, 4381.932
559.295, 7190.021
560.617, 9268.920
561.938, 13323.472
563.259, 17181.596
564.580, 19511.256
565.901, 20419.402
567.221, 17687.756
568.541, 14268.545
569.861, 10986.710
571.181, 7654.359
572.501, 6522.537
573.820, 4420.720
575.139, 4191.298
576.458, 3539.487
577.777, 3088.963
579.095, 3647.160
580.414, 3105.422
581.732, 4141.600
583.049, 4329.797
584.367, 5011.809
585.685, 5970.002
587.002, 5718.193
588.319, 7057.582
589.636, 6825.768
590.952, 7561.607
592.268, 8879.781
593.585, 9217.946
594.900, 11306.234
596.216, 11904.389
597.532, 13036.021
598.847, 13584.152
600.162, 12212.274
601.477, 12415.812
602.792, 10673.910
604.106, 10106.431
605.420, 9594.503
606.734, 8182.566
608.048, 8857.660
609.361, 7955.693
610.675, 8172.899
611.988, 8470.906
613.301, 7478.886
614.614, 7904.990
615.926, 6332.936
617.238, 6534.280
618.550, 5542.384
619.862, 3960.269
621.174, 3897.455
622.485, 2775.296
623.797, 2792.767
625.108, 2240.914
626.418, 1728.684
627.729, 2072.002
629.039, 1189.723
630.349, 1590.845
631.659, 1168.985
632.969, 936.627
634.279, 1436.770
635.588, 564.354
636.897, 1101.911
638.206, 800.919
639.515, 388.416
640.823, 1225.443
642.131, 222.879
643.439, 1000.356
644.747, 588.169
646.055, 505.510
647.362, 1049.472
648.669, 66.748
649.976, 903.959
651.283, 471.527
652.589, 308.672
653.896, 929.098
655.202, 96.173
656.508, 793.191
657.814, 530.559
659.119, 187.505
660.424, 1004.412
661.729, 71.284
663.034, 828.086
664.339, 508.616
665.643, 415.344
666.947, 1042.032
668.251, 88.682
669.555, 885.264
670.859, 491.806
672.162, 528.308
673.465, 1054.770
674.768, 311.189
676.071, 1187.568
677.373, 723.907
678.676, 800.204
679.978, 1486.458
681.280, 892.671
682.581, 2048.841
683.883, 1664.969
685.184, 1871.055
686.485, 2758.195
687.786, 2034.196
689.087, 2758.359
690.387, 2254.278
691.687, 1959.732
692.987, 2267.505
694.287, 1153.301
695.586, 1813.555
696.886, 929.350
698.185, 825.104
699.484, 1230.891
700.783, 326.660
702.081, 1033.456
703.379, 439.207
704.677, 264.918
705.975, 740.628
707.273, 63.703
708.570, 521.836
709.868, 217.335
711.165, 147.208
712.462, 548.080
713.758, 166.673
715.055, 478.391
716.351, 133.413
717.647, 11.614
718.943, 693.255
720.238, 251.916
721.533, 562.684
722.829, 207.242
724.124, 61.757
725.418, 646.204
726.713, 219.390
728.007, 514.806
729.301, 318.958
730.595, 106.931
731.889, 827.028
733.182, 249.054
734.476, 554.637
735.769, 248.286
737.061, 38.105
738.354, 615.386
739.647, 291.162
740.939, 452.041
742.231, 275.203
743.523, 91.674
744.814, 811.306
746.106, 195.754
747.397, 416.990
748.688, 419.693
749.978, 77.645
751.269, 714.886
752.559, 132.626
753.849, 319.705
755.139, 341.994
756.429, 165.755
757.719, 556.319
759.008, 151.646
760.297, 290.220
761.586, 412.048
762.875, 196.164
764.163, 785.436
765.451, 73.006
766.739, 248.433
768.027, 399.830
769.315, 218.811
770.602, 652.352
771.890, 13.476
773.177, 194.526
774.463, 575.537
775.750, 243.489
777.036, 787.278
778.323, 91.992
779.609, 148.612
780.894, 669.178
782.180, 190.295
783.465, 690.060
784.750, 0.378
786.035, 110.625
787.320, 650.831
788.605, 148.997
789.889, 761.026
791.173, 341.016
792.457, 30.971
793.741, 630.876
795.024, 109.253
796.307, 560.496
797.591, 180.213
798.873, 89.896
800.156, 839.543
801.439, 70.844
802.721, 568.675
804.003, 365.297
805.285, 84.753
806.566, 784.174
807.848, 26.435
809.129, 1112.891
810.410, 670.188
811.691, 69.454
812.971, 868.688
814.252, 157.790
815.532, 756.965
816.812, 782.956
818.092, 47.922
819.371, 981.136
820.651, 270.165
821.930, 549.168
823.209, 1065.422
824.488, 294.374
825.766, 1263.301
827.045, 792.202
828.323, 811.079
829.601, 1449.933
830.878, 458.763
832.156, 1337.568
833.433, 1036.352
834.710, 925.111
835.987, 1523.850
837.264, 692.564
838.540, 1561.317
839.817, 1340.049
841.093, 978.802
842.369, 1797.538
843.644, 1066.352
844.920, 1725.214
846.195, 1704.060
847.470, 1272.924
848.745, 2441.830
850.020, 1630.787
851.294, 2389.726
852.568, 2808.647
853.842, 2217.550
855.116, 3606.436
856.390, 3225.346
857.663, 3874.237
858.936, 4883.168
860.209, 4242.083
861.482, 6001.378
862.755, 6330.264
864.027, 6519.031
865.299, 7763.030
866.571, 7181.914
867.843, 8274.642
869.115, 8133.531
870.386, 7411.613
871.657, 8484.043
872.928, 7182.904
874.199, 7820.225
875.470, 7819.131
876.740, 7417.820
878.010, 9194.077
879.280, 8812.979
880.550, 10262.395
881.820, 11331.287
883.089, 12230.175
884.358, 14356.667
885.627, 14715.604
886.896, 15043.263
888.164, 15862.197
889.433, 14291.073
890.701, 14362.038
891.969, 12451.002
893.236, 10676.154
894.504, 10275.121
895.771, 8084.162
897.038, 7732.008
898.305, 7081.060
899.572, 5782.458
900.838, 6391.528
902.105, 5520.605
903.371, 5629.562
904.637, 6008.656
905.902, 5284.296
907.168, 6653.436
908.433, 6202.588
909.698, 6666.330
910.963, 7425.506
912.228, 6630.268
913.492, 7829.473
914.757, 7018.693
916.021, 6680.881
917.285, 7200.136
918.548, 5880.215
919.812, 6149.499
921.075, 5068.809
922.338, 4229.994
923.601, 4439.344
924.864, 2985.291
926.126, 3094.487
927.388, 3053.902
928.650, 1784.019
929.912, 2673.479
931.174, 1633.308
932.435, 1702.465
933.697, 1971.995
934.958, 905.978
936.218, 1655.558
937.479, 1151.736
938.739, 800.896
940.000, 1490.556
941.260, 337.711
942.520, 1067.424
943.779, 927.164
945.039, 525.452
946.298, 1585.250
947.557, 685.517
948.816, 995.371
950.074, 1345.202
951.333, 514.696
952.591, 1594.657
953.849, 807.996
955.107, 998.016
956.365, 1658.081
957.622, 707.785
958.879, 1717.909
960.136, 1294.751
961.393, 924.938
962.650, 1965.168
963.906, 825.046
965.162, 1535.340
966.418, 1815.665
967.674, 1016.023
968.930, 2456.878
970.185, 1853.553
971.441, 2354.024
972.696, 3364.527
973.950, 2855.064
975.205, 4785.648
976.459, 5146.266
977.714, 5936.914
978.968, 7587.618
980.222, 7088.336
981.475, 7599.088
982.729, 7429.871
983.982, 5630.693
985.235, 5841.547
986.488, 3962.435
987.740, 3393.355
988.993, 3377.574
990.245, 1778.565
991.497, 2339.589
992.749, 1471.548
994.000, 982.652
995.252, 1589.408
996.503, 440.578
997.754, 1201.783
999.005, 1126.668
1000.256, 417.940
1001.506, 1579.246
1002.756, 550.581
1004.006, 721.967
1005.256, 1003.362
1006.506, 104.798
1007.755, 1106.275
1009.005, 610.733
1010.254, 512.294
1011.502, 1563.896
1012.751, 446.031
1014.000, 1657.763
1015.248, 1569.002
1016.496, 1420.887
1017.744, 2712.814
1018.991, 1841.543
1020.239, 2363.629
1021.486, 2905.763
1022.733, 1568.412
1023.980, 2570.665
1025.227, 1716.780
1026.473, 1539.215
1027.719, 2181.696
1028.965, 1158.006
1030.211, 1840.590
1031.457, 1993.307
1032.702, 1236.067
1033.948, 2618.875
1035.193, 2055.269
1036.438, 2648.225
1037.682, 3581.318
1038.927, 3075.893
1040.171, 4299.080
1041.415, 4166.033
1042.659, 3759.615
1043.903, 4793.088
1045.146, 3352.849
1046.390, 3756.417
1047.633, 3700.084
1048.876, 2474.828
1050.118, 3478.670
1051.361, 2282.561
1052.603, 2276.500
1053.845, 3210.537
1055.087, 2060.299
1056.329, 2684.494
1057.571, 3078.742
1058.812, 2673.587
1060.053, 4048.004
1061.294, 3232.470
1062.535, 3637.047
1063.775, 4111.678
1065.016, 2667.084
1066.256, 3761.895
1067.496, 3206.756
1068.736, 2861.713
1069.975, 3886.723
1071.214, 2781.788
1072.454, 3786.881
1073.693, 4402.017
1074.931, 3858.324
1076.170, 5733.455
1077.408, 5578.523
1078.647, 6224.070
1079.885, 8199.325
1081.122, 7994.674
1082.360, 10669.959
1083.597, 12665.287
1084.835, 13010.763
1086.072, 13444.416
1087.308, 12741.568
1088.545, 11387.709
1089.781, 10013.060
1091.018, 7088.512
1092.254, 6363.964
1093.490, 4629.459
1094.725, 3335.682
1095.961, 3561.117
1097.196, 2026.615
1098.431, 2216.928
1099.666, 2152.255
1100.900, 917.613
1102.135, 2132.984
1103.369, 1248.414
1104.603, 1083.979
1105.837, 1739.377
1107.071, 544.790
1108.304, 1011.080
1109.538, 1116.534
1110.771, 62.001
1112.004, 928.011
1113.236, 73.498
1114.469, 178.975
1115.701, 894.461
1116.933, 30.050
1118.165, 906.047
1119.397, 581.569
1120.629, 257.101
1121.860, 1462.875
1123.091, 368.414
1124.322, 623.948
1125.553, 1169.493
1126.783, 4.936
1128.014, 1101.469
1129.244, 426.938
1130.474, 32.423
1131.704, 1148.696
1132.933, 134.177
1134.163, 479.673
1135.392, 975.188
1136.621, 299.301
1137.850, 1066.695
1139.079, 202.179
1140.307, 42.311
1141.535, 1205.986
1142.763, 328.542
1143.991, 736.896
1145.219, 692.376
1146.446, 292.146
1147.674, 984.083
1148.901, 319.206
1150.128, 154.251
1151.354, 1003.657
1152.581, 406.829
1153.807, 890.737
1155.033, 718.224
1156.259, 264.254
1157.485, 923.358
1158.710, 230.977
1159.936, 11.344
1161.161, 1056.396
1162.386, 195.779
1163.611, 672.006
1164.835, 399.862
1166.060, 142.214
1167.284, 935.798
1168.508, 143.762
1169.732, 1.802
1170.955, 1009.896
1172.179, 241.952
1173.402, 856.115
1174.625, 1084.253
1175.848, 67.541
1177.070, 1160.735
1178.293, 139.021
1179.515, 377.375
1180.737, 1075.794
1181.959, 215.722
1183.181, 1172.821
1184.402, 1241.427
1185.624, 0.094
1186.845, 1018.822
1188.066, 42.400
1189.286, 106.438
1190.507, 915.338
1191.727, 235.698
1192.947, 803.329
1194.167, 492.416
1195.387, 31.566
1196.607, 1150.786
1197.826, 250.066
1199.045, 299.388
1200.264, 1348.754
1201.483, 41.802
1202.702, 1057.719
1203.920, 867.316
1205.138, 136.994
1206.356, 1366.753
1207.574, 456.601
1208.792, 495.808
1210.009, 1375.827
1211.227, 135.939
1212.444, 1056.158
1213.661, 986.438
1214.877, 336.860
1216.094, 1537.389
1217.310, 398.037
1218.526, 684.611
1219.742, 1253.469
1220.958, 74.653
1222.173, 1144.891
1223.389, 808.723
1224.604, 248.763
1225.819, 1608.904
1227.034, 619.164
1228.248, 402.591
1229.463, 1711.549
1230.677, 301.089
1231.891, 1050.673
1233.105, 1185.339
1234.318, 173.673
1235.532, 1471.150
1236.745, 519.840
1237.958, 429.402
1239.171, 1457.840
1240.384, 112.303
1241.596, 979.898
1242.809, 1083.629
1244.021, 39.656
1245.233, 1472.643
1246.444, 548.348
1247.656, 570.860
1248.867, 1456.006
1250.079, 243.693
1251.290, 907.794
1252.500, 1289.771
1253.711, 93.053
1254.921, 1493.444
1256.132, 765.699
1257.342, 177.379
1258.552, 1578.809
1259.761, 325.871
1260.971, 657.736
1262.180, 1358.022
1263.389, 169.439
1264.598, 1200.576
1265.807, 872.213
1267.015, 260.903
1268.223, 1612.929
1269.432, 421.047
1270.640, 763.467
1271.847, 1370.211
1273.055, 63.341
1274.262, 1425.551
1275.470, 989.187
1276.677, 146.984
1277.883, 1656.552
1279.090, 599.995
1280.296, 633.746
1281.503, 1562.420
1282.709, 243.956
1283.915, 1128.078
1285.120, 973.796
1286.326, 22.234
1287.531, 1363.512
1288.736, 670.336
1289.941, 497.989
1291.146, 1715.588
1292.350, 209.609
1293.555, 981.496
1294.759, 1390.328
1295.963, 2.003
1297.167, 0.000
##END=



