##NAMES=Epidote
##RRUFFID=R050303
##IDEAL CHEMISTRY=Ca_2_Fe^3+^Al_2_(Si_2_O_7_)(SiO_4_)O(OH)
##LOCALITY=San Martin mine, Zacatecas, Mexico
##OWNER=RRUFF
##SOURCE=Eugene Schlepp
##DESCRIPTION=Green elongated prismatic crystals
##STATUS=The identification of this mineral has been confirmed by X-ray diffraction and chemical analysis
##URL=rruff.info/R050303
##MEASURED CHEMISTRY=Ca_2.00_Al_2.00_(Fe^3+^_0.97_Al_0.03_)(SiO_4_)(Si_2_O_7_)O(OH)
##PIN_ID=L01452
##ORIENTATION=Laser parallel to c* (0 0 1). Fiducial mark perpendicular to laser is parallel to a [1 0 0]
53.91000, 0.0000000E+00
55.14900, 119.0710
56.38700, 198.5183
57.62600, 238.4714
58.86400, 381.2653
60.10300, 411.4705
61.34100, 208.0549
62.57900, 65.40491
63.81700, 31.18384
65.05400, 107.6228
66.29200, 127.8606
67.52900, 28.78320
68.76700, 265.8262
70.00400, 532.2798
71.24100, 688.9712
72.47700, 969.3643
73.71400, 1389.968
74.95100, 2132.302
76.18700, 2851.916
77.42300, 3632.421
78.65900, 4700.490
79.89500, 6203.841
81.13100, 8064.244
82.36700, 10763.48
83.60200, 13683.36
84.83700, 17185.70
86.07200, 21416.31
87.30800, 25827.06
88.54200, 30292.79
89.77700, 35355.37
91.01200, 40083.67
92.24600, 45408.52
93.48000, 49163.66
94.71400, 51224.93
95.94800, 48822.19
97.18200, 42931.32
98.41600, 35668.21
99.64900, 28945.94
100.8830, 22682.44
102.1160, 18255.67
103.3490, 14691.54
104.5820, 12559.06
105.8150, 11217.28
107.0470, 11249.17
108.2800, 11542.66
109.5120, 10872.70
110.7440, 6844.227
111.9760, 5708.186
113.2080, 5359.531
114.4400, 5379.217
115.6710, 5155.207
116.9030, 4899.461
118.1340, 4565.942
119.3650, 4233.620
120.5960, 4137.465
121.8270, 4461.448
123.0580, 4689.542
124.2880, 4650.720
125.5190, 4163.958
126.7490, 4027.236
127.9790, 3802.321
129.2090, 3576.545
130.4390, 3439.739
131.6680, 3243.310
132.8980, 3146.830
134.1270, 3025.444
135.3560, 2921.332
136.5850, 2997.580
137.8140, 3005.228
139.0430, 2939.306
140.2710, 2740.844
141.5000, 2759.019
142.7280, 2586.516
143.9560, 2673.639
145.1840, 2583.071
146.4120, 2474.312
147.6390, 2609.023
148.8670, 2535.209
150.0940, 2681.883
151.3210, 2881.072
152.5490, 2987.137
153.7750, 3205.567
155.0020, 3771.727
156.2290, 4223.457
157.4550, 4879.348
158.6810, 5661.873
159.9080, 6573.819
161.1340, 7685.184
162.3590, 9226.972
163.5850, 10528.18
164.8110, 11613.82
166.0360, 12416.89
167.2610, 13098.38
168.4860, 13127.31
169.7110, 12804.66
170.9360, 11900.45
172.1610, 10441.66
173.3850, 9008.314
174.6100, 7791.396
175.8340, 6664.910
177.0580, 5720.855
178.2820, 4988.230
179.5050, 4341.037
180.7290, 4176.273
181.9520, 4391.933
183.1760, 4380.019
184.3990, 4578.529
185.6220, 4471.461
186.8450, 4049.813
188.0670, 3692.583
189.2900, 3379.771
190.5120, 3249.374
191.7340, 3259.391
192.9560, 3570.818
194.1780, 3672.654
195.4000, 4294.900
196.6220, 4716.552
197.8430, 5107.606
199.0640, 5484.062
200.2860, 5557.918
201.5070, 5192.833
202.7270, 4943.373
203.9480, 4227.510
205.1690, 3473.013
206.3890, 3380.715
207.6090, 3044.143
208.8290, 2970.460
210.0490, 3211.814
211.2690, 3356.859
212.4890, 3772.807
213.7080, 4367.049
214.9280, 4722.909
216.1470, 5560.988
217.3660, 6509.924
218.5850, 7342.684
219.8030, 8534.234
221.0220, 9827.546
222.2400, 10979.60
223.4590, 12102.36
224.6770, 12643.82
225.8950, 12751.95
227.1120, 12170.43
228.3300, 11257.57
229.5480, 10315.11
230.7650, 9509.681
231.9820, 8816.656
233.1990, 8359.006
234.4160, 8201.151
235.6330, 8340.361
236.8490, 8367.398
238.0660, 8255.278
239.2820, 7893.654
240.4980, 7383.523
241.7140, 6575.864
242.9300, 5620.680
244.1460, 4945.953
245.3610, 4443.684
246.5770, 4055.865
247.7920, 3927.301
249.0070, 4032.092
250.2220, 3942.052
251.4370, 4144.901
252.6510, 3853.229
253.8660, 3755.804
255.0800, 3667.440
256.2940, 3736.795
257.5080, 3985.780
258.7220, 4005.113
259.9360, 4707.824
261.1490, 4683.404
262.3630, 5116.773
263.5760, 6396.486
264.7890, 8082.539
266.0020, 9813.927
267.2150, 12107.64
268.4270, 14571.69
269.6400, 17353.05
270.8520, 19535.73
272.0640, 20374.71
273.2760, 19562.02
274.4880, 17458.62
275.7000, 14791.53
276.9120, 12648.75
278.1230, 10537.27
279.3340, 9175.105
280.5450, 7939.246
281.7560, 7050.689
282.9670, 6422.443
284.1780, 5701.505
285.3880, 5459.870
286.5980, 5358.541
287.8090, 5618.513
289.0190, 5831.787
290.2290, 6178.349
291.4380, 6548.199
292.6480, 7192.334
293.8570, 7742.750
295.0670, 7849.453
296.2760, 7728.431
297.4850, 7617.691
298.6930, 7164.229
299.9020, 7073.036
301.1110, 7503.108
302.3190, 7958.441
303.5270, 8648.028
304.7350, 9349.867
305.9430, 10207.96
307.1510, 11750.30
308.3580, 12839.89
309.5660, 13755.74
310.7730, 13694.83
311.9800, 13102.17
313.1870, 12001.75
314.3940, 10525.58
315.6010, 9293.659
316.8070, 8260.977
318.0130, 7540.539
319.2200, 7126.341
320.4260, 6921.385
321.6310, 6601.666
322.8370, 6162.186
324.0430, 5776.942
325.2480, 5296.403
326.4540, 4778.698
327.6590, 4285.617
328.8640, 3667.308
330.0680, 3153.229
331.2730, 2583.378
332.4780, 2199.756
333.6820, 2007.360
334.8860, 2076.189
336.0900, 2124.244
337.2940, 2699.521
338.4980, 2998.021
339.7010, 4010.741
340.9050, 4906.680
342.1080, 5805.837
343.3110, 6788.211
344.5140, 7664.797
345.7170, 8115.600
346.9200, 8197.724
348.1220, 7796.168
349.3240, 7170.938
350.5270, 6332.037
351.7290, 5627.463
352.9310, 4831.215
354.1320, 4313.300
355.3340, 3912.715
356.5350, 3730.461
357.7370, 3502.539
358.9380, 3467.940
360.1390, 3521.645
361.3400, 3424.646
362.5400, 3222.935
363.7410, 2743.517
364.9410, 2324.382
366.1410, 2000.529
367.3410, 1504.957
368.5410, 954.6602
369.7410, 356.6367
370.9400, 0.8828130
372.1400, 392.6211
373.3390, 666.0137
374.5380, 837.4014
375.7370, 948.8623
376.9360, 761.4473
378.1350, 657.0820
379.3330, 534.7217
380.5310, 247.3262
381.7300, 79.21094
382.9280, 417.9912
384.1260, 840.0156
385.3230, 1034.283
386.5210, 1086.789
387.7180, 1031.533
388.9160, 646.5137
390.1130, 214.1582
391.3100, 0.6054690
392.5060, 240.8057
393.7030, 558.4551
394.9000, 646.2715
396.0960, 882.8213
397.2920, 1073.649
398.4880, 964.3652
399.6840, 928.2812
400.8800, 751.3848
402.0750, 568.6035
403.2710, 396.8643
404.4660, 69.09961
405.6610, 418.8145
406.8560, 890.9375
408.0510, 1510.270
409.2450, 2452.809
410.4400, 3635.553
411.6340, 5019.502
412.8280, 6885.654
414.0220, 9419.010
415.2160, 12069.56
416.4100, 15388.32
417.6030, 18747.28
418.7970, 22424.45
419.9900, 24842.83
421.1830, 26120.41
422.3760, 27031.21
423.5690, 26096.24
424.7610, 25336.52
425.9540, 24946.08
427.1460, 24976.92
428.3380, 25707.03
429.5300, 26111.44
430.7220, 26597.12
431.9140, 25927.08
433.1050, 25077.31
434.2970, 23774.81
435.4880, 22488.58
436.6790, 21780.61
437.8700, 21654.92
439.0610, 22093.50
440.2510, 23281.35
441.4420, 24958.46
442.6320, 27222.85
443.8220, 30009.53
445.0120, 32883.46
446.2020, 34999.67
447.3910, 37002.14
448.5810, 38369.89
449.7700, 39361.93
450.9600, 39436.23
452.1490, 38308.80
453.3370, 36495.60
454.5260, 32965.66
455.7150, 29334.95
456.9030, 25454.49
458.0910, 21703.27
459.2800, 18230.27
460.4670, 15250.49
461.6550, 12791.91
462.8430, 10871.53
464.0300, 9121.360
465.2180, 7770.372
466.4050, 6730.566
467.5920, 5711.947
468.7790, 4769.529
469.9650, 3823.302
471.1520, 3296.252
472.3380, 2556.372
473.5250, 2077.659
474.7110, 1522.124
475.8970, 1331.752
477.0820, 1141.535
478.2680, 1017.492
479.4540, 985.6064
480.6390, 950.8701
481.8240, 943.2871
483.0090, 1161.854
484.1940, 1446.562
485.3780, 1673.413
486.5630, 1872.404
487.7470, 2540.533
488.9320, 3155.798
490.1160, 3634.192
491.3000, 4544.721
492.4830, 5417.379
493.6670, 6317.163
494.8500, 7144.074
496.0340, 7719.108
497.2170, 8309.259
498.4000, 8688.523
499.5820, 8979.896
500.7650, 9108.376
501.9480, 9284.956
503.1300, 9355.640
504.3120, 9285.142
505.4940, 9149.445
506.6760, 8870.264
507.8580, 8449.325
509.0390, 7863.475
510.2210, 7053.709
511.4020, 6725.027
512.5830, 6390.428
513.7640, 6426.209
514.9450, 6776.023
516.1250, 7168.146
517.3060, 7475.900
518.4860, 7602.908
519.6660, 7295.182
520.8460, 6619.821
522.0260, 5623.469
523.2060, 4480.896
524.3850, 3596.059
525.5650, 2510.294
526.7440, 1910.601
527.9230, 1295.979
529.1020, 787.4238
530.2810, 613.9375
531.4590, 143.5166
532.6380, 189.1504
533.8160, 7.029297
534.9940, 86.02051
536.1720, 46.31445
537.3500, 82.18066
538.5270, 13.97070
539.7050, 134.0693
540.8820, 212.5020
542.0590, 474.6631
543.2360, 771.6357
544.4130, 797.7227
545.5900, 1281.799
546.7660, 1605.453
547.9430, 2327.734
549.1190, 2887.076
550.2950, 3728.480
551.4710, 4824.944
552.6470, 6482.467
553.8220, 8480.046
554.9980, 10942.68
556.1730, 14297.37
557.3480, 18187.91
558.5230, 22758.04
559.6980, 26907.03
560.8730, 29087.63
562.0470, 28813.57
563.2220, 26196.15
564.3960, 21870.21
565.5700, 17839.19
566.7440, 14487.84
567.9170, 11598.74
569.0910, 9973.346
570.2640, 8623.775
571.4380, 8036.214
572.6110, 7734.320
573.7840, 8078.215
574.9570, 8625.974
576.1290, 10022.43
577.3020, 11804.71
578.4740, 13226.97
579.6460, 13816.76
580.8180, 16310.24
581.9900, 17908.28
583.1620, 17588.96
584.3330, 18663.56
585.5040, 19739.86
586.6760, 21248.14
587.8470, 22764.95
589.0180, 24813.65
590.1880, 27003.93
591.3590, 29161.83
592.5290, 31183.20
593.7000, 32597.85
594.8700, 33250.29
596.0400, 32925.43
597.2090, 31869.42
598.3790, 29963.53
599.5490, 28145.80
600.7180, 26121.14
601.8870, 24817.49
603.0560, 23452.18
604.2250, 22262.10
605.3940, 21641.47
606.5620, 20907.29
607.7300, 20346.13
608.8990, 19718.56
610.0670, 18653.12
611.2350, 17720.41
612.4020, 16225.85
613.5700, 14846.43
614.7370, 13116.94
615.9050, 11490.32
617.0720, 9981.004
618.2390, 8545.872
619.4060, 7342.913
620.5720, 6486.406
621.7390, 5497.051
622.9050, 4875.324
624.0710, 4317.996
625.2370, 3737.167
626.4030, 3433.010
627.5690, 2966.621
628.7340, 2807.006
629.9000, 2500.446
631.0650, 2221.086
632.2300, 2053.246
633.3950, 1838.379
634.5600, 1629.816
635.7240, 1511.503
636.8890, 1258.527
638.0530, 1219.748
639.2170, 1190.781
640.3810, 889.9150
641.5450, 965.8604
642.7080, 937.3408
643.8720, 846.6250
645.0350, 758.8545
646.1980, 684.7100
647.3610, 498.1855
648.5240, 514.4766
649.6870, 457.0801
650.8490, 382.6484
652.0120, 505.9424
653.1740, 457.2959
654.3360, 378.5479
655.4980, 481.7666
656.6600, 377.1328
657.8210, 465.4238
658.9830, 397.7939
660.1440, 261.2012
661.3050, 346.6182
662.4660, 326.0283
663.6270, 330.3740
664.7870, 402.6016
665.9480, 405.7129
667.1080, 450.7051
668.2680, 492.5791
669.4280, 574.3330
670.5880, 628.9653
671.7480, 620.0464
672.9070, 693.4355
674.0670, 722.7744
675.2260, 823.3979
676.3850, 827.1709
677.5440, 901.6362
678.7030, 1015.287
679.8610, 1165.690
681.0200, 1187.176
682.1780, 1251.738
683.3360, 1307.339
684.4940, 1453.939
685.6520, 1435.505
686.8090, 1313.972
687.9670, 1275.311
689.1240, 1053.517
690.2810, 1028.592
691.4380, 785.5361
692.5950, 629.3467
693.7520, 586.0234
694.9080, 409.5669
696.0650, 315.9736
697.2210, 368.2354
698.3770, 224.3564
699.5330, 144.3193
700.6880, 237.1084
701.8440, 152.7397
702.9990, 29.19727
704.1550, 96.56299
705.3100, 105.6084
706.4650, 171.6782
707.6190, 181.7803
708.7740, 209.6021
709.9290, 160.9453
711.0830, 186.6118
712.2370, 166.6152
713.3910, 147.9453
714.5450, 158.5933
715.6980, 155.5654
716.8520, 186.8594
718.0050, 163.4932
719.1580, 206.4531
720.3110, 151.7637
721.4640, 226.3945
722.6170, 257.3857
723.7700, 205.7534
724.9220, 142.4692
726.0740, 247.5010
727.2260, 278.9023
728.3780, 225.6899
729.5300, 284.8350
730.6810, 214.3682
731.8330, 77.25098
732.9840, 219.4116
734.1350, 136.9233
735.2860, 168.7417
736.4370, 172.8828
737.5880, 98.34668
738.7380, 70.09473
739.8880, 73.10889
741.0390, 17.35986
742.1890, 87.90820
743.3380, 36.30176
744.4880, 12.69336
745.6380, 15.91846
746.7870, 76.37256
747.9360, 50.08740
749.0850, 1.045898
750.2340, 8.778809
751.3830, 24.39355
752.5310, 31.19189
753.6800, 18.99658
754.8280, 38.98584
755.9760, 32.21387
757.1240, 12.36475
758.2720, 70.74658
759.4190, 12.95068
760.5670, 19.96240
761.7140, 88.78760
762.8610, 54.44141
764.0080, 61.91943
765.1550, 65.22363
766.3020, 69.35791
767.4480, 116.3232
768.5950, 37.12744
769.7410, 53.76074
770.8870, 105.2266
772.0330, 19.53418
773.1780, 51.67090
774.3240, 151.6450
775.4690, 58.46973
776.6140, 206.1362
777.7590, 185.6621
778.9040, 188.0469
780.0490, 212.2915
781.1940, 218.3999
782.3380, 208.3750
783.4820, 236.2158
784.6260, 159.9268
785.7700, 269.5020
786.9140, 214.9502
788.0580, 357.2710
789.2010, 216.4736
790.3450, 351.5508
791.4880, 371.5112
792.6310, 320.3564
793.7730, 280.0859
794.9160, 377.6978
796.0590, 405.1943
797.2010, 570.5767
798.3430, 441.3091
799.4850, 589.4619
800.6270, 575.4961
801.7690, 650.4204
802.9100, 699.2339
804.0520, 731.9355
805.1930, 812.5273
806.3340, 891.8887
807.4750, 1014.381
808.6160, 1094.646
809.7560, 1151.807
810.8970, 1265.864
812.0370, 1422.843
813.1770, 1637.729
814.3170, 1734.526
815.4570, 1928.228
816.5960, 2140.847
817.7360, 2311.362
818.8750, 2593.773
820.0140, 2701.080
821.1530, 3120.284
822.2920, 3431.384
823.4310, 3680.382
824.5690, 3832.277
825.7070, 4148.071
826.8460, 4272.015
827.9840, 4481.361
829.1220, 4532.859
830.2590, 4576.260
831.3970, 4619.563
832.5340, 4481.773
833.6710, 4460.088
834.8080, 4312.768
835.9450, 4256.552
837.0820, 4218.683
838.2190, 4437.422
839.3550, 4209.481
840.4910, 4416.024
841.6270, 4369.587
842.7630, 4504.437
843.8990, 4738.003
845.0350, 4969.805
846.1700, 5236.723
847.3060, 5380.622
848.4410, 5849.789
849.5760, 6249.118
850.7100, 6560.535
851.8450, 7113.207
852.9800, 7285.003
854.1140, 8128.775
855.2480, 8771.965
856.3820, 9179.415
857.5160, 9657.267
858.6500, 10429.41
859.7830, 11041.59
860.9170, 11441.02
862.0500, 11731.41
863.1830, 12040.23
864.3160, 12480.11
865.4480, 12807.35
866.5810, 13130.93
867.7130, 13497.98
868.8460, 14037.71
869.9780, 14729.60
871.1100, 15599.75
872.2410, 16643.00
873.3730, 17794.10
874.5050, 18998.00
875.6360, 20478.79
876.7670, 21753.53
877.8980, 23287.91
879.0290, 24456.01
880.1590, 25371.64
881.2900, 26061.78
882.4200, 26082.87
883.5500, 25627.33
884.6800, 25028.60
885.8100, 23733.13
886.9400, 22792.48
888.0690, 21371.67
889.1990, 20668.93
890.3280, 19883.28
891.4570, 19476.30
892.5860, 19288.12
893.7140, 19452.72
894.8430, 19949.84
895.9710, 20879.77
897.1000, 21907.04
898.2280, 22923.87
899.3560, 24718.15
900.4830, 26457.73
901.6110, 28816.51
902.7380, 31514.49
903.8660, 34013.40
904.9930, 37360.05
906.1200, 40764.15
907.2460, 44141.23
908.3730, 47587.94
909.5000, 50605.38
910.6260, 53079.43
911.7520, 54262.23
912.8780, 54599.18
914.0040, 53019.98
915.1290, 50703.92
916.2550, 47111.28
917.3800, 42456.78
918.5050, 38047.29
919.6300, 33556.13
920.7550, 29719.29
921.8800, 25823.60
923.0040, 22311.54
924.1290, 19535.47
925.2530, 16850.62
926.3770, 14941.66
927.5010, 12974.75
928.6250, 11602.90
929.7480, 10170.97
930.8720, 9052.227
931.9950, 8254.542
933.1180, 7337.912
934.2410, 6511.348
935.3640, 6019.840
936.4860, 5564.396
937.6090, 4915.018
938.7310, 4607.707
939.8530, 4149.459
940.9750, 4081.276
942.0970, 3809.158
943.2180, 3693.107
944.3400, 3594.121
945.4610, 3498.202
946.5820, 3457.353
947.7030, 3390.572
948.8240, 3391.861
949.9450, 3485.220
951.0650, 3547.650
952.1860, 3717.152
953.3060, 3913.728
954.4260, 4069.377
955.5460, 3951.099
956.6650, 3988.896
957.7850, 3865.770
958.9040, 3714.722
960.0230, 3511.750
961.1420, 3512.862
962.2610, 3317.053
963.3800, 3343.324
964.4990, 3275.675
965.6170, 3536.107
966.7350, 3801.625
967.8530, 4022.233
968.9710, 4585.935
970.0890, 5134.727
971.2070, 5985.617
972.3240, 6767.613
973.4410, 7687.710
974.5580, 8383.914
975.6750, 9023.252
976.7920, 9257.756
977.9090, 8969.430
979.0250, 8418.286
980.1410, 7528.338
981.2580, 6581.583
982.3740, 5695.023
983.4890, 4701.653
984.6050, 4009.473
985.7200, 3350.480
986.8360, 2819.684
987.9510, 2270.074
989.0660, 2072.669
990.1810, 1755.449
991.2950, 1450.435
992.4100, 1202.617
993.5240, 953.0098
994.6390, 893.6152
995.7530, 833.4238
996.8660, 603.4189
997.9800, 440.6348
999.0940, 534.0693
1000.207, 392.7090
1001.320, 413.6211
1002.433, 240.2139
1003.546, 465.1592
1004.659, 368.6689
1005.772, 445.7725
1006.884, 570.7090
1007.996, 648.2715
1009.108, 802.8027
1010.220, 1157.324
1011.332, 1354.283
1012.444, 1361.957
1013.555, 1523.069
1014.666, 1569.677
1015.777, 1737.624
1016.888, 1733.896
1017.999, 1615.535
1019.110, 1695.936
1020.220, 1613.594
1021.331, 1670.911
1022.441, 1652.630
1023.551, 1876.688
1024.661, 1990.658
1025.770, 2299.023
1026.880, 2795.563
1027.989, 3231.662
1029.098, 3631.154
1030.207, 4218.217
1031.316, 4895.940
1032.425, 5387.049
1033.533, 6027.537
1034.642, 6543.633
1035.750, 6918.911
1036.858, 7272.581
1037.966, 7404.543
1039.073, 7417.295
1040.181, 7177.135
1041.288, 6678.207
1042.396, 6301.767
1043.503, 5894.846
1044.610, 5583.920
1045.716, 5025.131
1046.823, 4687.744
1047.929, 4240.254
1049.036, 4138.266
1050.142, 3970.407
1051.248, 4064.409
1052.353, 4031.917
1053.459, 4239.133
1054.564, 4568.988
1055.670, 4890.449
1056.775, 5063.979
1057.880, 5198.722
1058.985, 5243.587
1060.089, 5311.096
1061.194, 5082.984
1062.298, 4941.955
1063.402, 4659.018
1064.506, 4657.165
1065.610, 4591.396
1066.713, 4667.715
1067.817, 4852.111
1068.920, 5135.670
1070.023, 5660.514
1071.126, 6305.455
1072.229, 7070.175
1073.332, 8272.969
1074.435, 9285.842
1075.537, 11024.79
1076.639, 12712.81
1077.741, 15310.91
1078.843, 18022.09
1079.945, 20566.35
1081.046, 23312.68
1082.148, 24596.08
1083.249, 24640.56
1084.350, 23292.11
1085.451, 20690.73
1086.551, 17585.42
1087.652, 14355.18
1088.752, 11692.01
1089.853, 9397.905
1090.953, 7481.038
1092.053, 5954.068
1093.152, 4778.068
1094.252, 3905.294
1095.351, 3186.522
1096.451, 2901.816
1097.550, 2346.173
1098.649, 2059.224
1099.748, 1562.954
1100.846, 1486.828
1101.945, 1297.819
1103.043, 1080.781
1104.141, 955.5117
1105.239, 873.2031
1106.337, 854.4668
1107.434, 523.6670
1108.532, 512.9111
1109.629, 479.8662
1110.726, 490.0098
1111.823, 420.1396
1112.920, 342.3848
1114.017, 305.3516
1115.113, 238.0283
1116.210, 246.3066
1117.306, 155.7930
1118.402, 226.3594
1119.498, 244.4873
1120.593, 210.8096
1121.689, 228.3613
1122.784, 203.7803
1123.879, 186.0410
1124.974, 155.1328
1126.069, 155.9199
1127.164, 115.8047
1128.259, 157.2578
1129.353, 128.6348
1130.447, 76.80859
1131.541, 76.72559
1132.635, 2.521484
1133.729, 66.37207
1134.822, 71.25781
1135.916, 0.4404300
1137.009, 169.5762
1138.102, 3.016602
1139.195, 142.6846
1140.288, 109.5122
1141.380, 128.5547
1142.473, 107.7725
1143.565, 143.9507
1144.657, 148.0620
1145.749, 80.43262
1146.841, 156.2212
1147.932, 59.81592
1149.024, 63.28174
1150.115, 125.8174
1151.206, 169.8784
1152.297, 259.0566
1153.388, 202.1821
1154.479, 119.3975
1155.569, 155.8169
1156.659, 116.0332
1157.750, 114.2539
1158.839, 143.2603
1159.929, 57.62207
1161.019, 132.7646
1162.108, 29.49902
1163.198, 34.78662
1164.287, 147.5352
1165.376, 93.76172
1166.465, 133.8438
1167.553, 117.4175
1168.642, 55.71924
1169.730, 68.56299
1170.818, 2.817383
1171.906, 0.8046880
1172.994, 73.67480
1174.082, 14.87500
1175.170, 13.71582
1176.257, 53.96826
1177.344, 15.55371
1178.431, 9.437988
1179.518, 36.58154
1180.605, 37.08740
1181.691, 97.59326
1182.778, 37.16406
1183.864, 84.74609
1184.950, 14.28125
1186.036, 20.29785
1187.122, 96.19531
1188.207, 60.11670
1189.292, 34.12402
1190.378, 99.37061
1191.463, 129.7925
1192.548, 96.66113
1193.632, 145.3853
1194.717, 124.7534
1195.801, 159.4014
1196.886, 176.3833
1197.970, 145.9922
1199.054, 84.15576
1200.137, 75.03320
1201.221, 43.24512
1202.305, 142.9492
1203.388, 143.1621
1204.471, 150.1733
1205.554, 167.4844
1206.637, 151.3179
1207.719, 147.8945
1208.802, 142.1426
1209.884, 135.5044
1210.966, 169.7197
1212.048, 148.6777
1213.130, 213.6748
1214.212, 172.5801
1215.293, 194.4551
1216.374, 196.7876
1217.456, 182.8257
1218.536, 166.3989
1219.617, 185.9546
1220.698, 124.4736
1221.778, 147.9863
1222.859, 98.42822
1223.939, 139.8218
1225.019, 239.1748
1226.099, 170.4478
1227.178, 173.9902
1228.258, 120.0586
1229.337, 102.2446
1230.417, 102.3765
1231.496, 137.4521
1232.574, 108.4819
1233.653, 170.4556
1234.732, 125.3853
1235.810, 146.2607
1236.888, 118.0889
1237.966, 120.8574
1239.044, 134.5684
1240.122, 176.2236
1241.199, 108.8315
1242.277, 181.3730
1243.354, 95.86621
1244.431, 192.2866
1245.508, 137.6582
1246.585, 146.9678
1247.661, 95.21729
1248.738, 167.3896
1249.814, 107.5039
1250.890, 215.5435
1251.966, 150.5317
1253.042, 108.4551
1254.117, 155.3008
1255.193, 212.0811
1256.268, 169.8071
1257.343, 189.4951
1258.418, 131.0986
1259.493, 209.6265
1260.567, 229.0962
1261.642, 191.5112
1262.716, 225.8662
1263.790, 227.6348
1264.864, 201.5469
1265.938, 253.6514
1267.011, 168.2856
1268.085, 221.2856
1269.158, 181.7178
1270.231, 97.28857
1271.304, 192.9556
1272.377, 152.2866
1273.450, 145.9834
1274.522, 150.4009
1275.594, 164.4810
1276.666, 119.1646
1277.738, 114.6777
1278.810, 115.8193
1279.882, 128.0078
1280.953, 162.4160
1282.025, 199.1177
1283.096, 194.4731
1284.167, 107.5752
1285.238, 129.8262
1286.308, 61.74268
1287.379, 156.5537
1288.449, 54.87402
1289.519, 154.8477
1290.589, 203.3159
1291.659, 155.1899
1292.729, 124.7324
1293.798, 140.9541
1294.868, 27.62402
1295.937, 149.1592
1297.006, 77.35596
1298.075, 96.30908
1299.143, 134.5264
1300.212, 100.7090
1301.280, 122.8511
1302.348, 60.27295
1303.416, 112.3667
1304.484, 129.5088
1305.552, 117.5669
1306.620, 78.26074
1307.687, 142.0986
1308.754, 9.476074
1309.821, 92.75000
1310.888, 119.2012
1311.955, 52.81738
1313.021, 36.46729
1314.088, 71.85791
1315.154, 90.21240
1316.220, 31.25000
1317.286, 121.0967
1318.352, 0.1557620
1319.417, 187.9893
1320.483, 128.7749
1321.548, 35.50830
1322.613, 92.17578
1323.678, 77.78467
1324.743, 61.32764
1325.807, 147.8101
1326.872, 102.2368
1327.936, 120.5273
1329.000, 96.56543
1330.064, 128.5244
1331.128, 182.7271
1332.191, 237.8784
1333.255, 184.9766
1334.318, 106.0249
1335.381, 124.0215
1336.444, 161.9668
1337.507, 75.86230
1338.569, 159.7041
1339.632, 193.4961
1340.694, 91.23828
1341.756, 191.9272
1342.818, 191.5684
1343.880, 220.1602
1344.941, 256.5874
1346.003, 252.1997
1347.064, 268.6470
1348.125, 276.0479
1349.186, 229.2319
1350.247, 334.5371
1351.308, 257.8921
1352.368, 318.0415
1353.428, 239.2061
1354.489, 290.3232
1355.549, 223.3945
1356.608, 274.7891
1357.668, 290.5210
1358.727, 343.1221
1359.787, 283.6216
1360.846, 351.1660
1361.905, 258.9556
1362.964, 281.3442
1364.022, 369.0825
1365.081, 300.4419
1366.139, 336.7656
1367.197, 391.3892
1368.255, 296.8364
1369.313, 301.3086
1370.371, 226.6748
1371.428, 252.3286
1372.486, 314.6606
1373.543, 279.6357
1374.600, 295.7925
1375.657, 321.8721
1376.713, 236.3960
1377.770, 408.7285
1378.826, 347.8354
1379.882, 320.4829
1380.938, 295.4756
1381.994, 279.0439
1383.050, 210.9170
1384.106, 197.6924
1385.161, 307.8989
1386.216, 262.1777
1387.271, 268.6562
1388.326, 289.3877
1389.381, 184.2363
1390.435, 269.7671
1391.490, 116.2754
1392.544, 353.1836
1393.598, 230.7983
1394.652, 172.8022
1395.705, 268.0215
1396.759, 264.3682
1397.812, 249.9038
1398.866, 221.5830
1399.919, 219.1929
1400.972, 162.6992
1402.024, 138.4263
1403.077, 169.5435
1404.129, 147.4253
1405.181, 202.1519
1406.233, 50.92236
1407.285, 129.1782
1408.337, 156.5029
1409.389, 275.7065
1410.440, 248.9429
1411.491, 254.3433
1412.542, 274.4897
1413.593, 244.6001
1414.644, 247.4526
1415.695, 164.6113
1416.745, 199.5186
1417.795, 179.9688
1418.845, 171.9429
1419.895, 211.3467
1420.945, 212.1787
1421.995, 154.1216
1423.044, 234.2031
1424.093, 160.9634
1425.142, 188.2290
1426.191, 147.2300
1427.240, 322.6211
1428.289, 291.4038
1429.337, 239.8892
1430.385, 130.5532
1431.433, 209.4678
1432.481, 294.2441
1433.529, 256.2891
1434.577, 342.4004
1435.624, 232.1802
1436.672, 382.5200
1437.719, 195.2759
1438.766, 272.3242
1439.812, 143.2876
1440.859, 242.3735
1441.905, 241.7417
1442.952, 194.6548
1443.998, 211.4639
1445.044, 304.0405
1446.090, 190.3755
1447.135, 364.3496
1448.181, 288.6948
1449.226, 255.5781
1450.271, 229.9673
1451.316, 197.0342
1452.361, 225.5830
1453.405, 315.1274
1454.450, 307.2646
1455.494, 364.7471
1456.538, 209.9634
1457.582, 294.4937
1458.626, 354.0264
1459.670, 167.7495
1460.713, 304.6748
1461.757, 270.5459
1462.800, 354.3286
1463.843, 305.1050
1464.886, 367.8301
1465.928, 225.4351
1466.971, 311.0850
1468.013, 275.7056
1469.055, 346.2891
1470.097, 442.8438
1471.139, 283.3794
1472.181, 372.8882
1473.222, 281.3794
1474.263, 272.8511
1475.305, 350.3198
1476.346, 306.7905
1477.386, 349.2461
1478.427, 288.7153
1479.468, 355.1333
1480.508, 282.5791
1481.548, 210.0117
1482.588, 254.3550
1483.628, 271.2095
1484.668, 330.4727
1485.707, 263.8271
1486.747, 356.2129
1487.786, 316.5254
1488.825, 175.6943
1489.864, 253.9951
1490.902, 220.1772
1491.941, 254.6206
1492.979, 324.0737
1494.017, 317.5513
1495.055, 286.0537
1496.093, 260.5586
1497.131, 327.0483
1498.168, 305.5425
1499.206, 306.0420
1500.243, 330.5439
1501.280, 235.0381
1502.317, 235.5415
1503.354, 275.0317
1504.390, 212.5181
1505.426, 248.0410
1506.463, 281.6094
1507.499, 252.3120
1508.535, 278.1143
1509.570, 197.9106
1510.606, 245.7412
1511.641, 270.5986
1512.676, 183.5098
1513.711, 252.4521
1514.746, 198.4033
1515.781, 240.3999
1516.816, 164.4268
1517.850, 184.4565
1518.884, 242.4902
1519.918, 160.5332
1520.952, 240.5889
1521.986, 262.6602
1523.019, 216.7500
1524.053, 140.8618
1525.086, 146.9966
1526.119, 95.15723
1527.152, 178.3452
1528.185, 131.5649
1529.217, 257.8340
1530.250, 206.1431
1531.282, 165.4961
1532.314, 81.91406
1533.346, 36.39160
1534.377, 62.91699
1535.409, 165.4907
1536.440, 147.1182
1537.472, 75.80371
1538.503, 164.5518
1539.534, 96.36914
1540.564, 86.25537
1541.595, 124.2056
1542.625, 23.22217
1543.656, 142.3057
1544.686, 0.4599610
1545.716, 38.31152
1546.745, 44.99805
1547.775, 41.39600
1548.804, 184.8911
1549.834, 121.4912
1550.863, 153.2041
1551.892, 289.0391
1552.920, 306.0039
1553.949, 369.1055
1554.977, 349.3560
1556.006, 276.7651
1557.034, 130.3477
1558.062, 95.11670
1559.089, 71.07373
1560.117, 84.83398
1561.144, 124.2109
1562.172, 157.6675
1563.199, 116.1704
1564.226, 4.332520
1565.252, 86.06006
1566.279, 19.17871
1567.305, 110.1802
1568.332, 18.60938
1569.358, 126.9741
1570.384, 9.250977
1571.409, 0.1250000
1572.435, 0.0000000E+00
##END=



