##NAMES=Epididymite
##RRUFFID=R070580
##IDEAL CHEMISTRY=Na_2_Be_2_Si_6_O_15_&#183;H_2_O
##LOCALITY=Narsarsuk, Narsaq, Kitaa, Greenland
##OWNER=RRUFF
##SOURCE=James Shigley
##DESCRIPTION=A translucent to white elongated prism.
##STATUS=The identification of this mineral is confirmed by single-crystal X-ray diffraction and chemical analysis.
##URL=rruff.info/R070580
##MEASURED CHEMISTRY=(Na_1.97_K_0.03_)_Σ=2_Be_2_Si_6.00_O_15_·H_2_O; trace amounts of Al; Be and H_2_O assumed by stoichiometry
##PIN_ID=M01755
##ORIENTATION=Laser parallel to -a* (-1 0 0). Fiducial mark perpendicular to laser is parallel to b [0 1 0]
111.2060, 0.0000000E+00
112.4440, 5.474609
113.6810, 109.2412
114.9180, 713.7715
116.1550, 1456.854
117.3920, 2107.387
118.6290, 2164.354
119.8650, 1788.607
121.1010, 1689.697
122.3370, 1729.829
123.5730, 2105.338
124.8090, 2622.132
126.0450, 2694.145
127.2800, 3333.279
128.5150, 4513.254
129.7500, 6196.741
130.9850, 7919.725
132.2200, 9270.387
133.4540, 9900.887
134.6890, 8848.724
135.9230, 6995.049
137.1570, 5316.828
138.3900, 4360.952
139.6240, 4116.523
140.8580, 4140.752
142.0910, 4797.504
143.3240, 5171.146
144.5570, 5449.613
145.7900, 5198.518
147.0220, 4377.705
148.2550, 3260.029
149.4870, 2447.601
150.7190, 1825.388
151.9510, 1170.715
153.1830, 814.7500
154.4140, 552.9229
155.6460, 402.1680
156.8770, 119.7344
158.1080, 57.76074
159.3390, 33.13086
160.5690, 137.2939
161.8000, 82.43848
163.0300, 75.67188
164.2600, 58.16016
165.4900, 33.84863
166.7200, 91.06641
167.9500, 65.60547
169.1790, 84.78906
170.4080, 33.64160
171.6380, 30.18164
172.8670, 27.43359
174.0950, 28.48438
175.3240, 14.32617
176.5520, 13.91797
177.7810, 33.73535
179.0090, 10.37695
180.2370, 100.7344
181.4640, 107.0586
182.6920, 10.58691
183.9190, 141.6885
185.1460, 96.77148
186.3730, 255.7080
187.6000, 436.5703
188.8270, 694.3877
190.0530, 844.1777
191.2800, 1021.947
192.5060, 1340.316
193.7320, 1736.561
194.9580, 2215.211
196.1830, 2395.371
197.4090, 2654.638
198.6340, 2664.879
199.8590, 2283.094
201.0840, 1887.448
202.3090, 1947.855
203.5340, 1550.345
204.7580, 1378.733
205.9820, 1113.870
207.2060, 857.9551
208.4300, 729.3184
209.6540, 604.6260
210.8780, 572.7002
212.1010, 430.3086
213.3240, 435.3457
214.5470, 546.8398
215.7700, 607.5303
216.9930, 583.5723
218.2150, 513.4180
219.4380, 511.9043
220.6600, 572.4346
221.8820, 619.3018
223.1040, 757.3838
224.3260, 903.4814
225.5470, 1004.590
226.7680, 1162.705
227.9900, 1194.826
229.2110, 1602.951
230.4310, 1730.079
231.6520, 1993.205
232.8720, 2486.324
234.0930, 2870.853
235.3130, 3227.736
236.5330, 3764.568
237.7530, 4174.721
238.9720, 4772.095
240.1920, 5067.268
241.4110, 5085.170
242.6300, 5052.046
243.8490, 4731.897
245.0680, 4065.726
246.2860, 3406.529
247.5040, 2872.310
248.7230, 2315.067
249.9410, 1854.801
251.1590, 1658.514
252.3760, 1296.203
253.5940, 1144.871
254.8110, 852.5156
256.0280, 774.1406
257.2450, 791.7441
258.4620, 854.1143
259.6790, 786.7803
260.8950, 789.8203
262.1120, 714.5049
263.3280, 650.4648
264.5440, 578.7295
265.7600, 369.2100
266.9750, 232.8438
268.1910, 258.5898
269.4060, 165.4180
270.6210, 137.2871
271.8360, 92.84473
273.0510, 40.97168
274.2650, 151.7686
275.4800, 7.544922
276.6940, 140.2725
277.9080, 113.2695
279.1220, 123.5693
280.3360, 106.2803
281.5490, 204.8154
282.7630, 171.1162
283.9760, 260.2139
285.1890, 320.1846
286.4020, 240.1475
287.6150, 196.0986
288.8270, 104.0352
290.0400, 86.94434
291.2520, 52.78320
292.4640, 13.48828
293.6760, 56.03613
294.8870, 102.4375
296.0990, 14.97656
297.3100, 77.44434
298.5210, 56.16211
299.7320, 39.82520
300.9430, 75.54492
302.1540, 36.33008
303.3640, 66.16895
304.5750, 35.75586
305.7850, 50.60840
306.9950, 97.76758
308.2050, 87.71094
309.4140, 1.469727
310.6240, 20.54785
311.8330, 153.7100
313.0420, 1.807617
314.2510, 122.7393
315.4600, 111.3828
316.6680, 32.11719
317.8770, 73.92285
319.0850, 112.8057
320.2930, 38.77832
321.5010, 56.07715
322.7090, 64.87598
323.9160, 140.7969
325.1240, 217.4238
326.3310, 141.0771
327.5380, 225.3594
328.7450, 191.0908
329.9520, 142.7900
331.1580, 308.4570
332.3650, 271.0938
333.5710, 389.6992
334.7770, 411.2764
335.9830, 289.8242
337.1880, 481.3428
338.3940, 466.7344
339.5990, 420.0674
340.8040, 405.3682
342.0090, 556.6348
343.2140, 720.8750
344.4190, 773.0889
345.6230, 618.2754
346.8280, 465.4189
348.0320, 542.4873
349.2360, 528.4346
350.4400, 242.3027
351.6430, 202.0391
352.8470, 228.6387
354.0500, 168.1094
355.2530, 151.2666
356.4560, 45.65137
357.6590, 100.7217
358.8620, 128.6729
360.0640, 138.5020
361.2660, 36.19531
362.4680, 188.8174
363.6700, 128.4180
364.8720, 311.0059
366.0740, 146.5850
367.2750, 340.1543
368.4760, 284.7139
369.6770, 300.2656
370.8780, 353.8086
372.0790, 367.3438
373.2800, 685.8691
374.4800, 891.3867
375.6800, 999.8955
376.8800, 1240.396
378.0800, 1566.888
379.2800, 1934.382
380.4790, 1911.854
381.6790, 2141.318
382.8780, 2203.764
384.0770, 2350.199
385.2760, 2110.629
386.4750, 2060.049
387.6730, 2046.462
388.8720, 1697.868
390.0700, 1693.269
391.2680, 1694.663
392.4660, 1447.049
393.6630, 1742.429
394.8610, 1568.816
396.0580, 1861.198
397.2550, 2170.572
398.4520, 2530.952
399.6490, 3374.324
400.8460, 3867.692
402.0420, 4861.055
403.2390, 5854.414
404.4350, 7624.760
405.6310, 9491.095
406.8270, 11375.41
408.0220, 12427.70
409.2180, 12096.98
410.4130, 10132.23
411.6080, 7539.463
412.8030, 5198.705
413.9980, 3597.924
415.1920, 2329.148
416.3870, 1462.401
417.5810, 1075.496
418.7750, 813.6475
419.9690, 813.9238
421.1630, 608.0615
422.3570, 679.0078
423.5500, 511.0635
424.7430, 399.7451
425.9360, 497.8447
427.1290, 786.9395
428.3220, 702.0137
429.5150, 896.0693
430.7070, 1155.104
431.8990, 1353.126
433.0910, 1397.399
434.2830, 1485.192
435.4750, 1500.854
436.6670, 1384.716
437.8580, 1164.411
439.0490, 828.9727
440.2400, 835.9883
441.4310, 496.2549
442.6220, 232.6309
443.8130, 286.0293
445.0030, 160.1562
446.1930, 83.71875
447.3830, 131.3799
448.5730, 133.0801
449.7630, 209.9014
450.9520, 80.01562
452.1420, 265.9189
453.3310, 82.37891
454.5200, 255.7529
455.7090, 240.8369
456.8980, 371.6709
458.0860, 478.6777
459.2740, 585.3926
460.4630, 464.1143
461.6510, 569.2100
462.8380, 465.8643
464.0260, 486.1660
465.2140, 428.1943
466.4010, 643.4502
467.5880, 958.0732
468.7750, 1003.976
469.9620, 1324.646
471.1490, 1657.583
472.3350, 1956.521
473.5220, 2744.252
474.7080, 3021.179
475.8940, 3452.103
477.0800, 3959.020
478.2650, 3945.935
479.4510, 3709.857
480.6360, 3860.775
481.8210, 3989.691
483.0060, 4606.633
484.1910, 5105.570
485.3760, 5710.504
486.5600, 5619.438
487.7440, 5363.365
488.9290, 4257.290
490.1130, 3064.214
491.2960, 2431.135
492.4800, 1852.054
493.6630, 1360.970
494.8470, 1318.885
496.0300, 1160.798
497.2130, 1146.569
498.3960, 1143.002
499.5780, 1019.509
500.7610, 1255.732
501.9430, 1405.274
503.1250, 1586.912
504.3070, 1989.037
505.4890, 2170.934
506.6710, 2980.515
507.8520, 3561.463
509.0330, 4674.203
510.2140, 6455.161
511.3950, 8405.128
512.5760, 10890.09
513.7570, 13747.07
514.9370, 17132.04
516.1170, 21228.03
517.2980, 26355.01
518.4780, 30595.99
519.6570, 33844.01
520.8370, 33973.43
522.0160, 30336.72
523.1960, 24987.29
524.3750, 19165.31
525.5540, 14196.33
526.7320, 10302.49
527.9110, 7599.516
529.0890, 5520.545
530.2680, 4443.578
531.4460, 3460.615
532.6240, 2658.906
533.8010, 2359.949
534.9790, 2026.158
536.1560, 1590.899
537.3340, 1367.956
538.5110, 1239.016
539.6880, 964.5352
540.8650, 967.6006
542.0410, 785.6699
543.2180, 596.7432
544.3940, 445.8213
545.5700, 415.9004
546.7460, 331.1963
547.9220, 329.1025
549.0970, 309.4385
550.2730, 367.0908
551.4480, 396.1895
552.6230, 308.2920
553.7980, 252.2314
554.9730, 104.3418
556.1470, 160.5186
557.3210, 124.7168
558.4960, 94.95312
559.6700, 146.1289
560.8440, 126.5908
562.0170, 124.2324
563.1910, 174.8398
564.3640, 122.4131
565.5380, 105.2422
566.7110, 150.5439
567.8840, 273.5166
569.0560, 163.8623
570.2290, 155.3340
571.4010, 327.5625
572.5740, 415.2031
573.7460, 408.9316
574.9180, 558.3555
576.0890, 652.6045
577.2610, 751.9736
578.4320, 1060.342
579.6040, 1580.827
580.7750, 1783.281
581.9450, 2245.812
583.1160, 2800.324
584.2870, 2838.059
585.4570, 2892.523
586.6270, 2838.749
587.7980, 2374.293
588.9670, 1916.448
590.1370, 1254.067
591.3070, 969.9521
592.4760, 890.2314
593.6450, 661.6738
594.8140, 467.0430
595.9830, 541.8506
597.1520, 400.9072
598.3210, 252.8818
599.4890, 284.0625
600.6570, 162.0254
601.8250, 151.0332
602.9930, 131.0801
604.1610, 35.17578
605.3290, 171.8779
606.4960, 107.6162
607.6630, 154.9502
608.8300, 194.6729
609.9970, 121.8145
611.1640, 111.0303
612.3300, 238.2666
613.4970, 33.53809
614.6630, 5.933594
615.8290, 128.5010
616.9950, 218.7988
618.1610, 220.8066
619.3260, 297.5684
620.4920, 293.8945
621.6570, 363.0293
622.8220, 450.2314
623.9870, 353.5947
625.1520, 377.2842
626.3160, 420.4141
627.4810, 535.5410
628.6450, 688.8828
629.8090, 982.4883
630.9730, 973.7148
632.1370, 1113.846
633.3000, 1174.977
634.4640, 1205.104
635.6270, 1176.229
636.7900, 1144.502
637.9530, 1008.621
639.1160, 877.0645
640.2780, 800.2773
641.4410, 695.1182
642.6030, 832.3047
643.7650, 527.4590
644.9270, 707.8809
646.0890, 363.0352
647.2500, 475.1855
648.4120, 224.8672
649.5730, 250.6738
650.7340, 234.8730
651.8950, 246.0098
653.0560, 196.1387
654.2160, 161.6230
655.3770, 181.7422
656.5370, 108.9082
657.6970, 103.1270
658.8570, 48.50781
660.0170, 59.16797
661.1760, 1.906250
662.3360, 15.84375
663.4950, 107.2051
664.6540, 101.2637
665.8130, 26.31641
666.9720, 93.45312
668.1310, 73.74414
669.2890, 89.77539
670.4470, 89.88281
671.6050, 6.906250
672.7630, 110.9199
673.9210, 30.92773
675.0790, 54.07422
676.2360, 252.8926
677.3930, 323.8496
678.5510, 48.16602
679.7080, 272.7871
680.8640, 285.7500
682.0210, 145.7012
683.1770, 125.6738
684.3340, 128.6562
685.4900, 78.63477
686.6460, 78.60547
687.8020, 25.56836
688.9570, 4.480469
690.1130, 166.4531
691.2680, 119.3809
692.4230, 140.7031
693.5780, 93.13086
694.7330, 111.0469
695.8880, 73.70898
697.0420, 76.45312
698.1960, 98.18750
699.3510, 16.08984
700.5040, 97.27148
701.6580, 96.62891
702.8120, 17.94727
703.9650, 82.49023
705.1190, 82.01367
706.2720, 51.49609
707.4250, 74.95703
708.5780, 46.41211
709.7300, 175.8516
710.8830, 11.71680
712.0350, 44.31250
713.1870, 65.05078
714.3390, 225.7051
715.4910, 86.05273
716.6430, 106.3848
717.7940, 53.70703
718.9460, 89.01562
720.0970, 18.69141
721.2480, 86.57031
722.3990, 87.18164
723.5500, 206.9941
724.7000, 21.16016
725.8500, 161.3047
727.0010, 101.5625
728.1510, 125.4922
729.3010, 67.52930
730.4500, 4.447266
731.6000, 11.54688
732.7490, 18.57812
733.8980, 122.4707
735.0470, 78.40430
736.1960, 103.3203
737.3450, 67.22070
738.4940, 118.8984
739.6420, 132.8906
740.7900, 179.6641
741.9380, 132.4180
743.0860, 46.84375
744.2340, 25.83594
745.3810, 85.49414
746.5290, 29.13086
747.6760, 137.7441
748.8230, 115.3398
749.9700, 110.9199
751.1170, 103.9062
752.2630, 74.44727
753.4100, 47.96875
754.5560, 98.46680
755.7020, 177.9453
756.8480, 24.54883
757.9940, 91.86133
759.1390, 300.2539
760.2850, 80.37500
761.4300, 82.91797
762.5750, 40.21289
763.7200, 198.4609
764.8650, 208.6914
766.0100, 88.99023
767.1540, 48.18164
768.2980, 121.2031
769.4420, 233.3496
770.5860, 169.3457
771.7300, 207.2344
772.8740, 223.9941
774.0170, 109.6172
775.1610, 220.6660
776.3040, 72.69727
777.4470, 26.80273
778.5900, 40.78125
779.7320, 28.30469
780.8750, 293.3125
782.0170, 92.21680
783.1590, 216.0957
784.3010, 166.9551
785.4430, 60.79688
786.5850, 51.61133
787.7260, 141.4004
788.8680, 183.1699
790.0090, 236.9199
791.1500, 79.64648
792.2910, 168.3496
793.4310, 118.0352
794.5720, 168.0840
795.7120, 31.72656
796.8520, 103.3184
797.9920, 108.4863
799.1320, 183.7715
800.2720, 191.7520
801.4120, 245.9844
802.5510, 406.4863
803.6900, 135.8301
804.8290, 97.29297
805.9680, 253.7324
807.1070, 140.3594
808.2450, 327.7598
809.3840, 343.8867
810.5220, 520.2461
811.6600, 490.4238
812.7980, 709.0488
813.9360, 861.3457
815.0730, 828.4473
816.2110, 1062.246
817.3480, 1169.631
818.4850, 1094.844
819.6220, 961.8613
820.7590, 900.1133
821.8960, 870.9141
823.0320, 614.0312
824.1680, 609.1211
825.3040, 531.9609
826.4400, 600.4688
827.5760, 419.5098
828.7120, 234.5352
829.8470, 239.7031
830.9830, 325.6836
832.1180, 386.0508
833.2530, 338.9082
834.3880, 168.7559
835.5220, 232.6582
836.6570, 126.2578
837.7910, 326.2031
838.9250, 291.8086
840.0590, 267.2676
841.1930, 331.4512
842.3270, 298.1523
843.4600, 309.3613
844.5940, 327.0430
845.7270, 310.9434
846.8600, 299.2324
847.9930, 235.5117
849.1250, 250.6875
850.2580, 74.00586
851.3900, 153.6387
852.5230, 360.1484
853.6550, 412.7207
854.7870, 305.0527
855.9180, 383.5078
857.0500, 267.9004
858.1810, 402.3008
859.3130, 355.2832
860.4440, 237.7734
861.5750, 220.7500
862.7050, 174.2051
863.8360, 151.9844
864.9660, 292.4961
866.0970, 162.6758
867.2270, 269.4902
868.3570, 271.1699
869.4870, 287.9297
870.6160, 332.2598
871.7460, 339.3867
872.8750, 365.5996
874.0040, 538.6406
875.1330, 177.9375
876.2620, 317.1992
877.3910, 403.4453
878.5190, 237.6777
879.6470, 345.3203
880.7760, 277.9180
881.9040, 432.9141
883.0310, 345.5078
884.1590, 255.6699
885.2870, 371.7402
886.4140, 30.77734
887.5410, 354.7637
888.6680, 197.6113
889.7950, 198.2715
890.9220, 242.1895
892.0480, 67.25000
893.1750, 390.8008
894.3010, 119.6445
895.4270, 210.6660
896.5530, 128.6016
897.6790, 6.365234
898.8040, 383.7812
899.9300, 93.74414
901.0550, 40.69336
902.1800, 247.4141
903.3050, 24.14258
904.4300, 220.6523
905.5540, 7.529297
906.6790, 116.3848
907.8030, 212.2324
908.9270, 119.0664
910.0510, 145.7402
911.1750, 186.5527
912.2990, 13.96875
913.4220, 185.7207
914.5450, 138.7754
915.6690, 87.52539
916.7920, 162.1621
917.9140, 186.5762
919.0370, 46.24414
920.1600, 45.90039
921.2820, 173.0195
922.4040, 49.99414
923.5260, 81.56250
924.6480, 208.1855
925.7700, 114.7969
926.8910, 112.0410
928.0130, 171.6387
929.1340, 10.06445
930.2550, 252.6406
931.3760, 148.9336
932.4970, 62.26758
933.6170, 226.6348
934.7380, 180.1934
935.8580, 46.25586
936.9780, 71.25391
938.0980, 171.7578
939.2180, 98.16406
940.3370, 155.4004
941.4570, 8.115234
942.5760, 186.2715
943.6950, 29.72852
944.8140, 119.1816
945.9330, 396.6250
947.0520, 244.0664
948.1700, 105.5137
949.2890, 116.0449
950.4070, 36.33984
951.5250, 42.26758
952.6430, 174.0879
953.7600, 101.5547
954.8780, 58.25977
955.9950, 4.009766
957.1120, 113.2324
958.2290, 102.6660
959.3460, 122.4551
960.4630, 79.94531
961.5800, 106.1934
962.6960, 12.43750
963.8120, 43.68359
964.9280, 12.96680
966.0440, 3.751953
967.1600, 183.5508
968.2760, 86.84961
969.3910, 65.14453
970.5060, 115.4375
971.6210, 23.38477
972.7360, 7.8125000E-02
973.8510, 19.25195
974.9660, 84.57812
976.0800, 130.9258
977.1950, 19.72852
978.3090, 50.37891
979.4230, 318.9395
980.5370, 183.2871
981.6500, 184.6328
982.7640, 133.9863
983.8770, 32.64844
984.9900, 116.4043
986.1030, 328.7500
987.2160, 253.0977
988.3290, 310.4414
989.4420, 147.7852
990.5540, 187.1270
991.6660, 185.4805
992.7780, 159.8340
993.8900, 217.2148
995.0020, 175.5957
996.1140, 201.9766
997.2250, 193.3594
998.3360, 243.7734
999.4470, 150.1875
1000.558, 21.60352
1001.669, 64.02930
1002.780, 150.4609
1003.890, 178.8926
1005.001, 350.3301
1006.111, 187.7734
1007.221, 233.2207
1008.331, 313.6699
1009.440, 174.1582
1010.550, 296.6465
1011.659, 153.1367
1012.768, 348.6289
1013.877, 463.1465
1014.986, 282.6660
1016.095, 205.1895
1017.204, 348.7227
1018.312, 242.2695
1019.420, 195.8145
1020.528, 216.9355
1021.636, 370.4883
1022.744, 341.0469
1023.852, 159.6074
1024.959, 265.1719
1026.066, 162.7051
1027.173, 526.3008
1028.280, 427.9023
1029.387, 542.5078
1030.494, 285.1484
1031.600, 477.7695
1032.707, 422.4199
1033.813, 439.0840
1034.919, 415.6621
1036.025, 586.3340
1037.130, 600.1602
1038.236, 686.4434
1039.341, 892.6660
1040.446, 873.3613
1041.552, 1009.061
1042.656, 1152.768
1043.761, 1201.449
1044.866, 1364.195
1045.970, 1413.822
1047.074, 1536.852
1048.179, 1710.598
1049.282, 1498.701
1050.386, 1444.463
1051.490, 1483.230
1052.593, 1441.008
1053.697, 1355.791
1054.800, 1495.582
1055.903, 1354.387
1057.006, 1324.195
1058.108, 1113.014
1059.211, 1154.199
1060.313, 1284.014
1061.415, 1194.852
1062.517, 1079.314
1063.619, 1090.170
1064.721, 1104.043
1065.823, 1063.922
1066.924, 1307.811
1068.025, 1137.707
1069.126, 1198.916
1070.227, 999.8301
1071.328, 854.7520
1072.429, 780.6797
1073.529, 871.6211
1074.629, 634.3613
1075.729, 639.3184
1076.829, 410.2852
1077.929, 571.2598
1079.029, 685.2422
1080.128, 610.2344
1081.228, 464.2383
1082.327, 569.8320
1083.426, 610.8535
1084.525, 606.7324
1085.623, 1000.967
1086.722, 888.7734
1087.820, 1255.172
1088.919, 859.5918
1090.017, 580.6738
1091.115, 434.7676
1092.212, 280.7051
1093.310, 536.2754
1094.407, 430.3984
1095.505, 374.9238
1096.602, 665.7500
1097.699, 301.9043
1098.795, 210.6035
1099.892, 440.7832
1100.989, 205.9707
1102.085, 463.1699
1103.181, 404.3809
1104.277, 477.0957
1105.373, 511.1426
1106.469, 692.3848
1107.564, 575.6387
1108.660, 691.9043
1109.755, 739.9824
1110.850, 542.2109
1111.945, 618.5820
1113.040, 666.8906
1114.134, 689.5000
1115.229, 1099.541
1116.323, 976.0332
1117.417, 1225.389
1118.511, 1584.754
1119.605, 1357.131
1120.698, 1696.518
1121.792, 1692.918
1122.885, 1935.326
1123.978, 1959.750
1125.071, 2348.184
1126.164, 2431.627
1127.257, 2730.082
1128.349, 2841.551
1129.442, 3254.029
1130.534, 3655.520
1131.626, 4041.023
1132.718, 4508.721
1133.810, 5154.420
1134.901, 5426.957
1135.993, 5763.830
1137.084, 6180.111
1138.175, 6169.363
1139.266, 5907.965
1140.357, 5917.576
1141.448, 5481.199
1142.538, 4892.834
1143.628, 4284.479
1144.719, 3952.137
1145.809, 3336.836
1146.898, 2896.516
1147.988, 2553.283
1149.078, 2259.863
1150.167, 1850.582
1151.256, 1597.312
1152.345, 1328.055
1153.434, 1229.807
1154.523, 1139.574
1155.612, 1074.350
1156.700, 756.5742
1157.788, 752.3887
1158.877, 623.2129
1159.964, 934.0527
1161.052, 558.9512
1162.140, 821.8594
1163.227, 484.7910
1164.315, 341.4727
1165.402, 518.4297
1166.489, 389.4004
1167.576, 415.3828
1168.663, 379.4160
1169.749, 300.4590
1170.836, 206.5195
1171.922, 309.5879
1173.008, 432.6719
1174.094, 249.7656
1175.180, 415.8691
1176.265, 393.9863
1177.351, 12.87695
1178.436, 57.26953
1179.521, 222.4258
1180.606, 204.6230
1181.691, 296.8340
1182.776, 120.0527
1183.860, 223.2832
1184.944, 45.52734
1186.029, 263.7832
1187.113, 155.0488
1188.197, 271.3262
1189.280, 13.38672
1190.364, 94.91016
1191.447, 106.2188
1192.531, 96.54102
1193.614, 91.87500
1194.697, 93.45703
1195.779, 72.84375
1196.862, 62.93945
1197.945, 71.32031
1199.027, 0.7109380
1200.109, 72.12891
1201.191, 67.55859
1202.273, 211.0000
1203.355, 66.45312
1204.436, 215.9160
1205.518, 36.39648
1206.599, 116.8887
1207.680, 105.3906
1208.761, 113.9062
1209.842, 160.4336
1210.922, 188.9727
1212.003, 93.47852
1213.083, 9.078125
1214.163, 224.6445
1215.243, 30.76172
1216.323, 160.8301
1217.402, 132.4648
1218.482, 315.1270
1219.561, 203.8047
1220.641, 71.49414
1221.720, 99.80469
1222.798, 13.13477
1223.877, 107.5410
1224.956, 33.77148
1226.034, 18.08398
1227.112, 145.6074
1228.191, 213.3086
1229.269, 17.02344
1230.346, 226.7500
1231.424, 104.4863
1232.501, 290.2363
1233.579, 222.9980
1234.656, 132.7754
1235.733, 84.56836
1236.810, 145.3691
1237.886, 281.1816
1238.963, 198.0039
1240.039, 43.84375
1241.116, 136.2910
1242.192, 88.52148
1243.268, 265.3457
1244.343, 268.1797
1245.419, 292.0234
1246.494, 274.2988
1247.570, 82.75977
1248.645, 150.6426
1249.720, 132.5352
1250.795, 112.4395
1251.869, 156.3535
1252.944, 4.279297
1254.018, 134.2129
1255.093, 262.1562
1256.167, 173.1094
1257.240, 190.0723
1258.314, 78.04688
1259.388, 70.10156
1260.461, 8.095703
1261.535, 2.771484
1262.608, 6.744141
1263.681, 16.13477
1264.753, 5.833984
1265.826, 14.79883
1266.899, 13.75977
1267.971, 16.24219
1269.043, 142.2949
1270.115, 165.3555
1271.187, 221.4277
1272.259, 167.5059
1273.330, 177.6973
1274.402, 3.695313
1275.473, 134.8027
1276.544, 19.35742
1277.615, 35.24023
1278.686, 183.8691
1279.756, 79.98633
1280.827, 207.1113
1281.897, 254.2480
1282.967, 201.3965
1284.037, 127.5527
1285.107, 45.28125
1286.177, 64.30859
1287.247, 215.4824
1288.316, 377.6660
1289.385, 92.28906
1290.454, 310.4922
1291.523, 56.15820
1292.592, 24.62305
1293.661, 98.58984
1294.729, 309.7812
1295.797, 282.0137
1296.866, 240.0215
1297.934, 275.2715
1299.001, 475.5312
1300.069, 423.7969
1301.137, 192.0723
1302.204, 516.3574
1303.271, 237.6523
1304.338, 380.9570
1305.405, 205.2695
1306.472, 95.29688
1307.539, 321.6250
1308.605, 161.9707
1309.671, 143.3223
1310.737, 304.6855
1311.803, 289.0566
1312.869, 166.4336
1313.935, 197.8203
1315.000, 214.2129
1316.066, 325.6152
1317.131, 380.0254
1318.196, 319.0996
1319.261, 193.5254
1320.326, 308.9570
1321.390, 302.3984
1322.455, 141.8457
1323.519, 300.3008
1324.583, 340.7656
1325.647, 275.2363
1326.711, 165.7148
1327.775, 123.1875
1328.838, 202.6836
1329.902, 348.1855
1330.965, 49.69531
1332.028, 319.2148
1333.091, 123.7402
1334.153, 259.2754
1335.216, 202.8184
1336.279, 236.3691
1337.341, 247.9277
1338.403, 223.3359
1339.465, 230.3203
1340.527, 198.2461
1341.588, 236.8379
1342.650, 229.4375
1343.711, 318.8535
1344.772, 278.3516
1345.834, 340.0977
1346.894, 221.7305
1347.955, 216.3750
1349.016, 170.0254
1350.076, 236.8496
1351.136, 121.0625
1352.197, 176.4980
1353.257, 209.0352
1354.316, 219.0254
1355.376, 202.7012
1356.436, 216.3887
1357.495, 230.0820
1358.554, 197.7832
1359.613, 203.0977
1360.672, 104.2051
1361.731, 239.9297
1362.789, 154.6641
1363.848, 300.3828
1364.906, 360.0293
1365.964, 228.6680
1367.022, 111.3184
1368.080, 263.9648
1369.138, 305.5020
1370.195, 241.1211
1371.253, 83.74414
1372.310, 210.3750
1373.367, 210.0137
1374.424, 354.6602
1375.480, 219.3086
1376.537, 285.9688
1377.593, 356.6328
1378.650, 304.3066
1379.706, 138.9844
1380.762, 40.67188
1381.818, 173.3633
1382.873, 89.06250
1383.929, 312.7676
1384.984, 207.4805
1386.039, 8.199219
1387.094, 271.9238
1388.149, 153.6543
1389.204, 118.3887
1390.259, 319.0781
1391.313, 79.82812
1392.367, 73.26367
1393.422, 213.3027
1394.476, 65.60742
1395.529, 208.1504
1396.583, 84.91406
1397.637, 60.68555
1398.690, 51.46094
1399.743, 139.2441
1400.796, 108.0352
1401.849, 280.7988
1402.902, 7.394531
1403.954, 164.3438
1405.007, 57.29102
1406.059, 321.1270
1407.111, 209.9727
1408.163, 90.83008
1409.215, 68.70312
1410.267, 65.58789
1411.318, 123.4883
1412.370, 59.03516
1413.421, 139.3750
1414.472, 105.3027
1415.523, 186.7617
1416.574, 155.1406
1417.624, 22.94141
1418.675, 117.9883
1419.725, 283.2012
1420.775, 14.83008
1421.825, 142.1562
1422.875, 96.83398
1423.925, 363.1758
1424.974, 194.2109
1426.024, 321.2734
1427.073, 208.2539
1428.122, 244.2539
1429.171, 161.2754
1430.220, 191.3223
1431.268, 89.38867
1432.317, 225.4727
1433.365, 160.5566
1434.413, 242.7969
1435.461, 145.9902
1436.509, 349.2383
1437.557, 395.1914
1438.605, 417.8750
1439.652, 298.8574
1440.699, 320.8477
1441.746, 448.8477
1442.793, 310.8574
1443.840, 497.8789
1444.887, 224.9062
1445.933, 417.9414
1446.980, 260.9844
1448.026, 282.0410
1449.072, 386.0996
1450.118, 94.16797
1451.163, 355.2461
1452.209, 253.3320
1453.254, 325.4688
1454.300, 264.6191
1455.345, 254.7852
1456.390, 134.9590
1457.435, 227.1680
1458.479, 581.4141
1459.524, 47.69141
1460.568, 376.9805
1461.612, 83.28320
1462.656, 148.5918
1463.700, 400.9160
1464.744, 247.2480
1465.788, 435.5938
1466.831, 20.99023
1467.874, 251.4414
1468.918, 352.9082
1469.961, 98.39258
1471.003, 446.8945
1472.046, 403.4062
1473.089, 41.94141
1474.131, 245.4922
1475.173, 274.9570
1476.215, 329.5410
1477.257, 290.1445
1478.299, 291.7676
1479.341, 349.5469
1480.382, 434.1602
1481.424, 444.7871
1482.465, 109.4375
1483.506, 408.9824
1484.547, 78.68555
1485.587, 102.4238
1486.628, 416.1836
1487.668, 402.9570
1488.709, 69.03320
1489.749, 318.3945
1490.789, 176.3691
1491.828, 111.8359
1492.868, 314.6094
1493.908, 427.7168
1494.947, 289.0391
1495.986, 90.36719
1497.025, 71.69922
1498.064, 279.0332
1499.103, 346.3555
1500.141, 321.6680
1501.180, 183.9844
1502.218, 485.3066
1503.256, 256.6367
1504.294, 227.9746
1505.332, 176.3145
1506.370, 416.6602
1507.407, 396.0117
1508.445, 280.3672
1509.482, 378.7285
1510.519, 76.08594
1511.556, 223.4414
1512.593, 215.7910
1513.629, 203.1367
1514.666, 13.52734
1515.702, 83.79883
1516.738, 253.1133
1517.774, 74.40820
1518.810, 204.6836
1519.846, 471.9414
1520.882, 384.1699
1521.917, 332.5234
1522.952, 349.8535
1523.987, 403.1855
1525.022, 188.4883
1526.057, 415.8340
1527.092, 252.8457
1528.126, 411.9473
1529.161, 238.4395
1530.195, 294.9883
1531.229, 290.6016
1532.263, 301.2910
1533.297, 48.05859
1534.330, 464.9141
1535.364, 427.8633
1536.397, 373.9160
1537.430, 42.91211
1538.463, 230.3906
1539.496, 164.2578
1540.529, 450.8105
1541.561, 402.5605
1542.594, 134.5293
1543.626, 357.7520
1544.658, 182.2676
1545.690, 240.0566
1546.722, 229.1035
1547.753, 378.4238
1548.785, 146.0527
1549.816, 128.0273
1550.847, 437.4277
1551.878, 309.9668
1552.909, 452.5488
1553.940, 587.0508
1554.971, 409.2773
1556.001, 299.9082
1557.031, 270.8125
1558.062, 3.767578
1559.092, 319.6934
1560.121, 202.5527
1561.151, 121.4023
1562.181, 0.0000000E+00
##END=



