##NAMES=Epidote
##RRUFFID=R050064
##IDEAL CHEMISTRY=Ca_2_Fe^3+^Al_2_(Si_2_O_7_)(SiO_4_)O(OH)
##LOCALITY=East Xichang City, Meigu County, Sichuan Province, China
##OWNER=RRUFF
##SOURCE=Rock Currier
##DESCRIPTION=Green prismatic crystals
##STATUS=The identification of this mineral has been confirmed by X-ray diffraction and chemical analysis
##URL=rruff.info/R050064
##MEASURED CHEMISTRY=(Ca_1.99_Mn_0.01_)_Î£=2_Fe^3+^_1.00_Al_2.00_(Si_2.00_O_7_)(Si_1.00_O_4_)O(OH); 
##PIN_ID=L00177
##ORIENTATION=Laser parallel to -c* (0 0 -1). Fiducial mark perpendicular to laser is parallel to a [1 0 0]
83.128, 0.000
84.529, 9.417
85.929, 193.617
87.329, 641.509
88.728, 1296.942
90.128, 2209.930
91.527, 3167.402
92.926, 4510.192
94.324, 6271.297
95.723, 8065.340
97.121, 8905.675
98.519, 8541.695
99.917, 7102.665
101.314, 5570.371
102.712, 4055.794
104.109, 2881.650
105.505, 2096.485
106.902, 1443.692
108.298, 1114.551
109.694, 835.966
111.090, 778.985
112.486, 626.202
113.881, 617.161
115.277, 543.622
116.672, 371.584
118.066, 316.658
119.461, 279.774
120.855, 338.868
122.249, 453.885
123.643, 563.804
125.036, 653.736
126.430, 734.637
127.823, 681.418
129.216, 654.009
130.608, 442.348
132.001, 271.381
133.393, 139.062
134.785, 72.347
136.176, 56.804
137.568, 31.423
138.959, 55.541
140.350, 153.196
141.741, 215.427
143.131, 213.253
144.521, 178.689
145.911, 120.748
147.301, 67.441
148.691, 15.218
150.080, 115.222
151.469, 216.560
152.858, 380.222
154.247, 617.201
155.635, 853.489
157.024, 1297.078
158.411, 1745.964
159.799, 2346.141
161.187, 3058.603
162.574, 4171.435
163.961, 5731.834
165.348, 7566.157
166.734, 9840.902
168.121, 12015.581
169.507, 13750.248
170.893, 14584.942
172.278, 14619.678
173.664, 13634.475
175.049, 11719.333
176.434, 9584.260
177.819, 7709.257
179.203, 5904.332
180.587, 4461.481
181.971, 3491.696
183.355, 2813.966
184.739, 2280.297
186.122, 1929.694
187.505, 1566.167
188.888, 1241.717
190.271, 1093.353
191.653, 938.076
193.035, 898.867
194.417, 938.683
195.799, 977.416
197.180, 1286.009
198.562, 1460.577
199.943, 1613.245
201.324, 1636.032
202.704, 1621.939
204.084, 1422.969
205.465, 1191.121
206.844, 1039.395
208.224, 835.791
209.603, 619.308
210.983, 673.946
212.362, 757.706
213.740, 875.585
215.119, 1103.585
216.497, 1385.703
217.875, 1922.941
219.253, 2497.297
220.631, 3320.770
222.008, 4314.361
223.385, 5682.068
224.762, 6839.891
226.139, 8077.831
227.515, 8855.889
228.891, 9244.058
230.267, 9132.343
231.643, 8480.757
233.018, 7989.326
234.394, 7718.007
235.769, 7786.801
237.144, 7775.708
238.518, 7974.722
239.893, 8093.846
241.267, 7352.225
242.641, 6671.040
244.014, 5595.164
245.388, 4651.628
246.761, 3593.799
248.134, 2935.296
249.507, 2258.745
250.879, 1884.604
252.252, 1572.706
253.624, 1429.425
254.996, 1268.619
256.367, 1143.195
257.739, 961.075
259.110, 941.206
260.481, 976.556
261.852, 965.106
263.222, 1164.827
264.592, 1606.646
265.962, 2120.539
267.332, 2967.523
268.702, 4078.606
270.071, 5597.799
271.440, 7166.104
272.809, 8684.525
274.178, 9503.065
275.546, 9571.635
276.915, 9030.188
278.283, 7888.442
279.650, 6586.414
281.018, 5454.362
282.385, 4740.476
283.752, 4087.749
285.119, 3689.177
286.486, 3376.758
287.852, 3108.488
289.218, 2923.360
290.584, 2990.373
291.950, 3220.521
293.316, 3431.802
294.681, 3701.209
296.046, 3896.742
297.411, 3982.397
298.775, 3857.171
300.140, 3612.062
301.504, 3460.014
302.868, 3272.344
304.231, 3287.859
305.595, 3482.999
306.958, 3975.279
308.321, 4560.926
309.684, 5176.560
311.047, 5636.229
312.409, 5804.505
313.771, 5585.457
315.133, 5029.508
316.495, 4354.653
317.856, 3740.896
319.217, 3470.229
320.578, 3211.657
321.939, 3079.177
323.299, 3262.784
324.660, 3387.482
326.020, 3412.267
327.380, 3532.137
328.739, 3428.086
330.099, 3316.105
331.458, 3240.194
332.817, 3010.351
334.176, 2837.577
335.534, 2838.872
336.892, 3046.236
338.251, 3514.668
339.608, 4189.170
340.966, 5202.739
342.323, 6465.376
343.681, 8278.083
345.037, 9690.858
346.394, 11073.697
347.751, 11726.605
349.107, 11649.583
350.463, 10792.625
351.819, 9665.732
353.174, 8198.908
354.530, 6592.148
355.885, 5365.454
357.240, 4477.826
358.594, 3845.264
359.949, 3359.767
361.303, 3219.336
362.657, 3115.973
364.011, 3055.674
365.365, 3204.442
366.718, 2948.276
368.071, 2712.174
369.424, 2180.136
370.777, 1769.162
372.129, 1388.251
373.481, 968.403
374.833, 656.616
376.185, 439.921
377.537, 325.232
378.888, 386.220
380.239, 375.676
381.590, 623.192
382.941, 888.767
384.291, 1239.401
385.642, 1620.094
386.992, 1730.847
388.341, 1661.660
389.691, 1468.537
391.040, 1051.476
392.389, 728.486
393.738, 323.560
395.087, 25.707
396.435, 190.061
397.784, 386.781
399.132, 384.518
400.479, 498.249
401.827, 552.011
403.174, 537.817
404.521, 513.706
405.868, 375.808
407.215, 250.166
408.561, 96.730
409.908, 89.624
411.254, 296.043
412.599, 710.578
413.945, 1140.220
415.290, 1841.959
416.636, 2736.804
417.980, 3970.748
419.325, 5590.796
420.670, 7345.937
422.014, 9101.178
423.358, 10656.508
424.702, 12041.924
426.045, 12917.434
427.389, 14423.030
428.732, 16578.713
430.075, 19544.479
431.417, 22700.338
432.760, 25176.281
434.102, 26202.312
435.444, 24748.443
436.786, 21924.660
438.127, 19290.973
439.469, 16347.358
440.810, 14223.829
442.151, 13090.379
443.492, 12577.009
444.832, 13183.728
446.172, 14450.538
447.512, 15757.427
448.852, 17654.393
450.192, 19311.439
451.531, 21058.551
452.870, 22395.738
454.209, 22682.998
455.548, 22290.330
456.887, 20277.732
458.225, 17845.195
459.563, 14862.735
460.901, 11950.331
462.238, 9607.974
463.576, 7525.690
464.913, 5963.466
466.250, 4659.303
467.587, 3849.217
468.923, 3140.223
470.259, 2555.315
471.596, 2105.486
472.931, 1705.723
474.267, 1394.017
475.603, 1176.353
476.938, 967.727
478.273, 770.141
479.608, 719.590
480.942, 747.076
482.276, 585.598
483.611, 759.154
484.944, 884.744
486.278, 952.367
487.612, 1247.021
488.945, 1527.708
490.278, 1863.426
491.611, 2520.175
492.943, 3295.952
494.276, 4102.761
495.608, 5171.598
496.940, 6036.461
498.271, 6615.355
499.603, 7204.274
500.934, 7263.222
502.265, 7432.195
503.596, 7681.194
504.927, 7750.219
506.257, 8059.269
507.587, 8148.342
508.917, 7587.439
510.247, 6996.558
511.577, 5889.702
512.906, 4925.866
514.235, 3910.053
515.564, 3231.259
516.892, 2648.487
518.221, 2409.734
519.549, 2263.002
520.877, 2112.287
522.205, 1855.591
523.533, 1633.766
524.860, 1463.252
526.187, 1103.608
527.514, 778.980
528.841, 536.367
530.167, 326.770
531.493, 221.187
532.820, 122.618
534.145, 67.062
535.471, 18.520
536.796, 4.016
538.122, 37.555
539.447, 85.888
540.771, 27.342
542.096, 104.804
543.420, 179.470
544.744, 151.156
546.068, 419.976
547.392, 408.378
548.715, 583.186
550.039, 707.159
551.362, 958.669
552.684, 1210.083
554.007, 1682.677
555.329, 2148.422
556.652, 3095.177
557.973, 4178.909
559.295, 6020.096
560.617, 8378.646
561.938, 10976.575
563.259, 13025.587
564.580, 13615.264
565.901, 12569.762
567.221, 10695.610
568.541, 8266.565
569.861, 6653.397
571.181, 5402.096
572.501, 4655.282
573.820, 4259.899
575.139, 4232.088
576.458, 4592.264
577.777, 5059.783
579.095, 5927.558
580.414, 6881.792
581.732, 8297.288
583.049, 9734.007
584.367, 11231.128
585.685, 12176.907
587.002, 13314.229
588.319, 14468.897
589.636, 15545.371
590.952, 17742.461
592.268, 19790.234
593.585, 22638.492
594.900, 24666.148
596.216, 26063.936
597.532, 26760.283
598.847, 26274.896
600.162, 23989.396
601.477, 22584.682
602.792, 20531.178
604.106, 19178.908
605.420, 18584.721
606.734, 18248.443
608.048, 18444.096
609.361, 19017.473
610.675, 18931.594
611.988, 18776.018
613.301, 17629.984
614.614, 16243.979
615.926, 14138.029
617.238, 12290.832
618.550, 10102.703
619.862, 8593.477
621.174, 6984.335
622.485, 5767.702
623.797, 4942.818
625.108, 4034.722
626.418, 3556.358
627.729, 3099.828
629.039, 2650.141
630.349, 2306.599
631.659, 2035.591
632.969, 1921.967
634.279, 1638.051
635.588, 1523.128
636.897, 1424.875
638.206, 1255.722
639.515, 1135.433
640.823, 1081.988
642.131, 963.481
643.439, 875.936
644.747, 800.394
646.055, 691.728
647.362, 664.065
648.669, 611.363
649.976, 597.620
651.283, 483.836
652.589, 475.012
653.896, 422.147
655.202, 388.240
656.508, 438.291
657.814, 296.301
659.119, 336.267
660.424, 325.191
661.729, 241.072
663.034, 298.910
664.339, 231.704
665.643, 242.454
666.947, 256.159
668.251, 248.821
669.555, 156.438
670.859, 134.009
672.162, 177.535
673.465, 231.016
674.768, 128.451
676.071, 234.840
677.373, 230.182
678.676, 221.478
679.978, 280.727
681.280, 277.929
682.581, 313.560
683.883, 402.190
685.184, 376.249
686.485, 442.260
687.786, 472.223
689.087, 449.138
690.387, 401.004
691.687, 322.821
692.987, 292.560
694.287, 229.304
695.586, 180.383
696.886, 130.003
698.185, 164.574
699.484, 109.095
700.783, 109.563
702.081, 100.979
703.379, 64.340
704.677, 46.642
705.975, 40.880
707.273, 4.053
708.570, 27.145
709.868, 12.833
711.165, 62.902
712.462, 75.086
713.758, 1.352
715.055, 86.617
716.351, 47.927
717.647, 56.235
718.943, 60.532
720.238, 48.823
721.533, 5.110
722.829, 77.400
724.124, 37.760
725.418, 62.204
726.713, 75.766
728.007, 51.452
729.301, 42.251
730.595, 83.158
731.889, 67.003
733.182, 88.351
734.476, 60.640
735.769, 84.047
737.061, 40.583
738.354, 60.227
739.647, 66.987
740.939, 45.868
742.231, 70.859
743.523, 28.972
744.814, 58.185
746.106, 68.513
747.397, 79.962
748.688, 88.158
749.978, 79.452
751.269, 82.074
752.559, 60.031
753.849, 33.103
755.139, 32.275
756.429, 45.546
757.719, 65.922
759.008, 86.415
760.297, 57.033
761.586, 24.762
762.875, 56.584
764.163, 21.515
765.451, 34.536
766.739, 40.653
768.027, 34.665
769.315, 36.341
770.602, 38.586
771.890, 20.087
773.177, 6.675
774.463, 12.660
775.750, 6.928
777.036, 25.414
778.323, 36.662
779.609, 47.343
780.894, 64.363
782.180, 75.328
783.465, 88.240
784.750, 65.100
786.035, 20.906
787.320, 62.653
788.605, 91.348
789.889, 85.993
791.173, 137.587
792.457, 103.135
793.741, 124.634
795.024, 151.087
796.307, 157.495
797.591, 177.858
798.873, 156.176
800.156, 227.451
801.439, 234.683
802.721, 267.871
804.003, 247.017
805.285, 301.120
806.566, 331.182
807.848, 321.202
809.129, 365.181
810.410, 376.119
811.691, 426.226
812.971, 471.875
814.252, 551.693
815.532, 595.472
816.812, 683.211
818.092, 692.913
819.371, 898.576
820.651, 931.201
821.930, 1124.789
823.209, 1240.339
824.488, 1406.852
825.766, 1650.329
827.045, 1846.770
828.323, 1976.175
829.601, 2106.312
830.878, 2217.879
832.156, 2227.179
833.433, 2284.445
834.710, 2253.677
835.987, 2186.875
837.264, 2124.040
838.540, 2136.171
839.817, 2082.271
841.093, 2065.339
842.369, 2005.374
843.644, 2051.378
844.920, 2137.352
846.195, 2186.295
847.470, 2300.210
848.745, 2378.105
850.020, 2535.985
851.294, 2770.836
852.568, 2900.661
853.842, 3099.266
855.116, 3430.833
856.390, 3779.254
857.663, 4198.081
858.936, 4746.488
860.209, 5233.711
861.482, 5565.381
862.755, 6064.128
864.027, 6356.680
865.299, 6665.062
866.571, 6830.657
867.843, 7046.857
869.115, 7207.687
870.386, 7064.920
871.657, 7456.618
872.928, 7469.019
874.199, 8007.127
875.470, 8441.951
876.740, 9222.208
878.010, 11114.922
879.280, 11786.075
880.550, 13566.348
881.820, 15128.125
883.089, 17050.455
884.358, 18260.211
885.627, 18960.963
886.896, 18840.361
888.164, 18181.498
889.433, 16671.156
890.701, 15383.543
891.969, 13974.698
893.236, 12935.432
894.504, 12477.501
895.771, 12038.014
897.038, 12101.163
898.305, 12722.499
899.572, 13333.202
900.838, 14429.791
902.105, 15832.727
903.371, 17482.816
904.637, 19332.773
905.902, 21704.146
907.168, 25167.244
908.433, 28380.434
909.698, 32412.834
910.963, 36383.996
912.228, 40423.914
913.492, 44425.738
914.757, 46379.629
916.021, 46311.574
917.285, 45535.789
918.548, 40949.238
919.812, 37132.371
921.075, 31495.947
922.338, 27019.477
923.601, 22892.939
924.864, 19157.635
926.126, 16273.241
927.388, 13859.924
928.650, 11896.511
929.912, 10203.573
931.174, 8870.871
932.435, 7808.371
933.697, 6905.127
934.958, 6086.044
936.218, 5407.104
937.479, 4974.013
938.739, 4549.375
940.000, 4006.350
941.260, 3725.602
942.520, 3482.850
943.779, 3199.409
945.039, 3016.859
946.298, 2816.441
947.557, 2763.172
948.816, 2560.958
950.074, 2595.774
951.333, 2404.621
952.591, 2484.505
953.849, 2364.426
955.107, 2488.380
956.365, 2524.373
957.622, 2499.405
958.879, 2529.480
960.136, 2567.596
961.393, 2355.748
962.650, 2357.937
963.906, 2181.157
965.162, 2052.407
966.418, 2012.691
967.674, 1904.007
968.930, 2078.349
970.185, 2113.725
971.441, 2245.126
972.696, 2557.562
973.950, 2874.025
975.205, 3376.515
976.459, 3773.041
977.714, 4218.593
978.968, 4502.176
980.222, 4540.785
981.475, 4253.422
982.729, 3893.093
983.982, 3316.791
985.235, 2736.518
986.488, 2376.272
987.740, 1914.056
988.993, 1643.868
990.245, 1373.712
991.497, 1209.586
992.749, 1041.489
994.000, 907.422
995.252, 844.388
996.503, 685.384
997.754, 638.410
999.005, 629.693
1000.256, 575.787
1001.506, 525.082
1002.756, 507.256
1004.006, 548.242
1005.256, 521.517
1006.506, 529.976
1007.755, 594.815
1009.005, 611.882
1010.254, 696.552
1011.502, 930.421
1012.751, 1059.917
1014.000, 1283.125
1015.248, 1529.114
1016.496, 1773.022
1017.744, 1982.322
1018.991, 1902.732
1020.239, 1940.448
1021.486, 1784.704
1022.733, 1533.091
1023.980, 1428.451
1025.227, 1291.005
1026.473, 1266.336
1027.719, 1227.160
1028.965, 1259.374
1030.211, 1443.734
1031.457, 1544.426
1032.702, 1773.932
1033.948, 2174.541
1035.193, 2394.996
1036.438, 2837.716
1037.682, 3152.485
1038.927, 3568.350
1040.171, 3804.799
1041.415, 3876.936
1042.659, 3817.090
1043.903, 3525.084
1045.146, 3171.297
1046.390, 2996.647
1047.633, 2591.303
1048.876, 2317.718
1050.118, 2054.736
1051.361, 1882.292
1052.603, 1724.954
1053.845, 1769.654
1055.087, 1779.427
1056.329, 1791.264
1057.571, 2020.161
1058.812, 2153.135
1060.053, 2296.147
1061.294, 2259.316
1062.535, 2312.463
1063.775, 2200.673
1065.016, 1894.938
1066.256, 1837.263
1067.496, 1685.641
1068.736, 1708.956
1069.975, 1688.444
1071.214, 1777.988
1072.454, 1970.585
1073.693, 2265.237
1074.931, 2546.955
1076.170, 3187.702
1077.408, 3802.488
1078.647, 4807.316
1079.885, 5929.562
1081.122, 7646.968
1082.360, 9861.730
1083.597, 11728.732
1084.835, 12813.248
1086.072, 12889.938
1087.308, 11094.920
1088.545, 9362.498
1089.781, 7387.105
1091.018, 5652.618
1092.254, 4274.812
1093.490, 3178.705
1094.725, 2428.297
1095.961, 1957.075
1097.196, 1497.673
1098.431, 1246.653
1099.666, 1040.887
1100.900, 918.201
1102.135, 785.058
1103.369, 739.073
1104.603, 612.536
1105.837, 557.077
1107.071, 475.137
1108.304, 421.827
1109.538, 376.727
1110.771, 341.930
1112.004, 348.458
1113.236, 296.345
1114.469, 272.250
1115.701, 238.353
1116.933, 263.564
1118.165, 204.093
1119.397, 199.900
1120.629, 310.816
1121.860, 382.656
1123.091, 338.841
1124.322, 247.616
1125.553, 200.498
1126.783, 139.978
1128.014, 119.739
1129.244, 82.966
1130.474, 74.454
1131.704, 89.017
1132.933, 81.075
1134.163, 91.045
1135.392, 83.819
1136.621, 65.143
1137.850, 66.729
1139.079, 40.859
1140.307, 26.912
1141.535, 13.143
1142.763, 8.737
1143.991, 4.843
1145.219, 7.038
1146.446, 18.672
1147.674, 10.833
1148.901, 14.851
1150.128, 0.427
1151.354, 43.069
1152.581, 3.813
1153.807, 55.403
1155.033, 65.068
1156.259, 38.786
1157.485, 20.090
1158.710, 26.891
1159.936, 0.984
1161.161, 35.308
1162.386, 24.553
1163.611, 17.631
1164.835, 30.430
1166.060, 31.857
1167.284, 39.092
1168.508, 78.143
1169.732, 22.170
1170.955, 17.982
1172.179, 52.804
1173.402, 10.541
1174.625, 26.403
1175.848, 35.910
1177.070, 21.569
1178.293, 12.551
1179.515, 16.855
1180.737, 36.652
1181.959, 29.427
1183.181, 9.641
1184.402, 32.788
1185.624, 44.666
1186.845, 18.192
1188.066, 4.572
1189.286, 1.723
1190.507, 26.045
1191.727, 8.436
1192.947, 0.450
1194.167, 8.867
1195.387, 14.943
1196.607, 14.426
1197.826, 4.161
1199.045, 2.575
1200.264, 5.235
1201.483, 42.420
1202.702, 17.818
1203.920, 14.212
1205.138, 5.394
1206.356, 44.628
1207.574, 3.715
1208.792, 24.792
1210.009, 58.989
1211.227, 30.128
1212.444, 35.339
1213.661, 32.385
1214.877, 12.561
1216.094, 25.448
1217.310, 27.447
1218.526, 41.434
1219.742, 18.409
1220.958, 16.371
1222.173, 31.321
1223.389, 41.257
1224.604, 36.181
1225.819, 6.090
1227.034, 16.009
1228.248, 2.141
1229.463, 38.301
1230.677, 6.497
1231.891, 29.725
1233.105, 0.014
1234.318, 40.279
1235.532, 11.397
1236.745, 3.946
1237.958, 35.671
1239.171, 6.661
1240.384, 32.101
1241.596, 17.555
1242.809, 13.126
1244.021, 17.687
1245.233, 4.305
1246.444, 35.992
1247.656, 27.247
1248.867, 12.422
1250.079, 34.065
1251.290, 33.930
1252.500, 40.853
1253.711, 33.601
1254.921, 19.713
1256.132, 7.747
1257.342, 5.443
1258.552, 18.353
1259.761, 1.261
1260.971, 17.120
1262.180, 38.950
1263.389, 11.905
1264.598, 57.792
1265.807, 7.539
1267.015, 64.602
1268.223, 49.432
1269.432, 14.114
1270.640, 75.837
1271.847, 46.465
1273.055, 61.114
1274.262, 89.918
1275.470, 37.500
1276.677, 74.108
1277.883, 73.648
1279.090, 105.100
1280.296, 90.499
1281.503, 91.841
1282.709, 59.223
1283.915, 86.478
1285.120, 111.682
1286.326, 79.838
1287.531, 65.959
1288.736, 114.047
1289.941, 98.104
1291.146, 86.130
1292.350, 44.901
1293.555, 88.864
1294.759, 96.627
1295.963, 48.512
1297.167, 108.587
1298.370, 52.377
1299.574, 96.986
1300.777, 106.219
1301.980, 75.229
1303.183, 58.646
1304.386, 68.871
1305.588, 79.485
1306.790, 100.400
1307.993, 115.554
1309.195, 61.823
1310.396, 87.735
1311.598, 78.559
1312.799, 71.116
1314.000, 68.164
1315.201, 61.116
1316.402, 62.010
1317.603, 58.143
1318.803, 63.068
1320.003, 51.706
1321.203, 51.715
1322.403, 41.136
1323.603, 54.998
1324.802, 53.077
1326.002, 61.076
1327.201, 66.267
1328.400, 50.228
1329.599, 98.180
1330.797, 64.070
1331.995, 48.417
1333.194, 42.106
1334.392, 84.814
1335.589, 96.718
1336.787, 65.436
1337.985, 50.056
1339.182, 78.396
1340.379, 88.010
1341.576, 90.061
1342.772, 102.611
1343.969, 118.100
1345.165, 91.589
1346.361, 104.046
1347.557, 104.472
1348.753, 135.867
1349.949, 122.211
1351.144, 168.547
1352.339, 180.764
1353.534, 126.043
1354.729, 138.293
1355.924, 121.516
1357.118, 156.710
1358.312, 152.878
1359.506, 176.136
1360.700, 177.251
1361.894, 200.339
1363.088, 197.627
1364.281, 214.450
1365.474, 194.449
1366.667, 174.441
1367.860, 176.411
1369.052, 161.360
1370.245, 158.907
1371.437, 158.595
1372.629, 163.381
1373.821, 158.320
1375.013, 181.681
1376.204, 179.800
1377.395, 165.252
1378.586, 173.202
1379.777, 156.233
1380.968, 169.879
1382.159, 124.318
1383.349, 135.713
1384.539, 121.721
1385.729, 155.393
1386.919, 104.161
1388.109, 100.672
1389.298, 106.138
1390.487, 78.899
1391.676, 107.053
1392.865, 68.222
1394.054, 105.328
1395.242, 113.580
1396.431, 111.104
1397.619, 82.209
1398.807, 115.324
1399.995, 61.559
1401.182, 110.050
1402.370, 103.119
1403.557, 107.414
1404.744, 116.370
1405.931, 72.451
1407.118, 80.039
1408.304, 111.121
1409.490, 50.178
1410.676, 71.185
1411.862, 96.661
1413.048, 78.507
1414.234, 93.694
1415.419, 81.056
1416.604, 52.529
1417.789, 78.284
1418.974, 62.879
1420.159, 64.532
1421.343, 72.594
1422.528, 73.345
1423.712, 75.064
1424.896, 56.216
1426.079, 71.188
1427.263, 74.915
1428.446, 91.919
1429.629, 100.746
1430.812, 108.532
1431.995, 87.661
1433.178, 97.136
1434.360, 92.108
1435.543, 85.380
1436.725, 91.222
1437.907, 68.057
1439.088, 98.078
1440.270, 74.079
1441.451, 61.008
1442.632, 58.864
1443.813, 116.643
1444.994, 109.340
1446.175, 109.040
1447.355, 111.721
1448.535, 123.393
1449.715, 86.019
1450.895, 123.492
1452.075, 91.168
1453.255, 62.855
1454.434, 100.511
1455.613, 77.060
1456.792, 95.008
1457.971, 93.698
1459.149, 102.937
1460.328, 104.760
1461.506, 84.283
1462.684, 93.198
1463.862, 78.816
1465.040, 48.844
1466.217, 52.909
1467.395, 82.312
1468.572, 49.055
1469.749, 65.968
1470.925, 110.241
1472.102, 85.436
1473.278, 84.095
1474.455, 35.836
1475.631, 98.590
1476.807, 71.330
1477.982, 67.053
1479.158, 89.757
1480.333, 80.444
1481.508, 85.123
1482.683, 82.798
1483.858, 62.472
1485.033, 61.151
1486.207, 61.395
1487.381, 121.499
1488.555, 66.168
1489.729, 65.843
1490.903, 61.572
1492.076, 20.371
1493.250, 39.278
1494.423, 59.277
1495.596, 80.343
1496.769, 39.441
1497.941, 26.576
1499.114, 23.758
1500.286, 26.001
1501.458, 12.317
1502.630, 24.193
1503.802, 0.755
1504.973, 32.898
1506.145, 43.688
1507.316, 28.623
1508.487, 50.736
1509.657, 50.071
1510.828, 31.489
1511.999, 32.384
1513.169, 27.161
1514.339, 0.479
1515.509, 19.135
1516.678, 0.000
##END=



