##NAMES=Epididymite
##RRUFFID=R070580
##IDEAL CHEMISTRY=Na_2_Be_2_Si_6_O_15_&#183;H_2_O
##LOCALITY=Narsarsuk, Narsaq, Kitaa, Greenland
##OWNER=RRUFF
##SOURCE=James Shigley
##DESCRIPTION=A translucent to white elongated prism.
##STATUS=The identification of this mineral is confirmed by single-crystal X-ray diffraction and chemical analysis.
##URL=rruff.info/R070580
##MEASURED CHEMISTRY=(Na_1.97_K_0.03_)_Σ=2_Be_2_Si_6.00_O_15_·H_2_O; trace amounts of Al; Be and H_2_O assumed by stoichiometry
##PIN_ID=M01011
##ORIENTATION=Laser parallel to c* (0 0 1). Fiducial mark perpendicular to laser is parallel to a [1 0 0]
111.2060, 0.0000000E+00
112.4440, 4.587402
113.6810, 103.2847
114.9180, 388.8896
116.1550, 770.3516
117.3920, 1023.661
118.6290, 1378.448
119.8650, 1546.013
121.1010, 1938.020
122.3370, 2289.614
123.5730, 2648.467
124.8090, 2754.177
126.0450, 2597.407
127.2800, 2639.241
128.5150, 2747.205
129.7500, 3339.183
130.9850, 3996.842
132.2200, 4099.056
133.4540, 4288.950
134.6890, 3773.665
135.9230, 3064.743
137.1570, 2304.234
138.3900, 1505.327
139.6240, 1009.111
140.8580, 693.2021
142.0910, 288.5361
143.3240, 115.0640
144.5570, 47.91602
145.7900, 8.708496
147.0220, 19.40771
148.2550, 14.46289
149.4870, 94.55225
150.7190, 115.6064
151.9510, 103.7061
153.1830, 122.8862
154.4140, 91.19043
155.6460, 40.31592
156.8770, 11.68701
158.1080, 6.409668
159.3390, 57.83154
160.5690, 44.51709
161.8000, 153.8735
163.0300, 5.186035
164.2600, 19.73926
165.4900, 156.4756
166.7200, 219.4736
167.9500, 172.2705
169.1790, 362.8789
170.4080, 280.3120
171.6380, 223.5801
172.8670, 126.6929
174.0950, 93.66895
175.3240, 138.5137
176.5520, 82.22461
177.7810, 13.80859
179.0090, 114.2720
180.2370, 98.62207
181.4640, 76.86279
182.6920, 124.9995
183.9190, 225.0376
185.1460, 183.9927
186.3730, 373.9058
187.6000, 461.8008
188.8270, 425.6846
190.0530, 661.5615
191.2800, 747.4307
192.5060, 800.4746
193.7320, 993.0098
194.9580, 1084.013
196.1830, 1094.556
197.4090, 1292.535
198.6340, 1261.224
199.8590, 1260.741
201.0840, 1064.930
202.3090, 1077.153
203.5340, 949.2949
204.7580, 852.3525
205.9820, 772.5718
207.2060, 608.1963
208.4300, 467.2354
209.6540, 339.8364
210.8780, 361.1392
212.1010, 454.7168
213.3240, 305.2539
214.5470, 335.2930
215.7700, 397.8569
216.9930, 361.3203
218.2150, 446.7524
219.4380, 448.2754
220.6600, 555.7656
221.8820, 549.2632
223.1040, 562.7681
224.3260, 687.2788
225.5470, 828.7949
226.7680, 948.3154
227.9900, 948.8398
229.2110, 1211.366
230.4310, 1246.892
231.6520, 1575.413
232.8720, 1715.930
234.0930, 1955.438
235.3130, 2186.330
236.5330, 2414.140
237.7530, 2759.813
238.9720, 2759.265
240.1920, 2968.707
241.4110, 3111.141
242.6300, 3029.562
243.8490, 2752.976
245.0680, 2490.379
246.2860, 2097.774
247.5040, 1781.160
248.7230, 1677.539
249.9410, 1287.910
251.1590, 1042.273
252.3760, 1083.631
253.5940, 889.9810
254.8110, 859.3257
256.0280, 790.6641
257.2450, 774.9971
258.4620, 700.7227
259.6790, 882.5703
260.8950, 770.7598
262.1120, 801.3428
263.3280, 640.9194
264.5440, 575.5615
265.7600, 409.2368
266.9750, 413.9268
268.1910, 355.6128
269.4060, 250.2920
270.6210, 232.9541
271.8360, 268.5679
273.0510, 127.1392
274.2650, 73.67432
275.4800, 147.1724
276.6940, 100.5889
277.9080, 64.98242
279.1220, 59.35400
280.3360, 11.28809
281.5490, 85.03076
282.7630, 54.83301
283.9760, 17.02100
285.1890, 0.8305660
286.4020, 20.37109
287.6150, 45.40869
288.8270, 8.181641
290.0400, 32.05762
291.2520, 1.677246
292.4640, 11.37695
293.6760, 26.65527
294.8870, 12.75000
296.0990, 38.97217
297.3100, 55.32080
298.5210, 55.70117
299.7320, 138.1143
300.9430, 127.5835
302.1540, 15.10791
303.3640, 96.23145
304.5750, 32.28125
305.7850, 45.04834
306.9950, 58.35303
308.2050, 57.93799
309.4140, 0.8701170
310.6240, 109.2954
311.8330, 68.86475
313.0420, 19.99707
314.2510, 42.10693
315.4600, 76.18945
316.6680, 125.2520
317.8770, 131.6328
319.0850, 271.3237
320.2930, 164.3345
321.5010, 183.3291
322.7090, 275.3081
323.9160, 479.2339
325.1240, 402.1860
326.3310, 486.1250
327.5380, 446.0503
328.7450, 656.9644
329.9520, 568.8652
331.1580, 629.7544
332.3650, 770.6313
333.5710, 684.4966
334.7770, 684.3501
335.9830, 735.1919
337.1880, 635.0215
338.3940, 655.8389
339.5990, 641.6411
340.8040, 606.4268
342.0090, 798.1841
343.2140, 719.8857
344.4190, 739.5474
345.6230, 762.1680
346.8280, 670.7344
348.0320, 671.2632
349.2360, 614.7646
350.4400, 376.1880
351.6430, 384.4937
352.8470, 316.7065
354.0500, 238.8540
355.2530, 230.9561
356.4560, 235.0078
357.6590, 61.00195
358.8620, 146.9697
360.0640, 71.93408
361.2660, 95.89697
362.4680, 269.8584
363.6700, 214.8428
364.8720, 243.8350
366.0740, 294.8271
367.2750, 251.8193
368.4760, 266.8101
369.6770, 215.7998
370.8780, 381.7876
372.0790, 665.7744
373.2800, 612.7612
374.4800, 742.7461
375.6800, 878.7305
376.8800, 986.7163
378.0800, 1159.700
379.2800, 1250.686
380.4790, 1558.670
381.6790, 1569.670
382.8780, 1468.692
384.0770, 1599.714
385.2760, 1426.747
386.4750, 1357.779
387.6730, 1390.810
388.8720, 1102.842
390.0700, 996.8740
391.2680, 922.9043
392.4660, 695.9336
393.6630, 844.9756
394.8610, 791.0166
396.0580, 991.0586
397.2550, 1123.101
398.4520, 1619.148
399.6490, 2233.194
400.8460, 2964.240
402.0420, 3252.287
403.2390, 3602.332
404.4350, 4241.367
405.6310, 4914.398
406.8270, 5341.212
408.0220, 5839.432
409.2180, 5804.464
410.4130, 5291.520
411.6080, 4249.578
412.8030, 2895.635
413.9980, 2066.682
415.1920, 1334.720
416.3870, 862.7871
417.5810, 608.7441
418.7750, 433.4287
419.9690, 402.4883
421.1630, 333.3408
422.3570, 233.9629
423.5500, 135.5098
424.7430, 180.1992
425.9360, 195.6426
427.1290, 274.9346
428.3220, 409.5352
429.5150, 444.3232
430.7070, 392.7793
431.8990, 510.0664
433.0910, 447.2842
434.2830, 585.0098
435.4750, 587.8525
436.6670, 646.2236
437.8580, 385.1406
439.0490, 482.6172
440.2400, 409.9609
441.4310, 178.2803
442.6220, 186.5820
443.8130, 73.71582
445.0030, 117.5137
446.1930, 14.62305
447.3830, 113.8574
448.5730, 69.04102
449.7630, 23.24707
450.9520, 34.57520
452.1420, 86.93066
453.3310, 110.1514
454.5200, 57.51660
455.7090, 111.6758
456.8980, 196.1299
458.0860, 138.5146
459.2740, 175.1523
460.4630, 263.9922
461.6510, 286.8594
462.8380, 239.8027
464.0260, 386.7441
465.2140, 442.6924
466.4010, 687.7471
467.5880, 767.9473
468.7750, 927.0742
469.9620, 1343.049
471.1490, 1496.175
472.3350, 1829.111
473.5220, 2069.047
474.7080, 2370.980
475.8940, 2536.910
477.0800, 2781.838
478.2650, 2783.764
479.4510, 2512.687
480.6360, 2541.608
481.8210, 2515.527
483.0060, 2625.447
484.1910, 2571.629
485.3760, 2748.544
486.5600, 2659.460
487.7440, 2411.373
488.9290, 2129.285
490.1130, 1720.197
491.2960, 1361.106
492.4800, 1124.016
493.6630, 914.9238
494.8470, 732.8311
496.0300, 672.7412
497.2130, 547.6504
498.3960, 688.5605
499.5780, 560.4736
500.7610, 764.0527
501.9430, 902.9688
503.1250, 974.9297
504.3070, 1079.799
505.4890, 1577.453
506.6710, 1987.244
507.8520, 2505.368
509.0330, 3339.697
510.2140, 4466.628
511.3950, 6222.553
512.5760, 8087.484
513.7570, 9934.417
514.9370, 11459.71
516.1170, 13403.70
517.2980, 15125.88
518.4780, 16994.21
519.6570, 17782.15
520.8370, 17801.83
522.0160, 16544.01
523.1960, 14329.35
524.3750, 11466.73
525.5540, 8524.668
526.7320, 6353.615
527.9110, 4724.555
529.0890, 3693.624
530.2680, 2691.819
531.4460, 2188.931
532.6240, 1837.928
533.8010, 1269.861
534.9790, 1163.453
536.1560, 1005.709
537.3340, 1074.120
538.5110, 821.0459
539.6880, 792.3447
540.8650, 593.2676
542.0410, 424.2373
543.2180, 599.6328
544.3940, 340.0488
545.5700, 316.1367
546.7460, 364.5430
547.9220, 240.4531
549.0970, 269.8252
550.2730, 306.6689
551.4480, 214.2080
552.6230, 100.5352
553.7980, 222.7402
554.9730, 91.96094
556.1470, 100.3877
557.3210, 117.5742
558.4960, 93.96875
559.6700, 206.8496
560.8440, 197.8789
562.0170, 195.0840
563.1910, 67.41504
564.3640, 122.2881
565.5380, 170.3682
566.7110, 260.4189
567.8840, 139.7266
569.0560, 286.6133
570.2290, 197.9355
571.4010, 236.9873
572.5740, 309.0195
573.7460, 490.2461
574.9180, 568.2197
576.0890, 646.2363
577.2610, 750.1826
578.4320, 1016.113
579.6040, 1232.045
580.7750, 1387.977
581.9450, 1653.238
583.1160, 1678.188
584.2870, 1813.648
585.4570, 1974.998
586.6270, 1796.449
587.7980, 1591.270
588.9670, 1171.517
590.1370, 884.8252
591.3070, 777.8730
592.4760, 656.3828
593.6450, 479.5430
594.8140, 336.7969
595.9830, 333.6143
597.1520, 311.7881
598.3210, 328.9697
599.4890, 362.4609
600.6570, 316.4980
601.8250, 316.0938
602.9930, 235.4502
604.1610, 158.6494
605.3290, 91.66016
606.4960, 51.80176
607.6630, 16.81836
608.8300, 35.31445
609.9970, 71.58008
611.1640, 35.92578
612.3300, 89.28223
613.4970, 110.7539
614.6630, 132.8379
615.8290, 150.9150
616.9950, 115.9844
618.1610, 129.1982
619.3260, 100.3057
620.4920, 160.3525
621.6570, 130.4775
622.8220, 105.0488
623.9870, 26.07422
625.1520, 228.5059
626.3160, 447.5146
627.4810, 359.8633
628.6450, 349.8564
629.8090, 443.9385
630.9730, 481.9170
632.1370, 464.8916
633.3000, 431.9404
634.4640, 470.0371
635.6270, 443.2578
636.7900, 283.1973
637.9530, 269.5342
639.1160, 110.4941
640.2780, 245.6396
641.4410, 110.0186
642.6030, 23.92090
643.7650, 71.81250
644.9270, 90.30176
646.0890, 28.37500
647.2500, 56.42383
648.4120, 8.472656
649.5730, 104.8535
650.7340, 150.9668
651.8950, 125.1035
653.0560, 149.3389
654.2160, 24.66016
655.3770, 99.81641
656.5370, 55.82422
657.6970, 18.76953
658.8570, 116.6602
660.0170, 4.388672
661.1760, 57.30176
662.3360, 63.54199
663.4950, 79.90625
664.6540, 120.6699
665.8130, 40.49707
666.9720, 123.1797
668.1310, 88.71777
669.2890, 59.24414
670.4470, 79.75977
671.6050, 107.2637
672.7630, 180.7549
673.9210, 32.76172
675.0790, 46.68457
676.2360, 10.11719
677.3930, 136.5352
678.5510, 11.05859
679.7080, 177.3223
680.8640, 116.6914
682.0210, 15.05859
683.1770, 10.41211
684.3340, 88.75293
685.4900, 13.08008
686.6460, 190.3916
687.8020, 21.69629
688.9570, 97.00195
690.1130, 123.7559
691.2680, 24.57227
692.4230, 22.39258
693.5780, 57.75586
694.7330, 8.892578
695.8880, 132.9883
697.0420, 16.07910
698.1960, 230.0928
699.3510, 161.8320
700.5040, 61.06055
701.6580, 7.061523
702.8120, 139.7891
703.9650, 90.65332
705.1190, 98.47559
706.2720, 37.28223
707.4250, 200.0732
708.5780, 39.85059
709.7300, 106.6113
710.8830, 114.3555
712.0350, 68.08496
713.1870, 129.8496
714.3390, 123.5479
715.4910, 142.2324
716.6430, 185.9336
717.7940, 198.6143
718.9460, 230.2822
720.0970, 73.99316
721.2480, 3.630859
722.3990, 36.46387
723.5500, 74.05566
724.7000, 59.24707
725.8500, 110.5146
727.0010, 91.05078
728.1510, 104.2393
729.3010, 216.1094
730.4500, 101.6113
731.6000, 150.0977
732.7490, 128.5654
733.8980, 4.985352
735.0470, 187.4307
736.1960, 198.8271
737.3450, 81.20605
738.4940, 155.5625
739.6420, 87.90039
740.7900, 111.2188
741.9380, 147.5146
743.0860, 7.207031
744.2340, 183.0361
745.3810, 179.1504
746.5290, 63.09570
747.6760, 232.0928
748.8230, 104.2197
749.9700, 83.17285
751.1170, 88.29199
752.2630, 174.3906
753.4100, 180.4697
754.5560, 184.5283
755.7020, 127.5742
756.8480, 151.7139
757.9940, 275.8779
759.1390, 145.0254
760.2850, 37.16211
761.4300, 236.1846
762.5750, 66.88281
763.7200, 218.1084
764.8650, 84.43945
766.0100, 247.2881
767.1540, 145.3867
768.2980, 219.1943
769.4420, 201.0166
770.5860, 149.8477
771.7300, 136.5938
772.8740, 105.3193
774.0170, 224.1055
775.1610, 74.29785
776.3040, 163.3457
777.4470, 117.2939
778.5900, 60.14941
779.7320, 222.1943
780.8750, 249.5420
782.0170, 226.7002
783.1590, 144.4932
784.3010, 262.4268
785.4430, 105.8691
786.5850, 23.92480
787.7260, 85.96680
788.8680, 1.991211
790.0090, 32.20508
791.1500, 53.17871
792.2910, 68.30371
793.4310, 101.8652
794.5720, 114.0479
795.7120, 123.9141
796.8520, 107.6816
797.9920, 313.8584
799.1320, 64.75684
800.2720, 299.6543
801.4120, 188.4043
802.5510, 115.7471
803.6900, 141.9785
804.8290, 224.4209
805.9680, 312.9463
807.1070, 189.1416
808.2450, 329.5049
809.3840, 378.0664
810.5220, 342.4346
811.6600, 439.2490
812.7980, 423.8613
813.9360, 481.7578
815.0730, 540.9307
816.2110, 659.5303
817.3480, 504.9385
818.4850, 511.4346
819.6220, 603.4414
820.7590, 403.3916
821.8960, 425.6191
823.0320, 224.5586
824.1680, 321.3193
825.3040, 223.8613
826.4400, 233.0449
827.5760, 224.6787
828.7120, 239.3604
829.8470, 221.3984
830.9830, 211.8623
832.1180, 202.4600
833.2530, 161.3740
834.3880, 185.0049
835.5220, 152.8574
836.6570, 251.7324
837.7910, 170.2500
838.9250, 190.4912
840.0590, 153.9326
841.1930, 238.7676
842.3270, 297.4209
843.4600, 277.9482
844.5940, 307.9600
845.7270, 245.7734
846.8600, 273.0420
847.9930, 197.7354
849.1250, 150.0791
850.2580, 250.5732
851.3900, 292.3154
852.5230, 166.8486
853.6550, 228.4287
854.7870, 329.3018
855.9180, 154.9814
857.0500, 257.2285
858.1810, 115.5410
859.3130, 281.1680
860.4440, 378.9287
861.5750, 88.60547
862.7050, 329.7295
863.8360, 312.4932
864.9660, 280.2881
866.0970, 468.2646
867.2270, 444.0039
868.3570, 321.9238
869.4870, 417.7305
870.6160, 456.9844
871.7460, 241.8584
872.8750, 275.7129
874.0040, 277.2344
875.1330, 390.0439
876.2620, 242.5469
877.3910, 286.1260
878.5190, 328.8350
879.6470, 301.0322
880.7760, 324.7471
881.9040, 325.0332
883.0310, 230.7324
884.1590, 332.3896
885.2870, 240.7900
886.4140, 257.0811
887.5410, 281.3711
888.6680, 189.9502
889.7950, 197.5098
890.9220, 169.4688
892.0480, 142.1768
893.1750, 131.8633
894.3010, 131.3408
895.4270, 128.7734
896.5530, 150.6133
897.6790, 160.0273
898.8040, 92.00781
899.9300, 62.38086
901.0550, 199.3857
902.1800, 107.7197
903.3050, 243.9365
904.4300, 0.7705080
905.5540, 157.4912
906.6790, 182.6553
907.8030, 236.7402
908.9270, 152.6758
910.0510, 50.86328
911.1750, 79.62402
912.2990, 98.73535
913.4220, 115.6348
914.5450, 64.27344
915.6690, 148.3682
916.7920, 4.447266
917.9140, 191.5020
919.0370, 102.4619
920.1600, 135.5137
921.2820, 190.2891
922.4040, 27.70410
923.5260, 28.35645
924.6480, 38.95312
925.7700, 11.88086
926.8910, 86.77441
928.0130, 101.2588
929.1340, 141.8799
930.2550, 259.5410
931.3760, 48.22754
932.4970, 76.17188
933.6170, 16.36230
934.7380, 145.9385
935.8580, 164.7148
936.9780, 68.50098
938.0980, 142.9736
939.2180, 89.59766
940.3370, 33.32910
941.4570, 77.04004
942.5760, 52.28809
943.6950, 26.39551
944.8140, 83.04102
945.9330, 52.59668
947.0520, 199.2832
948.1700, 65.88672
949.2890, 110.4707
950.4070, 153.0352
951.5250, 44.58789
952.6430, 28.87988
953.7600, 16.63086
954.8780, 20.28027
955.9950, 27.10156
957.1120, 14.90918
958.2290, 2.137695
959.3460, 38.25879
960.4630, 56.38770
961.5800, 75.03125
962.6960, 104.7051
963.8120, 2.713867
964.9280, 3.045898
966.0440, 36.16992
967.1600, 24.37500
968.2760, 36.23340
969.3910, 100.7705
970.5060, 53.88184
971.6210, 92.09473
972.7360, 122.2881
973.8510, 182.4688
974.9660, 30.60059
976.0800, 76.74023
977.1950, 97.85840
978.3090, 67.95801
979.4230, 103.0352
980.5370, 156.0967
981.6500, 57.15332
982.7640, 89.19434
983.8770, 110.1641
984.9900, 39.16895
986.1030, 86.84570
987.2160, 91.06152
988.3290, 15.96582
989.4420, 57.84668
990.5540, 81.65039
991.6660, 140.4951
992.7780, 303.1299
993.8900, 295.9766
995.0020, 279.8125
996.1140, 120.2930
997.2250, 184.0918
998.3360, 182.8799
999.4470, 347.6504
1000.558, 275.4023
1001.669, 258.1377
1002.780, 264.8555
1003.890, 224.1533
1005.001, 236.6279
1006.111, 189.9541
1007.221, 262.6230
1008.331, 250.2744
1009.440, 301.9092
1010.550, 343.5273
1011.659, 288.1279
1012.768, 106.7119
1013.877, 195.2852
1014.986, 179.8457
1016.095, 236.3887
1017.204, 426.9141
1018.312, 336.4219
1019.420, 330.9102
1020.528, 228.3838
1021.636, 326.8379
1022.744, 207.2725
1023.852, 278.6875
1024.959, 390.0801
1026.066, 293.3389
1027.173, 276.5361
1028.280, 586.7119
1029.387, 334.8564
1030.494, 553.0752
1031.600, 604.3145
1032.707, 592.2500
1033.813, 761.2549
1034.919, 886.9355
1036.025, 749.8799
1037.130, 782.0752
1038.236, 966.3086
1039.341, 1137.994
1040.446, 853.1318
1041.552, 1115.502
1042.656, 1053.840
1043.761, 1145.734
1044.866, 1215.152
1045.970, 1121.498
1047.074, 1266.909
1048.179, 1189.936
1049.282, 1079.275
1050.386, 1127.000
1051.490, 1090.427
1052.593, 1103.656
1053.697, 1063.128
1054.800, 783.8115
1055.903, 950.7891
1057.006, 892.2871
1058.108, 813.7480
1059.211, 953.6660
1060.313, 795.3721
1061.415, 624.0195
1062.517, 936.0586
1063.619, 992.2285
1064.721, 875.2148
1065.823, 844.3857
1066.924, 856.1289
1068.025, 742.4688
1069.126, 865.6621
1070.227, 732.3828
1071.328, 686.6045
1072.429, 772.5557
1073.529, 667.1699
1074.629, 694.0625
1075.729, 556.1211
1076.829, 458.7637
1077.929, 312.3662
1079.029, 424.6289
1080.128, 344.1211
1081.228, 328.6289
1082.327, 418.9141
1083.426, 372.7822
1084.525, 273.0928
1085.623, 194.5039
1086.722, 156.7959
1087.820, 110.9102
1088.919, 119.2852
1090.017, 119.8535
1091.115, 180.0889
1092.212, 281.6240
1093.310, 245.1572
1094.407, 249.9990
1095.505, 152.8369
1096.602, 341.1758
1097.699, 250.0127
1098.795, 317.3887
1099.892, 376.7158
1100.989, 380.6875
1102.085, 240.0361
1103.181, 408.7500
1104.277, 322.5391
1105.373, 532.5010
1106.469, 313.4189
1107.564, 298.1406
1108.660, 525.7461
1109.755, 375.4141
1110.850, 613.0713
1111.945, 650.4590
1113.040, 672.2705
1114.134, 745.4062
1115.229, 774.2617
1116.323, 836.2881
1117.417, 929.4609
1118.511, 970.3184
1119.605, 1005.361
1120.698, 1105.019
1121.792, 1186.921
1122.885, 1259.084
1123.978, 1479.244
1125.071, 1542.135
1126.164, 1831.038
1127.257, 1964.602
1128.349, 2193.226
1129.442, 2431.306
1130.534, 2769.758
1131.626, 2945.188
1132.718, 3271.058
1133.810, 3571.647
1134.901, 3550.264
1135.993, 3901.926
1137.084, 3877.780
1138.175, 3879.357
1139.266, 3973.884
1140.357, 3677.703
1141.448, 3636.388
1142.538, 3348.608
1143.628, 2942.414
1144.719, 2668.644
1145.809, 2312.307
1146.898, 1966.638
1147.988, 1610.982
1149.078, 1503.323
1150.167, 1372.371
1151.256, 1003.446
1152.345, 926.4502
1153.434, 811.4287
1154.523, 773.3838
1155.612, 586.6328
1156.700, 723.8574
1157.788, 502.7412
1158.877, 424.6475
1159.964, 498.4844
1161.052, 448.2988
1162.140, 310.0879
1163.227, 244.9043
1164.315, 158.6484
1165.402, 102.4121
1166.489, 275.3418
1167.576, 214.0176
1168.663, 187.6621
1169.749, 68.28711
1170.836, 292.8828
1171.922, 149.4551
1173.008, 133.0000
1174.094, 132.5215
1175.180, 34.01562
1176.265, 63.48047
1177.351, 60.11719
1178.436, 18.67188
1179.521, 100.6934
1180.606, 91.03125
1181.691, 95.34375
1182.776, 66.62891
1183.860, 17.88672
1184.944, 58.16211
1186.029, 38.66406
1187.113, 148.8340
1188.197, 166.4648
1189.280, 31.58789
1190.364, 146.6816
1191.447, 45.25000
1192.531, 17.24023
1193.614, 108.7266
1194.697, 7.337891
1195.779, 2.562500
1196.862, 221.4512
1197.945, 29.32422
1199.027, 69.16797
1200.109, 135.9824
1201.191, 118.2070
1202.273, 37.60156
1203.355, 139.2871
1204.436, 182.9473
1205.518, 196.9512
1206.599, 32.19727
1207.680, 86.96680
1208.761, 132.7031
1209.842, 5.240234
1210.922, 76.89062
1212.003, 169.5254
1213.083, 67.32812
1214.163, 86.75195
1215.243, 29.14844
1216.323, 119.5098
1217.402, 23.68555
1218.482, 69.35938
1219.561, 219.6074
1220.641, 59.50781
1221.720, 55.63477
1222.798, 27.79492
1223.877, 136.9414
1224.956, 166.0898
1226.034, 212.0801
1227.112, 23.21289
1228.191, 25.67969
1229.269, 11.46875
1230.346, 74.50195
1231.424, 43.50977
1232.501, 142.4883
1233.579, 157.4453
1234.656, 140.3789
1235.733, 231.4453
1236.810, 95.33203
1237.886, 169.8848
1238.963, 170.7227
1240.039, 137.5352
1241.116, 16.32812
1242.192, 27.91016
1243.268, 8.199219
1244.343, 88.47461
1245.419, 51.25000
1246.494, 7.371094
1247.570, 84.96484
1248.645, 22.37305
1249.720, 37.17383
1250.795, 18.69531
1251.869, 12.22852
1252.944, 86.30859
1254.018, 0.6699220
1255.093, 1.7578000E-02
1256.167, 190.3320
1257.240, 108.6230
1258.314, 4.109375
1259.388, 208.1191
1260.461, 247.3281
1261.535, 87.83789
1262.608, 148.9980
1263.681, 14.86719
1264.753, 0.2773440
1265.826, 69.42969
1266.899, 129.4629
1267.971, 135.4707
1269.043, 59.45703
1270.115, 85.41211
1271.187, 190.3926
1272.259, 44.30273
1273.330, 98.19531
1274.402, 3.935547
1275.473, 137.9707
1276.544, 134.4258
1277.615, 129.2109
1278.686, 224.2598
1279.756, 182.0176
1280.827, 319.7383
1281.897, 375.4375
1282.967, 242.1172
1284.037, 115.7734
1285.107, 115.4102
1286.177, 258.2383
1287.247, 179.8359
1288.316, 203.4180
1289.385, 326.0059
1290.454, 205.5488
1291.523, 177.0723
1292.592, 353.5781
1293.661, 176.8516
1294.729, 129.8652
1295.797, 185.3086
1296.866, 381.7305
1297.934, 213.0430
1299.001, 230.8359
1300.069, 334.2012
1301.137, 298.2930
1302.204, 269.2988
1303.271, 206.2812
1304.338, 369.8203
1305.405, 358.4746
1306.472, 310.0957
1307.539, 392.8516
1308.605, 353.6055
1309.671, 318.3008
1310.737, 216.9941
1311.803, 196.5488
1312.869, 165.7930
1313.935, 103.1094
1315.000, 330.6426
1316.066, 59.46094
1317.131, 215.3301
1318.196, 307.5918
1319.261, 211.3457
1320.326, 410.1797
1321.390, 237.7559
1322.455, 246.2949
1323.519, 319.4570
1324.583, 238.2227
1325.647, 344.1328
1326.711, 316.2363
1327.775, 220.5273
1328.838, 298.0781
1329.902, 132.1758
1330.965, 294.2832
1332.028, 255.8008
1333.091, 224.4902
1334.153, 422.2188
1335.216, 109.2207
1336.279, 110.4609
1337.341, 374.8770
1338.403, 77.54492
1339.465, 316.6758
1340.527, 66.18164
1341.588, 247.2441
1342.650, 241.3750
1343.711, 232.2070
1344.772, 189.4434
1345.834, 179.2031
1346.894, 127.1152
1347.955, 313.6680
1349.016, 117.1699
1350.076, 304.0703
1351.136, 158.7988
1352.197, 214.0156
1353.257, 170.3340
1354.316, 272.8008
1355.376, 267.8164
1356.436, 110.9785
1357.495, 283.4844
1358.554, 191.3438
1359.613, 139.0625
1360.672, 454.1758
1361.731, 307.3398
1362.789, 90.42383
1363.848, 296.7500
1364.906, 56.38086
1365.964, 155.7637
1367.022, 277.8984
1368.080, 246.8848
1369.138, 284.2539
1370.195, 305.3906
1371.253, 323.7910
1372.310, 4.503906
1373.367, 350.0703
1374.424, 198.2695
1375.480, 100.9688
1376.537, 263.3965
1377.593, 174.8652
1378.650, 105.1699
1379.706, 246.3984
1380.762, 29.14648
1381.818, 108.6484
1382.873, 186.3984
1383.929, 176.4570
1384.984, 135.1680
1386.039, 317.6484
1387.094, 228.7227
1388.149, 24.79297
1389.204, 187.3887
1390.259, 274.2344
1391.313, 20.97656
1392.367, 75.73438
1393.422, 138.2246
1394.476, 128.0293
1395.529, 142.7891
1396.583, 175.2246
1397.637, 84.76562
1398.690, 270.7402
1399.743, 227.0625
1400.796, 118.6465
1401.849, 38.90430
1402.902, 11.16992
1403.954, 128.5430
1405.007, 25.23242
1406.059, 20.81055
1407.111, 154.0918
1408.163, 124.0410
1409.215, 177.9863
1410.267, 157.9316
1411.318, 108.5586
1412.370, 38.18359
1413.421, 178.4453
1414.472, 339.7793
1415.523, 84.72266
1416.574, 227.7988
1417.624, 209.2812
1418.675, 224.1836
1419.725, 89.17578
1420.775, 126.0273
1421.825, 195.6914
1422.875, 312.7090
1423.925, 334.6895
1424.974, 300.5977
1426.024, 181.5078
1427.073, 247.3008
1428.122, 427.0762
1429.171, 413.8066
1430.220, 598.5215
1431.268, 612.8906
1432.317, 630.8672
1433.365, 629.3418
1434.413, 561.9570
1435.461, 480.5527
1436.509, 541.0195
1437.557, 742.3008
1438.605, 542.4102
1439.652, 713.8809
1440.699, 477.1973
1441.746, 601.9922
1442.793, 635.7871
1443.840, 645.6035
1444.887, 718.0742
1445.933, 708.2324
1446.980, 746.0332
1448.026, 645.7910
1449.072, 544.6445
1450.118, 396.2832
1451.163, 552.9160
1452.209, 596.3945
1453.254, 640.8105
1454.300, 627.6172
1455.345, 446.4141
1456.390, 714.1836
1457.435, 513.9688
1458.479, 480.8496
1459.524, 593.7227
1460.568, 532.5020
1461.612, 694.4023
1462.656, 484.2988
1463.700, 328.9961
1464.744, 689.2129
1465.788, 278.0430
1466.831, 553.8711
1467.874, 611.7422
1468.918, 505.7949
1469.961, 383.5820
1471.003, 361.4941
1472.046, 373.3672
1473.089, 242.1797
1474.131, 411.1855
1475.173, 340.2051
1476.215, 241.7715
1477.257, 318.7969
1478.299, 170.1836
1479.341, 252.2441
1480.382, 159.3105
1481.424, 295.3203
1482.465, 267.3828
1483.506, 421.2246
1484.547, 323.8164
1485.587, 521.2227
1486.628, 490.2383
1487.668, 196.2539
1488.709, 411.9062
1489.749, 276.8398
1490.789, 132.8125
1491.828, 219.7754
1492.868, 258.7441
1493.908, 350.7090
1494.947, 323.6719
1495.986, 467.6348
1497.025, 222.6055
1498.064, 94.58008
1499.103, 82.54688
1500.141, 312.5234
1501.180, 275.5215
1502.218, 218.5391
1503.256, 88.56445
1504.294, 279.5957
1505.332, 42.63281
1506.370, 168.6738
1507.407, 186.7285
1508.445, 235.7988
1509.482, 249.2051
1510.519, 234.9746
1511.556, 257.0742
1512.593, 272.1797
1513.629, 345.2910
1514.666, 193.5176
1515.702, 79.75195
1516.738, 332.0215
1517.774, 316.3047
1518.810, 45.65234
1519.846, 266.0156
1520.882, 214.4219
1521.917, 185.8574
1522.952, 271.3086
1523.987, 30.09766
1525.022, 303.5723
1526.057, 196.2754
1527.092, 135.0215
1528.126, 322.8047
1529.161, 303.6309
1530.195, 318.5039
1531.229, 386.4277
1532.263, 218.4043
1533.297, 321.4395
1534.330, 202.2402
1535.364, 103.3945
1536.397, 108.6191
1537.430, 11.07617
1538.463, 11.97461
1539.496, 292.7988
1540.529, 50.37500
1541.561, 8.664063
1542.594, 227.4316
1543.626, 54.66211
1544.658, 218.9336
1545.690, 213.2402
1546.722, 53.57031
1547.753, 65.91797
1548.785, 213.2773
1549.816, 155.6328
1550.847, 221.3301
1551.878, 324.2969
1552.909, 199.1465
1553.940, 263.0820
1554.971, 418.0762
1556.001, 91.47852
1557.031, 3.250000
1558.062, 170.6699
1559.092, 165.7461
1560.121, 16.48633
1561.151, 14.18359
1562.181, 0.0000000E+00
##END=



