##NAMES=Epididymite
##RRUFFID=R070580
##IDEAL CHEMISTRY=Na_2_Be_2_Si_6_O_15_&#183;H_2_O
##LOCALITY=Narsarsuk, Narsaq, Kitaa, Greenland
##OWNER=RRUFF
##SOURCE=James Shigley
##DESCRIPTION=A translucent to white elongated prism.
##STATUS=The identification of this mineral is confirmed by single-crystal X-ray diffraction and chemical analysis.
##URL=rruff.info/R070580
##MEASURED CHEMISTRY=(Na_1.97_K_0.03_)_Σ=2_Be_2_Si_6.00_O_15_·H_2_O; trace amounts of Al; Be and H_2_O assumed by stoichiometry
##PIN_ID=M01839
##ORIENTATION=Laser parallel to b* (0 1 0). Fiducial mark perpendicular to laser is parallel to -c [0 0 -1]
111.2060, 0.0000000E+00
112.4440, 6.536621
113.6810, 103.7612
114.9180, 291.3862
116.1550, 335.0000
117.3920, 669.2646
118.6290, 997.0752
119.8650, 1426.506
121.1010, 1729.402
122.3370, 2116.128
123.5730, 2377.089
124.8090, 2850.869
126.0450, 2893.478
127.2800, 2950.382
128.5150, 3232.129
129.7500, 3543.068
130.9850, 4135.847
132.2200, 4499.063
133.4540, 4694.185
134.6890, 4260.587
135.9230, 3637.527
137.1570, 2654.313
138.3900, 2073.525
139.6240, 1395.106
140.8580, 1285.025
142.0910, 1096.220
143.3240, 1120.780
144.5570, 818.2427
145.7900, 884.7812
147.0220, 869.0469
148.2550, 1142.554
149.4870, 970.2866
150.7190, 1041.239
151.9510, 1050.404
153.1830, 959.7729
154.4140, 725.3398
155.6460, 584.1084
156.8770, 286.0762
158.1080, 190.4517
159.3390, 130.2231
160.5690, 71.14355
161.8000, 25.81348
163.0300, 7.334961
164.2600, 97.42676
165.4900, 24.88965
166.7200, 114.2778
167.9500, 115.2642
169.1790, 9.738770
170.4080, 99.14551
171.6380, 47.48730
172.8670, 40.76562
174.0950, 29.98096
175.3240, 47.13574
176.5520, 11.76904
177.7810, 37.26758
179.0090, 38.24756
180.2370, 29.17139
181.4640, 71.95996
182.6920, 109.1455
183.9190, 249.3833
185.1460, 252.6748
186.3730, 290.0361
187.6000, 458.4927
188.8270, 533.0522
190.0530, 707.7109
191.2800, 715.4658
192.5060, 819.3105
193.7320, 982.2373
194.9580, 1000.307
196.1830, 1103.777
197.4090, 1088.533
198.6340, 1210.930
199.8590, 1187.511
201.0840, 1197.183
202.3090, 1134.887
203.5340, 822.8398
204.7580, 672.3057
205.9820, 640.3311
207.2060, 465.8164
208.4300, 412.3672
209.6540, 313.9668
210.8780, 231.5645
212.1010, 222.6494
213.3240, 156.5283
214.5470, 210.8711
215.7700, 187.1055
216.9930, 183.2715
218.2150, 234.4072
219.4380, 116.4873
220.6600, 299.5811
221.8820, 281.7061
223.1040, 239.8604
224.3260, 433.0459
225.5470, 445.2598
226.7680, 670.5039
227.9900, 854.7773
229.2110, 1034.078
230.4310, 1214.408
231.6520, 1513.765
232.8720, 1768.147
234.0930, 2032.555
235.3130, 2314.986
236.5330, 2737.441
237.7530, 3055.922
238.9720, 3346.425
240.1920, 3759.954
241.4110, 3802.506
242.6300, 4192.082
243.8490, 3932.681
245.0680, 3813.303
246.2860, 3367.949
247.5040, 3146.618
248.7230, 2876.312
249.9410, 2849.027
251.1590, 2799.768
252.3760, 2718.421
253.5940, 2754.316
254.8110, 2717.123
256.0280, 2757.955
257.2450, 2824.809
258.4620, 2881.174
259.6790, 3150.788
260.8950, 3191.020
262.1120, 3330.496
263.3280, 3152.123
264.5440, 3120.846
265.7600, 2968.617
266.9750, 2899.400
268.1910, 2933.176
269.4060, 2697.932
270.6210, 2342.662
271.8360, 2094.347
273.0510, 1620.954
274.2650, 1424.471
275.4800, 1144.895
276.6940, 737.2383
277.9080, 687.5176
279.1220, 476.7422
280.3360, 396.0166
281.5490, 450.0332
282.7630, 213.4414
283.9760, 274.0459
285.1890, 361.1807
286.4020, 304.4336
287.6150, 200.8789
288.8270, 126.0537
290.0400, 106.0908
291.2520, 110.0166
292.4640, 31.88184
293.6760, 41.34961
294.8870, 67.18652
296.0990, 28.00586
297.3100, 3.043945
298.5210, 11.93066
299.7320, 71.05957
300.9430, 29.94727
302.1540, 5.551758
303.3640, 61.03418
304.5750, 66.11133
305.7850, 135.2090
306.9950, 151.6982
308.2050, 186.1641
309.4140, 153.6123
310.6240, 182.4492
311.8330, 138.8203
313.0420, 441.0312
314.2510, 603.2354
315.4600, 314.1660
316.6680, 426.5859
317.8770, 820.3486
319.0850, 513.6309
320.2930, 514.6846
321.5010, 644.7559
322.7090, 787.4600
323.9160, 898.3301
325.1240, 717.2275
326.3310, 907.7812
327.5380, 809.1963
328.7450, 928.6289
329.9520, 1171.076
331.1580, 1406.538
332.3650, 1241.013
333.5710, 1316.501
334.7770, 1505.004
335.9830, 1719.520
337.1880, 1923.049
338.3940, 2068.588
339.5990, 2214.140
340.8040, 2346.703
342.0090, 2555.278
343.2140, 2766.863
344.4190, 2719.457
345.6230, 2880.061
346.8280, 2943.672
348.0320, 2811.291
349.2360, 2529.886
350.4400, 2234.483
351.6430, 1957.055
352.8470, 1761.120
354.0500, 1527.213
355.2530, 1428.805
356.4560, 1339.404
357.6590, 1246.013
358.8620, 1121.631
360.0640, 1058.459
361.2660, 991.8955
362.4680, 922.5439
363.6700, 906.2021
364.8720, 860.8730
366.0740, 896.5850
367.2750, 917.2461
368.4760, 1043.971
369.6770, 1038.706
370.8780, 1212.455
372.0790, 1371.215
373.2800, 1644.986
374.4800, 1810.771
375.6800, 2033.582
376.8800, 2268.418
378.0800, 2561.270
379.2800, 2587.131
380.4790, 2936.001
381.6790, 3053.881
382.8780, 2772.771
384.0770, 2599.668
385.2760, 2416.575
386.4750, 2050.504
387.6730, 1676.461
388.8720, 1435.438
390.0700, 1181.423
391.2680, 899.4180
392.4660, 747.4209
393.6630, 653.4336
394.8610, 573.4600
396.0580, 780.4951
397.2550, 1040.537
398.4520, 1248.589
399.6490, 1563.652
400.8460, 2116.728
402.0420, 2415.821
403.2390, 2579.943
404.4350, 3268.084
405.6310, 3835.251
406.8270, 4700.432
408.0220, 4983.624
409.2180, 5068.820
410.4130, 4547.016
411.6080, 3724.210
412.8030, 2634.418
413.9980, 1571.626
415.1920, 878.8535
416.3870, 524.0781
417.5810, 353.3262
418.7750, 136.5762
419.9690, 129.8271
421.1630, 108.3662
422.3570, 4.618164
423.5500, 2.343750
424.7430, 92.70996
425.9360, 83.47754
427.1290, 57.29395
428.3220, 101.1318
429.5150, 138.0166
430.7070, 3.966797
431.8990, 94.91309
433.0910, 1.113281
434.2830, 25.85645
435.4750, 26.54395
436.6670, 14.18652
437.8580, 3.758789
439.0490, 9.272461
440.2400, 33.78516
441.4310, 174.3164
442.6220, 3.340820
443.8130, 176.6650
445.0030, 4.744141
446.1930, 158.2129
447.3830, 141.2998
448.5730, 53.39258
449.7630, 113.5117
450.9520, 23.46387
452.1420, 43.59668
453.3310, 25.32129
454.5200, 21.79395
455.7090, 103.9141
456.8980, 289.0381
458.0860, 249.4062
459.2740, 437.5840
460.4630, 281.0205
461.6510, 485.8535
462.8380, 658.1104
464.0260, 826.6680
465.2140, 1040.965
466.4010, 1272.286
467.5880, 1533.779
468.7750, 1942.324
469.9620, 2130.746
471.1490, 2448.097
472.3350, 2790.446
473.5220, 3344.799
474.7080, 3643.149
475.8940, 4233.502
477.0800, 4211.854
478.2650, 3876.206
479.4510, 3347.558
480.6360, 2628.908
481.8210, 1947.260
483.0060, 1533.610
484.1910, 1442.960
485.3760, 1076.309
486.5600, 997.6562
487.7440, 920.0039
488.9290, 778.3496
490.1130, 749.6934
491.2960, 653.0371
492.4800, 459.3779
493.6630, 330.7178
494.8470, 354.0576
496.0300, 326.7256
497.2130, 501.7305
498.3960, 450.0654
499.5780, 586.3975
500.7610, 646.7285
501.9430, 705.0586
503.1250, 920.4053
504.3070, 1112.770
505.4890, 1351.093
506.6710, 1914.771
507.8520, 2584.088
509.0330, 3403.537
510.2140, 4641.947
511.3950, 6223.254
512.5760, 7924.136
513.7570, 9498.079
514.9370, 11297.94
516.1170, 12861.74
517.2980, 15351.14
518.4780, 17439.00
519.6570, 19126.52
520.8370, 19495.10
522.0160, 18280.61
523.1960, 15638.95
524.3750, 12064.21
525.5540, 9051.591
526.7320, 6645.984
527.9110, 4890.338
529.0890, 3675.235
530.2680, 2758.090
531.4460, 2388.471
532.6240, 1726.296
533.8010, 1452.680
534.9790, 1278.388
536.1560, 1105.964
537.3340, 994.4307
538.5110, 796.9688
539.6880, 723.1328
540.8650, 595.8008
542.0410, 568.4785
543.2180, 485.3994
544.3940, 420.4043
545.5700, 412.3379
546.7460, 415.8369
547.9220, 234.5156
549.0970, 432.2539
550.2730, 165.7637
551.4480, 347.0352
552.6230, 288.3770
553.7980, 224.5693
554.9730, 182.9512
556.1470, 229.8477
557.3210, 268.0615
558.4960, 231.9209
559.6700, 257.7266
560.8440, 205.1113
562.0170, 51.46387
563.1910, 180.1641
564.3640, 290.7861
565.5380, 26.04395
566.7110, 118.6475
567.8840, 315.5137
569.0560, 288.2324
570.2290, 317.7832
571.4010, 300.3320
572.5740, 379.4170
573.7460, 339.5283
574.9180, 528.3438
576.0890, 643.2012
577.2610, 667.4395
578.4320, 968.3115
579.6040, 1129.138
580.7750, 1211.685
581.9450, 1404.491
583.1160, 1618.709
584.2870, 1591.647
585.4570, 1617.188
586.6270, 1679.984
587.7980, 1359.760
588.9670, 1094.805
590.1370, 737.5537
591.3070, 581.5996
592.4760, 604.5713
593.6450, 411.6875
594.8140, 272.7217
595.9830, 214.5029
597.1520, 135.1768
598.3210, 73.83789
599.4890, 148.4824
600.6570, 71.11230
601.8250, 13.72852
602.9930, 139.3232
604.1610, 59.14844
605.3290, 197.7139
606.4960, 123.2627
607.6630, 46.79785
608.8300, 120.3154
609.9970, 113.8174
611.1640, 150.3037
612.3300, 187.7734
613.4970, 238.2285
614.6630, 266.6680
615.8290, 275.5010
616.9950, 333.5000
618.1610, 293.8926
619.3260, 314.2695
620.4920, 365.6299
621.6570, 476.9746
622.8220, 472.3027
623.9870, 438.6143
625.1520, 512.9102
626.3160, 511.1895
627.4810, 423.4531
628.6450, 447.7002
629.8090, 567.9355
630.9730, 518.1543
632.1370, 508.3574
633.3000, 372.5439
634.4640, 514.7139
635.6270, 632.8652
636.7900, 331.0029
637.9530, 418.1230
639.1160, 290.2256
640.2780, 216.3125
641.4410, 205.3809
642.6030, 146.4316
643.7650, 142.4648
644.9270, 224.4805
646.0890, 67.47754
647.2500, 180.4551
648.4120, 122.4150
649.5730, 56.64551
650.7340, 175.2334
651.8950, 43.09375
653.0560, 37.93066
654.2160, 45.74316
655.3770, 52.53418
656.5370, 39.69727
657.6970, 30.98438
658.8570, 7.678711
660.0170, 88.31250
661.1760, 101.9248
662.3360, 143.9678
663.4950, 182.0947
664.6540, 130.6543
665.8130, 128.1943
666.9720, 22.28613
668.1310, 46.81250
669.2890, 14.21973
670.4470, 125.9717
671.6050, 47.32227
672.7630, 122.6494
673.9210, 59.95703
675.0790, 7.240234
676.2360, 98.49121
677.3930, 79.72070
678.5510, 63.92969
679.7080, 22.11426
680.8640, 4.779297
682.0210, 15.25781
683.1770, 48.50000
684.3340, 31.47461
685.4900, 56.50098
686.6460, 27.59375
687.8020, 12.70801
688.9570, 8.191406
690.1130, 122.0889
691.2680, 102.9658
692.4230, 36.16504
693.5780, 88.65332
694.7330, 47.54883
695.8880, 124.1865
697.0420, 63.09766
698.1960, 37.54688
699.3510, 78.31055
700.5040, 80.90625
701.6580, 43.19336
702.8120, 12.25684
703.9650, 101.3838
705.1190, 53.72656
706.2720, 112.2061
707.4250, 70.69531
708.5780, 152.2334
709.7300, 78.71582
710.8830, 79.21094
712.0350, 20.31543
713.1870, 196.1348
714.3390, 187.5654
715.4910, 75.99512
716.6430, 80.59277
717.7940, 130.7451
718.9460, 183.0635
720.0970, 182.3652
721.2480, 76.64648
722.3990, 129.9043
723.5500, 45.14258
724.7000, 164.3535
725.8500, 273.5459
727.0010, 99.71875
728.1510, 227.8682
729.3010, 99.99805
730.4500, 169.1338
731.6000, 5.747070
732.7490, 126.3457
733.8980, 143.4072
735.0470, 193.4482
736.1960, 221.4697
737.3450, 394.2695
738.4940, 177.2520
739.6420, 287.9932
740.7900, 277.3408
741.9380, 106.2646
743.0860, 163.8857
744.2340, 271.7695
745.3810, 314.6113
746.5290, 334.1123
747.6760, 331.8984
748.8230, 328.6338
749.9700, 309.4209
751.1170, 473.1895
752.2630, 486.9395
753.4100, 457.6689
754.5560, 528.3809
755.7020, 496.0732
756.8480, 410.7461
757.9940, 499.4004
759.1390, 571.0352
760.2850, 540.6523
761.4300, 491.2500
762.5750, 523.8291
763.7200, 386.3906
764.8650, 302.9316
766.0100, 535.4756
767.1540, 528.0820
768.2980, 466.5684
769.4420, 337.0352
770.5860, 418.4844
771.7300, 351.9141
772.8740, 383.3271
774.0170, 299.1357
775.1610, 245.5107
776.3040, 177.8682
777.4470, 350.2070
778.5900, 356.5283
779.7320, 293.8311
780.8750, 366.0938
782.0170, 328.3203
783.1590, 400.5684
784.3010, 363.4385
785.4430, 397.6523
786.5850, 455.7119
787.7260, 334.7920
788.8680, 575.9521
790.0090, 393.5186
791.1500, 695.0039
792.2910, 534.5488
793.4310, 516.1289
794.5720, 514.0938
795.7120, 603.5771
796.8520, 489.3760
797.9920, 551.7432
799.1320, 607.8682
800.2720, 561.7559
801.4120, 557.7324
802.5510, 525.5645
803.6900, 345.3682
804.8290, 275.1846
805.9680, 289.4375
807.1070, 462.7119
808.2450, 170.4385
809.3840, 305.6992
810.5220, 269.3799
811.6600, 265.7148
812.7980, 391.1582
813.9360, 308.6904
815.0730, 283.1289
816.2110, 376.4287
817.3480, 485.0166
818.4850, 375.2480
819.6220, 433.2158
820.7590, 406.0781
821.8960, 226.9893
823.0320, 316.3115
824.1680, 282.2090
825.3040, 158.2852
826.4400, 284.7148
827.5760, 327.1748
828.7120, 223.6230
829.8470, 174.3623
830.9830, 164.6416
832.1180, 124.3828
833.2530, 261.7842
834.3880, 137.5166
835.5220, 59.27832
836.6570, 241.4385
837.7910, 142.6074
838.9250, 208.9717
840.0590, 57.17578
841.1930, 110.1299
842.3270, 174.4033
843.4600, 365.6133
844.5940, 71.58301
845.7270, 229.9385
846.8600, 163.3174
847.9930, 310.3223
849.1250, 252.6328
850.2580, 249.0127
851.3900, 123.4609
852.5230, 197.3945
853.6550, 96.03809
854.7870, 169.2168
855.9180, 213.5449
857.0500, 132.8613
858.1810, 330.7480
859.3130, 151.8848
860.4440, 390.4268
861.5750, 158.6895
862.7050, 283.9561
863.8360, 151.9307
864.9660, 291.1777
866.0970, 353.1348
867.2270, 286.3643
868.3570, 54.17969
869.4870, 159.2217
870.6160, 162.3291
871.7460, 195.5215
872.8750, 190.7051
874.0040, 205.8818
875.1330, 280.0508
876.2620, 273.3711
877.3910, 110.3652
878.5190, 267.2686
879.6470, 241.4072
880.7760, 140.5391
881.9040, 326.6641
883.0310, 230.7822
884.1590, 153.8926
885.2870, 88.99609
886.4140, 102.0938
887.5410, 98.18164
888.6680, 156.2637
889.7950, 149.3389
890.9220, 233.4053
892.0480, 191.4668
893.1750, 227.5205
894.3010, 119.5693
895.4270, 234.6104
896.5530, 73.64355
897.6790, 207.6729
898.8040, 197.6953
899.9300, 203.7119
901.0550, 23.72168
902.1800, 4.274414
903.3050, 167.7129
904.4300, 99.69531
905.5540, 191.6719
906.6790, 165.6436
907.8030, 178.6104
908.9270, 5.571289
910.0510, 50.52246
911.1750, 124.4697
912.2990, 227.4111
913.4220, 37.34863
914.5450, 29.28027
915.6690, 67.20898
916.7920, 68.13184
917.9140, 161.0508
919.0370, 169.9678
920.1600, 197.8809
921.2820, 32.79004
922.4040, 160.6963
923.5260, 30.62109
924.6480, 106.5420
925.7700, 174.4629
926.8910, 114.3828
928.0130, 55.30176
929.1340, 34.22070
930.2550, 118.1543
931.3760, 59.10059
932.4970, 16.05078
933.6170, 46.99902
934.7380, 9.053711
935.8580, 75.88184
936.9780, 113.8154
938.0980, 186.7471
939.2180, 117.6777
940.3370, 62.61914
941.4570, 64.57910
942.5760, 130.5488
943.6950, 144.5195
944.8140, 90.49023
945.9330, 133.4609
947.0520, 127.4326
948.1700, 220.4092
949.2890, 13.38672
950.4070, 39.36426
951.5250, 26.65723
952.6430, 100.3086
953.7600, 105.2803
954.8780, 130.2646
955.9950, 51.26953
957.1120, 11.29199
958.2290, 107.6641
959.3460, 207.6572
960.4630, 114.7490
961.5800, 16.10254
962.6960, 50.04395
963.8120, 18.21680
964.9280, 66.61719
966.0440, 14.87402
967.1600, 70.32129
968.2760, 20.20801
969.3910, 10.12012
970.5060, 66.89160
971.6210, 33.82129
972.7360, 7.246094
973.8510, 28.69336
974.9660, 0.4843750
976.0800, 25.52930
977.1950, 128.4170
978.3090, 44.36719
979.4230, 44.26074
980.5370, 5.782227
981.6500, 136.1738
982.7640, 1.865234
983.8770, 125.1104
984.9900, 56.91211
986.1030, 60.04199
987.2160, 25.99902
988.3290, 189.9805
989.4420, 228.9639
990.5540, 40.95020
991.6660, 105.9424
992.7780, 252.9365
993.8900, 86.93750
995.0020, 160.9443
996.1140, 226.9561
997.2250, 393.9756
998.3360, 253.0020
999.4470, 232.0312
1000.558, 325.0674
1001.669, 505.1084
1002.780, 323.1494
1003.890, 434.2119
1005.001, 577.2773
1006.111, 602.3594
1007.221, 654.4463
1008.331, 676.5361
1009.440, 724.6328
1010.550, 706.7354
1011.659, 669.8418
1012.768, 556.9551
1013.877, 436.0752
1014.986, 415.1992
1016.095, 274.3301
1017.204, 340.4658
1018.312, 106.6074
1019.420, 192.7539
1020.528, 197.9082
1021.636, 254.0674
1022.744, 258.2324
1023.852, 161.4033
1024.959, 62.58301
1026.066, 79.76758
1027.173, 92.95801
1028.280, 73.15527
1029.387, 94.36035
1030.494, 98.57227
1031.600, 203.7900
1032.707, 77.01465
1033.813, 102.2471
1034.919, 214.4658
1036.025, 304.6133
1037.130, 221.9570
1038.236, 220.2188
1039.341, 258.4883
1040.446, 189.7666
1041.552, 285.0518
1042.656, 276.0010
1043.761, 489.2324
1044.866, 392.5430
1045.970, 467.8623
1047.074, 677.1875
1048.179, 721.5234
1049.282, 740.8672
1050.386, 600.2207
1051.490, 712.5820
1052.593, 487.9521
1053.697, 575.3320
1054.800, 568.7197
1055.903, 388.1162
1057.006, 498.5225
1058.108, 494.9385
1059.211, 512.3633
1060.313, 438.7969
1061.415, 468.2412
1062.517, 531.6934
1063.619, 369.1562
1064.721, 483.6279
1065.823, 554.1064
1066.924, 564.5967
1068.025, 449.1328
1069.126, 483.6436
1070.227, 370.1631
1071.328, 500.6924
1072.429, 415.2324
1073.529, 441.7803
1074.629, 322.3398
1075.729, 126.9082
1076.829, 368.4883
1077.929, 230.0771
1079.029, 433.6768
1080.128, 371.2861
1081.228, 284.9062
1082.327, 242.5449
1083.426, 442.1943
1084.525, 119.0195
1085.623, 251.6904
1086.722, 262.3828
1087.820, 143.0859
1088.919, 397.7998
1090.017, 313.5244
1091.115, 273.3506
1092.212, 113.0605
1093.310, 96.63184
1094.407, 134.4023
1095.505, 49.10156
1096.602, 266.6484
1097.699, 348.4551
1098.795, 203.4248
1099.892, 112.9951
1100.989, 412.8467
1102.085, 367.7109
1103.181, 171.5869
1104.277, 218.8643
1105.373, 168.1963
1106.469, 515.1094
1107.564, 344.9219
1108.660, 408.4463
1109.755, 567.4180
1110.850, 372.4023
1111.945, 679.4141
1113.040, 659.0742
1114.134, 857.1113
1115.229, 914.9922
1116.323, 1030.055
1117.417, 1121.201
1118.511, 1058.139
1119.605, 1224.889
1120.698, 1220.002
1121.792, 1177.127
1122.885, 1052.266
1123.978, 1532.416
1125.071, 1623.582
1126.164, 1723.760
1127.257, 1665.949
1128.349, 2108.252
1129.442, 2309.469
1130.534, 2520.896
1131.626, 2779.139
1132.718, 3062.395
1133.810, 3409.664
1134.901, 3665.947
1135.993, 3782.246
1137.084, 3877.930
1138.175, 3976.254
1139.266, 3716.590
1140.357, 3678.939
1141.448, 3319.301
1142.538, 3141.680
1143.628, 2776.068
1144.719, 2605.471
1145.809, 2230.889
1146.898, 2001.318
1147.988, 1744.762
1149.078, 1505.217
1150.167, 1289.688
1151.256, 1120.170
1152.345, 966.8477
1153.434, 881.1816
1154.523, 766.7070
1155.612, 700.2480
1156.700, 691.8008
1157.788, 397.3691
1158.877, 315.9492
1159.964, 230.5449
1161.052, 331.1602
1162.140, 489.7891
1163.227, 402.4414
1164.315, 383.1094
1165.402, 156.7871
1166.489, 51.48438
1167.576, 6.804688
1168.663, 215.9238
1169.749, 248.6621
1170.836, 119.4414
1171.922, 209.2324
1173.008, 79.04102
1174.094, 223.8633
1175.180, 130.6992
1176.265, 253.5488
1177.351, 278.4141
1178.436, 376.2910
1179.521, 287.1836
1180.606, 340.8828
1181.691, 247.0137
1182.776, 292.9492
1183.860, 313.8984
1184.944, 174.8613
1186.029, 112.8398
1187.113, 104.8320
1188.197, 232.8379
1189.280, 135.8574
1190.364, 144.8926
1191.447, 40.93945
1192.531, 85.00195
1193.614, 171.0781
1194.697, 182.1719
1195.779, 186.8145
1196.862, 235.4238
1197.945, 133.5293
1199.027, 218.6816
1200.109, 169.8496
1201.191, 8.031250
1202.273, 61.22461
1203.355, 129.4336
1204.436, 202.6562
1205.518, 200.8945
1206.599, 134.1445
1207.680, 132.4102
1208.761, 131.6895
1209.842, 98.89453
1210.922, 38.29102
1212.003, 87.50195
1213.083, 150.8379
1214.163, 185.1875
1215.243, 119.5586
1216.323, 93.68945
1217.402, 16.08789
1218.482, 69.50000
1219.561, 95.92773
1220.641, 30.63281
1221.720, 27.84375
1222.798, 173.3887
1223.877, 161.9785
1224.956, 5.582031
1226.034, 24.21289
1227.112, 149.8633
1228.191, 59.47266
1229.269, 91.81445
1230.346, 264.6309
1231.424, 103.2852
1232.501, 69.95312
1233.579, 103.3691
1234.656, 30.28711
1235.733, 64.95898
1236.810, 0.6445310
1237.886, 148.3457
1238.963, 65.06445
1240.039, 278.7969
1241.116, 186.2363
1242.192, 135.9961
1243.268, 65.77148
1244.343, 56.51758
1245.419, 175.3594
1246.494, 73.17578
1247.570, 178.0176
1248.645, 213.8711
1249.720, 132.7461
1250.795, 62.63281
1251.869, 174.5332
1252.944, 127.4453
1254.018, 115.3711
1255.093, 56.31055
1256.167, 157.2598
1257.240, 30.77930
1258.314, 93.18555
1259.388, 6.835938
1260.461, 285.1504
1261.535, 139.1602
1262.608, 40.18164
1263.681, 348.4023
1264.753, 31.44727
1265.826, 57.49609
1266.899, 181.5547
1267.971, 38.61523
1269.043, 65.68945
1270.115, 43.77539
1271.187, 315.8730
1272.259, 261.9844
1273.330, 248.1055
1274.402, 19.24023
1275.473, 139.3887
1276.544, 110.5469
1277.615, 102.7188
1278.686, 50.90234
1279.756, 30.09570
1280.827, 154.3008
1281.897, 158.8867
1282.967, 266.1211
1284.037, 212.3691
1285.107, 8.626953
1286.177, 108.8965
1287.247, 73.17969
1288.316, 270.4824
1289.385, 192.1348
1290.454, 21.92578
1291.523, 78.92188
1292.592, 112.2754
1293.661, 179.6367
1294.729, 124.0137
1295.797, 105.4004
1296.866, 226.7090
1297.934, 82.16211
1299.001, 209.9238
1300.069, 270.3535
1301.137, 107.7969
1302.204, 118.2480
1303.271, 160.7188
1304.338, 316.1973
1305.405, 94.68750
1306.472, 327.1875
1307.539, 28.69727
1308.605, 280.2148
1309.671, 267.7441
1310.737, 29.27734
1311.803, 348.8242
1312.869, 266.3750
1313.935, 93.93555
1315.000, 229.5078
1316.066, 280.0879
1317.131, 46.68164
1318.196, 164.2832
1319.261, 152.8965
1320.326, 244.5195
1321.390, 255.4824
1322.455, 227.7949
1323.519, 246.4512
1324.583, 169.1133
1325.647, 99.78711
1326.711, 66.46094
1327.775, 99.14844
1328.838, 109.4102
1329.902, 200.5195
1330.965, 187.2188
1332.028, 245.2285
1333.091, 227.6504
1334.153, 192.3770
1335.216, 272.1172
1336.279, 92.85742
1337.341, 219.6074
1338.403, 99.36523
1339.465, 33.86328
1340.527, 153.9082
1341.588, 189.6680
1342.650, 38.43945
1343.711, 49.77930
1344.772, 166.0000
1345.834, 146.7832
1346.894, 136.5820
1347.955, 88.38672
1349.016, 217.3359
1350.076, 141.0605
1351.136, 258.9961
1352.197, 128.8379
1353.257, 139.6875
1354.316, 224.5488
1355.376, 157.4180
1356.436, 147.1484
1357.495, 33.70508
1358.554, 261.1855
1359.613, 32.08203
1360.672, 141.9883
1361.731, 195.5137
1362.789, 151.4355
1363.848, 145.3672
1364.906, 146.2871
1365.964, 90.20898
1367.022, 193.1387
1368.080, 69.91992
1369.138, 17.00977
1370.195, 14.90820
1371.253, 143.8164
1372.310, 9.101563
1373.367, 235.0215
1374.424, 7.951172
1375.480, 57.88672
1376.537, 149.8281
1377.593, 148.7812
1378.650, 84.73633
1379.706, 152.7012
1380.762, 73.67383
1381.818, 120.6562
1382.873, 124.6426
1383.929, 184.6367
1384.984, 66.53906
1386.039, 221.5488
1387.094, 296.3691
1388.149, 133.3184
1389.204, 146.3477
1390.259, 0.3886720
1391.313, 206.4336
1392.367, 82.48828
1393.422, 246.1738
1394.476, 180.2461
1395.529, 25.32227
1396.583, 20.40430
1397.637, 15.49805
1398.690, 120.5996
1399.743, 30.70508
1400.796, 106.8203
1401.849, 186.9434
1402.902, 193.0723
1403.954, 126.2129
1405.007, 108.3594
1406.059, 70.51172
1407.111, 152.6699
1408.163, 3.568359
1409.215, 71.87305
1410.267, 147.0605
1411.318, 110.3223
1412.370, 127.5293
1413.421, 27.74609
1414.472, 27.76367
1415.523, 22.12109
1416.574, 4.869141
1417.624, 27.66602
1418.675, 10.53906
1419.725, 198.7539
1420.775, 148.9785
1421.825, 115.2109
1422.875, 39.45703
1423.925, 5.689453
1424.974, 87.08203
1426.024, 185.1309
1427.073, 216.2676
1428.122, 215.3613
1429.171, 92.94922
1430.220, 300.0273
1431.268, 38.32031
1432.317, 134.3652
1433.365, 204.3926
1434.413, 403.2441
1435.461, 274.1387
1436.509, 124.8066
1437.557, 195.8457
1438.605, 264.6895
1439.652, 477.9746
1440.699, 526.2676
1441.746, 652.5703
1442.793, 666.8828
1443.840, 560.2012
1444.887, 520.5312
1445.933, 449.8691
1446.980, 530.2188
1448.026, 650.5762
1449.072, 370.9414
1450.118, 432.3184
1451.163, 732.7012
1452.209, 585.9766
1453.254, 422.3594
1454.300, 637.6152
1455.345, 515.9844
1456.390, 653.3633
1457.435, 537.7598
1458.479, 564.1641
1459.524, 429.5742
1460.568, 480.0078
1461.612, 511.2832
1462.656, 350.7578
1463.700, 395.2930
1464.744, 420.8359
1465.788, 429.3867
1466.831, 323.1777
1467.874, 420.6992
1468.918, 211.2227
1469.961, 321.7598
1471.003, 162.3027
1472.046, 274.8574
1473.089, 287.4219
1474.131, 418.9941
1475.173, 419.9609
1476.215, 300.1895
1477.257, 378.5137
1478.299, 354.1152
1479.341, 198.7578
1480.382, 368.4102
1481.424, 275.0703
1482.465, 284.7422
1483.506, 318.4219
1484.547, 171.1133
1485.587, 198.8125
1486.628, 310.9238
1487.668, 233.6230
1488.709, 295.2773
1489.749, 215.7461
1490.789, 292.7559
1491.828, 154.3574
1492.868, 93.96484
1493.908, 132.5000
1494.947, 41.65820
1495.986, 288.8574
1497.025, 0.6855470
1498.064, 231.7754
1499.103, 232.2441
1500.141, 207.7285
1501.180, 255.2324
1502.218, 190.5312
1503.256, 187.7969
1504.294, 101.7832
1505.332, 162.2988
1506.370, 157.8125
1507.407, 206.3262
1508.445, 315.8770
1509.482, 101.4922
1510.519, 272.1094
1511.556, 82.72852
1512.593, 21.62891
1513.629, 115.0332
1514.666, 107.6934
1515.702, 229.4570
1516.738, 288.2207
1517.774, 123.9844
1518.810, 342.7480
1519.846, 144.5098
1520.882, 233.2793
1521.917, 180.0430
1522.952, 136.7969
1523.987, 270.5469
1525.022, 198.2949
1526.057, 151.0430
1527.092, 125.9121
1528.126, 333.8398
1529.161, 94.93164
1530.195, 110.7949
1531.229, 157.0605
1532.263, 13.36328
1533.297, 45.70703
1534.330, 285.0977
1535.364, 91.53320
1536.397, 231.0215
1537.430, 260.5605
1538.463, 13.63281
1539.496, 255.5879
1540.529, 1.826172
1541.561, 216.0859
1542.594, 174.3730
1543.626, 172.6875
1544.658, 250.0352
1545.690, 229.4102
1546.722, 264.8379
1547.753, 248.4844
1548.785, 201.1387
1549.816, 186.2852
1550.847, 214.1230
1551.878, 148.6562
1552.909, 5.429688
1553.940, 125.5957
1554.971, 63.35938
1556.001, 179.2285
1557.031, 154.0078
1558.062, 234.9355
1559.092, 52.49023
1560.121, 69.56250
1561.151, 0.2011720
1562.181, 0.0000000E+00
##END=



