##NAMES=Epidote
##RRUFFID=R050064
##IDEAL CHEMISTRY=Ca_2_Fe^3+^Al_2_(Si_2_O_7_)(SiO_4_)O(OH)
##LOCALITY=East Xichang City, Meigu County, Sichuan Province, China
##OWNER=RRUFF
##SOURCE=Rock Currier
##DESCRIPTION=Green prismatic crystals
##STATUS=The identification of this mineral has been confirmed by X-ray diffraction and chemical analysis
##URL=rruff.info/R050064
##MEASURED CHEMISTRY=(Ca_1.99_Mn_0.01_)_Î£=2_Fe^3+^_1.00_Al_2.00_(Si_2.00_O_7_)(Si_1.00_O_4_)O(OH); 
##PIN_ID=L00201
##ORIENTATION=Laser parallel to -b* (0 -1 0). Fiducial mark perpendicular to laser is parallel to -c [0 0 -1]
73.319, 0.000
74.721, 62.788
76.123, 3.279
77.525, 99.064
78.926, 50.811
80.327, 4.086
81.728, 0.835
83.128, 83.524
84.529, 169.788
85.929, 246.544
87.329, 519.454
88.728, 845.793
90.128, 1124.656
91.527, 1415.161
92.926, 1327.234
94.324, 1180.245
95.723, 960.361
97.121, 845.188
98.519, 684.376
99.917, 493.164
101.314, 407.523
102.712, 252.426
104.109, 207.843
105.505, 157.751
106.902, 100.125
108.298, 22.945
109.694, 13.809
111.090, 25.848
112.486, 37.076
113.881, 9.500
115.277, 27.422
116.672, 65.842
118.066, 99.798
119.461, 32.331
120.855, 30.476
122.249, 187.733
123.643, 417.269
125.036, 605.104
126.430, 1224.212
127.823, 1762.568
129.216, 2428.157
130.608, 2746.971
132.001, 2854.000
133.393, 2628.237
134.785, 2177.677
136.176, 1945.314
137.568, 1749.144
138.959, 1985.162
140.350, 2361.365
141.741, 2897.749
143.131, 3784.312
144.521, 4241.050
145.911, 4636.960
147.301, 4318.043
148.691, 4064.293
150.080, 3738.814
151.469, 3708.486
152.858, 4152.037
154.247, 5109.696
155.635, 6484.649
157.024, 8510.128
158.411, 11435.855
159.799, 14831.626
161.187, 18487.393
162.574, 21763.166
163.961, 24128.951
165.348, 24734.750
166.734, 23440.551
168.121, 20356.352
169.507, 17372.146
170.893, 14227.941
172.278, 11723.746
173.664, 9829.562
175.049, 7965.353
176.434, 6141.108
177.819, 4867.839
179.203, 3825.477
180.587, 2955.073
181.971, 2385.710
183.355, 1751.405
184.739, 1477.161
186.122, 1195.980
187.505, 1031.866
188.888, 818.818
190.271, 894.842
191.653, 999.937
193.035, 1147.105
194.417, 1558.350
195.799, 2043.671
197.180, 2774.069
198.562, 3203.546
199.943, 3681.103
201.324, 3801.738
202.704, 3550.453
204.084, 3052.250
205.465, 2414.126
206.844, 1912.086
208.224, 1414.128
209.603, 1035.252
210.983, 859.459
212.362, 715.751
213.740, 704.126
215.119, 702.587
216.497, 676.133
217.875, 898.765
219.253, 922.482
220.631, 1131.286
222.008, 1349.177
223.385, 1617.154
224.762, 1950.219
226.139, 2324.126
227.515, 2981.405
228.891, 3633.902
230.267, 4767.891
231.643, 6154.461
233.018, 8202.182
234.394, 11160.026
235.769, 14903.235
237.144, 18852.109
238.518, 23166.031
239.893, 27061.854
241.267, 27776.566
242.641, 27136.275
244.014, 23724.000
245.388, 19531.570
246.761, 15308.646
248.134, 11475.541
249.507, 8513.089
250.879, 6280.653
252.252, 4612.162
253.624, 3400.651
254.996, 2635.149
256.367, 2110.666
257.739, 1555.036
259.110, 1303.293
260.481, 1106.504
261.852, 930.439
263.222, 867.357
264.592, 964.397
265.962, 1139.556
267.332, 1297.829
268.702, 1534.217
270.071, 2068.715
271.440, 2488.323
272.809, 2985.877
274.178, 3317.208
275.546, 3463.962
276.915, 3407.210
278.283, 3225.399
279.650, 3290.868
281.018, 3408.501
282.385, 4079.119
283.752, 4938.987
285.119, 6445.458
286.486, 8592.403
287.852, 11601.194
289.218, 14740.076
290.584, 17509.043
291.950, 19538.100
293.316, 19507.244
294.681, 18026.473
296.046, 15645.779
297.411, 13365.175
298.775, 10974.651
300.140, 8924.211
301.504, 7253.852
302.868, 5633.573
304.231, 4423.377
305.595, 3384.258
306.958, 2715.219
308.321, 2120.258
309.684, 1728.375
311.047, 1549.571
312.409, 1472.843
313.771, 1463.191
315.133, 1611.614
316.495, 1781.108
317.856, 2182.669
319.217, 2706.294
320.578, 3376.986
321.939, 4210.739
323.299, 4779.555
324.660, 5259.431
326.020, 5470.370
327.380, 5481.372
328.739, 5532.433
330.099, 5573.558
331.458, 5924.746
332.817, 6355.996
334.176, 7007.310
335.534, 8108.686
336.892, 9400.128
338.251, 11461.632
339.608, 13883.199
340.966, 17384.830
342.323, 21796.529
343.681, 27138.291
345.037, 31770.111
346.394, 36702.008
347.751, 38923.973
349.107, 38946.000
350.463, 36178.074
351.819, 31970.234
353.174, 26602.451
354.530, 21344.734
355.885, 16507.082
357.240, 13009.495
358.594, 10071.971
359.949, 7774.509
361.303, 6057.114
362.657, 4643.782
364.011, 3684.513
365.365, 2789.306
366.718, 2214.163
368.071, 1598.082
369.424, 1143.064
370.777, 763.107
372.129, 387.213
373.481, 215.381
374.833, 11.391
376.185, 196.106
377.537, 269.799
378.888, 331.486
380.239, 370.180
381.590, 370.890
382.941, 279.617
384.291, 180.340
385.642, 47.040
386.992, 19.691
388.341, 82.709
389.691, 44.121
391.040, 39.460
392.389, 11.698
393.738, 26.622
395.087, 102.868
396.435, 115.591
397.784, 151.294
399.132, 215.953
400.479, 164.658
401.827, 172.396
403.174, 158.120
404.521, 50.830
405.868, 21.531
407.215, 69.968
408.561, 321.504
409.908, 498.135
411.254, 835.865
412.599, 1266.691
413.945, 1826.614
415.290, 2477.631
416.636, 3387.744
417.980, 4782.956
419.325, 6381.268
420.670, 7945.679
422.014, 9770.189
423.358, 11004.792
424.702, 12059.496
426.045, 12254.303
427.389, 12999.203
428.732, 13924.192
430.075, 15709.292
431.417, 17974.498
432.760, 20579.811
434.102, 22545.236
435.444, 23040.758
436.786, 22276.400
438.127, 22162.146
439.469, 21967.998
440.810, 22813.971
442.151, 25890.051
443.492, 29756.232
444.832, 36322.535
446.172, 43748.949
447.512, 49915.477
448.852, 54882.113
450.192, 56098.816
451.531, 56135.582
452.870, 54322.441
454.209, 51939.379
455.548, 48926.402
456.887, 43773.512
458.225, 38030.684
459.563, 32077.943
460.901, 26175.270
462.238, 21092.666
463.576, 16810.127
464.913, 13657.657
466.250, 10975.258
467.587, 9222.923
468.923, 7660.653
470.259, 6708.441
471.596, 5656.292
472.931, 5122.206
474.267, 4685.176
475.603, 4429.206
476.938, 4249.291
478.273, 4052.433
479.608, 4053.626
480.942, 4182.874
482.276, 4232.173
483.611, 4785.526
484.944, 4983.927
486.278, 5446.379
487.612, 6434.880
488.945, 7293.430
490.278, 8862.027
491.611, 10660.671
492.943, 12919.365
494.276, 15628.103
495.608, 18546.881
496.940, 21085.707
498.271, 22164.588
499.603, 22283.496
500.934, 21222.459
502.265, 19081.461
503.596, 17210.506
504.927, 15259.589
506.257, 14008.714
507.587, 12807.880
508.917, 11117.088
510.247, 9586.334
511.577, 7795.620
512.906, 6274.945
514.235, 5040.309
515.564, 4099.708
516.892, 3746.147
518.221, 3625.623
519.549, 3957.134
520.877, 4014.683
522.205, 3979.266
523.533, 3881.885
524.860, 3306.537
526.187, 2666.226
527.514, 2046.946
528.841, 1623.701
530.167, 1171.488
531.493, 898.308
532.820, 643.160
534.145, 476.043
535.471, 441.323
536.796, 307.882
538.122, 221.816
539.447, 231.684
540.771, 146.548
542.096, 251.408
543.420, 288.981
544.744, 325.457
546.068, 483.727
547.392, 747.010
548.715, 996.231
550.039, 1255.482
551.362, 1665.763
552.684, 2350.041
554.007, 3155.265
555.329, 4028.658
556.652, 5928.702
557.973, 8363.976
559.295, 12106.363
560.617, 16712.609
561.938, 21800.424
563.259, 25597.312
564.580, 26092.230
565.901, 23355.697
567.221, 18624.289
568.541, 13481.037
569.861, 9878.769
571.181, 7276.422
572.501, 5676.125
573.820, 4621.444
575.139, 4095.823
576.458, 3973.456
577.777, 4084.969
579.095, 4589.736
580.414, 5089.646
581.732, 5988.251
583.049, 6726.629
584.367, 7409.566
585.685, 8312.532
587.002, 8968.241
588.319, 9698.883
589.636, 10706.107
590.952, 11428.661
592.268, 13160.697
593.585, 15070.280
594.900, 16730.488
596.216, 18228.127
597.532, 17979.904
598.847, 18187.570
600.162, 16247.557
601.477, 14676.379
602.792, 12724.598
604.106, 11351.463
605.420, 10169.369
606.734, 9288.945
608.048, 8783.163
609.361, 8426.982
610.675, 8053.370
611.988, 7749.370
613.301, 7195.745
614.614, 6671.613
615.926, 5761.547
617.238, 5069.672
618.550, 4086.564
619.862, 3583.927
621.174, 2909.581
622.485, 2357.151
623.797, 1921.167
625.108, 1645.149
626.418, 1410.784
627.729, 1182.189
629.039, 1004.761
630.349, 856.368
631.659, 744.978
632.969, 625.694
634.279, 569.486
635.588, 475.650
636.897, 465.059
638.206, 388.597
639.515, 319.192
640.823, 282.464
642.131, 209.617
643.439, 242.785
644.747, 197.807
646.055, 179.745
647.362, 116.649
648.669, 61.424
649.976, 103.130
651.283, 55.656
652.589, 83.364
653.896, 68.948
655.202, 31.412
656.508, 77.924
657.814, 63.230
659.119, 111.508
660.424, 130.757
661.729, 128.972
663.034, 143.168
664.339, 136.328
665.643, 159.459
666.947, 171.559
668.251, 147.628
669.555, 255.665
670.859, 220.670
672.162, 339.643
673.465, 332.583
674.768, 462.491
676.071, 627.364
677.373, 687.204
678.676, 835.010
679.978, 1030.780
681.280, 1304.515
682.581, 1583.216
683.883, 1940.880
685.184, 2223.508
686.485, 2599.100
687.786, 2626.654
689.087, 2648.172
690.387, 2353.651
691.687, 2057.093
692.987, 1771.501
694.287, 1466.909
695.586, 1227.333
696.886, 974.784
698.185, 923.272
699.484, 733.797
700.783, 598.337
702.081, 513.872
703.379, 426.376
704.677, 342.453
705.975, 267.272
707.273, 217.657
708.570, 170.000
709.868, 133.301
711.165, 103.566
712.462, 74.091
713.758, 27.022
715.055, 27.212
716.351, 2.614
717.647, 31.479
718.943, 4.399
720.238, 58.362
721.533, 3.419
722.829, 83.550
724.124, 52.800
725.418, 67.153
726.713, 64.618
728.007, 64.193
729.301, 56.879
730.595, 56.674
731.889, 75.577
733.182, 72.599
734.476, 59.740
735.769, 76.992
737.061, 39.367
738.354, 50.844
739.647, 73.429
740.939, 44.136
742.231, 21.950
743.523, 99.859
744.814, 89.904
746.106, 84.081
747.397, 120.387
748.688, 80.841
749.978, 90.482
751.269, 49.139
752.559, 76.966
753.849, 86.920
755.139, 86.006
756.429, 67.223
757.719, 57.563
759.008, 36.020
760.297, 52.582
761.586, 79.259
762.875, 5.936
764.163, 13.047
765.451, 28.922
766.739, 22.994
768.027, 29.210
769.315, 21.436
770.602, 22.807
771.890, 10.276
773.177, 9.163
774.463, 20.521
775.750, 12.803
777.036, 14.005
778.323, 5.129
779.609, 5.169
780.894, 42.127
782.180, 52.016
783.465, 42.837
784.750, 7.591
786.035, 110.263
787.320, 32.876
788.605, 83.419
789.889, 56.900
791.173, 114.316
792.457, 97.673
793.741, 90.971
795.024, 122.208
796.307, 133.388
797.591, 128.511
798.873, 145.578
800.156, 159.589
801.439, 161.546
802.721, 186.449
804.003, 196.298
805.285, 233.095
806.566, 182.840
807.848, 205.532
809.129, 227.172
810.410, 208.761
811.691, 270.299
812.971, 286.787
814.252, 271.226
815.532, 313.615
816.812, 304.955
818.092, 317.247
819.371, 358.490
820.651, 371.683
821.930, 410.829
823.209, 447.927
824.488, 453.976
825.766, 538.978
827.045, 558.932
828.323, 670.839
829.601, 682.698
830.878, 721.511
832.156, 788.277
833.433, 848.997
834.710, 880.670
835.987, 955.297
837.264, 980.878
838.540, 1095.414
839.817, 1103.904
841.093, 1177.349
842.369, 1338.749
843.644, 1387.104
844.920, 1477.414
846.195, 1553.681
847.470, 1691.903
848.745, 1883.081
850.020, 2064.215
851.294, 2203.305
852.568, 2450.351
853.842, 2613.353
855.116, 2854.312
856.390, 3121.225
857.663, 3582.096
858.936, 4003.923
860.209, 4299.709
861.482, 4987.453
862.755, 5642.151
864.027, 6173.809
865.299, 7063.301
866.571, 7901.611
867.843, 8801.079
869.115, 9810.459
870.386, 10618.350
871.657, 12014.321
872.928, 12881.891
874.199, 13795.968
875.470, 14203.391
876.740, 14225.682
878.010, 14289.806
879.280, 13222.931
880.550, 11966.124
881.820, 10619.252
883.089, 9472.749
884.358, 8516.176
885.627, 7583.335
886.896, 6847.599
888.164, 6126.553
889.433, 5448.436
890.701, 4974.565
891.969, 4538.907
893.236, 4135.764
894.504, 4018.398
895.771, 3807.363
897.038, 3783.380
898.305, 3804.968
899.572, 3808.870
900.838, 3888.445
902.105, 4221.457
903.371, 4464.823
904.637, 4791.746
905.902, 5130.888
907.168, 5696.373
908.433, 6045.888
909.698, 6493.555
910.963, 6996.806
912.228, 7234.388
913.492, 7457.916
914.757, 7272.752
916.021, 7006.926
917.285, 6583.482
918.548, 5736.449
919.812, 5168.782
921.075, 4296.720
922.338, 3652.144
923.601, 3119.482
924.864, 2645.610
926.126, 2322.946
927.388, 2051.794
928.650, 1773.327
929.912, 1535.923
931.174, 1376.050
932.435, 1233.191
933.697, 1145.655
934.958, 978.328
936.218, 957.812
937.479, 873.157
938.739, 820.646
940.000, 746.931
941.260, 697.119
942.520, 633.920
943.779, 647.454
945.039, 602.838
946.298, 605.145
947.557, 563.758
948.816, 567.475
950.074, 519.158
951.333, 495.972
952.591, 558.850
953.849, 506.750
955.107, 543.758
956.365, 550.816
957.622, 524.030
958.879, 644.047
960.136, 600.167
961.393, 642.383
962.650, 742.537
963.906, 747.877
965.162, 887.224
966.418, 1023.578
967.674, 1067.945
968.930, 1263.315
970.185, 1484.691
971.441, 1757.080
972.696, 2157.480
973.950, 2633.892
975.205, 3274.319
976.459, 3833.760
977.714, 4316.217
978.968, 4627.690
980.222, 4688.176
981.475, 4338.677
982.729, 3871.189
983.982, 3214.713
985.235, 2730.244
986.488, 2134.784
987.740, 1650.336
988.993, 1393.898
990.245, 1100.474
991.497, 861.061
992.749, 699.660
994.000, 580.269
995.252, 522.894
996.503, 380.526
997.754, 406.176
999.005, 276.839
1000.256, 247.524
1001.506, 221.221
1002.756, 146.931
1004.006, 158.707
1005.256, 142.668
1006.506, 123.428
1007.755, 94.207
1009.005, 111.098
1010.254, 106.334
1011.502, 112.165
1012.751, 123.010
1014.000, 126.871
1015.248, 197.215
1016.496, 261.109
1017.744, 286.100
1018.991, 271.052
1020.239, 336.017
1021.486, 312.015
1022.733, 322.467
1023.980, 376.537
1025.227, 371.710
1026.473, 435.862
1027.719, 491.070
1028.965, 607.330
1030.211, 743.645
1031.457, 924.012
1032.702, 1240.431
1033.948, 1392.483
1035.193, 1601.418
1036.438, 1852.994
1037.682, 2050.627
1038.927, 2351.309
1040.171, 2456.045
1041.415, 2476.830
1042.659, 2422.662
1043.903, 2317.550
1045.146, 2062.483
1046.390, 1976.457
1047.633, 1663.493
1048.876, 1471.588
1050.118, 1413.741
1051.361, 1262.961
1052.603, 1148.239
1053.845, 1183.576
1055.087, 1193.963
1056.329, 1223.406
1057.571, 1348.908
1058.812, 1497.471
1060.053, 1550.087
1061.294, 1570.755
1062.535, 1466.469
1063.775, 1471.234
1065.016, 1320.057
1066.256, 1276.916
1067.496, 1218.808
1068.736, 1207.744
1069.975, 1295.724
1071.214, 1316.748
1072.454, 1500.815
1073.693, 1738.925
1074.931, 1963.075
1076.170, 2323.259
1077.408, 2672.475
1078.647, 3198.723
1079.885, 3783.006
1081.122, 4429.323
1082.360, 5577.676
1083.597, 6449.057
1084.835, 6975.466
1086.072, 7014.903
1087.308, 5998.849
1088.545, 5012.714
1089.781, 3964.688
1091.018, 3088.930
1092.254, 2318.002
1093.490, 1805.697
1094.725, 1432.392
1095.961, 1180.230
1097.196, 921.035
1098.431, 823.604
1099.666, 721.406
1100.900, 631.110
1102.135, 671.662
1103.369, 503.053
1104.603, 518.113
1105.837, 468.998
1107.071, 412.048
1108.304, 415.878
1109.538, 383.891
1110.771, 344.389
1112.004, 360.448
1113.236, 287.051
1114.469, 284.932
1115.701, 305.071
1116.933, 239.116
1118.165, 254.332
1119.397, 251.365
1120.629, 316.780
1121.860, 382.644
1123.091, 403.706
1124.322, 275.157
1125.553, 248.420
1126.783, 172.760
1128.014, 164.185
1129.244, 156.380
1130.474, 193.525
1131.704, 149.688
1132.933, 97.980
1134.163, 66.299
1135.392, 130.583
1136.621, 59.148
1137.850, 109.533
1139.079, 59.114
1140.307, 39.315
1141.535, 97.733
1142.763, 2.197
1143.991, 63.158
1145.219, 2.151
1146.446, 36.067
1147.674, 22.264
1148.901, 18.763
1150.128, 25.419
1151.354, 6.285
1152.581, 21.227
1153.807, 43.238
1155.033, 6.300
1156.259, 11.139
1157.485, 32.194
1158.710, 17.792
1159.936, 35.590
1161.161, 15.510
1162.386, 33.570
1163.611, 11.596
1164.835, 9.131
1166.060, 0.107
1167.284, 57.328
1168.508, 5.073
1169.732, 29.689
1170.955, 14.821
1172.179, 6.396
1173.402, 67.469
1174.625, 58.061
1175.848, 53.546
1177.070, 21.490
1178.293, 36.340
1179.515, 57.539
1180.737, 38.942
1181.959, 32.202
1183.181, 46.962
1184.402, 44.449
1185.624, 58.255
1186.845, 79.256
1188.066, 35.754
1189.286, 23.364
1190.507, 68.174
1191.727, 56.843
1192.947, 67.536
1194.167, 46.251
1195.387, 54.913
1196.607, 56.612
1197.826, 33.238
1199.045, 24.864
1200.264, 67.491
1201.483, 77.118
1202.702, 41.745
1203.920, 47.371
1205.138, 38.995
1206.356, 49.618
1207.574, 49.239
1208.792, 30.858
1210.009, 42.474
1211.227, 51.087
1212.444, 80.698
1213.661, 64.304
1214.877, 56.907
1216.094, 48.506
1217.310, 14.100
1218.526, 20.903
1219.742, 51.274
1220.958, 10.853
1222.173, 31.426
1223.389, 11.994
1224.604, 22.555
1225.819, 19.111
1227.034, 34.660
1228.248, 39.203
1229.463, 37.738
1230.677, 22.266
1231.891, 5.786
1233.105, 37.702
1234.318, 34.845
1235.532, 13.735
1236.745, 39.266
1237.958, 13.817
1239.171, 1.386
1240.384, 24.973
1241.596, 26.584
1242.809, 42.209
1244.021, 18.864
1245.233, 39.539
1246.444, 19.236
1247.656, 48.959
1248.867, 10.700
1250.079, 22.466
1251.290, 3.738
1252.500, 36.088
1253.711, 14.949
1254.921, 3.164
1256.132, 39.737
1257.342, 15.663
1258.552, 6.611
1259.761, 10.577
1260.971, 29.557
1262.180, 10.437
1263.389, 5.397
1264.598, 24.655
1265.807, 13.740
1267.015, 19.858
1268.223, 22.009
1269.432, 27.184
1270.640, 23.179
1271.847, 23.423
1273.055, 7.888
1274.262, 19.186
1275.470, 1.513
1276.677, 0.871
1277.883, 21.806
1279.090, 20.383
1280.296, 0.064
1281.503, 14.456
1282.709, 0.123
1283.915, 16.603
1285.120, 5.059
1286.326, 26.002
1287.531, 24.420
1288.736, 12.816
1289.941, 13.238
1291.146, 2.358
1292.350, 21.948
1293.555, 33.409
1294.759, 26.811
1295.963, 12.083
1297.167, 0.718
1298.370, 10.288
1299.574, 0.489
1300.777, 10.195
1301.980, 3.925
1303.183, 24.642
1304.386, 31.831
1305.588, 28.989
1306.790, 30.197
1307.993, 23.598
1309.195, 21.849
1310.396, 6.758
1311.598, 19.706
1312.799, 13.641
1314.000, 26.549
1315.201, 20.019
1316.402, 44.878
1317.603, 13.659
1318.803, 20.470
1320.003, 3.325
1321.203, 14.130
1322.403, 16.860
1323.603, 34.563
1324.802, 29.243
1326.002, 34.333
1327.201, 21.626
1328.400, 29.233
1329.599, 57.835
1330.797, 47.463
1331.995, 30.996
1333.194, 108.666
1334.392, 62.154
1335.589, 91.669
1336.787, 87.180
1337.985, 83.361
1339.182, 96.998
1340.379, 89.412
1341.576, 112.848
1342.772, 110.178
1343.969, 130.555
1345.165, 143.844
1346.361, 176.111
1347.557, 128.358
1348.753, 134.583
1349.949, 162.786
1351.144, 192.972
1352.339, 180.131
1353.534, 207.270
1354.729, 195.385
1355.924, 229.475
1357.118, 235.541
1358.312, 216.584
1359.506, 228.604
1360.700, 221.600
1361.894, 219.523
1363.088, 197.528
1364.281, 220.460
1365.474, 219.370
1366.667, 224.259
1367.860, 201.128
1369.052, 253.978
1370.245, 203.975
1371.437, 156.787
1372.629, 202.583
1373.821, 231.344
1375.013, 195.053
1376.204, 160.714
1377.395, 218.321
1378.586, 204.567
1379.777, 178.339
1380.968, 188.343
1382.159, 200.496
1383.349, 153.520
1384.539, 199.082
1385.729, 181.779
1386.919, 211.412
1388.109, 187.438
1389.298, 164.397
1390.487, 181.857
1391.676, 170.396
1392.865, 150.365
1394.054, 142.760
1395.242, 191.205
1396.431, 142.697
1397.619, 169.650
1398.807, 122.811
1399.995, 150.807
1401.182, 151.391
1402.370, 119.179
1403.557, 171.084
1404.744, 170.674
1405.931, 122.265
1407.118, 117.827
1408.304, 150.565
1409.490, 154.027
1410.676, 135.464
1411.862, 110.138
1413.048, 118.731
1414.234, 138.491
1415.419, 113.811
1416.604, 105.732
1417.789, 115.570
1418.974, 87.708
1420.159, 53.360
1421.343, 127.917
1422.528, 87.972
1423.712, 96.083
1424.896, 33.293
1426.079, 61.993
1427.263, 103.617
1428.446, 15.311
1429.629, 65.040
1430.812, 65.899
1431.995, 51.710
1433.178, 49.473
1434.360, 43.062
1435.543, 48.062
1436.725, 34.469
1437.907, 69.033
1439.088, 75.546
1440.270, 95.006
1441.451, 67.413
1442.632, 76.766
1443.813, 22.063
1444.994, 50.301
1446.175, 31.479
1447.355, 32.599
1448.535, 23.685
1449.715, 28.702
1450.895, 53.707
1452.075, 89.704
1453.255, 88.692
1454.434, 93.313
1455.613, 57.604
1456.792, 82.609
1457.971, 50.681
1459.149, 60.732
1460.328, 65.754
1461.506, 21.721
1462.684, 25.736
1463.862, 50.780
1465.040, 55.872
1466.217, 41.948
1467.395, 14.084
1468.572, 37.265
1469.749, 63.362
1470.925, 26.753
1472.102, 14.650
1473.278, 34.445
1474.455, 4.791
1475.631, 40.811
1476.807, 14.673
1477.982, 10.514
1479.158, 38.720
1480.333, 16.909
1481.508, 65.236
1482.683, 5.719
1483.858, 32.918
1485.033, 6.018
1486.207, 72.125
1487.381, 20.241
1488.555, 57.359
1489.729, 29.129
1490.903, 22.985
1492.076, 15.086
1493.250, 49.629
1494.423, 26.564
1495.596, 35.199
1496.769, 46.166
1497.941, 23.337
1499.114, 35.048
1500.286, 26.334
1501.458, 31.707
1502.630, 51.599
1503.802, 29.456
1504.973, 29.256
1506.145, 31.084
1507.316, 45.963
1508.487, 47.986
1509.657, 28.169
1510.828, 1.532
1511.999, 78.924
1513.169, 64.613
1514.339, 1.578
1515.509, 42.504
1516.678, 0.000
##END=



