##NAMES=Epidote
##RRUFFID=R050131
##IDEAL CHEMISTRY=Ca_2_Fe^3+^Al_2_(Si_2_O_7_)(SiO_4_)O(OH)
##LOCALITY=Calumet mine, Chaffee County, Colorado, USA
##OWNER=RRUFF
##SOURCE=Dave Bunk Minerals
##DESCRIPTION=Green prismatic crystal
##STATUS=The identification of this mineral has been confirmed by X-ray diffraction and chemical analysis
##URL=rruff.info/R050131
##MEASURED CHEMISTRY=Ca_2.00_Al_2.00_(Fe^3+^_0.75_Al_0.25_)(SiO_4_)(Si_2_O_7_)O(OH)
##PIN_ID=L00140
##ORIENTATION=Laser parallel to -a* (-1 0 0). Fiducial mark perpendicular to laser is parallel to b [0 1 0]
120.855, 0.000
122.249, 3.762
123.643, 63.318
125.036, 56.000
126.430, 316.322
127.823, 428.901
129.216, 683.024
130.608, 824.148
132.001, 887.777
133.393, 979.461
134.785, 853.537
136.176, 790.547
137.568, 551.700
138.959, 442.571
140.350, 342.853
141.741, 233.421
143.131, 376.249
144.521, 341.864
145.911, 520.994
147.301, 632.501
148.691, 553.472
150.080, 459.293
151.469, 298.279
152.858, 318.686
154.247, 283.728
155.635, 391.580
157.024, 533.394
158.411, 866.598
159.799, 1272.046
161.187, 1812.593
162.574, 2436.639
163.961, 3086.172
165.348, 3591.364
166.734, 4053.283
168.121, 4103.611
169.507, 4100.781
170.893, 3705.211
172.278, 3722.466
173.664, 3345.892
175.049, 2987.481
176.434, 2487.225
177.819, 1989.113
179.203, 1576.141
180.587, 1199.299
181.971, 1043.582
183.355, 863.977
184.739, 745.479
186.122, 772.077
187.505, 697.759
188.888, 636.532
190.271, 489.395
191.653, 339.346
193.035, 220.406
194.417, 62.588
195.799, 25.150
197.180, 16.808
198.562, 35.613
199.943, 35.112
201.324, 143.688
202.704, 99.341
204.084, 97.081
205.465, 109.936
206.844, 17.915
208.224, 28.018
209.603, 79.757
210.983, 155.416
212.362, 124.965
213.740, 192.411
215.119, 177.760
216.497, 124.018
217.875, 2.195
219.253, 29.297
220.631, 97.671
222.008, 194.705
223.385, 390.798
224.762, 577.943
226.139, 819.137
227.515, 1079.365
228.891, 1289.614
230.267, 1537.882
231.643, 1660.173
233.018, 1770.486
234.394, 2005.823
235.769, 2074.185
237.144, 2378.571
238.518, 2689.986
239.893, 3347.427
241.267, 3785.850
242.641, 4281.208
244.014, 4752.570
245.388, 4671.956
246.761, 4562.359
248.134, 4122.733
249.507, 3633.974
250.879, 3140.074
252.252, 2694.185
253.624, 2532.394
254.996, 2320.756
256.367, 2261.193
257.739, 2107.668
259.110, 1977.182
260.481, 1823.733
261.852, 1566.321
263.222, 1534.947
264.592, 1333.277
265.962, 1298.484
267.332, 1306.203
268.702, 1288.960
270.071, 1475.757
271.440, 1552.593
272.809, 1686.469
274.178, 1835.385
275.546, 1951.341
276.915, 1890.338
278.283, 1791.375
279.650, 1642.453
281.018, 1468.571
282.385, 1450.730
283.752, 1359.930
285.119, 1384.171
286.486, 1466.061
287.852, 1515.663
289.218, 1794.735
290.584, 1916.933
291.950, 2254.213
293.316, 2583.544
294.681, 2721.906
296.046, 2781.283
297.411, 2352.663
298.775, 2074.030
300.140, 1637.375
301.504, 1346.692
302.868, 1175.979
304.231, 939.239
305.595, 929.459
306.958, 886.638
308.321, 964.774
309.684, 1127.839
311.047, 1306.819
312.409, 1519.727
313.771, 1694.574
315.133, 2046.369
316.495, 2057.119
317.856, 2140.834
319.217, 2182.517
320.578, 2137.174
321.939, 2283.810
323.299, 2423.306
324.660, 2748.677
326.020, 2960.015
327.380, 3248.338
328.739, 3636.629
330.099, 3681.787
331.458, 3991.617
332.817, 4010.063
334.176, 3973.372
335.534, 3858.661
336.892, 3631.989
338.251, 3555.355
339.608, 3341.757
340.966, 3572.196
342.323, 3763.670
343.681, 4337.180
345.037, 5108.724
346.394, 5864.303
347.751, 6911.915
349.107, 7395.557
350.463, 7649.234
351.819, 7542.941
353.174, 6657.681
354.530, 5880.452
355.885, 4790.252
357.240, 4000.083
358.594, 3298.749
359.949, 2717.550
361.303, 2360.029
362.657, 2103.376
364.011, 2016.830
365.365, 1966.644
366.718, 2020.263
368.071, 1953.922
369.424, 1844.725
370.777, 1746.219
372.129, 1362.153
373.481, 1196.080
374.833, 917.173
376.185, 705.282
377.537, 403.488
378.888, 260.458
380.239, 196.929
381.590, 156.442
382.941, 157.758
384.291, 226.902
385.642, 339.461
386.992, 569.312
388.341, 662.448
389.691, 890.855
391.040, 980.280
392.389, 909.724
393.738, 920.189
395.087, 741.673
396.435, 662.177
397.784, 415.701
399.132, 281.247
400.479, 230.813
401.827, 99.401
403.174, 45.021
404.521, 26.336
405.868, 46.718
407.215, 12.976
408.561, 17.257
409.908, 82.489
411.254, 154.272
412.599, 346.093
413.945, 441.944
415.290, 618.832
416.636, 764.754
417.980, 810.699
419.325, 1049.678
420.670, 1139.694
422.014, 1410.745
423.358, 1739.837
424.702, 2026.967
426.045, 2382.133
427.389, 2509.324
428.732, 2800.543
430.075, 3036.791
431.417, 3409.064
432.760, 3968.367
434.102, 4487.697
435.444, 5163.062
436.786, 5338.455
438.127, 5645.878
439.469, 5542.333
440.810, 5129.810
442.151, 5239.313
443.492, 5054.851
444.832, 5347.414
446.172, 5903.008
447.512, 6531.631
448.852, 7688.276
450.192, 8043.943
451.531, 8469.625
452.870, 7855.324
454.209, 7271.039
455.548, 6953.768
456.887, 6216.506
458.225, 5861.257
459.563, 5142.018
460.901, 4620.781
462.238, 4077.551
463.576, 3428.324
464.913, 3041.101
466.250, 2488.884
467.587, 2092.671
468.923, 1750.461
470.259, 1438.256
471.596, 1272.055
472.931, 1060.858
474.267, 976.665
475.603, 870.476
476.938, 691.292
478.273, 663.111
479.608, 556.933
480.942, 610.760
482.276, 514.592
483.611, 667.427
484.944, 605.265
486.278, 731.107
487.612, 856.017
488.945, 868.894
490.278, 1049.748
491.611, 1186.864
492.943, 1261.818
494.276, 1490.919
495.608, 1730.079
496.940, 2117.121
498.271, 2350.193
499.603, 2699.335
500.934, 3108.404
502.265, 3207.679
503.596, 3485.784
504.927, 3475.085
506.257, 3514.263
507.587, 3567.385
508.917, 3395.459
510.247, 3459.403
511.577, 3228.773
512.906, 2845.869
514.235, 2494.179
515.564, 1888.382
516.892, 1583.345
518.221, 1147.369
519.549, 1008.342
520.877, 761.341
522.205, 667.361
523.533, 663.390
524.860, 500.428
526.187, 460.469
527.514, 358.511
528.841, 238.556
530.167, 198.603
531.493, 35.658
532.820, 2.282
534.145, 86.192
535.471, 48.088
536.796, 70.961
538.122, 162.803
539.447, 114.668
540.771, 134.546
542.096, 92.480
543.420, 66.441
544.744, 134.433
546.068, 56.491
547.392, 41.576
548.715, 13.318
550.039, 51.209
551.362, 110.265
552.684, 223.442
554.007, 272.668
555.329, 429.975
556.652, 662.230
557.973, 817.893
559.295, 1234.267
560.617, 1675.075
561.938, 2370.293
563.259, 3282.112
564.580, 4390.725
565.901, 5387.649
567.221, 5556.880
568.541, 5234.846
569.861, 4317.958
571.181, 3175.196
572.501, 2455.491
573.820, 1738.422
575.139, 1491.700
576.458, 1263.772
577.777, 1198.042
579.095, 1272.581
580.414, 1202.573
581.732, 1407.027
583.049, 1560.625
584.367, 1852.061
585.685, 2101.896
587.002, 2347.008
588.319, 2748.901
589.636, 2966.700
590.952, 3323.666
592.268, 3760.231
593.585, 4082.283
594.900, 4716.500
596.216, 5243.513
597.532, 5952.889
598.847, 6656.371
600.162, 6753.224
601.477, 7021.578
602.792, 6571.793
604.106, 6430.763
605.420, 5882.668
606.734, 5391.266
608.048, 5283.991
609.361, 4936.406
610.675, 4980.710
611.988, 5045.649
613.301, 4754.580
614.614, 4565.295
615.926, 4126.843
617.238, 3705.409
618.550, 3035.214
619.862, 2533.012
621.174, 2087.673
622.485, 1664.268
623.797, 1483.337
625.108, 1142.854
626.418, 995.391
627.729, 914.977
629.039, 696.406
630.349, 663.791
631.659, 566.194
632.969, 483.394
634.279, 441.780
635.588, 408.901
636.897, 368.977
638.206, 334.138
639.515, 353.375
640.823, 300.506
642.131, 372.138
643.439, 251.038
644.747, 176.872
646.055, 186.615
647.362, 204.333
648.669, 133.025
649.976, 173.689
651.283, 141.327
652.589, 129.937
653.896, 160.519
655.202, 156.073
656.508, 141.599
657.814, 161.097
659.119, 114.567
660.424, 157.007
661.729, 112.419
663.034, 143.801
664.339, 159.154
665.643, 172.478
666.947, 210.774
668.251, 105.042
669.555, 172.280
670.859, 122.488
672.162, 149.666
673.465, 216.814
674.768, 194.934
676.071, 259.026
677.373, 226.090
678.676, 236.125
679.978, 286.132
681.280, 294.111
682.581, 327.061
683.883, 366.982
685.184, 399.874
686.485, 429.737
687.786, 416.572
689.087, 490.377
690.387, 431.034
691.687, 457.873
692.987, 410.702
694.287, 366.292
695.586, 347.126
696.886, 311.917
698.185, 278.396
699.484, 257.452
700.783, 285.014
702.081, 259.317
703.379, 235.319
704.677, 194.027
705.975, 175.456
707.273, 133.856
708.570, 104.227
709.868, 91.568
711.165, 71.877
712.462, 83.155
713.758, 32.401
715.055, 57.612
716.351, 25.789
717.647, 20.070
718.943, 25.011
720.238, 1.945
721.533, 0.053
722.829, 7.993
724.124, 5.090
725.418, 35.235
726.713, 37.448
728.007, 6.728
729.301, 33.060
730.595, 22.933
731.889, 14.085
733.182, 23.413
734.476, 43.971
735.769, 35.600
737.061, 59.296
738.354, 46.069
739.647, 43.946
740.939, 34.830
742.231, 23.810
743.523, 20.850
744.814, 3.947
746.106, 23.093
747.397, 17.296
748.688, 41.554
749.978, 28.880
751.269, 26.266
752.559, 32.711
753.849, 3.218
755.139, 25.771
756.429, 50.382
757.719, 17.063
759.008, 45.796
760.297, 29.597
761.586, 41.456
762.875, 28.379
764.163, 8.359
765.451, 23.385
766.739, 18.464
768.027, 19.234
769.315, 0.775
770.602, 14.996
771.890, 0.265
773.177, 26.427
774.463, 23.089
775.750, 35.719
777.036, 43.812
778.323, 2.891
779.609, 48.428
780.894, 36.936
782.180, 24.415
783.465, 48.865
784.750, 52.288
786.035, 40.682
787.320, 82.049
788.605, 30.390
789.889, 86.703
791.173, 89.991
792.457, 62.253
793.741, 52.490
795.024, 83.700
796.307, 126.886
797.591, 95.048
798.873, 103.186
800.156, 127.238
801.439, 137.305
802.721, 176.374
804.003, 188.920
805.285, 162.099
806.566, 215.873
807.848, 212.574
809.129, 200.379
810.410, 236.139
811.691, 270.815
812.971, 262.548
814.252, 275.063
815.532, 332.731
816.812, 339.189
818.092, 328.756
819.371, 394.364
820.651, 389.004
821.930, 430.759
823.209, 474.073
824.488, 526.646
825.766, 562.989
827.045, 603.424
828.323, 645.732
829.601, 694.666
830.878, 724.289
832.156, 758.893
833.433, 798.480
834.710, 801.049
835.987, 902.601
837.264, 874.137
838.540, 972.656
839.817, 959.159
841.093, 1018.645
842.369, 1093.116
843.644, 1116.570
844.920, 1265.010
846.195, 1278.453
847.470, 1372.890
848.745, 1501.331
850.020, 1620.798
851.294, 1746.280
852.568, 1945.779
853.842, 2072.286
855.116, 2442.794
856.390, 2603.325
857.663, 3028.853
858.936, 3441.388
860.209, 3689.912
861.482, 4350.255
862.755, 4836.468
864.027, 5294.617
865.299, 5922.679
866.571, 6006.774
867.843, 6340.445
869.115, 6394.392
870.386, 6177.886
871.657, 6513.962
872.928, 6393.422
874.199, 6911.618
875.470, 7277.946
876.740, 7817.760
878.010, 9019.750
879.280, 9294.849
880.550, 10469.810
881.820, 11296.694
883.089, 12191.927
884.358, 13527.796
885.627, 14335.854
886.896, 15301.702
888.164, 16196.260
889.433, 16011.352
890.701, 16094.959
891.969, 14749.410
893.236, 13354.003
894.504, 12259.185
895.771, 10365.069
897.038, 9291.160
898.305, 8222.323
899.572, 7277.304
900.838, 7015.669
902.105, 6419.530
903.371, 6107.213
904.637, 6046.081
905.902, 5847.569
907.168, 6363.935
908.433, 6468.915
909.698, 6773.378
910.963, 7310.962
912.228, 7561.774
913.492, 8217.633
914.757, 8402.783
916.021, 8538.792
917.285, 8926.093
918.548, 8422.487
919.812, 8409.232
921.075, 7497.969
922.338, 6837.904
923.601, 6188.987
924.864, 5282.036
926.126, 4671.831
927.388, 4192.613
928.650, 3523.517
929.912, 3235.475
931.174, 2769.942
932.435, 2444.942
933.697, 2244.907
934.958, 1976.806
936.218, 1782.846
937.479, 1578.913
938.739, 1437.946
940.000, 1348.169
941.260, 1145.191
942.520, 1160.461
943.779, 1006.760
945.039, 912.956
946.298, 908.127
947.557, 802.443
948.816, 733.934
950.074, 776.334
951.333, 647.786
952.591, 727.311
953.849, 597.848
955.107, 666.394
956.365, 638.950
957.622, 609.519
958.879, 617.099
960.136, 550.696
961.393, 538.305
962.650, 604.929
963.906, 545.565
965.162, 568.213
966.418, 543.872
967.674, 527.546
968.930, 575.237
970.185, 551.940
971.441, 581.656
972.696, 623.383
973.950, 669.860
975.205, 762.880
976.459, 834.660
977.714, 945.452
978.968, 1081.258
980.222, 1146.078
981.475, 1208.909
982.729, 1274.751
983.982, 1071.609
985.235, 1057.491
986.488, 919.373
987.740, 822.525
988.993, 699.539
990.245, 601.463
991.497, 566.511
992.749, 527.500
994.000, 495.462
995.252, 480.715
996.503, 407.703
997.754, 405.706
999.005, 423.969
1000.256, 383.237
1001.506, 400.081
1002.756, 387.139
1004.006, 360.487
1005.256, 429.276
1006.506, 430.046
1007.755, 545.156
1009.005, 597.783
1010.254, 621.579
1011.502, 738.897
1012.751, 821.582
1014.000, 992.713
1015.248, 1184.673
1016.496, 1419.891
1017.744, 1762.410
1018.991, 1885.956
1020.239, 2103.525
1021.486, 2277.236
1022.733, 2181.861
1023.980, 2176.183
1025.227, 1860.486
1026.473, 1656.854
1027.719, 1467.252
1028.965, 1232.183
1030.211, 1113.867
1031.457, 988.763
1032.702, 856.277
1033.948, 967.822
1035.193, 850.368
1036.438, 853.963
1037.682, 940.590
1038.927, 939.252
1040.171, 953.944
1041.415, 929.676
1042.659, 937.907
1043.903, 936.706
1045.146, 850.224
1046.390, 856.082
1047.633, 795.966
1048.876, 722.874
1050.118, 723.809
1051.361, 630.772
1052.603, 582.806
1053.845, 601.830
1055.087, 504.885
1056.329, 479.965
1057.571, 458.979
1058.812, 421.109
1060.053, 448.272
1061.294, 419.728
1062.535, 423.947
1063.775, 391.193
1065.016, 328.334
1066.256, 375.637
1067.496, 302.961
1068.736, 322.839
1069.975, 384.211
1071.214, 348.607
1072.454, 340.021
1073.693, 386.457
1074.931, 461.158
1076.170, 514.625
1077.408, 604.106
1078.647, 708.865
1079.885, 834.371
1081.122, 900.893
1082.360, 1202.676
1083.597, 1336.223
1084.835, 1611.782
1086.072, 1928.590
1087.308, 1894.173
1088.545, 1943.963
1089.781, 2010.725
1091.018, 1738.354
1092.254, 1477.056
1093.490, 1180.695
1094.725, 964.700
1095.961, 826.361
1097.196, 576.067
1098.431, 471.518
1099.666, 417.614
1100.900, 343.314
1102.135, 292.737
1103.369, 291.456
1104.603, 248.250
1105.837, 231.758
1107.071, 183.645
1108.304, 148.703
1109.538, 167.241
1110.771, 146.738
1112.004, 111.965
1113.236, 124.818
1114.469, 130.698
1115.701, 130.338
1116.933, 102.451
1118.165, 114.301
1119.397, 59.503
1120.629, 144.398
1121.860, 226.064
1123.091, 218.215
1124.322, 116.977
1125.553, 84.905
1126.783, 45.042
1128.014, 72.475
1129.244, 39.353
1130.474, 11.238
1131.704, 50.989
1132.933, 0.094
1134.163, 13.878
1135.392, 15.176
1136.621, 7.654
1137.850, 2.968
1139.079, 7.721
1140.307, 2.753
1141.535, 22.247
1142.763, 14.758
1143.991, 19.401
1145.219, 13.770
1146.446, 40.937
1147.674, 12.245
1148.901, 29.145
1150.128, 2.847
1151.354, 13.219
1152.581, 25.613
1153.807, 24.465
1155.033, 5.737
1156.259, 63.250
1157.485, 23.183
1158.710, 7.872
1159.936, 42.243
1161.161, 29.327
1162.386, 46.352
1163.611, 0.527
1164.835, 11.341
1166.060, 11.410
1167.284, 11.416
1168.508, 37.440
1169.732, 11.069
1170.955, 9.812
1172.179, 62.952
1173.402, 2.887
1174.625, 7.149
1175.848, 35.936
1177.070, 6.707
1178.293, 11.338
1179.515, 28.772
1180.737, 20.834
1181.959, 23.196
1183.181, 24.295
1184.402, 21.087
1185.624, 5.069
1186.845, 18.931
1188.066, 34.153
1189.286, 10.039
1190.507, 14.987
1191.727, 14.198
1192.947, 39.653
1194.167, 7.451
1195.387, 6.340
1196.607, 33.352
1197.826, 9.581
1199.045, 18.401
1200.264, 22.364
1201.483, 5.152
1202.702, 23.909
1203.920, 14.338
1205.138, 29.570
1206.356, 31.320
1207.574, 0.931
1208.792, 15.793
1210.009, 35.513
1211.227, 10.735
1212.444, 31.992
1213.661, 11.689
1214.877, 3.571
1216.094, 64.109
1217.310, 13.783
1218.526, 32.451
1219.742, 50.113
1220.958, 3.822
1222.173, 26.469
1223.389, 28.108
1224.604, 12.259
1225.819, 24.356
1227.034, 34.964
1228.248, 6.565
1229.463, 22.156
1230.677, 33.740
1231.891, 8.317
1233.105, 34.883
1234.318, 7.505
1235.532, 12.099
1236.745, 21.658
1237.958, 16.192
1239.171, 60.712
1240.384, 9.225
1241.596, 45.727
1242.809, 21.219
1244.021, 13.253
1245.233, 10.205
1246.444, 34.653
1247.656, 5.090
1248.867, 35.511
1250.079, 22.951
1251.290, 5.350
1252.500, 20.802
1253.711, 2.755
1254.921, 6.539
1256.132, 7.925
1257.342, 14.385
1258.552, 27.689
1259.761, 26.993
1260.971, 7.437
1262.180, 0.296
1263.389, 37.969
1264.598, 19.206
1265.807, 32.429
1267.015, 9.639
1268.223, 22.836
1269.432, 23.984
1270.640, 34.328
1271.847, 25.475
1273.055, 17.667
1274.262, 61.781
1275.470, 53.877
1276.677, 11.954
1277.883, 50.042
1279.090, 39.076
1280.296, 47.109
1281.503, 18.917
1282.709, 16.809
1283.915, 25.790
1285.120, 47.647
1286.326, 41.603
1287.531, 44.561
1288.736, 33.209
1289.941, 26.158
1291.146, 29.310
1292.350, 16.715
1293.555, 36.492
1294.759, 46.554
1295.963, 62.404
1297.167, 18.962
1298.370, 34.081
1299.574, 31.218
1300.777, 43.049
1301.980, 35.331
1303.183, 24.469
1304.386, 15.173
1305.588, 55.403
1306.790, 39.186
1307.993, 63.135
1309.195, 27.830
1310.396, 46.231
1311.598, 35.606
1312.799, 3.955
1314.000, 17.167
1315.201, 4.479
1316.402, 22.097
1317.603, 65.744
1318.803, 3.664
1320.003, 38.907
1321.203, 17.958
1322.403, 13.275
1323.603, 22.399
1324.802, 24.915
1326.002, 30.417
1327.201, 8.936
1328.400, 2.411
1329.599, 28.870
1330.797, 44.835
1331.995, 18.270
1333.194, 68.691
1334.392, 26.635
1335.589, 54.031
1336.787, 42.727
1337.985, 55.100
1339.182, 35.461
1340.379, 26.809
1341.576, 17.143
1342.772, 26.464
1343.969, 62.747
1345.165, 51.044
1346.361, 60.330
1347.557, 65.605
1348.753, 29.955
1349.949, 54.207
1351.144, 53.448
1352.339, 82.408
1353.534, 81.628
1354.729, 48.822
1355.924, 51.265
1357.118, 87.452
1358.312, 45.613
1359.506, 87.234
1360.700, 66.372
1361.894, 62.500
1363.088, 61.616
1364.281, 44.722
1365.474, 93.569
1366.667, 93.645
1367.860, 88.710
1369.052, 82.500
1370.245, 83.323
1371.437, 56.648
1372.629, 81.423
1373.821, 63.423
1375.013, 58.408
1376.204, 67.145
1377.395, 42.683
1378.586, 42.227
1379.777, 51.845
1380.968, 79.153
1382.159, 96.921
1383.349, 59.109
1384.539, 80.943
1385.729, 77.609
1386.919, 42.582
1388.109, 74.443
1389.298, 73.343
1390.487, 56.756
1391.676, 69.668
1392.865, 44.544
1394.054, 58.598
1395.242, 29.475
1396.431, 28.765
1397.619, 53.995
1398.807, 58.152
1399.995, 22.196
1401.182, 45.749
1402.370, 42.329
1403.557, 19.251
1404.744, 74.499
1405.931, 39.143
1407.118, 59.881
1408.304, 52.023
1409.490, 45.721
1410.676, 46.146
1411.862, 62.530
1413.048, 16.362
1414.234, 65.992
1415.419, 26.716
1416.604, 119.421
1417.789, 72.338
1418.974, 63.246
1420.159, 28.433
1421.343, 41.075
1422.528, 46.326
1423.712, 18.645
1424.896, 32.066
1426.079, 61.162
1427.263, 50.496
1428.446, 21.079
1429.629, 26.216
1430.812, 51.734
1431.995, 20.307
1433.178, 24.903
1434.360, 41.183
1435.543, 7.716
1436.725, 55.193
1437.907, 36.680
1439.088, 58.103
1440.270, 44.597
1441.451, 30.968
1442.632, 17.419
1443.813, 26.859
1444.994, 18.285
1446.175, 6.692
1447.355, 22.080
1448.535, 22.219
1449.715, 34.500
1450.895, 27.813
1452.075, 20.104
1453.255, 20.297
1454.434, 29.583
1455.613, 20.806
1456.792, 32.929
1457.971, 33.054
1459.149, 47.013
1460.328, 61.280
1461.506, 58.890
1462.684, 65.988
1463.862, 47.649
1465.040, 65.916
1466.217, 34.746
1467.395, 30.831
1468.572, 45.141
1469.749, 71.399
1470.925, 58.606
1472.102, 6.999
1473.278, 52.275
1474.455, 19.633
1475.631, 14.877
1476.807, 37.793
1477.982, 23.171
1479.158, 37.255
1480.333, 69.776
1481.508, 47.023
1482.683, 53.877
1483.858, 45.187
1485.033, 7.483
1486.207, 25.793
1487.381, 9.130
1488.555, 34.484
1489.729, 29.857
1490.903, 31.247
1492.076, 40.655
1493.250, 42.091
1494.423, 29.541
1495.596, 22.655
1496.769, 2.065
1497.941, 2.239
1499.114, 33.512
1500.286, 10.807
1501.458, 10.989
1502.630, 31.227
1503.802, 27.483
1504.973, 29.702
1506.145, 51.862
1507.316, 75.609
1508.487, 42.653
1509.657, 50.887
1510.828, 0.912
1511.999, 23.237
1513.169, 54.768
1514.339, 13.026
1515.509, 33.769
1516.678, 0.000
##END=



