##NAMES=Epidote
##RRUFFID=R050131
##IDEAL CHEMISTRY=Ca_2_Fe^3+^Al_2_(Si_2_O_7_)(SiO_4_)O(OH)
##LOCALITY=Calumet mine, Chaffee County, Colorado, USA
##OWNER=RRUFF
##SOURCE=Dave Bunk Minerals
##DESCRIPTION=Green prismatic crystal
##STATUS=The identification of this mineral has been confirmed by X-ray diffraction and chemical analysis
##URL=rruff.info/R050131
##MEASURED CHEMISTRY=Ca_2.00_Al_2.00_(Fe^3+^_0.75_Al_0.25_)(SiO_4_)(Si_2_O_7_)O(OH)
##PIN_ID=L00140
##ORIENTATION=Laser parallel to -a* (-1 0 0). Fiducial mark perpendicular to laser is parallel to b [0 1 0]
137.568, 0.000
138.959, 63.024
140.350, 65.584
141.741, 70.942
143.131, 19.508
144.521, 13.081
145.911, 4.378
147.301, 5.836
148.691, 87.176
150.080, 59.339
151.469, 56.375
152.858, 197.049
154.247, 315.178
155.635, 410.627
157.024, 438.294
158.411, 630.068
159.799, 790.840
161.187, 1088.507
162.574, 1523.976
163.961, 1982.165
165.348, 2731.006
166.734, 3693.435
168.121, 4573.416
169.507, 5845.987
170.893, 6753.094
172.278, 7620.760
173.664, 7769.011
175.049, 7377.771
176.434, 6406.981
177.819, 5184.583
179.203, 4208.536
180.587, 3254.799
181.971, 2608.330
183.355, 1944.099
184.739, 1632.086
186.122, 1225.270
187.505, 997.634
188.888, 799.166
190.271, 610.854
191.653, 520.689
193.035, 418.661
194.417, 417.763
195.799, 439.987
197.180, 475.329
198.562, 609.451
199.943, 664.226
201.324, 844.023
202.704, 929.843
204.084, 1055.742
205.465, 1046.576
206.844, 945.438
208.224, 994.383
209.603, 792.240
210.983, 705.014
212.362, 598.713
213.740, 626.345
215.119, 714.915
216.497, 727.428
217.875, 966.890
219.253, 1089.305
220.631, 1358.667
222.008, 1687.948
223.385, 2068.152
224.762, 2802.273
226.139, 3511.344
227.515, 4322.377
228.891, 5041.382
230.267, 5687.366
231.643, 5871.336
233.018, 5781.299
234.394, 5583.258
235.769, 5042.215
237.144, 4670.177
238.518, 4489.143
239.893, 4344.119
241.267, 4249.105
242.641, 4154.102
244.014, 3952.113
245.388, 3595.138
246.761, 3117.179
248.134, 2460.235
249.507, 1927.309
250.879, 1354.400
252.252, 926.511
253.624, 655.639
254.996, 378.785
256.367, 292.949
257.739, 151.145
259.110, 76.186
260.481, 55.189
261.852, 8.845
263.222, 60.525
264.592, 85.231
265.962, 254.961
267.332, 398.716
268.702, 659.495
270.071, 1072.812
271.440, 1653.709
272.809, 2282.072
274.178, 2842.440
275.546, 3217.957
276.915, 3022.848
278.283, 2563.776
279.650, 2033.740
281.018, 1382.737
282.385, 975.766
283.752, 678.826
285.119, 458.917
286.486, 407.040
287.852, 394.191
289.218, 386.368
290.584, 339.568
291.950, 439.793
293.316, 381.044
294.681, 391.321
296.046, 473.624
297.411, 455.955
298.775, 416.313
300.140, 382.700
301.504, 326.115
302.868, 315.416
304.231, 298.393
305.595, 301.565
306.958, 290.991
308.321, 315.482
309.684, 307.213
311.047, 243.986
312.409, 300.962
313.771, 193.151
315.133, 262.458
316.495, 187.875
317.856, 227.393
319.217, 245.005
320.578, 264.704
321.939, 383.486
323.299, 363.345
324.660, 480.275
326.020, 527.273
327.380, 558.334
328.739, 670.456
330.099, 760.448
331.458, 897.869
332.817, 1057.153
334.176, 1211.487
335.534, 1474.866
336.892, 1719.290
338.251, 1877.753
339.608, 2183.255
340.966, 2684.793
342.323, 3242.366
343.681, 4120.972
345.037, 5123.609
346.394, 6252.274
347.751, 7433.968
349.107, 8189.691
350.463, 8505.439
351.819, 8301.213
353.174, 7407.011
354.530, 6402.835
355.885, 5062.682
357.240, 4052.551
358.594, 3177.441
359.949, 2379.354
361.303, 1882.286
362.657, 1397.236
364.011, 1117.200
365.365, 871.178
366.718, 624.169
368.071, 521.174
369.424, 317.187
370.777, 240.205
372.129, 72.227
373.481, 49.254
374.833, 73.716
376.185, 152.698
377.537, 119.714
378.888, 157.755
380.239, 116.831
381.590, 77.930
382.941, 49.956
384.291, 246.848
385.642, 440.747
386.992, 826.652
388.341, 981.564
389.691, 1254.484
391.040, 1323.411
392.389, 1208.345
393.738, 985.287
395.087, 715.237
396.435, 473.194
397.784, 221.159
399.132, 33.134
400.479, 62.883
401.827, 160.907
403.174, 190.965
404.521, 207.064
405.868, 182.208
407.215, 224.385
408.561, 157.611
409.908, 125.868
411.254, 103.148
412.599, 101.573
413.945, 179.316
415.290, 401.074
416.636, 664.854
417.980, 1062.643
419.325, 1524.455
420.670, 2045.210
422.014, 2887.893
423.358, 3687.534
424.702, 4525.196
426.045, 5298.889
427.389, 5853.604
428.732, 6642.351
430.075, 7382.110
431.417, 8467.898
432.760, 10003.690
434.102, 11199.388
435.444, 12614.986
436.786, 13190.495
438.127, 13615.963
439.469, 12931.471
440.810, 11697.006
442.151, 10862.579
443.492, 9648.185
444.832, 8993.822
446.172, 8689.492
447.512, 8565.199
448.852, 8880.938
450.192, 9036.716
451.531, 9612.521
452.870, 9318.358
454.209, 9444.229
455.548, 9740.122
456.887, 9156.045
458.225, 8991.990
459.563, 8197.961
460.901, 7333.959
462.238, 6527.974
463.576, 5362.008
464.913, 4776.063
466.250, 3894.138
467.587, 3312.237
468.923, 2611.355
470.259, 2198.490
471.596, 1841.643
472.931, 1587.808
474.267, 1387.985
475.603, 1182.173
476.938, 1038.370
478.273, 918.576
479.608, 773.790
480.942, 868.011
482.276, 707.240
483.611, 812.475
484.944, 778.713
486.278, 688.956
487.612, 932.202
488.945, 923.451
490.278, 1073.702
491.611, 1224.954
492.943, 1280.208
494.276, 1569.462
495.608, 1793.716
496.940, 2132.969
498.271, 2418.221
499.603, 2746.473
500.934, 3150.723
502.265, 3394.972
503.596, 3802.219
504.927, 4088.464
506.257, 4405.706
507.587, 4847.946
508.917, 5053.182
510.247, 5325.417
511.577, 5087.646
512.906, 4706.872
514.235, 4147.093
515.564, 3268.311
516.892, 2683.524
518.221, 2068.733
519.549, 1687.937
520.877, 1251.135
522.205, 936.328
523.533, 789.515
524.860, 559.696
526.187, 482.872
527.514, 272.041
528.841, 278.204
530.167, 207.360
531.493, 183.509
532.820, 154.652
534.145, 158.787
535.471, 139.073
536.796, 148.579
538.122, 118.114
539.447, 141.221
540.771, 155.860
542.096, 162.770
543.420, 187.856
544.744, 121.937
546.068, 293.010
547.392, 215.077
548.715, 339.136
550.039, 417.188
551.362, 446.231
552.684, 656.323
554.007, 732.352
555.329, 911.372
556.652, 1190.451
557.973, 1441.990
559.295, 2002.406
560.617, 2650.150
561.938, 3631.124
563.259, 4973.073
564.580, 6439.193
565.901, 7687.555
567.221, 7890.970
568.541, 7348.286
569.861, 6127.513
571.181, 4772.748
572.501, 3822.724
573.820, 3051.717
575.139, 2696.799
576.458, 2543.496
577.777, 2537.196
579.095, 2702.299
580.414, 2933.747
581.732, 3367.295
583.049, 3877.939
584.367, 4510.198
585.685, 5246.116
587.002, 5982.901
588.319, 6767.146
589.636, 7530.549
590.952, 8431.113
592.268, 9419.663
593.585, 10279.337
594.900, 11841.587
596.216, 13132.019
597.532, 14974.595
598.847, 16434.668
600.162, 16616.076
601.477, 17106.803
602.792, 16088.246
604.106, 15488.646
605.420, 14330.383
606.734, 12871.712
608.048, 12253.700
609.361, 11253.837
610.675, 10864.198
611.988, 10596.174
613.301, 9984.672
614.614, 9604.912
615.926, 8633.318
617.238, 7993.718
618.550, 6960.855
619.862, 5915.105
621.174, 5198.473
622.485, 4199.211
623.797, 3645.365
625.108, 3097.106
626.418, 2662.033
627.729, 2410.253
629.039, 1989.342
630.349, 1838.209
631.659, 1603.249
632.969, 1453.024
634.279, 1341.933
635.588, 1229.634
636.897, 1129.360
638.206, 1027.045
639.515, 928.843
640.823, 888.199
642.131, 800.608
643.439, 788.917
644.747, 692.067
646.055, 597.188
647.362, 618.303
648.669, 532.220
649.976, 554.193
651.283, 471.059
652.589, 442.899
653.896, 438.713
655.202, 412.502
656.508, 416.265
657.814, 322.001
659.119, 343.712
660.424, 372.396
661.729, 307.055
663.034, 379.686
664.339, 278.292
665.643, 310.870
666.947, 295.422
668.251, 224.947
669.555, 270.445
670.859, 206.917
672.162, 229.361
673.465, 226.778
674.768, 189.168
676.071, 224.531
677.373, 251.867
678.676, 252.175
679.978, 247.456
681.280, 252.709
682.581, 252.935
683.883, 223.133
685.184, 233.303
686.485, 262.446
687.786, 212.561
689.087, 247.648
690.387, 244.708
691.687, 228.739
692.987, 265.760
694.287, 210.792
695.586, 258.826
696.886, 252.872
698.185, 262.919
699.484, 269.959
700.783, 276.969
702.081, 324.952
703.379, 296.906
704.677, 260.833
705.975, 274.730
707.273, 200.599
708.570, 159.440
709.868, 202.251
711.165, 201.035
712.462, 157.617
713.758, 57.515
715.055, 73.207
716.351, 77.866
717.647, 41.511
718.943, 51.164
720.238, 33.405
721.533, 7.525
722.829, 14.219
724.124, 23.933
725.418, 26.652
726.713, 56.633
728.007, 16.966
729.301, 1.358
730.595, 18.798
731.889, 34.703
733.182, 28.832
734.476, 19.430
735.769, 25.087
737.061, 26.806
738.354, 12.588
739.647, 54.424
740.939, 17.338
742.231, 47.309
743.523, 6.646
744.814, 39.444
746.106, 44.602
747.397, 12.832
748.688, 31.117
749.978, 72.467
751.269, 43.902
752.559, 78.408
753.849, 39.003
755.139, 60.666
756.429, 50.408
757.719, 62.223
759.008, 46.118
760.297, 68.084
761.586, 62.132
762.875, 73.259
764.163, 44.470
765.451, 48.751
766.739, 75.102
768.027, 20.538
769.315, 49.029
770.602, 20.590
771.890, 53.206
773.177, 33.893
774.463, 20.641
775.750, 7.443
777.036, 14.291
778.323, 5.866
779.609, 16.131
780.894, 4.123
782.180, 7.842
783.465, 11.771
784.750, 25.667
786.035, 9.530
787.320, 28.360
788.605, 12.159
789.889, 28.926
791.173, 21.662
792.457, 22.368
793.741, 8.043
795.024, 71.687
796.307, 51.303
797.591, 67.892
798.873, 98.453
800.156, 97.989
801.439, 91.500
802.721, 141.985
804.003, 110.446
805.285, 128.883
806.566, 134.297
807.848, 178.688
809.129, 183.055
810.410, 175.401
811.691, 223.723
812.971, 231.024
814.252, 229.302
815.532, 288.559
816.812, 320.794
818.092, 352.289
819.371, 377.198
820.651, 435.369
821.930, 482.519
823.209, 538.648
824.488, 581.756
825.766, 678.844
827.045, 743.912
828.323, 848.960
829.601, 983.988
830.878, 987.996
832.156, 1078.985
833.433, 1106.955
834.710, 1111.905
835.987, 1205.837
837.264, 1141.750
838.540, 1221.645
839.817, 1195.521
841.093, 1167.380
842.369, 1201.221
843.644, 1095.043
844.920, 1157.850
846.195, 1225.640
847.470, 1142.414
848.745, 1274.170
850.020, 1287.910
851.294, 1394.635
852.568, 1410.343
853.842, 1536.036
855.116, 1631.716
856.390, 1726.380
857.663, 1797.033
858.936, 2001.673
860.209, 2042.300
861.482, 2303.915
862.755, 2490.460
864.027, 2635.047
865.299, 2785.627
866.571, 2849.127
867.843, 3058.146
869.115, 3005.266
870.386, 2903.391
871.657, 3111.217
872.928, 3033.131
874.199, 3203.822
875.470, 3286.793
876.740, 3416.020
878.010, 3879.499
879.280, 4085.028
880.550, 4597.936
881.820, 4978.315
883.089, 5437.657
884.358, 5897.892
885.627, 6348.495
886.896, 6767.074
888.164, 7310.229
889.433, 7351.019
890.701, 7651.691
891.969, 7498.246
893.236, 7446.168
894.504, 7440.411
895.771, 7057.770
897.038, 7226.502
898.305, 7380.349
899.572, 7558.872
900.838, 8140.395
902.105, 8725.771
903.371, 9458.554
904.637, 10423.139
905.902, 11500.536
907.168, 13140.478
908.433, 14274.040
909.698, 15958.262
910.963, 17931.758
912.228, 19296.275
913.492, 21839.445
914.757, 22783.002
916.021, 23705.885
917.285, 25600.598
918.548, 24055.070
919.812, 24157.920
921.075, 21824.225
922.338, 19558.773
923.601, 17725.145
924.864, 14969.502
926.126, 13275.109
927.388, 11701.588
928.650, 9708.930
929.912, 8835.883
931.174, 7431.416
932.435, 6495.347
933.697, 5844.076
934.958, 4820.496
936.218, 4479.031
937.479, 3961.774
938.739, 3552.331
940.000, 3158.138
941.260, 2802.795
942.520, 2676.652
943.779, 2450.478
945.039, 2234.329
946.298, 2157.054
947.557, 1890.205
948.816, 1782.286
950.074, 1788.459
951.333, 1545.779
952.591, 1588.115
953.849, 1464.446
955.107, 1460.968
956.365, 1488.431
957.622, 1323.992
958.879, 1442.571
960.136, 1336.170
961.393, 1240.779
962.650, 1266.400
963.906, 1155.034
965.162, 1169.679
966.418, 1146.338
967.674, 1078.014
968.930, 1161.701
970.185, 1145.404
971.441, 1172.119
972.696, 1286.853
973.950, 1326.634
975.205, 1420.362
976.459, 1516.136
977.714, 1646.923
978.968, 1772.723
980.222, 1826.542
981.475, 1875.377
982.729, 1862.229
983.982, 1636.096
985.235, 1569.976
986.488, 1265.869
987.740, 1097.782
988.993, 970.709
990.245, 806.650
991.497, 775.606
992.749, 667.577
994.000, 608.562
995.252, 598.669
996.503, 489.946
997.754, 456.979
999.005, 461.030
1000.256, 379.096
1001.506, 408.837
1002.756, 352.935
1004.006, 327.054
1005.256, 392.322
1006.506, 348.504
1007.755, 401.468
1009.005, 327.502
1010.254, 394.064
1011.502, 487.329
1012.751, 403.563
1014.000, 507.238
1015.248, 611.057
1016.496, 639.512
1017.744, 825.483
1018.991, 845.023
1020.239, 959.365
1021.486, 1058.913
1022.733, 993.687
1023.980, 1044.868
1025.227, 892.581
1026.473, 938.049
1027.719, 892.395
1028.965, 802.099
1030.211, 816.635
1031.457, 791.213
1032.702, 840.222
1033.948, 911.857
1035.193, 900.479
1036.438, 968.167
1037.682, 1065.896
1038.927, 1077.656
1040.171, 1247.449
1041.415, 1202.277
1042.659, 1189.134
1043.903, 1292.032
1045.146, 1198.031
1046.390, 1272.998
1047.633, 1141.994
1048.876, 1003.029
1050.118, 1046.708
1051.361, 914.809
1052.603, 851.944
1053.845, 848.125
1055.087, 781.817
1056.329, 805.082
1057.571, 776.383
1058.812, 753.726
1060.053, 755.108
1061.294, 690.533
1062.535, 649.998
1063.775, 626.510
1065.016, 525.065
1066.256, 549.663
1067.496, 533.299
1068.736, 511.973
1069.975, 540.691
1071.214, 561.229
1072.454, 576.014
1073.693, 692.829
1074.931, 711.681
1076.170, 915.566
1077.408, 1023.482
1078.647, 1269.422
1079.885, 1603.403
1081.122, 1897.395
1082.360, 2423.543
1083.597, 2967.585
1084.835, 3464.688
1086.072, 4238.951
1087.308, 4217.011
1088.545, 4510.136
1089.781, 4405.350
1091.018, 3699.152
1092.254, 3220.466
1093.490, 2584.744
1094.725, 1966.407
1095.961, 1650.635
1097.196, 1161.878
1098.431, 1021.589
1099.666, 859.635
1100.900, 632.212
1102.135, 615.937
1103.369, 505.749
1104.603, 451.037
1105.837, 367.040
1107.071, 386.012
1108.304, 340.510
1109.538, 348.894
1110.771, 253.295
1112.004, 263.424
1113.236, 206.872
1114.469, 163.699
1115.701, 217.390
1116.933, 194.842
1118.165, 193.153
1119.397, 181.745
1120.629, 194.945
1121.860, 271.897
1123.091, 286.406
1124.322, 196.939
1125.553, 174.809
1126.783, 110.386
1128.014, 114.437
1129.244, 93.381
1130.474, 98.224
1131.704, 111.869
1132.933, 89.473
1134.163, 55.138
1135.392, 50.208
1136.621, 5.824
1137.850, 23.485
1139.079, 30.552
1140.307, 22.300
1141.535, 47.998
1142.763, 8.471
1143.991, 16.656
1145.219, 33.260
1146.446, 5.235
1147.674, 12.432
1148.901, 30.603
1150.128, 17.175
1151.354, 7.304
1152.581, 42.990
1153.807, 2.289
1155.033, 33.006
1156.259, 34.301
1157.485, 18.472
1158.710, 38.677
1159.936, 3.173
1161.161, 19.846
1162.386, 49.811
1163.611, 9.722
1164.835, 26.531
1166.060, 11.327
1167.284, 21.825
1168.508, 38.866
1169.732, 16.924
1170.955, 27.814
1172.179, 61.803
1173.402, 0.039
1174.625, 29.202
1175.848, 58.527
1177.070, 0.165
1178.293, 0.876
1179.515, 15.001
1180.737, 15.979
1181.959, 28.198
1183.181, 3.572
1184.402, 16.966
1185.624, 6.775
1186.845, 41.709
1188.066, 17.546
1189.286, 4.205
1190.507, 5.074
1191.727, 1.267
1192.947, 4.475
1194.167, 14.230
1195.387, 9.224
1196.607, 15.121
1197.826, 13.528
1199.045, 6.174
1200.264, 18.921
1201.483, 10.429
1202.702, 4.318
1203.920, 12.076
1205.138, 6.758
1206.356, 6.573
1207.574, 11.303
1208.792, 24.481
1210.009, 23.490
1211.227, 26.800
1212.444, 21.553
1213.661, 29.235
1214.877, 16.999
1216.094, 25.593
1217.310, 11.799
1218.526, 9.776
1219.742, 68.361
1220.958, 9.935
1222.173, 30.491
1223.389, 52.391
1224.604, 22.721
1225.819, 28.496
1227.034, 13.103
1228.248, 6.605
1229.463, 21.099
1230.677, 11.073
1231.891, 6.633
1233.105, 7.494
1234.318, 23.359
1235.532, 11.805
1236.745, 16.764
1237.958, 23.973
1239.171, 13.414
1240.384, 4.796
1241.596, 25.161
1242.809, 26.512
1244.021, 10.102
1245.233, 1.295
1246.444, 11.631
1247.656, 7.942
1248.867, 8.567
1250.079, 31.334
1251.290, 10.126
1252.500, 8.905
1253.711, 16.561
1254.921, 32.723
1256.132, 32.855
1257.342, 8.052
1258.552, 30.157
1259.761, 16.306
1260.971, 0.382
1262.180, 54.458
1263.389, 8.531
1264.598, 27.867
1265.807, 5.119
1267.015, 18.931
1268.223, 64.908
1269.432, 44.891
1270.640, 24.015
1271.847, 41.947
1273.055, 0.864
1274.262, 24.816
1275.470, 5.715
1276.677, 39.569
1277.883, 52.404
1279.090, 41.225
1280.296, 4.092
1281.503, 65.848
1282.709, 51.590
1283.915, 28.532
1285.120, 41.232
1286.326, 51.924
1287.531, 18.635
1288.736, 41.177
1289.941, 37.611
1291.146, 36.228
1292.350, 29.828
1293.555, 38.412
1294.759, 48.320
1295.963, 8.860
1297.167, 98.378
1298.370, 80.746
1299.574, 29.200
1300.777, 73.872
1301.980, 14.474
1303.183, 49.545
1304.386, 44.912
1305.588, 39.311
1306.790, 37.264
1307.993, 33.744
1309.195, 30.568
1310.396, 29.876
1311.598, 31.954
1312.799, 27.237
1314.000, 40.309
1315.201, 33.155
1316.402, 36.595
1317.603, 11.506
1318.803, 43.667
1320.003, 76.955
1321.203, 10.889
1322.403, 7.006
1323.603, 28.077
1324.802, 11.257
1326.002, 42.792
1327.201, 45.865
1328.400, 2.125
1329.599, 43.859
1330.797, 36.825
1331.995, 42.774
1333.194, 82.733
1334.392, 41.644
1335.589, 88.538
1336.787, 54.344
1337.985, 11.204
1339.182, 36.043
1340.379, 195.864
1341.576, 108.494
1342.772, 134.894
1343.969, 52.620
1345.165, 74.374
1346.361, 51.639
1347.557, 50.360
1348.753, 64.065
1349.949, 45.753
1351.144, 53.425
1352.339, 28.080
1353.534, 12.718
1354.729, 50.335
1355.924, 73.253
1357.118, 59.838
1358.312, 49.408
1359.506, 85.963
1360.700, 74.503
1361.894, 99.239
1363.088, 74.751
1364.281, 76.250
1365.474, 113.735
1366.667, 38.208
1367.860, 81.666
1369.052, 71.095
1370.245, 56.498
1371.437, 77.901
1372.629, 90.161
1373.821, 30.539
1375.013, 57.865
1376.204, 34.041
1377.395, 33.431
1378.586, 75.779
1379.777, 115.067
1380.968, 31.690
1382.159, 94.524
1383.349, 82.876
1384.539, 89.902
1385.729, 99.400
1386.919, 54.953
1388.109, 44.651
1389.298, 51.485
1390.487, 36.768
1391.676, 40.342
1392.865, 72.975
1394.054, 70.875
1395.242, 53.375
1396.431, 33.243
1397.619, 36.667
1398.807, 81.315
1399.995, 41.531
1401.182, 68.167
1402.370, 45.132
1403.557, 59.228
1404.744, 55.666
1405.931, 52.008
1407.118, 20.895
1408.304, 80.436
1409.490, 42.014
1410.676, 87.469
1411.862, 51.163
1413.048, 25.995
1414.234, 74.827
1415.419, 74.239
1416.604, 39.246
1417.789, 46.122
1418.974, 51.509
1420.159, 57.828
1421.343, 70.859
1422.528, 28.703
1423.712, 47.858
1424.896, 47.571
1426.079, 11.857
1427.263, 53.204
1428.446, 37.877
1429.629, 29.709
1430.812, 58.398
1431.995, 22.276
1433.178, 36.966
1434.360, 57.598
1435.543, 44.103
1436.725, 68.376
1437.907, 70.340
1439.088, 61.713
1440.270, 43.903
1441.451, 66.444
1442.632, 63.971
1443.813, 59.474
1444.994, 63.311
1446.175, 35.541
1447.355, 69.982
1448.535, 42.280
1449.715, 79.046
1450.895, 68.351
1452.075, 52.879
1453.255, 65.136
1454.434, 19.290
1455.613, 38.289
1456.792, 85.973
1457.971, 22.240
1459.149, 50.013
1460.328, 55.916
1461.506, 35.927
1462.684, 39.956
1463.862, 61.980
1465.040, 42.316
1466.217, 33.241
1467.395, 10.771
1468.572, 51.787
1469.749, 43.574
1470.925, 73.582
1472.102, 42.393
1473.278, 57.520
1474.455, 0.005
1475.631, 55.985
1476.807, 62.924
1477.982, 25.014
1479.158, 78.079
1480.333, 38.197
1481.508, 7.301
1482.683, 64.376
1483.858, 25.448
1485.033, 24.516
1486.207, 38.637
1487.381, 22.772
1488.555, 28.877
1489.729, 32.023
1490.903, 39.184
1492.076, 62.358
1493.250, 19.556
1494.423, 2.778
1495.596, 60.056
1496.769, 8.633
1497.941, 24.537
1499.114, 49.932
1500.286, 21.362
1501.458, 16.829
1502.630, 48.340
1503.802, 24.906
1504.973, 31.531
1506.145, 64.227
1507.316, 31.005
1508.487, 86.879
1509.657, 52.888
1510.828, 39.546
1511.999, 30.234
1513.169, 25.933
1514.339, 13.549
1515.509, 2.570
1516.678, 14.201
1517.848, 9.457
1519.017, 51.998
1520.187, 0.000
##END=



