##NAMES=Epidote
##RRUFFID=R040089
##IDEAL CHEMISTRY=Ca_2_Fe^3+^Al_2_(Si_2_O_7_)(SiO_4_)O(OH)
##LOCALITY=Grafton County, New Hampshire, USA
##OWNER=RRUFF
##SOURCE=University of Arizona Mineral Museum
##DESCRIPTION=Dark green coarsely crystalline massive
##STATUS=The identification of this mineral has been confirmed by X-ray diffraction and chemical analysis
##URL=rruff.info/R040089
##MEASURED CHEMISTRY=Ca_2.00_(Al_2.36_Fe^3+^_0.64_)[Si_2.00_O_7_][Si_1.00_O_4_]O(OH)
##PIN_ID=M00263
##ORIENTATION=Laser parallel to -b* (0 -1 0). Fiducial mark perpendicular to laser is parallel to c [0 0 1]
127.288, 0.000
128.671, 14.998
130.053, 48.314
131.436, 157.438
132.818, 461.862
134.200, 1001.119
135.582, 1588.859
136.963, 2379.056
138.345, 3038.371
139.726, 3398.630
141.107, 3378.580
142.488, 3113.519
143.868, 3140.642
145.248, 2508.574
146.629, 2667.889
148.008, 2918.425
149.388, 3274.018
150.768, 3857.578
152.147, 4233.641
153.526, 4395.652
154.905, 3590.536
156.284, 3229.302
157.662, 2912.823
159.040, 2901.812
160.418, 3376.920
161.796, 3868.828
163.174, 5432.525
164.551, 6791.243
165.929, 9141.838
167.306, 11090.092
168.683, 12836.605
170.059, 14420.092
171.436, 14501.741
172.812, 13780.573
174.188, 12220.138
175.564, 10906.855
176.939, 9050.750
178.315, 7605.203
179.690, 6457.003
181.065, 5196.997
182.440, 4577.328
183.814, 3527.965
185.188, 3118.879
186.563, 2580.052
187.937, 2151.458
189.310, 2053.077
190.684, 1524.885
192.057, 1337.164
193.430, 1131.368
194.803, 886.858
196.176, 712.591
197.549, 571.345
198.921, 524.379
200.293, 340.662
201.665, 366.795
203.037, 262.754
204.408, 288.551
205.779, 354.200
207.150, 189.708
208.521, 355.087
209.892, 160.411
211.262, 135.865
212.633, 1.509
214.003, 92.645
215.373, 56.593
216.742, 280.343
218.112, 384.911
219.481, 431.307
220.850, 210.548
222.219, 301.652
223.588, 291.642
224.956, 159.533
226.324, 132.343
227.692, 164.919
229.060, 202.238
230.428, 429.603
231.795, 856.997
233.162, 1054.384
234.529, 1651.719
235.896, 2018.990
237.263, 2976.201
238.629, 3633.357
239.995, 4630.457
241.361, 6067.510
242.727, 7284.512
244.093, 9321.470
245.458, 11058.376
246.823, 13445.210
248.188, 15731.958
249.553, 17788.627
250.917, 19445.207
252.282, 19521.648
253.646, 18988.105
255.010, 16877.447
256.374, 14421.171
257.737, 12223.506
259.101, 9762.214
260.464, 8273.147
261.827, 6658.980
263.189, 5739.740
264.552, 4865.262
265.914, 4250.282
267.276, 4048.875
268.638, 3500.293
270.000, 3556.832
271.362, 3339.624
272.723, 3384.370
274.084, 3396.287
275.445, 3458.238
276.806, 3630.222
278.166, 3402.232
279.526, 3634.274
280.887, 3236.347
282.246, 3468.445
283.606, 3140.574
284.966, 3012.732
286.325, 3254.922
287.684, 3147.143
289.043, 3489.396
290.402, 3691.685
291.760, 3982.644
293.118, 4582.116
294.477, 5173.678
295.834, 6145.755
297.192, 6758.168
298.550, 7660.799
299.907, 8173.553
301.264, 8246.371
302.621, 7819.206
303.978, 6722.004
305.334, 5834.717
306.690, 4577.326
308.046, 3909.815
309.402, 3382.180
310.758, 2634.410
312.113, 2306.502
313.469, 1798.430
314.824, 1580.111
316.179, 1271.496
317.533, 1292.596
318.888, 1363.447
320.242, 1274.070
321.596, 1484.491
322.950, 1544.729
324.304, 1804.799
325.657, 1944.715
327.010, 2134.471
328.363, 2414.039
329.716, 2643.415
331.069, 2997.959
332.421, 3311.629
333.774, 3790.345
335.126, 4318.547
336.478, 4815.788
337.829, 5722.149
339.181, 6237.724
340.532, 7322.821
341.883, 7937.880
343.234, 8842.956
344.585, 10208.058
345.935, 11879.431
347.285, 13868.326
348.635, 16463.490
349.985, 19488.674
351.335, 22963.883
352.684, 24989.096
354.034, 27224.334
355.383, 26089.582
356.731, 24284.840
358.080, 21360.090
359.429, 17785.338
360.777, 14810.171
362.125, 11524.815
363.473, 9378.524
364.820, 7482.477
366.168, 6045.587
367.515, 4808.945
368.862, 3882.884
370.209, 3285.216
371.556, 2559.228
372.902, 2031.197
374.249, 1522.783
375.595, 1209.360
376.940, 950.133
378.286, 466.269
379.632, 393.454
380.977, 36.164
382.322, 14.034
383.667, 146.175
385.012, 318.079
386.356, 232.378
387.700, 417.387
389.044, 264.737
390.388, 160.603
391.732, 186.033
393.075, 29.138
394.419, 125.584
395.762, 87.924
397.105, 91.578
398.447, 18.117
399.790, 148.326
401.132, 3.237
402.474, 108.184
403.816, 61.602
405.158, 70.973
406.499, 85.572
407.841, 37.197
409.182, 22.163
410.523, 186.483
411.864, 119.168
413.204, 31.886
414.544, 34.593
415.884, 270.688
417.224, 324.971
418.564, 703.194
419.904, 987.232
421.243, 1521.067
422.582, 2074.814
423.921, 2618.531
425.260, 3742.262
426.598, 4556.014
427.937, 5569.811
429.275, 6603.607
430.613, 6947.396
431.951, 7841.200
433.288, 7834.982
434.625, 8538.804
435.963, 8842.665
437.300, 9316.548
438.636, 10460.502
439.973, 10824.475
441.309, 12118.511
442.646, 13032.594
443.981, 14416.702
445.317, 15930.872
446.653, 17715.104
447.988, 20819.373
449.323, 23503.703
450.658, 28408.053
451.993, 32402.467
453.328, 34576.859
454.662, 36201.262
455.996, 34305.680
457.331, 32970.086
458.664, 30704.506
459.998, 27408.908
461.331, 26513.303
462.665, 24387.709
463.998, 22942.098
465.330, 21126.510
466.663, 19900.877
467.996, 18185.248
469.328, 16399.623
470.660, 15363.979
471.992, 13588.356
473.323, 12292.729
474.655, 11157.081
475.986, 9691.446
477.317, 9005.789
478.648, 8080.148
479.979, 7674.507
481.309, 7098.910
482.640, 6913.242
483.970, 6887.850
485.300, 6422.141
486.629, 6806.414
487.959, 6460.938
489.288, 6455.332
490.617, 6720.346
491.946, 6315.203
493.275, 6729.888
494.603, 6504.667
495.932, 6448.923
497.260, 6543.066
498.588, 6507.201
499.916, 6951.332
501.243, 7105.459
502.571, 7569.585
503.898, 8063.705
505.225, 8487.823
506.552, 9411.937
507.878, 9666.042
509.205, 10570.145
510.531, 11064.239
511.857, 11448.329
513.183, 11982.410
514.508, 11686.480
515.834, 11500.545
517.159, 10104.603
518.484, 9248.647
519.809, 8162.686
521.133, 6756.716
522.458, 6060.740
523.782, 5644.762
525.106, 5588.778
526.430, 5632.797
527.754, 5566.812
529.077, 5510.822
530.400, 4884.836
531.723, 4188.844
533.046, 3362.857
534.369, 2686.875
535.692, 2240.920
537.014, 1717.138
538.336, 1448.896
539.658, 1102.672
540.980, 879.548
542.301, 850.342
543.623, 535.701
544.944, 627.082
546.265, 427.633
547.585, 465.086
548.906, 491.580
550.226, 402.677
551.547, 655.243
552.867, 658.398
554.186, 905.875
555.506, 1113.780
556.825, 1292.553
558.145, 1785.283
559.464, 2139.883
560.783, 2783.390
562.101, 3708.358
563.420, 4686.012
564.738, 6397.062
566.056, 8397.972
567.374, 11721.072
568.692, 14935.903
570.009, 17612.824
571.326, 18911.594
572.643, 16969.758
573.960, 13743.438
575.277, 10192.494
576.594, 7273.436
577.910, 5532.400
579.226, 3893.783
580.542, 3354.371
581.858, 2843.574
583.173, 2557.551
584.489, 2617.016
585.804, 2501.827
587.119, 2800.129
588.434, 2769.708
589.748, 3119.922
591.063, 3537.365
592.377, 3870.747
593.691, 4460.974
595.005, 4716.749
596.318, 5483.351
597.632, 6229.162
598.945, 7183.812
600.258, 8426.398
601.571, 9242.588
602.884, 10348.082
604.196, 11921.899
605.508, 11093.486
606.821, 11127.231
608.132, 9923.617
609.444, 8988.006
610.756, 8213.881
612.067, 6953.341
613.378, 6217.123
614.689, 5172.906
616.000, 4766.682
617.311, 4164.441
618.621, 3725.537
619.931, 3378.719
621.241, 2745.120
622.551, 2500.419
623.861, 2085.523
625.170, 1555.428
626.479, 1597.631
627.788, 1049.822
629.097, 1135.889
630.406, 836.604
631.714, 708.960
633.023, 840.192
634.331, 508.182
635.639, 583.930
636.946, 481.426
638.254, 293.033
639.561, 413.260
640.868, 243.564
642.175, 369.405
643.482, 327.210
644.789, 252.565
646.095, 281.444
647.401, 129.490
648.707, 164.566
650.013, 202.430
651.319, 177.085
652.624, 299.561
653.929, 329.295
655.234, 433.120
656.539, 349.936
657.844, 500.014
659.148, 718.045
660.453, 492.344
661.757, 771.544
663.061, 596.052
664.364, 679.862
665.668, 600.285
666.971, 482.011
668.274, 712.696
669.577, 552.975
670.880, 666.955
672.183, 546.512
673.485, 411.024
674.787, 594.495
676.089, 464.922
677.391, 579.304
678.693, 793.644
679.994, 618.938
681.296, 834.189
682.597, 797.396
683.898, 1052.557
685.198, 1203.674
686.499, 1202.745
687.799, 1570.771
689.099, 1534.752
690.399, 1784.687
691.699, 1886.576
692.998, 1718.419
694.298, 1820.215
695.597, 1532.965
696.896, 1492.668
698.195, 1528.338
699.493, 1237.974
700.792, 1459.616
702.090, 1197.305
703.388, 1148.016
704.686, 1171.793
705.984, 963.597
707.281, 1020.397
708.578, 770.202
709.876, 624.969
711.172, 599.723
712.469, 359.429
713.766, 500.110
715.062, 268.752
716.358, 317.338
717.654, 142.879
718.950, 25.641
720.246, 209.754
721.541, 40.111
722.836, 140.430
724.131, 94.699
725.426, 18.090
726.721, 102.084
728.015, 50.774
729.310, 62.273
730.604, 27.731
731.898, 55.835
733.191, 23.825
734.485, 61.910
735.778, 48.789
737.071, 26.327
738.364, 101.965
739.657, 29.741
740.950, 114.619
742.242, 10.644
743.535, 30.760
744.827, 199.979
746.118, 3.609
747.410, 90.888
748.702, 40.520
749.993, 105.739
751.284, 142.067
752.575, 88.963
753.866, 111.075
755.156, 78.259
756.447, 31.428
757.737, 124.959
759.027, 98.500
760.316, 63.181
761.606, 97.983
762.896, 22.072
764.185, 108.947
765.474, 38.887
766.763, 31.351
768.051, 100.693
769.340, 38.824
770.628, 101.731
771.916, 6.428
773.204, 60.216
774.492, 94.123
775.780, 13.833
777.067, 129.291
778.354, 123.429
779.641, 44.916
780.928, 82.370
782.215, 13.045
783.501, 161.619
784.787, 45.452
786.073, 31.604
787.359, 119.409
788.645, 76.430
789.930, 113.796
791.216, 47.165
792.501, 136.358
793.786, 29.249
795.071, 187.112
796.355, 47.119
797.640, 45.355
798.924, 141.527
800.208, 23.366
801.492, 192.252
802.775, 53.439
804.059, 90.704
805.342, 248.062
806.625, 39.253
807.908, 204.890
809.191, 171.571
810.474, 162.195
811.756, 326.760
813.038, 87.273
814.320, 250.728
815.602, 262.126
816.884, 176.473
818.165, 436.761
819.446, 173.000
820.727, 368.184
822.008, 358.316
823.289, 318.400
824.569, 374.434
825.850, 334.419
827.130, 534.354
828.410, 506.240
829.690, 543.079
830.969, 739.867
832.249, 766.609
833.528, 867.303
834.807, 839.948
836.086, 792.545
837.364, 1120.097
838.643, 894.601
839.921, 1019.058
841.199, 1123.469
842.477, 990.833
843.755, 1290.158
845.033, 1335.438
846.310, 1431.671
847.587, 1564.858
848.864, 1428.002
850.141, 1941.122
851.418, 1914.195
852.694, 1887.225
853.971, 2310.225
855.247, 2253.185
856.523, 2696.098
857.798, 2738.967
859.074, 2911.792
860.349, 3324.584
861.624, 3417.330
862.899, 3830.032
864.174, 4242.709
865.449, 4525.344
866.723, 5077.887
867.998, 5430.434
869.272, 5942.502
870.545, 6594.725
871.819, 7216.171
873.093, 8244.695
874.366, 8876.346
875.639, 9847.238
876.912, 10728.518
878.185, 11669.558
879.458, 12628.159
880.730, 13949.146
882.002, 13745.527
883.274, 13876.263
884.546, 13463.925
885.818, 12419.744
887.090, 11407.493
888.361, 10362.775
889.632, 9838.806
890.903, 8646.171
892.174, 7968.725
893.444, 7745.738
894.715, 6997.361
895.985, 6825.449
897.255, 5932.221
898.525, 5688.312
899.795, 5357.129
901.064, 4980.026
902.334, 4816.035
903.603, 4636.449
904.872, 4566.014
906.140, 4726.321
907.409, 4507.747
908.677, 4841.191
909.946, 5130.988
911.214, 5221.439
912.482, 5973.521
913.749, 5927.789
915.017, 6399.851
916.284, 6339.234
917.551, 6400.570
918.818, 6360.371
920.085, 5786.543
921.352, 5558.352
922.618, 5118.114
923.884, 4499.836
925.150, 4197.534
926.416, 3521.852
927.682, 3094.039
928.947, 2942.965
930.213, 2402.948
931.478, 2243.122
932.743, 1868.453
934.008, 1701.441
935.272, 1530.440
936.537, 1308.522
937.801, 1293.913
939.065, 1323.621
940.329, 834.410
941.593, 924.432
942.856, 955.651
944.119, 721.081
945.383, 931.359
946.646, 617.976
947.908, 638.476
949.171, 628.395
950.433, 518.312
951.696, 878.639
952.958, 458.401
954.220, 708.953
955.481, 558.965
956.743, 439.143
958.004, 719.989
959.265, 429.975
960.526, 570.660
961.787, 661.218
963.048, 461.745
964.308, 812.970
965.569, 633.208
966.829, 614.141
968.089, 915.134
969.348, 625.794
970.608, 887.112
971.867, 947.781
973.126, 909.107
974.385, 1210.435
975.644, 1341.772
976.903, 1623.132
978.161, 1864.494
979.420, 2145.863
980.678, 2767.235
981.936, 2988.616
983.193, 3690.002
984.451, 4001.422
985.708, 4052.842
986.966, 4434.269
988.223, 3895.700
989.479, 3657.162
990.736, 3368.630
991.993, 2440.103
993.249, 2161.586
994.505, 1714.354
995.761, 1325.850
997.017, 1267.354
998.272, 968.867
999.528, 860.389
1000.783, 826.163
1002.038, 557.701
1003.293, 509.250
1004.548, 444.472
1005.802, 286.074
1007.057, 457.686
1008.311, 319.307
1009.565, 270.973
1010.818, 214.858
1012.072, 96.549
1013.326, 498.292
1014.579, 114.164
1015.832, 255.969
1017.085, 507.801
1018.338, 99.645
1019.590, 471.552
1020.842, 573.664
1022.095, 325.598
1023.347, 777.575
1024.599, 512.993
1025.850, 785.015
1027.102, 939.581
1028.353, 661.636
1029.604, 993.711
1030.855, 886.545
1032.106, 938.665
1033.356, 1170.848
1034.607, 843.587
1035.857, 1305.819
1037.107, 1098.213
1038.357, 1290.523
1039.607, 1592.884
1040.856, 1345.456
1042.106, 1667.890
1043.355, 2100.388
1044.604, 1662.981
1045.852, 2245.573
1047.101, 1929.788
1048.350, 1952.456
1049.598, 2275.208
1050.846, 1742.977
1052.094, 2085.808
1053.342, 1818.688
1054.589, 1495.814
1055.837, 1848.779
1057.084, 1431.904
1058.331, 1374.949
1059.578, 1448.045
1060.824, 1111.771
1062.071, 1404.949
1063.317, 1148.182
1064.563, 1171.892
1065.809, 1515.226
1067.055, 918.914
1068.301, 1402.331
1069.546, 1275.767
1070.791, 1009.677
1072.036, 1413.206
1073.281, 1166.756
1074.526, 1110.526
1075.771, 1574.162
1077.015, 1258.246
1078.259, 1571.979
1079.503, 1825.738
1080.747, 1768.469
1081.991, 2382.314
1083.234, 2246.199
1084.478, 2779.764
1085.721, 3213.722
1086.964, 3407.752
1088.206, 4061.830
1089.449, 4265.918
1090.691, 4546.822
1091.934, 5290.999
1093.176, 5025.230
1094.418, 5249.770
1095.659, 4774.055
1096.901, 3828.590
1098.142, 3692.924
1099.384, 2557.271
1100.625, 2142.258
1101.865, 1886.637
1103.106, 1331.033
1104.347, 1382.338
1105.587, 1186.765
1106.827, 841.592
1108.067, 916.219
1109.307, 880.688
1110.546, 765.666
1111.786, 890.193
1113.025, 484.699
1114.264, 790.426
1115.503, 634.954
1116.742, 359.885
1117.980, 487.865
1119.219, 272.428
1120.457, 387.166
1121.695, 391.747
1122.933, 216.336
1124.171, 506.232
1125.408, 200.837
1126.645, 195.448
1127.883, 490.548
1129.120, 55.173
1130.356, 360.236
1131.593, 244.874
1132.829, 0.483
1134.066, 359.814
1135.302, 174.469
1136.538, 79.127
1137.773, 259.111
1139.009, 63.778
1140.244, 238.450
1141.480, 103.126
1142.715, 62.196
1143.950, 292.956
1145.184, 87.643
1146.419, 182.331
1147.653, 307.454
1148.887, 127.850
1150.121, 206.810
1151.355, 311.812
1152.589, 113.525
1153.822, 239.777
1155.056, 84.621
1156.289, 39.257
1157.522, 292.336
1158.755, 73.023
1159.987, 242.797
1161.220, 147.562
1162.452, 107.818
1163.684, 426.260
1164.916, 35.265
1166.148, 89.843
1167.379, 186.907
1168.611, 1.483
1169.842, 246.459
1171.073, 107.718
1172.304, 77.716
1173.534, 256.884
1174.765, 58.395
1175.995, 116.146
1177.225, 381.472
1178.455, 13.996
1179.685, 350.523
1180.915, 110.038
1182.144, 5.454
1183.374, 469.042
1184.603, 54.419
1185.832, 148.902
1187.060, 364.900
1188.289, 49.369
1189.518, 333.830
1190.746, 130.348
1191.974, 84.792
1193.202, 359.228
1194.430, 24.268
1195.657, 220.133
1196.884, 394.854
1198.112, 240.727
1199.339, 353.519
1200.566, 190.000
1201.792, 65.775
1203.019, 408.398
1204.245, 93.843
1205.471, 137.991
1206.697, 342.129
1207.923, 6.252
1209.149, 370.355
1210.374, 304.759
1211.600, 38.834
1212.825, 362.889
1214.050, 67.002
1215.275, 261.023
1216.499, 405.030
1217.724, 49.021
1218.948, 572.990
1220.172, 356.953
1221.396, 120.898
1222.620, 754.826
1223.843, 68.733
1225.067, 232.620
1226.290, 616.489
1227.513, 117.808
1228.736, 545.944
1229.959, 349.676
1231.181, 126.357
1232.404, 617.250
1233.626, 201.027
1234.848, 184.602
1236.070, 708.155
1237.291, 75.194
1238.513, 578.254
1239.734, 361.679
1240.955, 135.419
1242.177, 558.804
1243.397, 152.175
1244.618, 225.834
1245.838, 599.176
1247.059, 62.474
1248.279, 535.753
1249.499, 449.016
1250.719, 67.502
1251.938, 555.696
1253.158, 128.860
1254.377, 182.377
1255.596, 585.508
1256.815, 108.597
1258.034, 221.666
1259.253, 494.717
1260.471, 37.751
1261.689, 560.732
1262.907, 143.669
1264.125, 2.972
1265.343, 529.911
1266.561, 202.775
1267.778, 415.616
1268.995, 508.439
1270.212, 28.759
1271.429, 623.953
1272.646, 296.598
1273.862, 139.241
1275.079, 641.778
1276.295, 154.215
1277.511, 386.665
1278.727, 628.980
1279.943, 28.799
1281.158, 383.993
1282.373, 526.166
1283.589, 21.687
1284.804, 530.379
1286.019, 362.416
1287.233, 364.416
1288.448, 636.389
1289.662, 157.043
1290.876, 502.026
1292.090, 353.887
1293.304, 175.720
1294.518, 427.941
1295.731, 285.448
1296.944, 197.173
1298.158, 758.868
1299.371, 73.133
1300.583, 228.851
1301.796, 670.422
1303.008, 68.037
1304.221, 594.121
1305.433, 73.358
1306.645, 95.229
1307.856, 346.354
1309.068, 86.470
1310.280, 5.247
1311.491, 285.928
1312.702, 132.954
1313.913, 458.680
1315.124, 189.490
1316.334, 39.541
1317.545, 521.737
1318.755, 269.204
1319.965, 240.050
1321.175, 598.144
1322.385, 118.923
1323.594, 429.665
1324.804, 529.648
1326.013, 9.679
1327.222, 720.940
1328.431, 320.988
1329.639, 111.542
1330.848, 832.075
1332.056, 72.563
1333.265, 343.018
1334.473, 573.266
1335.680, 53.658
1336.888, 784.016
1338.096, 364.287
1339.303, 54.550
1340.510, 973.188
1341.717, 223.383
1342.924, 293.549
1344.131, 899.656
1345.337, 39.755
1346.544, 519.817
1347.750, 606.039
1348.956, 76.047
1350.162, 585.877
1351.367, 425.821
1352.573, 325.734
1353.778, 824.826
1354.983, 214.498
1356.188, 504.137
1357.393, 823.317
1358.598, 272.893
1359.802, 892.107
1361.007, 701.622
1362.211, 311.105
1363.415, 980.122
1364.619, 391.822
1365.822, 581.185
1367.026, 880.334
1368.229, 399.616
1369.432, 728.457
1370.635, 957.680
1371.838, 56.881
1373.041, 1047.152
1374.243, 716.306
1375.446, 225.301
1376.648, 914.641
1377.850, 235.535
1379.052, 384.445
1380.253, 693.309
1381.455, 12.341
1382.656, 664.047
1383.857, 792.204
1385.058, 190.137
1386.259, 871.300
1387.459, 542.470
1388.660, 203.182
1389.860, 1004.485
1391.060, 318.552
1392.260, 569.120
1393.460, 889.698
1394.660, 220.723
1395.859, 560.430
1397.059, 747.220
1398.258, 187.910
1399.457, 838.741
1400.655, 523.583
1401.854, 403.727
1403.052, 943.873
1404.251, 304.467
1405.449, 628.433
1406.647, 912.615
1407.845, 162.961
1409.042, 833.266
1410.240, 742.941
1411.437, 292.613
1412.634, 952.789
1413.831, 392.521
1415.028, 431.447
1416.224, 970.654
1417.421, 248.949
1418.617, 705.500
1419.813, 826.779
1421.009, 189.523
1422.205, 898.157
1423.401, 638.146
1424.596, 76.797
1425.791, 794.569
1426.986, 483.389
1428.181, 235.005
1429.376, 922.362
1430.571, 218.705
1431.765, 577.198
1432.960, 762.531
1434.154, 22.290
1435.348, 635.473
1436.541, 533.717
1437.735, 88.501
1438.929, 854.743
1440.122, 412.961
1441.315, 281.132
1442.508, 1048.732
1443.701, 96.684
1444.893, 604.709
1446.086, 792.688
1447.278, 50.583
1448.470, 698.428
1449.662, 696.227
1450.854, 120.608
1452.046, 917.918
1453.237, 455.446
1454.428, 213.253
1455.619, 1004.912
1456.810, 51.976
1458.001, 599.614
1459.192, 726.490
1460.382, 83.985
1461.573, 920.855
1462.763, 708.139
1463.953, 135.503
1465.143, 1081.639
1466.332, 378.649
1467.522, 205.712
1468.711, 1011.631
1469.900, 308.462
1471.089, 505.148
1472.278, 1032.051
1473.467, 129.054
1474.655, 966.476
1475.843, 784.421
1477.032, 160.779
1478.220, 988.807
1479.407, 676.945
1480.595, 295.123
1481.783, 1083.813
1482.970, 330.516
1484.157, 488.643
1485.344, 1126.759
1486.531, 13.542
1487.718, 849.175
1488.904, 927.163
1490.090, 64.284
1491.277, 972.374
1492.463, 698.268
1493.648, 176.561
1494.834, 1183.312
1496.020, 317.442
1497.205, 544.180
1498.390, 1020.894
1499.575, 257.597
1500.760, 673.564
1501.945, 840.088
1503.129, 186.514
1504.314, 812.727
1505.498, 759.273
1506.682, 24.367
1507.866, 1034.924
1509.049, 417.348
1510.233, 222.460
1511.416, 1157.172
1512.600, 144.950
1513.783, 652.815
1514.966, 1110.864
1516.148, 209.122
1517.331, 655.654
1518.513, 911.496
1519.695, 12.479
1520.878, 1102.784
1522.059, 536.229
1523.241, 75.974
1524.423, 934.094
1525.604, 265.603
1526.785, 0.000
##END=



