##NAMES=Erythrite
##RRUFFID=R050073
##IDEAL CHEMISTRY=Co^2+^_3_(As^5+^O_4_)_2_&#183;8H_2_O
##LOCALITY=Bou Azzer, Morocco
##OWNER=RRUFF
##SOURCE=Rock Currier
##DESCRIPTION=Crimson flattened crystals
##STATUS=The identification of this mineral has been confirmed by X-ray diffraction and chemical analysis
##URL=rruff.info/R050073
##MEASURED CHEMISTRY=(Co_0.65_Mg_0.35_)_3_(As_1.00_O_4_)_2_Â·8H_2_O
##PIN_ID=M00098
##ORIENTATION=Laser parallel to (1 0 1). Fiducial mark perpendicular to laser is parallel to b [0 1 0]
93.48000, 0.0000000E+00
94.71400, 23.02661
95.94800, 2.079102
97.18200, 41.88818
98.41600, 74.94604
99.64900, 101.7925
100.8830, 179.6035
102.1160, 263.8782
103.3490, 580.7341
104.5820, 981.8364
105.8150, 1552.881
107.0470, 1990.292
108.2800, 2286.334
109.5120, 2202.440
110.7440, 1837.259
111.9760, 1821.131
113.2080, 2083.544
114.4400, 2309.457
115.6710, 2782.829
116.9030, 2788.620
118.1340, 2588.791
119.3650, 2022.307
120.5960, 1274.139
121.8270, 701.2605
123.0580, 370.6458
124.2880, 224.2742
125.5190, 26.87378
126.7490, 94.81396
127.9790, 31.52954
129.2090, 19.01343
130.4390, 13.81567
131.6680, 133.8508
132.8980, 55.09229
134.1270, 202.5181
135.3560, 380.1089
136.5850, 659.8484
137.8140, 1017.722
139.0430, 1551.714
140.2710, 2307.812
141.5000, 3063.006
142.7280, 3585.289
143.9560, 3536.653
145.1840, 3469.094
146.4120, 3589.605
147.6390, 3844.182
148.8670, 4242.820
150.0940, 4763.517
151.3210, 5163.267
152.5490, 5053.069
153.7750, 4340.922
155.0020, 3484.821
156.2290, 2291.765
157.4550, 1607.750
158.6810, 996.7751
159.9080, 623.8904
161.1340, 561.4275
162.3590, 377.3752
163.5850, 329.7314
164.8110, 319.3418
166.0360, 355.0444
167.2610, 328.7295
168.4860, 335.3726
169.7110, 415.9751
170.9360, 488.5435
172.1610, 431.0808
173.3850, 491.5894
174.6100, 455.0713
175.8340, 412.5266
177.0580, 309.9531
178.2820, 376.3535
179.5050, 282.7310
180.7290, 327.0881
181.9520, 401.4272
183.1760, 379.7417
184.3990, 482.9534
185.6220, 582.1455
186.8450, 698.3289
188.0670, 818.5034
189.2900, 1023.670
190.5120, 1133.830
191.7340, 1419.982
192.9560, 1618.129
194.1780, 1796.270
195.4000, 2101.406
196.6220, 2433.629
197.8430, 2807.665
199.0640, 3270.790
200.2860, 3756.912
201.5070, 4297.032
202.7270, 4587.349
203.9480, 5087.272
205.1690, 5141.395
206.3890, 5355.518
207.6090, 5556.643
208.8290, 5786.772
210.0490, 5943.901
211.2690, 6139.036
212.4890, 6227.174
213.7080, 5858.315
214.9280, 5266.457
216.1470, 4802.605
217.3660, 4006.754
218.5850, 3343.906
219.8030, 2872.058
221.0220, 2467.211
222.2400, 1906.365
223.4590, 1647.518
224.6770, 1475.226
225.8950, 1333.219
227.1120, 1209.791
228.3300, 1129.473
229.5480, 1066.441
230.7650, 994.5356
231.9820, 981.8386
233.1990, 869.8733
234.4160, 800.8179
235.6330, 841.5518
236.8490, 820.1289
238.0660, 748.8276
239.2820, 636.8845
240.4980, 626.9910
241.7140, 565.5466
242.9300, 530.9819
244.1460, 461.6770
245.3610, 435.3618
246.5770, 405.0874
247.7920, 430.8645
249.0070, 444.6353
250.2220, 478.4082
251.4370, 457.1904
252.6510, 499.9868
253.8660, 517.8398
255.0800, 619.6282
256.2940, 593.4312
257.5080, 689.0261
258.7220, 773.6560
259.9360, 726.8579
261.1490, 806.0112
262.3630, 662.7314
263.5760, 674.4771
264.7890, 629.2461
266.0020, 535.0371
267.2150, 577.8481
268.4270, 582.6777
269.6400, 416.5249
270.8520, 467.3882
272.0640, 463.2205
273.2760, 306.9729
274.4880, 266.7441
275.7000, 268.6606
276.9120, 177.5869
278.1230, 200.5222
279.3340, 188.4656
280.5450, 77.41602
281.7560, 165.3723
282.9670, 114.3342
284.1780, 148.3008
285.3880, 102.2710
286.5980, 134.2446
287.8090, 151.2212
289.0190, 131.1997
290.2290, 196.1802
291.4380, 248.1631
292.6480, 299.1538
293.8570, 346.1499
295.0670, 432.1479
296.2760, 480.1626
297.4850, 625.1770
298.6930, 585.2031
299.9020, 603.2305
301.1110, 707.2639
302.3190, 562.3008
303.5270, 634.3442
304.7350, 690.3994
305.9430, 725.4692
307.1510, 636.5625
308.3580, 561.6777
309.5660, 462.8154
310.7730, 433.9744
311.9800, 333.1492
313.1870, 306.3420
314.3940, 283.5527
315.6010, 204.7803
316.8070, 194.0142
318.0130, 239.2520
319.2200, 272.4890
320.4260, 279.7346
321.6310, 249.9858
322.8370, 298.2385
324.0430, 271.5029
325.2480, 376.7737
326.4540, 476.0601
327.6590, 493.3518
328.8640, 592.6614
330.0680, 689.9766
331.2730, 708.2886
332.4780, 824.5928
333.6820, 870.8909
334.8860, 900.1848
336.0900, 889.4683
337.2940, 892.8469
338.4980, 926.0034
339.7010, 826.2549
340.9050, 863.4954
342.1080, 779.7249
343.3110, 664.9434
344.5140, 620.1511
345.7170, 506.3472
346.9200, 375.5322
348.1220, 251.7058
349.3240, 195.8674
350.5270, 146.0176
351.7290, 136.1555
352.9310, 89.28198
354.1320, 45.39575
355.3340, 11.50488
356.5350, 11.57129
357.7370, 41.37036
358.9380, 105.3442
360.1390, 32.36694
361.3400, 48.41992
362.5400, 4.507324
363.7410, 71.61768
364.9410, 117.7693
366.1410, 50.97437
367.3410, 78.21509
368.5410, 20.49976
369.7410, 91.81519
370.9400, 13.80371
372.1400, 53.65771
373.3390, 32.80200
374.5380, 50.79565
375.7370, 27.49585
376.9360, 16.72778
378.1350, 30.89233
379.3330, 34.01221
380.5310, 53.07544
381.7300, 55.11499
382.9280, 75.11401
384.1260, 67.13916
385.3230, 80.88916
386.5210, 77.10474
387.7180, 101.0693
388.9160, 127.0212
390.1130, 144.9607
391.3100, 112.8879
392.5060, 170.8020
393.7030, 154.7029
394.9000, 204.5908
396.0960, 257.4658
397.2920, 246.3276
398.4880, 281.1760
399.6840, 230.0107
400.8800, 301.8318
402.0750, 342.6404
403.2710, 419.4360
404.4660, 427.1792
405.6610, 437.9878
406.8560, 460.7434
408.0510, 444.4851
409.2450, 503.2134
410.4400, 581.9272
411.6340, 579.6272
412.8280, 738.3130
414.0220, 685.9841
415.2160, 798.6406
416.4100, 871.2876
417.6030, 980.9417
418.7970, 1055.586
419.9900, 1211.216
421.1830, 1304.831
422.3760, 1457.430
423.5690, 1488.015
424.7610, 1664.583
425.9540, 1899.136
427.1460, 2069.674
428.3380, 2313.196
429.5300, 2476.702
430.7220, 2630.193
431.9140, 2801.667
433.1050, 3012.127
434.2970, 3249.630
435.4880, 3230.343
436.6790, 3445.559
437.8700, 3442.121
439.0610, 3547.096
440.2510, 3546.458
441.4420, 3485.428
442.6320, 3546.077
443.8220, 3468.879
445.0120, 3646.975
446.2020, 3578.872
447.3910, 3681.288
448.5810, 3809.207
449.7700, 3930.809
450.9600, 4022.442
452.1490, 4188.672
453.3370, 4276.808
454.5260, 4349.850
455.7150, 4481.367
456.9030, 4546.797
458.0910, 4528.652
459.2800, 4560.571
460.4670, 4403.650
461.6550, 4180.579
462.8430, 4028.627
464.0300, 3684.959
465.2180, 3476.359
466.4050, 3007.133
467.5920, 2685.607
468.7790, 2489.297
469.9650, 2312.400
471.1520, 2033.541
472.3380, 1876.628
473.5250, 1624.748
474.7110, 1567.751
475.8970, 1440.326
477.0820, 1214.087
478.2680, 1036.803
479.4540, 1064.497
480.6390, 915.1672
481.8240, 932.8149
483.0090, 853.4399
484.1940, 765.0425
485.3780, 703.6218
486.5630, 646.1790
487.7470, 638.7136
488.9320, 561.2258
490.1160, 534.7158
491.3000, 495.1836
492.4830, 463.6294
493.6670, 460.0530
494.8500, 400.4548
496.0340, 404.7712
497.2170, 354.6943
498.4000, 308.6616
499.5820, 363.8533
500.7650, 303.8403
501.9480, 286.7607
503.1300, 288.2107
504.3120, 261.6038
505.4940, 270.1858
506.6760, 261.4180
507.8580, 257.4438
509.0390, 239.4893
510.2210, 212.7808
511.4020, 210.7383
512.5830, 200.6311
513.7640, 189.7808
514.9450, 193.4519
516.1250, 186.6689
517.3060, 156.4502
518.4860, 123.6628
519.6660, 134.3879
520.8460, 117.4739
522.0260, 122.3845
523.2060, 203.0576
524.3850, 127.5190
525.5650, 184.1982
526.7440, 168.7800
527.9230, 108.4792
529.1020, 153.1331
530.2810, 150.9480
531.4590, 222.8159
532.6380, 146.6711
533.8160, 116.4980
534.9940, 184.3286
536.1720, 113.1470
537.3500, 153.9531
538.5270, 143.7476
539.7050, 114.5300
540.8820, 169.3008
542.0590, 87.06055
543.2360, 136.8091
544.4130, 137.5459
545.5900, 110.2725
546.7660, 124.9878
547.9430, 129.6929
549.1190, 135.3870
550.2950, 106.0710
551.4710, 121.6033
552.6470, 166.4094
553.8220, 112.0637
554.9980, 111.7085
556.1730, 68.34399
557.3480, 96.97021
558.5230, 86.82349
559.6980, 163.1956
560.8730, 85.79517
562.0470, 122.3862
563.2220, 94.96875
564.3960, 73.54346
565.5700, 119.1101
566.7440, 83.66895
567.9170, 46.22021
569.0910, 67.76440
570.2640, 82.30127
571.4380, 75.83203
572.6110, 46.35571
573.7840, 87.87305
574.9570, 28.38452
576.1290, 1.112061
577.3020, 6.371582
578.4740, 20.84009
579.6460, 42.70044
580.8180, 35.72021
581.9900, 27.86353
583.1620, 12.52271
584.3330, 10.10083
585.5040, 1.255859
586.6760, 13.97290
587.8470, 41.07642
589.0180, 50.78857
590.1880, 95.53613
591.3590, 97.34375
592.5290, 108.2112
593.7000, 108.1438
594.8700, 92.13989
596.0400, 101.1909
597.2090, 101.3003
598.3790, 98.46729
599.5490, 57.68970
600.7180, 49.94556
601.8870, 31.23022
603.0560, 69.53345
604.2250, 58.87354
605.3940, 44.24438
606.5620, 86.63770
607.7300, 66.07349
608.8990, 105.5405
610.0670, 63.05762
611.2350, 116.6025
612.4020, 66.20117
613.5700, 30.82788
614.7370, 5.464844
615.9050, 22.10205
617.0720, 27.74414
618.2390, 29.60718
619.4060, 24.96338
620.5720, 67.32520
621.7390, 58.69287
622.9050, 78.98364
624.0710, 49.44727
625.2370, 102.8345
626.4030, 77.22900
627.5690, 75.63135
628.7340, 145.0408
629.9000, 162.4585
631.0650, 225.8853
632.2300, 244.3201
633.3950, 149.7639
634.5600, 273.2175
635.7240, 271.6807
636.8890, 323.1541
638.0530, 402.6399
639.2170, 336.1475
640.3810, 408.6716
641.5450, 428.2261
642.7080, 451.8281
643.8720, 458.4595
645.0350, 441.1243
646.1980, 525.8115
647.3610, 551.5396
648.5240, 582.3203
649.6870, 542.1367
650.8490, 537.9971
652.0120, 601.8855
653.1740, 559.8220
654.3360, 602.7793
655.4980, 627.7749
656.6600, 588.7893
657.8210, 667.8423
658.9830, 623.9854
660.1440, 580.0347
661.3050, 548.1616
662.4660, 507.4819
663.6270, 493.4756
664.7870, 457.6606
665.9480, 461.8643
667.1080, 487.0867
668.2680, 425.3279
669.4280, 480.5876
670.5880, 474.8660
671.7480, 492.1624
672.9070, 404.4775
674.0670, 361.8110
675.2260, 421.1638
676.3850, 391.5356
677.5440, 400.9272
678.7030, 459.3379
679.8610, 343.7690
681.0200, 433.2200
682.1780, 301.6917
683.3360, 454.1836
684.4940, 381.6965
685.6520, 456.2305
686.8090, 428.7856
687.9670, 425.3630
689.1240, 436.9622
690.2810, 468.5833
691.4380, 428.2268
692.5950, 482.8938
693.7520, 428.5864
694.9080, 496.3137
696.0650, 507.0649
697.2210, 467.8391
698.3770, 469.6370
699.5330, 559.4590
700.6880, 532.3110
701.8440, 526.1938
702.9990, 619.1016
704.1550, 636.0435
705.3100, 691.0107
706.4650, 562.0034
707.6190, 624.0449
708.7740, 601.1172
709.9290, 659.2178
711.0830, 643.3459
712.2370, 860.5007
713.3910, 748.6904
714.5450, 777.8464
715.6980, 849.8181
716.8520, 772.3071
718.0050, 892.4690
719.1580, 830.2285
720.3110, 878.6167
721.4640, 902.4116
722.6170, 895.5420
723.7700, 870.5371
724.9220, 965.2686
726.0740, 975.2224
727.2260, 1020.681
728.3780, 1042.667
729.5300, 1030.985
730.6810, 1023.307
731.8330, 1072.147
732.9840, 1014.954
734.1350, 1156.949
735.2860, 1201.482
736.4370, 1218.138
737.5880, 1325.095
738.7380, 1280.619
739.8880, 1356.698
741.0390, 1387.959
742.1890, 1485.122
743.3380, 1539.036
744.4880, 1590.902
745.6380, 1687.409
746.7870, 1825.244
747.9360, 1785.891
749.0850, 2022.141
750.2340, 2027.381
751.3830, 2242.696
752.5310, 2419.002
753.6800, 2542.459
754.8280, 2741.385
755.9760, 2854.143
757.1240, 3058.977
758.2720, 3251.860
759.4190, 3600.786
760.5670, 3895.767
761.7140, 4168.792
762.8610, 4476.861
764.0080, 4950.969
765.1550, 5303.121
766.3020, 5868.312
767.4480, 6448.556
768.5950, 6971.838
769.7410, 7734.162
770.8870, 8638.536
772.0330, 9646.957
773.1780, 11003.42
774.3240, 12401.93
775.4690, 13994.48
776.6140, 15644.07
777.7590, 18008.69
778.9040, 20365.36
780.0490, 23172.07
781.1940, 26141.83
782.3380, 29717.62
783.4820, 33268.45
784.6260, 36991.32
785.7700, 40969.23
786.9140, 44434.19
788.0580, 48518.19
789.2010, 51129.22
790.3450, 53812.29
791.4880, 55589.40
792.6310, 56463.57
793.7730, 56829.75
794.9160, 56009.00
796.0590, 54557.27
797.2010, 52456.58
798.3430, 49727.93
799.4850, 46069.34
800.6270, 42580.76
801.7690, 38755.23
802.9100, 34485.75
804.0520, 30777.29
805.1930, 27130.87
806.3340, 23892.50
807.4750, 21042.16
808.6160, 18625.86
809.7560, 16261.60
810.8970, 14405.38
812.0370, 12778.20
813.1770, 11408.05
814.3170, 10151.94
815.4570, 9202.864
816.5960, 8231.830
817.7360, 7482.833
818.8750, 6790.874
820.0140, 6135.951
821.1530, 5856.065
822.2920, 5242.218
823.4310, 4857.406
824.5690, 4557.655
825.7070, 4103.917
826.8460, 3995.231
827.9840, 3674.566
829.1220, 3519.102
830.2590, 3243.950
831.3970, 3181.010
832.5340, 2930.511
833.6710, 2870.029
834.8080, 2743.582
835.9450, 2721.175
837.0820, 2568.951
838.2190, 2527.030
839.3550, 2593.724
840.4910, 2603.465
841.6270, 2647.316
842.7630, 2718.115
843.8990, 2853.332
845.0350, 2843.090
846.1700, 3067.454
847.3060, 3230.728
848.4410, 3480.695
849.5760, 3580.500
850.7100, 3575.532
851.8450, 3747.865
852.9800, 3747.865
854.1140, 3779.450
855.2480, 3688.627
856.3820, 3588.655
857.5160, 3387.562
858.6500, 3198.125
859.7830, 2932.503
860.9170, 2715.342
862.0500, 2483.733
863.1830, 2315.133
864.3160, 2065.235
865.4480, 1809.162
866.5810, 1741.812
867.7130, 1462.623
868.8460, 1448.781
869.9780, 1327.448
871.1100, 1249.271
872.2410, 1163.259
873.3730, 1119.519
874.5050, 1070.426
875.6360, 983.9099
876.7670, 1011.813
877.8980, 1005.348
879.0290, 1003.291
880.1590, 910.2639
881.2900, 866.4873
882.4200, 856.8149
883.5500, 885.7312
884.6800, 850.5449
885.8100, 837.1851
886.9400, 902.9910
888.0690, 927.9504
889.1990, 906.9290
890.3280, 970.8462
891.4570, 848.8848
892.5860, 882.9675
893.7140, 910.3140
894.8430, 908.7720
895.9710, 939.2778
897.1000, 960.3655
898.2280, 964.7192
899.3560, 963.2310
900.4830, 956.0864
901.6110, 940.7656
902.7380, 918.7979
903.8660, 910.5874
904.9930, 879.8748
906.1200, 909.1536
907.2460, 921.4844
908.3730, 946.7925
909.5000, 815.9238
910.6260, 884.7969
911.7520, 795.6846
912.8780, 830.5862
914.0040, 814.5015
915.1290, 771.7935
916.2550, 698.7354
917.3800, 667.8674
918.5050, 666.8706
919.6300, 595.9690
920.7550, 583.0447
921.8800, 568.1670
923.0040, 528.0657
924.1290, 551.0959
925.2530, 438.1367
926.3770, 427.1890
927.5010, 315.3147
928.6250, 330.8215
929.7480, 339.2676
930.8720, 271.3572
931.9950, 292.8425
933.1180, 262.9497
934.2410, 274.1174
935.3640, 256.2407
936.4860, 190.4038
937.6090, 130.5415
938.7310, 125.2913
939.8530, 90.51538
940.9750, 115.4915
942.0970, 91.71338
943.2180, 114.8833
944.3400, 162.0793
945.4610, 127.2598
946.5820, 113.4446
947.7030, 51.63403
948.8240, 97.82764
949.9450, 36.15186
951.0650, 27.40332
952.1860, 87.60767
953.3060, 65.81494
954.4260, 66.02563
955.5460, 75.23828
956.6650, 44.45312
957.7850, 29.66968
958.9040, 0.1115720
960.0230, 15.10840
961.1420, 1.329102
962.2610, 5.550293
963.3800, 11.02441
964.4990, 22.80518
965.6170, 73.59131
966.7350, 0.5998540
967.8530, 33.79004
968.9710, 20.97974
970.0890, 3.167725
971.2070, 38.64600
972.3240, 43.54858
973.4410, 14.68408
974.5580, 53.15942
975.6750, 3.986572
976.7920, 35.14282
977.9090, 105.7310
979.0250, 26.65649
980.1410, 15.59570
981.2580, 11.54443
982.3740, 4.557373
983.4890, 40.40527
984.6050, 19.60913
985.7200, 62.37402
986.8360, 38.40039
987.9510, 29.45093
989.0660, 8.478027
990.1810, 15.59888
991.2950, 11.69141
992.4100, 2.798340
993.5240, 16.91675
994.6390, 71.05371
995.7530, 30.23901
996.8660, 44.45142
997.9800, 53.69971
999.0940, 1.4648000E-02
1000.207, 74.28540
1001.320, 106.6394
1002.433, 1.934570
1003.546, 20.50757
1004.659, 54.02124
1005.772, 69.43359
1006.884, 23.97217
1007.996, 55.54370
1009.108, 42.83472
1010.220, 44.79858
1011.332, 5.478760
1012.444, 58.04834
1013.555, 7.189453
1014.666, 54.40503
1015.777, 27.39331
1016.888, 19.23315
1017.999, 19.30151
1019.110, 11.49341
1020.220, 3.572754
1021.331, 2.610352
1022.441, 44.09619
1023.551, 57.76611
1024.661, 27.12744
1025.770, 26.00024
1026.880, 2.824463
1027.989, 21.61890
1029.098, 25.53174
1030.207, 28.34790
1031.316, 29.29712
1032.425, 58.32617
1033.533, 27.04395
1034.642, 98.92871
1035.750, 0.6418460
1036.858, 57.21167
1037.966, 47.22021
1039.073, 17.74756
1040.181, 4.6386998E-02
1041.288, 47.55786
1042.396, 57.56348
1043.503, 88.09497
1044.610, 109.7019
1045.716, 94.07397
1046.823, 100.5789
1047.929, 59.98584
1049.036, 112.3704
1050.142, 73.66919
1051.248, 90.99756
1052.353, 81.24683
1053.459, 39.80493
1054.564, 171.2800
1055.670, 112.8630
1056.775, 127.6082
1057.880, 174.8257
1058.985, 179.2056
1060.089, 46.35376
1061.194, 71.41626
1062.298, 76.45361
1063.402, 199.4719
1064.506, 77.52393
1065.610, 191.5779
1066.713, 111.6741
1067.817, 136.6235
1068.920, 119.5237
1070.023, 137.4009
1071.126, 85.25659
1072.229, 107.0864
1073.332, 178.1252
1074.435, 120.9141
1075.537, 165.7871
1076.639, 132.5303
1077.741, 163.2810
1078.843, 239.9790
1079.945, 187.6541
1081.046, 162.3064
1082.148, 117.9749
1083.249, 133.5798
1084.350, 157.1614
1085.451, 156.7202
1086.551, 170.6033
1087.652, 178.3076
1088.752, 180.3601
1089.853, 194.8254
1090.953, 194.4045
1092.053, 211.9312
1093.152, 190.3303
1094.252, 184.7581
1095.351, 121.1123
1096.451, 198.2778
1097.550, 177.1438
1098.649, 172.3662
1099.748, 223.6538
1100.846, 182.0142
1101.945, 168.2231
1103.043, 172.4419
1104.141, 224.6226
1105.239, 181.3428
1106.337, 184.9272
1107.434, 153.0068
1108.532, 175.9873
1109.629, 224.0317
1110.726, 230.6675
1111.823, 219.7712
1112.920, 177.2808
1114.017, 145.8909
1115.113, 187.8171
1116.210, 183.9211
1117.306, 158.8008
1118.402, 182.1516
1119.498, 215.3960
1120.593, 176.8740
1121.689, 214.6606
1122.784, 180.7788
1123.879, 190.8674
1124.974, 265.3220
1126.069, 210.9724
1127.164, 217.1772
1128.259, 324.8423
1129.353, 210.5149
1130.447, 242.5022
1131.541, 149.7070
1132.635, 183.2900
1133.729, 170.7366
1134.822, 145.2666
1135.916, 160.4075
1137.009, 128.8843
1138.102, 145.2297
1139.195, 131.5337
1140.288, 149.7463
1141.380, 135.3044
1142.473, 141.8440
1143.565, 88.92285
1144.657, 167.4607
1145.749, 125.9915
1146.841, 121.2883
1147.932, 151.5073
1149.024, 50.15845
1150.115, 87.97095
1151.206, 124.9463
1152.297, 127.8181
1153.388, 56.52466
1154.479, 45.22168
1155.569, 102.8940
1156.659, 112.5930
1157.750, 133.2036
1158.839, 95.59717
1159.929, 75.84619
1161.019, 55.28613
1162.108, 43.66919
1163.198, 34.00317
1164.287, 76.09399
1165.376, 42.23779
1166.465, 66.21094
1167.553, 112.8867
1168.642, 24.69580
1169.730, 103.2393
1170.818, 9.666016
1171.906, 72.03687
1172.994, 15.67505
1174.082, 56.24146
1175.170, 41.28320
1176.257, 88.08960
1177.344, 48.94165
1178.431, 68.04248
1179.518, 67.43872
1180.605, 83.18262
1181.691, 70.73389
1182.778, 91.41113
1183.864, 27.98975
1184.950, 31.59180
1186.036, 21.26172
1187.122, 11.77661
1188.207, 63.54663
1189.292, 32.16431
1190.378, 69.76538
1191.463, 100.2888
1192.548, 93.48315
1193.632, 79.71167
1194.717, 66.25708
1195.801, 59.40088
1196.886, 43.91748
1197.970, 73.36719
1199.054, 97.85474
1200.137, 134.2981
1201.221, 130.7952
1202.305, 79.87329
1203.388, 31.30151
1204.471, 91.79858
1205.554, 53.16553
1206.637, 87.56201
1207.719, 71.03491
1208.802, 98.40576
1209.884, 108.7639
1210.966, 97.10962
1212.048, 67.44263
1213.130, 101.6370
1214.212, 135.9648
1215.293, 82.43579
1216.374, 50.71997
1217.456, 80.99121
1218.536, 97.25098
1219.617, 120.4985
1220.698, 42.68970
1221.778, 43.96655
1222.859, 74.26489
1223.939, 57.46631
1225.019, 76.37915
1226.099, 101.3542
1227.178, 94.52319
1228.258, 0.7480470
1229.337, 59.90503
1230.417, 41.05078
1231.496, 116.1848
1232.574, 61.30884
1233.653, 29.97046
1234.732, 72.07788
1235.810, 1.182373
1236.888, 106.3293
1237.966, 129.4248
1239.044, 69.55859
1240.122, 74.63281
1241.199, 80.48535
1242.277, 130.9551
1243.354, 92.03223
1244.431, 81.08398
1245.508, 64.20337
1246.585, 89.26392
1247.661, 110.3081
1248.738, 48.39502
1249.814, 37.45288
1250.890, 94.51685
1251.966, 25.56323
1253.042, 136.6045
1254.117, 72.64111
1255.193, 70.67212
1256.268, 130.7007
1257.343, 97.74072
1258.418, 69.83569
1259.493, 13.03369
1260.567, 57.09351
1261.642, 41.13550
1262.716, 43.21021
1263.790, 60.36743
1264.864, 100.4424
1265.938, 91.51904
1267.011, 89.56079
1268.085, 12.64502
1269.158, 15.73145
1270.231, 17.82959
1271.304, 83.92017
1272.377, 19.07056
1273.450, 124.0408
1274.522, 107.7876
1275.594, 66.94971
1276.666, 83.06348
1277.738, 106.2988
1278.810, 48.22925
1279.882, 111.2642
1280.953, 47.41553
1282.025, 97.63916
1283.096, 91.48389
1284.167, 14.74976
1285.238, 41.41553
1286.308, 118.6492
1287.379, 46.98340
1288.449, 97.14307
1289.519, 87.22095
1290.589, 105.2300
1291.659, 30.14331
1292.729, 92.01855
1293.798, 88.11353
1294.868, 53.01367
1295.937, 72.14355
1297.006, 50.30322
1298.075, 64.99927
1299.143, 60.15088
1300.212, 85.50049
1301.280, 1.602051
1302.348, 53.38257
1303.416, 4.459229
1304.484, 58.50854
1305.552, 37.64648
1306.620, 3.310791
1307.687, 88.90649
1308.754, 70.01221
1309.821, 69.12134
1310.888, 84.17578
1311.955, 117.2849
1313.021, 100.3662
1314.088, 91.30444
1315.154, 134.0986
1316.220, 95.75732
1317.286, 101.7656
1318.352, 93.58472
1319.417, 69.83838
1320.483, 37.91846
1321.548, 43.06177
1322.613, 80.12915
1323.678, 57.13867
1324.743, 76.89355
1325.807, 113.0359
1326.872, 73.07275
1327.936, 78.39478
1329.000, 42.48291
1330.064, 62.73486
1331.128, 22.87622
1332.191, 18.28296
1333.255, 46.99878
1334.318, 57.93115
1335.381, 24.04688
1336.444, 89.04639
1337.507, 67.07715
1338.569, 73.09912
1339.632, 95.11865
1340.694, 88.09717
1341.756, 33.11865
1342.818, 8.130859
1343.880, 65.13965
1344.941, 105.0591
1346.003, 81.06348
1347.064, 96.06567
1348.125, 16.55762
1349.186, 37.30347
1350.247, 29.16968
1351.308, 114.1611
1352.368, 12.91577
1353.428, 69.06958
1354.489, 87.05396
1355.549, 34.03613
1356.608, 119.4602
1357.668, 78.38989
1358.727, 61.24121
1359.787, 60.21802
1360.846, 9.844727
1361.905, 72.95435
1362.964, 108.9463
1364.022, 36.03101
1365.081, 39.10254
1366.139, 37.17847
1367.197, 59.13696
1368.255, 66.07935
1369.313, 13.02051
1370.371, 70.01758
1371.428, 38.96899
1372.486, 34.90479
1373.543, 59.87158
1374.600, 52.80469
1375.657, 41.83691
1376.713, 49.69287
1377.770, 46.70898
1378.826, 56.43579
1379.882, 52.20093
1380.938, 80.16821
1381.994, 80.80981
1383.050, 91.21045
1384.106, 66.11182
1385.161, 36.01147
1386.216, 28.90942
1387.271, 28.81152
1388.326, 104.7686
1389.381, 43.63574
1390.435, 29.51782
1391.490, 122.4829
1392.544, 90.36182
1393.598, 72.23901
1394.652, 89.11475
1395.705, 81.79370
1396.759, 104.7651
1397.812, 87.61084
1398.866, 36.49365
1399.919, 101.9851
1400.972, 9.865234
1402.024, 39.98999
1403.077, 112.8423
1404.129, 22.79858
1405.181, 2.645996
1406.233, 46.45410
1407.285, 44.28662
1408.337, 27.08521
1409.389, 90.54761
1410.440, 108.3723
1411.491, 47.28345
1412.542, 30.05005
1413.593, 34.13428
1414.644, 82.76440
1415.695, 68.68555
1416.745, 56.47925
1417.795, 96.27124
1418.845, 33.95605
1419.895, 63.73950
1420.945, 103.5205
1421.995, 31.59106
1423.044, 104.3589
1424.093, 153.0669
1425.142, 85.78052
1426.191, 63.48584
1427.240, 63.18848
1428.289, 5.638428
1429.337, 39.31177
1430.385, 21.70972
1431.433, 63.41064
1432.481, 35.98828
1433.529, 11.29004
1434.577, 36.90625
1435.624, 57.61182
1436.672, 58.34717
1437.719, 75.20142
1438.766, 19.06934
1439.812, 24.48511
1440.859, 27.00879
1441.905, 14.51099
1442.952, 95.95166
1443.998, 144.3364
1445.044, 2.817871
1446.090, 100.2937
1447.135, 34.13721
1448.181, 126.0759
1449.226, 51.04736
1450.271, 86.01831
1451.316, 60.94873
1452.361, 113.7888
1453.405, 0.3999020
1454.450, 42.42847
1455.494, 6.370605
1456.538, 29.31055
1457.582, 45.17163
1458.626, 1.914795
1459.670, 114.8464
1460.713, 30.70508
1461.757, 102.4653
1462.800, 48.55151
1463.843, 64.45459
1464.886, 99.28345
1465.928, 53.18823
1466.971, 48.43896
1468.013, 55.33521
1469.055, 125.1111
1470.097, 46.93774
1471.139, 79.63647
1472.181, 83.46436
1473.222, 2.732666
1474.263, 60.10303
1475.305, 93.96362
1476.346, 53.83398
1477.386, 60.70215
1478.427, 98.56665
1479.468, 141.7761
1480.508, 148.9575
1481.548, 152.4719
1482.588, 152.6709
1483.628, 139.1018
1484.668, 143.3091
1485.707, 67.11963
1486.747, 72.04199
1487.786, 46.80249
1488.825, 4.875977
1489.864, 26.87427
1490.902, 25.52979
1491.941, 72.31470
1492.979, 78.54761
1494.017, 71.30493
1495.055, 37.05884
1496.093, 47.69897
1497.131, 95.31323
1498.168, 42.05518
1499.206, 63.79663
1500.243, 27.19019
1501.280, 96.63208
1502.317, 61.26147
1503.354, 133.6021
1504.390, 53.34277
1505.426, 36.62183
1506.463, 3.921143
1507.499, 56.32568
1508.535, 118.5771
1509.570, 107.1438
1510.606, 100.0393
1511.641, 61.53809
1512.676, 32.67139
1513.711, 37.85327
1514.746, 36.26953
1515.781, 31.38599
1516.816, 67.85132
1517.850, 94.49219
1518.884, 119.1389
1519.918, 80.76782
1520.952, 2.367432
1521.986, 18.99780
1523.019, 47.65283
1524.053, 22.76050
1525.086, 1.811035
1526.119, 95.37231
1527.152, 63.92090
1528.185, 27.45190
1529.217, 77.97778
1530.250, 142.6458
1531.282, 59.41821
1532.314, 71.90259
1533.346, 3.771729
1534.377, 104.6797
1535.409, 125.0271
1536.440, 299.4055
1537.472, 113.9138
1538.503, 22.21240
1539.534, 23.90063
1540.564, 103.2615
1541.595, 311.8411
1542.625, 127.3420
1543.656, 151.1553
1544.686, 82.60278
1545.716, 6.029541
1546.745, 128.3362
1547.775, 81.08203
1548.804, 81.33130
1549.834, 109.4185
1550.863, 76.05273
1551.892, 235.6775
1552.920, 145.8611
1553.949, 253.0225
1554.977, 251.0117
1556.006, 130.7681
1557.034, 115.2356
1558.062, 71.44531
1559.089, 12.26196
1560.117, 6.501465
1561.144, 1.087646
1562.172, 3.520752
1563.199, 33.46655
1564.226, 93.36694
1565.252, 130.8860
1566.279, 45.78320
1567.305, 61.28271
1568.332, 2.095459
1569.358, 8.8623002E-02
1570.384, 0.0000000E+00
##END=



