##NAMES=Erythrite
##RRUFFID=R050073
##IDEAL CHEMISTRY=Co^2+^_3_(As^5+^O_4_)_2_&#183;8H_2_O
##LOCALITY=Bou Azzer, Morocco
##OWNER=RRUFF
##SOURCE=Rock Currier
##DESCRIPTION=Crimson flattened crystals
##STATUS=The identification of this mineral has been confirmed by X-ray diffraction and chemical analysis
##URL=rruff.info/R050073
##MEASURED CHEMISTRY=(Co_0.65_Mg_0.35_)_3_(As_1.00_O_4_)_2_Â·8H_2_O
##PIN_ID=M00408
##ORIENTATION=Laser parallel to a* (1 0 0). Fiducial mark perpendicular to laser is parallel to b [0 1 0]
93.48000, 0.0000000E+00
94.71400, 38.79199
95.94800, 33.65918
97.18200, 33.00537
98.41600, 37.28613
99.64900, 58.94873
100.8830, 5.723633
102.1160, 21.43018
103.3490, 43.35889
104.5820, 437.6592
105.8150, 1095.682
107.0470, 1881.519
108.2800, 2766.202
109.5120, 3323.739
110.7440, 2614.274
111.9760, 1887.835
113.2080, 1825.122
114.4400, 2447.327
115.6710, 2983.377
116.9030, 3332.203
118.1340, 3332.744
119.3650, 2551.948
120.5960, 1887.771
121.8270, 1471.192
123.0580, 906.2021
124.2880, 543.7666
125.5190, 173.8462
126.7490, 70.59229
127.9790, 29.42432
129.2090, 70.66113
130.4390, 134.7295
131.6680, 106.9692
132.8980, 43.55762
134.1270, 125.4663
135.3560, 202.6743
136.5850, 371.1641
137.8140, 490.9209
139.0430, 714.9316
140.2710, 871.8433
141.5000, 1077.665
142.7280, 1283.369
143.9560, 1584.289
145.1840, 1893.416
146.4120, 2363.745
147.6390, 2423.330
148.8670, 2481.276
150.0940, 2488.536
151.3210, 3117.208
152.5490, 3502.067
153.7750, 3890.062
155.0020, 3977.193
156.2290, 3862.458
157.4550, 3351.857
158.6810, 2602.394
159.9080, 1690.072
161.1340, 1126.896
162.3590, 690.8662
163.5850, 498.9849
164.8110, 391.2500
166.0360, 337.6606
167.2610, 267.1890
168.4860, 303.7427
169.7110, 292.3076
170.9360, 297.1616
172.1610, 409.4707
173.3850, 347.0952
174.6100, 473.7686
175.8340, 534.4971
177.0580, 550.2812
178.2820, 629.1255
179.5050, 786.0332
180.7290, 889.0083
181.9520, 833.0518
183.1760, 1104.166
184.3990, 1367.326
185.6220, 1422.535
186.8450, 1851.820
188.0670, 2202.180
189.2900, 2585.615
190.5120, 2936.128
191.7340, 3327.717
192.9560, 3817.382
194.1780, 4264.124
195.4000, 4569.939
196.6220, 4968.831
197.8430, 5321.795
199.0640, 5834.838
200.2860, 6207.956
201.5070, 6704.073
202.7270, 7027.727
203.9480, 6950.287
205.1690, 6599.990
206.3890, 6329.382
207.6090, 6398.464
208.8290, 6730.830
210.0490, 7125.265
211.2690, 7228.777
212.4890, 7116.364
213.7080, 7074.029
214.9280, 6609.766
216.1470, 6130.576
217.3660, 6159.457
218.5850, 5255.416
219.8030, 4793.484
221.0220, 4520.653
222.2400, 4262.972
223.4590, 4516.376
224.6770, 4297.022
225.8950, 4670.833
227.1120, 4756.750
228.3300, 5039.757
229.5480, 5409.841
230.7650, 5909.057
231.9820, 6467.395
233.1990, 6755.820
234.4160, 7322.339
235.6330, 7518.938
236.8490, 7868.603
238.0660, 8215.360
239.2820, 8498.195
240.4980, 8687.338
241.7140, 8921.809
242.9300, 9058.381
244.1460, 9219.413
245.3610, 9276.631
246.5770, 9310.445
247.7920, 9381.981
249.0070, 9764.475
250.2220, 10266.73
251.4370, 11106.11
252.6510, 11973.62
253.8660, 12973.26
255.0800, 14212.02
256.2940, 15804.90
257.5080, 17136.80
258.7220, 18647.76
259.9360, 20128.82
261.1490, 20647.98
262.3630, 21210.24
263.5760, 21473.59
264.7890, 21514.03
266.0020, 21268.55
267.2150, 20782.15
268.4270, 19871.83
269.6400, 18613.58
270.8520, 17404.41
272.0640, 15890.31
273.2760, 14411.43
274.4880, 13090.46
275.7000, 11431.82
276.9120, 10284.97
278.1230, 8879.181
279.3340, 7855.451
280.5450, 6856.772
281.7560, 5994.149
282.9670, 5231.579
284.1780, 4461.058
285.3880, 4032.587
286.5980, 3403.164
287.8090, 2891.789
289.0190, 2580.458
290.2290, 2163.173
291.4380, 1846.931
292.6480, 1582.732
293.8570, 1396.575
295.0670, 1045.459
296.2760, 912.3906
297.4850, 753.3677
298.6930, 599.3857
299.9020, 486.4497
301.1110, 416.5503
302.3190, 320.7236
303.5270, 246.9619
304.7350, 54.27490
305.9430, 108.6431
307.1510, 9.084961
308.3580, 136.4258
309.5660, 105.8926
310.7730, 12.68262
311.9800, 51.70996
313.1870, 44.03760
314.3940, 37.34131
315.6010, 60.63721
316.8070, 91.85498
318.0130, 51.08301
319.2200, 122.2832
320.4260, 87.43994
321.6310, 101.5562
322.8370, 36.65479
324.0430, 63.28076
325.2480, 156.2417
326.4540, 228.2271
327.6590, 188.2461
328.8640, 299.3013
330.0680, 336.3838
331.2730, 444.4932
332.4780, 500.6357
333.6820, 607.8003
334.8860, 737.9863
336.0900, 822.1968
337.2940, 902.4287
338.4980, 1156.680
339.7010, 1249.949
340.9050, 1381.436
342.1080, 1614.163
343.3110, 1829.676
344.5140, 2003.486
345.7170, 2201.295
346.9200, 2502.662
348.1220, 2854.868
349.3240, 3370.501
350.5270, 3734.260
351.7290, 4309.354
352.9310, 4897.851
354.1320, 5724.242
355.3340, 6348.241
356.5350, 7079.182
357.7370, 7917.649
358.9380, 8730.968
360.1390, 9579.952
361.3400, 10253.11
362.5400, 10902.42
363.7410, 11647.95
364.9410, 11978.06
366.1410, 12385.60
367.3410, 12350.99
368.5410, 12366.68
369.7410, 12076.24
370.9400, 11607.82
372.1400, 11152.85
373.3390, 10563.81
374.5380, 9961.609
375.7370, 9186.564
376.9360, 8634.897
378.1350, 7926.934
379.3330, 7391.306
380.5310, 6933.973
381.7300, 6267.674
382.9280, 5857.689
384.1260, 5456.958
385.3230, 5047.931
386.5210, 4648.763
387.7180, 4359.600
388.9160, 4150.458
390.1130, 3720.491
391.3100, 3466.605
392.5060, 3151.891
393.7030, 3044.860
394.9000, 2854.881
396.0960, 2688.988
397.2920, 2563.141
398.4880, 2299.861
399.6840, 2287.834
400.8800, 2090.311
402.0750, 1888.682
403.2710, 1993.516
404.4660, 1883.010
405.6610, 1729.589
406.8560, 1582.369
408.0510, 1463.005
409.2450, 1419.034
410.4400, 1360.543
411.6340, 1420.788
412.8280, 1324.087
414.0220, 1401.374
415.2160, 1362.766
416.4100, 1376.245
417.6030, 1565.435
418.7970, 1640.957
419.9900, 1800.176
421.1830, 1935.319
422.3760, 2136.465
423.5690, 2359.545
424.7610, 2607.688
425.9540, 2869.774
427.1460, 3199.841
428.3380, 3480.895
429.5300, 3781.925
430.7220, 4190.935
431.9140, 4546.979
433.1050, 5008.948
434.2970, 5288.897
435.4880, 5616.827
436.6790, 5749.779
437.8700, 5872.352
439.0610, 6048.265
440.2510, 5983.137
441.4420, 5999.458
442.6320, 5776.859
443.8220, 5611.391
445.0120, 5515.558
446.2020, 5043.741
447.3910, 4788.782
448.5810, 4433.026
449.7700, 4100.079
450.9600, 3657.650
452.1490, 3414.391
453.3370, 3033.499
454.5260, 2742.374
455.7150, 2614.163
456.9030, 2311.777
458.0910, 2028.510
459.2800, 1888.538
460.4670, 1750.552
461.6550, 1546.870
462.8430, 1479.790
464.0300, 1234.092
465.2180, 1154.353
466.4050, 983.2222
467.5920, 796.1016
468.7790, 654.9658
469.9650, 567.6992
471.1520, 557.1670
472.3380, 430.8022
473.5250, 468.1855
474.7110, 356.1128
475.8970, 336.9023
477.0820, 295.4614
478.2680, 252.8071
479.4540, 160.6885
480.6390, 165.9688
481.8240, 197.1201
483.0090, 119.8521
484.1940, 68.58594
485.3780, 20.27686
486.5630, 33.80566
487.7470, 68.75977
488.9320, 27.77930
490.1160, 84.57520
491.3000, 98.96387
492.4830, 88.48633
493.6670, 18.29883
494.8500, 151.8496
496.0340, 101.9307
497.2170, 63.10547
498.4000, 59.51465
499.5820, 21.34766
500.7650, 14.69629
501.9480, 3.553711
503.1300, 50.36328
504.3120, 44.99512
505.4940, 3.489258
506.6760, 44.02539
507.8580, 2.709961
509.0390, 47.61035
510.2210, 36.63867
511.4020, 41.64941
512.5830, 49.56738
513.7640, 75.13281
514.9450, 23.23926
516.1250, 36.29883
517.3060, 32.03223
518.4860, 22.76465
519.6660, 77.11230
520.8460, 44.59473
522.0260, 151.5977
523.2060, 1.398438
524.3850, 6.336914
525.5650, 60.64160
526.7440, 86.79590
527.9230, 113.6621
529.1020, 114.6494
530.2810, 111.3359
531.4590, 85.04199
532.6380, 77.69141
533.8160, 66.28516
534.9940, 96.81934
536.1720, 91.29980
537.3500, 81.72266
538.5270, 21.91113
539.7050, 48.36133
540.8820, 39.57129
542.0590, 212.7148
543.2360, 64.80566
544.4130, 125.8379
545.5900, 58.81348
546.7660, 184.7275
547.9430, 135.5889
549.1190, 168.3945
550.2950, 252.1455
551.4710, 254.8457
552.6470, 284.4941
553.8220, 241.0908
554.9980, 241.6377
556.1730, 214.1309
557.3480, 190.5703
558.5230, 287.9570
559.6980, 176.2920
560.8730, 247.5723
562.0470, 340.8008
563.2220, 334.9775
564.3960, 326.1016
565.5700, 310.1748
566.7440, 274.1963
567.9170, 303.1660
569.0910, 261.0840
570.2640, 325.9492
571.4380, 365.7637
572.6110, 250.5264
573.7840, 287.2373
574.9570, 298.8945
576.1290, 295.5010
577.3020, 252.0566
578.4740, 104.5596
579.6460, 30.00391
580.8180, 30.37988
581.9900, 48.68359
583.1620, 14.92285
584.3330, 95.08691
585.5040, 95.80566
586.6760, 64.83301
587.8470, 110.9756
589.0180, 35.25977
590.1880, 112.6436
591.3590, 10.16992
592.5290, 71.78125
593.7000, 45.49707
594.8700, 50.69629
596.0400, 112.1748
597.2090, 72.81934
598.3790, 3.758789
599.5490, 78.62402
600.7180, 80.43652
601.8870, 24.20215
603.0560, 76.09375
604.2250, 48.49512
605.3940, 36.00879
606.5620, 5.537109
607.7300, 82.83887
608.8990, 79.16016
610.0670, 3.424805
611.2350, 9.384766
612.4020, 27.72559
613.5700, 34.77344
614.7370, 4.240234
615.9050, 58.67871
617.0720, 74.54785
618.2390, 26.36328
619.4060, 43.11719
620.5720, 95.81250
621.7390, 115.4551
622.9050, 41.05762
624.0710, 191.4082
625.2370, 36.48340
626.4030, 119.7354
627.5690, 178.6582
628.7340, 63.54688
629.9000, 131.8193
631.0650, 122.2793
632.2300, 113.1270
633.3950, 173.9365
634.5600, 94.26855
635.7240, 173.1807
636.8890, 156.1455
638.0530, 1.473633
639.2170, 35.82715
640.3810, 33.63184
641.5450, 59.57324
642.7080, 50.83105
643.8720, 78.87695
645.0350, 91.30566
646.1980, 81.33984
647.3610, 87.32617
648.5240, 116.8467
649.6870, 50.48535
650.8490, 90.78906
652.0120, 206.1826
653.1740, 117.5117
654.3360, 153.3594
655.4980, 223.2266
656.6600, 51.22559
657.8210, 34.02539
658.9830, 129.4033
660.1440, 237.0400
661.3050, 215.4893
662.4660, 21.78320
663.6270, 196.0586
664.7870, 129.5430
665.9480, 29.72949
667.1080, 98.59473
668.2680, 91.31543
669.4280, 55.29199
670.5880, 193.7803
671.7480, 188.0703
672.9070, 219.2529
674.0670, 160.2373
675.2260, 268.5186
676.3850, 288.7188
677.5440, 297.8027
678.7030, 250.8105
679.8610, 367.2217
681.0200, 383.3467
682.1780, 364.9395
683.3360, 452.6045
684.4940, 399.7754
685.6520, 353.2549
686.8090, 365.6152
687.9670, 423.7422
689.1240, 440.9795
690.2810, 338.5410
691.4380, 530.0879
692.5950, 607.6152
693.7520, 536.0527
694.9080, 489.4668
696.0650, 705.7432
697.2210, 731.8955
698.3770, 731.3105
699.5330, 853.3564
700.6880, 769.6758
701.8440, 806.3682
702.9990, 921.3594
704.1550, 833.6689
705.3100, 858.9609
706.4650, 974.2314
707.6190, 1057.484
708.7740, 1033.713
709.9290, 1055.929
711.0830, 1239.126
712.2370, 1166.254
713.3910, 1093.414
714.5450, 1506.559
715.6980, 1299.685
716.8520, 1469.748
718.0050, 1373.154
719.1580, 1551.182
720.3110, 1581.211
721.4640, 1670.752
722.6170, 1594.174
723.7700, 1639.428
724.9220, 1775.006
726.0740, 1836.527
727.2260, 1930.155
728.3780, 2025.540
729.5300, 2053.786
730.6810, 1902.054
731.8330, 2078.177
732.9840, 2121.965
734.1350, 2041.521
735.2860, 2243.156
736.4370, 2170.115
737.5880, 2263.068
738.7380, 2244.109
739.8880, 2517.178
741.0390, 2502.084
742.1890, 2512.113
743.3380, 2742.900
744.4880, 2645.209
745.6380, 2868.744
746.7870, 3007.862
747.9360, 2961.958
749.0850, 3144.142
750.2340, 3151.553
751.3830, 3317.020
752.5310, 3406.439
753.6800, 3559.302
754.8280, 3676.452
755.9760, 3751.696
757.1240, 3896.108
758.2720, 4063.833
759.4190, 4148.119
760.5670, 4566.752
761.7140, 4671.700
762.8610, 4908.410
764.0080, 5251.123
765.1550, 5383.889
766.3020, 5897.621
767.4480, 6138.856
768.5950, 6661.719
769.7410, 6981.924
770.8870, 7717.759
772.0330, 8399.012
773.1780, 8944.562
774.3240, 9838.768
775.4690, 10475.50
776.6140, 11729.98
777.7590, 12770.01
778.9040, 14126.16
780.0490, 15606.02
781.1940, 17454.87
782.3380, 18992.81
783.4820, 21110.81
784.6260, 23784.83
785.7700, 25842.60
786.9140, 28498.86
788.0580, 31476.90
789.2010, 34357.13
790.3450, 37084.53
791.4880, 39622.97
792.6310, 42104.47
793.7730, 43777.00
794.9160, 45357.30
796.0590, 46824.55
797.2010, 47102.14
798.3430, 47002.75
799.4850, 46236.39
800.6270, 45171.17
801.7690, 43649.87
802.9100, 41749.58
804.0520, 39375.09
805.1930, 37391.82
806.3340, 35444.60
807.4750, 33185.32
808.6160, 30932.13
809.7560, 29023.96
810.8970, 27115.82
812.0370, 24943.68
813.1770, 23088.55
814.3170, 21255.46
815.4570, 19437.37
816.5960, 17542.32
817.7360, 15986.29
818.8750, 14448.28
820.0140, 13158.28
821.1530, 12072.30
822.2920, 10814.34
823.4310, 9936.396
824.5690, 9250.468
825.7070, 8522.555
826.8460, 7862.163
827.9840, 7267.746
829.1220, 6709.922
830.2590, 6182.073
831.3970, 5752.244
832.5340, 5322.431
833.6710, 4828.633
834.8080, 4479.857
835.9450, 4416.123
837.0820, 4089.406
838.2190, 3787.706
839.3550, 3376.021
840.4910, 3315.355
841.6270, 3022.704
842.7630, 2829.084
843.8990, 2775.484
845.0350, 2744.900
846.1700, 2389.333
847.3060, 2515.783
848.4410, 2283.248
849.5760, 2191.730
850.7100, 2147.229
851.8450, 2113.227
852.9800, 2140.348
854.1140, 2193.826
855.2480, 2256.393
856.3820, 2309.991
857.5160, 2377.615
858.6500, 2457.266
859.7830, 2528.941
860.9170, 2406.640
862.0500, 2575.406
863.1830, 2442.220
864.3160, 2207.098
865.4480, 2181.020
866.5810, 1904.002
867.7130, 1869.021
868.8460, 1583.102
869.9780, 1301.229
871.1100, 1228.381
872.2410, 1031.595
873.3730, 865.8291
874.5050, 677.0967
875.6360, 451.3828
876.7670, 494.6914
877.8980, 377.0264
879.0290, 412.4121
880.1590, 183.8447
881.2900, 262.3037
882.4200, 91.79688
883.5500, 95.31641
884.6800, 80.86816
885.8100, 31.44922
886.9400, 14.54395
888.0690, 89.09766
889.1990, 69.23242
890.3280, 50.54980
891.4570, 76.14160
892.5860, 6.146484
893.7140, 12.58984
894.8430, 57.35156
895.9710, 72.86426
897.1000, 10.07129
898.2280, 60.74414
899.3560, 32.57617
900.4830, 15.56738
901.6110, 5.303711
902.7380, 13.19531
903.8660, 45.89453
904.9930, 24.97656
906.1200, 93.04785
907.2460, 73.11816
908.3730, 48.80762
909.5000, 14.24805
910.6260, 24.29199
911.7520, 45.18848
912.8780, 95.18945
914.0040, 134.7344
915.1290, 103.8613
916.2550, 1.042969
917.3800, 167.5996
918.5050, 81.53613
919.6300, 80.48730
920.7550, 48.54590
921.8800, 26.42188
923.0040, 166.4062
924.1290, 99.51172
925.2530, 9.525391
926.3770, 143.0664
927.5010, 26.14941
928.6250, 70.76660
929.7480, 93.82812
930.8720, 62.27832
931.9950, 237.2793
933.1180, 79.41309
934.2410, 223.5596
935.3640, 254.7188
936.4860, 142.0977
937.6090, 281.4463
938.7310, 334.6533
939.8530, 401.0381
940.9750, 342.9004
942.0970, 413.3330
943.2180, 402.7490
944.3400, 433.0352
945.4610, 438.0029
946.5820, 468.9209
947.7030, 419.2393
948.8240, 410.5342
949.9450, 379.9258
951.0650, 402.1162
952.1860, 500.6943
953.3060, 449.1436
954.4260, 522.5566
955.5460, 513.9805
956.6650, 653.6660
957.7850, 725.1230
958.9040, 578.6494
960.0230, 649.1455
961.1420, 542.3779
962.2610, 514.9229
963.3800, 682.7246
964.4990, 658.7295
965.6170, 631.6631
966.7350, 551.4795
967.8530, 462.2900
968.9710, 603.4600
970.0890, 751.6572
971.2070, 611.4834
972.3240, 654.2705
973.4410, 628.9004
974.5580, 523.9082
975.6750, 522.4785
976.7920, 506.9238
977.9090, 439.0869
979.0250, 494.6465
980.1410, 544.4238
981.2580, 499.0879
982.3740, 534.6494
983.4890, 340.5742
984.6050, 442.1367
985.7200, 409.7002
986.8360, 480.2705
987.9510, 468.8369
989.0660, 411.4043
990.1810, 453.9658
991.2950, 425.5332
992.4100, 434.3613
993.5240, 328.9287
994.6390, 326.5674
995.7530, 324.2012
996.8660, 292.7646
997.9800, 475.9795
999.0940, 346.5391
1000.207, 357.2217
1001.320, 303.0400
1002.433, 519.1006
1003.546, 441.1455
1004.659, 471.7754
1005.772, 325.4668
1006.884, 221.0049
1007.996, 259.6504
1009.108, 114.1816
1010.220, 218.7070
1011.332, 102.2266
1012.444, 225.9287
1013.555, 101.0986
1014.666, 295.0967
1015.777, 227.7686
1016.888, 176.9043
1017.999, 290.8193
1019.110, 48.44141
1020.220, 16.30957
1021.331, 98.80371
1022.441, 59.05566
1023.551, 184.7861
1024.661, 210.0566
1025.770, 161.7012
1026.880, 70.70605
1027.989, 220.6650
1029.098, 180.7734
1030.207, 188.4414
1031.316, 129.4512
1032.425, 45.88574
1033.533, 89.39648
1034.642, 243.0479
1035.750, 325.2100
1036.858, 338.1543
1037.966, 77.21484
1039.073, 169.3457
1040.181, 119.9434
1041.288, 63.41504
1042.396, 92.75586
1043.503, 233.9404
1044.610, 26.52344
1045.716, 51.36426
1046.823, 106.7725
1047.929, 53.18359
1049.036, 201.8711
1050.142, 16.09863
1051.248, 107.5498
1052.353, 81.92188
1053.459, 142.6641
1054.564, 178.4951
1055.670, 174.8594
1056.775, 37.32422
1057.880, 151.5186
1058.985, 6.540039
1060.089, 101.2715
1061.194, 29.27539
1062.298, 125.9717
1063.402, 6.690430
1064.506, 179.9746
1065.610, 231.8340
1066.713, 253.5518
1067.817, 88.62891
1068.920, 34.29297
1070.023, 53.13574
1071.126, 102.3506
1072.229, 65.88477
1073.332, 53.11621
1074.435, 13.85742
1075.537, 73.50684
1076.639, 189.2002
1077.741, 43.66699
1078.843, 167.5156
1079.945, 152.8174
1081.046, 8.553711
1082.148, 119.4189
1083.249, 148.2764
1084.350, 148.0088
1085.451, 120.7715
1086.551, 135.3926
1087.652, 164.4043
1088.752, 74.58398
1089.853, 133.7568
1090.953, 119.9932
1092.053, 130.0977
1093.152, 22.84180
1094.252, 125.4678
1095.351, 67.69141
1096.451, 38.35645
1097.550, 51.00000
1098.649, 82.58203
1099.748, 86.70801
1100.846, 33.62109
1101.945, 72.50586
1103.043, 91.95410
1104.141, 104.5410
1105.239, 144.8887
1106.337, 56.60645
1107.434, 164.3613
1108.532, 23.97852
1109.629, 33.62305
1110.726, 331.1885
1111.823, 122.7295
1112.920, 151.2432
1114.017, 222.7363
1115.113, 92.22559
1116.210, 210.6826
1117.306, 248.1357
1118.402, 181.9053
1119.498, 295.7520
1120.593, 286.5967
1121.689, 31.94824
1122.784, 255.7129
1123.879, 129.1641
1124.974, 244.9551
1126.069, 177.2139
1127.164, 6.443359
1128.259, 226.7314
1129.353, 51.87988
1130.447, 291.1689
1131.541, 171.3809
1132.635, 139.9629
1133.729, 0.3291020
1134.822, 87.99316
1135.916, 186.9297
1137.009, 172.8311
1138.102, 218.2197
1139.195, 184.4775
1140.288, 233.0312
1141.380, 217.0859
1142.473, 250.8428
1143.565, 171.5752
1144.657, 64.27734
1145.749, 100.0830
1146.841, 177.7139
1147.932, 21.31055
1149.024, 3.860352
1150.115, 187.5137
1151.206, 29.97656
1152.297, 153.1152
1153.388, 57.92188
1154.479, 150.6260
1155.569, 185.9424
1156.659, 175.2275
1157.750, 69.70898
1158.839, 97.91992
1159.929, 70.12695
1161.019, 3.257813
1162.108, 61.34570
1163.198, 217.4893
1164.287, 142.5020
1165.376, 167.5029
1166.465, 68.44336
1167.553, 273.3545
1168.642, 78.23047
1169.730, 196.0752
1170.818, 0.8955080
1171.906, 104.6699
1172.994, 148.4150
1174.082, 179.4795
1175.170, 257.1475
1176.257, 255.9160
1177.344, 218.2959
1178.431, 265.3857
1179.518, 229.3506
1180.605, 236.8789
1181.691, 92.14355
1182.778, 155.8965
1183.864, 74.34180
1184.950, 116.7451
1186.036, 72.11914
1187.122, 214.7471
1188.207, 185.5098
1189.292, 224.2715
1190.378, 179.9619
1191.463, 202.1719
1192.548, 131.7305
1193.632, 106.8164
1194.717, 53.57715
1195.801, 76.82129
1196.886, 48.07617
1197.970, 153.5049
1199.054, 149.3125
1200.137, 66.87207
1201.221, 5.569336
1202.305, 42.73145
1203.388, 24.77148
1204.471, 71.86914
1205.554, 53.55273
1206.637, 185.4336
1207.719, 43.49609
1208.802, 140.3682
1209.884, 54.52246
1210.966, 160.8359
1212.048, 101.8945
1213.130, 122.2197
1214.212, 147.7969
1215.293, 5.479492
1216.374, 165.7148
1217.456, 75.02051
1218.536, 425.9961
1219.617, 52.57129
1220.698, 237.3408
1221.778, 290.0039
1222.859, 111.2920
1223.939, 132.4609
1225.019, 95.16797
1226.099, 45.69629
1227.178, 112.4873
1228.258, 121.5605
1229.337, 225.0488
1230.417, 279.7773
1231.496, 61.87891
1232.574, 108.8320
1233.653, 77.90918
1234.732, 123.4209
1235.810, 294.2861
1236.888, 50.51953
1237.966, 335.4805
1239.044, 493.7666
1240.122, 582.3047
1241.199, 604.1328
1242.277, 352.0674
1243.354, 454.5283
1244.431, 418.8975
1245.508, 371.8789
1246.585, 527.7295
1247.661, 199.0762
1248.738, 173.6934
1249.814, 167.6328
1250.890, 343.2207
1251.966, 176.5801
1253.042, 246.3301
1254.117, 158.4814
1255.193, 309.7119
1256.268, 323.3760
1257.343, 264.5938
1258.418, 349.0723
1259.493, 248.9355
1260.567, 260.4180
1261.642, 164.9570
1262.716, 209.0938
1263.790, 124.9277
1264.864, 290.8398
1265.938, 329.7812
1267.011, 170.0645
1268.085, 189.7676
1269.158, 115.9902
1270.231, 231.0898
1271.304, 363.5352
1272.377, 349.3340
1273.450, 330.8340
1274.522, 263.5840
1275.594, 298.5684
1276.666, 496.5820
1277.738, 494.7598
1278.810, 258.4258
1279.882, 431.3809
1280.953, 271.6035
1282.025, 195.6016
1283.096, 210.4883
1284.167, 349.4180
1285.238, 329.4609
1286.308, 241.9473
1287.379, 338.7051
1288.449, 289.6309
1289.519, 349.4004
1290.589, 360.5918
1291.659, 273.1016
1292.729, 355.5234
1293.798, 290.4102
1294.868, 356.7109
1295.937, 294.7637
1297.006, 477.9590
1298.075, 330.1660
1299.143, 385.3184
1300.212, 318.2598
1301.280, 303.8477
1302.348, 213.3750
1303.416, 314.5742
1304.484, 338.4824
1305.552, 282.9648
1306.620, 306.4434
1307.687, 218.8086
1308.754, 252.6836
1309.821, 265.0840
1310.888, 236.0215
1311.955, 367.6074
1313.021, 312.4922
1314.088, 398.2852
1315.154, 229.4922
1316.220, 396.2793
1317.286, 278.8965
1318.352, 346.6211
1319.417, 280.2734
1320.483, 326.8691
1321.548, 328.1309
1322.613, 300.2539
1323.678, 156.5547
1324.743, 355.0430
1325.807, 156.6191
1326.872, 348.7871
1327.936, 296.2129
1329.000, 345.8984
1330.064, 251.5840
1331.128, 274.0449
1332.191, 246.9805
1333.255, 201.5781
1334.318, 150.0039
1335.381, 130.5645
1336.444, 98.28320
1337.507, 89.67773
1338.569, 65.02539
1339.632, 69.13477
1340.694, 61.49219
1341.756, 159.5254
1342.818, 114.0879
1343.880, 214.5645
1344.941, 264.5918
1346.003, 179.9336
1347.064, 368.0020
1348.125, 306.1426
1349.186, 323.9785
1350.247, 30.78906
1351.308, 213.2402
1352.368, 43.23047
1353.428, 76.25977
1354.489, 227.6777
1355.549, 52.45703
1356.608, 181.2285
1357.668, 2.396484
1358.727, 170.7031
1359.787, 189.2754
1360.846, 238.8633
1361.905, 134.4375
1362.964, 79.96875
1364.022, 129.0645
1365.081, 266.0625
1366.139, 168.2090
1367.197, 254.1992
1368.255, 53.22852
1369.313, 106.1387
1370.371, 11.19141
1371.428, 63.35742
1372.486, 188.4453
1373.543, 70.87305
1374.600, 86.72461
1375.657, 273.0938
1376.713, 189.8438
1377.770, 23.15039
1378.826, 76.25195
1379.882, 27.62109
1380.938, 58.86328
1381.994, 84.18750
1383.050, 174.2422
1384.106, 307.5938
1385.161, 214.9297
1386.216, 195.1035
1387.271, 192.3652
1388.326, 138.5996
1389.381, 190.2207
1390.435, 23.80859
1391.490, 166.0508
1392.544, 246.9121
1393.598, 139.7363
1394.652, 75.09961
1395.705, 12.50781
1396.759, 10.57617
1397.812, 100.9766
1398.866, 7.240234
1399.919, 53.38672
1400.972, 80.97852
1402.024, 67.33984
1403.077, 107.3203
1404.129, 184.1367
1405.181, 107.4824
1406.233, 94.64258
1407.285, 27.19727
1408.337, 277.3359
1409.389, 160.6914
1410.440, 256.3535
1411.491, 252.4824
1412.542, 125.0137
1413.593, 172.1328
1414.644, 157.1035
1415.695, 145.0000
1416.745, 82.85352
1417.795, 162.7031
1418.845, 114.5547
1419.895, 156.2812
1420.945, 77.96875
1421.995, 43.50977
1423.044, 13.00195
1424.093, 27.43359
1425.142, 17.17773
1426.191, 228.1562
1427.240, 104.4551
1428.289, 149.6973
1429.337, 246.4941
1430.385, 136.5859
1431.433, 65.61133
1432.481, 123.4062
1433.529, 240.2012
1434.577, 2.7344000E-02
1435.624, 201.4316
1436.672, 158.1484
1437.719, 68.40039
1438.766, 116.8516
1439.812, 19.23047
1440.859, 247.5508
1441.905, 265.4805
1442.952, 298.6113
1443.998, 291.5820
1445.044, 210.3398
1446.090, 505.1855
1447.135, 279.8496
1448.181, 374.3242
1449.226, 109.7480
1450.271, 302.1855
1451.316, 416.1758
1452.361, 339.9102
1453.405, 169.3164
1454.450, 255.9316
1455.494, 63.06641
1456.538, 368.6758
1457.582, 327.8613
1458.626, 352.6094
1459.670, 290.8594
1460.713, 83.61133
1461.757, 406.2188
1462.800, 411.2031
1463.843, 215.5605
1464.886, 415.4688
1465.928, 154.5488
1466.971, 157.4512
1468.013, 244.2383
1469.055, 360.8984
1470.097, 127.6582
1471.139, 182.8613
1472.181, 177.4023
1473.222, 134.5293
1474.263, 177.5781
1475.305, 93.17383
1476.346, 210.2754
1477.386, 216.7422
1478.427, 157.8867
1479.468, 202.7910
1480.508, 216.1992
1481.548, 272.4805
1482.588, 226.2578
1483.628, 226.3086
1484.668, 136.6113
1485.707, 203.7773
1486.747, 159.2246
1487.786, 245.9492
1488.825, 228.4375
1489.864, 202.3555
1490.902, 173.5684
1491.941, 230.2656
1492.979, 187.5293
1494.017, 245.7617
1495.055, 39.45508
1496.093, 184.2715
1497.131, 401.6230
1498.168, 461.7324
1499.206, 273.1309
1500.243, 157.4297
1501.280, 25.37695
1502.317, 190.1738
1503.354, 298.0742
1504.390, 82.92969
1505.426, 170.2617
1506.463, 137.6504
1507.499, 134.5156
1508.535, 143.0566
1509.570, 113.8672
1510.606, 168.5020
1511.641, 96.14648
1512.676, 104.0098
1513.711, 142.6328
1514.746, 273.9824
1515.781, 176.2402
1516.816, 10.87695
1517.850, 188.7148
1518.884, 15.12305
1519.918, 47.05859
1520.952, 216.5625
1521.986, 143.1348
1523.019, 133.4824
1524.053, 156.7363
1525.086, 155.0215
1526.119, 167.7031
1527.152, 303.4707
1528.185, 210.3320
1529.217, 212.4727
1530.250, 301.2656
1531.282, 109.5684
1532.314, 201.0176
1533.346, 52.02734
1534.377, 22.82617
1535.409, 359.1035
1536.440, 58.77148
1537.472, 87.27539
1538.503, 373.8027
1539.534, 231.6035
1540.564, 26.01758
1541.595, 203.3379
1542.625, 276.2324
1543.656, 143.1094
1544.686, 253.4004
1545.716, 157.9590
1546.745, 342.6465
1547.775, 418.4941
1548.804, 272.8203
1549.834, 257.6211
1550.863, 500.1543
1551.892, 504.5625
1552.920, 471.5742
1553.949, 606.1719
1554.977, 535.2344
1556.006, 274.8203
1557.034, 314.5371
1558.062, 24.38672
1559.089, 127.6484
1560.117, 35.11719
1561.144, 134.4512
1562.172, 190.1289
1563.199, 203.5625
1564.226, 87.64062
1565.252, 103.6211
1566.279, 183.1309
1567.305, 320.0781
1568.332, 1.068359
1569.358, 201.6152
1570.384, 0.0000000E+00
##END=



