##NAMES=Erythrite
##RRUFFID=R050073
##IDEAL CHEMISTRY=Co^2+^_3_(As^5+^O_4_)_2_&#183;8H_2_O
##LOCALITY=Bou Azzer, Morocco
##OWNER=RRUFF
##SOURCE=Rock Currier
##DESCRIPTION=Crimson flattened crystals
##STATUS=The identification of this mineral has been confirmed by X-ray diffraction and chemical analysis
##URL=rruff.info/R050073
##MEASURED CHEMISTRY=(Co_0.65_Mg_0.35_)_3_(As_1.00_O_4_)_2_Â·8H_2_O
##PIN_ID=M00098
##ORIENTATION=Laser parallel to (1 0 1). Fiducial mark perpendicular to laser is parallel to b [0 1 0]
93.48000, 0.0000000E+00
94.71400, 62.10254
95.94800, 90.90625
97.18200, 8.322754
98.41600, 16.28125
99.64900, 157.6226
100.8830, 52.38281
102.1160, 173.6392
103.3490, 748.6113
104.5820, 1568.345
105.8150, 2546.374
107.0470, 3362.979
108.2800, 3650.318
109.5120, 3973.906
110.7440, 3053.470
111.9760, 2507.324
113.2080, 2608.495
114.4400, 2798.868
115.6710, 3264.339
116.9030, 2908.816
118.1340, 2577.220
119.3650, 1857.476
120.5960, 1082.535
121.8270, 593.3779
123.0580, 427.9692
124.2880, 180.2539
125.5190, 71.81885
126.7490, 74.28809
127.9790, 99.19043
129.2090, 119.4453
130.4390, 124.2788
131.6680, 445.2114
132.8980, 411.2651
134.1270, 755.7197
135.3560, 1144.549
136.5850, 1614.730
137.8140, 2451.245
139.0430, 3387.075
140.2710, 4534.203
141.5000, 5678.615
142.7280, 6030.302
143.9560, 5889.254
145.1840, 5461.465
146.4120, 5329.940
147.6390, 5361.963
148.8670, 5480.402
150.0940, 5455.199
151.3210, 5306.247
152.5490, 4985.470
153.7750, 4162.867
155.0020, 3198.434
156.2290, 2212.171
157.4550, 1350.077
158.6810, 812.1519
159.9080, 426.4009
161.1340, 440.8320
162.3590, 337.4438
163.5850, 172.2363
164.8110, 304.2085
166.0360, 336.3589
167.2610, 445.6470
168.4860, 550.9546
169.7110, 522.2559
170.9360, 816.5957
172.1610, 737.9854
173.3850, 839.4326
174.6100, 831.9443
175.8340, 1080.523
177.0580, 1255.169
178.2820, 1564.888
179.5050, 1946.685
180.7290, 2181.562
181.9520, 2443.521
183.1760, 2623.552
184.3990, 2886.597
185.6220, 3184.874
186.8450, 3387.923
188.0670, 3805.225
189.2900, 4065.620
190.5120, 4343.110
191.7340, 4768.692
192.9560, 4897.369
194.1780, 5286.139
195.4000, 5637.001
196.6220, 5947.956
197.8430, 6496.731
199.0640, 6645.369
200.2860, 7591.136
201.5070, 8211.426
202.7270, 8745.788
203.9480, 8681.700
205.1690, 8174.328
206.3890, 8172.392
207.6090, 8182.190
208.8290, 8443.736
210.0490, 8706.369
211.2690, 8668.098
212.4890, 8573.915
213.7080, 8606.816
214.9280, 8418.811
216.1470, 8279.890
217.3660, 7979.057
218.5850, 7914.358
219.8030, 7901.765
221.0220, 7789.257
222.2400, 7875.859
223.4590, 7985.603
224.6770, 8296.567
225.8950, 8583.786
227.1120, 8679.200
228.3300, 8902.730
229.5480, 8966.361
230.7650, 9031.076
231.9820, 8927.924
233.1990, 8984.881
234.4160, 8685.938
235.6330, 8644.128
236.8490, 8392.400
238.0660, 8177.742
239.2820, 8291.134
240.4980, 8026.859
241.7140, 8240.380
242.9300, 8449.645
244.1460, 8426.617
245.3610, 8905.424
246.5770, 9384.438
247.7920, 10284.67
249.0070, 11177.06
250.2220, 12221.59
251.4370, 13238.25
252.6510, 14464.06
253.8660, 15845.00
255.0800, 17031.07
256.2940, 18007.19
257.5080, 18837.22
258.7220, 19731.40
259.9360, 19832.29
261.1490, 20199.11
262.3630, 19532.66
263.5760, 18964.30
264.7890, 18196.06
266.0020, 17468.92
267.2150, 16572.87
268.4270, 15376.93
269.6400, 13975.07
270.8520, 12759.30
272.0640, 11307.43
273.2760, 10023.62
274.4880, 8921.985
275.7000, 7845.545
276.9120, 6911.180
278.1230, 5977.885
279.3340, 5162.659
280.5450, 4459.062
281.7560, 3775.415
282.9670, 3330.390
284.1780, 2809.427
285.3880, 2537.523
286.5980, 2120.680
287.8090, 1750.893
289.0190, 1511.162
290.2290, 1328.486
291.4380, 1034.863
292.6480, 830.2935
293.8570, 661.7769
295.0670, 541.3105
296.2760, 389.8901
297.4850, 259.5176
298.6930, 272.1924
299.9020, 139.9131
301.1110, 103.6880
302.3190, 65.51367
303.5270, 50.61133
304.7350, 145.6846
305.9430, 103.7119
307.1510, 86.68848
308.3580, 109.5933
309.5660, 86.45410
310.7730, 62.25977
311.9800, 58.00293
313.1870, 9.709473
314.3940, 18.36523
315.6010, 119.9795
316.8070, 17.45166
318.0130, 91.06299
319.2200, 37.54785
320.4260, 26.98975
321.6310, 41.61328
322.8370, 169.2490
324.0430, 310.9170
325.2480, 373.6348
326.4540, 460.4131
327.6590, 655.2300
328.8640, 810.0737
330.0680, 921.9443
331.2730, 1053.062
332.4780, 1193.761
333.6820, 1242.484
334.8860, 1331.678
336.0900, 1407.672
337.2940, 1525.690
338.4980, 1562.828
339.7010, 1659.231
340.9050, 1881.574
342.1080, 1840.061
343.3110, 1946.327
344.5140, 2076.225
345.7170, 2292.094
346.9200, 2503.251
348.1220, 2838.957
349.3240, 3224.112
350.5270, 3627.298
351.7290, 4137.783
352.9310, 4563.672
354.1320, 5102.513
355.3340, 5775.227
356.5350, 6502.896
357.7370, 7107.929
358.9380, 7811.673
360.1390, 8286.896
361.3400, 8855.804
362.5400, 9313.018
363.7410, 9806.671
364.9410, 10101.26
366.1410, 10390.13
367.3410, 10679.83
368.5410, 10843.09
369.7410, 10911.01
370.9400, 10816.46
372.1400, 10721.72
373.3390, 10453.35
374.5380, 10203.22
375.7370, 9769.362
376.9360, 9495.339
378.1350, 8955.162
379.3330, 8265.727
380.5310, 7975.719
381.7300, 7246.516
382.9280, 6722.110
384.1260, 6152.010
385.3230, 5892.617
386.5210, 5151.276
387.7180, 4796.720
388.9160, 4472.265
390.1130, 3985.545
391.3100, 3744.501
392.5060, 3413.431
393.7030, 2901.478
394.9000, 2855.842
396.0960, 2489.798
397.2920, 2199.294
398.4880, 2145.358
399.6840, 1931.380
400.8800, 1813.944
402.0750, 1707.287
403.2710, 1635.629
404.4660, 1560.468
405.6610, 1430.940
406.8560, 1455.277
408.0510, 1434.615
409.2450, 1391.945
410.4400, 1442.277
411.6340, 1461.753
412.8280, 1552.061
414.0220, 1585.454
415.2160, 1719.835
416.4100, 1818.363
417.6030, 1949.667
418.7970, 2208.607
419.9900, 2294.907
421.1830, 2450.364
422.3760, 2875.643
423.5690, 3066.152
424.7610, 3493.988
425.9540, 3829.229
427.1460, 4206.458
428.3380, 4614.804
429.5300, 4972.875
430.7220, 5415.062
431.9140, 5759.234
433.1050, 6144.442
434.2970, 6639.620
435.4880, 6791.964
436.6790, 7043.837
437.8700, 6991.565
439.0610, 6693.699
440.2510, 6697.490
441.4420, 6469.414
442.6320, 6331.239
443.8220, 6001.099
445.0120, 5799.336
446.2020, 5370.523
447.3910, 5008.265
448.5810, 4641.441
449.7700, 4173.643
450.9600, 3991.908
452.1490, 3501.004
453.3370, 3179.993
454.5260, 2816.892
455.7150, 2497.549
456.9030, 2152.823
458.0910, 1997.546
459.2800, 1734.601
460.4670, 1728.522
461.6550, 1468.067
462.8430, 1241.516
464.0300, 1093.489
465.2180, 890.7544
466.4050, 804.0596
467.5920, 709.1909
468.7790, 554.2744
469.9650, 516.0293
471.1520, 437.4194
472.3380, 350.7764
473.5250, 351.1011
474.7110, 289.3926
475.8970, 237.6499
477.0820, 215.0840
478.2680, 161.5078
479.4540, 157.3398
480.6390, 72.45996
481.8240, 63.54541
483.0090, 0.5922850
484.1940, 29.41943
485.3780, 71.52051
486.5630, 195.3955
487.7470, 49.25977
488.9320, 100.0552
490.1160, 48.81445
491.3000, 35.47021
492.4830, 36.16357
493.6670, 55.25098
494.8500, 108.7212
496.0340, 43.35205
497.2170, 152.0708
498.4000, 70.93604
499.5820, 107.9043
500.7650, 30.00293
501.9480, 19.85693
503.1300, 40.34668
504.3120, 48.88379
505.4940, 36.54248
506.6760, 84.58594
507.8580, 19.85107
509.0390, 14.78223
510.2210, 8.619629
511.4020, 37.95459
512.5830, 41.76611
513.7640, 30.41797
514.9450, 47.54346
516.1250, 79.38379
517.3060, 65.57373
518.4860, 74.46338
519.6660, 29.30615
520.8460, 103.4653
522.0260, 75.19238
523.2060, 85.87256
524.3850, 100.4795
525.5650, 80.09619
526.7440, 52.63867
527.9230, 98.12695
529.1020, 59.57031
530.2810, 28.96094
531.4590, 67.29004
532.6380, 29.43213
533.8160, 29.75439
534.9940, 62.87891
536.1720, 157.9502
537.3500, 84.97998
538.5270, 60.96143
539.7050, 42.88965
540.8820, 81.75977
542.0590, 118.5820
543.2360, 204.3584
544.4130, 189.0933
545.5900, 92.78662
546.7660, 134.4321
547.9430, 177.0342
549.1190, 165.1685
550.2950, 186.3472
551.4710, 243.5859
552.6470, 128.0186
553.8220, 204.4072
554.9980, 62.75342
556.1730, 145.0469
557.3480, 116.2974
558.5230, 194.5039
559.6980, 82.66748
560.8730, 175.7822
562.0470, 121.8545
563.2220, 165.8828
564.3960, 111.8687
565.5700, 83.80957
566.7440, 199.7021
567.9170, 206.5532
569.0910, 208.3613
570.2640, 191.1279
571.4380, 168.8525
572.6110, 169.0767
573.7840, 143.1758
574.9570, 145.7734
576.1290, 108.3291
577.3020, 68.84082
578.4740, 74.30371
579.6460, 136.7183
580.8180, 58.09082
581.9900, 61.41260
583.1620, 73.68506
584.3330, 6.909668
585.5040, 18.06689
586.6760, 18.16162
587.8470, 7.805176
589.0180, 46.84180
590.1880, 40.95557
591.3590, 114.1489
592.5290, 28.46240
593.7000, 63.84814
594.8700, 84.32568
596.0400, 18.08984
597.2090, 27.54785
598.3790, 10.73438
599.5490, 56.04248
600.7180, 38.90088
601.8870, 14.15479
603.0560, 11.83789
604.2250, 17.89697
605.3940, 46.97314
606.5620, 42.79736
607.7300, 33.42383
608.8990, 81.72461
610.0670, 1.871582
611.2350, 130.4121
612.4020, 126.9150
613.5700, 117.3813
614.7370, 129.8105
615.9050, 116.7788
617.0720, 95.54883
618.2390, 117.8896
619.4060, 61.18262
620.5720, 91.44141
621.7390, 123.5669
622.9050, 117.6030
624.0710, 153.3086
625.2370, 62.04541
626.4030, 102.9893
627.5690, 57.04297
628.7340, 67.54639
629.9000, 82.17383
631.0650, 108.8418
632.2300, 84.73291
633.3950, 74.55811
634.5600, 26.05859
635.7240, 181.1401
636.8890, 100.2554
638.0530, 179.4824
639.2170, 51.74609
640.3810, 77.63184
641.5450, 188.7925
642.7080, 134.4897
643.8720, 18.57959
645.0350, 212.0698
646.1980, 55.74072
647.3610, 69.49316
648.5240, 61.58301
649.6870, 57.49316
650.8490, 45.98242
652.0120, 115.7998
653.1740, 111.0581
654.3360, 60.49707
655.4980, 115.5376
656.6600, 97.32520
657.8210, 39.18506
658.9830, 20.55713
660.1440, 251.2012
661.3050, 41.20020
662.4660, 114.7471
663.6270, 111.4668
664.7870, 88.36621
665.9480, 99.93945
667.1080, 112.2954
668.2680, 89.60547
669.4280, 152.6235
670.5880, 173.5449
671.7480, 177.7256
672.9070, 220.2266
674.0670, 239.1157
675.2260, 337.1465
676.3850, 317.2197
677.5440, 339.1030
678.7030, 365.1812
679.8610, 325.9692
681.0200, 352.3525
682.1780, 350.1846
683.3360, 282.2295
684.4940, 515.2661
685.6520, 449.7974
686.8090, 555.6851
687.9670, 458.6978
689.1240, 534.7007
690.2810, 639.6997
691.4380, 534.6919
692.5950, 650.5229
693.7520, 597.5034
694.9080, 645.3921
696.0650, 816.2822
697.2210, 738.0210
698.3770, 832.9829
699.5330, 861.3091
700.6880, 897.2642
701.8440, 902.0469
702.9990, 982.1157
704.1550, 1061.699
705.3100, 1124.062
706.4650, 1195.005
707.6190, 1243.948
708.7740, 1270.890
709.9290, 1342.740
711.0830, 1350.772
712.2370, 1424.714
713.3910, 1475.604
714.5450, 1534.232
715.6980, 1571.235
716.8520, 1655.417
718.0050, 1711.729
719.1580, 1732.620
720.3110, 1908.606
721.4640, 1843.696
722.6170, 1909.060
723.7700, 2013.165
724.9220, 1935.874
726.0740, 2107.619
727.2260, 2136.905
728.3780, 2192.776
729.5300, 2299.052
730.6810, 2370.773
731.8330, 2374.915
732.9840, 2514.878
734.1350, 2416.602
735.2860, 2537.655
736.4370, 2615.041
737.5880, 2702.841
738.7380, 2751.542
739.8880, 2753.373
741.0390, 2891.504
742.1890, 2962.739
743.3380, 3076.843
744.4880, 3202.902
745.6380, 3316.278
746.7870, 3458.906
747.9360, 3509.696
749.0850, 3666.963
750.2340, 3907.547
751.3830, 3950.689
752.5310, 4164.423
753.6800, 4327.368
754.8280, 4475.682
755.9760, 4800.603
757.1240, 4841.956
758.2720, 5326.817
759.4190, 5584.211
760.5670, 5812.629
761.7140, 6445.068
762.8610, 6641.602
764.0080, 7311.089
765.1550, 7717.641
766.3020, 8525.277
767.4480, 9124.261
768.5950, 9964.981
769.7410, 10953.74
770.8870, 12227.48
772.0330, 13491.26
773.1780, 14985.13
774.3240, 16859.05
775.4690, 18933.02
776.6140, 21197.08
777.7590, 23630.49
778.9040, 26472.69
780.0490, 29226.96
781.1940, 32417.23
782.3380, 35846.65
783.4820, 38928.02
784.6260, 42401.97
785.7700, 44853.39
786.9140, 47161.29
788.0580, 48903.81
789.2010, 50019.38
790.3450, 50352.99
791.4880, 50093.65
792.6310, 49173.36
793.7730, 47407.11
794.9160, 45227.93
796.0590, 42696.82
797.2010, 39653.35
798.3430, 36641.29
799.4850, 33682.29
800.6270, 30552.32
801.7690, 27582.39
802.9100, 24789.49
804.0520, 22407.62
805.1930, 20051.79
806.3340, 18093.01
807.4750, 16571.27
808.6160, 15050.59
809.7560, 13661.95
810.8970, 12470.37
812.0370, 11581.84
813.1770, 10526.35
814.3170, 9620.884
815.4570, 9042.457
816.5960, 8309.083
817.7360, 7680.749
818.8750, 7204.454
820.0140, 6876.198
821.1530, 6389.977
822.2920, 6025.798
823.4310, 5586.662
824.5690, 5312.565
825.7070, 5077.506
826.8460, 4803.480
827.9840, 4594.489
829.1220, 4378.284
830.2590, 4165.705
831.3970, 3980.730
832.5340, 3807.888
833.6710, 3607.082
834.8080, 3492.313
835.9450, 3431.582
837.0820, 3280.890
838.2190, 3263.234
839.3550, 3157.620
840.4910, 3296.042
841.6270, 3268.502
842.7630, 3377.000
843.8990, 3384.536
845.0350, 3605.108
846.1700, 3763.717
847.3060, 3811.362
848.4410, 3928.046
849.5760, 4199.767
850.7100, 4244.525
851.8450, 4036.320
852.9800, 4206.154
854.1140, 4041.029
855.2480, 3956.943
856.3820, 3645.896
857.5160, 3325.891
858.6500, 3000.928
859.7830, 2789.005
860.9170, 2437.133
862.0500, 2090.310
863.1830, 1843.533
864.3160, 1643.812
865.4480, 1380.158
866.5810, 1213.582
867.7130, 975.0859
868.8460, 749.6504
869.9780, 637.2832
871.1100, 486.9961
872.2410, 442.7559
873.3730, 333.5820
874.5050, 325.4570
875.6360, 177.4033
876.7670, 192.4102
877.8980, 200.4639
879.0290, 33.58301
880.1590, 116.7568
881.2900, 152.9717
882.4200, 9.769531
883.5500, 20.43848
884.6800, 48.03516
885.8100, 53.41016
886.9400, 25.89355
888.0690, 90.04590
889.1990, 33.61133
890.3280, 16.21289
891.4570, 80.14355
892.5860, 17.52148
893.7140, 40.72656
894.8430, 48.01367
895.9710, 49.83301
897.1000, 45.65234
898.2280, 5.492188
899.3560, 35.39941
900.4830, 56.26953
901.6110, 7.330078
902.7380, 27.46875
903.8660, 57.75195
904.9930, 57.71582
906.1200, 58.00781
907.2460, 141.3193
908.3730, 88.48535
909.5000, 13.54492
910.6260, 121.5947
911.7520, 57.91602
912.8780, 5.993164
914.0040, 52.39355
915.1290, 1.601563
916.2550, 106.8174
917.3800, 69.41406
918.5050, 161.0645
919.6300, 131.5752
920.7550, 60.13574
921.8800, 148.7275
923.0040, 129.3623
924.1290, 131.0303
925.2530, 148.8682
926.3770, 149.3818
927.5010, 202.3369
928.6250, 243.1299
929.7480, 143.8477
930.8720, 165.7656
931.9950, 96.65918
933.1180, 178.5840
934.2410, 178.5371
935.3640, 319.5635
936.4860, 242.5723
937.6090, 372.0537
938.7310, 407.1338
939.8530, 276.2432
940.9750, 200.3057
942.0970, 286.1934
943.2180, 391.4082
944.3400, 365.7070
945.4610, 468.4062
946.5820, 520.1826
947.7030, 449.4844
948.8240, 449.8105
949.9450, 470.1621
951.0650, 521.1465
952.1860, 485.5459
953.3060, 496.8877
954.4260, 523.5654
955.5460, 600.0391
956.6650, 552.5576
957.7850, 691.2578
958.9040, 624.7988
960.0230, 625.3613
961.1420, 611.9463
962.2610, 536.5527
963.3800, 573.1807
964.4990, 581.8301
965.6170, 541.5000
966.7350, 598.1914
967.8530, 588.1357
968.9710, 660.8662
970.0890, 532.9482
971.2070, 566.7178
972.3240, 553.7695
973.4410, 678.6436
974.5580, 734.5195
975.6750, 726.0039
976.7920, 460.1826
977.9090, 526.6602
979.0250, 460.0225
980.1410, 387.9434
981.2580, 501.2412
982.3740, 481.6172
983.4890, 372.5898
984.6050, 324.5801
985.7200, 388.5879
986.8360, 343.6133
987.9510, 292.6553
989.0660, 233.7119
990.1810, 283.7852
991.2950, 185.8730
992.4100, 237.9766
993.5240, 258.0938
994.6390, 377.2256
995.7530, 232.3721
996.8660, 131.5322
997.9800, 292.7080
999.0940, 216.5039
1000.207, 291.5703
1001.320, 124.7891
1002.433, 267.0205
1003.546, 211.2627
1004.659, 68.71973
1005.772, 193.9834
1006.884, 122.8682
1007.996, 82.47852
1009.108, 264.6436
1010.220, 131.9502
1011.332, 175.4258
1012.444, 73.01562
1013.555, 150.3525
1014.666, 147.6963
1015.777, 44.47070
1016.888, 149.3164
1017.999, 93.18848
1019.110, 102.0146
1020.220, 77.39648
1021.331, 7.377930
1022.441, 95.83789
1023.551, 40.23242
1024.661, 89.41797
1025.770, 101.2725
1026.880, 11.05664
1027.989, 20.86328
1029.098, 11.56934
1030.207, 57.03223
1031.316, 123.4551
1032.425, 22.82324
1033.533, 53.38477
1034.642, 39.01172
1035.750, 50.87402
1036.858, 25.24805
1037.966, 10.40820
1039.073, 63.75684
1040.181, 54.63281
1041.288, 27.76270
1042.396, 29.00391
1043.503, 28.17676
1044.610, 53.14844
1045.716, 2.110352
1046.823, 15.09668
1047.929, 22.48340
1049.036, 120.7051
1050.142, 15.63770
1051.248, 53.52002
1052.353, 62.72705
1053.459, 123.6421
1054.564, 36.84424
1055.670, 55.06934
1056.775, 21.51318
1057.880, 12.79443
1058.985, 2.616699
1060.089, 10.39697
1061.194, 31.80322
1062.298, 59.08936
1063.402, 18.97607
1064.506, 135.2568
1065.610, 54.47217
1066.713, 118.6245
1067.817, 23.27734
1068.920, 76.83740
1070.023, 8.775879
1071.126, 56.82422
1072.229, 73.58691
1073.332, 18.26172
1074.435, 14.12549
1075.537, 19.26562
1076.639, 19.82764
1077.741, 12.25098
1078.843, 11.35791
1079.945, 68.06201
1081.046, 38.97119
1082.148, 87.12354
1083.249, 8.935547
1084.350, 68.93262
1085.451, 4.734863
1086.551, 23.57471
1087.652, 79.40186
1088.752, 13.78174
1089.853, 1.006836
1090.953, 4.833496
1092.053, 71.58301
1093.152, 59.39453
1094.252, 134.1201
1095.351, 113.8345
1096.451, 60.70166
1097.550, 88.39355
1098.649, 96.07275
1099.748, 30.74121
1100.846, 209.3940
1101.945, 28.03662
1103.043, 90.66357
1104.141, 182.3960
1105.239, 12.02930
1106.337, 93.61035
1107.434, 110.2124
1108.532, 97.76904
1109.629, 70.31152
1110.726, 171.8408
1111.823, 132.3560
1112.920, 77.85693
1114.017, 39.89502
1115.113, 147.3652
1116.210, 118.8218
1117.306, 150.5820
1118.402, 84.23291
1119.498, 98.75830
1120.593, 169.1548
1121.689, 204.5366
1122.784, 156.9033
1123.879, 135.2549
1124.974, 92.59229
1126.069, 179.9141
1127.164, 163.2192
1128.259, 129.7251
1129.353, 184.2222
1130.447, 36.59229
1131.541, 10.22119
1132.635, 93.20117
1133.729, 104.3960
1134.822, 127.5532
1135.916, 22.69482
1137.009, 82.80762
1138.102, 13.90479
1139.195, 54.21533
1140.288, 34.64355
1141.380, 85.05029
1142.473, 65.87012
1143.565, 3.006348
1144.657, 180.1836
1145.749, 121.1079
1146.841, 56.02344
1147.932, 16.95605
1149.024, 44.89258
1150.115, 71.44873
1151.206, 134.6680
1152.297, 42.82422
1153.388, 43.17041
1154.479, 185.0435
1155.569, 46.04150
1156.659, 89.82373
1157.750, 27.49902
1158.839, 188.2314
1159.929, 30.88184
1161.019, 94.77588
1162.108, 166.3511
1163.198, 115.0073
1164.287, 71.54346
1165.376, 5.883789
1166.465, 56.39258
1167.553, 21.16553
1168.642, 57.57227
1169.730, 67.18994
1170.818, 10.93604
1171.906, 85.89990
1172.994, 131.1978
1174.082, 51.75635
1175.170, 41.77197
1176.257, 137.9556
1177.344, 94.55518
1178.431, 73.70166
1179.518, 121.2417
1180.605, 54.38184
1181.691, 8.205566
1182.778, 139.4229
1183.864, 4.779297
1184.950, 125.8394
1186.036, 147.0483
1187.122, 69.06689
1188.207, 93.06201
1189.292, 14.12207
1190.378, 105.4121
1191.463, 106.4194
1192.548, 29.44775
1193.632, 26.43018
1194.717, 79.48682
1195.801, 90.31152
1196.886, 105.2842
1197.970, 171.9741
1199.054, 106.6938
1200.137, 29.81396
1201.221, 19.91064
1202.305, 37.91016
1203.388, 94.86865
1204.471, 91.66748
1205.554, 118.5483
1206.637, 17.10791
1207.719, 53.58496
1208.802, 76.66650
1209.884, 27.67676
1210.966, 203.1650
1212.048, 68.63330
1213.130, 107.3862
1214.212, 166.2700
1215.293, 19.67529
1216.374, 197.1396
1217.456, 178.2705
1218.536, 134.6216
1219.617, 148.0576
1220.698, 104.4844
1221.778, 117.8428
1222.859, 101.1309
1223.939, 122.3833
1225.019, 123.6182
1226.099, 81.83301
1227.178, 126.0283
1228.258, 166.2041
1229.337, 144.3608
1230.417, 159.5850
1231.496, 123.3809
1232.574, 149.7153
1233.653, 97.03027
1234.732, 118.0889
1235.810, 134.4023
1236.888, 117.4712
1237.966, 145.1602
1239.044, 133.8193
1240.122, 166.7817
1241.199, 166.7256
1242.277, 158.6519
1243.354, 41.55811
1244.431, 152.2344
1245.508, 184.2188
1246.585, 65.06396
1247.661, 76.88721
1248.738, 103.7554
1249.814, 156.5547
1250.890, 156.5386
1251.966, 164.9951
1253.042, 216.3154
1254.117, 144.2739
1255.193, 192.9761
1256.268, 176.4253
1257.343, 82.32275
1258.418, 80.96387
1259.493, 107.5840
1260.567, 14.57617
1261.642, 77.28711
1262.716, 127.8379
1263.790, 149.4336
1264.864, 151.2734
1265.938, 172.5625
1267.011, 181.5474
1268.085, 73.55469
1269.158, 55.66309
1270.231, 54.68652
1271.304, 17.48535
1272.377, 95.10107
1273.450, 74.18359
1274.522, 146.5068
1275.594, 135.8428
1276.666, 101.6108
1277.738, 129.6582
1278.810, 19.17773
1279.882, 48.21631
1280.953, 53.41748
1282.025, 77.83984
1283.096, 95.19727
1284.167, 62.57715
1285.238, 106.3291
1286.308, 157.4019
1287.379, 96.12500
1288.449, 122.1978
1289.519, 54.18994
1290.589, 196.3125
1291.659, 103.3267
1292.729, 158.5293
1293.798, 181.2661
1294.868, 106.3364
1295.937, 190.7266
1297.006, 229.8091
1298.075, 75.20264
1299.143, 125.7554
1300.212, 3.311035
1301.280, 144.7412
1302.348, 101.1455
1303.416, 162.5479
1304.484, 6.666016
1305.552, 195.6064
1306.620, 144.5342
1307.687, 161.1816
1308.754, 178.6543
1309.821, 163.7256
1310.888, 97.21680
1311.955, 58.98340
1313.021, 168.1270
1314.088, 79.85352
1315.154, 179.5615
1316.220, 148.9795
1317.286, 66.56055
1318.352, 88.80859
1319.417, 53.53711
1320.483, 89.34473
1321.548, 123.5518
1322.613, 54.55078
1323.678, 143.2197
1324.743, 102.0684
1325.807, 127.1084
1326.872, 155.6514
1327.936, 38.14844
1329.000, 232.8037
1330.064, 80.44336
1331.128, 42.53027
1332.191, 92.49512
1333.255, 147.0840
1334.318, 119.5645
1335.381, 201.3594
1336.444, 204.6338
1337.507, 148.5264
1338.569, 208.5723
1339.632, 130.1299
1340.694, 42.40332
1341.756, 99.76660
1342.818, 135.1738
1343.880, 117.0439
1344.941, 148.7246
1346.003, 220.7383
1347.064, 87.20508
1348.125, 46.78027
1349.186, 98.43652
1350.247, 186.7793
1351.308, 199.0361
1352.368, 221.7227
1353.428, 178.0303
1354.489, 130.7002
1355.549, 165.9834
1356.608, 142.2559
1357.668, 237.5156
1358.727, 162.8330
1359.787, 12.06348
1360.846, 61.54297
1361.905, 136.8096
1362.964, 64.39941
1364.022, 106.4033
1365.081, 61.52734
1366.139, 86.72949
1367.197, 133.5820
1368.255, 140.9062
1369.313, 181.3486
1370.371, 183.5332
1371.428, 188.5273
1372.486, 89.53125
1373.543, 168.7588
1374.600, 148.8398
1375.657, 102.8994
1376.713, 154.7402
1377.770, 72.72852
1378.826, 163.7100
1379.882, 55.62598
1380.938, 64.63477
1381.994, 164.6689
1383.050, 154.8350
1384.106, 224.7139
1385.161, 216.3936
1386.216, 273.0088
1387.271, 234.3408
1388.326, 231.5723
1389.381, 137.1523
1390.435, 104.9238
1391.490, 42.27637
1392.544, 141.4658
1393.598, 19.21191
1394.652, 80.96289
1395.705, 150.7715
1396.759, 49.09766
1397.812, 134.9053
1398.866, 133.7402
1399.919, 201.2275
1400.972, 135.6270
1402.024, 31.75781
1403.077, 173.2207
1404.129, 9.326172
1405.181, 207.2461
1406.233, 185.0732
1407.285, 143.4395
1408.337, 99.70703
1409.389, 114.4014
1410.440, 63.25879
1411.491, 29.81738
1412.542, 126.5625
1413.593, 117.2061
1414.644, 154.4570
1415.695, 63.82715
1416.745, 86.81641
1417.795, 163.2412
1418.845, 68.42871
1419.895, 89.29785
1420.945, 102.8906
1421.995, 164.0518
1423.044, 208.2637
1424.093, 146.5625
1425.142, 130.5625
1426.191, 26.72656
1427.240, 6.078125
1428.289, 18.80566
1429.337, 11.17871
1430.385, 213.1826
1431.433, 97.47949
1432.481, 86.45215
1433.529, 211.5322
1434.577, 1.683594
1435.624, 85.47070
1436.672, 53.68945
1437.719, 148.3467
1438.766, 90.89941
1439.812, 136.5967
1440.859, 142.0791
1441.905, 426.0439
1442.952, 261.4746
1443.998, 250.6064
1445.044, 83.34570
1446.090, 61.40137
1447.135, 8.893555
1448.181, 34.56836
1449.226, 55.42969
1450.271, 30.34570
1451.316, 12.86621
1452.361, 157.3066
1453.405, 141.1113
1454.450, 135.0107
1455.494, 88.90137
1456.538, 45.78320
1457.582, 8.248047
1458.626, 64.10938
1459.670, 146.9463
1460.713, 31.28418
1461.757, 88.98633
1462.800, 0.7656250
1463.843, 32.52930
1464.886, 90.28125
1465.928, 95.02246
1466.971, 135.7920
1468.013, 192.2256
1469.055, 28.56836
1470.097, 48.07812
1471.139, 33.26953
1472.181, 94.37207
1473.222, 67.84961
1474.263, 36.38477
1475.305, 128.6855
1476.346, 192.8779
1477.386, 36.10156
1478.427, 325.6221
1479.468, 16.13965
1480.508, 122.6553
1481.548, 128.0820
1482.588, 186.1328
1483.628, 103.6709
1484.668, 133.7246
1485.707, 59.19922
1486.747, 79.67578
1487.786, 53.71484
1488.825, 122.6592
1489.864, 176.0703
1490.902, 105.3262
1491.941, 0.7177730
1492.979, 70.08203
1494.017, 40.08789
1495.055, 98.24414
1496.093, 83.06543
1497.131, 62.30859
1498.168, 80.66113
1499.206, 39.28711
1500.243, 55.94727
1501.280, 51.60840
1502.317, 176.3271
1503.354, 116.4365
1504.390, 180.6719
1505.426, 84.60938
1506.463, 75.75684
1507.499, 41.92090
1508.535, 107.8389
1509.570, 99.46973
1510.606, 109.4355
1511.641, 109.6777
1512.676, 137.2949
1513.711, 153.6973
1514.746, 203.3848
1515.781, 202.1455
1516.816, 239.9199
1517.850, 266.3164
1518.884, 105.5967
1519.918, 34.34766
1520.952, 121.3105
1521.986, 7.061523
1523.019, 210.0371
1524.053, 115.4170
1525.086, 134.7676
1526.119, 195.5479
1527.152, 22.71289
1528.185, 209.6377
1529.217, 134.4189
1530.250, 141.6533
1531.282, 48.46387
1532.314, 75.43555
1533.346, 19.82129
1534.377, 8.151367
1535.409, 22.74707
1536.440, 3.371094
1537.472, 25.34766
1538.503, 84.18359
1539.534, 75.59668
1540.564, 218.2988
1541.595, 60.13281
1542.625, 128.8623
1543.656, 4.500000
1544.686, 14.05566
1545.716, 141.8008
1546.745, 198.5244
1547.775, 63.82031
1548.804, 100.9990
1549.834, 199.7646
1550.863, 300.5361
1551.892, 514.9121
1552.920, 456.1104
1553.949, 580.5205
1554.977, 525.5234
1556.006, 398.0410
1557.034, 45.66309
1558.062, 15.93457
1559.089, 94.28125
1560.117, 4.153320
1561.144, 99.48438
1562.172, 52.63574
1563.199, 165.2471
1564.226, 96.88379
1565.252, 95.60449
1566.279, 71.05566
1567.305, 83.72363
1568.332, 0.5078130
1569.358, 89.37695
1570.384, 0.0000000E+00
##END=



