##NAMES=Fayalite
##RRUFFID=R070374
##IDEAL CHEMISTRY=Fe^2+^_2_SiO_4_
##LOCALITY=Little Lake, Lake County, California, USA
##OWNER=RRUFF
##SOURCE=Michael Scott
##DESCRIPTION=Large dark brown crystal fragment
##STATUS=The identification of this mineral has been confirmed by X-ray diffraction and chemical analysis
##URL=rruff.info/R070374
##MEASURED CHEMISTRY=(Fe^2+^_1.89_Mn^2+^_0.11_)_Î£=2_Si_1.00_O_4_ ; trace amounts of Mg
##PIN_ID=M01077
##ORIENTATION=Laser parallel to a* (1 0 0). Fiducial mark perpendicular to laser is parallel to b [0 1 0]
83.24300, 0.0000000E+00
84.48300, 87.92395
85.72200, 15.14087
86.96100, 21.24438
88.20000, 2.285522
89.43900, 49.09741
90.67800, 48.94421
91.91600, 70.48950
93.15500, 83.91040
94.39300, 103.3727
95.63100, 109.5195
96.86900, 127.3489
98.10600, 142.1223
99.34400, 154.6754
100.5810, 175.4207
101.8190, 189.9786
103.0560, 216.3942
104.2930, 262.7004
105.5290, 314.9227
106.7660, 299.8519
108.0020, 416.5247
109.2390, 309.4924
110.4750, 345.9849
111.7110, 367.9595
112.9460, 317.0071
114.1820, 369.2444
115.4170, 474.6508
116.6530, 458.0957
117.8880, 583.5793
119.1230, 572.1016
120.3580, 556.6611
121.5920, 550.2561
122.8270, 465.8844
124.0610, 359.5447
125.2950, 209.2356
126.5290, 112.9561
127.7630, 88.70483
128.9970, 78.48047
130.2300, 66.28223
131.4640, 20.10889
132.6970, 33.04053
133.9300, 29.16895
135.1630, 9.276855
136.3950, 1.363770
137.6280, 90.57080
138.8600, 64.52795
140.0920, 89.50952
141.3240, 73.51611
142.5560, 73.03137
143.7880, 80.33936
145.0190, 78.87756
146.2510, 88.24622
147.4820, 101.3208
148.7130, 108.3347
149.9440, 122.4268
151.1750, 129.5433
152.4050, 157.6804
153.6360, 229.8369
154.8660, 316.0118
156.0960, 328.2046
157.3260, 405.4148
158.5560, 463.6367
159.7850, 667.8647
161.0150, 865.1013
162.2440, 1201.350
163.4730, 1452.610
164.7020, 1804.882
165.9310, 2296.166
167.1590, 3100.461
168.3880, 4011.767
169.6160, 5326.083
170.8440, 6412.409
172.0720, 6700.739
173.3000, 6165.079
174.5280, 4806.428
175.7550, 3422.783
176.9820, 2239.147
178.2100, 1500.520
179.4370, 936.9011
180.6630, 616.2908
181.8900, 412.6765
183.1170, 299.0310
184.3430, 224.3925
185.5690, 186.7654
186.7950, 198.1552
188.0210, 172.5814
189.2470, 93.01746
190.4720, 105.4701
191.6970, 57.93237
192.9230, 101.4425
194.1480, 119.9847
195.3730, 157.5609
196.5970, 136.1692
197.8220, 110.7926
199.0460, 140.4225
200.2700, 153.0797
201.4940, 169.7478
202.7180, 77.42102
203.9420, 16.89880
205.1660, 8.196289
206.3890, 26.48352
207.6120, 2.235229
208.8350, 18.04077
210.0580, 25.68616
211.2810, 64.75574
212.5040, 100.8357
213.7260, 101.5658
214.9480, 123.4493
216.1700, 197.4026
217.3920, 253.1338
218.6140, 294.8575
219.8360, 304.5754
221.0570, 386.2933
222.2790, 510.0138
223.5000, 647.7368
224.7210, 737.4626
225.9410, 935.1912
227.1620, 1041.922
228.3820, 1285.657
229.6030, 1555.394
230.8230, 1996.200
232.0430, 2333.864
233.2630, 2734.378
234.4820, 3286.984
235.7020, 3710.276
236.9210, 4156.932
238.1400, 4654.599
239.3590, 4778.279
240.5780, 4776.968
241.7970, 4537.666
243.0150, 4023.369
244.2340, 3567.070
245.4520, 3025.771
246.6700, 2620.473
247.8880, 2274.177
249.1060, 1882.884
250.3230, 1636.594
251.5400, 1415.309
252.7580, 1246.027
253.9750, 1117.750
255.1920, 1001.424
256.4080, 976.0455
257.6250, 824.6729
258.8410, 788.3097
260.0580, 696.9557
261.2740, 658.6097
262.4900, 632.2710
263.7050, 573.9395
264.9210, 592.6147
266.1360, 574.2965
267.3520, 550.9850
268.5670, 515.6798
269.7820, 511.3807
270.9960, 563.0876
272.2110, 571.8000
273.4250, 609.5186
274.6400, 665.2423
275.8540, 628.9929
277.0680, 759.7273
278.2810, 738.5767
279.4950, 799.2251
280.7090, 872.1448
281.9220, 975.4323
283.1350, 1007.252
284.3480, 1129.099
285.5610, 1073.908
286.7730, 1182.812
287.9860, 1205.706
289.1980, 1259.292
290.4100, 1234.838
291.6220, 1243.727
292.8340, 1125.587
294.0460, 1041.446
295.2570, 989.8186
296.4690, 793.6854
297.6800, 725.6260
298.8910, 650.0283
300.1020, 624.9600
301.3120, 549.2180
302.5230, 503.4408
303.7330, 488.4062
304.9440, 474.5023
306.1540, 515.5115
307.3630, 472.8516
308.5730, 477.1595
309.7830, 460.0880
310.9920, 431.0588
312.2010, 360.9221
313.4100, 345.9431
314.6190, 281.1605
315.8280, 225.1603
317.0370, 220.0594
318.2450, 173.9170
319.4530, 152.8083
320.6610, 166.7587
321.8690, 102.8009
323.0770, 63.79675
324.2850, 106.9799
325.4920, 85.50964
326.6990, 58.51880
327.9060, 35.66785
329.1130, 12.55566
330.3200, 16.61902
331.5270, 40.58203
332.7330, 57.49475
333.9390, 15.33252
335.1450, 24.17078
336.3510, 7.990356
337.5570, 43.84766
338.7630, 8.185547
339.9680, 15.65723
341.1740, 54.63062
342.3790, 35.52710
343.5840, 1.625000
344.7890, 5.221924
345.9930, 4.928833
347.1980, 35.91870
348.4020, 76.76685
349.6060, 44.08069
350.8100, 52.75134
352.0140, 86.53394
353.2180, 68.38000
354.4210, 78.65405
355.6250, 122.5092
356.8280, 83.36267
358.0310, 99.21411
359.2340, 148.0708
360.4360, 173.9258
361.6390, 175.7825
362.8410, 219.6465
364.0430, 222.5099
365.2450, 283.3723
366.4470, 284.2480
367.6490, 262.1274
368.8510, 245.0088
370.0520, 262.8933
371.2530, 296.7760
372.4540, 288.6622
373.6550, 267.5493
374.8560, 297.4360
376.0560, 236.3246
377.2570, 233.2147
378.4570, 248.1045
379.6570, 244.9935
380.8570, 220.8826
382.0570, 207.7712
383.2560, 133.6580
384.4560, 166.5430
385.6550, 142.4260
386.8540, 164.3069
388.0530, 166.1854
389.2520, 166.0614
390.4510, 140.9360
391.6490, 123.8247
392.8470, 178.7107
394.0450, 92.59448
395.2430, 149.4836
396.4410, 168.3717
397.6390, 140.2568
398.8360, 141.1389
400.0340, 94.01843
401.2310, 141.8954
402.4280, 176.7703
403.6250, 123.6421
404.8210, 162.5110
406.0180, 164.3777
407.2140, 144.2461
408.4100, 126.1117
409.6060, 113.9752
410.8020, 130.8352
411.9980, 126.6918
413.1930, 119.5542
414.3890, 107.4130
415.5840, 56.27258
416.7790, 87.12878
417.9740, 42.98096
419.1680, 28.83081
420.3630, 66.67883
421.5570, 8.522583
422.7510, 30.36731
423.9450, 31.22375
425.1390, 10.08398
426.3330, 1.947876
427.5270, 16.80640
428.7200, 27.67102
429.9130, 7.539551
431.1060, 10.40198
432.2990, 9.741333
433.4920, 24.89709
434.6840, 10.92664
435.8770, 17.74976
437.0690, 19.57166
438.2610, 5.612183
439.4530, 20.20972
440.6450, 8.028320
441.8360, 54.84021
443.0280, 39.34363
444.2190, 18.55688
445.4100, 17.78870
446.6010, 8.961182
447.7920, 31.29614
448.9820, 5.420898
450.1730, 18.86938
451.3630, 18.17920
452.5530, 17.49390
453.7430, 12.15991
454.9330, 34.81848
456.1230, 7.472412
457.3120, 15.88159
458.5010, 12.25439
459.6910, 29.35596
460.8800, 39.95898
462.0680, 32.55530
463.2570, 19.14441
464.4460, 8.725708
465.6340, 14.29846
466.8220, 14.13696
468.0100, 3.591309
469.1980, 13.94104
470.3860, 3.464722
471.5730, 38.04456
472.7600, 9.550781
473.9480, 21.08813
475.1350, 33.58130
476.3210, 53.11853
477.5080, 60.62451
478.6950, 91.14941
479.8810, 63.40417
481.0670, 23.90027
482.2530, 81.42102
483.4390, 23.01099
484.6250, 43.68091
485.8100, 71.17151
486.9960, 113.5480
488.1810, 131.6542
489.3660, 115.9486
490.5510, 133.6494
491.7360, 164.1515
492.9200, 176.5721
494.1050, 192.0359
495.2890, 212.7607
496.4730, 237.4229
497.6570, 294.2109
498.8400, 246.9130
500.0240, 281.4722
501.2070, 342.3811
502.3910, 369.8137
503.5740, 423.1295
504.7570, 388.4993
505.9400, 459.0361
507.1220, 467.4510
508.3050, 388.2296
509.4870, 364.7394
510.6690, 355.8094
511.8510, 386.1770
513.0330, 325.4307
514.2140, 301.9102
515.3960, 312.6993
516.5770, 246.3667
517.7580, 222.3917
518.9390, 220.2426
520.1200, 201.5787
521.3010, 196.9327
522.4810, 138.1389
523.6610, 149.0383
524.8420, 195.7729
526.0220, 146.9760
527.2010, 168.1116
528.3810, 176.2961
529.5610, 156.3833
530.7400, 157.4597
531.9190, 160.6729
533.0980, 144.6763
534.2770, 174.7208
535.4560, 172.8549
536.6340, 182.7629
537.8120, 194.7267
538.9910, 199.8837
540.1690, 208.1071
541.3460, 217.1519
542.5240, 225.1309
543.7020, 230.2161
544.8790, 253.1608
546.0560, 260.1332
547.2330, 283.1427
548.4100, 297.1180
549.5870, 316.1062
550.7630, 356.2008
551.9400, 392.0776
553.1160, 364.9429
554.2920, 319.9114
555.4680, 339.7537
556.6440, 288.5541
557.8190, 284.4386
558.9950, 247.2458
560.1700, 236.2701
561.3450, 174.4756
562.5200, 213.2474
563.6950, 235.2095
564.8690, 250.5277
566.0440, 217.2456
567.2180, 245.3196
568.3920, 249.8635
569.5660, 217.0629
570.7400, 274.6963
571.9130, 277.2396
573.0870, 263.7854
574.2600, 232.6304
575.4330, 241.5010
576.6060, 261.1471
577.7790, 273.6515
578.9520, 277.1646
580.1240, 326.0292
581.2960, 330.2582
582.4690, 289.3827
583.6410, 359.0925
584.8120, 330.8698
585.9840, 324.9287
587.1560, 370.0129
588.3270, 356.3451
589.4980, 351.5371
590.6690, 411.8453
591.8400, 378.7742
593.0110, 365.1135
594.1810, 336.4342
595.3510, 318.7026
596.5220, 316.3224
597.6920, 321.6638
598.8610, 308.6556
600.0310, 309.8551
601.2010, 297.1451
602.3700, 248.4666
603.5390, 217.7439
604.7080, 193.9521
605.8770, 182.0579
607.0460, 196.2000
608.2140, 128.1443
609.3830, 141.7317
610.5510, 97.82898
611.7190, 58.77637
612.8870, 135.9742
614.0550, 63.98657
615.2220, 72.08850
616.3900, 59.23035
617.5570, 64.43640
618.7240, 57.63110
619.8910, 48.81409
621.0580, 3.986816
622.2240, 23.01538
623.3910, 39.15491
624.5570, 0.1518550
625.7230, 51.20923
626.8890, 52.30334
628.0550, 9.386597
629.2200, 43.45288
630.3860, 24.50867
631.5510, 39.55115
632.7160, 53.58228
633.8810, 41.60242
635.0460, 20.61145
636.2100, 18.39307
637.3750, 16.57202
638.5390, 19.52295
639.7030, 26.46057
640.8670, 7.614014
642.0310, 35.28723
643.1950, 1.177612
644.3580, 15.95117
645.5210, 22.89185
646.6850, 30.72302
647.8480, 39.45679
649.0100, 3.676392
650.1730, 3.082886
651.3350, 2.174927
652.4980, 47.54773
653.6600, 4.739136
654.8220, 6.953125
655.9840, 9.630859
657.1450, 1.295044
658.3070, 3.942261
659.4680, 21.57410
660.6300, 19.19543
661.7910, 32.80603
662.9510, 12.40723
664.1120, 30.99683
665.2730, 25.57727
666.4330, 36.14832
667.5930, 23.71045
668.7530, 48.26343
669.9130, 52.80811
671.0730, 11.34436
672.2320, 50.12988
673.3920, 46.35449
674.5510, 17.83093
675.7100, 19.70154
676.8690, 6.741211
678.0280, 23.17322
679.1860, 61.59705
680.3450, 17.01318
681.5030, 27.42114
682.6610, 10.82153
683.8190, 40.21301
684.9770, 35.59729
686.1340, 8.974365
687.2920, 9.657104
688.4490, 9.694580
689.6060, 4.038208
690.7630, 50.37256
691.9200, 36.70020
693.0760, 27.97888
694.2330, 21.31677
695.3890, 10.39404
696.5450, 5.879517
697.7010, 28.14612
698.8570, 0.4062500
700.0130, 3.342529
701.1680, 25.89795
702.3230, 17.86743
703.4780, 22.65027
704.6330, 30.54688
705.7880, 21.26135
706.9430, 49.91187
708.0970, 39.91943
709.2520, 30.77856
710.4060, 25.33960
711.5600, 3.453369
712.7140, 17.56262
713.8670, 37.67078
715.0210, 19.21802
716.1740, 17.12170
717.3270, 37.96106
718.4800, 63.96021
719.6330, 9.916626
720.7860, 1.118164
721.9380, 37.85071
723.0910, 15.15698
724.2430, 14.17297
725.3950, 29.19165
726.5470, 41.21313
727.6980, 9.231812
728.8500, 1.742920
730.0010, 56.27930
731.1530, 11.69482
732.3040, 45.33032
733.4550, 11.35303
734.6050, 12.62634
735.7560, 17.38757
736.9060, 72.39966
738.0560, 83.41577
739.2060, 86.43469
740.3560, 16.45178
741.5060, 47.46680
742.6560, 31.48022
743.8050, 9.496826
744.9540, 80.51282
746.1030, 23.52771
747.2520, 53.54736
748.4010, 18.57324
749.5500, 49.59973
750.6980, 27.56042
751.8460, 77.58752
752.9950, 99.57446
754.1420, 27.59717
755.2900, 74.56750
756.4380, 91.56104
757.5850, 58.52930
758.7330, 85.46545
759.8800, 73.45032
761.0270, 111.1007
762.1730, 109.9880
763.3200, 128.7902
764.4670, 154.7678
765.6130, 151.1300
766.7590, 148.0697
767.9050, 157.0266
769.0510, 119.7772
770.1960, 122.7295
771.3420, 135.0433
772.4870, 185.7515
773.6320, 180.4789
774.7770, 211.2618
775.9220, 255.9166
777.0670, 249.6526
778.2110, 308.5303
779.3560, 264.0515
780.5000, 349.0426
781.6440, 360.1460
782.7880, 408.1912
783.9320, 454.0643
785.0750, 453.0562
786.2180, 550.6777
787.3620, 613.5623
788.5050, 603.8857
789.6480, 741.9094
790.7900, 820.0413
791.9330, 811.9414
793.0750, 979.5264
794.2170, 998.2269
795.3590, 1160.565
796.5010, 1259.071
797.6430, 1433.086
798.7850, 1637.079
799.9260, 1849.213
801.0670, 2195.100
802.2080, 2559.245
803.3490, 3028.367
804.4900, 3605.552
805.6310, 4340.683
806.7710, 5070.905
807.9110, 5932.135
809.0510, 7030.125
810.1910, 7986.516
811.3310, 9287.763
812.4710, 10101.92
813.6100, 10623.29
814.7490, 10903.26
815.8880, 11033.49
817.0270, 10881.77
818.1660, 10477.00
819.3050, 10082.28
820.4430, 9864.453
821.5820, 9438.762
822.7200, 9251.082
823.8580, 9110.281
824.9950, 9012.550
826.1330, 9170.803
827.2710, 9365.947
828.4080, 9542.304
829.5450, 9920.671
830.6820, 10138.93
831.8190, 10520.31
832.9560, 10941.73
834.0920, 11393.07
835.2280, 11775.24
836.3650, 12318.67
837.5010, 12526.66
838.6360, 12850.09
839.7720, 13109.23
840.9080, 13211.09
842.0430, 12950.56
843.1780, 12822.58
844.3130, 12379.06
845.4480, 12114.97
846.5830, 11583.50
847.7170, 10873.01
848.8520, 10346.54
849.9860, 9826.077
851.1200, 9066.627
852.2540, 8594.046
853.3870, 8020.632
854.5210, 7386.212
855.6540, 6999.931
856.7880, 6595.078
857.9210, 6066.689
859.0540, 5763.158
860.1860, 5439.798
861.3190, 5060.450
862.4510, 4697.113
863.5840, 4532.789
864.7160, 4298.476
865.8480, 4119.138
866.9790, 3840.849
868.1110, 3703.186
869.2420, 3531.923
870.3740, 3352.671
871.5050, 3205.036
872.6360, 3097.810
873.7660, 2953.597
874.8970, 2780.396
876.0280, 2845.208
877.1580, 2718.033
878.2880, 2681.870
879.4180, 2554.703
880.5480, 2547.566
881.6770, 2504.441
882.8070, 2373.346
883.9360, 2442.185
885.0650, 2384.274
886.1940, 2375.201
887.3230, 2385.341
888.4520, 2329.293
889.5800, 2343.261
890.7090, 2363.241
891.8370, 2356.234
892.9650, 2417.539
894.0930, 2454.192
895.2200, 2495.226
896.3480, 2563.026
897.4750, 2599.866
898.6020, 2658.671
899.7290, 2679.575
900.8560, 2806.122
901.9830, 2728.950
903.1090, 2831.390
904.2360, 2853.073
905.3620, 2793.188
906.4880, 2633.580
907.6140, 2595.227
908.7400, 2646.923
909.8650, 2552.147
910.9900, 2398.668
912.1160, 2408.257
913.2410, 2496.784
914.3660, 2508.075
915.4900, 2408.386
916.6150, 2443.046
917.7390, 2419.779
918.8640, 2368.462
919.9880, 2326.340
921.1120, 2396.731
922.2350, 2321.149
923.3590, 2318.742
924.4820, 2191.028
925.6060, 2085.500
926.7290, 2029.984
927.8520, 1985.486
928.9740, 1876.004
930.0970, 1813.537
931.2190, 1666.087
932.3420, 1507.654
933.4640, 1432.233
934.5860, 1298.837
935.7080, 1251.454
936.8290, 1148.087
937.9510, 1089.732
939.0720, 1008.405
940.1930, 914.0940
941.3140, 839.7969
942.4350, 814.5192
943.5560, 769.2555
944.6760, 691.0055
945.7960, 709.7859
946.9170, 598.5808
948.0370, 572.3887
949.1560, 534.2288
950.2760, 466.0833
951.3960, 508.9504
952.5150, 457.8301
953.6340, 409.7269
954.7530, 430.6396
955.8720, 422.5707
956.9910, 372.5142
958.1090, 388.4784
959.2280, 409.4656
960.3460, 357.4703
961.4640, 355.4900
962.5820, 316.5305
963.6990, 322.5834
964.8170, 281.6501
965.9340, 319.7385
967.0510, 293.8428
968.1690, 254.9636
969.2850, 279.0972
970.4020, 210.1370
971.5190, 248.0500
972.6350, 266.7939
973.7510, 267.3978
974.8670, 195.4698
975.9830, 217.2465
977.0990, 201.4908
978.2150, 184.2126
979.3300, 219.2222
980.4450, 157.9392
981.5600, 192.1647
982.6750, 188.2908
983.7900, 201.8741
984.9050, 177.6962
986.0190, 165.2089
987.1340, 190.5217
988.2480, 116.8744
989.3620, 187.3080
990.4750, 152.7699
991.5890, 135.2456
992.7020, 74.74512
993.8160, 69.26514
994.9290, 31.79614
996.0420, 71.33911
997.1550, 95.89294
998.2670, 106.4575
999.3800, 90.03284
1000.492, 40.62048
1001.604, 51.21851
1002.716, 48.83252
1003.828, 31.45679
1004.940, 36.81885
1006.051, 12.74988
1007.163, 37.41882
1008.274, 22.09778
1009.385, 37.78674
1010.496, 6.486450
1011.606, 17.19592
1012.717, 28.08459
1013.827, 11.63513
1014.937, 49.36499
1016.047, 0.1044920
1017.157, 26.14697
1018.267, 6.398071
1019.377, 6.358154
1020.486, 6.876343
1021.595, 35.89600
1022.704, 25.28674
1023.813, 11.46875
1024.922, 26.26843
1026.030, 8.922852
1027.139, 17.10803
1028.247, 3.709106
1029.355, 40.46497
1030.463, 24.02710
1031.571, 13.82812
1032.678, 20.00720
1033.786, 11.18555
1034.893, 6.360229
1036.000, 2.529785
1037.107, 38.69287
1038.214, 48.86401
1039.321, 24.04724
1040.427, 16.23267
1041.533, 11.21826
1042.639, 22.40100
1043.745, 5.773438
1044.851, 6.943604
1045.957, 27.10999
1047.062, 7.719238
1048.168, 21.55566
1049.273, 6.601074
1050.378, 7.754517
1051.482, 5.905273
1052.587, 10.05273
1053.692, 15.80127
1054.796, 18.66174
1055.900, 23.47131
1057.004, 16.60901
1058.108, 11.25171
1059.212, 32.11841
1060.315, 55.99109
1061.418, 29.86963
1062.522, 12.75403
1063.625, 29.67188
1064.728, 29.63049
1065.830, 22.53137
1066.933, 16.85596
1068.035, 30.79639
1069.137, 25.88354
1070.239, 55.80505
1071.341, 75.99158
1072.443, 107.7588
1073.545, 80.80469
1074.646, 65.19446
1075.747, 63.39026
1076.848, 94.33826
1077.949, 77.49280
1079.050, 105.7751
1080.150, 137.7461
1081.251, 130.3193
1082.351, 105.2860
1083.451, 125.3918
1084.551, 100.2289
1085.651, 120.1071
1086.750, 125.7798
1087.850, 91.91040
1088.949, 91.89514
1090.048, 128.7819
1091.147, 85.95325
1092.246, 125.0266
1093.345, 75.43884
1094.443, 133.0863
1095.541, 112.0841
1096.639, 135.4358
1097.737, 111.4369
1098.835, 149.2244
1099.933, 122.2283
1101.030, 95.39441
1102.128, 141.0287
1103.225, 167.4808
1104.322, 175.7651
1105.419, 113.6276
1106.515, 143.0464
1107.612, 135.2562
1108.708, 125.5919
1109.804, 168.1970
1110.900, 114.4856
1111.996, 156.5411
1113.092, 160.2007
1114.187, 182.6090
1115.283, 166.1564
1116.378, 161.8096
1117.473, 188.8037
1118.568, 178.8136
1119.662, 148.8225
1120.757, 189.3191
1121.851, 170.3849
1122.946, 125.3907
1124.040, 195.3298
1125.134, 154.3333
1126.227, 213.3350
1127.321, 173.5558
1128.414, 192.5820
1129.508, 202.5782
1130.601, 216.5725
1131.693, 199.8457
1132.786, 214.8358
1133.879, 213.5355
1134.971, 223.5211
1136.064, 232.2488
1137.156, 216.2738
1138.248, 187.0315
1139.339, 230.0067
1140.431, 203.9790
1141.522, 223.0945
1142.614, 198.0609
1143.705, 219.0242
1144.796, 181.0021
1145.887, 185.0728
1146.977, 174.5146
1148.068, 162.8582
1149.158, 158.9706
1150.248, 156.7408
1151.338, 167.6812
1152.428, 178.4194
1153.518, 130.4551
1154.607, 160.3846
1155.696, 165.3107
1156.785, 105.2329
1157.874, 142.9998
1158.963, 97.28101
1160.052, 142.1919
1161.141, 104.3501
1162.229, 142.2834
1163.317, 114.6533
1164.405, 95.74365
1165.493, 114.2008
1166.581, 90.83606
1167.668, 113.5983
1168.756, 113.7317
1169.843, 30.33899
1170.930, 122.1628
1172.017, 76.33423
1173.103, 44.71204
1174.190, 146.5720
1175.276, 51.15515
1176.363, 66.68054
1177.449, 78.27808
1178.535, 131.1223
1179.620, 48.96240
1180.706, 84.46130
1181.791, 83.90173
1182.877, 56.40967
1183.962, 59.73267
1185.047, 46.55225
1186.131, 85.36768
1187.216, 69.02258
1188.300, 86.99756
1189.385, 50.80029
1190.469, 62.59875
1191.553, 93.39294
1192.637, 49.18286
1193.720, 22.96838
1194.804, 20.74902
1195.887, 38.52441
1196.970, 25.70459
1198.053, 24.04065
1199.136, 15.78101
1200.219, 39.51477
1201.301, 38.75610
1202.383, 5.9691999E-02
1203.465, 19.62390
1204.547, 9.698486
1205.629, 13.96143
1206.711, 64.61389
1207.792, 16.26135
1208.874, 11.90173
1209.955, 28.53406
1211.036, 27.83899
1212.117, 44.76050
1213.198, 46.35474
1214.278, 65.94385
1215.359, 0.4720460
1216.439, 3.098389
1217.519, 4.342651
1218.599, 34.20056
1219.678, 16.26135
1220.758, 20.74536
1221.837, 24.74646
1222.917, 10.23193
1223.996, 12.29187
1225.075, 44.16443
1226.153, 12.61536
1227.232, 35.05750
1228.310, 1.503418
1229.389, 41.92737
1230.467, 61.34607
1231.545, 57.75903
1232.622, 32.16663
1233.700, 40.56860
1234.777, 20.03503
1235.855, 69.33740
1236.932, 13.70422
1238.009, 45.06250
1239.086, 70.41528
1240.162, 76.76245
1241.239, 16.10400
1242.315, 120.4376
1243.391, 7.234497
1244.467, 19.07617
1245.543, 3.379272
1246.619, 10.32922
1247.694, 35.94360
1248.769, 49.21069
1249.844, 10.52771
1250.919, 29.71521
1251.994, 79.95190
1253.069, 33.77246
1254.144, 54.42786
1255.218, 42.62268
1256.292, 18.81189
1257.366, 32.99341
1258.440, 92.16907
1259.514, 73.33948
1260.587, 15.50427
1261.661, 70.66101
1262.734, 0.8122560
1263.807, 57.95142
1264.880, 8.5205004E-02
1265.952, 4.793579
1267.025, 0.6868900
1268.097, 86.40698
1269.170, 63.49573
1270.242, 22.57886
1271.314, 79.65540
1272.385, 55.72656
1273.457, 53.79236
1274.528, 24.85767
1275.600, 51.91638
1276.671, 80.96985
1277.742, 79.42627
1278.812, 74.16809
1279.883, 94.10974
1280.954, 52.14807
1282.024, 25.18250
1283.094, 53.21094
1284.164, 82.23413
1285.234, 85.25232
1286.303, 21.26550
1287.373, 123.2739
1288.442, 54.28027
1289.511, 88.28174
1290.580, 64.28625
1291.649, 76.29053
1292.718, 73.29224
1293.786, 98.29541
1294.855, 118.2959
1295.923, 98.29321
1296.991, 70.28638
1298.059, 80.28296
1299.126, 69.28479
1300.194, 65.28687
1301.261, 89.28784
1302.328, 60.28662
1303.395, 66.28101
1304.462, 102.2725
1305.529, 151.2612
1306.596, 114.2513
1307.662, 60.23694
1308.728, 87.21863
1309.794, 93.19800
1310.860, 115.1753
1311.926, 72.15002
1312.991, 38.12329
1314.057, 90.09241
1315.122, 88.05725
1316.187, 83.02405
1317.252, 108.9908
1318.317, 125.9545
1319.381, 122.9141
1320.446, 117.8699
1321.510, 91.82166
1322.574, 115.7435
1323.638, 96.62634
1324.702, 134.5687
1325.766, 85.08875
1326.829, 117.9932
1327.892, 119.7505
1328.956, 125.6740
1330.019, 131.8827
1331.081, 110.4108
1332.144, 122.2102
1333.206, 94.66589
1334.269, 62.31555
1335.331, 103.2128
1336.393, 62.90369
1337.455, 71.46655
1338.516, 74.34045
1339.578, 104.6123
1340.639, 90.49048
1341.701, 112.3652
1342.762, 92.23633
1343.822, 84.20215
1344.883, 85.37292
1345.944, 71.50745
1347.004, 71.65344
1348.064, 68.89917
1349.124, 61.56946
1350.184, 84.33716
1351.244, 80.76538
1352.304, 25.95764
1353.363, 96.79895
1354.422, 45.28528
1355.481, 14.12183
1356.540, 48.17114
1357.599, 75.00317
1358.657, 77.83337
1359.716, 80.66138
1360.774, 107.4777
1361.832, 63.30225
1362.890, 77.99768
1363.948, 65.81885
1365.006, 75.30432
1366.063, 70.12256
1367.120, 118.9395
1368.178, 90.75500
1369.234, 128.2905
1370.291, 128.2936
1371.348, 82.61169
1372.404, 125.2045
1373.461, 90.35583
1374.517, 71.67688
1375.573, 43.48486
1376.629, 87.29211
1377.684, 100.6102
1378.740, 65.35730
1379.795, 1.837402
1380.850, 69.03284
1381.905, 35.83716
1382.960, 110.6409
1384.015, 101.2234
1385.070, 49.99890
1386.124, 89.80188
1387.178, 101.6049
1388.232, 90.13721
1389.286, 61.93994
1390.340, 75.03101
1391.393, 75.83374
1392.447, 59.89197
1393.500, 45.65100
1394.553, 59.67480
1395.606, 7.478882
1396.659, 97.28369
1397.711, 96.94312
1398.764, 67.74939
1399.816, 97.55652
1400.868, 64.36462
1401.920, 65.06018
1402.972, 124.8706
1404.023, 29.68225
1405.075, 92.49536
1406.126, 110.3099
1407.177, 105.1260
1408.228, 88.94360
1409.279, 101.6606
1410.330, 64.48169
1411.380, 119.3048
1412.431, 29.12988
1413.481, 98.81055
1414.531, 111.6398
1415.580, 69.47131
1416.630, 15.30505
1417.680, 76.14148
1418.729, 121.9805
1419.778, 70.32288
1420.827, 97.16736
1421.876, 114.0144
1422.925, 70.86450
1423.973, 110.7178
1425.022, 59.57446
1426.070, 75.43457
1427.118, 118.2982
1428.166, 74.19934
1429.214, 75.07068
1430.261, 120.9463
1431.309, 84.82593
1432.356, 68.71008
1433.403, 44.59900
1434.450, 103.5621
1435.497, 110.5002
1436.543, 63.43152
1437.590, 109.7646
1438.636, 85.41248
1439.682, 134.1647
1440.728, 84.07288
1441.774, 83.15369
1442.819, 101.0793
1443.865, 95.18298
1444.910, 95.97705
1445.955, 87.04407
1447.000, 86.97107
1448.045, 83.33887
1449.090, 76.25220
1450.134, 94.25073
1451.178, 102.0713
1452.223, 100.4138
1453.267, 103.3043
1454.310, 95.99146
1455.354, 87.70667
1456.398, 73.42969
1457.441, 106.1581
1458.484, 73.88660
1459.527, 72.62537
1460.570, 47.37292
1461.613, 73.12207
1462.655, 83.88550
1463.698, 48.66113
1464.740, 48.46545
1465.782, 101.2812
1466.824, 98.10571
1467.866, 79.92505
1468.907, 46.75769
1469.948, 41.58984
1470.990, 45.95056
1472.031, 85.28748
1473.072, 77.14441
1474.112, 62.00281
1475.153, 79.87012
1476.194, 74.75110
1477.234, 95.65283
1478.274, 64.56421
1479.314, 81.42944
1480.354, 73.38477
1481.393, 116.3435
1482.433, 86.30701
1483.472, 94.27478
1484.511, 52.25122
1485.550, 54.23999
1486.589, 84.25427
1487.628, 54.27771
1488.666, 72.30713
1489.704, 71.34094
1490.743, 63.38062
1491.781, 117.4250
1492.819, 63.47388
1493.856, 112.5286
1494.894, 72.58862
1495.931, 84.65466
1496.968, 38.72681
1498.005, 39.84985
1499.042, 81.88281
1500.079, 32.96301
1501.115, 46.04858
1502.152, 48.13904
1503.188, 34.23425
1504.224, 48.33447
1505.260, 73.43945
1506.296, 77.54871
1507.331, 76.66150
1508.367, 31.77856
1509.402, 18.90039
1510.437, 54.02429
1511.472, 84.14990
1512.507, 1.720093
1513.541, 23.40735
1514.576, 45.53918
1515.610, 36.68384
1516.644, 27.84387
1517.678, 51.01770
1518.712, 54.36707
1519.746, 74.40930
1520.779, 64.62695
1521.813, 67.85889
1522.846, 80.50073
1523.879, 57.36536
1524.912, 94.64050
1525.944, 84.93066
1526.977, 76.23633
1528.009, 49.55713
1529.041, 19.89404
1530.073, 39.24512
1531.105, 37.61096
1532.137, 32.99133
1533.168, 50.38562
1534.200, 72.79443
1535.231, 65.21814
1536.262, 38.65723
1537.293, 84.11243
1538.324, 24.58423
1539.354, 89.07349
1540.385, 38.58142
1541.415, 30.10901
1542.445, 58.65723
1543.475, 13.77234
1544.505, 33.82178
1545.534, 86.40015
1546.564, 54.04639
1547.593, 46.72156
1548.622, 92.42627
1549.651, 85.16174
1550.680, 47.92908
1551.708, 6.729370
1552.737, 84.56396
1553.765, 117.4343
1554.793, 27.34265
1555.821, 82.29114
1556.849, 34.28271
1557.877, 4.320557
1558.904, 12.40808
1559.932, 16.54932
1560.959, 54.88721
1561.986, 12.88635
1563.013, 67.91370
1564.039, 70.96497
1565.066, 0.3164060
1566.092, 24.72644
1567.119, 0.7537840
1568.145, 59.21265
1569.170, 26.74426
1570.196, 39.14734
1571.222, 1.552368
1572.247, 28.46973
1573.272, 13.38293
1574.297, 11.89172
1575.322, 16.30981
1576.347, 0.0000000E+00
##END=



