##NAMES=Fayalite
##RRUFFID=R070293
##IDEAL CHEMISTRY=Fe^2+^_2_SiO_4_
##LOCALITY=Pike's Peak, Teller County, Colorado, USA
##OWNER=RRUFF
##SOURCE=Michael Scott
##DESCRIPTION=Black single crystal fragment with internal hints of red and green
##STATUS=The identification of this mineral has been confirmed by X-ray diffraction and chemical analysis
##URL=rruff.info/R070293
##MEASURED CHEMISTRY=(Fe^2+^_1.87_Mn^2+^_0.13_)_Î£=2_Si_1.00_O_4_ ; trace amounts of Mg
##PIN_ID=L01491
##ORIENTATION=Laser parallel to a* (1 0 0). Fiducial mark perpendicular to laser is parallel to b [0 1 0]
125.6450, 0.0000000E+00
126.8730, 1.8677000E-02
128.1010, 0.9716340
129.3280, 41.68811
130.5560, 71.34084
131.7830, 62.71770
133.0100, 1.180754
134.2380, 1.164573
135.4640, 34.10144
136.6910, 1.803771
137.9180, 84.63756
139.1440, 43.31598
140.3710, 103.3956
141.5970, 28.36490
142.8230, 25.37971
144.0490, 4.046517
145.2750, 44.00214
146.5000, 12.13207
147.7260, 83.47289
148.9510, 56.16843
150.1770, 68.85272
151.4020, 144.4859
152.6270, 225.0783
153.8520, 329.6385
155.0760, 312.3677
156.3010, 364.6904
157.5250, 262.1925
158.7500, 149.6851
159.9740, 91.17102
161.1980, 10.65291
162.4220, 76.13370
163.6450, 112.6159
164.8690, 141.1021
166.0920, 133.2696
167.3160, 203.0095
168.5390, 270.2667
169.7620, 401.6915
170.9850, 569.5184
172.2080, 682.6099
173.4300, 686.8820
174.6530, 562.1907
175.8750, 402.5363
177.0970, 277.9187
178.3190, 178.3508
179.5410, 122.8060
180.7630, 67.14764
181.9850, 100.7851
183.2060, 44.30975
184.4270, 87.85516
185.6490, 142.4185
186.8700, 107.9986
188.0910, 109.5961
189.3110, 97.20968
190.5320, 143.8466
191.7530, 168.4980
192.9730, 155.1626
194.1930, 227.8404
195.4130, 264.5303
196.6330, 263.2321
197.8530, 263.9454
199.0730, 224.6746
200.2920, 231.4247
201.5120, 242.1872
202.7310, 192.9747
203.9500, 50.77316
205.1690, 2.459624
206.3880, 41.68513
207.6070, 43.05527
208.8250, 1.663482
210.0440, 29.59457
211.2620, 8.523878
212.4800, 2.488096
213.6980, 13.65408
214.9160, 14.83335
216.1340, 8.161142
217.3510, 9.457663
218.5690, 11.78579
219.7860, 24.69400
221.0030, 21.61360
222.2200, 38.54435
223.4370, 99.49109
224.6540, 78.44768
225.8700, 164.3692
227.0870, 160.3361
228.3030, 221.3080
229.5190, 229.2857
230.7350, 292.2686
231.9510, 375.2574
233.1670, 453.2521
234.3820, 574.2529
235.5980, 679.2040
236.8130, 820.2169
238.0280, 920.2366
239.2430, 956.2599
240.4580, 1034.289
241.6730, 987.3217
242.8880, 935.3513
244.1020, 774.3090
245.3160, 651.2517
246.5300, 514.2017
247.7450, 438.1592
248.9580, 473.1223
250.1720, 334.1105
251.3860, 295.7190
252.5990, 214.0549
253.8130, 148.0471
255.0260, 199.0469
256.2390, 141.0539
257.4520, 149.0682
258.6640, 97.08987
259.8770, 124.1191
261.0890, 138.1555
262.3020, 114.1991
263.5140, 84.25043
264.7260, 124.3091
265.9380, 70.37511
267.1500, 98.48412
268.3610, 151.5648
269.5730, 81.65254
270.7840, 102.8299
271.9950, 126.6063
273.2060, 178.1052
274.4170, 149.3027
275.6280, 194.5744
276.8390, 180.8019
278.0490, 197.1248
279.2590, 259.3789
280.4690, 291.2618
281.6800, 304.7062
282.8890, 359.6781
284.0990, 361.8144
285.3090, 369.9678
286.5180, 425.2077
287.7280, 415.2338
288.9370, 453.4635
290.1460, 427.0344
291.3550, 456.1371
292.5630, 449.2363
293.7720, 425.4387
294.9800, 386.5525
296.1890, 349.6627
297.3970, 361.9287
298.6050, 315.4579
299.8130, 297.8598
301.0200, 310.0764
302.2280, 295.4739
303.4360, 291.8263
304.6430, 301.1410
305.8500, 341.5614
307.0570, 328.8309
308.2640, 337.6288
309.4710, 345.9049
310.6770, 332.2904
311.8840, 349.5668
313.0900, 348.0513
314.2960, 336.4554
315.5020, 340.8237
316.7080, 304.1324
317.9140, 345.3938
319.1190, 358.8571
320.3250, 343.1772
321.5300, 289.4831
322.7350, 275.7571
323.9400, 292.9601
325.1450, 332.2120
326.3500, 290.5155
327.5540, 317.7826
328.7580, 323.0047
329.9630, 311.2325
331.1670, 362.4687
332.3710, 360.7082
333.5750, 361.9521
334.7780, 416.2007
335.9820, 386.4556
337.1850, 402.7161
338.3880, 425.9806
339.5920, 477.2499
340.7950, 495.4445
341.9970, 517.8038
343.2000, 562.0887
344.4030, 590.3797
345.6050, 636.6778
346.8070, 684.9813
348.0090, 725.2884
349.2110, 770.5999
350.4130, 798.3687
351.6150, 861.9969
352.8160, 926.2969
354.0170, 1009.023
355.2190, 1094.301
356.4200, 1217.099
357.6210, 1283.388
358.8210, 1449.878
360.0220, 1548.292
361.2220, 1696.979
362.4230, 1804.776
363.6230, 1959.133
364.8230, 1994.519
366.0230, 2126.907
367.2230, 2259.297
368.4220, 2279.696
369.6220, 2281.103
370.8210, 2270.508
372.0200, 2222.919
373.2190, 2144.343
374.4180, 2020.771
375.6170, 1838.200
376.8150, 1684.638
378.0140, 1541.076
379.2120, 1470.517
380.4100, 1296.965
381.6080, 1172.426
382.8060, 1022.888
384.0040, 906.3613
385.2010, 828.8424
386.3980, 729.3381
387.5960, 658.8469
388.7930, 572.3619
389.9900, 522.8841
391.1870, 456.0016
392.3830, 392.9661
393.5800, 357.5222
394.7760, 322.0760
395.9720, 303.6335
397.1680, 248.1966
398.3640, 187.7618
399.5600, 160.3316
400.7560, 151.9082
401.9510, 100.4896
403.1460, 144.0871
404.3420, 84.69222
405.5370, 89.29834
406.7320, 56.91697
407.9260, 80.53925
409.1210, 49.16088
410.3150, 10.78258
411.5100, 37.40938
412.7040, 48.03291
413.8980, 2.665152
415.0920, 2.298717
416.2850, 3.067433
417.4790, 14.56424
418.6720, 14.19617
419.8650, 12.82266
421.0590, 16.55116
422.2510, 8.191702
423.4440, 7.266052
424.6370, 0.7445590
425.8290, 11.14310
427.0220, 12.61189
428.2140, 17.94400
429.4060, 0.5990330
430.5980, 2.906166
431.7900, 0.7148530
432.9810, 2.714233
434.1730, 6.097195
435.3640, 11.46884
436.5550, 0.1654360
437.7460, 14.81930
438.9370, 12.22357
440.1280, 11.23682
441.3190, 3.312039
442.5090, 0.8670410
443.6990, 28.56918
444.8890, 14.93624
446.0790, 13.19868
447.2690, 10.81411
448.4590, 14.68917
449.6480, 8.583105
450.8380, 6.048702
452.0270, 27.30435
453.2160, 3.647327
454.4050, 29.97897
455.5940, 0.7001090
456.7820, 2.608242
457.9710, 7.904714
459.1590, 19.18952
460.3470, 30.46289
461.5350, 5.663397
462.7230, 19.96515
463.9110, 25.19316
465.0990, 34.40939
466.2860, 83.65070
467.4730, 42.94769
468.6600, 32.29839
469.8470, 42.74868
471.0340, 68.38950
472.2210, 66.84433
473.4070, 57.10462
474.5940, 87.65323
475.7800, 101.1220
476.9660, 115.6774
478.1520, 105.6631
479.3380, 132.4639
480.5230, 154.9151
481.7090, 130.5377
482.8940, 158.9425
484.0790, 216.4946
485.2650, 190.8404
486.4490, 274.0027
487.6340, 277.1889
488.8190, 302.0226
490.0030, 290.6023
491.1870, 382.2092
492.3720, 435.4535
493.5550, 460.7691
494.7390, 533.3300
495.9230, 686.5770
497.1060, 812.2440
498.2900, 971.3908
499.4730, 1202.284
500.6560, 1377.953
501.8390, 1620.471
503.0220, 1770.135
504.2040, 2138.482
505.3870, 2226.274
506.5690, 2304.143
507.7510, 2233.373
508.9330, 2059.173
510.1150, 1939.534
511.2970, 1719.795
512.4780, 1477.915
513.6600, 1221.589
514.8410, 1161.722
516.0220, 993.2961
517.2030, 853.5372
518.3840, 768.4563
519.5650, 711.3457
520.7450, 607.6224
521.9250, 595.4178
523.1060, 529.1177
524.2860, 505.2767
525.4660, 492.8294
526.6450, 475.4504
527.8250, 459.0238
529.0040, 423.8391
530.1840, 440.9690
531.3630, 440.4723
532.5420, 466.6864
533.7200, 423.5963
534.8990, 497.8769
536.0780, 428.2401
537.2560, 464.8459
538.4340, 456.9685
539.6120, 500.2772
540.7900, 518.1437
541.9680, 479.5912
543.1460, 504.4975
544.3230, 546.2911
545.5000, 523.9657
546.6770, 604.0251
547.8540, 562.9252
549.0310, 624.6649
550.2080, 641.3755
551.3840, 689.2988
552.5610, 683.4880
553.7370, 707.6693
554.9130, 761.6941
556.0890, 829.0931
557.2650, 826.7629
558.4400, 844.6201
559.6160, 907.6711
560.7910, 933.6194
561.9660, 945.5630
563.1410, 895.3771
564.3160, 931.6981
565.4910, 915.3791
566.6650, 808.7670
567.8400, 760.7383
569.0140, 749.2867
570.1880, 649.0834
571.3620, 629.2602
572.5360, 565.0309
573.7090, 561.4061
574.8830, 562.2451
576.0560, 488.8785
577.2290, 458.2274
578.4020, 416.6736
579.5750, 429.9688
580.7480, 412.5762
581.9200, 368.7762
583.0930, 379.8664
584.2650, 337.2910
585.4370, 353.4002
586.6090, 327.7634
587.7810, 301.7365
588.9520, 334.0612
590.1240, 333.9528
591.2950, 303.8165
592.4660, 304.2860
593.6370, 262.2549
594.8080, 288.0922
595.9790, 257.0128
597.1500, 263.7018
598.3200, 222.4407
599.4900, 243.1800
600.6600, 216.9369
601.8300, 194.7114
603.0000, 190.6016
604.1700, 174.9346
605.3390, 153.5995
606.5080, 133.2738
607.6770, 116.2948
608.8460, 99.64949
610.0150, 84.22801
611.1840, 65.81876
612.3520, 58.42932
613.5210, 46.00817
614.6890, 67.55176
615.8570, 72.06654
617.0250, 63.55183
618.1930, 41.00676
619.3600, 47.42753
620.5280, 65.81541
621.6950, 53.17390
622.8620, 65.50109
624.0290, 18.79879
625.1960, 66.05702
626.3630, 27.28628
627.5290, 25.47927
628.6960, 35.63586
629.8620, 44.75901
631.0280, 41.85078
632.1940, 60.91084
633.3600, 16.94247
634.5250, 39.93616
635.6910, 2.898264
636.8560, 8.814096
638.0210, 17.68876
639.1860, 23.52678
640.3510, 29.33077
641.5150, 33.46901
642.6800, 26.86524
643.8440, 37.55017
645.0080, 20.22810
646.1720, 16.87265
647.3360, 37.48273
648.5000, 16.06401
649.6640, 5.611456
650.8270, 6.119822
651.9900, 34.59004
653.1530, 14.03212
654.3160, 24.09251
655.4790, 13.79617
656.6420, 22.11918
657.8040, 1.121274
658.9660, 32.66229
660.1290, 15.88511
661.2910, 1.092924
662.4520, 21.30517
663.6140, 14.32716
664.7760, 20.21930
665.9370, 3.265695
667.0980, 35.27675
668.2590, 28.87214
669.4200, 2.810912
670.5810, 5.185520
671.7420, 18.88917
672.9020, 46.63614
674.0620, 3.559506
675.2220, 26.88159
676.3820, 2.496610
677.5420, 5.012885
678.7020, 1.358308
679.8610, 6.839588
681.0210, 12.72222
682.1800, 6.309377
683.3390, 51.67936
684.4980, 18.72526
685.6560, 3.857781
686.8150, 39.91198
687.9730, 6.063196
689.1320, 3.172791
690.2900, 6.011208
691.4480, 16.65323
692.6050, 0.2176890
693.7630, 31.15930
694.9200, 7.461926
696.0780, 12.79419
697.2350, 2.841517
698.3920, 12.45720
699.5490, 0.1202800
700.7050, 11.65853
701.8620, 14.13505
703.0180, 13.70008
704.1740, 11.47425
705.3300, 11.66883
706.4860, 11.50362
707.6420, 8.872667
708.7970, 8.421934
709.9530, 16.90855
711.1080, 14.57588
712.2630, 1.735071
713.4180, 3.598768
714.5730, 0.9451240
715.7280, 7.449102
716.8820, 12.89239
718.0360, 13.07224
719.1900, 18.47914
720.3440, 11.09494
721.4980, 15.65772
722.6520, 5.802227
723.8050, 6.509486
724.9590, 5.770607
726.1120, 15.27470
727.2650, 20.79319
728.4180, 13.66636
729.5700, 14.87877
730.7230, 14.55811
731.8750, 29.98801
733.0280, 45.40842
734.1800, 8.820358
735.3320, 34.22348
736.4830, 71.61918
737.6350, 37.00741
738.7860, 80.38786
739.9380, 47.76096
741.0890, 94.12659
742.2400, 76.54874
743.3910, 87.91474
744.5410, 88.26597
745.6920, 110.6874
746.8420, 105.2671
747.9920, 134.6156
749.1420, 117.6771
750.2920, 129.5182
751.4420, 122.2396
752.5910, 102.7108
753.7410, 107.5910
754.8900, 158.5343
756.0390, 107.3747
757.1880, 166.7684
758.3370, 157.3309
759.4850, 214.2269
760.6340, 219.9357
761.7820, 187.8471
762.9300, 194.5956
764.0780, 211.5348
765.2260, 229.6449
766.3730, 287.7160
767.5210, 280.1243
768.6680, 301.7721
769.8150, 257.3778
770.9620, 295.3318
772.1090, 305.2056
773.2560, 355.8324
774.4020, 338.7749
775.5490, 391.2917
776.6950, 370.3243
777.8410, 416.6070
778.9870, 439.1041
780.1330, 492.7422
781.2780, 503.2266
782.4230, 553.0261
783.5690, 556.3689
784.7140, 633.6278
785.8590, 761.5195
787.0030, 851.8279
788.1480, 811.5634
789.2920, 978.3895
790.4370, 1097.345
791.5810, 1259.738
792.7250, 1405.661
793.8690, 1614.136
795.0120, 1752.933
796.1560, 2045.042
797.2990, 2384.170
798.4420, 2779.904
799.5850, 3262.113
800.7280, 3827.414
801.8710, 4606.245
803.0130, 5511.678
804.1550, 6640.033
805.2980, 8029.586
806.4400, 9749.573
807.5810, 11785.40
808.7230, 13994.86
809.8650, 16628.58
811.0060, 19299.62
812.1470, 21570.28
813.2880, 23780.84
814.4290, 24717.16
815.5700, 25144.95
816.7110, 24578.56
817.8510, 23419.61
818.9910, 22106.06
820.1310, 20736.07
821.2710, 19192.17
822.4110, 17721.40
823.5510, 16556.24
824.6900, 15556.24
825.8290, 14762.39
826.9680, 14364.55
828.1070, 13654.52
829.2460, 13303.18
830.3850, 12802.86
831.5230, 12503.72
832.6620, 12178.51
833.8000, 12056.23
834.9380, 11674.98
836.0760, 11471.76
837.2130, 11338.63
838.3510, 10865.50
839.4880, 10459.38
840.6250, 10001.53
841.7620, 9395.797
842.8990, 8937.088
844.0360, 8265.154
845.1720, 7552.398
846.3090, 6793.390
847.4450, 6118.923
848.5810, 5574.060
849.7170, 4881.387
850.8530, 4373.426
851.9880, 3772.666
853.1240, 3332.095
854.2590, 2882.437
855.3940, 2565.024
856.5290, 2201.307
857.6640, 1990.848
858.7980, 1727.241
859.9330, 1410.434
861.0670, 1231.135
862.2010, 1033.407
863.3350, 867.1212
864.4690, 698.5288
865.6030, 620.2717
866.7360, 554.1306
867.8690, 479.9332
869.0020, 332.7657
870.1350, 267.6286
871.2680, 232.5220
872.4010, 208.4460
873.5330, 123.4013
874.6660, 118.3872
875.7980, 66.40433
876.9300, 110.4531
878.0620, 5.466881
879.1930, 0.3554610
880.3250, 86.78710
881.4560, 9.037987
882.5870, 18.83202
883.7180, 12.59660
884.8490, 1.330055
885.9800, 0.9700390
887.1100, 36.30503
888.2410, 43.67590
889.3710, 70.88444
890.5010, 101.3234
891.6310, 129.0037
892.7610, 179.5171
893.8900, 220.0683
895.0200, 293.0031
896.1490, 318.2799
897.2780, 403.0116
898.4070, 456.7082
899.5360, 496.4455
900.6640, 642.6756
901.7920, 639.4886
902.9210, 677.3419
904.0490, 586.2337
905.1770, 638.1639
906.3040, 500.1337
907.4320, 423.7214
908.5600, 411.7750
909.6870, 300.6766
910.8140, 229.8757
911.9410, 290.0576
913.0680, 341.0499
914.1940, 302.9449
915.3210, 304.2507
916.4470, 388.5957
917.5730, 391.6502
918.6990, 475.0725
919.8250, 540.4322
920.9500, 635.1884
922.0760, 680.7482
923.2010, 742.3541
924.3260, 854.4018
925.4510, 945.1119
926.5760, 1014.295
927.7010, 1088.717
928.8250, 1138.905
929.9500, 1169.805
931.0740, 1221.761
932.1980, 1187.770
933.3220, 1213.476
934.4450, 1239.568
935.5690, 1189.708
936.6920, 1215.930
937.8150, 1251.981
938.9380, 1243.294
940.0610, 1192.651
941.1840, 1191.727
942.3060, 1181.021
943.4290, 1228.702
944.5510, 1169.040
945.6730, 1134.469
946.7950, 1074.157
947.9160, 1088.323
949.0380, 1045.605
950.1590, 1063.043
951.2800, 1013.987
952.4010, 1009.908
953.5220, 918.9781
954.6430, 863.4691
955.7630, 907.4707
956.8840, 889.2142
958.0040, 891.1341
959.1240, 825.3718
960.2440, 850.6708
961.3640, 787.0223
962.4830, 801.9138
963.6030, 862.9813
964.7220, 727.0110
965.8410, 766.2983
966.9600, 767.8924
968.0780, 707.0910
969.1970, 732.7873
970.3150, 700.5367
971.4340, 599.8173
972.5520, 567.1161
973.6700, 599.9948
974.7870, 564.9144
975.9050, 573.8791
977.0220, 562.8849
978.1390, 535.1225
979.2560, 546.2078
980.3730, 489.3270
981.4900, 421.4873
982.6070, 478.6906
983.7230, 454.9331
984.8390, 491.2094
985.9550, 397.5204
987.0710, 472.8677
988.1870, 398.2538
989.3030, 346.6781
990.4180, 329.1414
991.5330, 320.6428
992.6480, 349.1765
993.7630, 305.7489
994.8780, 358.3564
995.9930, 331.0019
997.1070, 272.6819
998.2210, 301.3987
999.3350, 299.1533
1000.449, 295.9393
1001.563, 278.7604
1002.677, 263.5187
1003.790, 223.4956
1004.903, 216.4093
1006.016, 183.3538
1007.129, 153.3296
1008.242, 199.3362
1009.355, 187.3727
1010.467, 124.4392
1011.579, 166.5357
1012.691, 104.6051
1013.803, 176.7544
1014.915, 94.94174
1016.027, 135.0446
1017.138, 139.9451
1018.249, 117.0353
1019.360, 97.32387
1020.471, 70.65427
1021.582, 87.01549
1022.693, 91.40486
1023.803, 74.82618
1024.913, 35.27527
1026.023, 33.47969
1027.133, 21.25536
1028.243, 1.785828
1029.353, 13.34345
1030.462, 2.072464
1031.571, 8.537243
1032.680, 32.17307
1033.789, 10.16528
1034.898, 27.51792
1036.007, 98.22668
1037.115, 5.013691
1038.223, 51.77280
1039.331, 18.87088
1040.439, 11.32003
1041.547, 41.73083
1042.655, 13.73853
1043.762, 18.41818
1044.869, 47.46648
1045.976, 29.05050
1047.083, 10.98865
1048.190, 71.95880
1049.297, 1.930712
1050.403, 27.09210
1051.509, 21.89233
1052.615, 19.13038
1053.721, 19.82453
1054.827, 2.068880
1055.933, 47.45242
1057.038, 5.726448
1058.143, 9.348396
1059.248, 2.414948
1060.353, 15.50272
1061.458, 13.88361
1062.563, 16.27025
1063.667, 11.34304
1064.771, 69.84768
1065.875, 8.224469
1066.979, 23.25487
1068.083, 13.45376
1069.186, 3.006777
1070.290, 7.278202
1071.393, 13.45199
1072.496, 10.72867
1073.599, 7.621593
1074.702, 10.13721
1075.804, 14.89987
1076.907, 15.09412
1078.009, 1.701544
1079.111, 6.550074
1080.213, 3.806170
1081.315, 0.7055060
1082.416, 5.682853
1083.517, 12.90777
1084.619, 17.19976
1085.720, 12.91933
1086.821, 8.809356
1087.921, 10.03865
1089.022, 4.901775
1090.122, 16.96524
1091.222, 30.88292
1092.322, 8.651566
1093.422, 8.405753
1094.522, 1.879174
1095.622, 1.422455
1096.721, 1.415873
1097.820, 20.14758
1098.919, 92.82681
1100.018, 1.713170
1101.117, 30.58295
1102.215, 59.75197
1103.314, 11.99327
1104.412, 11.52764
1105.510, 52.09850
1106.608, 74.59747
1107.705, 60.73392
1108.803, 37.75841
1109.900, 7.407582
1110.997, 78.21367
1112.094, 49.70277
1113.191, 86.58968
1114.288, 91.46447
1115.384, 42.96334
1116.481, 29.50861
1117.577, 26.01263
1118.673, 79.10834
1119.769, 65.65717
1120.864, 137.3568
1121.960, 105.3586
1123.055, 64.87158
1124.150, 96.41025
1125.245, 136.1386
1126.340, 167.8909
1127.434, 180.3515
1128.529, 158.2004
1129.623, 200.0641
1130.717, 105.7131
1131.811, 112.2276
1132.905, 143.7413
1133.999, 146.2541
1135.092, 159.7654
1136.185, 99.27538
1137.279, 130.8790
1138.371, 132.5219
1139.464, 169.2188
1140.557, 169.7205
1141.649, 171.2197
1142.742, 190.7368
1143.834, 148.5054
1144.926, 128.2448
1146.017, 137.8062
1147.109, 130.2900
1148.200, 164.8039
1149.292, 145.4663
1150.383, 72.94135
1151.474, 115.6590
1152.564, 108.1251
1153.655, 52.58686
1154.745, 122.9531
1155.835, 100.4118
1156.925, 128.8579
1158.015, 97.29852
1159.105, 80.73316
1160.195, 72.16208
1161.284, 68.58475
1162.373, 73.94466
1163.462, 61.35460
1164.551, 140.7578
1165.640, 38.69736
1166.728, 102.0866
1167.817, 20.46889
1168.905, 72.84287
1169.993, 14.20939
1171.081, 31.56464
1172.168, 16.64804
1173.256, 19.07537
1174.343, 63.58468
1175.430, 56.83390
1176.517, 31.13563
1177.604, 6.659315
1178.691, 22.30800
1179.777, 22.57626
1180.864, 34.83519
1181.950, 81.41455
1183.036, 26.38005
1184.121, 36.98013
1185.207, 17.56135
1186.293, 2.350481
1187.378, 14.14832
1188.463, 17.57415
1189.548, 2.184836
1190.633, 14.58728
1191.717, 0.4452650
1192.802, 83.00030
1193.886, 47.24369
1194.970, 2.5050000E-03
1196.054, 75.07870
1197.138, 16.20908
1198.221, 22.10956
1199.305, 2.9170001E-03
1200.388, 6.374813
1201.471, 21.86630
1202.554, 30.67336
1203.637, 13.46935
1204.719, 18.58858
1205.801, 10.81471
1206.884, 6.531304
1207.966, 3.165977
1209.048, 8.606515
1210.129, 18.71741
1211.211, 9.829904
1212.292, 15.94400
1213.373, 11.93285
1214.454, 3.444898
1215.535, 6.008163
1216.616, 5.922950
1217.696, 3.104501
1218.777, 2.058145
1219.857, 20.04896
1220.937, 9.616009
1222.017, 12.02566
1223.096, 4.587587
1224.176, 15.03299
1225.255, 11.39295
1226.334, 12.29143
1227.413, 14.97656
1228.492, 43.51661
1229.570, 2.260395
1230.649, 2.974384
1231.727, 4.577591
1232.805, 29.67440
1233.883, 17.17345
1234.961, 21.90390
1236.038, 31.96086
1237.116, 17.99542
1238.193, 6.016666
1239.270, 23.01104
1240.347, 14.79791
1241.424, 53.76161
1242.500, 11.71235
1243.577, 12.64622
1244.653, 73.56362
1245.729, 34.46786
1246.805, 69.35847
1247.880, 5.235800
1248.956, 36.09480
1250.031, 23.93982
1251.106, 8.769911
1252.181, 53.58214
1253.256, 39.38117
1254.331, 23.16654
1255.405, 21.93642
1256.480, 18.33086
1257.554, 24.42908
1258.628, 30.15158
1259.701, 29.85940
1260.775, 48.55243
1261.849, 94.23225
1262.922, 64.89860
1263.995, 62.55167
1265.068, 95.19125
1266.141, 33.81736
1267.213, 30.42921
1268.286, 26.02654
1269.358, 89.60857
1270.430, 60.17709
1271.502, 43.73255
1272.573, 20.27434
1273.645, 21.80030
1274.716, 37.31057
1275.788, 74.80695
1276.859, 42.28997
1277.929, 26.75967
1279.000, 62.21446
1280.071, 21.65605
1281.141, 51.08257
1282.211, 61.49599
1283.281, 3.103685
1284.351, 48.27607
1285.421, 111.6429
1286.490, 62.99670
1287.559, 114.3378
1288.628, 98.66603
1289.697, 72.98153
1290.766, 46.28454
1291.835, 75.57495
1292.903, 83.85306
1293.972, 77.11848
1295.040, 69.37394
1296.108, 66.61711
1297.175, 83.79512
1298.243, 84.01430
1299.310, 59.90748
1300.377, 36.10285
1301.444, 12.06606
1302.511, 89.11027
1303.578, 82.27364
1304.645, 122.4305
1305.711, 92.57630
1306.777, 81.99687
1307.843, 74.11595
1308.909, 82.22282
1309.975, 95.33616
1311.040, 84.44614
1312.105, 97.28941
1313.171, 105.4580
1314.235, 106.6840
1315.300, 79.43145
1316.365, 50.75239
1317.429, 19.82867
1318.494, 27.21769
1319.558, 29.66238
1320.622, 43.57859
1321.685, 63.61477
1322.749, 61.74303
1323.812, 59.44979
1324.876, 85.74370
1325.939, 87.49880
1327.001, 110.4358
1328.064, 134.2141
1329.127, 91.35665
1330.189, 80.26759
1331.251, 113.2500
1332.313, 52.86793
1333.375, 81.65619
1334.437, 111.1825
1335.498, 110.9814
1336.560, 89.47870
1337.621, 128.1016
1338.682, 108.6662
1339.742, 40.57598
1340.803, 96.24773
1341.863, 97.79118
1342.924, 70.00300
1343.984, 104.3229
1345.044, 66.68958
1346.104, 102.2402
1347.163, 107.4473
1348.222, 111.8402
1349.282, 86.37190
1350.341, 100.9720
1351.400, 78.59745
1352.458, 119.0380
1353.517, 59.28751
1354.575, 87.14526
1355.633, 108.7309
1356.691, 72.65938
1357.749, 86.49412
1358.807, 30.41878
1359.864, 78.51609
1360.922, 73.12286
1361.979, 85.09843
1363.036, 95.69169
1364.092, 118.4328
1365.149, 65.70246
1366.205, 116.9356
1367.262, 100.5025
1368.318, 75.92870
1369.374, 112.6679
1370.429, 112.0100
1371.485, 108.6815
1372.540, 77.08881
1373.596, 96.76695
1374.651, 111.4841
1375.705, 86.62631
1376.760, 138.2947
1377.815, 50.80989
1378.869, 53.02318
1379.923, 37.72064
1380.977, 46.39000
1382.031, 47.86690
1383.085, 97.31794
1384.138, 88.70362
1385.191, 127.0786
1386.244, 53.62901
1387.297, 49.17132
1388.350, 88.84530
1389.403, 32.51708
1390.455, 62.18718
1391.507, 83.85559
1392.559, 52.52335
1393.611, 91.09525
1394.663, 96.62606
1395.714, 63.09981
1396.766, 139.7688
1397.817, 92.43704
1398.868, 61.08393
1399.919, 55.47448
1400.969, 103.8960
1402.020, 68.49453
1403.070, 63.17300
1404.120, 28.82104
1405.170, 93.32443
1406.220, 99.01239
1407.270, 37.46211
1408.319, 65.15804
1409.368, 9.879593
1410.417, 93.75349
1411.466, 67.45245
1412.515, 90.15942
1413.563, 49.86684
1414.612, 48.57591
1415.660, 88.29433
1416.708, 56.01361
1417.756, 40.71722
1418.803, 66.45006
1419.851, 104.1975
1420.898, 99.95923
1421.945, 91.72798
1422.992, 61.51881
1424.039, 62.34798
1425.086, 34.18503
1426.132, 35.90121
1427.178, 52.82497
1428.225, 37.34307
1429.270, 64.22565
1430.316, 65.11918
1431.362, 79.02447
1432.407, 63.94185
1433.452, 16.87487
1434.497, 33.87226
1435.542, 52.83823
1436.587, 88.82033
1437.631, 49.81979
1438.676, 6.152122
1439.720, 30.99190
1440.764, 92.07780
1441.807, 4.181015
1442.851, 81.31522
1443.895, 38.77342
1444.938, 25.94394
1445.981, 31.16851
1447.024, 15.66518
1448.066, 20.00642
1449.109, 29.29538
1450.151, 10.63453
1451.194, 31.92570
1452.236, 49.18932
1453.277, 52.42982
1454.319, 56.52204
1455.361, 54.63968
1456.402, 51.78059
1457.443, 34.95718
1458.484, 63.18703
1459.525, 67.48331
1460.565, 9.816818
1461.606, 46.77662
1462.646, 17.19473
1463.686, 82.68547
1464.726, 18.24165
1465.766, 28.86340
1466.805, 3.572136
1467.845, 63.36804
1468.884, 27.24870
1469.923, 65.23708
1470.962, 79.49685
1472.000, 38.50009
1473.039, 91.81196
1474.077, 95.26866
1475.115, 57.87034
1476.153, 49.58349
1477.191, 39.53638
1478.229, 2.275181
1479.266, 3.197502
1480.303, 54.01330
1481.340, 42.08616
1482.377, 13.59226
1483.414, 0.0000000E+00
##END=



