##NAMES=Fayalite
##RRUFFID=R070293
##IDEAL CHEMISTRY=Fe^2+^_2_SiO_4_
##LOCALITY=Pike's Peak, Teller County, Colorado, USA
##OWNER=RRUFF
##SOURCE=Michael Scott
##DESCRIPTION=Black single crystal fragment with internal hints of red and green
##STATUS=The identification of this mineral has been confirmed by X-ray diffraction and chemical analysis
##URL=rruff.info/R070293
##MEASURED CHEMISTRY=(Fe^2+^_1.87_Mn^2+^_0.13_)_Î£=2_Si_1.00_O_4_ ; trace amounts of Mg
##PIN_ID=L01546
##ORIENTATION=Laser parallel to c* (0 0 1). Fiducial mark perpendicular to laser is parallel to a [1 0 0]
99.34400, 0.0000000E+00
100.5810, 0.9296880
101.8190, 35.46387
103.0560, 43.12402
104.2930, 111.1436
105.5290, 191.1084
106.7660, 358.3008
108.0020, 153.9561
109.2390, 219.5215
110.4750, 434.7832
111.7110, 358.6279
112.9460, 158.9268
114.1820, 503.6553
115.4170, 214.8672
116.6530, 480.5479
117.8880, 195.7383
119.1230, 176.4785
120.3580, 235.2568
121.5920, 104.6777
122.8270, 212.7734
124.0610, 204.8887
125.2950, 312.9893
126.5290, 259.0488
127.7630, 282.5098
128.9970, 326.5703
130.2300, 249.3584
131.4640, 5.250000
132.6970, 41.60156
133.9300, 22.49512
135.1630, 23.05469
136.3950, 43.20898
137.6280, 173.2500
138.8600, 107.6436
140.0920, 320.5088
141.3240, 165.2256
142.5560, 209.5127
143.7880, 163.6494
145.0190, 5.414063
146.2510, 69.62988
147.4820, 163.8369
148.7130, 143.4463
149.9440, 412.0117
151.1750, 214.1523
152.4050, 422.2188
153.6360, 346.2627
154.8660, 250.6084
156.0960, 471.8789
157.3260, 423.3125
158.5560, 364.6523
159.7850, 418.9199
161.0150, 396.6602
162.2440, 368.6455
163.4730, 401.9209
164.7020, 364.7246
165.9310, 390.3760
167.1590, 513.4961
168.3880, 445.5449
169.6160, 278.5215
170.8440, 430.4297
172.0720, 245.8086
173.3000, 364.7979
174.5280, 508.4629
175.7550, 391.5264
176.9820, 376.4629
178.2100, 116.9863
179.4370, 267.5801
180.6630, 221.3721
181.8900, 151.2480
183.1170, 194.9150
184.3430, 241.0938
185.5690, 197.3574
186.7950, 254.5332
188.0210, 256.3545
189.2470, 291.9131
190.4720, 296.5693
191.6970, 297.4258
192.9230, 330.8867
194.1480, 198.0762
195.3730, 323.8789
196.5970, 240.4004
197.8220, 289.8096
199.0460, 241.9570
200.2700, 267.9648
201.4940, 206.3271
202.7180, 92.69922
203.9420, 32.06250
205.1660, 30.41504
206.3890, 135.7510
207.6120, 51.11426
208.8350, 125.4492
210.0580, 11.81543
211.2810, 86.18750
212.5040, 3.530273
213.7260, 85.15723
214.9480, 97.11621
216.1700, 149.7773
217.3920, 119.5771
218.6140, 10.83887
219.8360, 37.71191
221.0570, 66.29492
222.2790, 35.54883
223.5000, 58.93066
224.7210, 117.9580
225.9410, 155.9023
227.1620, 266.7705
228.3820, 190.5625
229.6030, 268.2725
230.8230, 260.8408
232.0430, 328.3467
233.2630, 350.4688
234.4820, 398.4482
235.7020, 425.1992
236.9210, 490.3242
238.1400, 583.3984
239.3590, 599.4258
240.5780, 602.4102
241.7970, 510.3496
243.0150, 369.2451
244.2340, 244.0977
245.4520, 200.3184
246.6700, 153.5029
247.8880, 149.4287
249.1060, 129.8438
250.3230, 115.8291
251.5400, 243.3770
252.7580, 117.7324
253.9750, 135.5693
255.1920, 171.0244
256.4080, 15.00879
257.6250, 58.33398
258.8410, 69.23926
260.0580, 9.253906
261.2740, 147.5225
262.4900, 118.7100
263.7050, 136.5791
264.9210, 19.10254
266.1360, 111.7529
267.3520, 179.4961
268.5670, 15.78418
269.7820, 35.32422
270.9960, 86.94043
272.2110, 117.3809
273.4250, 76.81738
274.6400, 225.3838
275.8540, 251.8838
277.0680, 196.1572
278.2810, 228.4756
279.4950, 218.3340
280.7090, 288.5430
281.9220, 274.8486
283.1350, 179.2012
284.3480, 194.7236
285.5610, 446.5879
286.7730, 229.7363
287.9860, 290.8926
289.1980, 350.6318
290.4100, 270.6895
291.6220, 306.7334
292.8340, 352.1113
294.0460, 411.0371
295.2570, 350.0024
296.4690, 281.7773
297.6800, 239.6812
298.8910, 216.4199
300.1020, 408.6509
301.3120, 417.3052
302.5230, 436.1450
303.7330, 488.7305
304.9440, 411.6953
306.1540, 522.1104
307.3630, 498.7681
308.5730, 722.8457
309.7830, 576.5771
310.9920, 672.4048
312.2010, 615.8047
313.4100, 723.3521
314.6190, 735.0259
315.8280, 676.8848
317.0370, 574.0581
318.2450, 488.3853
319.4530, 582.2485
320.6610, 661.3530
321.8690, 528.8213
323.0770, 477.1978
324.2850, 441.2690
325.4920, 429.6597
326.6990, 394.3350
327.9060, 354.2793
329.1130, 401.9678
330.3200, 354.3472
331.5270, 269.1279
332.7330, 371.6929
333.9390, 244.8198
335.1450, 366.0923
336.3510, 418.6152
337.5570, 300.2769
338.7630, 522.6011
339.9680, 458.7158
341.1740, 297.0615
342.3790, 524.9131
343.5840, 435.9438
344.7890, 424.7217
345.9930, 388.3394
347.1980, 568.3604
348.4020, 613.6118
349.6060, 689.1768
350.8100, 658.6919
352.0140, 829.1704
353.2180, 724.9155
354.4210, 660.2886
355.6250, 863.3545
356.8280, 879.7207
358.0310, 958.5679
359.2340, 1083.326
360.4360, 1142.323
361.6390, 1240.063
362.8410, 1228.724
364.0430, 1387.589
365.2450, 1337.660
366.4470, 1355.923
367.6490, 1374.094
368.8510, 1235.566
370.0520, 1285.502
371.2530, 1323.564
372.4540, 1161.062
373.6550, 1106.210
374.8560, 1094.653
376.0560, 1004.035
377.2570, 961.5933
378.4570, 825.1211
379.6570, 924.6187
380.8570, 650.0928
382.0570, 523.5371
383.2560, 438.9521
384.4560, 487.3374
385.6550, 419.6929
386.8540, 422.0181
388.0530, 464.3120
389.2520, 213.3057
390.4510, 175.0845
391.6490, 120.6084
392.8470, 52.03467
394.0450, 209.3545
395.2430, 70.53906
396.4410, 185.1963
397.6390, 276.2729
398.8360, 93.37158
400.0340, 164.5615
401.2310, 130.4785
402.4280, 50.87646
403.6250, 59.31689
404.8210, 14.02197
406.0180, 11.79199
407.2140, 16.42334
408.4100, 20.07031
409.6060, 130.6475
410.8020, 2.914063
411.9980, 107.7778
413.1930, 50.18018
414.3890, 3.2226998E-02
415.5840, 96.01660
416.7790, 83.24463
417.9740, 53.12207
419.1680, 53.71094
420.3630, 77.35938
421.5570, 88.72510
422.7510, 121.1895
423.9450, 153.5708
425.1390, 149.2300
426.3330, 253.7949
427.5270, 109.9565
428.7200, 183.1382
429.9130, 227.8291
431.1060, 137.1074
432.2990, 264.5962
433.4920, 127.1982
434.6840, 216.5415
435.8770, 129.0059
437.0690, 117.4917
438.2610, 73.93555
439.4530, 209.3350
440.6450, 129.5239
441.8360, 182.5029
443.0280, 287.3530
444.2190, 162.6206
445.4100, 53.14160
446.6010, 135.0239
447.7920, 48.14844
448.9820, 1.773438
450.1730, 54.25244
451.3630, 4.231934
452.5530, 34.16357
453.7430, 18.07373
454.9330, 66.93652
456.1230, 58.23438
457.3120, 24.51660
458.5010, 147.2217
459.6910, 90.88867
460.8800, 60.49023
462.0680, 17.94971
463.2570, 22.46875
464.4460, 21.95020
465.6340, 27.32324
466.8220, 87.73438
468.0100, 2.182129
469.1980, 49.60254
470.3860, 131.8247
471.5730, 12.61963
472.7600, 36.35303
473.9480, 33.16553
475.1350, 42.89697
476.3210, 66.98682
477.5080, 113.5010
478.6950, 54.61035
479.8810, 33.68896
481.0670, 94.29150
482.2530, 40.43555
483.4390, 72.39355
484.6250, 110.8545
485.8100, 109.5771
486.9960, 113.4316
488.1810, 169.1445
489.3660, 242.0586
490.5510, 292.8340
491.7360, 276.7754
492.9200, 511.8330
494.1050, 427.7891
495.2890, 521.4902
496.4730, 615.2500
497.6570, 808.0742
498.8400, 972.5830
500.0240, 1058.154
501.2070, 1161.695
502.3910, 1445.610
503.5740, 1303.762
504.7570, 1359.230
505.9400, 1491.568
507.1220, 1330.822
508.3050, 1362.210
509.4870, 1249.687
510.6690, 1161.438
511.8510, 1086.908
513.0330, 981.2734
514.2140, 830.4258
515.3960, 853.4121
516.5770, 674.1748
517.7580, 577.2764
518.9390, 600.3047
520.1200, 472.4912
521.3010, 436.5400
522.4810, 591.6846
523.6610, 419.7842
524.8420, 515.8662
526.0220, 375.6230
527.2010, 347.4521
528.3810, 320.0811
529.5610, 383.5596
530.7400, 376.1348
531.9190, 500.2539
533.0980, 479.3545
534.2770, 527.9609
535.4560, 488.1328
536.6340, 428.9463
537.8120, 367.4932
538.9910, 530.5381
540.1690, 629.9893
541.3460, 665.4805
542.5240, 624.0840
543.7020, 572.0674
544.8790, 665.3330
546.0560, 603.7031
547.2330, 706.4932
548.4100, 782.9414
549.5870, 897.3652
550.7630, 848.2607
551.9400, 976.3711
553.1160, 1054.824
554.2920, 1133.189
555.4680, 1261.938
556.6440, 1274.408
557.8190, 1281.640
558.9950, 1421.682
560.1700, 1520.244
561.3450, 1693.771
562.5200, 1815.427
563.6950, 1752.457
564.8690, 1910.378
566.0440, 1844.090
567.2180, 1914.150
568.3920, 1826.299
569.5660, 1786.151
570.7400, 1716.365
571.9130, 1655.101
573.0870, 1518.795
574.2600, 1539.977
575.4330, 1313.838
576.6060, 1181.929
577.7790, 1180.707
578.9520, 1130.398
580.1240, 1007.741
581.2960, 872.7549
582.4690, 910.4824
583.6410, 723.3408
584.8120, 832.2510
585.9840, 780.7793
587.1560, 713.3613
588.3270, 632.9277
589.4980, 628.4795
590.6690, 648.0312
591.8400, 608.7715
593.0110, 514.1660
594.1810, 488.8271
595.3510, 617.3389
596.5220, 470.2705
597.6920, 484.3887
598.8610, 584.0850
600.0310, 476.3096
601.2010, 449.9951
602.3700, 508.2168
603.5390, 340.0771
604.7080, 397.7578
605.8770, 347.0820
607.0460, 206.8760
608.2140, 191.7119
609.3830, 185.5059
610.5510, 252.1914
611.7190, 135.8633
612.8870, 190.0391
614.0550, 189.4609
615.2220, 129.0547
616.3900, 190.6758
617.5570, 315.7021
618.7240, 157.0430
619.8910, 157.5977
621.0580, 295.4385
622.2240, 118.6133
623.3910, 151.4580
624.5570, 320.4824
625.7230, 185.6426
626.8890, 142.7695
628.0550, 165.8857
629.2200, 107.2051
630.3860, 130.8018
631.5510, 82.49414
632.7160, 50.15332
633.8810, 62.46973
635.0460, 114.3730
636.2100, 91.93555
637.3750, 67.46582
638.5390, 134.9648
639.7030, 111.4326
640.8670, 38.87109
642.0310, 102.2764
643.1950, 195.6494
644.3580, 107.9961
645.5210, 130.3125
646.6850, 142.5996
647.8480, 5.141602
649.0100, 81.07031
650.1730, 11.74902
651.3350, 68.37988
652.4980, 84.47852
653.6600, 13.54785
654.8220, 155.5791
655.9840, 21.58203
657.1450, 108.5518
658.3070, 116.4912
659.4680, 68.40430
660.6300, 91.28809
661.7910, 6.142578
662.9510, 58.95801
664.1120, 53.03906
665.2730, 120.5020
666.4330, 93.23145
667.5930, 130.9346
668.7530, 156.6113
669.9130, 123.3721
671.0730, 123.8916
672.2320, 80.49316
673.3920, 135.0723
674.5510, 135.6289
675.7100, 233.1670
676.8690, 65.68262
678.0280, 58.17676
679.1860, 43.64551
680.3450, 81.08789
681.5030, 9.490234
682.6610, 17.45996
683.8190, 14.75391
684.9770, 27.56055
686.1340, 77.85547
687.2920, 128.1357
688.4490, 175.4004
689.6060, 29.64844
690.7630, 196.8760
691.9200, 96.91309
693.0760, 35.21875
694.2330, 96.33008
695.3890, 39.42285
696.5450, 38.49805
697.7010, 16.44629
698.8570, 122.5713
700.0130, 165.5723
701.1680, 123.5576
702.3230, 35.52539
703.4780, 85.47461
704.6330, 4.406250
705.7880, 62.31152
706.9430, 2.198242
708.0970, 55.05566
709.2520, 53.10449
710.4060, 43.41797
711.5600, 92.41504
712.7140, 65.86621
713.8670, 23.79004
715.0210, 49.42773
716.1740, 27.04590
717.3270, 26.64844
718.4800, 57.23145
719.6330, 22.79980
720.7860, 26.65039
721.9380, 26.13574
723.0910, 36.88379
724.2430, 40.11230
725.3950, 13.83398
726.5470, 6.547852
727.6980, 35.91113
728.8500, 123.2617
730.0010, 102.6035
731.1530, 38.93359
732.3040, 91.74609
733.4550, 33.50879
734.6050, 30.24707
735.7560, 3.034180
736.9060, 1.178711
738.0560, 3.376953
739.2060, 96.56152
740.3560, 88.73242
741.5060, 107.9131
742.6560, 26.09082
743.8050, 5.266602
744.9540, 25.56836
746.1030, 37.55859
747.2520, 57.46094
748.4010, 40.60059
749.5500, 27.47266
750.6980, 0.1601560
751.8460, 132.0781
752.9950, 40.01270
754.1420, 125.2891
755.2900, 10.42871
756.4380, 127.5664
757.5850, 45.69238
758.7330, 91.01660
759.8800, 140.9678
761.0270, 53.50879
762.1730, 89.18652
763.3200, 103.1172
764.4670, 82.93262
765.6130, 94.56738
766.7590, 170.2939
767.9050, 165.7744
769.0510, 45.34863
770.1960, 110.7168
771.3420, 38.93066
772.4870, 124.2061
773.6320, 195.6953
774.7770, 249.0879
775.9220, 186.3740
777.0670, 145.9404
778.2110, 314.4043
779.3560, 242.5234
780.5000, 337.9492
781.6440, 388.7559
782.7880, 266.2012
783.9320, 394.7393
785.0750, 365.3350
786.2180, 479.7764
787.3620, 579.1152
788.5050, 654.1592
789.6480, 855.4463
790.7900, 775.7998
791.9330, 729.3281
793.0750, 1165.986
794.2170, 1225.830
795.3590, 1429.297
796.5010, 1617.801
797.6430, 1901.105
798.7850, 2206.508
799.9260, 2684.775
801.0670, 3189.056
802.2080, 3988.314
803.3490, 4800.865
804.4900, 5530.303
805.6310, 6818.904
806.7710, 8132.617
807.9110, 9489.192
809.0510, 10764.78
810.1910, 12004.19
811.3310, 13305.83
812.4710, 13940.48
813.6100, 14380.62
814.7490, 14585.60
815.8880, 14242.95
817.0270, 13728.24
818.1660, 12864.71
819.3050, 12273.33
820.4430, 11412.41
821.5820, 10627.74
822.7200, 10148.01
823.8580, 9526.505
824.9950, 9082.214
826.1330, 8784.978
827.2710, 8557.291
828.4080, 8239.060
829.5450, 8066.390
830.6820, 7897.750
831.8190, 7816.379
832.9560, 7674.777
834.0920, 7529.181
835.2280, 7353.383
836.3650, 7136.398
837.5010, 6921.264
838.6360, 6657.074
839.7720, 6362.533
840.9080, 6110.229
842.0430, 5611.246
843.1780, 5230.870
844.3130, 4841.818
845.4480, 4568.436
846.5830, 3969.971
847.7170, 3740.169
848.8520, 3226.004
849.9860, 2899.861
851.1200, 2649.435
852.2540, 2267.131
853.3870, 2047.746
854.5210, 1753.374
855.6540, 1609.146
856.7880, 1399.396
857.9210, 1151.354
859.0540, 1079.993
860.1860, 929.9941
861.3190, 817.8330
862.4510, 673.3574
863.5840, 688.9951
864.7160, 559.8018
865.8480, 614.8125
866.9790, 381.8320
868.1110, 568.7021
869.2420, 451.5879
870.3740, 252.4688
871.5050, 281.3018
872.6360, 406.7471
873.7660, 372.4355
874.8970, 243.2500
876.0280, 186.3486
877.1580, 216.4570
878.2880, 298.5762
879.4180, 225.5723
880.5480, 311.4980
881.6770, 337.9834
882.8070, 278.8066
883.9360, 232.9805
885.0650, 305.7080
886.1940, 485.8252
887.3230, 458.8027
888.4520, 422.0264
889.5800, 679.2568
890.7090, 578.9121
891.8370, 726.5537
892.9650, 676.8271
894.0930, 669.6074
895.2200, 662.9102
896.3480, 566.2246
897.4750, 606.0439
898.6020, 619.7686
899.7290, 669.2559
900.8560, 713.6270
901.9830, 833.0117
903.1090, 880.4150
904.2360, 766.8330
905.3620, 804.2656
906.4880, 719.7148
907.6140, 765.1797
908.7400, 620.6611
909.8650, 656.1699
910.9900, 556.6934
912.1160, 603.2324
913.2410, 445.7881
914.3660, 400.2383
915.4900, 572.8262
916.6150, 619.4395
917.7390, 814.0684
918.8640, 665.7119
919.9880, 597.0098
921.1120, 850.1836
922.2350, 800.9531
923.3590, 884.6865
924.4820, 1009.452
925.6060, 944.3174
926.7290, 986.1367
927.8520, 1123.800
928.9740, 922.6533
930.0970, 1050.268
931.2190, 1000.156
932.3420, 1073.454
933.4640, 1116.375
934.5860, 996.3125
935.7080, 1101.711
936.8290, 862.6875
937.9510, 982.1572
939.0720, 954.1641
940.1930, 898.2021
941.3140, 955.3828
942.4350, 812.3770
943.5560, 934.4873
944.6760, 845.7080
945.7960, 743.8496
946.9170, 776.0146
948.0370, 902.1943
949.1560, 691.3896
950.2760, 598.5410
951.3960, 690.8018
952.5150, 562.3350
953.6340, 714.1484
954.7530, 521.4678
955.8720, 644.8193
956.9910, 670.1973
958.1090, 455.5908
959.2280, 520.0020
960.3460, 610.4365
961.4640, 481.8965
962.5820, 449.3730
963.6990, 565.8643
964.8170, 525.4033
965.9340, 422.0117
967.0510, 434.6064
968.1690, 543.2168
969.2850, 415.8447
970.4020, 401.5215
971.5190, 377.2119
972.6350, 325.1152
973.7510, 299.8350
974.8670, 249.8535
975.9830, 480.6035
977.0990, 462.5391
978.2150, 430.3232
979.3300, 480.1250
980.4450, 366.9414
981.5600, 360.0156
982.6750, 291.9141
983.7900, 268.2363
984.9050, 264.8252
986.0190, 261.6777
987.1340, 299.6338
988.2480, 338.6094
989.3620, 310.3291
990.4750, 235.6035
991.5890, 272.6221
992.7020, 272.6641
993.8160, 271.7295
994.9290, 266.8242
996.0420, 319.9443
997.1550, 381.0850
998.2670, 359.2021
999.3800, 240.4102
1000.492, 276.5928
1001.604, 297.7861
1002.716, 120.9941
1003.828, 102.2412
1004.940, 134.5010
1006.051, 261.7832
1007.163, 299.0811
1008.274, 258.3936
1009.385, 191.7207
1010.496, 142.0684
1011.606, 188.4277
1012.717, 73.79688
1013.827, 147.1807
1014.937, 185.5762
1016.047, 79.99219
1017.157, 148.4297
1018.267, 166.8799
1019.377, 222.3506
1020.486, 102.8340
1021.595, 144.3311
1022.704, 54.83887
1023.813, 32.38086
1024.922, 48.96777
1026.030, 47.56934
1027.139, 132.4639
1028.247, 120.0986
1029.355, 69.74121
1030.463, 83.39648
1031.571, 19.07617
1032.678, 62.76660
1033.786, 175.4678
1034.893, 270.1787
1036.000, 161.5117
1037.107, 11.24219
1038.214, 117.9824
1039.321, 132.7324
1040.427, 191.4932
1041.533, 7.261719
1042.639, 55.57324
1043.745, 61.36035
1044.851, 39.15723
1045.957, 39.96777
1047.062, 37.21191
1048.168, 45.60742
1049.273, 38.56543
1050.378, 109.5186
1051.482, 179.3623
1052.587, 54.78516
1053.692, 23.94043
1054.796, 5.091797
1055.900, 88.47656
1057.004, 39.89258
1058.108, 4.723633
1059.212, 86.87988
1060.315, 31.24023
1061.418, 55.63867
1062.522, 28.47656
1063.625, 159.4072
1064.728, 17.70312
1065.830, 27.18750
1066.933, 198.0840
1068.035, 44.01270
1069.137, 89.00195
1070.239, 44.09863
1071.341, 86.79199
1072.443, 67.60352
1073.545, 95.75586
1074.646, 134.6611
1075.747, 82.57129
1076.848, 31.51562
1077.949, 98.39160
1079.050, 89.89551
1080.150, 127.8105
1081.251, 182.7295
1082.351, 26.32324
1083.451, 190.4395
1084.551, 59.62695
1085.651, 49.48047
1086.750, 49.37988
1087.850, 191.5615
1088.949, 132.4648
1090.048, 135.4170
1091.147, 71.46777
1092.246, 100.3604
1093.345, 55.77734
1094.443, 80.68848
1095.541, 33.59961
1096.639, 36.51270
1097.737, 4.233398
1098.835, 16.14453
1099.933, 40.82715
1101.030, 43.96973
1102.128, 58.55273
1103.225, 78.46484
1104.322, 51.62500
1105.419, 118.2568
1106.515, 67.86426
1107.612, 29.99023
1108.708, 4.830078
1109.804, 98.66602
1110.900, 75.50000
1111.996, 94.33301
1113.092, 79.83594
1114.187, 11.94727
1115.283, 37.72754
1116.378, 109.5059
1117.473, 126.2725
1118.568, 135.0547
1119.662, 131.7178
1120.757, 158.5664
1121.851, 126.3330
1122.946, 159.0957
1124.040, 213.8535
1125.134, 198.7393
1126.227, 247.3984
1127.321, 212.5088
1128.414, 226.2529
1129.508, 224.9941
1130.601, 42.73145
1131.693, 139.4648
1132.786, 241.1934
1133.879, 91.91797
1134.971, 217.7148
1136.064, 101.4307
1137.156, 185.2090
1138.248, 227.9150
1139.339, 63.61523
1140.431, 106.3115
1141.522, 208.8291
1142.614, 275.5156
1143.705, 297.7656
1144.796, 316.4004
1145.887, 290.5381
1146.977, 267.2002
1148.068, 162.8574
1149.158, 90.50781
1150.248, 203.1533
1151.338, 122.7930
1152.428, 214.4258
1153.518, 198.0518
1154.607, 171.2900
1155.696, 264.9033
1156.785, 114.6074
1157.874, 26.20605
1158.963, 174.7939
1160.052, 78.37305
1161.141, 150.9463
1162.229, 172.9590
1163.317, 224.5156
1164.405, 182.0654
1165.493, 224.6074
1166.581, 23.14160
1167.668, 66.66113
1168.756, 105.2988
1169.843, 64.84668
1170.930, 210.3398
1172.017, 65.82617
1173.103, 9.697266
1174.190, 139.7471
1175.276, 173.2090
1176.363, 101.9170
1177.449, 127.3350
1178.535, 235.8652
1179.620, 1.727539
1180.706, 48.64941
1181.791, 149.0156
1182.877, 96.37305
1183.962, 181.0840
1185.047, 121.9277
1186.131, 26.80957
1187.216, 8.482422
1188.300, 7.169922
1189.385, 5.784180
1190.469, 80.12500
1191.553, 112.5000
1192.637, 174.6904
1193.720, 233.1309
1194.804, 158.3018
1195.887, 101.0703
1196.970, 135.2227
1198.053, 177.3652
1199.136, 53.05859
1200.219, 117.1807
1201.301, 152.8154
1202.383, 14.08301
1203.465, 67.01562
1204.547, 150.9873
1205.629, 92.97852
1206.711, 94.96094
1207.792, 141.8369
1208.874, 7.799805
1209.955, 111.7383
1211.036, 107.6650
1212.117, 78.58398
1213.198, 92.44922
1214.278, 81.38086
1215.359, 47.42578
1216.439, 214.2334
1217.519, 20.96875
1218.599, 118.7891
1219.678, 73.53809
1220.758, 53.27637
1221.837, 1.9530000E-03
1222.917, 8.299805
1223.996, 212.3662
1225.075, 107.0215
1226.153, 134.6660
1227.232, 60.69824
1228.310, 132.8467
1229.389, 156.4121
1230.467, 93.96973
1231.545, 58.48242
1232.622, 124.0068
1233.700, 97.48633
1234.777, 224.7568
1235.855, 277.2158
1236.932, 80.37891
1238.009, 248.8174
1239.086, 153.0781
1240.162, 140.4971
1241.239, 152.9062
1242.315, 110.3047
1243.391, 156.4697
1244.467, 107.8291
1245.543, 156.2002
1246.619, 191.5615
1247.694, 91.91211
1248.769, 13.25586
1249.844, 61.58008
1250.919, 128.8936
1251.994, 172.1992
1253.069, 155.4951
1254.144, 93.78223
1255.218, 30.05859
1256.292, 199.3232
1257.366, 320.5771
1258.440, 160.8223
1259.514, 154.0586
1260.587, 166.2852
1261.661, 206.5020
1262.734, 248.7109
1263.807, 63.91016
1264.880, 96.09961
1265.952, 66.27930
1267.025, 246.4512
1268.097, 239.6113
1269.170, 106.7637
1270.242, 6.091797
1271.314, 278.0254
1272.385, 182.1338
1273.457, 185.2344
1274.528, 198.3252
1275.600, 104.4141
1276.671, 296.4873
1277.742, 275.5518
1278.812, 192.6074
1279.883, 88.87500
1280.954, 129.9131
1282.024, 215.9434
1283.094, 68.03418
1284.164, 311.9297
1285.234, 58.88574
1286.303, 119.8340
1287.373, 101.4893
1288.442, 216.4189
1289.511, 249.3418
1290.580, 34.74414
1291.649, 198.1318
1292.718, 114.3662
1293.786, 97.22852
1294.855, 248.0811
1295.923, 152.3145
1296.991, 50.15332
1298.059, 68.98340
1299.126, 152.8047
1300.194, 154.6201
1301.261, 238.4277
1302.328, 167.6953
1303.395, 70.48828
1304.462, 3.726563
1305.529, 326.0420
1306.596, 133.8018
1307.662, 250.9600
1308.728, 221.5820
1309.794, 172.2100
1310.860, 172.9492
1311.926, 151.2021
1312.991, 161.4824
1314.057, 146.1045
1315.122, 211.1162
1316.187, 230.2832
1317.252, 288.4844
1318.317, 133.4668
1319.381, 170.1836
1320.446, 177.8994
1321.510, 243.6123
1322.574, 258.3232
1323.638, 215.0322
1324.702, 252.7373
1325.766, 240.4395
1326.829, 170.1348
1327.892, 268.7090
1328.956, 224.3955
1330.019, 163.0840
1331.081, 126.8486
1332.144, 255.2754
1333.206, 329.9443
1334.269, 291.6084
1335.331, 317.5176
1336.393, 294.9258
1337.455, 267.9863
1338.516, 250.6357
1339.578, 306.2793
1340.639, 211.8926
1341.701, 194.6875
1342.762, 201.3066
1343.822, 265.7393
1344.883, 280.7002
1345.944, 264.3467
1347.004, 337.3691
1348.064, 233.9521
1349.124, 196.4326
1350.184, 207.0742
1351.244, 87.18750
1352.304, 113.8066
1353.363, 153.4229
1354.422, 124.1865
1355.481, 144.9902
1356.540, 136.4492
1357.599, 136.8633
1358.657, 112.4688
1359.716, 64.40137
1360.774, 89.47266
1361.832, 173.6045
1362.890, 116.2178
1363.948, 173.8311
1365.006, 176.4482
1366.063, 110.0771
1367.120, 223.7070
1368.178, 208.3340
1369.234, 255.9609
1370.291, 211.5879
1371.348, 93.23535
1372.404, 76.88574
1373.461, 175.5342
1374.517, 93.04102
1375.573, 124.4277
1376.629, 74.58398
1377.684, 105.1523
1378.740, 123.8008
1379.795, 102.4512
1380.850, 113.5615
1381.905, 201.7432
1382.960, 155.9873
1384.015, 105.6240
1385.070, 252.2617
1386.124, 204.8994
1387.178, 27.53906
1388.232, 121.1787
1389.286, 86.82129
1390.340, 98.46484
1391.393, 177.0312
1392.447, 48.67871
1393.500, 210.2598
1394.553, 77.91016
1395.606, 116.5625
1396.659, 99.21875
1397.711, 20.04980
1398.764, 109.7100
1399.816, 74.37402
1400.868, 144.0410
1401.920, 8.711914
1402.972, 267.3857
1404.023, 246.0635
1405.075, 233.7441
1406.126, 10.58008
1407.177, 300.0986
1408.228, 101.7812
1409.279, 120.4688
1410.330, 177.5410
1411.380, 344.2373
1412.431, 99.84082
1413.481, 183.5488
1414.531, 115.2627
1415.580, 15.98340
1416.630, 106.7090
1417.680, 309.9941
1418.729, 19.07227
1419.778, 194.8301
1420.827, 313.5830
1421.876, 63.34375
1422.925, 102.1758
1423.973, 91.83105
1425.022, 265.5752
1426.070, 94.37500
1427.118, 153.2363
1428.166, 214.0566
1429.214, 268.8975
1430.261, 158.7266
1431.309, 1.310547
1432.356, 142.1895
1433.403, 46.91895
1434.450, 134.9814
1435.497, 197.9053
1436.543, 89.83984
1437.590, 65.78613
1438.636, 37.16211
1439.682, 193.8125
1440.728, 120.8037
1441.774, 45.83008
1442.819, 306.0146
1443.865, 97.24316
1444.910, 195.5088
1445.955, 185.6562
1447.000, 121.8262
1448.045, 222.1650
1449.090, 169.3711
1450.134, 102.2969
1451.178, 253.2686
1452.223, 98.46387
1453.267, 128.2412
1454.310, 231.8408
1455.354, 122.4512
1456.398, 87.12988
1457.441, 185.8057
1458.484, 159.4902
1459.527, 107.1816
1460.570, 213.9082
1461.613, 214.6748
1462.655, 189.4590
1463.698, 49.25977
1464.740, 8.077148
1465.782, 104.9316
1466.824, 227.7881
1467.866, 65.70703
1468.907, 155.6221
1469.948, 142.5977
1470.990, 9.580078
1472.031, 151.5684
1473.072, 188.5645
1474.112, 207.5654
1475.153, 283.5723
1476.194, 58.58691
1477.234, 19.60742
1478.274, 78.64355
1479.314, 33.68945
1480.354, 128.7422
1481.393, 139.8076
1482.433, 32.12012
1483.472, 92.96289
1484.511, 107.0537
1485.550, 174.1543
1486.589, 23.26465
1487.628, 120.3838
1488.666, 255.5352
1489.704, 95.69727
1490.743, 180.8604
1491.781, 197.0439
1492.819, 165.9160
1493.856, 234.1182
1494.894, 298.4033
1495.931, 153.7021
1496.968, 49.01562
1498.005, 166.3652
1499.042, 327.1709
1500.079, 142.5615
1501.115, 310.9678
1502.152, 109.3916
1503.188, 172.8281
1504.224, 84.27930
1505.260, 113.7607
1506.296, 240.8203
1507.331, 225.2998
1508.367, 256.7949
1509.402, 122.5527
1510.437, 228.0400
1511.472, 139.5156
1512.507, 52.98047
1513.541, 165.4482
1514.576, 37.92676
1515.610, 87.42285
1516.644, 153.9531
1517.678, 160.5137
1518.712, 38.10059
1519.746, 137.7168
1520.779, 88.35938
1521.813, 216.0312
1522.846, 133.7285
1523.879, 271.4531
1524.912, 140.2031
1525.944, 186.9805
1526.977, 85.78613
1528.009, 121.6201
1529.041, 117.4844
1530.073, 132.2578
1531.105, 182.1357
1532.137, 199.7959
1533.168, 228.9863
1534.200, 225.9600
1535.231, 208.9717
1536.262, 115.0215
1537.293, 234.1035
1538.324, 116.2275
1539.354, 248.3936
1540.385, 263.5938
1541.415, 106.8291
1542.445, 1.179688
1543.475, 11.82227
1544.505, 85.13672
1545.534, 95.69922
1546.564, 40.32617
1547.593, 286.0205
1548.622, 279.7832
1549.651, 304.6201
1550.680, 50.53125
1551.708, 284.5244
1552.737, 108.6064
1553.765, 162.8291
1554.793, 121.2119
1555.821, 150.7168
1556.849, 245.3555
1557.877, 126.1387
1558.904, 280.0840
1559.932, 206.7979
1560.959, 162.8047
1561.986, 72.63477
1563.013, 208.1230
1564.039, 136.3379
1565.066, 230.2422
1566.092, 81.39844
1567.119, 83.82422
1568.145, 13.46484
1569.170, 192.8301
1570.196, 342.0537
1571.222, 110.3418
1572.247, 270.1855
1573.272, 169.6738
1574.297, 55.43750
1575.322, 2.138672
1576.347, 0.0000000E+00
##END=



