##NAMES=Fayalite
##RRUFFID=R070374
##IDEAL CHEMISTRY=Fe^2+^_2_SiO_4_
##LOCALITY=Little Lake, Lake County, California, USA
##OWNER=RRUFF
##SOURCE=Michael Scott
##DESCRIPTION=Large dark brown crystal fragment
##STATUS=The identification of this mineral has been confirmed by X-ray diffraction and chemical analysis
##URL=rruff.info/R070374
##MEASURED CHEMISTRY=(Fe^2+^_1.89_Mn^2+^_0.11_)_Î£=2_Si_1.00_O_4_ ; trace amounts of Mg
##PIN_ID=M01315
##ORIENTATION=Laser parallel to c* (0 0 1). Fiducial mark perpendicular to laser is parallel to a [1 0 0]
88.20000, 0.0000000E+00
89.43900, 45.13232
90.67800, 68.03662
91.91600, 147.9160
93.15500, 97.25830
94.39300, 29.95874
95.63100, 43.50195
96.86900, 59.03296
98.10600, 40.22241
99.34400, 52.16455
100.5810, 25.42065
101.8190, 16.46826
103.0560, 72.17456
104.2930, 112.6326
105.5290, 274.0884
106.7660, 377.6460
108.0020, 348.2668
109.2390, 375.8289
110.4750, 334.2668
111.7110, 407.0010
112.9460, 459.3989
114.1820, 668.1963
115.4170, 772.0535
116.6530, 854.6602
117.8880, 986.8633
119.1230, 1125.952
120.3580, 1271.211
121.5920, 1075.674
122.8270, 952.5386
124.0610, 650.9128
125.2950, 334.3650
126.5290, 227.4956
127.7630, 182.1282
128.9970, 104.2581
130.2300, 121.8977
131.4640, 6.911133
132.6970, 71.09546
133.9300, 9.637939
135.1630, 35.21313
136.3950, 57.85254
137.6280, 50.04517
138.8600, 74.38013
140.0920, 57.26392
141.3240, 32.91797
142.5560, 50.67578
143.7880, 104.5938
145.0190, 77.64087
146.2510, 99.45972
147.4820, 154.6982
148.7130, 158.7854
149.9440, 307.5730
151.1750, 469.0913
152.4050, 597.2422
153.6360, 699.5032
154.8660, 734.4534
156.0960, 649.2815
157.3260, 604.4028
158.5560, 428.2561
159.7850, 394.6621
161.0150, 271.3320
162.2440, 296.2039
163.4730, 284.1646
164.7020, 331.9023
165.9310, 290.2004
167.1590, 275.7637
168.3880, 341.2959
169.6160, 355.3430
170.8440, 444.1415
172.0720, 342.9836
173.3000, 373.8644
174.5280, 265.7783
175.7550, 238.7217
176.9820, 200.6909
178.2100, 213.6835
179.4370, 207.6965
180.6630, 217.7272
181.8900, 207.2854
183.1170, 144.8308
184.3430, 176.8885
185.5690, 194.9343
186.7950, 165.9684
188.0210, 200.0054
189.2470, 204.0433
190.4720, 221.6721
191.6970, 288.1287
192.9230, 272.1750
194.1480, 329.2177
195.3730, 356.2537
196.5970, 304.2797
197.8220, 321.2937
199.0460, 292.2942
200.2700, 235.2219
201.4940, 277.2476
202.7180, 106.2026
203.9420, 113.1416
205.1660, 37.06653
206.3890, 7.976685
207.6120, 45.87268
208.8350, 51.24475
210.0580, 24.37903
211.2810, 22.52722
212.5040, 38.68933
213.7260, 54.86206
214.9480, 28.04712
216.1700, 5.756104
217.3920, 58.54785
218.6140, 16.67126
219.8360, 10.09351
221.0570, 13.82666
222.2790, 54.49304
223.5000, 3.898926
224.7210, 6.602783
225.9410, 27.97021
227.1620, 39.57532
228.3820, 47.21802
229.6030, 26.92676
230.8230, 10.67651
232.0430, 39.50049
233.2630, 5.616089
234.4820, 6.317505
235.7020, 25.24817
236.9210, 3.080933
238.1400, 38.62952
239.3590, 41.35559
240.5780, 103.0811
241.7970, 104.7965
243.0150, 67.49280
244.2340, 139.1648
245.4520, 115.8101
246.6700, 122.4248
247.8880, 141.9989
249.1060, 147.5331
250.3230, 198.0292
251.5400, 249.4885
252.7580, 226.9111
253.9750, 243.2963
255.1920, 237.6438
256.4080, 246.9539
257.6250, 276.2031
258.8410, 294.9435
260.0580, 334.4329
261.2740, 352.4944
262.4900, 401.5168
263.7050, 416.5096
264.9210, 479.4746
266.1360, 513.4075
267.3520, 573.3036
268.5670, 660.1615
269.7820, 742.9799
270.9960, 833.7559
272.2110, 866.4895
273.4250, 973.1819
274.6400, 1138.835
275.8540, 1344.509
277.0680, 1538.091
278.2810, 1728.874
279.4950, 2166.495
280.7090, 2471.627
281.9220, 2799.525
283.1350, 3282.844
284.3480, 3944.090
285.5610, 4385.408
286.7730, 4970.616
287.9860, 5580.674
289.1980, 6004.008
290.4100, 6208.292
291.6220, 6107.466
292.8340, 5840.860
294.0460, 5284.068
295.2570, 4670.408
296.4690, 3927.417
297.6800, 3456.435
298.8910, 2830.316
300.1020, 2448.228
301.3120, 2006.969
302.5230, 1750.663
303.7330, 1518.322
304.9440, 1357.908
306.1540, 1204.492
307.3630, 1078.006
308.5730, 995.3843
309.7830, 895.5363
310.9920, 848.0818
312.2010, 756.5374
313.4100, 732.0864
314.6190, 673.4153
315.8280, 615.7368
317.0370, 584.8729
318.2450, 530.3728
319.4530, 504.7734
320.6610, 467.0847
321.8690, 419.3932
323.0770, 442.7755
324.2850, 392.0978
325.4920, 402.3643
326.6990, 399.7339
327.9060, 422.0703
329.1130, 356.0724
330.3200, 356.3199
331.5270, 366.6619
332.7330, 345.9551
333.9390, 342.0166
335.1450, 365.4260
336.3510, 380.7803
337.5570, 422.1500
338.7630, 394.4250
339.9680, 464.7012
341.1740, 528.9751
342.3790, 501.2584
343.5840, 578.5513
344.7890, 645.8463
345.9930, 652.1389
347.1980, 682.4329
348.4020, 776.3247
349.6060, 854.2534
350.8100, 869.4386
352.0140, 1013.799
353.2180, 1048.171
354.4210, 1222.939
355.6250, 1223.420
356.8280, 1439.043
358.0310, 1637.676
359.2340, 1810.323
360.4360, 2031.681
361.6390, 2221.159
362.8410, 2509.781
364.0430, 2714.944
365.2450, 2871.704
366.4470, 3059.622
367.6490, 3229.498
368.8510, 3308.596
370.0520, 3419.352
371.2530, 3417.024
372.4540, 3427.018
373.6550, 3328.574
374.8560, 3169.445
376.0560, 3008.370
377.2570, 2797.526
378.4570, 2543.508
379.6570, 2349.827
380.8570, 2198.307
382.0570, 2008.845
383.2560, 1936.506
384.4560, 1698.195
385.6550, 1518.324
386.8540, 1514.455
388.0530, 1293.357
389.2520, 1140.628
390.4510, 1106.790
391.6490, 925.9800
392.8470, 953.2546
394.0450, 750.5439
395.2430, 810.9910
396.4410, 717.4314
397.6390, 629.8662
398.8360, 629.2986
400.0340, 589.7231
401.2310, 487.1384
402.4280, 441.5450
403.6250, 434.9431
404.8210, 372.3328
406.0180, 342.7135
407.2140, 268.0858
408.4100, 276.4493
409.6060, 263.8043
410.8020, 231.1511
411.9980, 226.4891
413.1930, 223.8184
414.3890, 258.1393
415.5840, 156.4519
416.7790, 126.7562
417.9740, 127.0522
419.1680, 57.34045
420.3630, 111.6202
421.5570, 122.8920
422.7510, 42.15967
423.9450, 74.41895
425.1390, 33.67188
426.3330, 87.92761
427.5270, 71.17639
428.7200, 67.41821
429.9130, 85.65308
431.1060, 80.88110
432.2990, 16.10315
433.4920, 70.31665
434.6840, 88.52295
435.8770, 27.72253
437.0690, 60.91345
438.2610, 9.097290
439.4530, 87.27222
440.6450, 35.44080
441.8360, 51.60254
443.0280, 32.75781
444.2190, 81.90637
445.4100, 56.04956
446.6010, 51.18726
447.7920, 47.31958
448.9820, 33.44641
450.1730, 37.56775
451.3630, 96.68384
452.5530, 67.79565
453.7430, 78.90320
454.9330, 33.00635
456.1230, 9.104370
457.3120, 60.19604
458.5010, 116.2834
459.6910, 77.36633
460.8800, 85.44482
462.0680, 39.51868
463.2570, 67.58728
464.4460, 75.65125
465.6340, 24.71045
466.8220, 51.76404
468.0100, 63.81287
469.1980, 40.86108
470.3860, 40.90637
471.5730, 72.98425
472.7600, 31.26318
473.9480, 26.43909
475.1350, 88.75415
476.3210, 50.05859
477.5080, 19.72205
478.6950, 37.95337
479.8810, 35.06348
481.0670, 63.36780
482.2530, 70.40527
483.4390, 91.66541
484.6250, 117.6375
485.8100, 86.60547
486.9960, 62.81409
488.1810, 129.0688
489.3660, 117.0243
490.5510, 85.98035
491.7360, 123.8809
492.9200, 114.6598
494.1050, 127.7026
495.2890, 115.1359
496.4730, 155.6343
497.6570, 107.7877
498.8400, 244.0773
500.0240, 152.3539
501.2070, 207.6514
502.3910, 207.6709
503.5740, 158.1591
504.7570, 176.0837
505.9400, 175.0464
507.1220, 165.7285
508.3050, 221.4972
509.4870, 178.8776
510.6690, 187.8503
511.8510, 178.4769
513.0330, 148.3086
514.2140, 159.1605
515.3960, 160.0486
516.5770, 169.9481
517.7580, 168.8864
518.9390, 203.3662
520.1200, 215.5802
521.3010, 178.1467
522.4810, 212.6434
523.6610, 177.4613
524.8420, 225.1331
526.0220, 174.2283
527.2010, 147.6184
528.3810, 192.3566
529.5610, 231.6052
530.7400, 176.2488
531.9190, 234.4521
533.0980, 217.0461
534.2770, 225.5626
535.4560, 267.2372
536.6340, 282.3337
537.8120, 273.9116
538.9910, 331.7244
540.1690, 365.2124
541.3460, 363.4368
542.5240, 489.4973
543.7020, 450.5498
544.8790, 539.5482
546.0560, 525.5222
547.2330, 614.3999
548.4100, 659.3076
549.5870, 703.1667
550.7630, 782.9839
551.9400, 945.8215
553.1160, 992.5710
554.2920, 1117.307
555.4680, 1186.031
556.6440, 1256.741
557.8190, 1375.438
558.9950, 1521.123
560.1700, 1591.794
561.3450, 1689.395
562.5200, 1701.041
563.6950, 1677.673
564.8690, 1681.175
566.0440, 1647.781
567.2180, 1590.225
568.3920, 1530.805
569.5660, 1419.372
570.7400, 1287.921
571.9130, 1275.462
573.0870, 1131.990
574.2600, 1046.289
575.4330, 1020.791
576.6060, 937.2795
577.7790, 829.5923
578.9520, 791.0320
580.1240, 711.2432
581.2960, 686.6794
582.4690, 615.9772
583.6410, 618.3308
584.8120, 589.5940
585.9840, 610.9778
587.1560, 506.3149
588.3270, 516.6199
589.4980, 480.8966
590.6690, 468.1038
591.8400, 416.3159
593.0110, 417.6218
594.1810, 395.9146
595.3510, 369.1941
596.5220, 393.3401
597.6920, 365.3743
598.8610, 374.6105
600.0310, 363.8380
601.2010, 301.0525
602.3700, 278.2542
603.5390, 241.3563
604.7080, 186.5317
605.8770, 171.6945
607.0460, 140.0919
608.2140, 135.8049
609.3830, 103.9286
610.5510, 102.9653
611.7190, 93.44031
612.8870, 44.07458
614.0550, 67.03308
615.2220, 31.95825
616.3900, 32.99805
617.5570, 6.993530
618.7240, 46.84253
619.8910, 1.245728
621.0580, 25.62878
622.2240, 0.4200440
623.3910, 32.50830
624.5570, 31.57837
625.7230, 31.70422
626.8890, 3.869263
628.0550, 25.94141
629.2200, 0.2628170
630.3860, 0.4893800
631.5510, 15.73828
632.7160, 14.01733
633.8810, 34.32520
635.0460, 40.67297
636.2100, 10.06360
637.3750, 4.480835
638.5390, 16.07825
639.7030, 17.99915
640.8670, 6.848633
642.0310, 2.343994
643.1950, 9.861572
644.3580, 17.01514
645.5210, 1.978638
646.6850, 13.57361
647.8480, 15.19617
649.0100, 8.153076
650.1730, 66.51367
651.3350, 61.23560
652.4980, 17.00940
653.6600, 63.81165
654.8220, 35.66687
655.9840, 18.56018
657.1450, 3.482300
658.3070, 12.42529
659.4680, 8.393433
660.6300, 14.41565
661.7910, 14.40173
662.9510, 34.44458
664.1120, 33.25244
665.2730, 8.637329
666.4330, 29.77319
667.5930, 19.94202
668.7530, 7.861938
669.9130, 67.34741
671.0730, 11.39160
672.2320, 35.88232
673.3920, 51.19092
674.5510, 6.541626
675.7100, 13.91101
676.8690, 6.302246
678.0280, 10.71118
679.1860, 22.14001
680.3450, 1.594238
681.5030, 7.937378
682.6610, 5.457275
683.8190, 13.96521
684.9770, 15.40698
686.1340, 33.94788
687.2920, 22.42334
688.4490, 29.53931
689.6060, 35.13733
690.7630, 25.78857
691.9200, 54.22400
693.0760, 45.65027
694.2330, 75.06750
695.3890, 61.04382
696.5450, 66.87549
697.7010, 38.26648
698.8570, 59.64905
700.0130, 58.02295
701.1680, 35.38904
702.3230, 60.38696
703.4780, 50.09668
704.6330, 77.43896
705.7880, 109.7734
706.9430, 101.1008
708.0970, 121.0255
709.2520, 134.2509
710.4060, 135.0377
711.5600, 128.3357
712.7140, 143.6260
713.8670, 143.1185
715.0210, 60.18811
716.1740, 154.4587
717.3270, 120.7235
718.4800, 121.9819
719.6330, 180.2347
720.7860, 145.4813
721.9380, 152.7222
723.0910, 173.9573
724.2430, 203.1869
725.3950, 212.2599
726.5470, 203.6292
727.6980, 237.8419
728.8500, 212.0496
730.0010, 211.2526
731.1530, 211.4506
732.3040, 212.6436
733.4550, 259.8314
734.6050, 246.0145
735.7560, 275.1934
736.9060, 276.3684
738.0560, 291.6180
739.2060, 282.7053
740.3560, 347.8673
741.5060, 393.0250
742.6560, 469.1792
743.8050, 367.3297
744.9540, 396.4763
746.1030, 394.6238
747.2520, 442.7683
748.4010, 407.9050
749.5500, 469.0365
750.6980, 424.1270
751.8460, 509.0095
752.9950, 507.9874
754.1420, 539.8195
755.2900, 504.6549
756.4380, 554.1292
757.5850, 560.0273
758.7330, 588.1573
759.8800, 616.8491
761.0270, 667.9280
762.1730, 698.7786
763.3200, 743.9155
764.4670, 786.0562
765.6130, 778.9521
766.7590, 823.8040
767.9050, 795.9551
769.0510, 906.1111
770.1960, 885.3245
771.3420, 954.6536
772.4870, 1008.717
773.6320, 1034.409
774.7770, 1125.043
775.9220, 1191.051
777.0670, 1234.938
778.2110, 1268.857
779.3560, 1381.781
780.5000, 1464.109
781.6440, 1593.456
782.7880, 1712.103
783.9320, 1902.402
785.0750, 2074.991
786.2180, 2264.503
787.3620, 2467.440
788.5050, 2663.771
789.6480, 2893.476
790.7900, 3204.984
791.9330, 3470.583
793.0750, 3909.978
794.2170, 4234.473
795.3590, 4879.940
796.5010, 5383.876
797.6430, 6084.093
798.7850, 6871.958
799.9260, 7919.851
801.0670, 9157.514
802.2080, 10635.28
803.3490, 12354.62
804.4900, 14599.67
805.6310, 17211.36
806.7710, 20381.54
807.9110, 23557.32
809.0510, 27510.54
810.1910, 31096.37
811.3310, 34707.27
812.4710, 36930.00
813.6100, 38747.32
814.7490, 38845.15
815.8880, 37688.73
817.0270, 35909.65
818.1660, 33316.81
819.3050, 30849.15
820.4430, 28192.49
821.5820, 26174.87
822.7200, 23977.28
823.8580, 22537.78
824.9950, 21338.25
826.1330, 20336.77
827.2710, 19532.31
828.4080, 18959.85
829.5450, 18717.46
830.6820, 18491.09
831.8190, 18334.72
832.9560, 18167.36
834.0920, 18107.03
835.2280, 18182.69
836.3650, 18062.37
837.5010, 17708.06
838.6360, 17509.76
839.7720, 17243.46
840.9080, 16573.19
842.0430, 16099.92
843.1780, 15228.66
844.3130, 14265.42
845.4480, 13397.18
846.5830, 12371.96
847.7170, 11446.75
848.8520, 10598.55
849.9860, 9511.362
851.1200, 8646.188
852.2540, 7773.023
853.3870, 7034.411
854.5210, 6395.729
855.6540, 5804.599
856.7880, 5258.483
857.9210, 4809.377
859.0540, 4339.715
860.1860, 3991.202
861.3190, 3573.133
862.4510, 3209.076
863.5840, 2940.031
864.7160, 2606.998
865.8480, 2379.978
866.9790, 2193.970
868.1110, 2044.974
869.2420, 1849.991
870.3740, 1695.655
871.5050, 1528.061
872.6360, 1391.115
873.7660, 1238.181
874.8970, 1118.260
876.0280, 1086.352
877.1580, 1055.456
878.2880, 930.5731
879.4180, 852.7161
880.5480, 773.8583
881.6770, 752.7346
882.8070, 697.9775
883.9360, 632.1580
885.0650, 590.3513
886.1940, 554.5573
887.3230, 501.7761
888.4520, 466.0089
889.5800, 431.8167
890.7090, 401.7429
891.8370, 356.1152
892.9650, 328.5005
894.0930, 260.7273
895.2200, 296.0497
896.3480, 279.4819
897.4750, 294.0759
898.6020, 250.5770
899.7290, 187.5432
900.8560, 190.4426
901.9830, 155.8472
903.1090, 121.7866
904.2360, 94.99304
905.3620, 160.8931
906.4880, 134.3995
907.6140, 152.9264
908.7400, 144.2006
909.8650, 135.9288
910.9900, 212.1746
912.1160, 196.8726
913.2410, 177.5156
914.3660, 154.0479
915.4900, 147.7180
916.6150, 137.4548
917.7390, 125.5920
918.8640, 214.9519
919.9880, 213.8918
921.1120, 300.6385
922.2350, 318.7266
923.3590, 374.7063
924.4820, 418.2061
925.6060, 457.6129
926.7290, 490.5393
927.8520, 514.9033
928.9740, 507.4214
930.0970, 561.3542
931.2190, 586.6538
932.3420, 537.6172
933.4640, 557.5962
934.5860, 529.5936
935.7080, 574.6113
936.8290, 538.6589
937.9510, 512.7333
939.0720, 550.8231
940.1930, 570.9329
941.3140, 537.0688
942.4350, 598.2195
943.5560, 582.4070
944.6760, 613.6084
945.7960, 622.8308
946.9170, 666.0859
948.0370, 593.3539
949.1560, 618.6440
950.2760, 516.9512
951.3960, 544.2802
952.5150, 459.6271
953.6340, 457.9846
954.7530, 475.3535
955.8720, 466.7410
956.9910, 487.1372
958.1090, 490.5424
959.2280, 470.9556
960.3460, 471.3778
961.4640, 412.8079
962.5820, 412.2471
963.6990, 420.6946
964.8170, 434.1495
965.9340, 433.6118
967.0510, 375.0851
968.1690, 374.5660
969.2850, 342.0540
970.4020, 300.5526
971.5190, 316.0586
972.6350, 368.5752
973.7510, 279.0986
974.8670, 285.6345
975.9830, 330.1769
977.0990, 276.7253
978.2150, 305.2808
979.3300, 286.8477
980.4450, 308.4208
981.5600, 268.0000
982.6750, 215.5905
983.7900, 203.1866
984.9050, 229.7886
986.0190, 219.3965
987.1340, 214.0106
988.2480, 153.6300
989.3620, 200.2548
990.4750, 135.8848
991.5890, 217.5195
992.7020, 195.1621
993.8160, 192.8094
994.9290, 190.4615
996.0420, 113.1183
997.1550, 175.7797
998.2670, 136.4453
999.3800, 93.11548
1000.492, 157.7898
1001.604, 105.4685
1002.716, 76.15149
1003.828, 116.8383
1004.940, 136.5287
1006.051, 109.2229
1007.163, 110.9205
1008.274, 101.6217
1009.385, 84.32642
1010.496, 93.03406
1011.606, 87.74487
1012.717, 0.4586180
1013.827, 85.17493
1014.937, 21.10596
1016.047, 3.391724
1017.157, 27.32385
1018.267, 26.04175
1019.377, 11.76208
1020.486, 28.48462
1021.595, 8.209229
1022.704, 7.064087
1023.813, 7.661255
1024.922, 24.61145
1026.030, 46.10681
1027.139, 0.8265380
1028.247, 17.54675
1029.355, 39.73169
1030.463, 5.028442
1031.571, 22.32727
1032.678, 29.63611
1033.786, 8.959229
1034.893, 34.79993
1036.000, 26.62061
1037.107, 45.99207
1038.214, 24.37585
1039.321, 11.22693
1040.427, 25.82935
1041.533, 59.56836
1042.639, 33.99927
1043.745, 41.45044
1044.851, 15.92603
1045.957, 30.41333
1047.062, 43.91980
1048.168, 6.546631
1049.273, 5.011108
1050.378, 19.52710
1051.482, 5.979736
1052.587, 2.496948
1053.692, 27.06958
1054.796, 63.65613
1055.900, 3.717651
1057.004, 20.91357
1058.108, 18.56287
1059.212, 10.22900
1060.315, 16.10254
1061.418, 1.798218
1062.522, 20.61267
1063.625, 13.09558
1064.728, 40.22351
1065.830, 19.66260
1066.933, 61.28284
1068.035, 47.49927
1069.137, 43.58716
1070.239, 60.15076
1071.341, 34.66370
1072.443, 75.92065
1073.545, 59.23669
1074.646, 39.52856
1075.747, 55.55396
1076.848, 77.61890
1077.949, 36.95178
1079.050, 109.0472
1080.150, 54.37573
1081.251, 48.37402
1082.351, 60.60278
1083.451, 97.88257
1084.551, 78.48560
1085.651, 83.76978
1086.750, 114.3885
1087.850, 72.79858
1088.949, 94.97498
1090.048, 106.1980
1091.147, 77.34766
1092.246, 112.6732
1093.345, 94.80847
1094.443, 91.17163
1095.541, 95.71130
1096.639, 77.68933
1097.737, 86.65308
1098.835, 63.62634
1099.933, 60.77380
1101.030, 73.85632
1102.128, 113.7998
1103.225, 77.98218
1104.322, 119.8450
1105.419, 117.9459
1106.515, 113.2943
1107.612, 107.3282
1108.708, 156.3539
1109.804, 85.46899
1110.900, 139.6636
1111.996, 97.71948
1113.092, 135.7106
1114.187, 137.8871
1115.283, 128.8734
1116.378, 154.8378
1117.473, 160.8934
1118.568, 191.9987
1119.662, 187.9358
1120.757, 191.8636
1121.851, 168.7822
1122.946, 226.6915
1124.040, 257.1401
1125.134, 258.0305
1126.227, 242.9114
1127.321, 207.7827
1128.414, 190.6617
1129.508, 257.5138
1130.601, 287.3560
1131.693, 252.1885
1132.786, 258.0903
1133.879, 225.9403
1134.971, 295.7433
1136.064, 255.5363
1137.156, 309.3192
1138.248, 275.0922
1139.339, 245.8550
1140.431, 233.6079
1141.522, 253.3503
1142.614, 247.0828
1143.705, 228.8051
1144.796, 237.5038
1145.887, 227.2054
1146.977, 223.1758
1148.068, 225.7814
1149.158, 222.1871
1150.248, 223.0326
1151.338, 223.7626
1152.428, 229.4022
1153.518, 230.0315
1154.607, 223.3538
1155.696, 217.8380
1156.785, 202.5311
1157.874, 201.1185
1158.963, 184.6779
1160.052, 188.2444
1161.141, 146.7043
1162.229, 180.0101
1163.317, 201.4125
1164.405, 157.3649
1165.493, 166.3997
1166.581, 171.9376
1167.668, 153.9443
1168.756, 148.6908
1169.843, 146.7510
1170.930, 135.2158
1172.017, 121.6709
1173.103, 128.3945
1174.190, 115.6818
1175.276, 112.4608
1176.363, 78.79541
1177.449, 103.1887
1178.535, 89.69604
1179.620, 100.0740
1180.706, 71.39209
1181.791, 34.31909
1182.877, 45.03357
1183.962, 55.17456
1185.047, 88.51855
1186.131, 57.53125
1187.216, 68.65625
1188.300, 58.28455
1189.385, 60.02783
1190.469, 1.261963
1191.553, 52.07678
1192.637, 20.75281
1193.720, 44.02368
1194.804, 30.93408
1195.887, 16.18921
1196.970, 8.503784
1198.053, 3.084595
1199.136, 17.11230
1200.219, 8.917725
1201.301, 11.25745
1202.383, 39.42261
1203.465, 21.42004
1204.547, 5.288330
1205.629, 17.17371
1206.711, 2.082520
1207.792, 18.99353
1208.874, 18.93909
1209.955, 18.10437
1211.036, 17.86084
1212.117, 5.849243
1213.198, 22.85437
1214.278, 4.114868
1215.359, 18.07275
1216.439, 3.022461
1217.519, 26.03955
1218.599, 35.87158
1219.678, 22.77551
1220.758, 48.67151
1221.837, 10.56055
1222.917, 45.44067
1223.996, 7.313721
1225.075, 12.17761
1226.153, 38.03296
1227.232, 52.88159
1228.310, 6.276855
1229.389, 22.54980
1230.467, 37.36914
1231.545, 6.818237
1232.622, 11.97961
1233.700, 6.230347
1234.777, 22.54565
1235.855, 14.68542
1236.932, 39.06543
1238.009, 37.80969
1239.086, 11.54773
1240.162, 13.72180
1241.239, 18.99194
1242.315, 55.69885
1243.391, 14.60034
1244.467, 28.08337
1245.543, 63.76099
1246.619, 8.432495
1247.694, 3.097168
1248.769, 31.75427
1249.844, 65.40552
1250.919, 34.05103
1251.994, 74.69080
1253.069, 6.675171
1254.144, 49.94800
1255.218, 100.5656
1256.292, 42.17773
1257.366, 21.78442
1258.440, 35.38550
1259.514, 38.98132
1260.587, 56.57178
1261.661, 5.157227
1262.734, 14.73682
1263.807, 38.31104
1264.880, 45.88013
1265.952, 63.44446
1267.025, 34.00403
1268.097, 78.55859
1269.170, 104.1086
1270.242, 41.65393
1271.314, 54.19482
1272.385, 70.73120
1273.457, 84.26318
1274.528, 73.79089
1275.600, 48.31445
1276.671, 85.83752
1277.742, 72.22217
1278.812, 70.87268
1279.883, 75.38428
1280.954, 77.89197
1282.024, 59.39600
1283.094, 138.8962
1284.164, 88.39417
1285.234, 95.88867
1286.303, 50.38501
1287.373, 150.8779
1288.442, 109.3680
1289.511, 129.8549
1290.580, 94.34814
1291.649, 148.8400
1292.718, 74.33423
1293.786, 93.83325
1294.855, 101.3318
1295.923, 83.83691
1296.991, 95.34644
1298.059, 80.86572
1299.126, 84.38916
1300.194, 127.9104
1301.261, 96.42920
1302.328, 98.96228
1303.395, 145.5032
1304.462, 146.0538
1305.529, 105.6078
1306.596, 86.16931
1307.662, 91.74194
1308.728, 59.31335
1309.794, 39.88403
1310.860, 102.3593
1311.926, 80.90393
1312.991, 128.4873
1314.057, 124.0785
1315.122, 122.6877
1316.187, 177.2976
1317.252, 136.9150
1318.317, 154.5403
1319.381, 169.3650
1320.446, 130.0017
1321.510, 173.5254
1322.574, 167.1646
1323.638, 146.7673
1324.702, 100.2460
1325.766, 99.53943
1326.829, 120.2313
1327.892, 139.0459
1328.956, 172.3788
1330.019, 133.7563
1331.081, 132.3840
1332.144, 89.94653
1333.206, 157.5276
1334.269, 82.36865
1335.331, 84.16455
1336.393, 169.6865
1337.455, 144.4399
1338.516, 118.9543
1339.578, 127.7930
1340.639, 168.3950
1341.701, 128.9399
1342.762, 165.1553
1343.822, 77.68311
1344.883, 107.8704
1345.944, 109.2603
1347.004, 86.87769
1348.064, 118.4419
1349.124, 127.0737
1350.184, 119.5232
1351.244, 85.15723
1352.304, 137.5574
1353.363, 108.0515
1354.422, 164.6895
1355.481, 127.3289
1356.540, 146.0947
1357.599, 139.6802
1358.657, 170.3250
1359.716, 129.1021
1360.774, 159.6350
1361.832, 201.4812
1362.890, 131.0835
1363.948, 175.4321
1365.006, 151.0891
1366.063, 114.7490
1367.120, 148.3130
1368.178, 89.79199
1369.234, 99.41040
1370.291, 149.0808
1371.348, 108.5598
1372.404, 94.22339
1373.461, 117.9028
1374.517, 115.4854
1375.573, 121.0127
1376.629, 149.7017
1377.684, 170.3945
1378.740, 76.09131
1379.795, 119.7910
1380.850, 125.9460
1381.905, 173.6536
1382.960, 183.3650
1384.015, 108.0803
1385.070, 177.7820
1386.124, 132.5049
1387.178, 146.2319
1388.232, 91.96338
1389.286, 122.6194
1390.340, 133.3218
1391.393, 189.0654
1392.447, 168.8132
1393.500, 115.5659
1394.553, 148.3232
1395.606, 133.0852
1396.659, 171.8521
1397.711, 117.6243
1398.764, 104.4011
1399.816, 97.18359
1400.868, 136.9712
1401.920, 183.7644
1402.972, 126.5635
1404.023, 130.3684
1405.075, 155.1787
1406.126, 96.99561
1407.177, 100.8184
1408.228, 198.6475
1409.279, 145.4827
1410.330, 128.3247
1411.380, 157.1736
1412.431, 101.0288
1413.481, 132.8911
1414.531, 154.7605
1415.580, 147.6372
1416.630, 101.5212
1417.680, 151.4126
1418.729, 88.31201
1419.778, 130.2192
1420.827, 114.1343
1421.876, 117.0754
1422.925, 146.9893
1423.973, 140.9297
1425.022, 133.8787
1426.070, 145.8367
1427.118, 158.8042
1428.166, 143.7810
1429.214, 147.7678
1430.261, 117.7646
1431.309, 102.7715
1432.356, 132.7891
1433.403, 115.6763
1434.450, 170.8574
1435.497, 116.9087
1436.543, 122.9722
1437.590, 109.2117
1438.636, 139.3015
1439.682, 134.4048
1440.728, 155.5227
1441.774, 166.1482
1442.819, 138.9492
1443.865, 171.3818
1444.910, 174.7065
1445.955, 141.8303
1447.000, 153.0818
1448.045, 149.2134
1449.090, 133.6086
1450.134, 115.6580
1451.178, 116.6741
1452.223, 121.5222
1453.267, 166.2068
1454.310, 173.9792
1455.354, 170.4373
1456.398, 142.5710
1457.441, 152.4082
1458.484, 127.2625
1459.527, 121.1389
1460.570, 113.0471
1461.613, 172.9751
1462.655, 162.9238
1463.698, 119.8894
1464.740, 61.86206
1465.782, 131.8430
1466.824, 126.8335
1467.866, 108.8345
1468.907, 61.84741
1469.948, 70.87744
1470.990, 158.9236
1472.031, 134.9917
1473.072, 115.0679
1474.112, 131.1655
1475.153, 114.2783
1476.194, 129.4067
1477.234, 81.54614
1478.274, 117.6956
1479.314, 47.85400
1480.354, 148.0286
1481.393, 92.21313
1482.433, 54.40698
1483.472, 82.61084
1484.511, 69.82617
1485.550, 106.0518
1486.589, 76.28711
1487.628, 75.53320
1488.666, 84.78955
1489.704, 75.05664
1490.743, 99.33447
1491.781, 33.62280
1492.819, 113.9219
1493.856, 0.7680660
1494.894, 62.55273
1495.931, 99.88428
1496.968, 85.22705
1498.005, 102.5803
1499.042, 60.94458
1500.079, 80.31982
1501.115, 70.74341
1502.152, 44.10278
1503.188, 57.51001
1504.224, 33.92822
1505.260, 8.356201
1506.296, 90.79395
1507.331, 99.24146
1508.367, 62.68042
1509.402, 51.12744
1510.437, 25.58032
1511.472, 14.03394
1512.507, 33.49316
1513.541, 5.957275
1514.576, 39.42920
1515.610, 34.91943
1516.644, 46.43286
1517.678, 49.63989
1518.712, 56.52954
1519.746, 49.11133
1520.779, 71.71484
1521.813, 83.33984
1522.846, 80.23242
1523.879, 28.65723
1524.912, 76.34961
1525.944, 31.06421
1526.977, 18.80078
1528.009, 70.56006
1529.041, 82.34204
1530.073, 123.1470
1531.105, 62.97583
1532.137, 66.82910
1533.168, 36.70679
1534.200, 72.61011
1535.231, 101.5398
1536.262, 39.47583
1537.293, 64.45972
1538.324, 19.47241
1539.354, 68.51465
1540.385, 78.58813
1541.415, 17.69385
1542.445, 87.83325
1543.475, 18.00903
1544.505, 114.2241
1545.534, 76.48193
1546.564, 89.78516
1547.593, 54.13647
1548.622, 52.53711
1549.651, 86.98853
1550.680, 44.49316
1551.708, 76.05371
1552.737, 83.67236
1553.765, 128.3528
1554.793, 122.0991
1555.821, 96.91455
1556.849, 52.80518
1557.877, 45.77661
1558.904, 111.8345
1559.932, 39.98511
1560.959, 16.76270
1561.986, 72.59790
1563.013, 35.07715
1564.039, 39.68408
1565.066, 29.43140
1566.092, 18.33276
1567.119, 7.405273
1568.145, 19.87109
1569.170, 68.60864
1570.196, 12.46484
1571.222, 42.66724
1572.247, 0.1586910
1573.272, 42.54785
1574.297, 24.85620
1575.322, 14.53125
1576.347, 0.0000000E+00
##END=



