##NAMES=Ferro-actinolite
##RRUFFID=R060189
##IDEAL CHEMISTRY=[box]Ca_2_Mg_2.5-0_Fe^2+^_2.5-5_Si_8_O_22_(OH)_2_
##LOCALITY=Merry Widow mine, Vancouver Island, British Columbia, Canada
##OWNER=RRUFF
##SOURCE=Lloyd Twaites
##DESCRIPTION=Parallel aggregate of green fibers
##STATUS=The identification of this mineral has been confirmed by X-ray diffraction and chemical analysis
##URL=rruff.info/R060189
##MEASURED CHEMISTRY=[box](Ca_1.94_Na_0.06_)_Σ=2_(Fe^2+^_2.55_Mg_2.15_Fe^3+^_0.20_Al_0.05_Mn_0.05_)_Σ=5_(Si_0.98_Al_0.02_)_8_O_22_(OH)_2_
95.94800, 0.0000000E+00
97.18200, 18.06055
98.41600, 25.23633
99.64900, 144.8477
100.8830, 331.2930
102.1160, 244.2188
103.3490, 171.7891
104.5820, 793.0117
105.8150, 1492.631
107.0470, 2947.496
108.2800, 4268.252
109.5120, 5817.043
110.7440, 6731.379
111.9760, 6031.820
113.2080, 8065.100
114.4400, 4181.682
115.6710, 4358.115
116.9030, 4485.783
118.1340, 3856.227
119.3650, 2980.109
120.5960, 2067.014
121.8270, 1683.547
123.0580, 1581.391
124.2880, 1925.277
125.5190, 1743.986
126.7490, 1500.324
127.9790, 1850.123
129.2090, 1988.223
130.4390, 2131.480
131.6680, 2459.762
132.8980, 2337.947
134.1270, 2143.859
135.3560, 2247.340
136.5850, 2771.260
137.8140, 3426.516
139.0430, 4729.613
140.2710, 6354.652
141.5000, 7838.283
142.7280, 8951.004
143.9560, 10354.62
145.1840, 11410.08
146.4120, 11920.34
147.6390, 11673.39
148.8670, 10056.25
150.0940, 8050.910
151.3210, 6308.412
152.5490, 5049.760
153.7750, 4183.951
155.0020, 3364.969
156.2290, 2738.783
157.4550, 2203.359
158.6810, 2114.658
159.9080, 1755.658
161.1340, 2023.318
162.3590, 2432.617
163.5850, 3227.529
164.8110, 4004.021
166.0360, 4796.084
167.2610, 5574.684
168.4860, 6315.809
169.7110, 7170.264
170.9360, 7999.475
172.1610, 8105.602
173.3850, 7338.742
174.6100, 6539.961
175.8340, 5661.309
177.0580, 4663.818
178.2820, 3682.523
179.5050, 3172.443
180.7290, 2814.793
181.9520, 2518.961
183.1760, 2344.992
184.3990, 2341.205
185.6220, 2154.992
186.8450, 2676.441
188.0670, 2577.740
189.2900, 2969.725
190.5120, 3405.146
191.7340, 3507.865
192.9560, 4115.879
194.1780, 4229.184
195.4000, 4614.783
196.6220, 5070.668
197.8430, 5133.959
199.0640, 5287.771
200.2860, 5796.320
201.5070, 6497.641
202.7270, 7315.719
203.9480, 7252.477
205.1690, 6755.021
206.3890, 6055.297
207.6090, 5981.320
208.8290, 6099.986
210.0490, 6648.104
211.2690, 6920.547
212.4890, 7694.402
213.7080, 7986.496
214.9280, 8349.744
216.1470, 8195.113
217.3660, 7944.605
218.5850, 7591.219
219.8030, 7282.949
221.0220, 6824.791
222.2400, 6047.742
223.4590, 5692.805
224.6770, 5045.975
225.8950, 4914.246
227.1120, 4205.621
228.3300, 4112.096
229.5480, 3527.668
230.7650, 3345.332
231.9820, 3255.086
233.1990, 3025.932
234.4160, 2673.865
235.6330, 2503.881
236.8490, 2225.979
238.0660, 2212.156
239.2820, 2086.408
240.4980, 1657.736
241.7140, 1583.135
242.9300, 1319.334
244.1460, 1269.293
245.3610, 1089.674
246.5770, 838.1699
247.7920, 801.3887
249.0070, 663.7324
250.2220, 516.0645
251.4370, 535.2754
252.6510, 348.2793
253.8660, 318.0020
255.0800, 223.3848
256.2940, 117.3711
257.5080, 314.9199
258.7220, 38.98828
259.9360, 937.5430
261.1490, 1417.553
262.3630, 350.9883
263.5760, 75.83008
264.7890, 375.9512
266.0020, 310.4062
267.2150, 193.5449
268.4270, 133.3750
269.6400, 341.9062
270.8520, 210.1738
272.0640, 256.1777
273.2760, 279.9336
274.4880, 79.45703
275.7000, 218.7441
276.9120, 113.8105
278.1230, 28.66211
279.3340, 98.70117
280.5450, 97.72852
281.7560, 152.0352
282.9670, 37.99414
284.1780, 416.1367
285.3880, 244.4609
286.5980, 350.9512
287.8090, 406.6016
289.0190, 293.4082
290.2290, 355.3672
291.4380, 547.4727
292.6480, 457.7227
293.8570, 349.1094
295.0670, 217.6367
296.2760, 261.2910
297.4850, 319.6191
298.6930, 418.9785
299.9020, 433.5254
301.1110, 423.4043
302.3190, 503.2324
303.5270, 466.1836
304.7350, 472.5723
305.9430, 401.5859
307.1510, 410.1250
308.3580, 464.4941
309.5660, 643.6074
310.7730, 565.5059
311.9800, 696.5527
313.1870, 706.7246
314.3940, 767.8320
315.6010, 889.8125
316.8070, 974.5156
318.0130, 902.6172
319.2200, 872.5781
320.4260, 1187.084
321.6310, 1349.312
322.8370, 1502.111
324.0430, 1488.471
325.2480, 1785.641
326.4540, 1889.963
327.6590, 1912.457
328.8640, 2075.041
330.0680, 2088.777
331.2730, 2078.602
332.4780, 1938.445
333.6820, 2281.332
334.8860, 2158.262
336.0900, 2266.238
337.2940, 2392.674
338.4980, 2439.836
339.7010, 2452.951
340.9050, 2422.107
342.1080, 2467.309
343.3110, 2552.684
344.5140, 2651.816
345.7170, 2849.123
346.9200, 2830.459
348.1220, 3115.816
349.3240, 3106.201
350.5270, 3251.602
351.7290, 3633.014
352.9310, 3631.439
354.1320, 3559.871
355.3340, 3788.311
356.5350, 3579.750
357.7370, 3567.195
358.9380, 3879.641
360.1390, 3591.082
361.3400, 3370.525
362.5400, 3426.963
363.7410, 3257.400
364.9410, 3204.834
366.1410, 3186.262
367.3410, 2992.686
368.5410, 3313.102
369.7410, 3245.516
370.9400, 3152.918
372.1400, 3847.314
373.3390, 3800.707
374.5380, 3979.084
375.7370, 4186.455
376.9360, 4485.816
378.1350, 4653.168
379.3330, 4857.508
380.5310, 5012.834
381.7300, 4967.152
382.9280, 4924.457
384.1260, 4851.746
385.3230, 4774.025
386.5210, 4566.289
387.7180, 4263.625
388.9160, 4147.047
390.1130, 3639.541
391.3100, 3803.094
392.5060, 3568.703
393.7030, 3167.355
394.9000, 2999.053
396.0960, 2635.789
397.2920, 2721.561
398.4880, 2471.361
399.6840, 2038.193
400.8800, 2382.049
402.0750, 2089.926
403.2710, 1861.822
404.4660, 1683.734
405.6610, 1338.662
406.8560, 1228.604
408.0510, 1030.553
409.2450, 1026.418
410.4400, 803.9375
411.6340, 806.1289
412.8280, 718.4414
414.0220, 588.0938
415.2160, 417.8848
416.4100, 368.6289
417.6030, 545.7422
418.7970, 367.8555
419.9900, 565.3770
421.1830, 468.9238
422.3760, 417.5938
423.5690, 808.5312
424.7610, 1100.285
425.9540, 1202.205
427.1460, 1340.111
428.3380, 1405.004
429.5300, 1499.883
430.7220, 1516.746
431.9140, 1254.590
433.1050, 1282.420
434.2970, 1216.227
435.4880, 779.0156
436.6790, 369.7832
437.8700, 468.5293
439.0610, 426.2539
440.2510, 158.9512
441.4420, 161.3828
442.6320, 127.1074
443.8220, 172.2383
445.0120, 262.9805
446.2020, 32.16406
447.3910, 324.1621
448.5810, 185.5352
449.7700, 236.7285
450.9600, 197.1641
452.1490, 156.6094
453.3370, 148.6055
454.5260, 353.7539
455.7150, 144.4844
456.9030, 219.0723
458.0910, 292.8340
459.2800, 189.1309
460.4670, 303.3281
461.6550, 168.9688
462.8430, 61.91602
464.0300, 70.19336
465.2180, 55.54297
466.4050, 244.1797
467.5920, 202.5039
468.7790, 75.98633
469.9650, 3.294922
471.1520, 247.1113
472.3380, 94.87500
473.5250, 855.5371
474.7110, 623.0352
475.8970, 872.7266
477.0820, 483.2539
478.2680, 493.7402
479.4540, 286.1777
480.6390, 312.5625
481.8240, 488.9004
483.0090, 416.1914
484.1940, 379.4375
485.3780, 679.6387
486.5630, 598.7949
487.7470, 779.9043
488.9320, 784.9648
490.1160, 781.9785
491.3000, 1056.945
492.4830, 1239.863
493.6670, 1192.734
494.8500, 1382.564
496.0340, 1328.350
497.2170, 1594.090
498.4000, 1911.785
499.5820, 1948.428
500.7650, 2149.043
501.9480, 2115.613
503.1300, 2225.523
504.3120, 2232.625
505.4940, 2247.074
506.6760, 2422.514
507.8580, 2493.502
509.0390, 2560.270
510.2210, 2717.641
511.4020, 2770.967
512.5830, 2755.250
513.7640, 2840.525
514.9450, 2915.771
516.1250, 2946.008
517.3060, 3217.193
518.4860, 3436.363
519.6660, 3502.551
520.8460, 3604.549
522.0260, 3400.807
523.2060, 3572.854
524.3850, 3469.922
525.5650, 3320.031
526.7440, 3284.188
527.9230, 3290.293
529.1020, 3072.367
530.2810, 3094.469
531.4590, 2939.543
532.6380, 3140.652
533.8160, 3112.764
534.9940, 2932.844
536.1720, 2755.912
537.3500, 2743.949
538.5270, 2725.947
539.7050, 2628.918
540.8820, 2652.918
542.0590, 2444.766
543.2360, 2610.633
544.4130, 2541.438
545.5900, 2432.188
546.7660, 2150.875
547.9430, 2279.506
549.1190, 2236.092
550.2950, 2256.635
551.4710, 2077.160
552.6470, 2104.672
553.8220, 2040.166
554.9980, 2093.619
556.1730, 2160.043
557.3480, 2064.422
558.5230, 1905.752
559.6980, 1959.041
560.8730, 1940.266
562.0470, 1703.436
563.2220, 1896.543
564.3960, 2096.623
565.5700, 1953.639
566.7440, 1694.596
567.9170, 1796.494
569.0910, 1356.326
570.2640, 1632.086
571.4380, 1546.775
572.6110, 1568.389
573.7840, 1450.930
574.9570, 1341.436
576.1290, 1150.873
577.3020, 1122.252
578.4740, 1312.557
579.6460, 1149.785
580.8180, 940.9375
581.9900, 947.4707
583.1620, 677.0176
584.3330, 591.3203
585.5040, 783.5312
586.6760, 336.7227
587.8470, 362.8145
589.0180, 593.4805
590.1880, 471.5527
591.3590, 349.1152
592.5290, 393.8633
593.7000, 459.8750
594.8700, 435.1172
596.0400, 475.2188
597.2090, 379.2051
598.3790, 344.2598
599.5490, 382.4473
600.7180, 286.9102
601.8870, 42.98633
603.0560, 59.17969
604.2250, 331.8145
605.3940, 275.7305
606.5620, 37.08008
607.7300, 380.8535
608.8990, 214.8164
610.0670, 229.5742
611.2350, 407.0898
612.4020, 417.4531
613.5700, 303.6094
614.7370, 366.6270
615.9050, 485.5898
617.0720, 542.4961
618.2390, 563.3496
619.4060, 474.1445
620.5720, 791.4766
621.7390, 726.0703
622.9050, 1179.301
624.0710, 908.4590
625.2370, 1193.160
626.4030, 1138.645
627.5690, 1502.283
628.7340, 1846.152
629.9000, 1660.775
631.0650, 1918.520
632.2300, 2321.479
633.3950, 2266.961
634.5600, 2696.359
635.7240, 2873.309
636.8890, 2928.916
638.0530, 3340.904
639.2170, 3838.395
640.3810, 3823.543
641.5450, 4282.176
642.7080, 4390.016
643.8720, 4777.387
645.0350, 5393.912
646.1980, 5518.467
647.3610, 5966.250
648.5240, 6640.020
649.6870, 7204.547
650.8490, 8142.508
652.0120, 9035.859
653.1740, 10170.62
654.3360, 12087.43
655.4980, 13572.63
656.6600, 15439.38
657.8210, 18062.10
658.9830, 20776.00
660.1440, 23551.22
661.3050, 26289.38
662.4660, 28503.20
663.6270, 30633.01
664.7870, 31163.77
665.9480, 31319.36
667.1080, 30070.82
668.2680, 27691.93
669.4280, 24797.00
670.5880, 21746.54
671.7480, 18817.64
672.9070, 16600.75
674.0670, 13956.39
675.2260, 11907.80
676.3850, 10578.09
677.5440, 8944.887
678.7030, 7746.902
679.8610, 7257.008
681.0200, 6342.734
682.1780, 5640.314
683.3360, 4906.840
684.4940, 4432.861
685.6520, 4182.891
686.8090, 3890.848
687.9670, 3723.332
689.1240, 3017.949
690.2810, 3020.959
691.4380, 2663.441
692.5950, 2239.957
693.7520, 2480.811
694.9080, 2068.701
696.0650, 2142.178
697.2210, 1836.738
698.3770, 1819.180
699.5330, 1502.701
700.6880, 1605.773
701.8440, 1394.764
702.9990, 1013.787
704.1550, 1262.648
705.3100, 1362.633
706.4650, 1236.258
707.6190, 962.9844
708.7740, 812.5938
709.9290, 1045.314
711.0830, 879.7188
712.2370, 970.9746
713.3910, 1112.799
714.5450, 752.0625
715.6980, 1062.230
716.8520, 1084.160
718.0050, 982.0059
719.1580, 900.0254
720.3110, 1119.773
721.4640, 1069.379
722.6170, 1377.980
723.7700, 1076.297
724.9220, 1090.822
726.0740, 1419.578
727.2260, 1753.990
728.3780, 1506.549
729.5300, 1428.723
730.6810, 1790.928
731.8330, 1950.938
732.9840, 2005.309
734.1350, 2104.451
735.2860, 2048.537
736.4370, 2057.605
737.5880, 1836.881
738.7380, 1761.453
739.8880, 1584.717
741.0390, 1521.219
742.1890, 1410.457
743.3380, 1408.447
744.4880, 1307.957
745.6380, 1205.412
746.7870, 1310.068
747.9360, 972.3242
749.0850, 863.6113
750.2340, 984.2188
751.3830, 965.7559
752.5310, 782.2422
753.6800, 796.6523
754.8280, 796.9863
755.9760, 913.2461
757.1240, 693.4238
758.2720, 644.5273
759.4190, 717.5605
760.5670, 469.5156
761.7140, 473.3887
762.8610, 569.1836
764.0080, 367.8984
765.1550, 556.5312
766.3020, 488.0840
767.4480, 532.5566
768.5950, 489.9531
769.7410, 424.2676
770.8870, 285.5039
772.0330, 291.6504
773.1780, 186.7148
774.3240, 220.1641
775.4690, 346.5664
776.6140, 451.3633
777.7590, 8.082031
778.9040, 388.6758
780.0490, 77.18555
781.1940, 200.5957
782.3380, 38.91406
783.4820, 85.87109
784.6260, 130.1660
785.7700, 125.1152
786.9140, 170.0332
788.0580, 97.60742
789.2010, 144.1484
790.3450, 83.39844
791.4880, 6.115234
792.6310, 77.95508
793.7730, 181.0410
794.9160, 58.04883
796.0590, 190.2930
797.2010, 40.24805
798.3430, 38.68555
799.4850, 535.0195
800.6270, 196.7148
801.7690, 293.6719
802.9100, 308.8984
804.0520, 126.6016
805.1930, 18.99219
806.3340, 243.7031
807.4750, 46.66016
808.6160, 280.7539
809.7560, 156.1016
810.8970, 55.64062
812.0370, 102.3164
813.1770, 39.15625
814.3170, 34.12109
815.4570, 56.21094
816.5960, 28.43359
817.7360, 120.7773
818.8750, 8.718750
820.0140, 244.1211
821.1530, 120.4453
822.2920, 106.6914
823.4310, 102.8594
824.5690, 38.05859
825.7070, 27.03516
826.8460, 20.21875
827.9840, 62.45703
829.1220, 81.81641
830.2590, 26.30859
831.3970, 25.08984
832.5340, 56.41406
833.6710, 206.6602
834.8080, 211.8320
835.9450, 169.9414
837.0820, 605.9805
838.2190, 883.9609
839.3550, 132.1211
840.4910, 36.65625
841.6270, 182.3555
842.7630, 39.01172
843.8990, 197.5312
845.0350, 202.0039
846.1700, 391.4141
847.3060, 443.7656
848.4410, 473.0664
849.5760, 139.6875
850.7100, 168.4141
851.8450, 55.53906
852.9800, 601.4102
854.1140, 488.3047
855.2480, 371.1523
856.3820, 412.9492
857.5160, 460.6914
858.6500, 457.3828
859.7830, 497.9531
860.9170, 434.6211
862.0500, 561.1641
863.1830, 513.6680
864.3160, 577.1367
865.4480, 774.5586
866.5810, 722.9297
867.7130, 761.2617
868.8460, 664.5391
869.9780, 720.7734
871.1100, 742.9844
872.2410, 711.1016
873.3730, 863.1914
874.5050, 914.2344
875.6360, 1022.656
876.7670, 1147.195
877.8980, 1053.141
879.0290, 994.0547
880.1590, 864.9219
881.2900, 1141.789
882.4200, 1118.805
883.5500, 1136.430
884.6800, 1376.176
885.8100, 1141.875
886.9400, 1289.523
888.0690, 987.1328
889.1990, 1401.691
890.3280, 1609.203
891.4570, 1509.668
892.5860, 1758.090
893.7140, 1852.465
894.8430, 2066.828
895.9710, 1969.141
897.1000, 2126.180
898.2280, 2052.445
899.3560, 2190.547
900.4830, 2127.758
901.6110, 1966.742
902.7380, 2288.430
903.8660, 2991.262
904.9930, 3123.879
906.1200, 2536.176
907.2460, 2162.855
908.3730, 2341.523
909.5000, 2613.547
910.6260, 2586.816
911.7520, 2551.609
912.8780, 2796.816
914.0040, 2814.285
915.1290, 3109.188
916.2550, 3287.789
917.3800, 3308.762
918.5050, 3366.531
919.6300, 3723.172
920.7550, 3858.500
921.8800, 4102.797
923.0040, 4036.250
924.1290, 4096.176
925.2530, 4089.617
926.3770, 4003.574
927.5010, 3858.410
928.6250, 3747.762
929.7480, 3413.520
930.8720, 3550.234
931.9950, 3241.711
933.1180, 3188.770
934.2410, 3116.812
935.3640, 2985.105
936.4860, 2832.320
937.6090, 2595.488
938.7310, 2821.750
939.8530, 2606.055
940.9750, 2520.641
942.0970, 2638.168
943.2180, 2587.133
944.3400, 2501.469
945.4610, 2436.727
946.5820, 2738.395
947.7030, 2606.219
948.8240, 2114.082
949.9450, 2379.352
951.0650, 2635.340
952.1860, 2159.168
953.3060, 2431.367
954.4260, 2565.637
955.5460, 2214.879
956.6650, 2571.543
957.7850, 2402.113
958.9040, 2457.684
960.0230, 2443.641
961.1420, 2682.391
962.2610, 2395.688
963.3800, 2400.434
964.4990, 2170.066
965.6170, 2452.293
966.7350, 2033.406
967.8530, 2195.855
968.9710, 2135.141
970.0890, 2617.480
971.2070, 2376.672
972.3240, 1995.227
973.4410, 2255.816
974.5580, 2017.285
975.6750, 2072.863
976.7920, 2094.242
977.9090, 1954.910
979.0250, 1900.398
980.1410, 2095.926
981.2580, 2034.270
982.3740, 1939.859
983.4890, 1871.523
984.6050, 1934.664
985.7200, 2123.059
986.8360, 2135.590
987.9510, 2257.289
989.0660, 2408.000
990.1810, 2260.469
991.2950, 2387.141
992.4100, 2384.891
993.5240, 2315.648
994.6390, 2346.418
995.7530, 2785.207
996.8660, 2693.008
997.9800, 2924.820
999.0940, 3228.641
1000.207, 2804.484
1001.320, 3260.340
1002.433, 3146.211
1003.546, 3354.094
1004.659, 3336.000
1005.772, 3555.914
1006.884, 3969.848
1007.996, 3975.793
1009.108, 4408.754
1010.220, 4750.934
1011.332, 4834.926
1012.444, 5032.934
1013.555, 4943.965
1014.666, 5290.770
1015.777, 5441.828
1016.888, 5314.902
1017.999, 5949.992
1019.110, 5973.098
1020.220, 6249.219
1021.331, 6293.355
1022.441, 6395.508
1023.551, 6589.680
1024.661, 6091.863
1025.770, 6213.508
1026.880, 5890.777
1027.989, 5735.074
1029.098, 5452.328
1030.207, 5489.598
1031.316, 5468.113
1032.425, 5782.734
1033.533, 6030.062
1034.642, 5746.930
1035.750, 6023.312
1036.858, 6173.699
1037.966, 6718.109
1039.073, 6981.535
1040.181, 7448.980
1041.288, 7889.445
1042.396, 7940.422
1043.503, 8546.945
1044.610, 8640.488
1045.716, 8668.875
1046.823, 8817.809
1047.929, 8613.391
1049.036, 8301.754
1050.142, 8160.445
1051.248, 8030.957
1052.353, 7761.703
1053.459, 7843.988
1054.564, 7511.566
1055.670, 7426.438
1056.775, 7716.398
1057.880, 7742.914
1058.985, 7777.793
1060.089, 7545.027
1061.194, 7365.430
1062.298, 6867.758
1063.402, 6484.719
1064.506, 5847.891
1065.610, 5410.469
1066.713, 4522.480
1067.817, 3851.371
1068.920, 3839.820
1070.023, 3531.355
1071.126, 3201.590
1072.229, 3020.410
1073.332, 2731.719
1074.435, 2028.527
1075.537, 2348.668
1076.639, 2046.828
1077.741, 2053.992
1078.843, 2227.414
1079.945, 1941.660
1081.046, 1745.391
1082.148, 1587.871
1083.249, 1557.199
1084.350, 1408.098
1085.451, 1445.758
1086.551, 1510.328
1087.652, 1390.664
1088.752, 1415.418
1089.853, 1316.066
1090.953, 1070.730
1092.053, 1129.055
1093.152, 1198.785
1094.252, 1415.773
1095.351, 1105.996
1096.451, 1247.449
1097.550, 966.0352
1098.649, 1106.766
1099.748, 1049.336
1100.846, 727.4062
1101.945, 1099.895
1103.043, 1025.727
1104.141, 958.7656
1105.239, 1105.395
1106.337, 893.4609
1107.434, 659.0977
1108.532, 993.2461
1109.629, 694.8047
1110.726, 577.0000
1111.823, 438.2109
1112.920, 574.6641
1114.017, 448.9102
1115.113, 612.1680
1116.210, 476.4375
1117.306, 790.7578
1118.402, 1058.168
1119.498, 1278.332
1120.593, 1163.715
1121.689, 1031.109
1122.784, 905.5078
1123.879, 893.2852
1124.974, 753.9688
1126.069, 723.5078
1127.164, 1101.488
1128.259, 642.9375
1129.353, 730.4023
1130.447, 706.9102
1131.541, 374.1523
1132.635, 336.2656
1133.729, 192.7617
1134.822, 176.2656
1135.916, 6.871094
1137.009, 99.53125
1138.102, 251.1172
1139.195, 352.7930
1140.288, 39.32812
1141.380, 118.1328
1142.473, 227.8633
1143.565, 461.9883
1144.657, 451.9727
1145.749, 249.5000
1146.841, 43.92969
1147.932, 114.3633
1149.024, 38.80078
1150.115, 212.2461
1151.206, 175.7852
1152.297, 38.14844
1153.388, 166.6055
1154.479, 155.0742
1155.569, 77.54688
1156.659, 8.976563
1157.750, 37.08984
1158.839, 133.0117
1159.929, 77.42969
1161.019, 63.87500
1162.108, 10.33203
1163.198, 408.2070
1164.287, 267.0586
1165.376, 96.67188
1166.465, 141.4375
1167.553, 155.7422
1168.642, 246.9180
1169.730, 372.0977
1170.818, 256.8672
1171.906, 693.4844
1172.994, 1.679688
1174.082, 110.1523
1175.170, 307.3750
1176.257, 71.40234
1177.344, 19.21094
1178.431, 66.03516
1179.518, 236.1094
1180.605, 125.2461
1181.691, 152.6172
1182.778, 143.4375
1183.864, 15.49219
1184.950, 211.1016
1186.036, 364.8281
1187.122, 155.7578
1188.207, 12.72656
1189.292, 58.29297
1190.378, 24.36719
1191.463, 84.55469
1192.548, 128.5273
1193.632, 87.67969
1194.717, 106.2227
1195.801, 110.8672
1196.886, 18.61719
1197.970, 57.40234
1199.054, 422.1641
1200.137, 178.9258
1201.221, 40.68359
1202.305, 171.4258
1203.388, 18.82812
1204.471, 277.8984
1205.554, 146.6602
1206.637, 157.4180
1207.719, 43.75391
1208.802, 126.9570
1209.884, 310.7539
1210.966, 109.4531
1212.048, 183.1367
1213.130, 53.19531
1214.212, 11.41406
1215.293, 277.9961
1216.374, 384.4219
1217.456, 49.83203
1218.536, 197.2500
1219.617, 279.6523
1220.698, 275.0391
1221.778, 87.40625
1222.859, 295.7539
1223.939, 46.92578
1225.019, 148.3320
1226.099, 133.5742
1227.178, 15.78906
1228.258, 161.0195
1229.337, 433.2227
1230.417, 243.4062
1231.496, 27.57422
1232.574, 20.70312
1233.653, 284.7930
1234.732, 25.92969
1235.810, 532.0820
1236.888, 6.937500
1237.966, 381.9844
1239.044, 195.8750
1240.122, 322.7383
1241.199, 324.5664
1242.277, 245.7773
1243.354, 328.8789
1244.431, 514.2969
1245.508, 312.0039
1246.585, 425.6836
1247.661, 297.3320
1248.738, 128.3242
1249.814, 577.0938
1250.890, 361.6406
1251.966, 332.1523
1253.042, 241.6289
1254.117, 270.3477
1255.193, 437.9453
1256.268, 184.3125
1257.343, 449.6328
1258.418, 437.9141
1259.493, 337.5938
1260.567, 167.4297
1261.642, 203.5898
1262.716, 409.0000
1263.790, 585.0742
1264.864, 338.2969
1265.938, 329.3555
1267.011, 114.3008
1268.085, 334.2109
1269.158, 449.0508
1270.231, 423.5742
1271.304, 258.1680
1272.377, 231.7930
1273.450, 270.7305
1274.522, 490.5391
1275.594, 601.4023
1276.666, 475.9961
1277.738, 503.4375
1278.810, 646.4766
1279.882, 642.9883
1280.953, 704.8633
1282.025, 698.4961
1283.096, 792.0938
1284.167, 616.4062
1285.238, 670.8594
1286.308, 594.4883
1287.379, 657.2031
1288.449, 510.0273
1289.519, 554.5625
1290.589, 830.2031
1291.659, 780.7930
1292.729, 847.0430
1293.798, 631.7461
1294.868, 728.4023
1295.937, 560.7266
1297.006, 723.6523
1298.075, 805.0234
1299.143, 634.1016
1300.212, 655.9297
1301.280, 713.2031
1302.348, 352.1250
1303.416, 577.3125
1304.484, 945.2930
1305.552, 749.2812
1306.620, 726.3516
1307.687, 747.3008
1308.754, 886.2266
1309.821, 608.5039
1310.888, 739.1680
1311.955, 476.0742
1313.021, 333.8750
1314.088, 657.6133
1315.154, 505.6562
1316.220, 732.5625
1317.286, 425.4727
1318.352, 653.2109
1319.417, 781.2773
1320.483, 741.5625
1321.548, 822.5898
1322.613, 731.6523
1323.678, 728.3359
1324.743, 617.8906
1325.807, 430.2930
1326.872, 562.6562
1327.936, 723.2930
1329.000, 572.1484
1330.064, 763.2031
1331.128, 820.8906
1332.191, 653.6641
1333.255, 999.5352
1334.318, 938.3086
1335.381, 945.2070
1336.444, 1021.676
1337.507, 657.3906
1338.569, 961.2773
1339.632, 736.2734
1340.694, 669.5117
1341.756, 720.8086
1342.818, 1073.648
1343.880, 939.0156
1344.941, 617.2656
1346.003, 1104.977
1347.064, 691.4219
1348.125, 1027.285
1349.186, 1370.102
1350.247, 788.7109
1351.308, 794.4844
1352.368, 751.6953
1353.428, 814.4609
1354.489, 748.6602
1355.549, 760.5977
1356.608, 888.6562
1357.668, 966.7148
1358.727, 931.3398
1359.787, 787.9805
1360.846, 593.6602
1361.905, 497.6523
1362.964, 806.5664
1364.022, 829.8008
1365.081, 868.0352
1366.139, 778.9648
1367.197, 610.4766
1368.255, 724.3945
1369.313, 217.1445
1370.371, 604.7773
1371.428, 838.2812
1372.486, 576.9883
1373.543, 822.5781
1374.600, 826.1445
1375.657, 473.5742
1376.713, 518.1719
1377.770, 736.4805
1378.826, 684.7148
1379.882, 625.6758
1380.938, 502.7422
1381.994, 524.8008
1383.050, 952.6719
1384.106, 656.7734
1385.161, 772.4102
1386.216, 472.9062
1387.271, 428.3516
1388.326, 644.8008
1389.381, 511.2969
1390.435, 601.2656
1391.490, 537.1797
1392.544, 563.4961
1393.598, 771.6523
1394.652, 578.7734
1395.705, 635.6758
1396.759, 413.5859
1397.812, 576.2773
1398.866, 365.3789
1399.919, 516.2500
1400.972, 537.1250
1402.024, 329.1797
1403.077, 565.1562
1404.129, 601.9727
1405.181, 205.6250
1406.233, 548.1484
1407.285, 534.5352
1408.337, 322.7891
1409.389, 337.9023
1410.440, 304.8789
1411.491, 259.7109
1412.542, 158.3789
1413.593, 187.9766
1414.644, 167.2695
1415.695, 201.5078
1416.745, 182.5938
1417.795, 154.5117
1418.845, 177.9180
1419.895, 152.7891
1420.945, 209.5430
1421.995, 181.9805
1423.044, 229.2969
1424.093, 348.4766
1425.142, 43.51562
1426.191, 213.4062
1427.240, 324.1602
1428.289, 44.22266
1429.337, 115.9805
1430.385, 425.2969
1431.433, 85.48438
1432.481, 213.5508
1433.529, 183.4961
1434.577, 295.3359
1435.624, 432.0547
1436.672, 174.6602
1437.719, 249.1875
1438.766, 384.6094
1439.812, 148.5625
1440.859, 92.71484
1441.905, 100.0938
1442.952, 129.2695
1443.998, 111.2383
1445.044, 28.64062
1446.090, 47.26953
1447.135, 68.76953
1448.181, 32.66406
1449.226, 38.50391
1450.271, 81.15625
1451.316, 135.7227
1452.361, 88.82422
1453.405, 86.46875
1454.450, 145.5195
1455.494, 169.4102
1456.538, 8.761719
1457.582, 52.98828
1458.626, 138.2656
1459.670, 126.4141
1460.713, 253.0508
1461.757, 20.61328
1462.800, 58.76172
1463.843, 232.0586
1464.886, 166.1484
1465.928, 169.1289
1466.971, 180.8828
1468.013, 43.60156
1469.055, 36.36719
1470.097, 160.0664
1471.139, 70.06250
1472.181, 131.4492
1473.222, 200.8711
1474.263, 384.7383
1475.305, 274.0703
1476.346, 376.9297
1477.386, 132.4062
1478.427, 149.4414
1479.468, 365.8203
1480.508, 140.1328
1481.548, 401.3086
1482.588, 259.7109
1483.628, 101.4258
1484.668, 243.1133
1485.707, 592.3828
1486.747, 41.28516
1487.786, 333.1562
1488.825, 694.2734
1489.864, 488.2227
1490.902, 432.4375
1491.941, 425.9414
1492.979, 406.3242
1494.017, 430.8672
1495.055, 735.8555
1496.093, 455.6250
1497.131, 645.1094
1498.168, 407.1445
1499.206, 674.2031
1500.243, 210.0547
1501.280, 624.5586
1502.317, 681.6094
1503.354, 867.1250
1504.390, 435.5117
1505.426, 549.4453
1506.463, 556.3594
1507.499, 655.4062
1508.535, 654.0977
1509.570, 766.2344
1510.606, 583.3281
1511.641, 322.1602
1512.676, 724.7578
1513.711, 737.2734
1514.746, 935.8984
1515.781, 489.8242
1516.816, 597.1250
1517.850, 654.0664
1518.884, 860.4570
1519.918, 743.4844
1520.952, 660.4258
1521.986, 671.1055
1523.019, 591.7148
1524.053, 517.5664
1525.086, 555.7812
1526.119, 693.6172
1527.152, 746.3359
1528.185, 800.8594
1529.217, 556.4336
1530.250, 584.3047
1531.282, 547.6758
1532.314, 431.8398
1533.346, 463.0352
1534.377, 639.6562
1535.409, 992.5469
1536.440, 710.6992
1537.472, 672.0117
1538.503, 628.9570
1539.534, 297.0547
1540.564, 684.9297
1541.595, 727.7656
1542.625, 600.7539
1543.656, 756.9883
1544.686, 555.7773
1545.716, 631.0703
1546.745, 296.6211
1547.775, 713.0312
1548.804, 301.9883
1549.834, 498.6367
1550.863, 780.6367
1551.892, 625.4766
1552.920, 492.2109
1553.949, 760.1094
1554.977, 643.2930
1556.006, 918.9180
1557.034, 809.3125
1558.062, 480.3516
1559.089, 183.9375
1560.117, 348.1914
1561.144, 618.1133
1562.172, 195.8477
1563.199, 289.6797
1564.226, 6.171875
1565.252, 142.4844
1566.279, 77.00000
1567.305, 237.9258
1568.332, 1.273438
1569.358, 153.3555
1570.384, 0.0000000E+00
##END=



