##NAMES=Ferro-actinolite
##RRUFFID=R060189
##IDEAL CHEMISTRY=[box]Ca_2_Mg_2.5-0_Fe^2+^_2.5-5_Si_8_O_22_(OH)_2_
##LOCALITY=Merry Widow mine, Vancouver Island, British Columbia, Canada
##OWNER=RRUFF
##SOURCE=Lloyd Twaites
##DESCRIPTION=Parallel aggregate of green fibers
##STATUS=The identification of this mineral has been confirmed by X-ray diffraction and chemical analysis
##URL=rruff.info/R060189
##MEASURED CHEMISTRY=[box](Ca_1.94_Na_0.06_)_Σ=2_(Fe^2+^_2.55_Mg_2.15_Fe^3+^_0.20_Al_0.05_Mn_0.05_)_Σ=5_(Si_0.98_Al_0.02_)_8_O_22_(OH)_2_
95.94800, 0.0000000E+00
97.18200, 353.9355
98.41600, 19.62988
99.64900, 96.70703
100.8830, 475.1230
102.1160, 94.71289
103.3490, 0.4833980
104.5820, 389.1836
105.8150, 1177.711
107.0470, 2429.723
108.2800, 3816.402
109.5120, 5303.301
110.7440, 5864.248
111.9760, 3341.301
113.2080, 1805.688
114.4400, 1808.760
115.6710, 2218.969
116.9030, 2731.820
118.1340, 2173.873
119.3650, 1326.781
120.5960, 570.2188
121.8270, 478.8906
123.0580, 993.5410
124.2880, 1522.951
125.5190, 1101.945
126.7490, 1040.371
127.9790, 1040.094
129.2090, 1700.982
130.4390, 2295.926
131.6680, 2392.816
132.8980, 2149.551
134.1270, 1985.979
135.3560, 1982.945
136.5850, 2397.332
137.8140, 2965.043
139.0430, 3760.996
140.2710, 4900.584
141.5000, 6540.805
142.7280, 7754.469
143.9560, 9495.139
145.1840, 11294.77
146.4120, 13146.32
147.6390, 14092.77
148.8670, 13285.09
150.0940, 11257.25
151.3210, 8886.273
152.5490, 7091.164
153.7750, 5596.934
155.0020, 4264.586
156.2290, 3247.104
157.4550, 2539.301
158.6810, 2100.627
159.9080, 1917.611
161.1340, 2036.271
162.3590, 2405.695
163.5850, 2967.824
164.8110, 3625.635
166.0360, 4621.102
167.2610, 5660.207
168.4860, 6620.932
169.7110, 7761.104
170.9360, 8887.145
172.1610, 9400.129
173.3850, 8833.178
174.6100, 7858.344
175.8340, 6789.676
177.0580, 5658.207
178.2820, 4466.965
179.5050, 3871.973
180.7290, 3301.250
181.9520, 3003.953
183.1760, 2594.209
184.3990, 2490.186
185.6220, 2593.586
186.8450, 3011.129
188.0670, 3445.893
189.2900, 3709.488
190.5120, 4230.078
191.7340, 5025.996
192.9560, 5643.240
194.1780, 6261.809
195.4000, 7030.703
196.6220, 7852.922
197.8430, 8427.459
199.0640, 9045.320
200.2860, 9937.492
201.5070, 10998.04
202.7270, 12495.07
203.9480, 13241.63
205.1690, 12834.00
206.3890, 12320.04
207.6090, 12613.75
208.8290, 13595.23
210.0490, 14722.42
211.2690, 15872.29
212.4890, 16876.76
213.7080, 17459.73
214.9280, 18012.05
216.1470, 18388.63
217.3660, 17769.42
218.5850, 17157.43
219.8030, 16592.63
221.0220, 16044.05
222.2400, 15134.67
223.4590, 14267.50
224.6770, 13296.52
225.8950, 12781.74
227.1120, 12287.15
228.3300, 11620.76
229.5480, 10333.55
230.7650, 9452.531
231.9820, 8910.695
233.1990, 8312.033
234.4160, 7787.551
235.6330, 7206.242
236.8490, 6591.102
238.0660, 6137.129
239.2820, 5574.320
240.4980, 4834.672
241.7140, 4613.184
242.9300, 4166.496
244.1460, 3544.328
245.3610, 3547.070
246.5770, 3116.232
247.7920, 2769.543
249.0070, 2425.869
250.2220, 2188.092
251.4370, 1901.154
252.6510, 1804.973
253.8660, 1330.490
255.0800, 1310.650
256.2940, 1149.416
257.5080, 805.7480
258.7220, 1036.611
259.9360, 992.6875
261.1490, 768.5156
262.3630, 1183.107
263.5760, 385.8281
264.7890, 184.9609
266.0020, 4.517578
267.2150, 115.3789
268.4270, 4.638672
269.6400, 30.75781
270.8520, 158.8242
272.0640, 149.1016
273.2760, 160.5000
274.4880, 109.1738
275.7000, 71.04492
276.9120, 10.36523
278.1230, 151.0430
279.3340, 68.01562
280.5450, 84.17773
281.7560, 31.38281
282.9670, 199.2988
284.1780, 530.2129
285.3880, 567.3594
286.5980, 466.7285
287.8090, 474.3145
289.0190, 414.1133
290.2290, 339.1172
291.4380, 377.3262
292.6480, 379.9922
293.8570, 436.3359
295.0670, 491.1289
296.2760, 498.1074
297.4850, 576.2734
298.6930, 546.6133
299.9020, 429.1328
301.1110, 573.8809
302.3190, 481.9980
303.5270, 725.7031
304.7350, 476.9160
305.9430, 436.0566
307.1510, 511.1777
308.3580, 314.0234
309.5660, 499.6426
310.7730, 523.9629
311.9800, 418.2363
313.1870, 771.0547
314.3940, 568.3984
315.6010, 451.5664
316.8070, 582.2793
318.0130, 501.3848
319.2200, 576.5215
320.4260, 993.6699
321.6310, 792.7930
322.8370, 960.9141
324.0430, 1234.070
325.2480, 1177.945
326.4540, 1453.020
327.6590, 1665.189
328.8640, 1787.363
330.0680, 1902.416
331.2730, 2181.125
332.4780, 2284.656
333.6820, 2362.266
334.8860, 2566.307
336.0900, 2741.447
337.2940, 2967.777
338.4980, 3064.027
339.7010, 3470.459
340.9050, 3714.988
342.1080, 3922.816
343.3110, 3826.320
344.5140, 4160.117
345.7170, 4090.004
346.9200, 4143.977
348.1220, 4406.035
349.3240, 4924.170
350.5270, 4865.385
351.7290, 5245.672
352.9310, 5303.029
354.1320, 5629.453
355.3340, 5584.941
356.5350, 5851.488
357.7370, 5864.303
358.9380, 6035.750
360.1390, 5884.465
361.3400, 5943.227
362.5400, 5951.039
363.7410, 6089.902
364.9410, 5671.812
366.1410, 5563.770
367.3410, 5511.773
368.5410, 5554.820
369.7410, 5934.910
370.9400, 6104.043
372.1400, 6271.217
373.3390, 6607.434
374.5380, 7366.688
375.7370, 7710.982
376.9360, 8136.316
378.1350, 8598.684
379.3330, 8785.086
380.5310, 9028.527
381.7300, 9040.004
382.9280, 8947.820
384.1260, 8726.051
385.3230, 8478.625
386.5210, 8290.229
387.7180, 7914.945
388.9160, 7352.785
390.1130, 6949.756
391.3100, 6593.838
392.5060, 6093.021
393.7030, 5743.303
394.9000, 5378.680
396.0960, 5186.145
397.2920, 4691.697
398.4880, 4549.336
399.6840, 4206.051
400.8800, 4096.844
402.0750, 3723.711
403.2710, 3519.650
404.4660, 3369.660
405.6610, 3004.736
406.8560, 2906.877
408.0510, 2619.078
409.2450, 2355.342
410.4400, 2131.578
411.6340, 1929.951
412.8280, 1615.334
414.0220, 1798.621
415.2160, 1386.631
416.4100, 1427.805
417.6030, 1388.340
418.7970, 1304.639
419.9900, 1418.824
421.1830, 1695.562
422.3760, 1895.363
423.5690, 2204.693
424.7610, 2776.572
425.9540, 3096.281
427.1460, 3489.227
428.3380, 4028.209
429.5300, 4322.225
430.7220, 4363.270
431.9140, 4305.340
433.1050, 4075.441
434.2970, 3454.570
435.4880, 2971.723
436.6790, 2302.898
437.8700, 1750.096
439.0610, 1456.314
440.2510, 1026.557
441.4420, 711.8145
442.6320, 467.0898
443.8220, 541.3828
445.0120, 230.8926
446.2020, 215.8496
447.3910, 73.31445
448.5810, 140.9980
449.7700, 18.49219
450.9600, 217.5742
452.1490, 45.09570
453.3370, 207.3770
454.5260, 465.3789
455.7150, 256.1250
456.9030, 184.0605
458.0910, 349.3242
459.2800, 189.9609
460.4670, 261.0117
461.6550, 344.1484
462.8430, 312.6816
464.0300, 308.2012
465.2180, 249.9766
466.4050, 244.5312
467.5920, 250.6562
468.7790, 249.0801
469.9650, 107.0547
471.1520, 172.2422
472.3380, 22.93359
473.5250, 5.679688
474.7110, 32.90625
475.8970, 85.44531
477.0820, 183.7031
478.2680, 225.8086
479.4540, 302.8926
480.6390, 285.9512
481.8240, 337.9824
483.0090, 492.9863
484.1940, 258.9668
485.3780, 902.9219
486.5630, 910.8457
487.7470, 800.7422
488.9320, 1290.609
490.1160, 1244.443
491.3000, 1478.252
492.4830, 1874.025
493.6670, 1811.768
494.8500, 2183.477
496.0340, 2193.150
497.2170, 2664.795
498.4000, 3037.404
499.5820, 2979.982
500.7650, 3175.525
501.9480, 3674.035
503.1300, 3661.506
504.3120, 4074.945
505.4940, 4252.346
506.6760, 4463.711
507.8580, 4621.041
509.0390, 4976.348
510.2210, 5073.637
511.4020, 5265.920
512.5830, 5387.172
513.7640, 5799.414
514.9450, 6042.621
516.1250, 6068.826
517.3060, 6514.018
518.4860, 6501.225
519.6660, 6666.414
520.8460, 6684.580
522.0260, 6470.713
523.2060, 6592.834
524.3850, 6405.984
525.5650, 6332.211
526.7440, 5934.473
527.9230, 5727.752
529.1020, 5531.025
530.2810, 5272.309
531.4590, 5150.566
532.6380, 5075.793
533.8160, 4605.020
534.9940, 4577.281
536.1720, 4233.555
537.3500, 4227.857
538.5270, 4349.123
539.7050, 4205.393
540.8820, 3678.643
542.0590, 3883.842
543.2360, 3717.047
544.4130, 3597.248
545.5900, 3658.404
546.7660, 3308.502
547.9430, 3222.539
549.1190, 3292.525
550.2950, 3029.484
551.4710, 3050.379
552.6470, 2949.295
553.8220, 2910.150
554.9980, 2967.945
556.1730, 2912.674
557.3480, 2692.346
558.5230, 2678.979
559.6980, 2767.553
560.8730, 2860.059
562.0470, 2780.500
563.2220, 2742.871
564.3960, 2688.168
565.5700, 2551.393
566.7440, 2498.207
567.9170, 2600.629
569.0910, 2314.637
570.2640, 2241.566
571.4380, 2139.424
572.6110, 2244.201
573.7840, 1972.904
574.9570, 1655.529
576.1290, 1686.076
577.3020, 1424.543
578.4740, 1129.930
579.6460, 1048.236
580.8180, 1076.465
581.9900, 836.6113
583.1620, 700.6777
584.3330, 770.6621
585.5040, 516.5625
586.6760, 486.6055
587.8470, 406.1094
589.0180, 279.6992
590.1880, 245.4180
591.3590, 105.1973
592.5290, 44.26562
593.7000, 55.55664
594.8700, 232.1445
596.0400, 52.80469
597.2090, 63.91602
598.3790, 9.498047
599.5490, 17.76172
600.7180, 48.41016
601.8870, 127.1895
603.0560, 211.7031
604.2250, 11.73242
605.3940, 58.53711
606.5620, 121.3477
607.7300, 76.14844
608.8990, 281.2422
610.0670, 99.17383
611.2350, 223.0293
612.4020, 175.9102
613.5700, 204.9180
614.7370, 467.2754
615.9050, 196.8418
617.0720, 297.3496
618.2390, 480.4531
619.4060, 467.4883
620.5720, 715.4512
621.7390, 814.9434
622.9050, 1032.164
624.0710, 1011.912
625.2370, 1216.590
626.4030, 1121.195
627.5690, 1428.729
628.7340, 1743.189
629.9000, 1800.578
631.0650, 2255.893
632.2300, 2329.135
633.3950, 2658.305
634.5600, 2846.402
635.7240, 3190.424
636.8890, 3573.104
638.0530, 3998.285
639.2170, 4098.695
640.3810, 4551.777
641.5450, 4971.943
642.7080, 5172.941
643.8720, 5662.840
645.0350, 6120.199
646.1980, 6898.016
647.3610, 7525.514
648.5240, 8204.414
649.6870, 9313.043
650.8490, 10231.88
652.0120, 11414.41
653.1740, 12997.42
654.3360, 15208.36
655.4980, 17358.76
656.6600, 20344.37
657.8210, 23705.49
658.9830, 27074.32
660.1440, 30790.76
661.3050, 35047.63
662.4660, 38940.15
663.6270, 42316.71
664.7870, 44412.16
665.9480, 44905.22
667.1080, 43735.08
668.2680, 41471.88
669.4280, 37403.01
670.5880, 32915.43
671.7480, 28794.21
672.9070, 24659.52
674.0670, 21234.92
675.2260, 18465.64
676.3850, 15775.86
677.5440, 13597.69
678.7030, 11963.21
679.8610, 10710.13
681.0200, 9692.477
682.1780, 8682.938
683.3360, 7673.633
684.4940, 7076.090
685.6520, 6194.266
686.8090, 6037.377
687.9670, 5409.857
689.1240, 5035.711
690.2810, 4511.525
691.4380, 4158.326
692.5950, 3717.869
693.7520, 3216.018
694.9080, 3193.170
696.0650, 3080.350
697.2210, 2621.900
698.3770, 2630.773
699.5330, 2653.457
700.6880, 2174.766
701.8440, 2244.980
702.9990, 2206.098
704.1550, 2028.123
705.3100, 2049.229
706.4650, 1981.270
707.6190, 1773.016
708.7740, 1606.670
709.9290, 1869.236
711.0830, 1700.707
712.2370, 1674.088
713.3910, 1656.377
714.5450, 1524.576
715.6980, 1620.682
716.8520, 1519.701
718.0050, 1569.627
719.1580, 1673.467
720.3110, 1461.215
721.4640, 1581.873
722.6170, 1620.445
723.7700, 1663.930
724.9220, 1672.121
726.0740, 1716.791
727.2260, 2095.879
728.3780, 2092.668
729.5300, 2287.535
730.6810, 2278.873
731.8330, 2251.533
732.9840, 2595.848
734.1350, 2423.746
735.2860, 2475.184
736.4370, 2576.660
737.5880, 2555.324
738.7380, 2725.182
739.8880, 2466.311
741.0390, 2635.359
742.1890, 2602.621
743.3380, 2253.691
744.4880, 2076.832
745.6380, 1906.863
746.7870, 1964.758
747.9360, 1701.047
749.0850, 1859.719
750.2340, 1461.467
751.3830, 1456.564
752.5310, 1270.240
753.6800, 1242.184
754.8280, 1298.711
755.9760, 1141.418
757.1240, 1044.191
758.2720, 1081.895
759.4190, 952.5332
760.5670, 983.1055
761.7140, 920.6113
762.8610, 828.0527
764.0080, 833.3906
765.1550, 790.5430
766.3020, 781.9922
767.4480, 742.1758
768.5950, 726.2969
769.7410, 642.3555
770.8870, 719.3496
772.0330, 613.2832
773.1780, 443.1523
774.3240, 258.9648
775.4690, 357.7070
776.6140, 282.3867
777.7590, 340.0000
778.9040, 299.5527
780.0490, 319.0391
781.1940, 322.4668
782.3380, 204.8340
783.4820, 300.1348
784.6260, 163.3750
785.7700, 52.54688
786.9140, 9.361328
788.0580, 47.37695
789.2010, 115.4766
790.3450, 39.73828
791.4880, 66.92773
792.6310, 67.48047
793.7730, 42.02148
794.9160, 132.6777
796.0590, 35.50000
797.2010, 0.4335940
798.3430, 26.54297
799.4850, 71.55859
800.6270, 202.7852
801.7690, 411.2051
802.9100, 248.9258
804.0520, 185.8613
805.1930, 91.97461
806.3340, 165.2188
807.4750, 45.62891
808.6160, 23.13867
809.7560, 146.7383
810.8970, 279.4883
812.0370, 208.4531
813.1770, 268.2188
814.3170, 26.95508
815.4570, 185.3926
816.5960, 115.9902
817.7360, 13.28906
818.8750, 212.4844
820.0140, 188.4316
821.1530, 29.53125
822.2920, 101.3008
823.4310, 88.08984
824.5690, 23.16406
825.7070, 116.4766
826.8460, 74.10156
827.9840, 315.3555
829.1220, 80.97852
830.2590, 8.720703
831.3970, 115.5293
832.5340, 80.74805
833.6710, 94.07031
834.8080, 96.03320
835.9450, 112.1055
837.0820, 287.1465
838.2190, 312.1621
839.3550, 194.1484
840.4910, 166.1133
841.6270, 106.0527
842.7630, 92.96484
843.8990, 278.8516
845.0350, 204.7168
846.1700, 226.5605
847.3060, 430.3828
848.4410, 402.1836
849.5760, 446.5840
850.7100, 257.7266
851.8450, 491.4688
852.9800, 360.1934
854.1140, 471.9004
855.2480, 489.5918
856.3820, 540.2656
857.5160, 482.9258
858.6500, 539.2422
859.7830, 645.2031
860.9170, 626.8223
862.0500, 707.4316
863.1830, 823.0312
864.3160, 923.6309
865.4480, 613.2461
866.5810, 847.8770
867.7130, 668.5527
868.8460, 646.2793
869.9780, 786.0605
871.1100, 892.8594
872.2410, 929.7070
873.3730, 1024.596
874.5050, 1015.545
875.6360, 1219.557
876.7670, 1201.605
877.8980, 1401.684
879.0290, 1436.768
880.1590, 1401.898
881.2900, 1540.061
882.4200, 1560.844
883.5500, 1456.436
884.6800, 1668.633
885.8100, 1606.846
886.9400, 1587.104
888.0690, 1856.377
889.1990, 2074.664
890.3280, 2112.949
891.4570, 2328.238
892.5860, 2318.523
893.7140, 2609.807
894.8430, 2656.020
895.9710, 2713.373
897.1000, 2862.664
898.2280, 2887.955
899.3560, 3044.260
900.4830, 2900.572
901.6110, 3030.891
902.7380, 3020.209
903.8660, 3201.535
904.9930, 3436.865
906.1200, 3286.199
907.2460, 3472.535
908.3730, 3382.879
909.5000, 3511.236
910.6260, 3725.891
911.7520, 3967.010
912.8780, 4259.879
914.0040, 4404.828
915.1290, 4606.125
916.2550, 4840.312
917.3800, 4963.574
918.5050, 5422.320
919.6300, 5435.580
920.7550, 5745.090
921.8800, 5884.141
923.0040, 5935.844
924.1290, 6119.389
925.2530, 6006.680
926.3770, 5931.438
927.5010, 5866.229
928.6250, 5615.537
929.7480, 5438.580
930.8720, 5148.086
931.9950, 4955.902
933.1180, 4659.912
934.2410, 4531.555
935.3640, 4414.523
936.4860, 4175.395
937.6090, 4032.326
938.7310, 4129.592
939.8530, 4017.977
940.9750, 3953.414
942.0970, 4086.449
943.2180, 4073.160
944.3400, 3924.492
945.4610, 4179.236
946.5820, 4054.830
947.7030, 4122.068
948.8240, 3876.744
949.9450, 3922.756
951.0650, 3852.023
952.1860, 3752.859
953.3060, 4069.227
954.4260, 4016.453
955.5460, 3969.418
956.6650, 4029.574
957.7850, 3968.000
958.9040, 4031.836
960.0230, 3907.535
961.1420, 4088.172
962.2610, 4055.805
963.3800, 3984.406
964.4990, 3940.254
965.6170, 4268.463
966.7350, 3738.635
967.8530, 4165.758
968.9710, 4287.480
970.0890, 4133.840
971.2070, 4178.352
972.3240, 4053.203
973.4410, 4028.115
974.5580, 4161.076
975.6750, 3948.098
976.7920, 3903.994
977.9090, 4128.914
979.0250, 4036.084
980.1410, 4021.305
981.2580, 4175.578
982.3740, 4306.902
983.4890, 4290.275
984.6050, 4283.701
985.7200, 4653.180
986.8360, 4756.707
987.9510, 4778.287
989.0660, 4631.920
990.1810, 4835.604
991.2950, 4756.342
992.4100, 5066.129
993.5240, 5309.969
994.6390, 5502.861
995.7530, 5642.809
996.8660, 5839.805
997.9800, 6019.979
999.0940, 6332.965
1000.207, 6474.131
1001.320, 6829.346
1002.433, 7234.617
1003.546, 7483.096
1004.659, 7900.311
1005.772, 8035.734
1006.884, 8729.211
1007.996, 8828.734
1009.108, 9671.314
1010.220, 10031.95
1011.332, 10478.62
1012.444, 11046.36
1013.555, 11479.14
1014.666, 11892.91
1015.777, 12276.86
1016.888, 12858.80
1017.999, 13519.78
1019.110, 14446.85
1020.220, 14678.42
1021.331, 15034.49
1022.441, 15033.07
1023.551, 14982.30
1024.661, 14627.58
1025.770, 13974.91
1026.880, 13447.29
1027.989, 13125.85
1029.098, 12418.39
1030.207, 11868.45
1031.316, 11456.02
1032.425, 10936.26
1033.533, 10986.81
1034.642, 10852.54
1035.750, 11080.30
1036.858, 11409.05
1037.966, 11793.91
1039.073, 12193.82
1040.181, 12760.98
1041.288, 13228.99
1042.396, 13723.89
1043.503, 14242.30
1044.610, 14596.74
1045.716, 14840.03
1046.823, 14915.24
1047.929, 14859.28
1049.036, 14642.21
1050.142, 14356.45
1051.248, 14243.33
1052.353, 13807.71
1053.459, 14026.76
1054.564, 13748.76
1055.670, 13301.03
1056.775, 13484.29
1057.880, 13460.57
1058.985, 13284.92
1060.089, 13275.01
1061.194, 12946.44
1062.298, 12296.53
1063.402, 11271.49
1064.506, 10393.04
1065.610, 9432.305
1066.713, 8480.922
1067.817, 7500.047
1068.920, 6535.938
1070.023, 5925.498
1071.126, 5487.375
1072.229, 4958.584
1073.332, 4638.977
1074.435, 4206.154
1075.537, 4027.639
1076.639, 3608.111
1077.741, 3587.432
1078.843, 3134.393
1079.945, 3040.434
1081.046, 2992.180
1082.148, 3003.908
1083.249, 2716.090
1084.350, 2746.613
1085.451, 2283.496
1086.551, 2538.357
1087.652, 2333.035
1088.752, 2425.764
1089.853, 2198.379
1090.953, 2227.273
1092.053, 1950.838
1093.152, 1920.092
1094.252, 1943.531
1095.351, 1725.453
1096.451, 2007.389
1097.550, 1849.371
1098.649, 2059.869
1099.748, 1730.648
1100.846, 1928.385
1101.945, 1743.688
1103.043, 1810.201
1104.141, 1842.035
1105.239, 1758.766
1106.337, 1815.096
1107.434, 1750.852
1108.532, 1467.303
1109.629, 1639.361
1110.726, 1458.275
1111.823, 1366.074
1112.920, 1445.457
1114.017, 1493.420
1115.113, 1408.309
1116.210, 1391.178
1117.306, 1569.074
1118.402, 1650.062
1119.498, 1569.977
1120.593, 1724.133
1121.689, 1843.078
1122.784, 1840.199
1123.879, 1818.840
1124.974, 1641.375
1126.069, 1611.373
1127.164, 1553.895
1128.259, 1421.133
1129.353, 1378.164
1130.447, 1096.402
1131.541, 956.0078
1132.635, 832.0645
1133.729, 760.1504
1134.822, 663.2422
1135.916, 585.3457
1137.009, 298.4512
1138.102, 463.5645
1139.195, 633.6836
1140.288, 403.2402
1141.380, 188.3711
1142.473, 272.5059
1143.565, 127.6309
1144.657, 131.9824
1145.749, 88.57422
1146.841, 148.7207
1147.932, 137.8711
1149.024, 184.0234
1150.115, 2.183594
1151.206, 222.6523
1152.297, 84.56445
1153.388, 97.50195
1154.479, 132.5391
1155.569, 221.5801
1156.659, 83.61914
1157.750, 11.66992
1158.839, 6.292969
1159.929, 1.261719
1161.019, 58.23633
1162.108, 38.77539
1163.198, 80.21680
1164.287, 62.20898
1165.376, 6.746094
1166.465, 10.16797
1167.553, 33.88477
1168.642, 68.04688
1169.730, 13.46680
1170.818, 5.617188
1171.906, 14.29883
1172.994, 46.79688
1174.082, 91.67969
1175.170, 138.0547
1176.257, 180.2402
1177.344, 207.5234
1178.431, 137.9238
1179.518, 68.39648
1180.605, 150.9160
1181.691, 26.60742
1182.778, 137.1699
1183.864, 94.39258
1184.950, 56.72852
1186.036, 44.96875
1187.122, 35.80859
1188.207, 161.6191
1189.292, 31.53906
1190.378, 72.49805
1191.463, 106.9590
1192.548, 17.62500
1193.632, 92.76953
1194.717, 34.99023
1195.801, 152.7363
1196.886, 141.5527
1197.970, 130.9512
1199.054, 27.54297
1200.137, 154.0117
1201.221, 90.45898
1202.305, 44.89453
1203.388, 37.30664
1204.471, 62.29102
1205.554, 57.06836
1206.637, 92.56836
1207.719, 133.7168
1208.802, 42.20312
1209.884, 46.47656
1210.966, 119.6953
1212.048, 155.8828
1213.130, 65.04492
1214.212, 9.169922
1215.293, 24.25781
1216.374, 54.71484
1217.456, 0.7792970
1218.536, 39.09766
1219.617, 73.87891
1220.698, 76.15625
1221.778, 126.4531
1222.859, 291.1172
1223.939, 64.67383
1225.019, 88.16797
1226.099, 64.38281
1227.178, 36.95898
1228.258, 10.57031
1229.337, 8.212891
1230.417, 28.91797
1231.496, 64.98438
1232.574, 62.24023
1233.653, 85.95898
1234.732, 61.86719
1235.810, 116.7168
1236.888, 74.58203
1237.966, 340.2676
1239.044, 198.9746
1240.122, 241.6387
1241.199, 442.3184
1242.277, 144.9023
1243.354, 253.4590
1244.431, 278.9570
1245.508, 490.4102
1246.585, 290.8203
1247.661, 276.1895
1248.738, 510.5137
1249.814, 249.9336
1250.890, 375.1680
1251.966, 270.6211
1253.042, 261.1875
1254.117, 515.4844
1255.193, 397.5391
1256.268, 199.9180
1257.343, 273.8730
1258.418, 352.7812
1259.493, 284.6406
1260.567, 128.4551
1261.642, 385.2070
1262.716, 469.7891
1263.790, 472.4473
1264.864, 712.2402
1265.938, 478.8008
1267.011, 382.3086
1268.085, 420.7676
1269.158, 256.2793
1270.231, 436.6328
1271.304, 450.9375
1272.377, 320.1875
1273.450, 582.3867
1274.522, 266.5332
1275.594, 562.7969
1276.666, 413.3496
1277.738, 443.3340
1278.810, 546.0293
1279.882, 457.0996
1280.953, 536.1426
1282.025, 433.9160
1283.096, 454.3652
1284.167, 500.6738
1285.238, 428.4160
1286.308, 384.3281
1287.379, 497.1680
1288.449, 500.8535
1289.519, 577.6816
1290.589, 635.1719
1291.659, 553.4824
1292.729, 388.6504
1293.798, 486.5703
1294.868, 285.6992
1295.937, 423.3301
1297.006, 580.4062
1298.075, 284.3496
1299.143, 491.7852
1300.212, 488.1719
1301.280, 608.0684
1302.348, 564.2734
1303.416, 584.8711
1304.484, 589.0508
1305.552, 426.8574
1306.620, 585.9277
1307.687, 579.2930
1308.754, 679.0703
1309.821, 546.8145
1310.888, 441.9824
1311.955, 311.2109
1313.021, 363.4258
1314.088, 595.5000
1315.154, 494.5801
1316.220, 610.8281
1317.286, 645.0254
1318.352, 666.9062
1319.417, 757.9453
1320.483, 728.7812
1321.548, 468.7539
1322.613, 396.2480
1323.678, 377.1523
1324.743, 420.6250
1325.807, 362.4609
1326.872, 366.0391
1327.936, 570.7676
1329.000, 443.9902
1330.064, 665.0039
1331.128, 584.9844
1332.191, 518.3184
1333.255, 425.5801
1334.318, 378.8633
1335.381, 365.8340
1336.444, 321.2402
1337.507, 367.1953
1338.569, 464.5723
1339.632, 424.8145
1340.694, 706.3047
1341.756, 623.0840
1342.818, 372.3828
1343.880, 634.8125
1344.941, 719.1582
1346.003, 614.4512
1347.064, 321.8477
1348.125, 418.2109
1349.186, 400.2344
1350.247, 333.7637
1351.308, 351.4062
1352.368, 471.2559
1353.428, 364.1523
1354.489, 425.6328
1355.549, 270.4785
1356.608, 431.6113
1357.668, 577.0352
1358.727, 451.6641
1359.787, 531.5176
1360.846, 388.4609
1361.905, 487.7051
1362.964, 418.7637
1364.022, 557.2012
1365.081, 435.4629
1366.139, 516.4297
1367.197, 535.0566
1368.255, 325.8105
1369.313, 346.0098
1370.371, 132.2383
1371.428, 549.7109
1372.486, 494.5918
1373.543, 436.2695
1374.600, 474.8984
1375.657, 350.5000
1376.713, 307.9043
1377.770, 438.0410
1378.826, 278.3457
1379.882, 240.4434
1380.938, 292.4473
1381.994, 421.6309
1383.050, 251.7598
1384.106, 588.3223
1385.161, 650.1406
1386.216, 346.1191
1387.271, 366.8516
1388.326, 394.1816
1389.381, 5.996094
1390.435, 347.6934
1391.490, 294.1953
1392.544, 356.5527
1393.598, 449.8379
1394.652, 409.0664
1395.705, 311.2227
1396.759, 370.8789
1397.812, 391.8945
1398.866, 405.8613
1399.919, 369.5762
1400.972, 344.4355
1402.024, 290.7812
1403.077, 207.4961
1404.129, 411.1484
1405.181, 64.73633
1406.233, 166.2617
1407.285, 60.73047
1408.337, 298.1777
1409.389, 230.5723
1410.440, 170.9043
1411.491, 292.1758
1412.542, 237.3828
1413.593, 240.9922
1414.644, 231.6113
1415.695, 198.6406
1416.745, 156.6055
1417.795, 111.5137
1418.845, 182.3555
1419.895, 166.1172
1420.945, 108.8633
1421.995, 175.0820
1423.044, 109.7168
1424.093, 320.3008
1425.142, 177.3359
1426.191, 9.816406
1427.240, 276.2402
1428.289, 223.6113
1429.337, 97.05664
1430.385, 59.78906
1431.433, 216.4355
1432.481, 170.6621
1433.529, 6.896484
1434.577, 377.1172
1435.624, 231.3184
1436.672, 178.5254
1437.719, 224.7051
1438.766, 283.0566
1439.812, 341.3535
1440.859, 268.4961
1441.905, 33.62305
1442.952, 120.9355
1443.998, 164.0039
1445.044, 57.15820
1446.090, 157.7793
1447.135, 211.8906
1448.181, 38.62500
1449.226, 136.8398
1450.271, 103.2871
1451.316, 147.9258
1452.361, 110.6230
1453.405, 125.2109
1454.450, 112.6777
1455.494, 1.191406
1456.538, 88.11914
1457.582, 44.62695
1458.626, 103.4258
1459.670, 77.22656
1460.713, 47.15820
1461.757, 33.93945
1462.800, 2.312500
1463.843, 121.5898
1464.886, 126.5117
1465.928, 142.8457
1466.971, 205.1777
1468.013, 13.49414
1469.055, 141.7988
1470.097, 46.08008
1471.139, 68.24609
1472.181, 59.16797
1473.222, 245.3125
1474.263, 257.4199
1475.305, 214.3145
1476.346, 260.4688
1477.386, 171.2070
1478.427, 369.6895
1479.468, 156.6387
1480.508, 92.57422
1481.548, 26.13477
1482.588, 188.7148
1483.628, 148.5332
1484.668, 199.1973
1485.707, 125.9980
1486.747, 211.7969
1487.786, 334.5762
1488.825, 430.7148
1489.864, 436.9531
1490.902, 308.6094
1491.941, 397.1074
1492.979, 292.7090
1494.017, 187.0000
1495.055, 343.9219
1496.093, 98.64648
1497.131, 220.6406
1498.168, 266.6074
1499.206, 258.5957
1500.243, 238.4004
1501.280, 444.5234
1502.317, 294.1621
1503.354, 387.5371
1504.390, 331.3301
1505.426, 593.9082
1506.463, 369.9492
1507.499, 477.1855
1508.535, 323.5898
1509.570, 477.0391
1510.606, 439.8223
1511.641, 245.4082
1512.676, 432.0508
1513.711, 569.0703
1514.746, 529.2285
1515.781, 396.3438
1516.816, 321.1133
1517.850, 397.4863
1518.884, 254.0664
1519.918, 273.4551
1520.952, 451.3770
1521.986, 394.8398
1523.019, 480.6172
1524.053, 518.3457
1525.086, 396.6094
1526.119, 573.3145
1527.152, 470.7812
1528.185, 519.4199
1529.217, 518.5020
1530.250, 411.9199
1531.282, 371.1406
1532.314, 373.0586
1533.346, 361.5215
1534.377, 476.2578
1535.409, 323.7324
1536.440, 409.5566
1537.472, 157.6699
1538.503, 143.4531
1539.534, 255.8320
1540.564, 302.9102
1541.595, 280.6641
1542.625, 298.1289
1543.656, 515.3867
1544.686, 357.9941
1545.716, 430.6660
1546.745, 579.5156
1547.775, 269.3105
1548.804, 331.0605
1549.834, 338.0801
1550.863, 576.2051
1551.892, 398.3047
1552.920, 579.6055
1553.949, 688.1699
1554.977, 1066.920
1556.006, 789.9648
1557.034, 630.4668
1558.062, 470.4199
1559.089, 321.7090
1560.117, 144.3965
1561.144, 130.5684
1562.172, 0.6601560
1563.199, 28.83008
1564.226, 270.1738
1565.252, 90.49219
1566.279, 4.976563
1567.305, 303.2969
1568.332, 78.14258
1569.358, 58.07812
1570.384, 0.0000000E+00
##END=



