##NAMES=Ferro-actinolite
##RRUFFID=R060189
##IDEAL CHEMISTRY=[box]Ca_2_Mg_2.5-0_Fe^2+^_2.5-5_Si_8_O_22_(OH)_2_
##LOCALITY=Merry Widow mine, Vancouver Island, British Columbia, Canada
##OWNER=RRUFF
##SOURCE=Lloyd Twaites
##DESCRIPTION=Parallel aggregate of green fibers
##STATUS=The identification of this mineral has been confirmed by X-ray diffraction and chemical analysis
##URL=rruff.info/R060189
##MEASURED CHEMISTRY=[box](Ca_1.94_Na_0.06_)_Σ=2_(Fe^2+^_2.55_Mg_2.15_Fe^3+^_0.20_Al_0.05_Mn_0.05_)_Σ=5_(Si_0.98_Al_0.02_)_8_O_22_(OH)_2_
95.94800, 0.0000000E+00
97.18200, 17.78125
98.41600, 90.81250
99.64900, 300.8242
100.8830, 350.3164
102.1160, 445.1094
103.3490, 630.4414
104.5820, 1055.490
105.8150, 1975.182
107.0470, 2984.561
108.2800, 4127.408
109.5120, 5503.996
110.7440, 5336.959
111.9760, 4729.195
113.2080, 4683.814
114.4400, 5116.064
115.6710, 5123.330
116.9030, 4844.141
118.1340, 4090.057
119.3650, 3284.688
120.5960, 2419.660
121.8270, 2082.650
123.0580, 1931.420
124.2880, 1706.756
125.5190, 1089.449
126.7490, 764.3223
127.9790, 1063.209
129.2090, 1224.969
130.4390, 1206.477
131.6680, 1358.609
132.8980, 1201.262
134.1270, 1261.291
135.3560, 1183.869
136.5850, 1402.094
137.8140, 1913.344
139.0430, 2457.980
140.2710, 2967.770
141.5000, 3076.439
142.7280, 3520.879
143.9560, 3596.047
145.1840, 4071.891
146.4120, 3800.453
147.6390, 3753.762
148.8670, 3237.879
150.0940, 2528.936
151.3210, 2387.613
152.5490, 2257.871
153.7750, 1680.709
155.0020, 1769.857
156.2290, 1563.055
157.4550, 1869.523
158.6810, 1648.500
159.9080, 2088.961
161.1340, 1931.885
162.3590, 2464.254
163.5850, 3014.047
164.8110, 3477.248
166.0360, 4119.842
167.2610, 4924.812
168.4860, 5515.145
169.7110, 6209.686
170.9360, 6405.654
172.1610, 6379.539
173.3850, 6365.391
174.6100, 5749.820
175.8340, 5101.904
177.0580, 4506.100
178.2820, 3961.330
179.5050, 3448.732
180.7290, 3140.047
181.9520, 2403.023
183.1760, 2488.352
184.3990, 2261.490
185.6220, 2047.670
186.8450, 2441.998
188.0670, 2397.439
189.2900, 2420.822
190.5120, 2488.824
191.7340, 2538.412
192.9560, 3063.969
194.1780, 3066.895
195.4000, 3118.801
196.6220, 3276.705
197.8430, 3182.818
199.0640, 3174.385
200.2860, 3359.631
201.5070, 3832.736
202.7270, 3824.174
203.9480, 3832.520
205.1690, 3135.547
206.3890, 2990.941
207.6090, 2808.617
208.8290, 2721.609
210.0490, 2782.883
211.2690, 2962.432
212.4890, 3199.168
213.7080, 3504.100
214.9280, 3597.266
216.1470, 3269.623
217.3660, 3025.072
218.5850, 2998.625
219.8030, 2776.268
221.0220, 2891.010
222.2400, 3062.846
223.4590, 2766.766
224.6770, 2847.762
225.8950, 1787.838
227.1120, 1097.992
228.3300, 1307.217
229.5480, 1121.514
230.7650, 1116.883
231.9820, 1043.320
233.1990, 924.8223
234.4160, 585.3906
235.6330, 548.0176
236.8490, 485.7109
238.0660, 567.4590
239.2820, 376.2676
240.4980, 324.1289
241.7140, 396.0449
242.9300, 135.0312
244.1460, 118.9648
245.3610, 175.7090
246.5770, 52.82422
247.7920, 25.07031
249.0070, 50.71875
250.2220, 46.32422
251.4370, 214.8984
252.6510, 256.4805
253.8660, 65.49414
255.0800, 183.9766
256.2940, 76.98242
257.5080, 25.54102
258.7220, 284.3125
259.9360, 879.5508
261.1490, 801.1484
262.3630, 161.0801
263.5760, 271.6758
264.7890, 77.83789
266.0020, 179.3750
267.2150, 188.3398
268.4270, 68.92383
269.6400, 133.5801
270.8520, 94.87305
272.0640, 68.03516
273.2760, 89.85547
274.4880, 21.43359
275.7000, 53.09375
276.9120, 179.5449
278.1230, 89.34961
279.3340, 268.3105
280.5450, 249.9551
281.7560, 69.78906
282.9670, 247.5957
284.1780, 144.6309
285.3880, 210.0273
286.5980, 16.17578
287.8090, 93.98047
289.0190, 181.3809
290.2290, 233.7422
291.4380, 210.7266
292.6480, 28.62305
293.8570, 334.3984
295.0670, 79.33008
296.2760, 81.41211
297.4850, 205.4707
298.6930, 191.6543
299.9020, 9.281250
301.1110, 116.0488
302.3190, 51.28711
303.5270, 101.4395
304.7350, 13.54688
305.9430, 163.1406
307.1510, 158.0234
308.3580, 229.4492
309.5660, 52.69336
310.7730, 31.90234
311.9800, 129.0273
313.1870, 235.8730
314.3940, 104.4199
315.6010, 292.5000
316.8070, 288.0254
318.0130, 33.31055
319.2200, 352.5898
320.4260, 284.5996
321.6310, 517.4395
322.8370, 483.1680
324.0430, 420.5684
325.2480, 806.1738
326.4540, 536.8828
327.6590, 472.5840
328.8640, 616.9082
330.0680, 599.8965
331.2730, 783.6035
332.4780, 644.5410
333.6820, 952.2441
334.8860, 980.1113
336.0900, 1258.014
337.2940, 1385.945
338.4980, 1395.625
339.7010, 1699.613
340.9050, 1875.621
342.1080, 1958.645
343.3110, 2131.688
344.5140, 2271.387
345.7170, 2529.438
346.9200, 2373.480
348.1220, 2951.498
349.3240, 3242.520
350.5270, 3065.551
351.7290, 3221.598
352.9310, 3559.650
354.1320, 3670.711
355.3340, 3762.775
356.5350, 3827.848
357.7370, 3929.922
358.9380, 3832.000
360.1390, 3912.078
361.3400, 3500.156
362.5400, 3867.236
363.7410, 3338.316
364.9410, 3688.395
366.1410, 3381.471
367.3410, 3512.547
368.5410, 3613.619
369.7410, 3615.688
370.9400, 3700.584
372.1400, 3665.812
373.3390, 3753.873
374.5380, 4008.924
375.7370, 4012.973
376.9360, 4125.016
378.1350, 4244.051
379.3330, 4063.082
380.5310, 4345.107
381.7300, 4334.123
382.9280, 4148.133
384.1260, 3809.139
385.3230, 3741.137
386.5210, 3343.129
387.7180, 3509.184
388.9160, 2953.311
390.1130, 2865.494
391.3100, 2849.725
392.5060, 2629.000
393.7030, 2264.803
394.9000, 2093.148
396.0960, 2054.701
397.2920, 1676.195
398.4880, 1601.904
399.6840, 1720.246
400.8800, 1281.791
402.0750, 1476.051
403.2710, 1257.561
404.4660, 881.0820
405.6610, 1058.617
406.8560, 958.1621
408.0510, 691.0586
409.2450, 439.6230
410.4400, 727.9727
411.6340, 471.0801
412.8280, 576.6621
414.0220, 489.0645
415.2160, 323.2637
416.4100, 201.8477
417.6030, 146.1172
418.7970, 219.7031
419.9900, 306.6016
421.1830, 179.1777
422.3760, 287.9922
423.5690, 65.67969
424.7610, 280.8145
425.9540, 199.2715
427.1460, 13.75000
428.3380, 88.18945
429.5300, 125.6074
430.7220, 24.80078
431.9140, 4.164063
433.1050, 52.47852
434.2970, 156.2480
435.4880, 119.8984
436.6790, 11.41406
437.8700, 110.3574
439.0610, 79.58594
440.2510, 121.0547
441.4420, 242.2695
442.6320, 98.33398
443.8220, 15.31836
445.0120, 6.488281
446.2020, 34.86719
447.3910, 92.67969
448.5810, 93.42188
449.7700, 30.38867
450.9600, 147.4688
452.1490, 102.1250
453.3370, 144.4824
454.5260, 252.6055
455.7150, 181.8945
456.9030, 31.65234
458.0910, 131.8594
459.2800, 235.4863
460.4670, 80.18945
461.6550, 9.980469
462.8430, 21.85742
464.0300, 34.82031
465.2180, 42.12109
466.4050, 52.00000
467.5920, 142.1797
468.7790, 327.4844
469.9650, 327.1270
471.1520, 18.25195
472.3380, 184.2754
473.5250, 22.22461
474.7110, 7.820313
475.8970, 35.49609
477.0820, 242.7422
478.2680, 256.9668
479.4540, 285.1641
480.6390, 167.3359
481.8240, 424.4766
483.0090, 444.5918
484.1940, 302.6777
485.3780, 578.7402
486.5630, 133.7773
487.7470, 481.7734
488.9320, 498.7441
490.1160, 510.6875
491.3000, 618.6074
492.4830, 610.5000
493.6670, 733.3672
494.8500, 759.2188
496.0340, 686.0449
497.2170, 629.8438
498.4000, 1036.623
499.5820, 965.4355
500.7650, 1096.227
501.9480, 1155.998
503.1300, 910.7480
504.3120, 997.4727
505.4940, 1125.178
506.6760, 1012.871
507.8580, 1172.535
509.0390, 996.1777
510.2210, 1462.828
511.4020, 1201.453
512.5830, 1378.059
513.7640, 1650.654
514.9450, 1223.227
516.1250, 1425.785
517.3060, 1657.332
518.4860, 1694.887
519.6660, 1538.447
520.8460, 1428.988
522.0260, 1635.512
523.2060, 1514.523
524.3850, 1608.004
525.5650, 1548.277
526.7440, 1729.025
527.9230, 1788.830
529.1020, 1836.611
530.2810, 2045.379
531.4590, 1827.115
532.6380, 1865.826
533.8160, 1856.506
534.9940, 2082.225
536.1720, 1857.945
537.3500, 1911.717
538.5270, 2006.477
539.7050, 1791.232
540.8820, 1642.973
542.0590, 1918.693
543.2360, 1854.396
544.4130, 1567.068
545.5900, 1640.729
546.7660, 1455.383
547.9430, 1583.023
549.1190, 1614.641
550.2950, 1425.254
551.4710, 1748.830
552.6470, 1444.389
553.8220, 1596.938
554.9980, 1575.455
556.1730, 1545.951
557.3480, 1366.434
558.5230, 1584.883
559.6980, 1407.305
560.8730, 1321.689
562.0470, 1411.045
563.2220, 1405.363
564.3960, 1555.648
565.5700, 1410.361
566.7440, 1229.574
567.9170, 1088.758
569.0910, 1239.385
570.2640, 1429.738
571.4380, 1258.773
572.6110, 1170.525
573.7840, 1240.107
574.9570, 1148.801
576.1290, 1014.008
577.3020, 859.6133
578.4740, 802.9082
579.6460, 848.3438
580.8180, 935.5059
581.9900, 800.0879
583.1620, 598.4199
584.3330, 532.9062
585.5040, 587.2578
586.6760, 510.6621
587.8470, 118.0508
589.0180, 513.6250
590.1880, 334.0234
591.3590, 301.5938
592.5290, 486.8242
593.7000, 525.8438
594.8700, 399.0508
596.0400, 271.7422
597.2090, 247.5742
598.3790, 251.0234
599.5490, 193.8008
600.7180, 243.1445
601.8870, 334.7422
603.0560, 554.3594
604.2250, 556.1836
605.3940, 497.1523
606.5620, 365.2422
607.7300, 473.6719
608.8990, 572.9141
610.0670, 382.0156
611.2350, 433.0859
612.4020, 394.5273
613.5700, 551.3086
614.7370, 392.3828
615.9050, 460.2227
617.0720, 577.3008
618.2390, 679.2188
619.4060, 619.1133
620.5720, 633.0898
621.7390, 736.2070
622.9050, 779.0195
624.0710, 742.7969
625.2370, 801.5469
626.4030, 785.3242
627.5690, 1175.762
628.7340, 890.5742
629.9000, 1117.211
631.0650, 1347.895
632.2300, 1243.219
633.3950, 1339.984
634.5600, 1573.227
635.7240, 1801.816
636.8890, 1975.109
638.0530, 2057.020
639.2170, 2364.969
640.3810, 2352.113
641.5450, 2429.535
642.7080, 2843.836
643.8720, 3027.586
645.0350, 3299.301
646.1980, 3661.594
647.3610, 3977.391
648.5240, 4427.555
649.6870, 4740.816
650.8490, 5518.203
652.0120, 6058.211
653.1740, 6893.402
654.3360, 8138.812
655.4980, 9394.914
656.6600, 10663.26
657.8210, 12417.46
658.9830, 13862.85
660.1440, 15390.34
661.3050, 17524.37
662.4660, 19168.55
663.6270, 20181.40
664.7870, 20791.21
665.9480, 20985.84
667.1080, 20404.57
668.2680, 18511.29
669.4280, 16507.06
670.5880, 14766.34
671.7480, 12497.99
672.9070, 10867.54
674.0670, 9315.754
675.2260, 7695.383
676.3850, 6997.578
677.5440, 6136.602
678.7030, 5263.711
679.8610, 4562.051
681.0200, 4177.094
682.1780, 3728.641
683.3360, 3425.430
684.4940, 2784.293
685.6520, 2619.910
686.8090, 2242.699
687.9670, 2172.340
689.1240, 2032.449
690.2810, 1959.770
691.4380, 1848.145
692.5950, 1717.258
693.7520, 1660.527
694.9080, 1486.734
696.0650, 1433.000
697.2210, 1396.047
698.3770, 1224.602
699.5330, 958.5195
700.6880, 1227.652
701.8440, 1059.824
702.9990, 889.8867
704.1550, 1032.875
705.3100, 997.0312
706.4650, 998.1992
707.6190, 873.2383
708.7740, 701.6602
709.9290, 960.8242
711.0830, 564.4336
712.2370, 827.4922
713.3910, 924.5469
714.5450, 877.6992
715.6980, 753.0508
716.8520, 728.0234
718.0050, 716.6055
719.1580, 716.0625
720.3110, 740.6875
721.4640, 896.4258
722.6170, 886.1328
723.7700, 854.8789
724.9220, 1007.801
726.0740, 788.6836
727.2260, 878.7109
728.3780, 931.2461
729.5300, 870.4648
730.6810, 1057.160
731.8330, 1276.605
732.9840, 949.0508
734.1350, 1453.449
735.2860, 1057.883
736.4370, 1276.340
737.5880, 1164.758
738.7380, 1258.184
739.8880, 1212.562
741.0390, 1299.672
742.1890, 1104.281
743.3380, 1370.617
744.4880, 1401.930
745.6380, 1141.301
746.7870, 1232.543
747.9360, 991.9844
749.0850, 649.1914
750.2340, 651.6875
751.3830, 795.8438
752.5310, 808.1797
753.6800, 565.2422
754.8280, 537.5664
755.9760, 597.1836
757.1240, 482.9609
758.2720, 456.2188
759.4190, 499.5156
760.5670, 630.8750
761.7140, 555.6289
762.8610, 498.3281
764.0080, 476.2812
765.1550, 395.5625
766.3020, 456.1055
767.4480, 566.7227
768.5950, 477.7656
769.7410, 319.2305
770.8870, 446.5508
772.0330, 150.8125
773.1780, 237.0078
774.3240, 364.1406
775.4690, 326.2109
776.6140, 160.7773
777.7590, 146.0547
778.9040, 246.8125
780.0490, 122.5117
781.1940, 394.1445
782.3380, 84.71875
783.4820, 46.21094
784.6260, 361.6250
785.7700, 241.9766
786.9140, 57.73438
788.0580, 205.4297
789.2010, 127.5312
790.3450, 3.558594
791.4880, 191.4922
792.6310, 41.36328
793.7730, 0.8515630
794.9160, 47.16016
796.0590, 66.58984
797.2010, 67.84766
798.3430, 100.2148
799.4850, 65.49219
800.6270, 236.3320
801.7690, 316.3906
802.9100, 393.7109
804.0520, 253.3906
805.1930, 103.8203
806.3340, 28.90625
807.4750, 320.9062
808.6160, 219.8438
809.7560, 233.7188
810.8970, 188.4688
812.0370, 52.84375
813.1770, 254.3438
814.3170, 312.9336
815.4570, 117.1523
816.5960, 21.30469
817.7360, 272.3672
818.8750, 61.37891
820.0140, 310.3086
821.1530, 19.82031
822.2920, 49.04688
823.4310, 21.38281
824.5690, 32.17969
825.7070, 174.6641
826.8460, 347.0898
827.9840, 317.1914
829.1220, 7.761719
830.2590, 251.9883
831.3970, 126.1562
832.5340, 8.750000
833.6710, 335.2695
834.8080, 200.2266
835.9450, 339.1211
837.0820, 275.9609
838.2190, 251.7461
839.3550, 265.7695
840.4910, 269.1367
841.6270, 224.7578
842.7630, 208.3398
843.8990, 225.8906
845.0350, 365.3789
846.1700, 413.8164
847.3060, 293.2031
848.4410, 178.5312
849.5760, 170.3242
850.7100, 219.9609
851.8450, 115.0898
852.9800, 406.0742
854.1140, 495.0078
855.2480, 301.8867
856.3820, 514.7188
857.5160, 202.5000
858.6500, 454.2188
859.7830, 432.8945
860.9170, 384.5156
862.0500, 386.0859
863.1830, 322.9297
864.3160, 467.0781
865.4480, 291.5039
866.5810, 407.8828
867.7130, 577.2070
868.8460, 577.5000
869.9780, 486.7500
871.1100, 541.1719
872.2410, 619.1016
873.3730, 502.2422
874.5050, 530.3281
875.6360, 555.3711
876.7670, 699.3672
877.8980, 647.3047
879.0290, 464.1992
880.1590, 641.0469
881.2900, 413.8438
882.4200, 566.5938
883.5500, 387.2969
884.6800, 616.9609
885.8100, 346.5859
886.9400, 15.23047
888.0690, 126.8203
889.1990, 484.3516
890.3280, 354.8320
891.4570, 276.2656
892.5860, 222.6445
893.7140, 332.9570
894.8430, 610.4219
895.9710, 598.7969
897.1000, 704.6992
898.2280, 715.4062
899.3560, 569.6445
900.4830, 688.7773
901.6110, 496.5273
902.7380, 373.4766
903.8660, 41.53125
904.9930, 381.4570
906.1200, 578.6680
907.2460, 459.3672
908.3730, 772.5117
909.5000, 700.2305
910.6260, 971.4336
911.7520, 939.6055
912.8780, 984.3008
914.0040, 883.4375
915.1290, 958.9609
916.2550, 979.5273
917.3800, 770.5820
918.5050, 1160.625
919.6300, 992.0273
920.7550, 1046.852
921.8800, 1234.133
923.0040, 1097.453
924.1290, 1099.473
925.2530, 1219.793
926.3770, 1014.859
927.5010, 1230.641
928.6250, 1005.652
929.7480, 1039.352
930.8720, 1038.141
931.9950, 790.6875
933.1180, 980.0508
934.2410, 1048.801
935.3640, 590.3984
936.4860, 773.2461
937.6090, 978.0547
938.7310, 755.9961
939.8530, 698.7422
940.9750, 528.4453
942.0970, 489.0039
943.2180, 621.0078
944.3400, 544.5625
945.4610, 662.1562
946.5820, 976.0000
947.7030, 715.3711
948.8240, 271.1055
949.9450, 528.9375
951.0650, 631.6172
952.1860, 225.0000
953.3060, 443.6094
954.4260, 543.6484
955.5460, 622.3789
956.6650, 676.9570
957.7850, 489.7266
958.9040, 430.2461
960.0230, 473.8398
961.1420, 508.9062
962.2610, 153.6836
963.3800, 391.3281
964.4990, 503.4883
965.6170, 279.8203
966.7350, 475.4375
967.8530, 515.9336
968.9710, 333.5781
970.0890, 429.6484
971.2070, 357.3320
972.3240, 328.7383
973.4410, 167.0352
974.5580, 425.3789
975.6750, 374.5352
976.7920, 301.2227
977.9090, 353.6328
979.0250, 299.7617
980.1410, 390.0391
981.2580, 378.0234
982.3740, 205.3047
983.4890, 409.1914
984.6050, 365.6641
985.7200, 375.8828
986.8360, 518.8359
987.9510, 357.6328
989.0660, 284.6953
990.1810, 371.0391
991.2950, 236.0742
992.4100, 391.9922
993.5240, 241.9492
994.6390, 146.8164
995.7530, 562.4688
996.8660, 743.1289
997.9800, 515.5117
999.0940, 659.4531
1000.207, 344.2266
1001.320, 645.9453
1002.433, 482.2891
1003.546, 876.5859
1004.659, 776.4688
1005.772, 377.3398
1006.884, 803.2461
1007.996, 514.0898
1009.108, 915.9219
1010.220, 876.1211
1011.332, 1249.621
1012.444, 1011.422
1013.555, 1013.457
1014.666, 1319.391
1015.777, 1080.070
1016.888, 1149.828
1017.999, 1554.305
1019.110, 2012.930
1020.220, 1723.309
1021.331, 1994.980
1022.441, 1869.980
1023.551, 1801.672
1024.661, 1663.078
1025.770, 1795.148
1026.880, 1802.746
1027.989, 1757.047
1029.098, 1660.691
1030.207, 1446.320
1031.316, 1706.934
1032.425, 1694.191
1033.533, 1846.891
1034.642, 1662.480
1035.750, 1826.062
1036.858, 1892.832
1037.966, 1857.125
1039.073, 2218.594
1040.181, 2166.547
1041.288, 2381.086
1042.396, 2516.625
1043.503, 2772.160
1044.610, 2764.688
1045.716, 2596.207
1046.823, 2963.781
1047.929, 2856.473
1049.036, 2669.547
1050.142, 2829.723
1051.248, 3254.570
1052.353, 3108.902
1053.459, 3163.477
1054.564, 3199.184
1055.670, 3295.754
1056.775, 3729.531
1057.880, 4205.312
1058.985, 3555.906
1060.089, 3415.727
1061.194, 3251.336
1062.298, 3665.953
1063.402, 3286.242
1064.506, 3089.898
1065.610, 2764.582
1066.713, 2556.719
1067.817, 2064.387
1068.920, 1713.113
1070.023, 1705.914
1071.126, 1259.812
1072.229, 1553.910
1073.332, 1109.027
1074.435, 1021.129
1075.537, 1266.242
1076.639, 880.3477
1077.741, 905.7656
1078.843, 770.0898
1079.945, 865.6641
1081.046, 854.8633
1082.148, 994.1406
1083.249, 583.4219
1084.350, 748.5781
1085.451, 798.8711
1086.551, 659.1602
1087.652, 878.4609
1088.752, 525.1641
1089.853, 281.4805
1090.953, 816.8203
1092.053, 583.1758
1093.152, 647.5430
1094.252, 623.9141
1095.351, 869.2812
1096.451, 431.6484
1097.550, 349.0273
1098.649, 579.4062
1099.748, 588.7891
1100.846, 345.5742
1101.945, 475.5000
1103.043, 232.8789
1104.141, 245.4453
1105.239, 374.6680
1106.337, 233.0625
1107.434, 76.54297
1108.532, 49.91016
1109.629, 120.7852
1110.726, 147.4375
1111.823, 9.195313
1112.920, 157.4688
1114.017, 390.9844
1115.113, 243.2578
1116.210, 106.4688
1117.306, 732.7539
1118.402, 365.0391
1119.498, 491.3320
1120.593, 702.6250
1121.689, 562.9102
1122.784, 494.1953
1123.879, 680.4766
1124.974, 258.7578
1126.069, 304.0430
1127.164, 711.3242
1128.259, 395.5938
1129.353, 234.8711
1130.447, 535.1406
1131.541, 28.40625
1132.635, 419.6641
1133.729, 78.07031
1134.822, 60.14453
1135.916, 341.3477
1137.009, 188.5547
1138.102, 135.2500
1139.195, 243.8750
1140.288, 177.9961
1141.380, 368.1094
1142.473, 145.2227
1143.565, 266.3281
1144.657, 103.4258
1145.749, 126.5195
1146.841, 264.6133
1147.932, 285.6992
1149.024, 43.22266
1150.115, 1.832031
1151.206, 288.1328
1152.297, 0.2539060
1153.388, 38.62109
1154.479, 977.4922
1155.569, 931.3555
1156.659, 227.2188
1157.750, 536.9180
1158.839, 185.6523
1159.929, 193.2305
1161.019, 374.7969
1162.108, 1.359375
1163.198, 14.90625
1164.287, 147.4453
1165.376, 254.9805
1166.465, 458.5195
1167.553, 93.05078
1168.642, 89.58203
1169.730, 201.1055
1170.818, 74.62891
1171.906, 277.1484
1172.994, 487.6602
1174.082, 415.9727
1175.170, 376.0703
1176.257, 366.1875
1177.344, 310.6953
1178.431, 147.1992
1179.518, 55.06250
1180.605, 32.21875
1181.691, 125.3086
1182.778, 12.89844
1183.864, 183.4961
1184.950, 144.8867
1186.036, 251.2734
1187.122, 133.6562
1188.207, 134.6680
1189.292, 356.4258
1190.378, 127.8047
1191.463, 303.1719
1192.548, 504.5586
1193.632, 97.04688
1194.717, 481.3125
1195.801, 522.6992
1196.886, 76.08203
1197.970, 212.5352
1199.054, 345.7305
1200.137, 393.9961
1201.221, 481.3086
1202.305, 163.6211
1203.388, 179.9453
1204.471, 289.2695
1205.554, 320.5938
1206.637, 366.9141
1207.719, 0.2304690
1208.802, 134.5352
1209.884, 89.82422
1210.966, 574.1172
1212.048, 189.4023
1213.130, 213.6875
1214.212, 11.03125
1215.293, 324.2539
1216.374, 282.5312
1217.456, 518.8047
1218.536, 92.09766
1219.617, 260.3789
1220.698, 371.6523
1221.778, 693.9609
1222.859, 594.2656
1223.939, 258.5703
1225.019, 606.8633
1226.099, 364.1523
1227.178, 608.4336
1228.258, 566.7109
1229.337, 224.9844
1230.417, 103.2461
1231.496, 70.50391
1232.574, 158.2500
1233.653, 265.8984
1234.732, 325.0469
1235.810, 671.1953
1236.888, 651.3281
1237.966, 407.6445
1239.044, 225.2344
1240.122, 588.0039
1241.199, 79.10938
1242.277, 454.6328
1243.354, 134.7148
1244.431, 319.7852
1245.508, 482.8477
1246.585, 513.2773
1247.661, 420.3242
1248.738, 275.3555
1249.814, 421.3789
1250.890, 280.3828
1251.966, 630.3750
1253.042, 255.3477
1254.117, 404.3086
1255.193, 456.2500
1256.268, 361.1836
1257.343, 575.0977
1258.418, 540.9844
1259.493, 275.8594
1260.567, 320.7148
1261.642, 312.8086
1262.716, 471.8320
1263.790, 437.1836
1264.864, 691.5469
1265.938, 778.2891
1267.011, 474.0117
1268.085, 327.6602
1269.158, 572.3359
1270.231, 710.9844
1271.304, 650.6133
1272.377, 731.9727
1273.450, 675.1836
1274.522, 636.0391
1275.594, 616.4492
1276.666, 514.0039
1277.738, 657.5508
1278.810, 692.1758
1279.882, 1024.828
1280.953, 812.3672
1282.025, 780.9141
1283.096, 1099.906
1284.167, 742.4297
1285.238, 908.9453
1286.308, 835.4648
1287.379, 870.2266
1288.449, 691.7422
1289.519, 748.2500
1290.589, 663.7539
1291.659, 581.2695
1292.729, 862.1211
1293.798, 847.5273
1294.868, 772.3633
1295.937, 697.8594
1297.006, 769.0312
1298.075, 796.2539
1299.143, 736.7500
1300.212, 1042.832
1301.280, 724.3281
1302.348, 961.8203
1303.416, 886.8477
1304.484, 741.7695
1305.552, 636.0820
1306.620, 817.9492
1307.687, 936.6680
1308.754, 1072.371
1309.821, 1049.117
1310.888, 1034.312
1311.955, 1024.879
1313.021, 969.7344
1314.088, 992.1641
1315.154, 790.2461
1316.220, 914.8008
1317.286, 693.0742
1318.352, 668.8438
1319.417, 923.9336
1320.483, 666.1133
1321.548, 646.8711
1322.613, 902.7617
1323.678, 1024.531
1324.743, 953.3203
1325.807, 982.5430
1326.872, 1305.402
1327.936, 1053.004
1329.000, 772.5312
1330.064, 957.9922
1331.128, 1138.719
1332.191, 705.6836
1333.255, 695.8398
1334.318, 704.2617
1335.381, 946.1680
1336.444, 723.7969
1337.507, 716.3750
1338.569, 696.7539
1339.632, 1048.031
1340.694, 1033.984
1341.756, 997.0586
1342.818, 1285.551
1343.880, 1201.902
1344.941, 1180.180
1346.003, 1110.848
1347.064, 900.3281
1348.125, 1116.262
1349.186, 1077.059
1350.247, 1210.258
1351.308, 1113.492
1352.368, 1043.672
1353.428, 1274.301
1354.489, 1333.750
1355.549, 902.7266
1356.608, 787.8633
1357.668, 1136.469
1358.727, 1123.645
1359.787, 1152.824
1360.846, 1103.691
1361.905, 1418.996
1362.964, 1222.805
1364.022, 1283.457
1365.081, 1078.879
1366.139, 1037.996
1367.197, 1193.707
1368.255, 1451.871
1369.313, 830.2188
1370.371, 988.8242
1371.428, 1127.117
1372.486, 840.7148
1373.543, 1106.926
1374.600, 1088.816
1375.657, 1068.719
1376.713, 1112.645
1377.770, 1179.246
1378.826, 967.8516
1379.882, 891.3672
1380.938, 691.7031
1381.994, 1003.852
1383.050, 768.4727
1384.106, 998.4727
1385.161, 1060.180
1386.216, 762.7617
1387.271, 801.1602
1388.326, 834.3438
1389.381, 1062.395
1390.435, 725.2930
1391.490, 682.0664
1392.544, 415.6445
1393.598, 584.0664
1394.652, 357.3320
1395.705, 617.7617
1396.759, 691.9336
1397.812, 728.9219
1398.866, 616.5039
1399.919, 676.9062
1400.972, 364.3086
1402.024, 407.7070
1403.077, 481.1172
1404.129, 606.6172
1405.181, 568.9727
1406.233, 401.8086
1407.285, 573.5508
1408.337, 441.4492
1409.389, 540.3555
1410.440, 598.2812
1411.491, 407.1953
1412.542, 357.1172
1413.593, 483.0430
1414.644, 269.9727
1415.695, 472.9023
1416.745, 521.8203
1417.795, 634.7383
1418.845, 309.7031
1419.895, 596.7344
1420.945, 3.761719
1421.995, 285.7773
1423.044, 399.7969
1424.093, 261.7734
1425.142, 282.6953
1426.191, 478.5703
1427.240, 396.5703
1428.289, 285.4297
1429.337, 158.2305
1430.385, 185.7188
1431.433, 92.76562
1432.481, 201.5352
1433.529, 210.2812
1434.577, 123.9844
1435.624, 89.65234
1436.672, 401.2461
1437.719, 354.7773
1438.766, 236.2266
1439.812, 291.6523
1440.859, 15.07422
1441.905, 243.4766
1442.952, 422.8672
1443.998, 90.35547
1445.044, 265.8164
1446.090, 24.73047
1447.135, 1.277344
1448.181, 76.82031
1449.226, 79.38281
1450.271, 242.1328
1451.316, 4.625000
1452.361, 55.16406
1453.405, 9.757813
1454.450, 134.5898
1455.494, 19.12500
1456.538, 7.929688
1457.582, 11.16406
1458.626, 170.8555
1459.670, 156.0078
1460.713, 190.0234
1461.757, 231.7617
1462.800, 269.3867
1463.843, 67.09766
1464.886, 217.8398
1465.928, 78.60547
1466.971, 217.4023
1468.013, 36.78516
1469.055, 160.0469
1470.097, 181.9102
1471.139, 21.21484
1472.181, 281.6836
1473.222, 101.3945
1474.263, 66.73438
1475.305, 216.9961
1476.346, 211.9141
1477.386, 229.4414
1478.427, 361.9922
1479.468, 469.8711
1480.508, 280.2695
1481.548, 248.0938
1482.588, 377.9414
1483.628, 385.0977
1484.668, 160.9258
1485.707, 136.1406
1486.747, 168.7539
1487.786, 91.68750
1488.825, 244.8281
1489.864, 216.9141
1490.902, 92.53906
1491.941, 375.4180
1492.979, 230.9336
1494.017, 306.1172
1495.055, 440.0898
1496.093, 395.0898
1497.131, 85.65234
1498.168, 369.8203
1499.206, 31.94922
1500.243, 537.8086
1501.280, 364.6172
1502.317, 541.5625
1503.354, 281.5703
1504.390, 291.5273
1505.426, 293.4609
1506.463, 610.5078
1507.499, 64.98828
1508.535, 164.2227
1509.570, 473.8555
1510.606, 205.8945
1511.641, 274.3789
1512.676, 341.7422
1513.711, 304.6875
1514.746, 431.2383
1515.781, 322.0977
1516.816, 263.1289
1517.850, 143.8164
1518.884, 219.8164
1519.918, 39.39844
1520.952, 65.00781
1521.986, 80.27734
1523.019, 1.417969
1524.053, 0.0000000E+00
##END=



