##NAMES=Ferro-actinolite
##RRUFFID=R060189
##IDEAL CHEMISTRY=[box]Ca_2_Mg_2.5-0_Fe^2+^_2.5-5_Si_8_O_22_(OH)_2_
##LOCALITY=Merry Widow mine, Vancouver Island, British Columbia, Canada
##OWNER=RRUFF
##SOURCE=Lloyd Twaites
##DESCRIPTION=Parallel aggregate of green fibers
##STATUS=The identification of this mineral has been confirmed by X-ray diffraction and chemical analysis
##URL=rruff.info/R060189
##MEASURED CHEMISTRY=[box](Ca_1.94_Na_0.06_)_Σ=2_(Fe^2+^_2.55_Mg_2.15_Fe^3+^_0.20_Al_0.05_Mn_0.05_)_Σ=5_(Si_0.98_Al_0.02_)_8_O_22_(OH)_2_
95.94800, 0.0000000E+00
97.18200, 138.3452
98.41600, 3.677246
99.64900, 71.66650
100.8830, 186.1709
102.1160, 77.47852
103.3490, 54.93799
104.5820, 146.5859
105.8150, 473.3296
107.0470, 1245.518
108.2800, 1617.834
109.5120, 2251.217
110.7440, 2450.803
111.9760, 1457.893
113.2080, 857.9102
114.4400, 789.3735
115.6710, 972.8633
116.9030, 1166.997
118.1340, 976.4370
119.3650, 705.8882
120.5960, 311.0938
121.8270, 228.8350
123.0580, 337.9219
124.2880, 260.8643
125.5190, 591.5303
126.7490, 580.7988
127.9790, 725.8965
129.2090, 1153.726
130.4390, 1323.191
131.6680, 1546.207
132.8980, 1457.689
134.1270, 1483.521
135.3560, 1578.572
136.5850, 2109.748
137.8140, 2868.970
139.0430, 3921.175
140.2710, 5732.307
141.5000, 7358.323
142.7280, 9522.186
143.9560, 12176.86
145.1840, 14906.32
146.4120, 18089.53
147.6390, 20052.46
148.8670, 19576.13
150.0940, 17044.53
151.3210, 13482.66
152.5490, 10318.52
153.7750, 8054.100
155.0020, 6239.381
156.2290, 4926.348
157.4550, 4375.975
158.6810, 3802.243
159.9080, 3749.125
161.1340, 3842.596
162.3590, 4172.635
163.5850, 5103.219
164.8110, 6061.325
166.0360, 7481.938
167.2610, 9319.031
168.4860, 11402.60
169.7110, 13684.48
170.9360, 16022.29
172.1610, 17322.05
173.3850, 16861.81
174.6100, 15152.65
175.8340, 12742.60
177.0580, 10481.69
178.2820, 8493.947
179.5050, 7013.383
180.7290, 5900.014
181.9520, 4969.848
183.1760, 4258.898
184.3990, 3879.176
185.6220, 3817.712
186.8450, 3558.537
188.0670, 3757.639
189.2900, 3843.000
190.5120, 4106.592
191.7340, 4115.419
192.9560, 4527.480
194.1780, 4639.773
195.4000, 5082.301
196.6220, 5388.076
197.8430, 5826.213
199.0640, 6307.809
200.2860, 6913.931
201.5070, 7674.586
202.7270, 8442.801
203.9480, 9090.540
205.1690, 9432.746
206.3890, 10025.39
207.6090, 10807.47
208.8290, 11929.89
210.0490, 13301.67
211.2690, 14677.85
212.4890, 16135.39
213.7080, 17345.17
214.9280, 18647.15
216.1470, 20015.31
217.3660, 20355.71
218.5850, 20462.28
219.8030, 19754.98
221.0220, 18706.82
222.2400, 17539.79
223.4590, 15983.89
224.6770, 14093.10
225.8950, 12379.42
227.1120, 10540.84
228.3300, 9332.355
229.5480, 7768.979
230.7650, 6757.695
231.9820, 5820.510
233.1990, 5039.416
234.4160, 4510.413
235.6330, 3777.499
236.8490, 3587.672
238.0660, 3227.929
239.2820, 2912.268
240.4980, 2698.689
241.7140, 2522.188
242.9300, 2250.477
244.1460, 2107.146
245.3610, 1992.319
246.5770, 1783.325
247.7920, 1802.192
249.0070, 1496.606
250.2220, 1533.936
251.4370, 1459.895
252.6510, 1423.432
253.8660, 1430.500
255.0800, 1274.062
256.2940, 1285.086
257.5080, 1215.539
258.7220, 1157.396
259.9360, 1565.635
261.1490, 1844.234
262.3630, 1403.174
263.5760, 1093.437
264.7890, 991.0068
266.0020, 1112.870
267.2150, 1015.015
268.4270, 1019.427
269.6400, 951.0967
270.8520, 911.0117
272.0640, 997.4736
273.2760, 959.8535
274.4880, 1109.586
275.7000, 1232.299
276.9120, 1153.311
278.1230, 1221.146
279.3340, 1266.542
280.5450, 1344.393
281.7560, 1420.145
282.9670, 1506.066
284.1780, 1521.154
285.3880, 1543.401
286.5980, 1681.806
287.8090, 1509.361
289.0190, 1495.064
290.2290, 1523.912
291.4380, 1384.899
292.6480, 1471.023
293.8570, 1424.281
295.0670, 1379.667
296.2760, 1202.426
297.4850, 1117.791
298.6930, 1036.076
299.9020, 958.1934
301.1110, 844.4268
302.3190, 830.3652
303.5270, 938.5479
304.7350, 813.7285
305.9430, 833.6123
307.1510, 880.4922
308.3580, 769.7266
309.5660, 742.2637
310.7730, 755.0146
311.9800, 803.6367
313.1870, 963.3389
314.3940, 910.0879
315.6010, 832.5186
316.8070, 1031.480
318.0130, 1085.108
319.2200, 947.2520
320.4260, 1115.285
321.6310, 1291.888
322.8370, 1258.212
324.0430, 1483.646
325.2480, 1516.748
326.4540, 1535.682
327.6590, 1738.792
328.8640, 1654.724
330.0680, 1656.532
331.2730, 1864.820
332.4780, 1864.935
333.6820, 1953.780
334.8860, 2082.651
336.0900, 2047.401
337.2940, 2253.268
338.4980, 2248.076
339.7010, 2467.576
340.9050, 2602.909
342.1080, 2636.806
343.3110, 2643.244
344.5140, 2824.703
345.7170, 2979.360
346.9200, 3168.895
348.1220, 3096.503
349.3240, 3341.099
350.5270, 3333.723
351.7290, 3678.371
352.9310, 3778.043
354.1320, 3712.737
355.3340, 3852.451
356.5350, 3717.182
357.7370, 3800.930
358.9380, 3757.690
360.1390, 3626.467
361.3400, 3298.254
362.5400, 3075.052
363.7410, 3131.861
364.9410, 2842.678
366.1410, 2689.505
367.3410, 2347.340
368.5410, 2373.182
369.7410, 2395.030
370.9400, 2289.884
372.1400, 2187.743
373.3390, 2264.608
374.5380, 2330.479
375.7370, 2275.352
376.9360, 2266.229
378.1350, 2445.109
379.3330, 2394.992
380.5310, 2405.879
381.7300, 2421.916
382.9280, 2250.653
384.1260, 2298.543
385.3230, 2187.433
386.5210, 1980.324
387.7180, 1962.277
388.9160, 1819.298
390.1130, 1687.386
391.3100, 1584.533
392.5060, 1394.736
393.7030, 1102.001
394.9000, 1145.312
396.0960, 903.6699
397.2920, 791.0693
398.4880, 767.5078
399.6840, 785.9844
400.8800, 796.4941
402.0750, 578.0361
403.2710, 448.6094
404.4660, 581.2100
405.6610, 378.8379
406.8560, 361.4883
408.0510, 292.1641
409.2450, 225.8594
410.4400, 132.5752
411.6340, 61.30859
412.8280, 183.0586
414.0220, 53.82422
415.2160, 16.39648
416.4100, 46.39062
417.6030, 98.81152
418.7970, 67.03613
419.9900, 14.72754
421.1830, 80.50195
422.3760, 20.24707
423.5690, 42.99902
424.7610, 179.7432
425.9540, 188.4902
427.1460, 318.2383
428.3380, 215.9883
429.5300, 413.7393
430.7220, 482.4893
431.9140, 402.2373
433.1050, 280.9844
434.2970, 188.7266
435.4880, 148.4658
436.6790, 95.19922
437.8700, 62.92578
439.0610, 34.35352
440.2510, 77.66602
441.4420, 107.0322
442.6320, 167.2383
443.8220, 147.0127
445.0120, 214.2812
446.2020, 212.3145
447.3910, 165.2607
448.5810, 271.2070
449.7700, 185.1406
450.9600, 251.4473
452.1490, 235.8457
453.3370, 101.9316
454.5260, 196.6484
455.7150, 161.5049
456.9030, 141.4854
458.0910, 165.5811
459.2800, 137.8076
460.4670, 145.1514
461.6550, 65.61816
462.8430, 26.16992
464.0300, 100.7881
465.2180, 189.5107
466.4050, 91.38867
467.5920, 131.3691
468.7790, 109.4766
469.9650, 76.70020
471.1520, 14.97461
472.3380, 20.44531
473.5250, 34.56152
474.7110, 68.66895
475.8970, 10.14355
477.0820, 12.55273
478.2680, 17.10156
479.4540, 18.16406
480.6390, 103.3662
481.8240, 82.53223
483.0090, 180.6562
484.1940, 28.75293
485.3780, 154.7852
486.5630, 230.7871
487.7470, 97.75977
488.9320, 177.6924
490.1160, 74.59473
491.3000, 380.4453
492.4830, 435.2656
493.6670, 476.0557
494.8500, 515.8154
496.0340, 589.8770
497.2170, 622.0039
498.4000, 710.9111
499.5820, 742.5469
500.7650, 745.1543
501.9480, 873.7295
503.1300, 907.2773
504.3120, 1054.795
505.4940, 1041.299
506.6760, 985.7910
507.8580, 1023.252
509.0390, 1252.709
510.2210, 1368.146
511.4020, 1355.559
512.5830, 1339.959
513.7640, 1527.371
514.9450, 1589.832
516.1250, 1647.281
517.3060, 1857.750
518.4860, 1893.225
519.6660, 2072.676
520.8460, 2238.103
522.0260, 2290.504
523.2060, 2331.921
524.3850, 2316.334
525.5650, 2289.273
526.7440, 2233.975
527.9230, 2141.656
529.1020, 2063.074
530.2810, 1998.749
531.4590, 1924.020
532.6380, 1843.162
533.8160, 1785.462
534.9940, 1666.778
536.1720, 1572.075
537.3500, 1534.364
538.5270, 1588.613
539.7050, 1602.826
540.8820, 1500.004
542.0590, 1396.143
543.2360, 1416.238
544.4130, 1360.305
545.5900, 1238.360
546.7660, 1195.404
547.9430, 1160.533
549.1190, 1281.379
550.2950, 1072.321
551.4710, 1134.220
552.6470, 979.0869
553.8220, 1134.911
554.9980, 1064.680
556.1730, 999.6758
557.3480, 1069.831
558.5230, 880.4961
559.6980, 948.9829
560.8730, 957.6523
562.0470, 926.1792
563.2220, 896.0303
564.3960, 814.5063
565.5700, 887.6631
566.7440, 863.0474
567.9170, 765.4175
569.0910, 709.7407
570.2640, 875.0156
571.4380, 696.2437
572.6110, 761.4248
573.7840, 627.5576
574.9570, 591.6543
576.1290, 621.7046
577.3020, 632.7061
578.4740, 547.6602
579.6460, 391.5659
580.8180, 380.1763
581.9900, 407.2520
583.1620, 393.4785
584.3330, 366.9395
585.5040, 282.3481
586.6760, 197.5801
587.8470, 224.4326
589.0180, 283.2930
590.1880, 246.2578
591.3590, 283.2734
592.5290, 242.9795
593.7000, 189.4277
594.8700, 290.6992
596.0400, 330.1377
597.2090, 240.5342
598.3790, 316.9160
599.5490, 392.6504
600.7180, 346.8867
601.8870, 316.4902
603.0560, 357.6133
604.2250, 456.8779
605.3940, 467.2793
606.5620, 574.6465
607.7300, 558.6094
608.8990, 637.9326
610.0670, 681.4541
611.2350, 662.8281
612.4020, 703.4102
613.5700, 836.1406
614.7370, 1032.417
615.9050, 1064.892
617.0720, 1040.657
618.2390, 1213.418
619.4060, 1187.320
620.5720, 1391.125
621.7390, 1572.006
622.9050, 1755.209
624.0710, 1735.599
625.2370, 1903.436
626.4030, 2091.744
627.5690, 2264.040
628.7340, 2472.713
629.9000, 2652.947
631.0650, 2953.108
632.2300, 3209.933
633.3950, 3609.425
634.5600, 3847.702
635.7240, 4146.005
636.8890, 4536.925
638.0530, 4996.515
639.2170, 5334.882
640.3810, 5690.342
641.5450, 6000.555
642.7080, 6569.668
643.8720, 7073.063
645.0350, 7870.082
646.1980, 8390.526
647.3610, 9017.630
648.5240, 9997.123
649.6870, 11033.79
650.8490, 12366.44
652.0120, 13641.42
653.1740, 15363.79
654.3360, 17657.78
655.4980, 20236.40
656.6600, 23349.45
657.8210, 26667.24
658.9830, 30670.91
660.1440, 34997.61
661.3050, 39250.86
662.4660, 43537.96
663.6270, 46570.47
664.7870, 48581.40
665.9480, 48742.77
667.1080, 46546.52
668.2680, 43112.77
669.4280, 38181.77
670.5880, 33399.86
671.7480, 28194.18
672.9070, 23888.15
674.0670, 20075.01
675.2260, 16591.53
676.3850, 14266.44
677.5440, 12252.45
678.7030, 10530.10
679.8610, 9141.146
681.0200, 7941.963
682.1780, 7131.903
683.3360, 6404.118
684.4940, 5728.745
685.6520, 5136.221
686.8090, 4627.293
687.9670, 4133.970
689.1240, 3770.680
690.2810, 3346.115
691.4380, 3047.195
692.5950, 2743.396
693.7520, 2526.873
694.9080, 2273.143
696.0650, 2094.111
697.2210, 1982.093
698.3770, 1754.247
699.5330, 1739.379
700.6880, 1596.628
701.8440, 1316.693
702.9990, 1442.981
704.1550, 1292.178
705.3100, 1242.308
706.4650, 1187.240
707.6190, 964.1348
708.7740, 894.9922
709.9290, 916.8105
711.0830, 878.5908
712.2370, 887.3330
713.3910, 807.4502
714.5450, 773.1211
715.6980, 706.8818
716.8520, 780.4736
718.0050, 649.0293
719.1580, 800.5469
720.3110, 698.0420
721.4640, 763.5234
722.6170, 806.9990
723.7700, 684.4854
724.9220, 758.6094
726.0740, 719.3916
727.2260, 675.9795
728.3780, 788.4697
729.5300, 824.8203
730.6810, 896.4404
731.8330, 833.0273
732.9840, 822.1826
734.1350, 1004.881
735.2860, 791.6074
736.4370, 993.3535
737.5880, 840.1133
738.7380, 899.8965
739.8880, 800.6953
741.0390, 888.5127
742.1890, 733.3301
743.3380, 708.1367
744.4880, 723.9541
745.6380, 628.8037
746.7870, 631.6631
747.9360, 655.5410
749.0850, 599.4346
750.2340, 564.2080
751.3830, 556.2197
752.5310, 460.0889
753.6800, 383.9385
754.8280, 387.7656
755.9760, 381.5801
757.1240, 534.3828
758.2720, 328.1816
759.4190, 404.9688
760.5670, 368.7295
761.7140, 284.4668
762.8610, 279.1738
764.0080, 214.8701
765.1550, 483.5381
766.3020, 107.1748
767.4480, 371.7852
768.5950, 273.3662
769.7410, 339.9297
770.8870, 230.4648
772.0330, 170.9697
773.1780, 156.4473
774.3240, 116.2764
775.4690, 241.3105
776.6140, 121.6982
777.7590, 106.0547
778.9040, 138.3799
780.0490, 46.67480
781.1940, 99.93359
782.3380, 17.84082
783.4820, 25.68066
784.6260, 123.4111
785.7700, 60.52539
786.9140, 0.5507810
788.0580, 15.37109
789.2010, 23.75293
790.3450, 126.9424
791.4880, 265.2520
792.6310, 37.75195
793.7730, 157.3232
794.9160, 107.0283
796.0590, 5.161133
797.2010, 3.304688
798.3430, 9.026367
799.4850, 149.5459
800.6270, 77.62012
801.7690, 117.7793
802.9100, 222.0469
804.0520, 86.47559
805.1930, 21.00684
806.3340, 31.45703
807.4750, 49.12305
808.6160, 101.2305
809.7560, 19.56055
810.8970, 178.1387
812.0370, 46.96973
813.1770, 86.86328
814.3170, 119.1592
815.4570, 15.16211
816.5960, 1.137695
817.7360, 129.0811
818.8750, 87.00586
820.0140, 23.08984
821.1530, 95.22754
822.2920, 94.69434
823.4310, 27.25293
824.5690, 22.06641
825.7070, 40.42578
826.8460, 124.1689
827.9840, 34.25391
829.1220, 69.28320
830.2590, 3.197266
831.3970, 152.2969
832.5340, 40.22266
833.6710, 5.783203
834.8080, 461.6328
835.9450, 557.0352
837.0820, 66.42480
838.2190, 174.8018
839.3550, 151.8340
840.4910, 46.43457
841.6270, 51.69141
842.7630, 120.0654
843.8990, 166.1025
845.0350, 153.2588
846.1700, 188.4062
847.3060, 124.5420
848.4410, 72.66895
849.5760, 55.21387
850.7100, 64.87012
851.8450, 31.94336
852.9800, 194.0059
854.1140, 196.0615
855.2480, 291.1084
856.3820, 269.1484
857.5160, 217.1807
858.6500, 384.2061
859.7830, 362.2236
860.9170, 383.2344
862.0500, 360.2402
863.1830, 307.2480
864.3160, 288.2539
865.4480, 416.2539
866.5810, 396.2480
867.7130, 542.2354
868.8460, 482.2178
869.9780, 529.1943
871.1100, 567.1670
872.2410, 455.1309
873.3730, 745.0889
874.5050, 746.0400
875.6360, 654.9863
876.7670, 805.9258
877.8980, 829.8584
879.0290, 806.7852
880.1590, 985.7070
881.2900, 981.6250
882.4200, 1001.536
883.5500, 944.4404
884.6800, 1011.931
885.8100, 1206.238
886.9400, 1159.139
888.0690, 1321.033
889.1990, 1491.924
890.3280, 1594.810
891.4570, 1655.689
892.5860, 1730.566
893.7140, 2014.474
894.8430, 1933.379
895.9710, 2124.298
897.1000, 2042.215
898.2280, 2199.127
899.3560, 2355.059
900.4830, 2308.988
901.6110, 2254.918
902.7380, 2353.285
903.8660, 2430.216
904.9930, 2415.169
906.1200, 2622.124
907.2460, 2637.090
908.3730, 2729.915
909.5000, 2887.682
910.6260, 3156.240
911.7520, 3431.244
912.8780, 3629.871
914.0040, 3840.250
915.1290, 3739.134
916.2550, 4228.945
917.3800, 4321.486
918.5050, 4584.385
919.6300, 4889.842
920.7550, 5314.611
921.8800, 5553.963
923.0040, 5625.133
924.1290, 5808.299
925.2530, 5636.122
926.3770, 5571.517
927.5010, 5454.281
928.6250, 5072.416
929.7480, 4896.113
930.8720, 4544.047
931.9950, 4247.086
933.1180, 3958.077
934.2410, 3759.500
935.3640, 3776.041
936.4860, 3642.181
937.6090, 3392.873
938.7310, 3545.101
939.8530, 3384.921
940.9750, 3314.246
942.0970, 3288.801
943.2180, 3284.237
944.3400, 3160.419
945.4610, 3136.938
946.5820, 3203.554
947.7030, 3177.492
948.8240, 3103.162
949.9450, 2951.475
951.0650, 2945.262
952.1860, 2865.658
953.3060, 2834.260
954.4260, 2696.715
955.5460, 2747.877
956.6650, 2707.847
957.7850, 2807.516
958.9040, 2744.790
960.0230, 2725.446
961.1420, 2770.059
962.2610, 2703.933
963.3800, 2718.143
964.4990, 2609.850
965.6170, 2700.989
966.7350, 2645.957
967.8530, 2689.209
968.9710, 2620.434
970.0890, 2554.471
971.2070, 2522.538
972.3240, 2324.488
973.4410, 2536.611
974.5580, 2296.520
975.6750, 2506.505
976.7920, 2403.550
977.9090, 2409.791
979.0250, 2324.054
980.1410, 2436.343
981.2580, 2390.656
982.3740, 2380.998
983.4890, 2398.363
984.6050, 2397.342
985.7200, 2409.753
986.8360, 2398.064
987.9510, 2613.533
989.0660, 2483.026
990.1810, 2738.547
991.2950, 2467.093
992.4100, 2808.664
993.5240, 2870.262
994.6390, 2857.885
995.7530, 2968.535
996.8660, 3114.211
997.9800, 3111.913
999.0940, 3328.641
1000.207, 3347.396
1001.320, 3653.180
1002.433, 3741.988
1003.546, 3877.823
1004.659, 4073.686
1005.772, 4224.574
1006.884, 4395.488
1007.996, 4585.453
1009.108, 4688.424
1010.220, 4982.428
1011.332, 5032.459
1012.444, 5214.516
1013.555, 5544.895
1014.666, 5488.006
1015.777, 5447.144
1016.888, 5649.309
1017.999, 5879.500
1019.110, 6094.451
1020.220, 6397.307
1021.331, 6407.580
1022.441, 6626.880
1023.551, 6866.207
1024.661, 6779.568
1025.770, 7091.946
1026.880, 7046.355
1027.989, 7348.947
1029.098, 7679.488
1030.207, 7860.975
1031.316, 8079.486
1032.425, 8383.975
1033.533, 9154.699
1034.642, 9662.506
1035.750, 10169.46
1036.858, 11202.11
1037.966, 11962.21
1039.073, 12800.19
1040.181, 13794.87
1041.288, 14652.74
1042.396, 15738.51
1043.503, 16836.00
1044.610, 17015.71
1045.716, 17665.55
1046.823, 17561.29
1047.929, 17366.25
1049.036, 16988.43
1050.142, 16391.30
1051.248, 15664.64
1052.353, 15019.86
1053.459, 14027.93
1054.564, 13455.22
1055.670, 12991.29
1056.775, 12665.62
1057.880, 12401.55
1058.985, 12035.01
1060.089, 11624.98
1061.194, 11025.40
1062.298, 10451.90
1063.402, 9562.944
1064.506, 8644.562
1065.610, 7696.275
1066.713, 6913.006
1067.817, 6018.854
1068.920, 5278.902
1070.023, 4774.893
1071.126, 4233.456
1072.229, 3861.961
1073.332, 3487.254
1074.435, 3171.863
1075.537, 2902.985
1076.639, 2703.551
1077.741, 2476.552
1078.843, 2334.707
1079.945, 2214.210
1081.046, 2072.585
1082.148, 1951.669
1083.249, 1859.896
1084.350, 1757.277
1085.451, 1652.727
1086.551, 1642.226
1087.652, 1556.871
1088.752, 1568.274
1089.853, 1385.265
1090.953, 1333.924
1092.053, 1277.106
1093.152, 1156.435
1094.252, 1168.562
1095.351, 1157.215
1096.451, 1042.896
1097.550, 1018.593
1098.649, 1066.309
1099.748, 1044.100
1100.846, 960.8564
1101.945, 1042.868
1103.043, 993.3086
1104.141, 894.1123
1105.239, 945.1025
1106.337, 894.7383
1107.434, 808.6182
1108.532, 753.8506
1109.629, 693.1309
1110.726, 692.1162
1111.823, 605.0771
1112.920, 703.0479
1114.017, 593.6348
1115.113, 502.6260
1116.210, 653.6309
1117.306, 649.6582
1118.402, 770.6963
1119.498, 720.8350
1120.593, 723.8916
1121.689, 687.9902
1122.784, 635.3301
1123.879, 698.4150
1124.974, 575.5078
1126.069, 549.6211
1127.164, 702.7295
1128.259, 540.8467
1129.353, 503.9697
1130.447, 545.1035
1131.541, 377.6572
1132.635, 276.9199
1133.729, 336.0723
1134.822, 116.2285
1135.916, 168.3906
1137.009, 223.5605
1138.102, 179.9062
1139.195, 1.264648
1140.288, 129.8389
1141.380, 62.30176
1142.473, 44.52246
1143.565, 41.03906
1144.657, 18.75977
1145.749, 16.44141
1146.841, 177.6445
1147.932, 180.8525
1149.024, 177.1230
1150.115, 33.66504
1151.206, 56.45801
1152.297, 5.736328
1153.388, 31.05176
1154.479, 83.25195
1155.569, 4.455078
1156.659, 57.65918
1157.750, 158.1367
1158.839, 7.920898
1159.929, 92.78906
1161.019, 88.30273
1162.108, 15.39551
1163.198, 102.5137
1164.287, 6.467773
1165.376, 8.427734
1166.465, 36.39160
1167.553, 39.62598
1168.642, 103.3555
1169.730, 12.39062
1170.818, 59.42871
1171.906, 94.49219
1172.994, 26.39551
1174.082, 35.72070
1175.170, 37.85840
1176.257, 22.98047
1177.344, 52.18555
1178.431, 19.38184
1179.518, 1.591797
1180.605, 144.7822
1181.691, 39.05664
1182.778, 35.34082
1183.864, 60.34863
1184.950, 15.96680
1186.036, 27.29883
1187.122, 61.65527
1188.207, 4.054688
1189.292, 7.529297
1190.378, 0.8974610
1191.463, 123.3398
1192.548, 16.86035
1193.632, 60.40430
1194.717, 106.0049
1195.801, 3.595703
1196.886, 18.21387
1197.970, 28.13965
1199.054, 35.51855
1200.137, 28.79785
1201.221, 8.417969
1202.305, 12.71289
1203.388, 63.01270
1204.471, 139.2412
1205.554, 88.48145
1206.637, 139.7080
1207.719, 12.02051
1208.802, 21.78906
1209.884, 31.35840
1210.966, 56.75293
1212.048, 60.55664
1213.130, 70.39160
1214.212, 17.40820
1215.293, 88.53516
1216.374, 82.46680
1217.456, 54.38281
1218.536, 28.71680
1219.617, 12.13477
1220.698, 86.95996
1221.778, 11.76758
1222.859, 10.54590
1223.939, 41.30859
1225.019, 142.0488
1226.099, 185.7734
1227.178, 221.4785
1228.258, 230.2646
1229.337, 111.8340
1230.417, 184.4824
1231.496, 74.11426
1232.574, 20.72363
1233.653, 37.37305
1234.732, 33.91895
1235.810, 20.42773
1236.888, 140.9209
1237.966, 67.63770
1239.044, 12.23535
1240.122, 137.6328
1241.199, 257.0078
1242.277, 186.5615
1243.354, 61.89551
1244.431, 281.2031
1245.508, 182.1846
1246.585, 162.4482
1247.661, 205.8604
1248.738, 139.0986
1249.814, 199.2959
1250.890, 156.9658
1251.966, 103.2734
1253.042, 180.3975
1254.117, 210.8574
1255.193, 168.9395
1256.268, 384.9971
1257.343, 213.0771
1258.418, 232.0869
1259.493, 339.6582
1260.567, 93.61914
1261.642, 153.5518
1262.716, 237.4570
1263.790, 250.3379
1264.864, 236.6729
1265.938, 231.4629
1267.011, 148.3066
1268.085, 148.4385
1269.158, 107.4268
1270.231, 65.18457
1271.304, 189.1416
1272.377, 120.8047
1273.450, 218.4277
1274.522, 271.8242
1275.594, 293.3926
1276.666, 285.9678
1277.738, 188.6533
1278.810, 373.2139
1279.882, 369.6299
1280.953, 322.8525
1282.025, 178.9072
1283.096, 294.7422
1284.167, 241.3896
1285.238, 215.8896
1286.308, 308.3770
1287.379, 185.6279
1288.449, 342.0527
1289.519, 365.1689
1290.589, 312.4004
1291.659, 479.9043
1292.729, 222.0596
1293.798, 325.9785
1294.868, 289.8135
1295.937, 333.4932
1297.006, 408.0732
1298.075, 300.6025
1299.143, 290.9580
1300.212, 225.3896
1301.280, 360.4336
1302.348, 205.2793
1303.416, 303.3965
1304.484, 317.3066
1305.552, 283.1885
1306.620, 287.2656
1307.687, 378.6934
1308.754, 267.1865
1309.821, 441.9111
1310.888, 291.7949
1311.955, 316.1777
1313.021, 257.2949
1314.088, 332.5645
1315.154, 374.5312
1316.220, 482.5029
1317.286, 336.4053
1318.352, 331.9238
1319.417, 280.6650
1320.483, 278.7842
1321.548, 209.4219
1322.613, 276.7920
1323.678, 244.6611
1324.743, 386.1602
1325.807, 303.4336
1326.872, 379.9961
1327.936, 338.9580
1329.000, 113.3154
1330.064, 308.0518
1331.128, 242.8711
1332.191, 364.9775
1333.255, 248.0703
1334.318, 292.3369
1335.381, 172.6064
1336.444, 221.7900
1337.507, 318.8223
1338.569, 221.5596
1339.632, 276.4883
1340.694, 418.5771
1341.756, 209.4424
1342.818, 289.4395
1343.880, 362.3008
1344.941, 210.4902
1346.003, 353.8564
1347.064, 311.3652
1348.125, 362.0371
1349.186, 214.9912
1350.247, 226.0537
1351.308, 368.5498
1352.368, 278.7754
1353.428, 352.1279
1354.489, 342.7969
1355.549, 367.6045
1356.608, 360.3945
1357.668, 210.7822
1358.727, 270.7695
1359.787, 311.2354
1360.846, 170.3721
1361.905, 279.0010
1362.964, 313.0850
1364.022, 232.2617
1365.081, 125.7979
1366.139, 148.8896
1367.197, 241.9238
1368.255, 191.5215
1369.313, 137.8887
1370.371, 333.5371
1371.428, 249.2598
1372.486, 59.56836
1373.543, 193.8525
1374.600, 145.4170
1375.657, 181.7852
1376.713, 245.9619
1377.770, 80.15332
1378.826, 149.2324
1379.882, 271.0244
1380.938, 101.0762
1381.994, 237.1045
1383.050, 216.0713
1384.106, 176.0283
1385.161, 329.9492
1386.216, 69.84180
1387.271, 225.7012
1388.326, 269.0869
1389.381, 309.7275
1390.435, 230.3770
1391.490, 241.0029
1392.544, 81.60645
1393.598, 197.1846
1394.652, 100.5635
1395.705, 122.8994
1396.759, 158.9863
1397.812, 135.1494
1398.866, 181.5166
1399.919, 190.5088
1400.972, 160.7842
1402.024, 202.0312
1403.077, 174.2529
1404.129, 140.7900
1405.181, 163.5322
1406.233, 54.64062
1407.285, 85.76660
1408.337, 56.71875
1409.389, 77.71582
1410.440, 106.6953
1411.491, 132.6377
1412.542, 129.5420
1413.593, 249.4121
1414.644, 92.20117
1415.695, 184.0225
1416.745, 160.8291
1417.795, 88.59961
1418.845, 192.3359
1419.895, 215.0635
1420.945, 243.7598
1421.995, 238.1152
1423.044, 57.06445
1424.093, 176.6719
1425.142, 37.27441
1426.191, 11.84668
1427.240, 100.3955
1428.289, 240.9365
1429.337, 189.4492
1430.385, 220.1113
1431.433, 139.4170
1432.481, 115.8652
1433.529, 36.30176
1434.577, 84.28320
1435.624, 206.0801
1436.672, 45.53809
1437.719, 201.8154
1438.766, 53.16016
1439.812, 24.48828
1440.859, 72.99902
1441.905, 43.31055
1442.952, 122.0996
1443.998, 90.48828
1445.044, 202.7715
1446.090, 17.06543
1447.135, 19.77734
1448.181, 50.67480
1449.226, 47.55566
1450.271, 8.428711
1451.316, 141.9414
1452.361, 60.73926
1453.405, 37.51758
1454.450, 82.08789
1455.494, 9.205078
1456.538, 113.5156
1457.582, 120.7363
1458.626, 166.0322
1459.670, 114.7656
1460.713, 109.5078
1461.757, 196.2314
1462.800, 213.9131
1463.843, 164.5684
1464.886, 101.2012
1465.928, 96.80762
1466.971, 112.3135
1468.013, 15.90332
1469.055, 19.18164
1470.097, 70.56836
1471.139, 36.88965
1472.181, 45.43750
1473.222, 7.087891
1474.263, 97.34668
1475.305, 25.18262
1476.346, 44.56543
1477.386, 172.3955
1478.427, 42.74121
1479.468, 188.3428
1480.508, 124.7168
1481.548, 200.0830
1482.588, 162.7676
1483.628, 71.60449
1484.668, 129.4062
1485.707, 103.4355
1486.747, 136.6367
1487.786, 35.92383
1488.825, 59.88867
1489.864, 143.5557
1490.902, 223.1465
1491.941, 170.6729
1492.979, 103.6523
1494.017, 258.3916
1495.055, 90.00391
1496.093, 229.3213
1497.131, 246.6553
1498.168, 176.0088
1499.206, 86.58594
1500.243, 128.4795
1501.280, 148.7236
1502.317, 165.4648
1503.354, 232.4854
1504.390, 235.0879
1505.426, 140.0957
1506.463, 8.617188
1507.499, 165.0566
1508.535, 182.4873
1509.570, 260.3643
1510.606, 238.9863
1511.641, 204.0010
1512.676, 283.2764
1513.711, 241.3203
1514.746, 232.6992
1515.781, 131.6250
1516.816, 222.0518
1517.850, 188.8916
1518.884, 176.4111
1519.918, 173.9395
1520.952, 248.9580
1521.986, 230.9316
1523.019, 359.9883
1524.053, 193.8711
1525.086, 116.7188
1526.119, 182.7510
1527.152, 92.06738
1528.185, 230.7100
1529.217, 222.6719
1530.250, 158.6807
1531.282, 68.03320
1532.314, 211.6807
1533.346, 182.9033
1534.377, 256.8672
1535.409, 297.5625
1536.440, 237.4082
1537.472, 268.8711
1538.503, 223.4814
1539.534, 144.9707
1540.564, 219.1455
1541.595, 66.18262
1542.625, 237.3799
1543.656, 274.1562
1544.686, 147.7012
1545.716, 264.0898
1546.745, 145.4922
1547.775, 65.21875
1548.804, 148.1787
1549.834, 281.0420
1550.863, 86.96484
1551.892, 237.6309
1552.920, 278.6211
1553.949, 383.7109
1554.977, 446.8789
1556.006, 394.4062
1557.034, 230.1221
1558.062, 191.9912
1559.089, 171.7764
1560.117, 149.3848
1561.144, 191.9355
1562.172, 161.8350
1563.199, 180.1396
1564.226, 0.8974610
1565.252, 101.1885
1566.279, 2.853516
1567.305, 31.94141
1568.332, 166.3867
1569.358, 3.441406
1570.384, 0.0000000E+00
##END=



