##NAMES=Fluorapatite
##RRUFFID=R050192
##IDEAL CHEMISTRY=Ca_5_(PO_4_)_3_F
##LOCALITY=Fulford, Eagle County, Colorado, USA
##OWNER=RRUFF
##SOURCE=Dave Bunk Minerals
##DESCRIPTION=Pale green hexagonal prism
##STATUS=The identification of this mineral has been confirmed by X-ray diffraction and chemical analysis
##URL=rruff.info/R050192
##MEASURED CHEMISTRY=Ca_5.00_(P_1.00_O_4_)_3_(F_0.86_Cl_0.13_)
##PIN_ID=L00262
##ORIENTATION=Laser parallel to c* (0 0 1). Fiducial mark perpendicular to laser is parallel to b [0 1 0]
136.5850, 0.0000000E+00
137.8140, 31.22437
139.0430, 40.02881
140.2710, 61.28247
141.5000, 67.94702
142.7280, 75.17554
143.9560, 51.51367
145.1840, 74.43311
146.4120, 80.51709
147.6390, 65.05835
148.8670, 92.04224
150.0940, 94.01758
151.3210, 113.8296
152.5490, 90.39746
153.7750, 70.51465
155.0020, 46.95190
156.2290, 54.44238
157.4550, 93.70801
158.6810, 90.11841
159.9080, 92.44922
161.1340, 132.6729
162.3590, 80.18311
163.5850, 73.96826
164.8110, 51.00415
166.0360, 38.00659
167.2610, 58.00269
168.4860, 43.47314
169.7110, 76.11938
170.9360, 90.24561
172.1610, 12.25562
173.3850, 28.01147
174.6100, 31.92139
175.8340, 0.1437990
177.0580, 4.191406
178.2820, 19.81616
179.5050, 9.052490
180.7290, 5.363525
181.9520, 32.60034
183.1760, 4.083252
184.3990, 13.71313
185.6220, 39.65942
186.8450, 32.77026
188.0670, 25.87183
189.2900, 72.35352
190.5120, 17.41528
191.7340, 75.82324
192.9560, 76.77344
194.1780, 32.91089
195.4000, 67.29590
196.6220, 32.45166
197.8430, 58.60083
199.0640, 109.7253
200.2860, 20.85376
201.5070, 55.94482
202.7270, 36.03638
203.9480, 79.34253
205.1690, 34.44971
206.3890, 68.71899
207.6090, 7.647461
208.8290, 85.78979
210.0490, 124.3730
211.2690, 80.12720
212.4890, 33.07739
213.7080, 29.47803
214.9280, 18.56714
216.1470, 60.04126
217.3660, 0.6103520
218.5850, 32.24365
219.8030, 18.51196
221.0220, 5.281006
222.2400, 45.55444
223.4590, 38.44751
224.6770, 51.40698
225.8950, 62.50903
227.1120, 79.68774
228.3300, 84.99902
229.5480, 96.71411
230.7650, 67.29883
231.9820, 94.63867
233.1990, 45.04956
234.4160, 106.3206
235.6330, 112.5754
236.8490, 147.8013
238.0660, 138.9177
239.2820, 91.77368
240.4980, 105.4685
241.7140, 157.7454
242.9300, 62.82812
244.1460, 90.93262
245.3610, 76.70459
246.5770, 50.86401
247.7920, 60.70923
249.0070, 105.8982
250.2220, 156.0349
251.4370, 122.7732
252.6510, 96.55957
253.8660, 146.5295
255.0800, 200.4812
256.2940, 186.7778
257.5080, 179.8125
258.7220, 162.4702
259.9360, 170.9377
261.1490, 173.4556
262.3630, 192.4048
263.5760, 205.9849
264.7890, 219.7742
266.0020, 198.2371
267.2150, 232.9177
268.4270, 204.5393
269.6400, 148.1162
270.8520, 108.1519
272.0640, 145.9749
273.2760, 125.8274
274.4880, 102.8943
275.7000, 154.5083
276.9120, 172.4045
278.1230, 145.6184
279.3340, 145.5378
280.5450, 105.6174
281.7560, 92.14160
282.9670, 93.05640
284.1780, 58.04712
285.3880, 106.9177
286.5980, 49.73438
287.8090, 90.48853
289.0190, 158.1741
290.2290, 63.78760
291.4380, 101.3264
292.6480, 155.7898
293.8570, 96.17627
295.0670, 102.4788
296.2760, 104.6968
297.4850, 108.8267
298.6930, 125.8782
299.9020, 178.8655
301.1110, 121.7705
302.3190, 98.58789
303.5270, 159.3264
304.7350, 131.9651
305.9430, 163.4614
307.1510, 56.90601
308.3580, 149.2334
309.5660, 111.4934
310.7730, 106.6213
311.9800, 140.6553
313.1870, 104.7341
314.3940, 115.3772
315.6010, 100.7910
316.8070, 101.8667
318.0130, 94.45288
319.2200, 80.29736
320.4260, 76.65527
321.6310, 27.48584
322.8370, 62.17212
324.0430, 51.15576
325.2480, 49.19238
326.4540, 90.07031
327.6590, 45.54956
328.8640, 63.85913
330.0680, 9.584961
331.2730, 0.3332520
332.4780, 64.57446
333.6820, 47.50073
334.8860, 39.41553
336.0900, 66.09424
337.2940, 39.42944
338.4980, 76.80298
339.7010, 15.52539
340.9050, 0.5888670
342.1080, 4.691406
343.3110, 93.00269
344.5140, 32.81274
345.7170, 31.22607
346.9200, 62.90698
348.1220, 26.63330
349.3240, 45.92261
350.5270, 83.69043
351.7290, 96.37842
352.9310, 27.87134
354.1320, 0.3789060
355.3340, 78.42432
356.5350, 9.975586
357.7370, 102.5227
358.9380, 15.07983
360.1390, 21.20166
361.3400, 39.39038
362.5400, 12.27637
363.7410, 24.56812
364.9410, 98.71094
366.1410, 16.84717
367.3410, 105.8220
368.5410, 46.90430
369.7410, 23.99390
370.9400, 16.75220
372.1400, 16.34204
373.3390, 0.5200200
374.5380, 57.57202
375.7370, 6.894531
376.9360, 39.00366
378.1350, 18.55981
379.3330, 77.45874
380.5310, 60.51929
381.7300, 44.93164
382.9280, 43.74854
384.1260, 71.14819
385.3230, 50.20020
386.5210, 10.91211
387.7180, 22.46558
388.9160, 49.10767
390.1130, 118.4160
391.3100, 107.7146
392.5060, 71.10474
393.7030, 13.44849
394.9000, 13.65186
396.0960, 7.909668
397.2920, 33.04028
398.4880, 6.879883
399.6840, 4.287598
400.8800, 52.50122
402.0750, 73.53223
403.2710, 52.31079
404.4660, 44.43555
405.6610, 118.0952
406.8560, 20.02393
408.0510, 132.0063
409.2450, 105.9448
410.4400, 7.681641
411.6340, 94.44482
412.8280, 92.05371
414.0220, 72.86914
415.2160, 38.31543
416.4100, 142.0127
417.6030, 116.6353
418.7970, 152.7378
419.9900, 165.0249
421.1830, 115.2627
422.3760, 155.3711
423.5690, 180.8467
424.7610, 212.7700
425.9540, 246.1318
427.1460, 195.7256
428.3380, 224.8193
429.5300, 237.0508
430.7220, 297.1641
431.9140, 275.2300
433.1050, 397.4736
434.2970, 442.3301
435.4880, 383.2964
436.6790, 511.4072
437.8700, 508.2563
439.0610, 560.0845
440.2510, 564.8755
441.4420, 595.6367
442.6320, 639.4219
443.8220, 658.2710
445.0120, 630.9448
446.2020, 587.4741
447.3910, 630.3994
448.5810, 651.9761
449.7700, 507.7988
450.9600, 536.9707
452.1490, 454.8574
453.3370, 481.2163
454.5260, 394.6665
455.7150, 367.2788
456.9030, 332.7109
458.0910, 271.8594
459.2800, 313.9033
460.4670, 271.9043
461.6550, 200.8306
462.8430, 219.6538
464.0300, 153.4165
465.2180, 129.2979
466.4050, 112.8428
467.5920, 90.06494
468.7790, 68.53223
469.9650, 98.12158
471.1520, 83.49414
472.3380, 117.8979
473.5250, 68.98828
474.7110, 95.29541
475.8970, 65.12305
477.0820, 117.2769
478.2680, 99.48779
479.4540, 106.8164
480.6390, 120.1484
481.8240, 89.44092
483.0090, 76.52197
484.1940, 90.29102
485.3780, 36.08838
486.5630, 95.74707
487.7470, 104.9448
488.9320, 73.26758
490.1160, 34.20508
491.3000, 3.536133
492.4830, 37.58350
493.6670, 46.05469
494.8500, 7.119629
496.0340, 31.97070
497.2170, 28.48047
498.4000, 55.83691
499.5820, 5.730469
500.7650, 1.835449
501.9480, 65.61523
503.1300, 87.08105
504.3120, 75.43506
505.4940, 16.41650
506.6760, 44.61914
507.8580, 15.32227
509.0390, 77.56592
510.2210, 35.73633
511.4020, 37.70312
512.5830, 4.884766
513.7640, 43.40234
514.9450, 57.11328
516.1250, 11.89258
517.3060, 2.466309
518.4860, 13.95264
519.6660, 86.40723
520.8460, 53.99316
522.0260, 95.13672
523.2060, 69.27490
524.3850, 48.75488
525.5650, 118.3521
526.7440, 18.37305
527.9230, 4.080078
529.1020, 61.19287
530.2810, 8.456543
531.4590, 65.70557
532.6380, 32.38135
533.8160, 10.96484
534.9940, 57.65625
536.1720, 95.77246
537.3500, 2.735352
538.5270, 7.225098
539.7050, 6.255371
540.8820, 4.236816
542.0590, 39.77686
543.2360, 73.13721
544.4130, 123.9082
545.5900, 31.58740
546.7660, 133.1870
547.9430, 58.30664
549.1190, 31.32910
550.2950, 37.55420
551.4710, 76.13623
552.6470, 58.40527
553.8220, 85.87988
554.9980, 26.56836
556.1730, 78.68799
557.3480, 35.92188
558.5230, 38.23975
559.6980, 129.6421
560.8730, 110.0859
562.0470, 112.0156
563.2220, 134.0425
564.3960, 40.83789
565.5700, 130.6519
566.7440, 243.2695
567.9170, 177.7295
569.0910, 250.8423
570.2640, 447.8940
571.4380, 214.9053
572.6110, 364.2031
573.7840, 512.1978
574.9570, 601.1641
576.1290, 703.2627
577.3020, 766.0757
578.4740, 784.9805
579.6460, 801.9785
580.8180, 665.7417
581.9900, 722.5117
583.1620, 578.0391
584.3330, 434.7114
585.5040, 422.8979
586.6760, 290.1709
587.8470, 210.7793
589.0180, 360.9141
590.1880, 215.2451
591.3590, 319.2441
592.5290, 172.6304
593.7000, 250.5420
594.8700, 213.6187
596.0400, 198.6836
597.2090, 195.4546
598.3790, 321.5073
599.5490, 318.6494
600.7180, 355.0581
601.8870, 391.5864
603.0560, 411.5059
604.2250, 452.8779
605.3940, 611.4536
606.5620, 507.4658
607.7300, 583.5996
608.8990, 578.5664
610.0670, 417.1025
611.2350, 561.5439
612.4020, 322.9404
613.5700, 417.0210
614.7370, 416.1572
615.9050, 396.9868
617.0720, 283.5234
618.2390, 235.4580
619.4060, 222.3579
620.5720, 182.8442
621.7390, 218.0913
622.9050, 196.4980
624.0710, 214.8682
625.2370, 135.0430
626.4030, 102.5146
627.5690, 140.3032
628.7340, 97.11670
629.9000, 213.5376
631.0650, 87.96777
632.2300, 86.01074
633.3950, 67.41211
634.5600, 164.4844
635.7240, 134.5400
636.8890, 146.6211
638.0530, 47.42871
639.2170, 63.55029
640.3810, 100.8037
641.5450, 75.30664
642.7080, 146.5220
643.8720, 148.5679
645.0350, 232.0234
646.1980, 213.9224
647.3610, 187.0854
648.5240, 178.3320
649.6870, 195.3716
650.8490, 172.8472
652.0120, 85.49609
653.1740, 112.0898
654.3360, 156.6455
655.4980, 44.79736
656.6600, 195.4678
657.8210, 164.3706
658.9830, 194.3618
660.1440, 264.2041
661.3050, 141.1880
662.4660, 252.2788
663.6270, 142.3418
664.7870, 100.2373
665.9480, 192.0679
667.1080, 110.3745
668.2680, 116.2622
669.4280, 99.63574
670.5880, 12.95117
671.7480, 72.70898
672.9070, 70.90625
674.0670, 0.4677730
675.2260, 51.42969
676.3850, 75.54980
677.5440, 76.06348
678.7030, 73.11133
679.8610, 125.4424
681.0200, 79.86035
682.1780, 195.1543
683.3360, 104.2363
684.4940, 91.51562
685.6520, 88.38672
686.8090, 24.91211
687.9670, 90.71875
689.1240, 59.96973
690.2810, 91.87500
691.4380, 35.71387
692.5950, 2.230469
693.7520, 89.27734
694.9080, 114.5439
696.0650, 39.43945
697.2210, 32.63574
698.3770, 50.14941
699.5330, 62.96582
700.6880, 184.6123
701.8440, 97.59766
702.9990, 27.61914
704.1550, 186.2588
705.3100, 12.76562
706.4650, 39.42871
707.6190, 91.04785
708.7740, 112.2744
709.9290, 109.6973
711.0830, 28.63770
712.2370, 88.72266
713.3910, 83.14453
714.5450, 39.41895
715.6980, 95.56934
716.8520, 64.53418
718.0050, 72.78223
719.1580, 38.85938
720.3110, 63.31152
721.4640, 109.2109
722.6170, 61.76367
723.7700, 164.9736
724.9220, 130.5195
726.0740, 37.51074
727.2260, 137.1445
728.3780, 77.05566
729.5300, 143.2021
730.6810, 37.23926
731.8330, 136.8721
732.9840, 84.61816
734.1350, 74.75781
735.2860, 130.7910
736.4370, 50.45703
737.5880, 15.93652
738.7380, 178.5723
739.8880, 136.5527
741.0390, 4.089844
742.1890, 99.33301
743.3380, 58.03125
744.4880, 114.4346
745.6380, 55.39551
746.7870, 298.8301
747.9360, 127.6123
749.0850, 166.4268
750.2340, 149.7305
751.3830, 7.939453
752.5310, 174.0869
753.6800, 21.68164
754.8280, 48.07324
755.9760, 230.3994
757.1240, 142.3916
758.2720, 124.6660
759.4190, 116.1992
760.5670, 18.03711
761.7140, 18.96094
762.8610, 65.39844
764.0080, 6.106445
765.1550, 136.0254
766.3020, 93.50195
767.4480, 35.70020
768.5950, 125.0859
769.7410, 65.71191
770.8870, 109.9092
772.0330, 181.6895
773.1780, 127.3730
774.3240, 55.46191
775.4690, 181.0303
776.6140, 24.72852
777.7590, 20.08691
778.9040, 168.0107
780.0490, 114.1602
781.1940, 54.10156
782.3380, 183.9287
783.4820, 42.35742
784.6260, 18.72559
785.7700, 138.0215
786.9140, 24.68848
788.0580, 48.95020
789.2010, 100.1260
790.3450, 245.4912
791.4880, 45.37500
792.6310, 140.5859
793.7730, 205.9629
794.9160, 68.94238
796.0590, 107.2979
797.2010, 199.9746
798.3430, 357.8184
799.4850, 118.1416
800.6270, 83.07227
801.7690, 85.64941
802.9100, 154.1553
804.0520, 109.7520
805.1930, 230.1016
806.3340, 157.4805
807.4750, 78.46094
808.6160, 55.59766
809.7560, 114.4111
810.8970, 211.1191
812.0370, 173.4170
813.1770, 139.8564
814.3170, 172.2969
815.4570, 165.6484
816.5960, 92.89453
817.7360, 145.2666
818.8750, 192.3545
820.0140, 258.8330
821.1530, 244.2090
822.2920, 230.7207
823.4310, 157.4883
824.5690, 234.8936
825.7070, 87.48145
826.8460, 152.8574
827.9840, 188.3145
829.1220, 14.44629
830.2590, 110.3369
831.3970, 218.4980
832.5340, 101.6709
833.6710, 36.43066
834.8080, 42.38379
835.9450, 106.9883
837.0820, 108.5459
838.2190, 249.5117
839.3550, 62.01953
840.4910, 159.7695
841.6270, 80.45312
842.7630, 135.3105
843.8990, 60.21875
845.0350, 207.4541
846.1700, 146.0361
847.3060, 201.8223
848.4410, 189.2803
849.5760, 90.16016
850.7100, 106.9834
851.8450, 117.6934
852.9800, 18.59668
854.1140, 24.28711
855.2480, 81.46289
856.3820, 211.2822
857.5160, 85.51074
858.6500, 149.2480
859.7830, 212.5303
860.9170, 352.9639
862.0500, 227.9932
863.1830, 246.9082
864.3160, 211.7783
865.4480, 93.04785
866.5810, 386.4766
867.7130, 135.8770
868.8460, 166.7490
869.9780, 34.10059
871.1100, 245.6650
872.2410, 71.97754
873.3730, 164.8994
874.5050, 107.3105
875.6360, 245.0049
876.7670, 92.35254
877.8980, 142.3848
879.0290, 25.06738
880.1590, 64.62891
881.2900, 150.1943
882.4200, 36.40625
883.5500, 155.1797
884.6800, 127.7539
885.8100, 24.53809
886.9400, 25.95410
888.0690, 10.29004
889.1990, 100.1328
890.3280, 126.6729
891.4570, 121.5000
892.5860, 146.6992
893.7140, 52.42578
894.8430, 160.9688
895.9710, 119.8057
897.1000, 23.24219
898.2280, 131.5205
899.3560, 7.161133
900.4830, 61.53223
901.6110, 28.46289
902.7380, 66.75977
903.8660, 180.9248
904.9930, 72.78027
906.1200, 153.8750
907.2460, 19.09375
908.3730, 78.04980
909.5000, 31.47949
910.6260, 55.22266
911.7520, 233.5918
912.8780, 84.24707
914.0040, 312.2383
915.1290, 211.9492
916.2550, 71.48730
917.3800, 78.35938
918.5050, 33.84277
919.6300, 88.16113
920.7550, 79.96680
921.8800, 70.19336
923.0040, 160.7314
924.1290, 135.1104
925.2530, 218.6006
926.3770, 99.59668
927.5010, 52.65137
928.6250, 83.97363
929.7480, 92.22656
930.8720, 46.67578
931.9950, 117.6055
933.1180, 125.6934
934.2410, 106.0879
935.3640, 289.2598
936.4860, 240.3965
937.6090, 192.2871
938.7310, 238.7344
939.8530, 194.9082
940.9750, 410.8203
942.0970, 227.0430
943.2180, 422.8066
944.3400, 432.6758
945.4610, 633.8633
946.5820, 581.9141
947.7030, 857.5391
948.8240, 959.7070
949.9450, 1156.490
951.0650, 1520.436
952.1860, 2101.799
953.3060, 2683.201
954.4260, 3623.113
955.5460, 4783.771
956.6650, 6521.367
957.7850, 8120.570
958.9040, 9843.451
960.0230, 11479.54
961.1420, 12441.76
962.2610, 12385.48
963.3800, 11640.44
964.4990, 10645.95
965.6170, 8770.354
966.7350, 7211.516
967.8530, 5549.457
968.9710, 4421.426
970.0890, 3446.488
971.2070, 2652.738
972.3240, 2141.895
973.4410, 1603.842
974.5580, 1291.553
975.6750, 765.6660
976.7920, 593.9199
977.9090, 785.4512
979.0250, 408.8965
980.1410, 324.2812
981.2580, 249.9883
982.3740, 224.0625
983.4890, 159.5586
984.6050, 143.2773
985.7200, 103.6387
986.8360, 136.0723
987.9510, 169.2070
989.0660, 0.4804690
990.1810, 203.4277
991.2950, 107.1172
992.4100, 246.0898
993.5240, 69.50195
994.6390, 91.22656
995.7530, 126.0879
996.8660, 0.4453130
997.9800, 123.4102
999.0940, 6.431641
1000.207, 26.01562
1001.320, 80.77148
1002.433, 266.9395
1003.546, 86.14453
1004.659, 226.8691
1005.772, 89.09570
1006.884, 83.19141
1007.996, 131.0508
1009.108, 201.0586
1010.220, 217.3418
1011.332, 134.9785
1012.444, 91.19336
1013.555, 210.2754
1014.666, 273.1602
1015.777, 273.1172
1016.888, 117.4316
1017.999, 212.2598
1019.110, 175.1289
1020.220, 467.5918
1021.331, 209.2227
1022.441, 424.6836
1023.551, 472.4805
1024.661, 389.5801
1025.770, 502.1738
1026.880, 482.4629
1027.989, 688.7441
1029.098, 354.0625
1030.207, 484.3574
1031.316, 542.3516
1032.425, 343.6348
1033.533, 328.1250
1034.642, 486.4844
1035.750, 422.2285
1036.858, 279.8281
1037.966, 126.3242
1039.073, 41.92188
1040.181, 36.72266
1041.288, 1.466797
1042.396, 118.3633
1043.503, 69.47070
1044.610, 135.2363
1045.716, 223.5898
1046.823, 255.4434
1047.929, 207.7500
1049.036, 410.5195
1050.142, 244.5078
1051.248, 198.8555
1052.353, 319.9883
1053.459, 341.6055
1054.564, 381.7812
1055.670, 407.6230
1056.775, 471.3359
1057.880, 450.6113
1058.985, 564.1094
1060.089, 617.5137
1061.194, 577.5996
1062.298, 270.1484
1063.402, 370.7090
1064.506, 326.5137
1065.610, 199.9980
1066.713, 258.4746
1067.817, 78.05859
1068.920, 239.1035
1070.023, 275.7480
1071.126, 432.0254
1072.229, 428.4629
1073.332, 347.5918
1074.435, 417.0508
1075.537, 424.8418
1076.639, 115.6582
1077.741, 316.2461
1078.843, 183.2363
1079.945, 225.3008
1081.046, 279.4453
1082.148, 141.5156
1083.249, 312.8379
1084.350, 117.0820
1085.451, 137.2461
1086.551, 74.71094
1087.652, 8.314453
1088.752, 14.08398
1089.853, 178.9648
1090.953, 158.6250
1092.053, 163.4414
1093.152, 204.8359
1094.252, 136.7734
1095.351, 6.484375
1096.451, 207.6426
1097.550, 8.199219
1098.649, 233.5234
1099.748, 146.8789
1100.846, 80.66016
1101.945, 254.3555
1103.043, 251.9648
1104.141, 251.6914
1105.239, 180.9023
1106.337, 265.2305
1107.434, 60.46875
1108.532, 111.7676
1109.629, 123.1992
1110.726, 56.02148
1111.823, 135.6211
1112.920, 44.72266
1114.017, 154.3789
1115.113, 206.8418
1116.210, 123.9062
1117.306, 24.77148
1118.402, 119.3652
1119.498, 190.0938
1120.593, 74.82617
1121.689, 363.8750
1122.784, 78.50586
1123.879, 88.89648
1124.974, 235.5820
1126.069, 196.2598
1127.164, 280.6445
1128.259, 223.5254
1129.353, 121.4902
1130.447, 51.10547
1131.541, 246.1035
1132.635, 198.8867
1133.729, 87.93750
1134.822, 296.7363
1135.916, 234.6367
1137.009, 318.0762
1138.102, 148.8555
1139.195, 73.44336
1140.288, 153.1328
1141.380, 199.0938
1142.473, 175.0293
1143.565, 88.10547
1144.657, 177.5098
1145.749, 66.96875
1146.841, 299.6035
1147.932, 86.08984
1149.024, 11.86523
1150.115, 219.1348
1151.206, 153.8691
1152.297, 104.6309
1153.388, 109.1934
1154.479, 112.1523
1155.569, 276.3047
1156.659, 127.9863
1157.750, 200.7344
1158.839, 96.09766
1159.929, 157.2383
1161.019, 105.9277
1162.108, 85.18750
1163.198, 92.28516
1164.287, 25.21875
1165.376, 38.75977
1166.465, 243.6875
1167.553, 351.1973
1168.642, 210.0762
1169.730, 295.7266
1170.818, 237.7168
1171.906, 201.4551
1172.994, 156.4688
1174.082, 169.3125
1175.170, 137.7734
1176.257, 162.3145
1177.344, 119.4375
1178.431, 218.5371
1179.518, 227.0625
1180.605, 253.4180
1181.691, 154.6328
1182.778, 24.40039
1183.864, 303.6113
1184.950, 144.5820
1186.036, 196.2168
1187.122, 288.7559
1188.207, 128.9062
1189.292, 504.8770
1190.378, 245.7617
1191.463, 70.64453
1192.548, 140.2090
1193.632, 355.7402
1194.717, 126.6387
1195.801, 378.5391
1196.886, 336.8965
1197.970, 11.10938
1199.054, 321.3379
1200.137, 375.7109
1201.221, 26.46875
1202.305, 96.59961
1203.388, 389.4727
1204.471, 208.4629
1205.554, 26.47070
1206.637, 354.5586
1207.719, 129.7266
1208.802, 252.0781
1209.884, 212.4961
1210.966, 170.9258
1212.048, 166.5156
1213.130, 331.2090
1214.212, 334.6855
1215.293, 318.6602
1216.374, 223.5469
1217.456, 357.6816
1218.536, 190.7344
1219.617, 290.1523
1220.698, 311.1719
1221.778, 251.7754
1222.859, 99.87891
1223.939, 399.3887
1225.019, 355.3926
1226.099, 367.5371
1227.178, 187.9180
1228.258, 47.46484
1229.337, 183.3320
1230.417, 343.6953
1231.496, 407.4141
1232.574, 414.2891
1233.653, 435.3691
1234.732, 464.8105
1235.810, 387.4902
1236.888, 408.5293
1237.966, 250.9121
1239.044, 406.5156
1240.122, 211.5684
1241.199, 509.4961
1242.277, 262.8008
1243.354, 317.0430
1244.431, 464.5000
1245.508, 540.2539
1246.585, 361.9766
1247.661, 419.8750
1248.738, 221.9180
1249.814, 232.8125
1250.890, 302.5273
1251.966, 384.2305
1253.042, 25.86719
1254.117, 224.8711
1255.193, 305.1523
1256.268, 5.746094
1257.343, 39.19141
1258.418, 5.664063
1259.493, 382.0078
1260.567, 22.35938
1261.642, 196.9141
1262.716, 291.1914
1263.790, 286.2500
1264.864, 412.2773
1265.938, 536.3047
1267.011, 203.8203
1268.085, 406.6602
1269.158, 41.80859
1270.231, 318.4883
1271.304, 217.4570
1272.377, 75.23047
1273.450, 144.4453
1274.522, 31.64453
1275.594, 213.1133
1276.666, 205.1445
1277.738, 106.9219
1278.810, 222.0898
1279.882, 201.8867
1280.953, 254.1953
1282.025, 166.0703
1283.096, 118.1992
1284.167, 101.0117
1285.238, 58.76953
1286.308, 41.35938
1287.379, 73.38672
1288.449, 44.36328
1289.519, 0.3125000
1290.589, 0.0000000E+00
##END=



