##NAMES=Fluorapatite
##RRUFFID=R060421
##IDEAL CHEMISTRY=Ca_5_(PO_4_)_3_F
##LOCALITY=Levant mine, St. Just, Cornwall, England
##OWNER=RRUFF
##SOURCE=Michael Scott
##DESCRIPTION=Brown hexagonal prisms
##STATUS=The identification of this mineral has been confirmed by X-ray diffraction and chemical analysis
##URL=rruff.info/R060421
##MEASURED CHEMISTRY=(Ca_4.93_[box]_0.07_)_Σ=5_((PO_4_)_2.86_(CO_3_)_0.14_)_Σ=3_F_1.00_ ; C not measured but estimated by difference and charge balance
##PIN_ID=M00175
##ORIENTATION=Laser parallel to c* (0 0 1). Fiducial mark perpendicular to laser is parallel to a [1 0 0]
124.2880, 0.0000000E+00
125.5190, 15.92114
126.7490, 12.76489
127.9790, 91.47021
129.2090, 96.20239
130.4390, 64.60449
131.6680, 156.7666
132.8980, 184.4006
134.1270, 233.3257
135.3560, 359.0244
136.5850, 383.1707
137.8140, 417.6350
139.0430, 428.5752
140.2710, 429.3225
141.5000, 325.5464
142.7280, 258.9351
143.9560, 252.9338
145.1840, 162.6362
146.4120, 196.0803
147.6390, 64.20654
148.8670, 78.11475
150.0940, 133.2996
151.3210, 88.20947
152.5490, 62.95142
153.7750, 142.9282
155.0020, 119.5938
156.2290, 76.38623
157.4550, 145.4539
158.6810, 137.1458
159.9080, 131.3374
161.1340, 160.9102
162.3590, 146.1309
163.5850, 198.1565
164.8110, 163.6448
166.0360, 148.5989
167.2610, 169.1440
168.4860, 110.6763
169.7110, 119.7808
170.9360, 113.7510
172.1610, 85.07031
173.3850, 72.28833
174.6100, 26.86938
175.8340, 32.85962
177.0580, 94.77832
178.2820, 45.13623
179.5050, 48.06006
180.7290, 6.781738
181.9520, 11.22729
183.1760, 78.02368
184.3990, 88.91333
185.6220, 24.60107
186.8450, 12.54956
188.0670, 49.80859
189.2900, 47.79272
190.5120, 41.38892
191.7340, 8.303467
192.9560, 74.77539
194.1780, 30.19385
195.4000, 29.44263
196.6220, 10.85571
197.8430, 42.08545
199.0640, 12.29175
200.2860, 60.55249
201.5070, 59.62451
202.7270, 27.72949
203.9480, 36.79761
205.1690, 23.79224
206.3890, 21.67407
207.6090, 11.74756
208.8290, 35.61914
210.0490, 30.61792
211.2690, 56.87793
212.4890, 89.20850
213.7080, 117.7144
214.9280, 101.2402
216.1470, 60.36572
217.3660, 54.04541
218.5850, 58.13232
219.8030, 25.89160
221.0220, 68.04004
222.2400, 160.2651
223.4590, 39.90088
224.6770, 53.79297
225.8950, 0.7441410
227.1120, 77.57520
228.3300, 80.99121
229.5480, 57.77832
230.7650, 141.2861
231.9820, 69.07178
233.1990, 113.7954
234.4160, 240.8193
235.6330, 224.7300
236.8490, 111.4556
238.0660, 47.42480
239.2820, 126.7593
240.4980, 106.7358
241.7140, 94.39160
242.9300, 101.7417
244.1460, 100.7827
245.3610, 54.52490
246.5770, 75.69336
247.7920, 25.15527
249.0070, 90.09668
250.2220, 109.8667
251.4370, 116.8345
252.6510, 53.40039
253.8660, 36.09814
255.0800, 114.5674
256.2940, 58.70752
257.5080, 132.5425
258.7220, 283.3926
259.9360, 205.7227
261.1490, 270.0703
262.3630, 211.6294
263.5760, 329.1123
264.7890, 355.6816
266.0020, 277.5034
267.2150, 355.8608
268.4270, 375.2192
269.6400, 298.9932
270.8520, 268.2808
272.0640, 201.0444
273.2760, 260.5938
274.4880, 312.3643
275.7000, 193.0630
276.9120, 158.6958
278.1230, 137.3477
279.3340, 175.7368
280.5450, 118.0874
281.7560, 90.09424
282.9670, 208.9893
284.1780, 76.76270
285.3880, 116.5493
286.5980, 70.96875
287.8090, 147.0957
289.0190, 43.05762
290.2290, 58.02344
291.4380, 61.78906
292.6480, 109.4775
293.8570, 90.08936
295.0670, 54.62500
296.2760, 94.08252
297.4850, 146.4629
298.6930, 75.75244
299.9020, 146.9644
301.1110, 156.0996
302.3190, 179.0781
303.5270, 285.9268
304.7350, 227.7026
305.9430, 157.3740
307.1510, 217.9717
308.3580, 180.5000
309.5660, 325.9575
310.7730, 264.3438
311.9800, 287.6572
313.1870, 222.8975
314.3940, 195.0693
315.6010, 324.9438
316.8070, 239.4956
318.0130, 216.2617
319.2200, 117.9170
320.4260, 177.6855
321.6310, 50.24951
322.8370, 97.89551
324.0430, 143.3848
325.2480, 57.87598
326.4540, 19.93896
327.6590, 9.482422
328.8640, 18.54590
330.0680, 31.64111
331.2730, 47.98096
332.4780, 65.38916
333.6820, 91.72510
334.8860, 87.18848
336.0900, 95.39990
337.2940, 75.87061
338.4980, 51.38721
339.7010, 14.21631
340.9050, 7.948730
342.1080, 10.87744
343.3110, 3.166504
344.5140, 5.392578
345.7170, 7.511230
346.9200, 19.87598
348.1220, 8.889648
349.3240, 7.019531
350.5270, 72.83789
351.7290, 89.36768
352.9310, 39.67432
354.1320, 14.58008
355.3340, 3.625488
356.5350, 66.58447
357.7370, 10.67188
358.9380, 44.67480
360.1390, 45.71973
361.3400, 48.61279
362.5400, 40.05225
363.7410, 53.38232
364.9410, 125.5908
366.1410, 91.19824
367.3410, 20.00830
368.5410, 4.429199
369.7410, 27.65332
370.9400, 74.03320
372.1400, 38.14844
373.3390, 84.15820
374.5380, 64.39307
375.7370, 40.32080
376.9360, 70.58936
378.1350, 48.42822
379.3330, 121.4004
380.5310, 113.9800
381.7300, 32.37793
382.9280, 88.79834
384.1260, 58.44922
385.3230, 104.5659
386.5210, 99.64209
387.7180, 135.4863
388.9160, 127.5552
390.1130, 155.9077
391.3100, 83.27148
392.5060, 175.0947
393.7030, 157.8008
394.9000, 88.40137
396.0960, 32.87598
397.2920, 107.7729
398.4880, 124.7153
399.6840, 26.74170
400.8800, 43.93213
402.0750, 125.2622
403.2710, 63.16162
404.4660, 39.99902
405.6610, 90.11377
406.8560, 78.55713
408.0510, 117.6689
409.2450, 57.96924
410.4400, 187.5781
411.6340, 148.4399
412.8280, 200.6211
414.0220, 214.1431
415.2160, 129.2549
416.4100, 192.6699
417.6030, 146.0732
418.7970, 161.7578
419.9900, 181.4604
421.1830, 170.5894
422.3760, 224.3887
423.5690, 223.1846
424.7610, 294.4639
425.9540, 308.8398
427.1460, 325.0830
428.3380, 308.1313
429.5300, 380.4526
430.7220, 433.6489
431.9140, 456.1025
433.1050, 437.0952
434.2970, 607.0371
435.4880, 497.8813
436.6790, 603.8125
437.8700, 569.5488
439.0610, 744.0234
440.2510, 826.5498
441.4420, 835.1831
442.6320, 907.4102
443.8220, 788.8223
445.0120, 835.4800
446.2020, 810.4819
447.3910, 826.9941
448.5810, 806.4805
449.7700, 807.3970
450.9600, 676.1431
452.1490, 632.3438
453.3370, 562.9014
454.5260, 494.3760
455.7150, 510.5620
456.9030, 530.5791
458.0910, 299.2261
459.2800, 359.9312
460.4670, 291.1826
461.6550, 301.1934
462.8430, 244.6733
464.0300, 278.2842
465.2180, 240.2432
466.4050, 260.2803
467.5920, 242.3906
468.7790, 153.0229
469.9650, 180.8052
471.1520, 26.91943
472.3380, 104.5073
473.5250, 152.5020
474.7110, 155.4795
475.8970, 88.62256
477.0820, 61.72266
478.2680, 16.95410
479.4540, 93.38867
480.6390, 53.53906
481.8240, 12.18750
483.0090, 198.3438
484.1940, 23.83984
485.3780, 109.8604
486.5630, 93.82129
487.7470, 38.13672
488.9320, 87.00977
490.1160, 39.43848
491.3000, 131.1816
492.4830, 9.727539
493.6670, 30.84766
494.8500, 41.07910
496.0340, 92.54297
497.2170, 90.92578
498.4000, 39.48535
499.5820, 25.31250
500.7650, 8.780273
501.9480, 42.27832
503.1300, 8.601563
504.3120, 12.98633
505.4940, 25.98047
506.6760, 60.20996
507.8580, 23.02441
509.0390, 4.043945
510.2210, 42.63574
511.4020, 14.69824
512.5830, 61.41699
513.7640, 17.07520
514.9450, 147.5547
516.1250, 95.03418
517.3060, 24.03223
518.4860, 64.33887
519.6660, 5.426758
520.8460, 4.261719
522.0260, 21.49316
523.2060, 12.32812
524.3850, 90.24902
525.5650, 89.67676
526.7440, 3.816406
527.9230, 107.6006
529.1020, 8.382813
530.2810, 90.29590
531.4590, 20.09180
532.6380, 3.759766
533.8160, 35.12012
534.9940, 69.08496
536.1720, 82.85547
537.3500, 94.16016
538.5270, 142.8340
539.7050, 89.02539
540.8820, 122.0684
542.0590, 37.30273
543.2360, 44.41992
544.4130, 135.8848
545.5900, 7.397461
546.7660, 53.97266
547.9430, 2.699219
549.1190, 141.1250
550.2950, 98.35547
551.4710, 105.3848
552.6470, 27.31445
553.8220, 11.04102
554.9980, 38.04004
556.1730, 77.89258
557.3480, 24.22949
558.5230, 30.67969
559.6980, 100.4893
560.8730, 83.14844
562.0470, 27.16602
563.2220, 162.1172
564.3960, 172.4902
565.5700, 18.83008
566.7440, 130.2988
567.9170, 252.4297
569.0910, 138.8779
570.2640, 323.9209
571.4380, 280.3877
572.6110, 267.5439
573.7840, 544.0020
574.9570, 634.2148
576.1290, 958.2246
577.3020, 1125.152
578.4740, 1245.998
579.6460, 1294.758
580.8180, 1224.436
581.9900, 1042.133
583.1620, 1060.323
584.3330, 659.7432
585.5040, 528.2412
586.6760, 528.8779
587.8470, 544.0469
589.0180, 436.3584
590.1880, 475.3691
591.3590, 310.2959
592.5290, 376.1357
593.7000, 343.8877
594.8700, 338.8232
596.0400, 382.4873
597.2090, 353.9814
598.3790, 388.0156
599.5490, 420.5684
600.7180, 470.5195
601.8870, 588.0898
603.0560, 606.4160
604.2250, 624.5850
605.3940, 670.6719
606.5620, 675.5264
607.7300, 494.9287
608.8990, 623.6426
610.0670, 372.9023
611.2350, 420.8584
612.4020, 378.6787
613.5700, 540.6738
614.7370, 496.7051
615.9050, 421.7451
617.0720, 434.5156
618.2390, 351.8496
619.4060, 317.1768
620.5720, 313.6143
621.7390, 489.6572
622.9050, 307.1455
624.0710, 187.2627
625.2370, 396.0342
626.4030, 419.2051
627.5690, 179.5547
628.7340, 273.1143
629.9000, 222.0430
631.0650, 238.5352
632.2300, 258.1123
633.3950, 216.1865
634.5600, 175.3809
635.7240, 274.5830
636.8890, 214.7510
638.0530, 209.6484
639.2170, 280.6592
640.3810, 202.1631
641.5450, 322.6074
642.7080, 415.4160
643.8720, 298.3027
645.0350, 364.4219
646.1980, 306.5576
647.3610, 200.3535
648.5240, 326.0225
649.6870, 294.5547
650.8490, 291.5381
652.0120, 328.3594
653.1740, 303.8594
654.3360, 251.3984
655.4980, 435.6367
656.6600, 290.8457
657.8210, 141.1875
658.9830, 217.9727
660.1440, 337.6621
661.3050, 285.1592
662.4660, 231.9385
663.6270, 304.3896
664.7870, 244.6748
665.9480, 248.7217
667.1080, 167.2871
668.2680, 252.7676
669.4280, 275.9551
670.5880, 269.8320
671.7480, 301.0195
672.9070, 273.5615
674.0670, 193.2832
675.2260, 226.5508
676.3850, 179.8535
677.5440, 240.3486
678.7030, 204.8340
679.8610, 230.0420
681.0200, 253.4570
682.1780, 287.8525
683.3360, 288.1973
684.4940, 367.6631
685.6520, 375.1914
686.8090, 346.7021
687.9670, 439.2969
689.1240, 277.0176
690.2810, 268.8369
691.4380, 241.9580
692.5950, 297.6699
693.7520, 367.2686
694.9080, 407.4727
696.0650, 448.6201
697.2210, 275.6758
698.3770, 417.5742
699.5330, 361.6309
700.6880, 350.3115
701.8440, 399.5312
702.9990, 329.8457
704.1550, 312.0859
705.3100, 326.2598
706.4650, 396.6689
707.6190, 312.0273
708.7740, 367.0938
709.9290, 314.4043
711.0830, 495.5391
712.2370, 343.3086
713.3910, 361.4434
714.5450, 521.6387
715.6980, 433.5781
716.8520, 496.7305
718.0050, 505.0000
719.1580, 442.9277
720.3110, 394.1289
721.4640, 255.5195
722.6170, 443.6016
723.7700, 380.5391
724.9220, 327.8867
726.0740, 494.2695
727.2260, 366.8789
728.3780, 676.5352
729.5300, 530.7012
730.6810, 428.2637
731.8330, 550.5410
732.9840, 361.5547
734.1350, 405.4805
735.2860, 465.6719
736.4370, 278.3086
737.5880, 448.9902
738.7380, 327.6133
739.8880, 462.4180
741.0390, 482.7617
742.1890, 398.7891
743.3380, 479.7754
744.4880, 549.5430
745.6380, 311.3359
746.7870, 632.0488
747.9360, 612.2715
749.0850, 291.0352
750.2340, 336.6016
751.3830, 429.5430
752.5310, 577.2773
753.6800, 448.5996
754.8280, 431.9512
755.9760, 473.1230
757.1240, 509.9258
758.2720, 574.1777
759.4190, 512.9766
760.5670, 492.8164
761.7140, 377.3848
762.8610, 450.3457
764.0080, 498.8750
765.1550, 422.0469
766.3020, 543.4785
767.4480, 490.4512
768.5950, 499.9043
769.7410, 365.1660
770.8870, 645.5195
772.0330, 563.8887
773.1780, 620.3535
774.3240, 366.4043
775.4690, 416.1094
776.6140, 795.2461
777.7590, 420.2109
778.9040, 415.2480
780.0490, 519.7363
781.1940, 286.8594
782.3380, 432.5410
783.4820, 478.5664
784.6260, 527.6992
785.7700, 466.4121
786.9140, 458.0117
788.0580, 409.5391
789.2010, 435.5215
790.3450, 560.5098
791.4880, 434.8535
792.6310, 500.7422
793.7730, 396.4805
794.9160, 458.5566
796.0590, 423.9453
797.2010, 318.9180
798.3430, 545.0684
799.4850, 540.6660
800.6270, 373.3281
801.7690, 549.0625
802.9100, 632.4863
804.0520, 291.1973
805.1930, 503.3691
806.3340, 616.3672
807.4750, 317.3652
808.6160, 336.2285
809.7560, 439.9453
810.8970, 440.6211
812.0370, 383.8594
813.1770, 504.1309
814.3170, 351.1016
815.4570, 564.2246
816.5960, 556.0938
817.7360, 375.9688
818.8750, 440.8340
820.0140, 476.7402
821.1530, 462.5488
822.2920, 419.5840
823.4310, 313.5488
824.5690, 410.2852
825.7070, 415.3066
826.8460, 302.6133
827.9840, 351.8223
829.1220, 344.8594
830.2590, 260.0312
831.3970, 460.3887
832.5340, 287.8125
833.6710, 431.1816
834.8080, 425.8398
835.9450, 275.0000
837.0820, 241.8145
838.2190, 322.5020
839.3550, 136.2891
840.4910, 247.6602
841.6270, 260.8418
842.7630, 348.9727
843.8990, 457.2910
845.0350, 392.1484
846.1700, 499.5059
847.3060, 477.3086
848.4410, 577.0020
849.5760, 408.6641
850.7100, 373.1895
851.8450, 233.2441
852.9800, 201.0840
854.1140, 328.3184
855.2480, 220.4355
856.3820, 307.2344
857.5160, 482.0840
858.6500, 317.1602
859.7830, 367.3105
860.9170, 302.3984
862.0500, 291.9062
863.1830, 271.4180
864.3160, 103.1953
865.4480, 321.3086
866.5810, 327.2773
867.7130, 396.2090
868.8460, 285.0391
869.9780, 420.4453
871.1100, 267.9160
872.2410, 319.7734
873.3730, 334.3945
874.5050, 197.2539
875.6360, 272.2266
876.7670, 231.5488
877.8980, 244.2949
879.0290, 137.2402
880.1590, 262.1719
881.2900, 331.6523
882.4200, 198.4141
883.5500, 379.9531
884.6800, 371.8516
885.8100, 73.52930
886.9400, 159.6465
888.0690, 182.9844
889.1990, 82.66992
890.3280, 141.7246
891.4570, 315.5371
892.5860, 308.3516
893.7140, 202.0352
894.8430, 169.5703
895.9710, 25.95508
897.1000, 217.1465
898.2280, 275.7676
899.3560, 385.5605
900.4830, 7.353516
901.6110, 132.6719
902.7380, 122.1152
903.8660, 17.38086
904.9930, 175.4688
906.1200, 369.8379
907.2460, 116.6719
908.3730, 233.3496
909.5000, 70.73633
910.6260, 150.4961
911.7520, 97.30078
912.8780, 346.3691
914.0040, 298.9004
915.1290, 292.2852
916.2550, 160.9805
917.3800, 84.54883
918.5050, 144.5508
919.6300, 40.58984
920.7550, 202.6348
921.8800, 7.289063
923.0040, 279.6934
924.1290, 142.7734
925.2530, 22.18945
926.3770, 444.1113
927.5010, 68.80664
928.6250, 79.60156
929.7480, 393.7871
930.8720, 53.12891
931.9950, 67.14844
933.1180, 99.56055
934.2410, 27.76562
935.3640, 46.23828
936.4860, 40.09766
937.6090, 119.4297
938.7310, 181.0781
939.8530, 236.3516
940.9750, 301.4062
942.0970, 288.7266
943.2180, 284.8047
944.3400, 194.8613
945.4610, 326.2422
946.5820, 529.5293
947.7030, 353.4824
948.8240, 724.8457
949.9450, 495.4727
951.0650, 927.8984
952.1860, 1025.195
953.3060, 1234.648
954.4260, 1712.279
955.5460, 2232.967
956.6650, 2935.506
957.7850, 4298.773
958.9040, 5766.504
960.0230, 7782.553
961.1420, 10062.53
962.2610, 12401.95
963.3800, 13865.48
964.4990, 13904.91
965.6170, 11722.85
966.7350, 9111.582
967.8530, 6655.506
968.9710, 4691.943
970.0890, 3345.273
971.2070, 2227.893
972.3240, 1582.172
973.4410, 946.8242
974.5580, 669.9531
975.6750, 587.0410
976.7920, 311.1621
977.9090, 401.6074
979.0250, 222.4297
980.1410, 129.9023
981.2580, 311.7500
982.3740, 12.42773
983.4890, 114.2422
984.6050, 193.4395
985.7200, 65.58008
986.8360, 16.46289
987.9510, 68.88281
989.0660, 34.46484
990.1810, 69.98633
991.2950, 57.07227
992.4100, 152.1875
993.5240, 262.3555
994.6390, 202.7910
995.7530, 6.496094
996.8660, 164.5859
997.9800, 1.888672
999.0940, 167.0332
1000.207, 288.5039
1001.320, 83.70703
1002.433, 158.6699
1003.546, 217.8848
1004.659, 117.3594
1005.772, 224.3984
1006.884, 146.9336
1007.996, 107.5566
1009.108, 159.1641
1010.220, 10.92969
1011.332, 66.63477
1012.444, 35.62500
1013.555, 115.0000
1014.666, 41.67188
1015.777, 73.82031
1016.888, 23.60547
1017.999, 144.3828
1019.110, 164.9375
1020.220, 48.96484
1021.331, 176.1914
1022.441, 71.11719
1023.551, 95.83594
1024.661, 103.4180
1025.770, 208.1133
1026.880, 166.7031
1027.989, 251.5938
1029.098, 360.7969
1030.207, 641.4805
1031.316, 592.6602
1032.425, 593.8125
1033.533, 826.1719
1034.642, 699.8672
1035.750, 541.1758
1036.858, 507.2227
1037.966, 241.4531
1039.073, 292.8359
1040.181, 276.0820
1041.288, 34.02734
1042.396, 157.4023
1043.503, 211.8516
1044.610, 26.53906
1045.716, 114.7578
1046.823, 247.7852
1047.929, 26.31641
1049.036, 161.8008
1050.142, 229.9336
1051.248, 317.9062
1052.353, 293.8320
1053.459, 302.0938
1054.564, 213.3359
1055.670, 293.1172
1056.775, 310.7344
1057.880, 441.7812
1058.985, 348.8867
1060.089, 458.4648
1061.194, 479.3828
1062.298, 437.1953
1063.402, 473.3477
1064.506, 446.8750
1065.610, 166.0430
1066.713, 277.4375
1067.817, 208.0742
1068.920, 267.3398
1070.023, 192.7383
1071.126, 386.1094
1072.229, 666.1250
1073.332, 344.2344
1074.435, 543.8477
1075.537, 211.4688
1076.639, 459.1094
1077.741, 260.9336
1078.843, 592.6016
1079.945, 359.2891
1081.046, 30.99219
1082.148, 564.7148
1083.249, 194.4570
1084.350, 280.2148
1085.451, 214.9961
1086.551, 134.7969
1087.652, 210.6250
1088.752, 112.4805
1089.853, 356.3555
1090.953, 223.2617
1092.053, 79.19141
1093.152, 234.1602
1094.252, 379.1562
1095.351, 139.1914
1096.451, 407.2500
1097.550, 495.3516
1098.649, 309.4883
1099.748, 632.6641
1100.846, 46.87500
1101.945, 366.1250
1103.043, 337.4102
1104.141, 331.7461
1105.239, 470.1250
1106.337, 719.5430
1107.434, 252.0117
1108.532, 591.5352
1109.629, 458.0977
1110.726, 315.7188
1111.823, 296.3789
1112.920, 356.0625
1114.017, 635.8242
1115.113, 415.4180
1116.210, 654.1758
1117.306, 247.0859
1118.402, 643.6445
1119.498, 560.9258
1120.593, 514.6172
1121.689, 488.9414
1122.784, 790.5234
1123.879, 846.8867
1124.974, 771.3945
1126.069, 800.4648
1127.164, 476.3789
1128.259, 680.6016
1129.353, 525.1523
1130.447, 414.1602
1131.541, 774.0000
1132.635, 752.9375
1133.729, 752.8672
1134.822, 787.8555
1135.916, 560.9531
1137.009, 706.1328
1138.102, 647.9648
1139.195, 696.3711
1140.288, 891.1289
1141.380, 812.2969
1142.473, 931.0898
1143.565, 737.2383
1144.657, 922.5820
1145.749, 1127.043
1146.841, 874.9180
1147.932, 990.9297
1149.024, 543.6680
1150.115, 995.0234
1151.206, 1107.918
1152.297, 750.5000
1153.388, 863.1992
1154.479, 802.6133
1155.569, 1030.574
1156.659, 1117.656
1157.750, 897.8438
1158.839, 1165.148
1159.929, 813.5703
1161.019, 902.1172
1162.108, 900.8008
1163.198, 1040.605
1164.287, 1137.531
1165.376, 1242.582
1166.465, 1046.781
1167.553, 1268.109
1168.642, 1095.578
1169.730, 987.1953
1170.818, 1011.941
1171.906, 1090.809
1172.994, 1053.805
1174.082, 1110.773
1175.170, 1161.367
1176.257, 1192.773
1177.344, 1194.324
1178.431, 1249.008
1179.518, 1288.816
1180.605, 1396.750
1181.691, 1360.824
1182.778, 1197.043
1183.864, 1387.402
1184.950, 1227.922
1186.036, 1072.574
1187.122, 1356.391
1188.207, 1308.340
1189.292, 1215.430
1190.378, 1180.695
1191.463, 1168.832
1192.548, 1317.641
1193.632, 1263.348
1194.717, 1182.180
1195.801, 1403.176
1196.886, 1439.328
1197.970, 1501.633
1199.054, 1266.102
1200.137, 1300.758
1201.221, 1316.574
1202.305, 1610.539
1203.388, 1398.652
1204.471, 1611.902
1205.554, 1461.289
1206.637, 1201.820
1207.719, 1633.484
1208.802, 1404.297
1209.884, 1403.250
1210.966, 1112.340
1212.048, 1117.574
1213.130, 1331.953
1214.212, 1466.469
1215.293, 1640.133
1216.374, 1175.945
1217.456, 1602.898
1218.536, 1235.992
1219.617, 1292.234
1220.698, 1349.625
1221.778, 1320.160
1222.859, 1302.852
1223.939, 1406.688
1225.019, 1270.672
1226.099, 1588.809
1227.178, 1282.090
1228.258, 1432.523
1229.337, 1179.105
1230.417, 1252.844
1231.496, 1033.730
1232.574, 1283.770
1233.653, 1452.961
1234.732, 1344.305
1235.810, 1234.801
1236.888, 1115.461
1237.966, 1163.270
1239.044, 1237.234
1240.122, 1582.355
1241.199, 1088.633
1242.277, 1531.066
1243.354, 1358.660
1244.431, 1269.418
1245.508, 1311.344
1246.585, 1135.426
1247.661, 1279.672
1248.738, 1179.109
1249.814, 1352.719
1250.890, 1239.523
1251.966, 970.4922
1253.042, 1101.629
1254.117, 686.9297
1255.193, 724.4414
1256.268, 736.1992
1257.343, 629.1758
1258.418, 676.7305
1259.493, 897.7188
1260.567, 719.2695
1261.642, 869.0352
1262.716, 996.0625
1263.790, 1036.246
1264.864, 1089.223
1265.938, 1188.211
1267.011, 996.9414
1268.085, 946.8945
1269.158, 682.8984
1270.231, 617.2891
1271.304, 459.8867
1272.377, 757.6641
1273.450, 496.6094
1274.522, 593.7344
1275.594, 378.0664
1276.666, 296.5586
1277.738, 353.2422
1278.810, 698.0977
1279.882, 495.1211
1280.953, 223.3906
1282.025, 601.7930
1283.096, 503.3633
1284.167, 432.9023
1285.238, 668.8320
1286.308, 646.9258
1287.379, 506.5117
1288.449, 761.9453
1289.519, 536.5430
1290.589, 387.3125
1291.659, 592.2461
1292.729, 391.3516
1293.798, 408.3516
1294.868, 825.7969
1295.937, 974.4141
1297.006, 661.3711
1298.075, 1139.355
1299.143, 710.5078
1300.212, 555.8477
1301.280, 639.3594
1302.348, 767.0391
1303.416, 720.9531
1304.484, 759.0078
1305.552, 770.2266
1306.620, 506.3984
1307.687, 572.9609
1308.754, 541.6875
1309.821, 586.5859
1310.888, 859.6562
1311.955, 470.8906
1313.021, 626.4922
1314.088, 305.8672
1315.154, 540.6094
1316.220, 567.5234
1317.286, 465.6094
1318.352, 444.8633
1319.417, 434.2891
1320.483, 442.8828
1321.548, 695.6406
1322.613, 298.5547
1323.678, 340.6094
1324.743, 195.8164
1325.807, 681.1719
1326.872, 476.6680
1327.936, 608.3203
1329.000, 728.1133
1330.064, 520.0625
1331.128, 299.1523
1332.191, 422.3945
1333.255, 330.7891
1334.318, 342.3242
1335.381, 220.0156
1336.444, 238.8516
1337.507, 358.8398
1338.569, 134.9805
1339.632, 482.2656
1340.694, 471.7031
1341.756, 109.2930
1342.818, 489.0312
1343.880, 246.9258
1344.941, 318.9648
1346.003, 187.1602
1347.064, 236.5000
1348.125, 572.0000
1349.186, 422.6484
1350.247, 502.4766
1351.308, 137.4258
1352.368, 515.5312
1353.428, 152.7891
1354.489, 51.19531
1355.549, 130.7617
1356.608, 385.4727
1357.668, 509.3438
1358.727, 248.3594
1359.787, 360.5312
1360.846, 276.8516
1361.905, 163.3242
1362.964, 315.9492
1364.022, 389.0312
1365.081, 70.96094
1366.139, 96.04297
1367.197, 278.2461
1368.255, 263.5977
1369.313, 93.10938
1370.371, 102.1719
1371.428, 147.2305
1372.486, 106.2578
1373.543, 139.2461
1374.600, 212.4766
1375.657, 89.85938
1376.713, 246.3906
1377.770, 326.0703
1378.826, 290.8867
1379.882, 348.8477
1380.938, 322.5742
1381.994, 251.2266
1383.050, 287.6406
1384.106, 22.19922
1385.161, 34.45312
1386.216, 28.76562
1387.271, 184.3047
1388.326, 79.44922
1389.381, 245.4805
1390.435, 265.9727
1391.490, 219.5625
1392.544, 116.3008
1393.598, 48.18359
1394.652, 108.2188
1395.705, 78.24219
1396.759, 305.0898
1397.812, 246.5625
1398.866, 266.1914
1399.919, 169.9531
1400.972, 153.8633
1402.024, 41.92969
1403.077, 144.1445
1404.129, 203.5078
1405.181, 287.0273
1406.233, 33.69141
1407.285, 87.49609
1408.337, 291.4648
1409.389, 200.5781
1410.440, 210.1836
1411.491, 201.1992
1412.542, 349.7305
1413.593, 37.57812
1414.644, 463.2656
1415.695, 139.2617
1416.745, 224.4219
1417.795, 305.7305
1418.845, 37.19531
1419.895, 201.2109
1420.945, 151.5273
1421.995, 544.4258
1423.044, 88.14062
1424.093, 119.2773
1425.142, 136.5430
1426.191, 331.4844
1427.240, 112.0703
1428.289, 439.8203
1429.337, 5.171875
1430.385, 2.906250
1431.433, 242.1523
1432.481, 113.4336
1433.529, 312.1406
1434.577, 159.8828
1435.624, 26.79688
1436.672, 295.5430
1437.719, 403.3477
1438.766, 49.19531
1439.812, 624.1562
1440.859, 437.3633
1441.905, 514.0156
1442.952, 45.01953
1443.998, 509.6484
1445.044, 468.0391
1446.090, 275.8164
1447.135, 228.5625
1448.181, 379.1875
1449.226, 403.7812
1450.271, 281.5742
1451.316, 373.6992
1452.361, 309.7578
1453.405, 348.1406
1454.450, 266.7227
1455.494, 171.5117
1456.538, 431.4844
1457.582, 322.6602
1458.626, 462.0312
1459.670, 472.8594
1460.713, 429.3555
1461.757, 391.3086
1462.800, 397.4453
1463.843, 204.7734
1464.886, 253.2930
1465.928, 216.3594
1466.971, 322.8984
1468.013, 259.9844
1469.055, 183.2578
1470.097, 266.7148
1471.139, 720.3516
1472.181, 131.1758
1473.222, 474.1719
1474.263, 178.3594
1475.305, 52.27734
1476.346, 489.2695
1477.386, 531.9961
1478.427, 266.9062
1479.468, 203.9883
1480.508, 187.8398
1481.548, 364.6758
1482.588, 104.2656
1483.628, 287.0234
1484.668, 134.7773
1485.707, 195.8125
1486.747, 273.0078
1487.786, 48.37500
1488.825, 10.10156
1489.864, 479.5898
1490.902, 324.8594
1491.941, 352.0156
1492.979, 48.08594
1494.017, 36.78906
1495.055, 51.84375
1496.093, 6.332031
1497.131, 265.1914
1498.168, 141.9336
1499.206, 241.6406
1500.243, 181.4219
1501.280, 114.2617
1502.317, 143.2773
1503.354, 29.21094
1504.390, 26.41016
1505.426, 82.72266
1506.463, 347.1484
1507.499, 205.6758
1508.535, 294.2812
1509.570, 13.01953
1510.606, 249.8125
1511.641, 523.8906
1512.676, 412.2344
1513.711, 45.17188
1514.746, 13.68359
1515.781, 91.79297
1516.816, 342.1523
1517.850, 158.7617
1518.884, 282.6250
1519.918, 126.2617
1520.952, 228.1016
1521.986, 521.7109
1523.019, 50.57031
1524.053, 203.0352
1525.086, 112.3203
1526.119, 159.8555
1527.152, 295.6250
1528.185, 206.6406
1529.217, 258.9258
1530.250, 394.4570
1531.282, 356.3242
1532.314, 348.4609
1533.346, 246.9414
1534.377, 135.2969
1535.409, 110.3906
1536.440, 195.8164
1537.472, 79.56641
1538.503, 251.7617
1539.534, 321.3086
1540.564, 297.6094
1541.595, 216.3320
1542.625, 314.0000
1543.656, 147.3242
1544.686, 140.5391
1545.716, 230.1602
1546.745, 63.94531
1547.775, 0.4960940
1548.804, 587.1992
1549.834, 14.64844
1550.863, 272.8555
1551.892, 433.7266
1552.920, 98.96875
1553.949, 437.8789
1554.977, 135.1211
1556.006, 499.6523
1557.034, 283.5312
1558.062, 546.0195
1559.089, 250.0586
1560.117, 248.6914
1561.144, 130.3555
1562.172, 300.0156
1563.199, 424.1602
1564.226, 169.9453
1565.252, 106.4297
1566.279, 21.71484
1567.305, 163.0156
1568.332, 254.5664
1569.358, 5.964844
1570.384, 203.3164
1571.409, 0.0000000E+00
##END=



