##NAMES=Fluorapatite
##RRUFFID=R060184
##IDEAL CHEMISTRY=Ca_5_(PO_4_)_3_F
##LOCALITY=Yates mine, Otter Lake, Quebec, Canada
##OWNER=RRUFF
##SOURCE=Lloyd Twaites
##DESCRIPTION=Green colored fragment of a hexagonal prism
##STATUS=The identification of this mineral has been confirmed by X-ray diffraction and chemical analysis
##URL=rruff.info/R060184
##MEASURED CHEMISTRY=(Ca_0.99_Ce_0.01_)_5.00_((P_0.98_Si_0.01_S_0.01_)O_4_)_3_F_1.00_
##PIN_ID=M00887
##ORIENTATION=Laser parallel to c* (0 0 1). Fiducial mark perpendicular to laser is parallel to a [1 0 0]
170.5590, 0.0000000E+00
171.7860, 52.07397
173.0130, 0.2280270
174.2400, 19.92725
175.4670, 66.89819
176.6930, 81.54150
177.9200, 111.1262
179.1460, 34.61133
180.3720, 71.54370
181.5980, 37.90015
182.8230, 67.49829
184.0490, 56.92334
185.2740, 98.26392
186.5000, 38.40674
187.7250, 38.15576
188.9500, 25.16162
190.1740, 39.24902
191.3990, 41.40186
192.6230, 18.37646
193.8480, 23.92456
195.0720, 46.33740
196.2960, 7.105469
197.5200, 63.58447
198.7430, 16.39233
199.9670, 58.28784
201.1900, 80.23755
202.4130, 52.21313
203.6360, 61.19165
204.8590, 116.1548
206.0820, 129.0869
207.3050, 151.9758
208.5270, 161.2727
209.7490, 178.6204
210.9710, 157.4309
212.1930, 139.3030
213.4150, 134.2310
214.6370, 132.6064
215.8580, 155.3945
217.0790, 155.6445
218.3010, 195.2292
219.5210, 232.1169
220.7420, 215.2317
221.9630, 267.3721
223.1830, 283.5042
224.4040, 307.6763
225.6240, 343.8672
226.8440, 319.9658
228.0640, 395.9419
229.2840, 373.7732
230.5030, 388.4524
231.7230, 308.9810
232.9420, 410.3638
234.1610, 369.6067
235.3800, 311.7129
236.5990, 307.6863
237.8170, 326.5310
239.0360, 289.2498
240.2540, 249.8464
241.4720, 211.3235
242.6900, 267.6836
243.9080, 181.9517
245.1250, 219.1921
246.3430, 186.4004
247.5600, 205.5725
248.7770, 223.2329
249.9940, 273.3228
251.2110, 291.9121
252.4280, 339.8525
253.6450, 353.9312
254.8610, 371.6609
256.0770, 402.9197
257.2930, 600.7832
258.5090, 561.8965
259.7250, 756.0178
260.9400, 638.5137
262.1560, 727.6758
263.3710, 801.0723
264.5860, 749.1465
265.8010, 797.5820
267.0160, 773.8347
268.2310, 740.2896
269.4450, 765.5986
270.6600, 738.5530
271.8740, 684.5789
273.0880, 684.2761
274.3020, 694.1460
275.5150, 650.7559
276.7290, 676.2439
277.9420, 605.8652
279.1550, 605.6079
280.3680, 598.0566
281.5810, 645.3242
282.7940, 573.9121
284.0070, 611.4160
285.2190, 574.9495
286.4310, 535.4521
287.6430, 536.1177
288.8550, 543.1416
290.0670, 570.1321
291.2790, 533.0876
292.4900, 433.0022
293.7020, 518.8784
294.9130, 467.7124
296.1240, 492.4978
297.3350, 559.2332
298.5450, 550.9180
299.7560, 463.5518
300.9660, 540.1348
302.1760, 594.6675
303.3860, 541.1504
304.5960, 663.5830
305.8060, 599.9661
307.0150, 572.2998
308.2250, 505.5845
309.4340, 487.8208
310.6430, 541.0085
311.8520, 561.1479
313.0610, 490.2395
314.2700, 404.2834
315.4780, 416.2800
316.6860, 410.9478
317.8940, 353.4790
319.1020, 353.8696
320.3100, 274.2200
321.5180, 294.4768
322.7250, 279.6240
323.9330, 256.6777
325.1400, 222.6177
326.3470, 168.4963
327.5540, 172.0923
328.7600, 157.7556
329.9670, 151.2490
331.1730, 148.7805
332.3800, 88.21826
333.5860, 73.73608
334.7920, 98.31250
335.9970, 75.76050
337.2030, 109.2908
338.4080, 93.12354
339.6140, 80.26514
340.8190, 57.61938
342.0240, 12.96362
343.2290, 25.79517
344.4330, 62.40894
345.6380, 70.95117
346.8420, 36.06592
348.0460, 104.7280
349.2500, 9.727783
350.4540, 94.07788
351.6580, 59.84961
352.8610, 51.57495
354.0650, 18.66675
355.2680, 66.27661
356.4710, 13.40503
357.6740, 7.403564
358.8760, 72.06274
360.0790, 14.13501
361.2810, 5.910400
362.4840, 2.223145
363.6860, 54.72852
364.8880, 57.90283
366.0900, 28.74438
367.2910, 1.622803
368.4930, 40.75854
369.6940, 2.847900
370.8950, 89.79932
372.0960, 51.90430
373.2970, 22.16870
374.4980, 8.270508
375.6980, 68.30933
376.8980, 69.17407
378.0990, 36.98462
379.2990, 156.7969
380.4980, 112.6694
381.6980, 39.82300
382.8980, 47.79224
384.0970, 105.7996
385.2960, 35.70142
386.4950, 151.6421
387.6940, 80.52075
388.8930, 67.95117
390.0920, 65.42993
391.2900, 106.3206
392.4880, 124.4263
393.6860, 150.1873
394.8840, 151.3179
396.0820, 150.5583
397.2800, 222.6868
398.4770, 261.8186
399.6750, 203.6936
400.8720, 288.3621
402.0690, 208.8650
403.2660, 237.5217
404.4620, 357.2515
405.6590, 380.4497
406.8550, 385.1025
408.0510, 375.3994
409.2480, 508.8032
410.4430, 440.0811
411.6390, 591.7529
412.8350, 488.9775
414.0300, 596.0854
415.2250, 722.8813
416.4200, 799.7090
417.6150, 1003.299
418.8100, 1131.728
420.0050, 1228.021
421.1990, 1354.255
422.3940, 1634.449
423.5880, 1931.586
424.7820, 2182.686
425.9750, 2195.745
427.1690, 2568.771
428.3630, 2683.761
429.5560, 2679.721
430.7490, 2568.649
431.9420, 2552.545
433.1350, 2447.411
434.3280, 2399.247
435.5200, 2333.051
436.7130, 2304.846
437.9050, 2296.644
439.0970, 2287.296
440.2890, 2330.987
441.4810, 2346.648
442.6720, 2407.279
443.8640, 2402.882
445.0550, 2336.895
446.2460, 2187.000
447.4370, 2114.517
448.6280, 1985.006
449.8180, 1784.465
451.0090, 1781.897
452.1990, 1570.299
453.3890, 1362.674
454.5790, 1252.021
455.7690, 1104.339
456.9590, 965.6299
458.1480, 855.8936
459.3380, 747.1289
460.5270, 670.3262
461.7160, 614.5610
462.9050, 647.6060
464.0940, 518.6904
465.2820, 495.7388
466.4700, 401.7505
467.6590, 402.7256
468.8470, 378.6382
470.0350, 392.2852
471.2220, 336.9102
472.4100, 304.4375
473.5970, 361.8999
474.7850, 254.3145
475.9720, 228.4380
477.1590, 182.4321
478.3460, 232.5195
479.5320, 207.4517
480.7190, 169.5073
481.9050, 43.46875
483.0910, 231.3296
484.2770, 19.96436
485.4630, 116.0405
486.6490, 93.27930
487.8340, 160.8306
489.0200, 51.41406
490.2050, 106.6558
491.3900, 134.3325
492.5750, 83.01025
493.7600, 82.56348
494.9440, 84.84521
496.1290, 68.01611
497.3130, 35.97461
498.4970, 33.81934
499.6810, 40.30029
500.8650, 76.60791
502.0480, 7.963867
503.2320, 2.088379
504.4150, 85.02246
505.5980, 39.09229
506.7810, 12.09082
507.9640, 39.79053
509.1460, 28.52295
510.3290, 56.16992
511.5110, 55.99023
512.6930, 76.13916
513.8750, 34.86963
515.0570, 60.26855
516.2390, 5.796875
517.4210, 21.91602
518.6020, 37.34277
519.7830, 18.25879
520.9640, 32.83789
522.1450, 20.60254
523.3260, 14.83154
524.5060, 39.74805
525.6870, 5.196289
526.8670, 36.78760
528.0470, 68.87207
529.2270, 6.630859
530.4070, 29.50439
531.5870, 18.49414
532.7660, 32.56006
533.9450, 78.57812
535.1240, 48.01025
536.3030, 38.79004
537.4820, 73.25488
538.6610, 31.82959
539.8390, 23.22656
541.0180, 71.10107
542.1960, 109.3433
543.3740, 135.8291
544.5520, 87.98730
545.7290, 59.56445
546.9070, 172.9473
548.0840, 53.42920
549.2620, 123.8750
550.4390, 83.15723
551.6160, 91.04492
552.7920, 222.8936
553.9690, 73.25830
555.1450, 84.65527
556.3220, 146.9888
557.4980, 129.2397
558.6740, 171.5898
559.8490, 200.2012
561.0250, 235.2588
562.2000, 286.6313
563.3760, 341.7432
564.5510, 443.9541
565.7260, 499.1753
566.9010, 467.0107
568.0750, 640.2520
569.2500, 670.5649
570.4240, 816.8311
571.5980, 1072.653
572.7720, 1344.450
573.9460, 1584.264
575.1200, 1823.888
576.2930, 2292.626
577.4670, 2651.732
578.6400, 2803.848
579.8130, 2862.849
580.9860, 2910.711
582.1590, 2588.147
583.3310, 2345.775
584.5040, 2004.655
585.6760, 1869.997
586.8480, 1958.459
588.0200, 1723.622
589.1920, 1589.225
590.3630, 1553.511
591.5350, 1418.141
592.7060, 1320.502
593.8770, 1209.976
595.0480, 1061.436
596.2190, 1032.816
597.3900, 936.2788
598.5600, 1036.714
599.7310, 1026.031
600.9010, 1199.543
602.0710, 1167.763
603.2410, 1470.082
604.4100, 1432.546
605.5800, 1489.200
606.7490, 1257.455
607.9190, 1341.785
609.0880, 1181.362
610.2570, 1184.678
611.4250, 1008.207
612.5940, 1023.711
613.7620, 1070.759
614.9310, 1003.126
616.0990, 994.3403
617.2670, 836.1763
618.4340, 682.9897
619.6020, 659.8662
620.7690, 419.6865
621.9370, 481.3081
623.1040, 432.2168
624.2710, 341.0132
625.4380, 264.7134
626.6040, 344.9824
627.7710, 297.3120
628.9370, 472.1484
630.1030, 424.1880
631.2690, 439.2729
632.4350, 451.4326
633.6010, 530.8691
634.7660, 452.7808
635.9320, 513.2241
637.0970, 520.3271
638.2620, 536.1401
639.4270, 609.7417
640.5920, 590.5811
641.7560, 648.8096
642.9210, 644.2637
644.0850, 613.6152
645.2490, 697.8086
646.4130, 658.9790
647.5770, 723.3906
648.7400, 737.9043
649.9040, 765.1938
651.0670, 680.7148
652.2300, 710.9951
653.3930, 784.8569
654.5560, 615.8408
655.7190, 737.7441
656.8810, 529.4438
658.0440, 606.7158
659.2060, 524.1738
660.3680, 431.9688
661.5300, 421.8052
662.6910, 416.8804
663.8530, 385.8047
665.0140, 344.3452
666.1750, 365.2881
667.3360, 277.6592
668.4970, 279.9697
669.6580, 294.4419
670.8190, 215.6533
671.9790, 333.4746
673.1390, 369.0981
674.2990, 156.4771
675.4590, 226.5400
676.6190, 119.0005
677.7790, 200.9297
678.9380, 189.2363
680.0970, 105.6636
681.2570, 196.5825
682.4160, 222.4023
683.5740, 205.6221
684.7330, 126.5527
685.8920, 271.3950
687.0500, 177.1040
688.2080, 176.8794
689.3660, 292.2612
690.5240, 55.26172
691.6820, 56.47510
692.8390, 164.8091
693.9960, 148.2441
695.1540, 154.8984
696.3110, 166.4438
697.4680, 83.31104
698.6240, 143.7021
699.7810, 162.5503
700.9370, 108.0830
702.0940, 163.2119
703.2500, 132.2544
704.4060, 122.5669
705.5610, 256.8398
706.7170, 102.5034
707.8720, 78.18213
709.0280, 81.87598
710.1830, 180.7725
711.3380, 179.4932
712.4920, 168.1445
713.6470, 218.6641
714.8020, 170.9307
715.9560, 75.16016
717.1100, 65.34863
718.2640, 73.57617
719.4180, 121.6836
720.5720, 214.9209
721.7250, 150.9531
722.8780, 82.94824
724.0320, 218.2031
725.1850, 167.1221
726.3380, 15.00293
727.4900, 117.8408
728.6430, 185.6396
729.7950, 95.40137
730.9470, 152.2021
732.1000, 116.8848
733.2510, 112.5312
734.4030, 123.1367
735.5550, 95.70312
736.7060, 94.39062
737.8570, 115.6680
739.0090, 61.25098
740.1600, 133.2334
741.3100, 101.8828
742.4610, 59.44043
743.6110, 29.90332
744.7620, 99.63672
745.9120, 78.35059
747.0620, 30.72266
748.2120, 78.59863
749.3610, 37.84082
750.5110, 37.83691
751.6600, 123.4551
752.8090, 48.45312
753.9580, 53.92578
755.1070, 111.0225
756.2560, 64.82031
757.4050, 93.23340
758.5530, 82.24609
759.7010, 88.38867
760.8490, 110.0771
761.9970, 120.4863
763.1450, 118.5547
764.2920, 123.9629
765.4400, 85.28809
766.5870, 55.20801
767.7340, 84.60938
768.8810, 16.05273
770.0280, 140.3643
771.1740, 1.262695
772.3210, 135.9541
773.4670, 47.19336
774.6130, 76.09180
775.7590, 59.43262
776.9050, 74.47949
778.0510, 77.49414
779.1960, 55.46680
780.3420, 99.59863
781.4870, 85.76953
782.6320, 72.60352
783.7770, 105.2529
784.9210, 138.7812
786.0660, 167.9902
787.2100, 199.8281
788.3540, 182.0342
789.4980, 242.2207
790.6420, 117.7988
791.7860, 71.33398
792.9300, 18.17676
794.0730, 55.24219
795.2160, 39.61719
796.3590, 34.94238
797.5020, 66.78223
798.6450, 15.40332
799.7880, 74.46680
800.9300, 75.56445
802.0720, 99.55469
803.2150, 31.50195
804.3560, 126.4004
805.4980, 160.2656
806.6400, 215.0908
807.7810, 127.8779
808.9230, 25.37402
810.0640, 123.2988
811.2050, 28.93750
812.3460, 63.29590
813.4860, 75.84863
814.6270, 130.9951
815.7670, 74.47656
816.9070, 57.86328
818.0470, 27.14453
819.1870, 51.14160
820.3270, 135.4258
821.4670, 35.66016
822.6060, 130.5107
823.7450, 66.66504
824.8840, 121.6406
826.0230, 69.57715
827.1620, 87.59863
828.3010, 64.94043
829.4390, 117.2402
830.5770, 172.8242
831.7150, 121.7402
832.8530, 296.1553
833.9910, 95.76074
835.1290, 55.97852
836.2660, 150.4023
837.4030, 54.86523
838.5410, 88.05469
839.6780, 95.43262
840.8140, 90.63965
841.9510, 191.7637
843.0870, 154.4150
844.2240, 140.1709
845.3600, 124.9951
846.4960, 75.79590
847.6320, 97.03906
848.7680, 103.3643
849.9030, 124.1367
851.0380, 180.2959
852.1740, 200.2734
853.3090, 282.8145
854.4440, 150.2764
855.5780, 273.7383
856.7130, 125.3643
857.8470, 201.3008
858.9820, 213.9785
860.1160, 88.33496
861.2500, 318.1602
862.3830, 197.7979
863.5170, 236.6670
864.6500, 223.0293
865.7840, 219.6396
866.9170, 129.8398
868.0500, 231.2432
869.1830, 306.4639
870.3150, 176.6328
871.4480, 201.8135
872.5800, 101.8467
873.7120, 33.83984
874.8440, 102.8809
875.9760, 56.33887
877.1080, 63.64062
878.2390, 73.45508
879.3710, 18.94141
880.5020, 44.39258
881.6330, 8.941406
882.7640, 69.57129
883.8940, 77.22852
885.0250, 75.14062
886.1550, 22.23047
887.2850, 2.278320
888.4160, 95.71094
889.5450, 12.24023
890.6750, 23.21387
891.8050, 16.00781
892.9340, 26.99609
894.0630, 40.93457
895.1930, 7.990234
896.3220, 58.07715
897.4500, 114.1670
898.5790, 1.651367
899.7070, 4.585938
900.8360, 20.84863
901.9640, 25.66309
903.0920, 85.89160
904.2200, 6.338867
905.3470, 69.97363
906.4750, 42.59277
907.6020, 66.67578
908.7290, 46.22461
909.8560, 7.804688
910.9830, 25.37305
912.1100, 177.3838
913.2360, 126.4961
914.3630, 94.61133
915.4890, 1.482422
916.6150, 2.833984
917.7410, 79.21973
918.8670, 13.37207
919.9920, 60.34082
921.1180, 26.25098
922.2430, 53.90723
923.3680, 20.17676
924.4930, 67.65039
925.6180, 71.68945
926.7420, 60.48828
927.8670, 70.91504
928.9910, 255.5029
930.1150, 218.6895
931.2390, 105.6064
932.3630, 254.4180
933.4860, 342.8545
934.6100, 381.1553
935.7330, 482.0654
936.8560, 582.3994
937.9790, 622.9199
939.1020, 868.5547
940.2250, 841.1816
941.3470, 1037.937
942.4700, 1146.906
943.5920, 1579.498
944.7140, 1699.344
945.8360, 2148.890
946.9570, 2790.375
948.0790, 3039.436
949.2000, 3647.638
950.3220, 4478.170
951.4430, 5720.342
952.5640, 7153.295
953.6840, 9377.921
954.8050, 11811.76
955.9250, 15281.26
957.0460, 19620.81
958.1660, 24952.28
959.2860, 30415.31
960.4050, 35938.74
961.5250, 40949.80
962.6440, 44048.03
963.7640, 43811.02
964.8830, 39472.51
966.0020, 32889.11
967.1210, 25981.55
968.2390, 19721.26
969.3580, 15095.54
970.4760, 11146.42
971.5940, 8297.908
972.7120, 6329.770
973.8300, 4531.988
974.9480, 3668.245
976.0650, 2693.480
977.1830, 2121.214
978.3000, 1633.712
979.4170, 1315.155
980.5340, 887.5361
981.6500, 726.6357
982.7670, 687.9590
983.8830, 502.2783
985.0000, 457.6846
986.1160, 406.3008
987.2320, 292.9111
988.3470, 285.5156
989.4630, 179.0381
990.5780, 150.6357
991.6940, 238.0605
992.8090, 161.6484
993.9240, 129.2314
995.0380, 41.51270
996.1530, 140.0889
997.2680, 244.6611
998.3820, 207.2334
999.4960, 70.82129
1000.610, 250.4053
1001.724, 348.9092
1002.837, 519.4961
1003.951, 615.0811
1005.064, 807.6650
1006.177, 857.2500
1007.291, 959.6768
1008.403, 897.4648
1009.516, 771.9346
1010.629, 683.9629
1011.741, 659.2871
1012.853, 665.6650
1013.965, 496.0986
1015.077, 719.2207
1016.189, 525.3359
1017.300, 531.7559
1018.412, 543.6328
1019.523, 529.1035
1020.634, 630.8594
1021.745, 590.8096
1022.856, 875.4170
1023.966, 1015.512
1025.077, 842.9600
1026.187, 1175.672
1027.297, 1244.735
1028.407, 1390.164
1029.517, 1558.694
1030.627, 1668.115
1031.736, 1785.049
1032.845, 1807.682
1033.955, 1797.182
1035.064, 1730.090
1036.172, 1657.391
1037.281, 1467.177
1038.390, 1640.892
1039.498, 1638.704
1040.606, 1533.423
1041.714, 1302.266
1042.822, 1062.058
1043.930, 1290.159
1045.037, 1034.788
1046.145, 1070.685
1047.252, 1085.596
1048.359, 1201.520
1049.466, 1085.258
1050.573, 1211.961
1051.679, 1209.377
1052.786, 1203.520
1053.892, 1217.766
1054.998, 1407.205
1056.104, 1206.237
1057.210, 1342.185
1058.315, 1524.189
1059.421, 1318.267
1060.526, 1416.362
1061.631, 1195.477
1062.736, 972.6221
1063.841, 1162.789
1064.946, 1031.978
1066.050, 856.1885
1067.154, 1150.445
1068.258, 1206.726
1069.362, 1340.057
1070.466, 1227.406
1071.570, 1300.646
1072.674, 894.1719
1073.777, 1226.586
1074.880, 994.0215
1075.983, 777.4746
1077.086, 878.9473
1078.189, 543.4570
1079.291, 526.9883
1080.394, 479.5449
1081.496, 513.1250
1082.598, 285.7266
1083.700, 216.3516
1084.802, 248.9980
1085.903, 363.6699
1087.005, 219.3809
1088.106, 140.2305
1089.207, 123.9883
1090.308, 36.77344
1091.409, 15.58203
1092.509, 195.3594
1093.610, 29.21289
1094.710, 146.0918
1095.810, 179.0059
1096.910, 10.05664
1098.010, 100.9043
1099.110, 5.113281
1100.209, 31.89453
1101.309, 100.9238
1102.408, 124.9785
1103.507, 134.0586
1104.606, 158.8750
1105.704, 36.29688
1106.803, 138.4551
1107.901, 68.85742
1108.999, 10.15430
1110.097, 76.07812
1111.195, 56.44922
1112.293, 122.7305
1113.391, 91.03906
1114.488, 176.1504
1115.585, 186.8594
1116.682, 321.8965
1117.779, 238.3086
1118.876, 214.7441
1119.973, 243.2051
1121.069, 170.6914
1122.165, 255.2051
1123.261, 109.7520
1124.357, 161.3242
1125.453, 102.9609
1126.549, 185.5859
1127.644, 61.25781
1128.739, 165.9570
1129.835, 287.6816
1130.930, 328.5508
1132.024, 216.3281
1133.119, 227.1465
1134.214, 141.1562
1135.308, 141.0137
1136.402, 267.8984
1137.496, 248.8105
1138.590, 211.7480
1139.684, 253.7188
1140.777, 160.4688
1141.871, 212.4941
1142.964, 426.5723
1144.057, 410.6777
1145.150, 331.8145
1146.243, 221.9922
1147.335, 103.5625
1148.428, 162.8066
1149.520, 221.0820
1150.612, 190.4121
1151.704, 127.4863
1152.796, 239.8809
1153.887, 163.3086
1154.979, 212.7656
1156.070, 99.50000
1157.161, 18.04297
1158.252, 171.6152
1159.343, 273.2207
1160.433, 78.87500
1161.524, 260.5684
1162.614, 334.3105
1163.704, 254.1230
1164.794, 263.9668
1165.884, 72.85352
1166.974, 179.7773
1168.063, 194.7363
1169.153, 36.72266
1170.242, 101.5352
1171.331, 79.07617
1172.420, 97.87695
1173.508, 121.9863
1174.597, 217.1270
1175.685, 253.3047
1176.774, 232.5117
1177.862, 255.7715
1178.950, 126.0176
1180.037, 177.3164
1181.125, 107.6484
1182.212, 21.98242
1183.300, 168.4395
1184.387, 198.8965
1185.474, 183.4062
1186.560, 76.95898
1187.647, 128.5410
1188.733, 196.1543
1189.820, 125.8184
1190.906, 75.51172
1191.992, 106.2363
1193.078, 94.99023
1194.163, 63.77734
1195.249, 289.5898
1196.334, 201.4336
1197.419, 158.3086
1198.504, 325.2148
1199.589, 16.14648
1200.674, 82.11328
1201.758, 264.1055
1202.843, 30.12891
1203.927, 228.1836
1205.011, 164.2676
1206.095, 199.3789
1207.179, 68.52344
1208.262, 163.6953
1209.345, 100.8965
1210.429, 179.1270
1211.512, 209.3887
1212.595, 125.6797
1213.677, 52.00000
1214.760, 80.35156
1215.842, 80.73242
1216.925, 66.57227
1218.007, 36.41992
1219.089, 91.04102
1220.171, 54.52930
1221.252, 98.04883
1222.334, 56.40234
1223.415, 245.1582
1224.496, 55.74805
1225.577, 179.4062
1226.658, 208.0566
1227.738, 122.6426
1228.819, 268.3496
1229.899, 160.0371
1230.979, 203.8027
1232.060, 108.5977
1233.139, 226.4199
1234.219, 210.2734
1235.299, 238.1523
1236.378, 187.0625
1237.457, 200.0039
1238.536, 164.9707
1239.615, 83.87695
1240.694, 32.09961
1241.772, 51.95312
1242.851, 184.0332
1243.929, 154.8555
1245.007, 42.22461
1246.085, 4.333984
1247.163, 101.4727
1248.240, 35.63867
1249.318, 67.83398
1250.395, 49.05859
1251.472, 9.310547
1252.549, 6.685547
1253.626, 126.9961
1254.703, 53.74805
1255.779, 64.12695
1256.855, 145.5312
1257.931, 116.9648
1259.007, 57.42969
1260.083, 94.08008
1261.159, 113.4043
1262.234, 4.914063
1263.310, 27.53320
1264.385, 187.0352
1265.460, 132.6289
1266.535, 113.2539
1267.610, 54.90430
1268.684, 6.585938
1269.758, 105.7070
1270.833, 56.98633
1271.907, 174.7090
1272.981, 90.45898
1274.054, 212.2344
1275.128, 162.0039
1276.201, 53.12695
1277.275, 108.7168
1278.348, 13.58789
1279.421, 26.48438
1280.493, 13.58984
1281.566, 70.35547
1282.638, 20.33008
1283.711, 167.3340
1284.783, 70.63281
1285.855, 126.3965
1286.927, 162.4551
1287.998, 20.53906
1289.070, 212.6504
1290.141, 35.78906
1291.212, 80.95312
1292.283, 142.1445
1293.354, 103.3594
1294.425, 148.6055
1295.495, 212.8750
1296.566, 175.1719
1297.636, 245.4941
1298.706, 214.7227
1299.776, 165.2129
1300.845, 215.6113
1301.915, 177.0352
1302.984, 280.4824
1304.054, 191.9551
1305.123, 70.45312
1306.191, 281.9746
1307.260, 301.5234
1308.329, 12.09570
1309.397, 117.6934
1310.465, 328.3145
1311.534, 215.5020
1312.602, 321.1699
1313.669, 227.8613
1314.737, 444.5781
1315.804, 248.3164
1316.872, 227.0781
1317.939, 236.8613
1319.006, 136.6660
1320.073, 273.4902
1321.139, 272.3379
1322.206, 306.2070
1323.272, 309.0977
1324.338, 256.0117
1325.404, 293.1855
1326.470, 252.6523
1327.536, 326.8770
1328.601, 253.8770
1329.667, 290.8965
1330.732, 402.9375
1331.797, 444.0000
1332.862, 442.0547
1333.926, 401.1895
1334.991, 370.3066
1336.055, 248.4434
1337.120, 267.8535
1338.184, 79.78516
1339.248, 267.9863
1340.311, 268.2070
1341.375, 288.4512
1342.438, 69.71484
1343.502, 374.0039
1344.565, 96.31055
1345.628, 252.6406
1346.691, 215.8730
1347.753, 268.7148
1348.816, 278.1641
1349.878, 258.4688
1350.940, 194.9199
1352.002, 113.3379
1353.064, 37.22461
1354.126, 213.2227
1355.187, 222.6934
1356.248, 365.1836
1357.310, 302.6973
1358.371, 177.2285
1359.431, 206.7812
1360.492, 92.35547
1361.553, 294.9492
1362.613, 250.5684
1363.673, 490.2070
1364.733, 297.8633
1365.793, 255.5410
1366.853, 54.24023
1367.912, 121.9609
1368.972, 221.3477
1370.031, 373.1074
1371.090, 138.8906
1372.149, 50.91602
1373.208, 175.7383
1374.267, 191.5820
1375.325, 48.44727
1376.383, 86.33398
1377.441, 399.2383
1378.499, 86.16406
1379.557, 38.88672
1380.615, 128.0703
1381.672, 84.52344
1382.730, 310.4590
1383.787, 206.4590
1384.844, 278.4805
1385.901, 46.52539
1386.957, 90.58789
1388.014, 230.5547
1389.070, 236.6582
1390.126, 184.4141
1391.182, 190.3848
1392.238, 116.5527
1393.294, 94.74219
1394.349, 138.9531
1395.405, 145.1816
1396.460, 66.42578
1397.515, 109.9434
1398.570, 52.23438
1399.625, 111.5527
1400.679, 49.89062
1401.734, 240.2559
1402.788, 179.6406
1403.842, 162.4062
1404.896, 348.8379
1405.950, 169.2676
1407.003, 174.7188
1408.057, 82.48242
1409.110, 123.5488
1410.163, 260.7168
1411.216, 235.2617
1412.269, 260.5527
1413.322, 243.2266
1414.374, 268.7988
1415.427, 107.3906
1416.479, 40.94922
1417.531, 361.5293
1418.583, 195.1309
1419.634, 275.7500
1420.686, 243.9863
1421.737, 198.6484
1422.788, 72.32617
1423.839, 81.00391
1424.890, 268.6953
1425.941, 50.40820
1426.992, 124.0898
1428.042, 359.9219
1429.092, 271.6270
1430.142, 206.3477
1431.192, 247.0820
1432.242, 151.7969
1433.291, 358.5215
1434.341, 90.57617
1435.390, 223.3086
1436.439, 165.0488
1437.488, 312.7988
1438.537, 232.5156
1439.586, 202.2324
1440.634, 199.9453
1441.682, 329.6836
1442.731, 209.1758
1443.779, 274.6953
1444.826, 169.2363
1445.874, 239.8047
1446.922, 197.3984
1447.969, 86.01367
1449.016, 238.6582
1450.063, 326.3242
1451.110, 300.0156
1452.157, 240.7305
1453.203, 257.4668
1454.250, 119.2305
1455.296, 253.0156
1456.342, 100.8242
1457.388, 147.6621
1458.433, 260.5254
1459.479, 181.4219
1460.524, 241.9512
1461.570, 371.8828
1462.615, 196.8398
1463.660, 150.8184
1464.705, 58.81836
1465.749, 197.8438
1466.794, 174.8906
1467.838, 27.95898
1468.882, 268.0430
1469.926, 282.1895
1470.970, 175.3906
1472.013, 321.6191
1473.057, 3.130859
1474.100, 238.3145
1475.143, 114.5352
1476.186, 24.72070
1477.229, 208.9277
1478.272, 209.2051
1479.314, 254.4766
1480.357, 102.7793
1481.399, 266.0957
1482.441, 227.4629
1483.483, 293.8828
1484.525, 86.31836
1485.566, 102.7832
1486.608, 84.28320
1487.649, 202.8047
1488.690, 194.3398
1489.731, 265.9102
1490.771, 114.5176
1491.812, 356.1465
1492.853, 260.7930
1493.893, 29.54688
1494.933, 133.1289
1495.973, 137.8223
1497.013, 59.53711
1498.052, 167.2695
1499.092, 241.0234
1500.131, 92.79492
1501.170, 324.5859
1502.209, 54.39844
1503.248, 278.2344
1504.287, 122.0957
1505.325, 239.9883
1506.363, 38.08398
1507.402, 260.8789
1508.440, 224.8770
1509.478, 157.9102
1510.515, 209.9805
1511.553, 209.0859
1512.590, 400.2266
1513.627, 32.42578
1514.664, 38.31445
1515.701, 100.9883
1516.738, 159.3242
1517.775, 107.6973
1518.811, 265.1113
1519.847, 237.3926
1520.883, 318.8984
1521.919, 263.6172
1522.955, 184.3867
1523.991, 170.2070
1525.026, 122.0840
1526.061, 84.64453
1527.096, 171.9980
1528.131, 2.039063
1529.166, 226.1387
1530.201, 157.1973
1531.235, 221.2402
1532.270, 250.3320
1533.304, 226.4844
1534.338, 5.300781
1535.372, 234.9785
1536.405, 135.1445
1537.439, 18.18555
1538.472, 153.2715
1539.505, 190.3965
1540.538, 224.6699
1541.571, 353.3203
1542.604, 270.9492
1543.637, 303.3438
1544.669, 0.7578130
1545.701, 238.7891
1546.733, 196.2383
1547.765, 150.6230
1548.797, 306.8770
1549.829, 47.95117
1550.860, 253.7852
1551.891, 5.246094
1552.922, 107.4238
1553.953, 245.3438
1554.984, 40.01562
1556.015, 340.8691
1557.045, 182.2715
1558.076, 3.609375
1559.106, 195.9414
1560.136, 182.3945
1561.165, 45.96289
1562.195, 85.37500
1563.225, 27.68359
1564.254, 241.9395
1565.283, 0.0000000E+00
##END=



