##NAMES=Fluorapatite
##RRUFFID=R050274
##IDEAL CHEMISTRY=Ca_5_(PO_4_)_3_F
##LOCALITY=Minas Gerais, Brazil
##OWNER=RRUFF
##SOURCE=Marcus Origlieri
##DESCRIPTION=Aggregate of blue crystal fragments separated by veins of quartz
##STATUS=The identification of this mineral has been confirmed by X-ray diffraction and chemical analysis
##URL=rruff.info/R050274
##MEASURED CHEMISTRY=Ca_5.00_((P_0.97_Si_0.02_S_0.01_)O_4_)_3_(F_0.90_Cl_0.10_)
##PIN_ID=L00850
##ORIENTATION=Laser parallel to c* (0 0 1). Fiducial mark perpendicular to laser is parallel to b [0 1 0]
111.9760, 0.0000000E+00
113.2080, 2.9053001E-02
114.4400, 3.093262
115.6710, 2.156372
116.9030, 20.58752
118.1340, 29.94434
119.3650, 50.52856
120.5960, 41.07532
121.8270, 32.41370
123.0580, 25.40723
124.2880, 77.94080
125.5190, 64.94043
126.7490, 91.33679
127.9790, 139.0698
129.2090, 220.0979
130.4390, 301.4644
131.6680, 356.7441
132.8980, 412.9438
134.1270, 479.9404
135.3560, 510.0771
136.5850, 562.4312
137.8140, 527.9321
139.0430, 604.5562
140.2710, 643.2979
141.5000, 515.1133
142.7280, 444.0032
143.9560, 452.9812
145.1840, 364.0542
146.4120, 369.2207
147.6390, 398.4546
148.8670, 344.9636
150.0940, 371.2246
151.3210, 362.5671
152.5490, 378.8948
153.7750, 371.2517
155.0020, 315.9104
156.2290, 370.3345
157.4550, 299.8430
158.6810, 279.3777
159.9080, 327.5293
161.1340, 216.3811
162.3590, 193.4900
163.5850, 241.5400
164.8110, 170.6792
166.0360, 220.2581
167.2610, 190.6421
168.4860, 102.7070
169.7110, 132.2939
170.9360, 168.9641
172.1610, 109.7852
173.3850, 97.83276
174.6100, 173.9324
175.8340, 76.16406
177.0580, 84.40771
178.2820, 76.01978
179.5050, 88.49243
180.7290, 60.71948
181.9520, 40.93091
183.1760, 60.09424
184.3990, 9.209717
185.6220, 23.73560
186.8450, 35.26782
188.0670, 70.23047
189.2900, 11.15186
190.5120, 119.0337
191.7340, 39.88379
192.9560, 94.68677
194.1780, 60.61255
195.4000, 26.45435
196.6220, 8.856689
197.8430, 86.67969
199.0640, 35.68213
200.2860, 81.05054
201.5070, 86.60181
202.7270, 88.30176
203.9480, 55.09863
205.1690, 55.00732
206.3890, 16.71899
207.6090, 68.04712
208.8290, 18.97266
210.0490, 75.21411
211.2690, 0.6882320
212.4890, 71.17627
213.7080, 89.74341
214.9280, 8.736084
216.1470, 47.48364
217.3660, 18.65381
218.5850, 105.9053
219.8030, 58.77734
221.0220, 48.48169
222.2400, 17.11426
223.4590, 34.23926
224.6770, 70.02490
225.8950, 79.57520
227.1120, 129.3242
228.3300, 142.4102
229.5480, 123.0007
230.7650, 153.2920
231.9820, 128.4812
233.1990, 136.2363
234.4160, 156.3108
235.6330, 205.5007
236.8490, 157.3408
238.0660, 120.1599
239.2820, 172.5015
240.4980, 149.4285
241.7140, 173.1738
242.9300, 120.1348
244.1460, 123.5913
245.3610, 119.6824
246.5770, 149.8862
247.7920, 158.4585
249.0070, 183.4158
250.2220, 175.4658
251.4370, 158.8792
252.6510, 161.7859
253.8660, 162.4277
255.0800, 181.4341
256.2940, 234.8291
257.5080, 252.9851
258.7220, 319.5625
259.9360, 345.0410
261.1490, 294.8545
262.3630, 346.7407
263.5760, 443.3433
264.7890, 314.2349
266.0020, 395.7273
267.2150, 397.5288
268.4270, 328.2485
269.6400, 259.3921
270.8520, 385.8950
272.0640, 291.1914
273.2760, 238.4009
274.4880, 169.5386
275.7000, 297.8242
276.9120, 177.7969
278.1230, 238.9526
279.3340, 125.8259
280.5450, 173.3364
281.7560, 211.9185
282.9670, 172.3750
284.1780, 193.3335
285.3880, 156.8318
286.5980, 146.8862
287.8090, 146.8931
289.0190, 81.85156
290.2290, 32.75977
291.4380, 141.6157
292.6480, 89.41992
293.8570, 152.1721
295.0670, 207.8616
296.2760, 178.4993
297.4850, 160.0840
298.6930, 237.6155
299.9020, 197.0935
301.1110, 179.5164
302.3190, 171.8838
303.5270, 276.1956
304.7350, 236.4519
305.9430, 176.6453
307.1510, 258.7795
308.3580, 163.8550
309.5660, 219.8696
310.7730, 196.8245
311.9800, 178.7202
313.1870, 160.5537
314.3940, 195.3247
315.6010, 244.0356
316.8070, 201.8906
318.0130, 213.4790
319.2200, 98.36108
320.4260, 127.8228
321.6310, 102.5913
322.8370, 115.5164
324.0430, 91.59131
325.2480, 69.94336
326.4540, 28.78613
327.6590, 25.86646
328.8640, 94.77563
330.0680, 48.04443
331.2730, 60.38916
332.4780, 149.8062
333.6820, 24.88037
334.8860, 47.88623
336.0900, 44.64648
337.2940, 107.5811
338.4980, 14.25073
339.7010, 8.073975
340.9050, 121.2498
342.1080, 30.93237
343.3110, 8.569092
344.5140, 131.0601
345.7170, 20.62378
346.9200, 64.98999
348.1220, 52.21777
349.3240, 76.88818
350.5270, 32.45410
351.7290, 59.92334
352.9310, 51.38281
354.1320, 72.76367
355.3340, 26.88037
356.5350, 79.31250
357.7370, 17.52100
358.9380, 0.8491210
360.1390, 59.09277
361.3400, 36.41504
362.5400, 28.52783
363.7410, 10.03857
364.9410, 59.65820
366.1410, 34.98535
367.3410, 2.734863
368.5410, 47.58301
369.7410, 13.82764
370.9400, 33.31055
372.1400, 42.70020
373.3390, 89.89648
374.5380, 70.18311
375.7370, 50.33740
376.9360, 43.96094
378.1350, 41.25635
379.3330, 39.89160
380.5310, 80.48828
381.7300, 53.30811
382.9280, 130.9097
384.1260, 88.47900
385.3230, 6.380859
386.5210, 136.7324
387.7180, 115.6426
388.9160, 88.04785
390.1130, 83.31006
391.3100, 99.34375
392.5060, 114.3740
393.7030, 95.74268
394.9000, 73.11914
396.0960, 74.18506
397.2920, 103.1279
398.4880, 121.1157
399.6840, 143.6890
400.8800, 130.2090
402.0750, 159.8169
403.2710, 170.2583
404.4660, 114.9976
405.6610, 99.27246
406.8560, 176.5430
408.0510, 109.3442
409.2450, 207.2725
410.4400, 135.5103
411.6340, 152.8228
412.8280, 77.03467
414.0220, 198.6523
415.2160, 243.7896
416.4100, 259.6812
417.6030, 271.4814
418.7970, 230.1616
419.9900, 299.5391
421.1830, 249.1763
422.3760, 309.8652
423.5690, 389.2324
424.7610, 364.3091
425.9540, 386.5146
427.1460, 423.4917
428.3380, 430.8652
429.5300, 511.6230
430.7220, 530.8535
431.9140, 646.9844
433.1050, 801.7485
434.2970, 731.2085
435.4880, 872.0229
436.6790, 829.5225
437.8700, 933.1855
439.0610, 913.9800
440.2510, 1112.556
441.4420, 1124.956
442.6320, 1224.571
443.8220, 1201.930
445.0120, 1279.113
446.2020, 1117.163
447.3910, 1144.409
448.5810, 1029.526
449.7700, 992.2939
450.9600, 1000.267
452.1490, 809.7822
453.3370, 851.5459
454.5260, 806.9990
455.7150, 676.4521
456.9030, 547.5566
458.0910, 554.7061
459.2800, 424.9590
460.4670, 491.9302
461.6550, 389.8486
462.8430, 475.1846
464.0300, 386.5415
465.2180, 333.6899
466.4050, 281.7871
467.5920, 199.6753
468.7790, 305.3618
469.9650, 250.7285
471.1520, 237.9595
472.3380, 154.4272
473.5250, 223.5898
474.7110, 95.69775
475.8970, 152.0669
477.0820, 148.7266
478.2680, 193.4453
479.4540, 135.0415
480.6390, 181.7876
481.8240, 162.9023
483.0090, 47.49170
484.1940, 106.1768
485.3780, 119.0728
486.5630, 136.5820
487.7470, 29.69678
488.9320, 83.71289
490.1160, 53.37646
491.3000, 145.5220
492.4830, 9.018555
493.6670, 99.11230
494.8500, 3.729492
496.0340, 54.27783
497.2170, 64.72217
498.4000, 132.9893
499.5820, 40.57422
500.7650, 162.0664
501.9480, 121.4033
503.1300, 82.35889
504.3120, 53.26709
505.4940, 63.52148
506.6760, 34.49854
507.8580, 52.97217
509.0390, 109.2397
510.2210, 118.4531
511.4020, 16.46924
512.5830, 71.99365
513.7640, 72.15967
514.9450, 86.69678
516.1250, 73.98145
517.3060, 10.15381
518.4860, 19.34033
519.6660, 46.00781
520.8460, 30.37207
522.0260, 9.655273
523.2060, 100.6069
524.3850, 29.15283
525.5650, 113.5713
526.7440, 40.23535
527.9230, 112.9980
529.1020, 6.932129
530.2810, 20.44043
531.4590, 55.58008
532.6380, 101.1973
533.8160, 79.88232
534.9940, 57.56885
536.1720, 116.9541
537.3500, 33.69189
538.5270, 37.01221
539.7050, 20.81543
540.8820, 48.97168
542.0590, 18.20605
543.2360, 32.87646
544.4130, 9.245605
545.5900, 31.72949
546.7660, 38.57812
547.9430, 27.75977
549.1190, 88.56055
550.2950, 10.14600
551.4710, 16.91211
552.6470, 136.2100
553.8220, 137.2207
554.9980, 34.35156
556.1730, 107.3232
557.3480, 143.9971
558.5230, 143.1807
559.6980, 126.6309
560.8730, 5.209961
562.0470, 95.75391
563.2220, 79.85352
564.3960, 59.10254
565.5700, 152.3271
566.7440, 129.2031
567.9170, 244.2217
569.0910, 453.1914
570.2640, 296.4277
571.4380, 539.0879
572.6110, 657.6963
573.7840, 701.0859
574.9570, 1012.632
576.1290, 1279.582
577.3020, 1306.526
578.4740, 1446.753
579.6460, 1596.515
580.8180, 1494.193
581.9900, 1268.546
583.1620, 1184.133
584.3330, 1008.864
585.5040, 740.1777
586.6760, 716.5225
587.8470, 625.7783
589.0180, 536.0791
590.1880, 498.6514
591.3590, 456.0332
592.5290, 466.5859
593.7000, 409.5938
594.8700, 438.0244
596.0400, 394.9082
597.2090, 489.1182
598.3790, 455.9844
599.5490, 487.6787
600.7180, 600.7520
601.8870, 619.1387
603.0560, 809.8809
604.2250, 852.3164
605.3940, 903.5059
606.5620, 952.3281
607.7300, 997.5391
608.8990, 868.3828
610.0670, 828.8428
611.2350, 695.0869
612.4020, 640.8809
613.5700, 657.3262
614.7370, 556.9443
615.9050, 549.3262
617.0720, 594.4346
618.2390, 531.0605
619.4060, 452.4678
620.5720, 432.4521
621.7390, 479.4258
622.9050, 271.2979
624.0710, 369.3887
625.2370, 185.2803
626.4030, 184.9854
627.5690, 194.9863
628.7340, 303.6543
629.9000, 178.4502
631.0650, 215.0586
632.2300, 175.2246
633.3950, 174.7529
634.5600, 132.3506
635.7240, 239.2969
636.8890, 63.51953
638.0530, 243.1904
639.2170, 220.7812
640.3810, 162.5430
641.5450, 207.5967
642.7080, 269.9258
643.8720, 298.7412
645.0350, 174.4033
646.1980, 248.7686
647.3610, 256.2900
648.5240, 228.9814
649.6870, 260.3203
650.8490, 242.8652
652.0120, 244.6338
653.1740, 195.1318
654.3360, 254.9902
655.4980, 152.0703
656.6600, 166.8955
657.8210, 276.6289
658.9830, 94.81738
660.1440, 294.2197
661.3050, 282.3145
662.4660, 184.1816
663.6270, 34.80566
664.7870, 234.8955
665.9480, 176.9414
667.1080, 207.6045
668.2680, 112.4170
669.4280, 136.5654
670.5880, 213.9443
671.7480, 275.4131
672.9070, 262.0596
674.0670, 250.9229
675.2260, 277.9043
676.3850, 123.0547
677.5440, 197.9678
678.7030, 107.4277
679.8610, 2.375977
681.0200, 232.2959
682.1780, 312.8564
683.3360, 267.5088
684.4940, 334.8213
685.6520, 55.34863
686.8090, 40.47070
687.9670, 186.9746
689.1240, 215.8721
690.2810, 298.2480
691.4380, 222.7998
692.5950, 241.7920
693.7520, 323.9004
694.9080, 248.2451
696.0650, 101.1074
697.2210, 210.1387
698.3770, 134.0938
699.5330, 37.60840
700.6880, 328.5049
701.8440, 120.7617
702.9990, 185.9316
704.1550, 116.9590
705.3100, 215.9590
706.4650, 180.1494
707.6190, 205.7041
708.7740, 128.5537
709.9290, 267.5000
711.0830, 259.8975
712.2370, 53.46973
713.3910, 235.8809
714.5450, 363.5654
715.6980, 104.0137
716.8520, 256.1436
718.0050, 349.0332
719.1580, 109.3691
720.3110, 167.4131
721.4640, 97.16309
722.6170, 281.9961
723.7700, 384.4629
724.9220, 335.0869
726.0740, 343.3662
727.2260, 312.8818
728.3780, 228.0059
729.5300, 208.0674
730.6810, 240.6475
731.8330, 304.1123
732.9840, 182.8516
734.1350, 54.90430
735.2860, 196.8760
736.4370, 259.6357
737.5880, 281.7988
738.7380, 361.3506
739.8880, 315.9385
741.0390, 126.8672
742.1890, 266.3203
743.3380, 225.3262
744.4880, 240.5156
745.6380, 314.9912
746.7870, 300.5488
747.9360, 248.2158
749.0850, 228.1387
750.2340, 223.2520
751.3830, 129.2969
752.5310, 296.1279
753.6800, 203.7207
754.8280, 317.3027
755.9760, 171.9990
757.1240, 250.8262
758.2720, 282.1699
759.4190, 312.0303
760.5670, 299.3857
761.7140, 298.8818
762.8610, 229.3867
764.0080, 267.5166
765.1550, 195.1592
766.3020, 279.0762
767.4480, 378.1035
768.5950, 119.0928
769.7410, 352.5449
770.8870, 357.9775
772.0330, 405.1299
773.1780, 208.1934
774.3240, 409.2979
775.4690, 318.5566
776.6140, 418.0166
777.7590, 218.5850
778.9040, 301.6709
780.0490, 417.0068
781.1940, 239.7646
782.3380, 338.7490
783.4820, 283.8408
784.6260, 172.4922
785.7700, 150.5117
786.9140, 63.05859
788.0580, 244.4531
789.2010, 251.3320
790.3450, 267.3984
791.4880, 163.0488
792.6310, 355.4453
793.7730, 115.2051
794.9160, 124.1211
796.0590, 354.7422
797.2010, 294.7812
798.3430, 82.49414
799.4850, 307.2363
800.6270, 272.1738
801.7690, 402.3691
802.9100, 385.7422
804.0520, 355.9902
805.1930, 167.2930
806.3340, 371.1133
807.4750, 158.9609
808.6160, 124.0645
809.7560, 119.3457
810.8970, 267.4863
812.0370, 432.5000
813.1770, 199.5527
814.3170, 363.8770
815.4570, 222.4414
816.5960, 54.54688
817.7360, 192.1289
818.8750, 343.6211
820.0140, 95.37695
821.1530, 176.8613
822.2920, 253.5547
823.4310, 181.0195
824.5690, 49.34375
825.7070, 266.1992
826.8460, 319.0996
827.9840, 163.2988
829.1220, 238.1172
830.2590, 193.9336
831.3970, 24.00977
832.5340, 188.6836
833.6710, 165.6582
834.8080, 165.0098
835.9450, 234.9570
837.0820, 197.1816
838.2190, 228.8262
839.3550, 214.6816
840.4910, 209.5293
841.6270, 290.0098
842.7630, 202.8281
843.8990, 211.7930
845.0350, 88.02148
846.1700, 132.2188
847.3060, 156.9121
848.4410, 96.74414
849.5760, 114.3652
850.7100, 43.59961
851.8450, 8.603516
852.9800, 126.1777
854.1140, 8.5937999E-02
855.2480, 280.1953
856.3820, 90.86328
857.5160, 34.86133
858.6500, 102.1777
859.7830, 178.6191
860.9170, 123.7129
862.0500, 44.60742
863.1830, 119.9141
864.3160, 194.9199
865.4480, 9.228516
866.5810, 286.4512
867.7130, 294.7559
868.8460, 183.4336
869.9780, 115.9219
871.1100, 73.81641
872.2410, 146.5879
873.3730, 50.13867
874.5050, 157.9082
875.6360, 131.2246
876.7670, 50.75000
877.8980, 124.3945
879.0290, 56.81836
880.1590, 149.0078
881.2900, 300.8164
882.4200, 263.2715
883.5500, 55.83203
884.6800, 2.707031
885.8100, 74.19922
886.9400, 1.548828
888.0690, 103.2070
889.1990, 44.42188
890.3280, 2.429688
891.4570, 79.66016
892.5860, 52.19727
893.7140, 45.02344
894.8430, 222.7559
895.9710, 138.5801
897.1000, 16.72852
898.2280, 183.1484
899.3560, 85.90430
900.4830, 13.03516
901.6110, 108.7793
902.7380, 173.7969
903.8660, 113.8477
904.9930, 14.24219
906.1200, 132.2266
907.2460, 183.2871
908.3730, 138.6738
909.5000, 31.35938
910.6260, 116.8457
911.7520, 45.60742
912.8780, 58.91797
914.0040, 77.53516
915.1290, 60.45703
916.2550, 225.7871
917.3800, 180.3047
918.5050, 3.835938
919.6300, 12.70508
920.7550, 80.69727
921.8800, 4.525391
923.0040, 191.9023
924.1290, 57.96680
925.2530, 26.97656
926.3770, 256.9746
927.5010, 128.4629
928.6250, 9.679688
929.7480, 138.8105
930.8720, 81.12109
931.9950, 243.7852
933.1180, 50.37305
934.2410, 223.0000
935.3640, 67.50391
936.4860, 306.7969
937.6090, 211.5762
938.7310, 438.2207
939.8530, 549.6816
940.9750, 549.2930
942.0970, 526.7012
943.2180, 718.1641
944.3400, 887.4199
945.4610, 1000.598
946.5820, 1143.334
947.7030, 1523.695
948.8240, 1790.027
949.9450, 2073.988
951.0650, 2826.301
952.1860, 3346.854
953.3060, 4592.928
954.4260, 5797.576
955.5460, 7697.127
956.6650, 9990.996
957.7850, 12539.08
958.9040, 15852.80
960.0230, 18144.52
961.1420, 20572.47
962.2610, 20701.76
963.3800, 19993.10
964.4990, 17638.70
965.6170, 14779.04
966.7350, 11881.51
967.8530, 9570.703
968.9710, 7340.748
970.0890, 5480.727
971.2070, 4419.941
972.3240, 3421.945
973.4410, 2568.021
974.5580, 2008.988
975.6750, 1416.873
976.7920, 1135.041
977.9090, 1015.791
979.0250, 875.5254
980.1410, 536.7461
981.2580, 497.1426
982.3740, 304.4922
983.4890, 402.7188
984.6050, 139.7891
985.7200, 105.4531
986.8360, 305.2285
987.9510, 207.1934
989.0660, 144.2695
990.1810, 269.7754
991.2950, 160.4414
992.4100, 387.2734
993.5240, 45.10742
994.6390, 81.87695
995.7530, 32.54297
996.8660, 142.2598
997.9800, 212.7012
999.0940, 272.4160
1000.207, 249.0684
1001.320, 242.0781
1002.433, 195.0820
1003.546, 352.5742
1004.659, 89.74414
1005.772, 238.6953
1006.884, 453.9141
1007.996, 279.6055
1009.108, 206.7910
1010.220, 347.8223
1011.332, 424.3848
1012.444, 172.2324
1013.555, 368.4141
1014.666, 386.2910
1015.777, 218.7695
1016.888, 557.0547
1017.999, 385.1211
1019.110, 277.8184
1020.220, 460.2188
1021.331, 610.5742
1022.441, 469.0352
1023.551, 760.6230
1024.661, 649.1211
1025.770, 746.3965
1026.880, 852.4395
1027.989, 768.8594
1029.098, 776.6582
1030.207, 872.0820
1031.316, 865.1875
1032.425, 742.8203
1033.533, 594.9609
1034.642, 676.4883
1035.750, 560.6895
1036.858, 529.1484
1037.966, 373.0312
1039.073, 399.7773
1040.181, 229.0312
1041.288, 349.4902
1042.396, 434.7812
1043.503, 407.4082
1044.610, 518.0723
1045.716, 299.2129
1046.823, 489.0820
1047.929, 525.1660
1049.036, 322.5566
1050.142, 405.2480
1051.248, 425.9980
1052.353, 664.8691
1053.459, 671.4473
1054.564, 706.6523
1055.670, 891.6484
1056.775, 661.4473
1057.880, 686.4043
1058.985, 618.8027
1060.089, 541.1465
1061.194, 692.8164
1062.298, 444.5508
1063.402, 556.0859
1064.506, 411.3320
1065.610, 368.0078
1066.713, 338.6816
1067.817, 265.1211
1068.920, 485.5039
1070.023, 296.8359
1071.126, 406.1016
1072.229, 302.3066
1073.332, 388.4531
1074.435, 411.5508
1075.537, 566.5938
1076.639, 513.5820
1077.741, 439.5156
1078.843, 419.3340
1079.945, 288.1016
1081.046, 355.8242
1082.148, 316.5039
1083.249, 226.1367
1084.350, 335.7188
1085.451, 441.2520
1086.551, 207.7422
1087.652, 498.1934
1088.752, 179.2754
1089.853, 250.0723
1090.953, 266.2754
1092.053, 36.92188
1093.152, 246.0938
1094.252, 107.4766
1095.351, 466.2422
1096.451, 296.1445
1097.550, 286.0586
1098.649, 243.1680
1099.748, 190.0586
1100.846, 339.6094
1101.945, 499.6836
1103.043, 278.5352
1104.141, 295.3555
1105.239, 170.5039
1106.337, 158.1094
1107.434, 194.9180
1108.532, 200.7500
1109.629, 183.6094
1110.726, 156.4805
1111.823, 140.3633
1112.920, 129.3594
1114.017, 169.5625
1115.113, 107.5195
1116.210, 262.7188
1117.306, 334.6992
1118.402, 356.0430
1119.498, 392.5625
1120.593, 480.0586
1121.689, 266.5000
1122.784, 424.9375
1123.879, 190.4062
1124.974, 155.8984
1126.069, 115.4453
1127.164, 207.0352
1128.259, 190.7383
1129.353, 207.9766
1130.447, 210.3398
1131.541, 318.1211
1132.635, 194.8906
1133.729, 423.6406
1134.822, 412.3789
1135.916, 264.1094
1137.009, 351.8398
1138.102, 313.5703
1139.195, 405.3047
1140.288, 431.1367
1141.380, 398.1523
1142.473, 497.0000
1143.565, 323.3281
1144.657, 313.2500
1145.749, 292.2617
1146.841, 237.3789
1147.932, 307.5977
1149.024, 289.6289
1150.115, 253.2695
1151.206, 317.7422
1152.297, 354.1133
1153.388, 336.4141
1154.479, 377.4922
1155.569, 435.2656
1156.659, 355.1055
1157.750, 374.0273
1158.839, 343.2891
1159.929, 334.4883
1161.019, 298.8125
1162.108, 374.0703
1163.198, 411.7500
1164.287, 506.8984
1165.376, 484.4922
1166.465, 204.2266
1167.553, 277.1523
1168.642, 309.0820
1169.730, 98.26953
1170.818, 406.7305
1171.906, 643.4922
1172.994, 531.5938
1174.082, 403.1133
1175.170, 239.0586
1176.257, 333.5039
1177.344, 271.5234
1178.431, 78.79297
1179.518, 117.6719
1180.605, 287.0352
1181.691, 172.0664
1182.778, 406.0742
1183.864, 512.2930
1184.950, 461.9531
1186.036, 76.98438
1187.122, 432.2148
1188.207, 127.6562
1189.292, 134.4492
1190.378, 209.0273
1191.463, 0.0000000E+00
##END=



