##NAMES=Fluorapophyllite-(K)
##RRUFFID=R050021
##IDEAL CHEMISTRY=KCa_4_Si_8_O_20_F&#183;8H_2_O
##LOCALITY=Poona, Maharashtra State, India
##OWNER=RRUFF
##SOURCE=Eugene Schlepp
##DESCRIPTION=Colorless tetragonal prisms
##STATUS=The identification of this mineral has been confirmed by X-ray diffraction and chemical analysis
##URL=rruff.info/R050021
##MEASURED CHEMISTRY=(K_0.98_Na_0.02_)_Σ=1_Ca_4.00_Si_8.00_O_20_(F_0.84_(OH)_0.16_)_Σ=1_·8H_2_O
##PIN_ID=L00290
##ORIENTATION=Laser parallel to a* (1 0 0). Fiducial mark perpendicular to laser is parallel to -c [0 0 -1]
121.897, 0.000
123.286, 0.119
124.675, 221.564
126.063, 233.792
127.452, 292.549
128.840, 325.607
130.228, 10.797
131.615, 362.869
133.003, 37.503
134.390, 211.037
135.777, 100.492
137.164, 334.188
138.550, 357.360
139.937, 366.000
141.323, 532.119
142.709, 272.766
144.094, 217.996
145.480, 198.709
146.865, 105.767
148.250, 201.011
149.635, 24.329
151.019, 326.641
152.403, 102.910
153.788, 389.163
155.171, 320.499
156.555, 599.360
157.939, 1018.743
159.322, 1398.236
160.705, 2361.118
162.088, 3330.868
163.470, 5050.903
164.853, 6651.959
166.235, 8662.981
167.617, 9423.640
168.998, 8104.381
170.380, 6334.629
171.761, 4124.337
173.142, 2903.534
174.523, 2042.333
175.904, 1421.690
177.284, 1145.629
178.664, 720.289
180.044, 793.548
181.424, 584.432
182.803, 531.340
184.183, 529.420
185.562, 449.258
186.940, 663.412
188.319, 535.615
189.698, 707.010
191.076, 502.307
192.454, 985.677
193.831, 990.866
195.209, 984.213
196.586, 1167.393
197.963, 912.677
199.340, 981.717
200.717, 753.819
202.093, 709.261
203.470, 605.458
204.846, 437.871
206.221, 603.404
207.597, 308.331
208.972, 531.899
210.347, 372.069
211.722, 384.078
213.097, 352.249
214.472, 302.819
215.846, 535.930
217.220, 342.959
218.594, 594.964
219.967, 517.117
221.341, 381.639
222.714, 694.288
224.087, 586.259
225.460, 1014.100
226.832, 1064.456
228.204, 1375.157
229.577, 1575.077
230.948, 1555.828
232.320, 1745.927
233.692, 1150.982
235.063, 1211.030
236.434, 775.770
237.805, 759.667
239.175, 638.432
240.545, 399.205
241.916, 504.408
243.286, 151.895
244.655, 375.567
246.025, 192.359
247.394, 116.227
248.763, 269.886
250.132, 85.539
251.501, 302.185
252.869, 49.823
254.237, 146.455
255.605, 96.082
256.973, 32.706
258.340, 199.327
259.708, 69.052
261.075, 174.571
262.442, 22.805
263.808, 147.822
265.175, 112.451
266.541, 22.919
267.907, 289.707
269.273, 18.329
270.639, 83.942
272.004, 37.455
273.369, 50.110
274.734, 96.626
276.099, 65.872
277.463, 138.600
278.828, 153.935
280.192, 43.496
281.556, 65.094
282.919, 35.745
284.283, 93.537
285.646, 122.224
287.009, 64.064
288.372, 193.271
289.734, 45.998
291.097, 114.080
292.459, 194.833
293.821, 202.067
295.183, 14.900
296.544, 195.158
297.905, 30.948
299.266, 76.097
300.627, 69.125
301.988, 96.854
303.348, 155.124
304.709, 122.910
306.069, 239.004
307.428, 60.901
308.788, 22.777
310.147, 224.630
311.507, 43.540
312.865, 278.249
314.224, 69.825
315.583, 51.566
316.941, 283.281
318.299, 25.028
319.657, 266.627
321.015, 168.254
322.372, 139.854
323.729, 121.423
325.086, 72.961
326.443, 184.465
327.800, 14.068
329.156, 207.350
330.512, 31.272
331.868, 110.056
333.224, 241.345
334.579, 72.598
335.935, 243.814
337.290, 5.000
338.645, 296.150
339.999, 117.272
341.354, 38.369
342.708, 329.439
344.062, 59.514
345.416, 231.494
346.769, 32.477
348.123, 263.436
349.476, 204.369
350.829, 55.277
352.182, 306.147
353.534, 86.976
354.887, 277.713
356.239, 98.392
357.591, 129.056
358.942, 209.671
360.294, 0.258
361.645, 180.786
362.996, 128.752
364.347, 241.573
365.698, 211.838
367.048, 32.067
368.398, 342.219
369.748, 12.256
371.098, 322.188
372.448, 152.120
373.797, 212.034
375.146, 421.953
376.495, 161.826
377.844, 541.627
379.192, 361.449
380.540, 511.255
381.889, 671.070
383.236, 550.957
384.584, 880.835
385.932, 630.748
387.279, 1280.672
388.626, 1130.597
389.973, 1400.601
391.319, 1790.617
392.666, 1920.727
394.012, 2450.843
395.358, 2540.971
396.704, 2861.133
398.049, 3081.307
399.394, 2921.539
400.740, 3301.781
402.084, 2902.036
403.429, 3022.307
404.774, 2702.586
406.118, 2452.401
407.462, 2452.694
408.806, 1662.746
410.150, 1942.432
411.493, 1372.814
412.836, 1312.255
414.179, 1272.667
415.522, 871.514
416.865, 1191.639
418.207, 721.448
419.549, 980.035
420.891, 930.467
422.233, 653.251
423.575, 1073.645
424.916, 749.552
426.257, 1429.894
427.598, 1550.114
428.939, 1976.333
430.279, 2757.023
431.619, 2985.945
432.959, 3436.154
434.299, 2461.918
435.639, 2131.891
436.978, 1512.326
438.318, 806.657
439.657, 1067.328
440.996, 376.345
442.334, 516.531
443.673, 401.361
445.011, 158.142
446.349, 488.807
447.687, 30.383
449.024, 320.968
450.361, 218.221
451.699, 188.737
453.036, 339.612
454.372, 103.076
455.709, 437.958
457.045, 146.578
458.381, 377.634
459.717, 495.348
461.053, 186.132
462.388, 446.899
463.724, 270.629
465.059, 451.727
466.394, 483.922
467.728, 515.037
469.063, 955.846
470.397, 746.432
471.731, 1257.572
473.065, 1085.004
474.398, 1566.163
475.732, 2227.089
477.065, 2487.954
478.398, 3969.143
479.731, 4938.000
481.063, 7229.209
482.396, 9260.431
483.728, 11321.657
485.060, 13752.896
486.391, 12593.971
487.723, 11955.235
489.054, 9255.166
490.385, 6886.447
491.716, 5645.416
493.047, 3846.722
494.377, 3278.082
495.708, 2519.326
497.038, 2090.710
498.368, 2151.440
499.697, 1382.850
501.027, 1744.307
502.356, 1255.546
503.685, 1367.029
505.014, 1494.921
506.342, 1106.432
507.671, 1547.740
508.999, 1189.286
510.327, 1480.846
511.655, 1482.317
512.982, 1203.904
514.310, 1775.506
515.637, 1457.123
516.964, 1818.755
518.291, 1880.401
519.617, 1952.063
520.944, 2773.433
522.270, 2295.126
523.596, 3089.648
524.921, 3131.376
526.247, 3443.119
527.572, 4214.791
528.897, 4426.570
530.222, 5658.214
531.547, 5622.393
532.871, 6814.230
534.196, 7396.088
535.520, 7817.965
536.844, 8989.858
538.167, 8741.794
539.491, 9333.728
540.814, 9145.681
542.137, 8691.204
543.460, 9043.193
544.783, 7809.637
546.105, 7751.663
547.427, 7303.704
548.749, 6675.403
550.071, 6807.479
551.393, 5668.269
552.714, 6340.377
554.035, 5772.502
555.356, 5455.349
556.677, 5817.500
557.998, 5369.453
559.318, 5761.637
560.638, 5583.832
561.958, 5786.042
563.278, 6188.266
564.597, 5957.051
565.917, 6889.305
567.236, 6771.570
568.555, 7794.969
569.874, 8157.270
571.192, 8769.727
572.511, 10432.055
573.829, 11044.396
575.147, 13367.704
576.464, 14610.099
577.782, 16532.502
579.099, 19544.932
580.416, 20797.367
581.733, 24071.316
583.050, 24843.812
584.366, 25576.480
585.683, 25979.020
586.999, 22631.570
588.315, 21893.746
589.630, 18146.332
590.946, 15358.935
592.261, 13621.550
593.576, 10534.198
594.891, 9604.553
596.206, 7597.225
597.520, 6309.932
598.834, 6062.797
600.148, 4535.579
601.462, 4404.146
602.776, 3646.976
604.089, 3199.830
605.402, 3293.367
606.715, 2336.279
608.028, 2698.124
609.341, 2051.110
610.653, 1944.105
611.965, 1917.280
613.277, 1368.496
614.589, 1841.870
615.901, 1235.016
617.212, 1278.167
618.523, 1671.340
619.834, 894.521
621.145, 1558.224
622.456, 1061.449
623.766, 1204.679
625.076, 1367.954
626.386, 841.233
627.696, 1474.521
629.006, 1007.817
630.315, 1101.119
631.624, 1094.443
632.933, 517.771
634.242, 1271.106
635.551, 634.446
636.859, 867.792
638.167, 1001.153
639.475, 574.532
640.783, 1217.915
642.090, 641.303
643.398, 834.695
644.705, 968.092
646.012, 661.492
647.318, 1314.903
648.625, 758.317
649.931, 851.748
651.237, 1014.276
652.543, 507.712
653.849, 1271.151
655.155, 624.594
656.460, 988.042
657.765, 849.427
659.070, 602.879
660.375, 986.334
661.679, 529.791
662.984, 753.266
664.288, 818.585
665.592, 292.064
666.895, 915.543
668.199, 449.023
669.502, 662.517
670.805, 636.009
672.108, 159.502
673.411, 753.006
674.713, 96.510
676.016, 420.014
677.318, 613.715
678.620, 137.221
679.921, 620.728
681.223, 124.266
682.524, 317.803
683.825, 381.418
685.126, 54.955
686.427, 538.527
687.727, 37.034
689.028, 446.512
690.328, 270.104
691.628, 63.694
692.927, 517.282
694.227, 10.869
695.526, 404.451
696.825, 318.031
698.124, 208.391
699.423, 585.066
700.721, 61.477
702.020, 321.932
703.318, 385.346
704.616, 301.244
705.913, 491.994
707.211, 284.771
708.508, 168.301
709.805, 261.367
711.102, 155.567
712.399, 187.397
713.695, 139.640
714.992, 253.232
716.288, 216.100
717.584, 48.964
718.879, 481.824
720.175, 85.319
721.470, 107.474
722.765, 330.262
724.060, 156.152
725.355, 446.529
726.649, 29.206
727.944, 221.876
729.238, 354.541
730.532, 148.809
731.825, 413.749
733.119, 116.303
734.412, 238.851
735.705, 201.394
736.998, 3.931
738.291, 586.445
739.584, 38.954
740.876, 231.455
742.168, 403.948
743.460, 123.564
744.752, 538.835
746.043, 71.226
747.334, 153.611
748.626, 475.990
749.916, 91.635
751.207, 640.664
752.498, 82.956
753.788, 46.825
755.078, 599.102
756.368, 58.627
757.658, 543.585
758.947, 125.790
760.237, 27.987
761.526, 600.169
762.815, 107.656
764.104, 414.432
765.392, 306.512
766.680, 48.585
767.969, 470.648
769.257, 42.712
770.544, 487.313
771.832, 169.356
773.119, 241.391
774.406, 463.416
775.693, 45.432
776.980, 387.434
778.267, 349.426
779.553, 101.408
780.839, 693.383
782.125, 195.348
783.411, 647.600
784.697, 479.547
785.982, 171.482
787.267, 1053.412
788.552, 225.332
789.837, 807.242
791.122, 939.143
792.406, 411.037
793.690, 1225.748
794.974, 467.621
796.258, 809.484
797.542, 781.340
798.825, 243.184
800.108, 905.020
801.391, 366.846
802.674, 448.662
803.957, 740.469
805.239, 97.734
806.522, 693.975
807.804, 105.674
809.085, 227.361
810.367, 609.041
811.649, 79.287
812.930, 702.303
814.211, 143.883
815.492, 235.455
816.772, 877.018
818.053, 18.568
819.333, 540.096
820.613, 381.609
821.893, 223.117
823.173, 746.805
824.452, 88.293
825.732, 489.771
827.011, 533.217
828.290, 94.676
829.568, 796.217
830.847, 67.658
832.125, 459.094
833.403, 460.523
834.681, 161.943
835.959, 853.354
837.236, 74.754
838.514, 346.145
839.791, 755.984
841.068, 47.355
842.345, 706.352
843.621, 288.182
844.898, 419.516
846.174, 650.840
847.450, 132.156
848.726, 573.439
850.001, 334.736
851.277, 476.023
852.552, 903.746
853.827, 85.018
855.102, 701.840
856.376, 474.211
857.651, 385.457
858.925, 1087.074
860.199, 348.322
861.473, 720.869
862.746, 632.105
864.020, 283.338
865.293, 813.854
866.566, 95.078
867.839, 556.510
869.112, 667.727
870.384, 158.936
871.656, 780.141
872.928, 191.344
874.200, 305.996
875.472, 757.191
876.744, 8.387
878.015, 638.455
879.286, 419.635
880.557, 130.668
881.828, 711.844
883.098, 56.982
884.369, 703.225
885.639, 474.361
886.909, 125.496
888.178, 726.629
889.448, 87.777
890.717, 827.453
891.987, 638.600
893.256, 129.607
894.524, 920.766
895.793, 351.951
897.061, 603.545
898.330, 744.732
899.598, 196.002
900.865, 927.273
902.133, 368.547
903.401, 342.127
904.668, 853.404
905.935, 25.316
907.202, 825.811
908.468, 507.078
909.735, 182.576
911.001, 833.850
912.267, 75.125
913.533, 555.732
914.799, 607.016
916.064, 99.379
917.330, 760.668
918.595, 51.965
919.860, 443.092
921.124, 684.398
922.389, 224.596
923.653, 776.611
924.918, 127.820
926.182, 199.035
927.445, 580.258
928.709, 50.969
929.972, 662.225
931.236, 453.486
932.499, 84.756
933.761, 966.029
935.024, 2.689
936.286, 558.596
937.549, 539.883
938.811, 111.178
940.073, 982.479
941.334, 163.789
942.596, 355.104
943.857, 746.426
945.118, 62.244
946.379, 949.066
947.640, 240.385
948.900, 331.709
950.161, 753.043
951.421, 14.387
952.681, 775.736
953.940, 597.094
955.200, 178.459
956.459, 1069.834
957.719, 192.123
958.978, 603.516
960.236, 714.920
961.495, 56.332
962.753, 927.756
964.012, 331.254
965.270, 322.697
966.527, 834.150
967.785, 55.613
969.043, 487.088
970.300, 556.732
971.557, 138.229
972.814, 789.738
974.071, 58.742
975.327, 522.770
976.583, 534.293
977.840, 54.172
979.095, 777.355
980.351, 1.102
981.607, 300.449
982.862, 563.379
984.117, 14.971
985.372, 556.570
986.627, 348.184
987.882, 59.811
989.136, 741.371
990.390, 186.977
991.644, 454.613
992.898, 285.352
994.152, 223.006
995.405, 528.555
996.659, 80.133
997.912, 191.723
999.165, 523.326
1000.417, 54.941
1001.670, 886.572
1002.922, 638.219
1004.174, 269.939
1005.426, 1031.674
1006.678, 36.555
1007.930, 685.223
1009.181, 820.822
1010.432, 62.717
1011.683, 1004.627
1012.934, 316.631
1014.185, 518.650
1015.435, 1030.688
1016.685, 12.787
1017.935, 1014.904
1019.185, 597.080
1020.435, 479.271
1021.684, 1291.480
1022.934, 323.707
1024.183, 1125.951
1025.432, 1028.238
1026.680, 290.547
1027.929, 1562.086
1029.177, 614.496
1030.425, 866.922
1031.673, 1399.367
1032.921, 461.832
1034.169, 1300.322
1035.416, 1072.869
1036.663, 735.436
1037.911, 1938.021
1039.157, 813.623
1040.404, 1686.250
1041.650, 2038.904
1042.897, 1333.432
1044.143, 2786.127
1045.389, 2125.541
1046.634, 2738.277
1047.880, 3961.074
1049.125, 3372.795
1050.371, 5435.625
1051.615, 6098.480
1052.860, 7081.350
1054.105, 10584.273
1055.349, 12267.221
1056.593, 17468.602
1057.837, 22041.582
1059.081, 25454.584
1060.325, 31337.625
1061.568, 29600.703
1062.812, 27593.799
1064.055, 25136.891
1065.298, 18770.006
1066.540, 16413.174
1067.783, 13236.359
1069.025, 10109.574
1070.267, 9932.801
1071.509, 7086.039
1072.751, 6296.756
1073.993, 6320.037
1075.234, 4303.340
1076.475, 4806.660
1077.716, 4000.000
1078.957, 3099.043
1080.198, 3872.426
1081.438, 2515.832
1082.679, 2769.254
1083.919, 2972.699
1085.159, 1735.871
1086.398, 2989.357
1087.638, 2162.863
1088.877, 1976.391
1090.116, 2479.941
1091.355, 1423.514
1092.594, 2267.104
1093.833, 2000.717
1095.071, 1071.521
1096.309, 2145.178
1097.547, 1338.855
1098.785, 1212.707
1100.023, 1926.418
1101.260, 810.154
1102.498, 1493.912
1103.735, 1377.695
1104.972, 821.500
1106.208, 1815.330
1107.445, 739.225
1108.681, 1073.145
1109.918, 1517.088
1111.154, 501.027
1112.389, 1305.072
1113.625, 809.098
1114.860, 473.148
1116.096, 1097.225
1117.331, 311.326
1118.566, 805.455
1119.800, 959.617
1121.035, 273.803
1122.269, 1298.016
1123.503, 620.062
1124.737, 544.328
1125.971, 1218.594
1127.205, 310.912
1128.438, 865.213
1129.671, 1099.400
1130.904, 46.445
1132.137, 1201.178
1133.370, 515.371
1134.602, 629.592
1135.834, 1103.832
1137.066, 238.098
1138.298, 812.387
1139.530, 948.240
1140.762, 232.578
1141.993, 1229.572
1143.224, 453.480
1144.455, 357.895
1145.686, 1312.281
1146.917, 66.689
1148.147, 791.125
1149.377, 805.584
1150.607, 200.066
1151.837, 1264.910
1153.067, 179.441
1154.296, 444.000
1155.526, 1258.596
1156.755, 106.799
1157.984, 1027.814
1159.213, 672.449
1160.441, 237.111
1161.670, 1172.170
1162.898, 236.879
1164.126, 371.611
1165.354, 1236.545
1166.581, 101.326
1167.809, 866.131
1169.036, 651.314
1170.263, 136.168
1171.490, 1221.467
1172.717, 176.322
1173.943, 721.205
1175.170, 910.475
1176.396, 5.424
1177.622, 1160.352
1178.848, 556.199
1180.073, 81.189
1181.299, 1246.211
1182.524, 171.277
1183.749, 416.348
1184.974, 1022.600
1186.199, 82.262
1187.423, 1062.887
1188.648, 369.350
1189.872, 55.439
1191.096, 1089.791
1192.320, 154.029
1193.543, 521.076
1194.767, 606.357
1195.990, 348.506
1197.213, 1086.578
1198.436, 262.824
1199.659, 47.914
1200.881, 952.949
1202.104, 189.195
1203.326, 704.186
1204.548, 999.201
1205.770, 74.098
1206.991, 1088.814
1208.213, 488.488
1209.434, 203.066
1210.655, 1262.537
1211.876, 147.689
1213.096, 812.875
1214.317, 1168.092
1215.537, 23.396
1216.757, 1328.795
1217.977, 624.227
1219.197, 259.639
1220.417, 1445.088
1221.636, 120.574
1222.855, 756.094
1224.074, 1251.645
1225.293, 122.770
1226.512, 1222.871
1227.731, 778.557
1228.949, 164.283
1230.167, 1500.043
1231.385, 205.836
1232.603, 921.664
1233.820, 1237.529
1235.038, 143.430
1236.255, 1269.363
1237.472, 995.332
1238.689, 291.336
1239.906, 1467.377
1241.122, 543.473
1242.338, 699.617
1243.555, 1405.816
1244.771, 59.996
1245.986, 1056.211
1247.202, 792.465
1248.417, 208.807
1249.633, 1655.229
1250.848, 201.799
1252.063, 748.418
1253.277, 1445.080
1254.492, 151.789
1255.706, 1198.545
1256.920, 1189.768
1258.134, 116.547
1259.348, 1443.377
1260.562, 710.246
1261.775, 507.164
1262.988, 1314.125
1264.201, 331.133
1265.414, 1008.184
1266.627, 1055.225
1267.839, 182.307
1269.052, 1499.436
1270.264, 756.613
1271.476, 538.674
1272.688, 1615.850
1273.899, 289.789
1275.111, 814.955
1276.322, 1487.531
1277.533, 75.895
1278.744, 1150.705
1279.955, 987.322
1281.165, 223.979
1282.376, 1560.637
1283.586, 207.354
1284.796, 704.156
1286.006, 1450.986
1287.215, 52.125
1288.425, 974.807
1289.634, 751.775
1290.843, 316.107
1292.052, 1592.918
1293.261, 279.756
1294.469, 376.619
1295.678, 1453.508
1296.886, 130.422
1298.094, 1037.355
1299.302, 954.311
1300.509, 9.111
1301.717, 1407.920
1302.924, 614.959
1304.131, 401.998
1305.338, 1519.035
1306.545, 156.139
1307.752, 993.074
1308.958, 870.229
1310.164, 217.365
1311.370, 1354.480
1312.576, 711.570
1313.782, 188.705
1314.987, 1385.943
1316.193, 184.146
1317.398, 879.877
1318.603, 1418.381
1319.807, 73.031
1321.012, 1365.646
1322.216, 1032.998
1323.421, 91.684
1324.625, 1500.732
1325.829, 319.906
1327.032, 607.527
1328.236, 1580.924
1329.439, 70.221
1330.642, 1169.670
1331.845, 1147.004
1333.048, 75.562
1334.251, 1565.408
1335.453, 822.922
1336.656, 170.219
1337.858, 1765.242
1339.060, 354.143
1340.261, 674.877
1341.463, 1443.301
1342.664, 138.998
1343.866, 1346.102
1345.067, 1024.533
1346.267, 163.117
1347.468, 1515.045
1348.669, 548.441
1349.869, 570.371
1351.069, 1606.334
1352.269, 3.822
1353.469, 706.732
1354.668, 0.000
##END=



