##NAMES=Fluorapophyllite-(K)
##RRUFFID=R050084
##IDEAL CHEMISTRY=KCa_4_Si_8_O_20_F&#183;8H_2_O
##LOCALITY=near Ahmednagar, Maharashtra, India
##OWNER=RRUFF
##SOURCE=Rock Currier
##DESCRIPTION=Greenish-white prismatic single crystal associated with scolecite
##STATUS=The identification of this mineral has been confirmed by X-ray diffraction and chemical analysis
##URL=rruff.info/R050084
##MEASURED CHEMISTRY=(K_0.98_Na_0.02_)Ca_4.00_Si_8.00_O_20_F_1.00_Â·8H_2_O
##PIN_ID=L00295
##ORIENTATION=Laser parallel to -a* (-1 0 0). Fiducial mark perpendicular to laser is parallel to -c [0 0 -1]
71.917, 0.000
73.319, 4.973
74.721, 53.144
76.123, 121.917
77.525, 123.468
78.926, 209.019
80.327, 229.803
81.728, 348.164
83.128, 270.552
84.529, 372.845
85.929, 743.054
87.329, 1026.942
88.728, 1018.132
90.128, 1220.318
91.527, 1648.220
92.926, 2117.324
94.324, 2391.656
95.723, 2390.012
97.121, 2397.994
98.519, 2500.906
99.917, 2636.570
101.314, 2699.888
102.712, 3061.433
104.109, 3832.869
105.505, 6873.134
106.902, 12639.957
108.298, 17723.832
109.694, 20055.908
111.090, 11596.811
112.486, 6783.025
113.881, 3746.039
115.277, 2369.472
116.672, 1904.979
118.066, 2137.394
119.461, 2185.532
120.855, 982.048
122.249, 552.535
123.643, 351.979
125.036, 264.125
126.430, 284.834
127.823, 226.798
129.216, 265.109
130.608, 128.796
132.001, 115.544
133.393, 8.644
134.785, 2.005
136.176, 20.075
137.568, 36.618
138.959, 76.361
140.350, 225.095
141.741, 304.205
143.131, 214.457
144.521, 102.343
145.911, 38.982
147.301, 32.731
148.691, 49.005
150.080, 159.126
151.469, 15.752
152.858, 45.724
154.247, 70.973
155.635, 81.147
157.024, 184.397
158.411, 409.522
159.799, 528.373
161.187, 1211.094
162.574, 1679.070
163.961, 2758.514
165.348, 4553.554
166.734, 6168.800
168.121, 6422.773
169.507, 7370.404
170.893, 6340.843
172.278, 4206.896
173.664, 2812.851
175.049, 2077.457
176.434, 1309.279
177.819, 1158.127
179.203, 710.791
180.587, 641.058
181.971, 571.505
183.355, 403.389
184.739, 395.809
186.122, 311.346
187.505, 343.492
188.888, 327.367
190.271, 394.002
191.653, 443.662
193.035, 530.448
194.417, 693.020
195.799, 640.174
197.180, 816.194
198.562, 682.796
199.943, 652.157
201.324, 502.987
202.704, 351.029
204.084, 388.950
205.465, 176.871
206.844, 175.522
208.224, 122.867
209.603, 59.927
210.983, 24.748
212.362, 32.468
213.740, 26.263
215.119, 74.156
216.497, 5.871
217.875, 29.844
219.253, 9.080
220.631, 27.355
222.008, 0.487
223.385, 203.265
224.762, 202.836
226.139, 378.152
227.515, 531.278
228.891, 727.237
230.267, 987.066
231.643, 1027.807
233.018, 1226.487
234.394, 880.119
235.769, 834.703
237.144, 558.241
238.518, 391.449
239.893, 275.903
241.267, 120.951
242.641, 118.008
244.014, 10.015
245.388, 29.075
246.761, 18.299
248.134, 60.677
249.507, 25.240
250.879, 110.989
252.252, 35.952
253.624, 88.118
254.996, 53.515
256.367, 54.136
257.739, 73.998
259.110, 45.120
260.481, 74.483
261.852, 46.081
263.222, 51.899
264.592, 68.938
265.962, 12.205
267.332, 60.692
268.702, 29.523
270.071, 2.463
271.440, 24.896
272.809, 16.566
274.178, 84.172
275.546, 9.743
276.915, 75.785
278.283, 8.677
279.650, 0.763
281.018, 2.015
282.385, 7.323
283.752, 19.782
285.119, 51.631
286.486, 8.077
287.852, 36.088
289.218, 4.132
290.584, 9.739
291.950, 51.290
293.316, 43.448
294.681, 118.610
296.046, 77.043
297.411, 124.219
298.775, 147.119
300.140, 123.544
301.504, 165.338
302.868, 143.069
304.231, 138.309
305.595, 123.291
306.958, 164.411
308.321, 134.895
309.684, 112.290
311.047, 199.462
312.409, 145.905
313.771, 155.984
315.133, 151.397
316.495, 121.780
317.856, 173.257
319.217, 112.482
320.578, 155.790
321.939, 165.932
323.299, 142.917
324.660, 189.971
326.020, 132.874
327.380, 209.596
328.739, 181.148
330.099, 165.538
331.458, 153.774
332.817, 134.868
334.176, 173.832
335.534, 113.685
336.892, 160.439
338.251, 123.075
339.608, 167.599
340.966, 162.039
342.323, 153.398
343.681, 188.679
345.037, 147.889
346.394, 175.908
347.751, 173.173
349.107, 171.363
350.463, 147.162
351.819, 126.059
353.174, 164.854
354.530, 139.893
355.885, 144.107
357.240, 152.653
358.594, 158.367
359.949, 163.431
361.303, 168.730
362.657, 168.281
364.011, 187.847
365.365, 181.135
366.718, 212.768
368.071, 170.540
369.424, 249.210
370.777, 222.864
372.129, 248.075
373.481, 266.417
374.833, 220.769
376.185, 321.846
377.537, 278.373
378.888, 376.964
380.239, 329.907
381.590, 357.412
382.941, 547.288
384.291, 491.130
385.642, 687.687
386.992, 680.536
388.341, 844.387
389.691, 974.971
391.040, 1053.075
392.389, 1444.166
393.738, 1455.246
395.087, 1988.320
396.435, 2080.383
397.784, 2316.445
399.132, 2778.504
400.479, 2528.552
401.827, 3063.198
403.174, 2745.310
404.521, 2797.600
405.868, 2730.809
407.215, 2293.702
408.561, 2367.185
409.908, 1811.300
411.254, 1799.718
412.599, 1499.316
413.945, 1262.492
415.290, 1253.350
416.636, 942.906
417.980, 1025.611
419.325, 854.245
420.670, 791.608
422.014, 822.770
423.358, 705.066
424.702, 874.141
426.045, 743.838
427.389, 904.463
428.732, 1068.656
430.075, 1310.799
431.417, 1965.493
432.760, 2278.612
434.102, 2293.276
435.444, 2636.495
436.786, 1999.187
438.127, 1530.542
439.469, 960.799
440.810, 788.294
442.151, 518.319
443.492, 471.521
444.832, 408.196
446.172, 210.124
447.512, 325.958
448.852, 221.701
450.192, 247.405
451.531, 236.759
452.870, 170.192
454.209, 227.037
455.548, 184.831
456.887, 264.202
458.225, 178.292
459.563, 217.691
460.901, 301.199
462.238, 261.625
463.576, 359.232
464.913, 376.778
466.250, 412.547
467.587, 733.786
468.923, 463.433
470.259, 693.958
471.596, 655.397
472.931, 976.216
474.267, 1096.857
475.603, 1236.557
476.938, 1796.348
478.273, 1952.054
479.608, 2955.029
480.942, 3602.764
482.276, 4957.695
483.611, 7387.676
484.944, 8586.568
486.278, 12244.661
487.612, 11522.519
488.945, 11230.707
490.278, 9618.784
491.611, 6400.806
492.943, 5778.789
494.276, 3734.705
495.608, 3201.796
496.940, 2633.648
498.271, 1923.709
499.603, 2000.628
500.934, 1400.749
502.265, 1512.862
503.596, 1351.956
504.927, 1195.217
506.257, 1319.326
507.587, 1032.573
508.917, 1224.831
510.247, 1073.104
511.577, 1065.298
512.906, 1270.435
514.235, 1129.757
515.564, 1387.997
516.892, 1312.275
518.221, 1471.608
519.549, 1703.992
520.877, 1520.417
522.205, 2136.885
523.533, 1936.377
524.860, 2365.969
526.187, 2625.558
527.514, 2667.303
528.841, 3577.895
530.167, 3352.845
531.493, 4265.713
532.820, 4713.720
534.145, 5115.088
535.471, 6368.063
536.796, 5888.640
538.122, 7528.767
539.447, 7413.943
540.771, 7492.176
542.096, 8459.417
543.420, 7030.925
544.744, 8128.232
546.068, 6941.598
547.392, 6809.654
548.715, 6941.003
550.039, 5713.040
551.362, 6802.405
552.684, 7815.780
554.007, 5639.269
555.329, 5651.832
556.652, 4856.002
557.973, 5774.967
559.295, 4928.374
560.617, 5329.901
561.938, 5441.432
563.259, 5148.615
564.580, 6053.067
565.901, 5405.636
567.221, 6376.539
568.541, 6482.057
569.861, 6478.522
571.181, 7947.112
572.501, 7400.732
573.820, 9209.402
575.139, 9510.819
576.458, 10423.669
577.777, 12953.478
579.095, 12494.501
580.414, 16357.614
581.732, 16797.523
583.049, 18651.656
584.367, 21922.674
585.685, 19705.680
587.002, 23360.182
588.319, 19941.449
589.636, 18885.076
590.952, 18066.734
592.268, 13276.912
593.585, 13318.448
594.900, 9908.725
596.216, 8530.506
597.532, 7915.308
598.847, 5749.302
600.162, 5758.531
601.477, 4386.263
602.792, 3889.191
604.106, 3665.558
605.420, 2768.957
606.734, 2908.221
608.048, 2241.708
609.361, 2186.751
610.675, 2018.089
611.988, 1633.184
613.301, 1751.946
614.614, 1368.521
615.926, 1370.527
617.238, 1282.134
618.550, 1095.753
619.862, 1191.619
621.174, 931.265
622.485, 1020.240
623.797, 949.365
625.108, 871.047
626.418, 940.937
627.729, 778.646
629.039, 793.366
630.349, 764.099
631.659, 654.842
632.969, 791.596
634.279, 595.362
635.588, 703.139
636.897, 631.926
638.206, 556.723
639.515, 659.530
640.823, 493.357
642.131, 602.194
643.439, 567.040
644.747, 485.895
646.055, 623.761
647.362, 441.634
648.669, 555.516
649.976, 493.431
651.283, 400.331
652.589, 572.240
653.896, 380.157
655.202, 505.083
656.508, 471.025
657.814, 424.011
659.119, 569.015
660.424, 432.340
661.729, 526.768
663.034, 456.262
664.339, 413.025
665.643, 472.394
666.947, 346.674
668.251, 397.753
669.555, 310.748
670.859, 285.797
672.162, 311.902
673.465, 180.009
674.768, 264.048
676.071, 197.810
677.373, 150.210
678.676, 186.694
679.978, 108.132
681.280, 159.197
682.581, 97.359
683.883, 47.432
685.184, 125.741
686.485, 19.149
687.786, 81.232
689.087, 18.253
690.387, 18.325
691.687, 55.838
692.987, 22.694
694.287, 38.389
695.586, 38.690
696.886, 1.209
698.185, 44.875
699.484, 12.306
700.783, 0.775
702.081, 1.967
703.379, 25.842
704.677, 81.229
705.975, 23.700
707.273, 54.362
708.570, 2.423
709.868, 31.517
711.165, 7.469
712.462, 43.388
713.758, 38.608
715.055, 7.648
716.351, 47.344
717.647, 3.356
718.943, 19.058
720.238, 4.916
721.533, 2.113
722.829, 9.890
724.124, 14.070
725.418, 19.330
726.713, 4.616
728.007, 13.558
729.301, 54.503
730.595, 31.594
731.889, 54.706
733.182, 6.151
734.476, 19.997
735.769, 54.699
737.061, 42.103
738.354, 68.101
739.647, 14.344
740.939, 47.605
742.231, 69.899
743.523, 15.238
744.814, 53.594
746.106, 19.988
747.397, 22.598
748.688, 15.823
749.978, 12.736
751.269, 17.713
752.559, 17.116
753.849, 1.608
755.139, 22.114
756.429, 5.354
757.719, 15.189
759.008, 21.743
760.297, 21.334
761.586, 34.547
762.875, 50.396
764.163, 45.265
765.451, 0.053
766.739, 5.336
768.027, 38.397
769.315, 68.992
770.602, 24.787
771.890, 41.086
773.177, 61.266
774.463, 3.564
775.750, 45.585
777.036, 15.725
778.323, 6.150
779.609, 82.953
780.894, 0.955
782.180, 90.444
783.465, 101.504
784.750, 126.554
786.035, 146.594
787.320, 164.623
788.605, 238.642
789.889, 269.649
791.173, 326.647
792.457, 455.633
793.741, 366.608
795.024, 470.825
796.307, 411.778
797.591, 302.720
798.873, 328.651
800.156, 165.570
801.439, 187.478
802.721, 160.374
804.003, 49.259
805.285, 138.132
806.566, 62.994
807.848, 75.843
809.129, 78.681
810.410, 55.507
811.691, 47.321
812.971, 45.122
814.252, 29.911
815.532, 27.273
816.812, 25.876
818.092, 19.180
819.371, 30.900
820.651, 34.604
821.930, 45.292
823.209, 2.032
824.488, 52.613
825.766, 47.303
827.045, 47.922
828.323, 82.528
829.601, 4.121
830.878, 35.686
832.156, 33.234
833.433, 10.766
834.710, 65.273
835.987, 16.767
837.264, 67.238
838.540, 41.697
839.817, 38.140
841.093, 93.567
842.369, 20.981
843.644, 38.374
844.920, 50.419
846.195, 11.781
847.470, 97.646
848.745, 42.971
850.020, 59.280
851.294, 120.549
852.568, 25.833
853.842, 87.863
855.116, 45.102
856.390, 53.298
857.663, 109.801
858.936, 74.012
860.209, 114.530
861.482, 84.716
862.755, 79.885
864.027, 115.935
865.299, 51.905
866.571, 97.263
867.843, 78.820
869.115, 56.930
870.386, 121.913
871.657, 6.891
872.928, 77.207
874.199, 71.257
875.470, 33.195
876.740, 116.805
878.010, 19.818
879.280, 67.897
880.550, 65.880
881.820, 51.852
883.089, 97.817
884.358, 73.054
885.627, 73.895
886.896, 89.804
888.164, 16.529
889.433, 99.188
890.701, 71.078
891.969, 31.779
893.236, 104.623
894.504, 62.498
895.771, 78.918
897.038, 86.587
898.305, 30.926
899.572, 91.240
900.838, 30.053
902.105, 56.524
903.371, 71.271
904.637, 9.547
905.902, 96.814
907.168, 84.921
908.433, 68.813
909.698, 74.212
910.963, 7.430
912.228, 68.224
913.492, 42.005
914.757, 26.931
916.021, 80.649
917.285, 0.180
918.548, 42.709
919.812, 64.853
921.075, 5.662
922.338, 65.020
923.601, 16.721
924.864, 34.942
926.126, 24.599
927.388, 26.018
928.650, 55.663
929.912, 29.986
931.174, 10.166
932.435, 68.795
933.697, 12.776
934.958, 24.839
936.218, 8.449
937.479, 50.055
938.739, 67.656
940.000, 3.252
941.260, 25.843
942.520, 16.430
943.779, 19.012
945.039, 85.590
946.298, 48.836
947.557, 19.713
948.816, 69.259
950.074, 7.800
951.333, 101.338
952.591, 20.871
953.849, 35.401
955.107, 95.927
956.365, 19.425
957.622, 81.944
958.879, 64.460
960.136, 15.972
961.393, 69.481
962.650, 25.981
963.906, 45.441
965.162, 79.888
966.418, 21.020
967.674, 81.053
968.930, 34.025
970.185, 59.733
971.441, 108.839
972.696, 10.040
973.950, 88.445
975.205, 50.939
976.459, 35.615
977.714, 105.774
978.968, 71.165
980.222, 78.629
981.475, 102.375
982.729, 47.486
983.982, 135.517
985.235, 72.599
986.488, 68.056
987.740, 165.420
988.993, 56.876
990.245, 129.099
991.497, 75.228
992.749, 62.686
994.000, 161.207
995.252, 64.330
996.503, 113.712
997.754, 137.790
999.005, 74.258
1000.256, 182.510
1001.506, 107.963
1002.756, 107.433
1004.006, 241.169
1005.256, 112.643
1006.506, 219.940
1007.755, 233.370
1009.005, 191.852
1010.254, 253.334
1011.502, 222.821
1012.751, 214.314
1014.000, 279.808
1015.248, 194.309
1016.496, 285.792
1017.744, 178.321
1018.991, 210.859
1020.239, 267.400
1021.486, 200.952
1022.733, 280.194
1023.980, 258.757
1025.227, 254.321
1026.473, 361.639
1027.719, 282.216
1028.965, 401.153
1030.211, 434.740
1031.457, 411.329
1032.702, 531.922
1033.948, 504.532
1035.193, 562.153
1036.438, 740.801
1037.682, 620.453
1038.927, 886.652
1040.171, 866.342
1041.415, 985.035
1042.659, 1264.757
1043.903, 1237.493
1045.146, 1554.245
1046.390, 1898.025
1047.633, 1920.814
1048.876, 2761.622
1050.118, 2888.587
1051.361, 3638.410
1052.603, 4958.244
1053.845, 5411.449
1055.087, 7971.236
1056.329, 9600.103
1057.571, 11788.973
1058.812, 17527.855
1060.053, 18706.766
1061.294, 24495.672
1062.535, 27054.605
1063.775, 23193.561
1065.016, 24362.527
1066.256, 18581.502
1067.496, 14880.477
1068.736, 13649.480
1069.975, 9268.496
1071.214, 8657.367
1072.454, 7292.408
1073.693, 5312.777
1074.931, 5457.835
1076.170, 4055.897
1077.408, 3546.972
1078.647, 3444.050
1079.885, 2490.135
1081.122, 2654.233
1082.360, 2232.335
1083.597, 1864.125
1084.835, 2039.249
1086.072, 1532.378
1087.308, 1594.542
1088.545, 1547.702
1089.781, 1254.867
1091.018, 1405.042
1092.254, 1187.221
1093.490, 1102.407
1094.725, 1209.598
1095.961, 898.543
1097.196, 917.746
1098.431, 876.956
1099.666, 741.170
1100.900, 864.396
1102.135, 643.627
1103.369, 611.864
1104.603, 733.107
1105.837, 494.355
1107.071, 633.687
1108.304, 557.947
1109.538, 452.213
1110.771, 551.487
1112.004, 434.767
1113.236, 392.052
1114.469, 477.346
1115.701, 315.646
1116.933, 381.955
1118.165, 353.272
1119.397, 287.599
1120.629, 384.026
1121.860, 304.368
1123.091, 386.717
1124.322, 508.080
1125.553, 325.392
1126.783, 393.767
1128.014, 263.150
1129.244, 199.538
1130.474, 290.940
1131.704, 137.349
1132.933, 248.766
1134.163, 255.196
1135.392, 155.630
1136.621, 238.076
1137.850, 176.527
1139.079, 120.985
1140.307, 251.158
1141.535, 130.630
1142.763, 190.171
1143.991, 200.695
1145.219, 60.191
1146.446, 205.998
1147.674, 124.511
1148.901, 134.031
1150.128, 204.619
1151.354, 59.149
1152.581, 89.704
1153.807, 99.361
1155.033, 67.910
1156.259, 159.465
1157.485, 82.036
1158.710, 134.601
1159.936, 135.057
1161.161, 104.631
1162.386, 159.227
1163.611, 131.404
1164.835, 50.991
1166.060, 163.638
1167.284, 83.315
1168.508, 83.915
1169.732, 161.782
1170.955, 35.396
1172.179, 100.083
1173.402, 115.620
1174.625, 39.246
1175.848, 103.876
1177.070, 60.576
1178.293, 84.215
1179.515, 143.977
1180.737, 55.786
1181.959, 130.435
1183.181, 78.692
1184.402, 36.348
1185.624, 115.007
1186.845, 51.446
1188.066, 28.112
1189.286, 109.796
1190.507, 39.224
1191.727, 88.898
1192.947, 78.515
1194.167, 13.192
1195.387, 109.872
1196.607, 11.412
1197.826, 29.302
1199.045, 68.013
1200.264, 19.983
1201.483, 55.700
1202.702, 42.488
1203.920, 10.175
1205.138, 144.862
1206.356, 24.457
1207.574, 34.194
1208.792, 114.913
1210.009, 9.316
1211.227, 79.010
1212.444, 18.708
1213.661, 30.605
1214.877, 108.312
1216.094, 20.923
1217.310, 79.637
1218.526, 122.357
1219.742, 19.122
1220.958, 34.852
1222.173, 80.590
1223.389, 7.424
1224.604, 66.165
1225.819, 52.909
1227.034, 65.657
1228.248, 28.408
1229.463, 33.611
1230.677, 117.371
1231.891, 41.133
1233.105, 0.534
1234.318, 79.509
1235.532, 76.359
1236.745, 43.895
1237.958, 103.671
1239.171, 1.655
1240.384, 77.487
1241.596, 92.271
1242.809, 44.331
1244.021, 124.129
1245.233, 45.930
1246.444, 16.888
1247.656, 112.694
1248.867, 30.498
1250.079, 32.337
1251.290, 98.145
1252.500, 4.035
1253.711, 55.803
1254.921, 75.609
1256.132, 31.736
1257.342, 134.544
1258.552, 27.349
1259.761, 37.414
1260.971, 103.198
1262.180, 8.982
1263.389, 87.773
1264.598, 72.558
1265.807, 2.624
1267.015, 97.156
1268.223, 79.936
1269.432, 82.767
1270.640, 165.529
1271.847, 29.278
1273.055, 83.196
1274.262, 83.923
1275.470, 11.644
1276.677, 89.364
1277.883, 54.083
1279.090, 63.792
1280.296, 143.500
1281.503, 45.176
1282.709, 119.851
1283.915, 82.510
1285.120, 10.834
1286.326, 68.195
1287.531, 2.836
1288.736, 9.789
1289.941, 60.425
1291.146, 18.942
1292.350, 64.736
1293.555, 55.344
1294.759, 5.904
1295.963, 81.474
1297.167, 18.013
1298.370, 1.543
1299.574, 95.065
1300.777, 30.581
1301.980, 21.078
1303.183, 44.567
1304.386, 9.951
1305.588, 25.619
1306.790, 22.077
1307.993, 52.476
1309.195, 57.948
1310.396, 14.363
1311.598, 8.769
1312.799, 90.164
1314.000, 1.550
1315.201, 70.924
1316.402, 13.289
1317.603, 8.356
1318.803, 31.985
1320.003, 44.318
1321.203, 16.635
1322.403, 89.936
1323.603, 9.227
1324.802, 6.506
1326.002, 137.775
1327.201, 33.966
1328.400, 41.274
1329.599, 49.505
1330.797, 36.275
1331.995, 74.924
1333.194, 23.885
1334.392, 3.711
1335.589, 80.451
1336.787, 6.395
1337.985, 62.746
1339.182, 79.881
1340.379, 29.009
1341.576, 29.984
1342.772, 31.101
1343.969, 11.788
1345.165, 81.952
1346.361, 16.052
1347.557, 43.150
1348.753, 68.249
1349.949, 52.651
1351.144, 28.438
1352.339, 33.697
1353.534, 17.191
1354.729, 86.765
1355.924, 46.626
1357.118, 12.487
1358.312, 91.340
1359.506, 2.805
1360.700, 46.049
1361.894, 62.903
1363.088, 36.758
1364.281, 113.605
1365.474, 47.447
1366.667, 27.232
1367.860, 84.022
1369.052, 50.806
1370.245, 81.586
1371.437, 56.362
1372.629, 7.871
1373.821, 55.888
1375.013, 58.644
1376.204, 56.693
1377.395, 19.054
1378.586, 37.795
1379.777, 5.531
1380.968, 119.263
1382.159, 25.878
1383.349, 47.602
1384.539, 90.323
1385.729, 24.040
1386.919, 113.753
1388.109, 96.464
1389.298, 1.173
1390.487, 115.880
1391.676, 100.628
1392.865, 57.237
1394.054, 85.874
1395.242, 60.739
1396.431, 57.310
1397.619, 99.944
1398.807, 25.437
1399.995, 107.075
1401.182, 67.416
1402.370, 30.031
1403.557, 160.205
1404.744, 78.571
1405.931, 63.735
1407.118, 83.198
1408.304, 56.305
1409.490, 86.763
1410.676, 139.131
1411.862, 55.425
1413.048, 95.580
1414.234, 84.318
1415.419, 26.250
1416.604, 94.311
1417.789, 94.004
1418.974, 91.303
1420.159, 125.561
1421.343, 104.315
1422.528, 97.602
1423.712, 86.358
1424.896, 64.437
1426.079, 69.226
1427.263, 70.973
1428.446, 6.210
1429.629, 80.255
1430.812, 9.178
1431.995, 97.936
1433.178, 119.872
1434.360, 35.772
1435.543, 92.272
1436.725, 77.218
1437.907, 30.856
1439.088, 124.396
1440.270, 66.073
1441.451, 53.638
1442.632, 133.796
1443.813, 30.781
1444.994, 63.648
1446.175, 148.491
1447.355, 7.216
1448.535, 74.108
1449.715, 119.862
1450.895, 46.525
1452.075, 123.079
1453.255, 61.457
1454.434, 45.678
1455.613, 115.137
1456.792, 77.014
1457.971, 59.488
1459.149, 135.882
1460.328, 32.315
1461.506, 83.814
1462.684, 94.683
1463.862, 13.664
1465.040, 132.838
1466.217, 38.696
1467.395, 43.090
1468.572, 88.604
1469.749, 62.092
1470.925, 72.670
1472.102, 110.640
1473.278, 82.981
1474.455, 71.781
1475.631, 81.370
1476.807, 46.992
1477.982, 82.645
1479.158, 33.317
1480.333, 8.187
1481.508, 62.218
1482.683, 70.363
1483.858, 44.607
1485.033, 86.034
1486.207, 14.632
1487.381, 82.453
1488.555, 128.564
1489.729, 38.002
1490.903, 90.857
1492.076, 109.257
1493.250, 0.614
1494.423, 120.504
1495.596, 0.000
##END=



