##NAMES=Fluorapatite
##RRUFFID=R050401
##IDEAL CHEMISTRY=Ca_5_(PO_4_)_3_F
##LOCALITY=Urbano mine, Golconda District, Minas Gerais, Brazil
##OWNER=RRUFF
##SOURCE=Bob Downs
##DESCRIPTION=Pale purple hexagonal prism associated with albite R050402
##STATUS=The identification of this mineral has been confirmed by X-ray diffraction and chemical analysis
##URL=rruff.info/R050401
##MEASURED CHEMISTRY=(Ca_0.99_Mn_0.01_)_5_(P_1.00_O_4_)_3_F_1.00_
##PIN_ID=L01966
##ORIENTATION=Laser parallel to a* (1 0 0). Fiducial mark perpendicular to laser is parallel to c [0 0 1]
140.2710, 0.0000000E+00
141.5000, 8.3010001E-03
142.7280, 24.15747
143.9560, 29.17041
145.1840, 62.24463
146.4120, 0.1557620
147.6390, 100.5168
148.8670, 54.25391
150.0940, 3.678467
151.3210, 95.66919
152.5490, 104.2153
153.7750, 82.92725
155.0020, 159.8108
156.2290, 112.8721
157.4550, 136.1011
158.6810, 124.4688
159.9080, 81.06689
161.1340, 96.72192
162.3590, 111.2791
163.5850, 92.86475
164.8110, 118.4780
166.0360, 79.14233
167.2610, 82.08960
168.4860, 88.83032
169.7110, 59.97144
170.9360, 59.18506
172.1610, 40.50391
173.3850, 52.92529
174.6100, 34.37476
175.8340, 57.79810
177.0580, 34.15698
178.2820, 13.44214
179.5050, 22.65381
180.7290, 15.79175
181.9520, 25.85425
183.1760, 34.12915
184.3990, 44.77759
185.6220, 54.68872
186.8450, 43.61353
188.0670, 48.55688
189.2900, 97.55688
190.5120, 91.77734
191.7340, 113.2913
192.9560, 121.9968
194.1780, 309.3452
195.4000, 157.7192
196.6220, 276.6604
197.8430, 252.5242
199.0640, 438.2576
200.2860, 500.0083
201.5070, 655.2373
202.7270, 699.7759
203.9480, 836.0911
205.1690, 938.7866
206.3890, 997.1895
207.6090, 1054.106
208.8290, 1169.325
210.0490, 1128.524
211.2690, 1118.329
212.4890, 1206.744
213.7080, 1112.048
214.9280, 917.2935
216.1470, 790.4834
217.3660, 566.6172
218.5850, 525.6965
219.8030, 478.7219
221.0220, 350.6951
222.2400, 324.6167
223.4590, 248.4868
224.6770, 285.3059
225.8950, 250.0737
227.1120, 239.9470
228.3300, 207.0278
229.5480, 262.4946
230.7650, 260.0381
231.9820, 242.7288
233.1990, 283.6377
234.4160, 224.1641
235.6330, 205.2617
236.8490, 220.3113
238.0660, 212.1409
239.2820, 128.2815
240.4980, 124.0486
241.7140, 112.9741
242.9300, 99.28003
244.1460, 97.93042
245.3610, 143.1697
246.5770, 92.59497
247.7920, 74.42041
249.0070, 110.6770
250.2220, 51.23999
251.4370, 31.40210
252.6510, 2.000000
253.8660, 7.623779
255.0800, 25.35938
256.2940, 47.10938
257.5080, 82.40576
258.7220, 105.1655
259.9360, 133.4446
261.1490, 72.25513
262.3630, 121.6204
263.5760, 54.24561
264.7890, 107.9873
266.0020, 39.79346
267.2150, 36.78076
268.4270, 28.02808
269.6400, 102.0142
270.8520, 34.77393
272.0640, 115.8467
273.2760, 38.22827
274.4880, 180.5117
275.7000, 115.6343
276.9120, 164.1272
278.1230, 126.4807
279.3340, 147.4944
280.5450, 138.8821
281.7560, 195.9617
282.9670, 225.6543
284.1780, 207.2927
285.3880, 252.8755
286.5980, 211.6567
287.8090, 282.1191
289.0190, 268.7085
290.2290, 311.2686
291.4380, 389.7949
292.6480, 315.2612
293.8570, 365.7441
295.0670, 318.2017
296.2760, 429.5222
297.4850, 495.9236
298.6930, 526.2957
299.9020, 455.6360
301.1110, 506.9443
302.3190, 479.2195
303.5270, 500.4607
304.7350, 437.6667
305.9430, 451.8364
307.1510, 320.9690
308.3580, 356.0652
309.5660, 261.1238
310.7730, 244.1453
311.9800, 198.1284
313.1870, 180.0725
314.3940, 216.9771
315.6010, 142.8403
316.8070, 159.6611
318.0130, 124.4390
319.2200, 25.17261
320.4260, 103.8594
321.6310, 126.5010
322.8370, 109.0977
324.0430, 52.78467
325.2480, 14.52344
326.4540, 77.59351
327.6590, 25.36304
328.8640, 79.30591
330.0680, 68.21851
331.2730, 13.86621
332.4780, 20.97217
333.6820, 6.122070
334.8860, 69.06421
336.0900, 53.97998
337.2940, 76.88062
338.4980, 54.52686
339.7010, 115.2803
340.9050, 79.93774
342.1080, 0.2270510
343.3110, 109.9138
344.5140, 18.60327
345.7170, 41.26636
346.9200, 35.82056
348.1220, 7.367676
349.3240, 61.98145
350.5270, 4.280762
351.7290, 47.60791
352.9310, 87.89990
354.1320, 11.75879
355.3340, 79.08618
356.5350, 72.38745
357.7370, 67.71606
358.9380, 32.04077
360.1390, 67.21045
361.3400, 3.418945
362.5400, 19.40112
363.7410, 66.43115
364.9410, 20.56592
366.1410, 21.34863
367.3410, 34.79150
368.5410, 26.30566
369.7410, 138.7539
370.9400, 29.50781
372.1400, 79.06592
373.3390, 19.39502
374.5380, 18.23291
375.7370, 30.06689
376.9360, 45.40918
378.1350, 16.03613
379.3330, 48.53564
380.5310, 75.69873
381.7300, 53.41553
382.9280, 6.772461
384.1260, 79.24121
385.3230, 54.98877
386.5210, 7.376953
387.7180, 10.43262
388.9160, 23.28564
390.1130, 70.67383
391.3100, 133.9272
392.5060, 93.47168
393.7030, 31.01123
394.9000, 148.9033
396.0960, 99.15234
397.2920, 110.4434
398.4880, 129.5586
399.6840, 119.5713
400.8800, 56.04004
402.0750, 112.0117
403.2710, 125.3296
404.4660, 12.29883
405.6610, 78.27393
406.8560, 30.85840
408.0510, 11.93848
409.2450, 172.0352
410.4400, 96.94873
411.6340, 152.0752
412.8280, 109.5947
414.0220, 158.7852
415.2160, 172.5386
416.4100, 158.4053
417.6030, 200.7881
418.7970, 259.6396
419.9900, 221.1646
421.1830, 310.0483
422.3760, 419.5239
423.5690, 433.1519
424.7610, 496.6890
425.9540, 522.1621
427.1460, 532.5244
428.3380, 599.6890
429.5300, 572.0127
430.7220, 596.6431
431.9140, 670.3408
433.1050, 590.8027
434.2970, 555.4692
435.4880, 513.1763
436.6790, 566.2837
437.8700, 466.5171
439.0610, 473.6943
440.2510, 667.8140
441.4420, 654.8760
442.6320, 625.8809
443.8220, 783.8262
445.0120, 874.7119
446.2020, 920.5405
447.3910, 951.3203
448.5810, 1059.047
449.7700, 1057.716
450.9600, 1071.326
452.1490, 1073.877
453.3370, 1035.369
454.5260, 968.0273
455.7150, 844.1680
456.9030, 757.4077
458.0910, 640.6758
459.2800, 566.9482
460.4670, 496.5898
461.6550, 421.3369
462.8430, 398.5645
464.0300, 321.1045
465.2180, 338.6738
466.4050, 285.1050
467.5920, 266.7583
468.7790, 172.0269
469.9650, 238.1177
471.1520, 185.8672
472.3380, 182.8271
473.5250, 235.6670
474.7110, 115.2222
475.8970, 94.10156
477.0820, 132.6992
478.2680, 119.1343
479.4540, 123.1875
480.6390, 176.6118
481.8240, 105.0547
483.0090, 129.1304
484.1940, 72.70459
485.3780, 224.1255
486.5630, 130.3970
487.7470, 150.1875
488.9320, 191.1226
490.1160, 68.49219
491.3000, 38.62207
492.4830, 101.3174
493.6670, 81.35059
494.8500, 77.83154
496.0340, 1.690430
497.2170, 46.33789
498.4000, 41.50684
499.5820, 27.69336
500.7650, 22.83154
501.9480, 40.53076
503.1300, 25.85742
504.3120, 63.06055
505.4940, 40.43750
506.6760, 17.50879
507.8580, 77.76807
509.0390, 48.01904
510.2210, 1.170410
511.4020, 118.6196
512.5830, 12.61914
513.7640, 70.63623
514.9450, 113.7959
516.1250, 3.430664
517.3060, 12.84375
518.4860, 34.69727
519.6660, 13.36377
520.8460, 2.019531
522.0260, 65.90967
523.2060, 158.8242
524.3850, 122.4521
525.5650, 52.91602
526.7440, 97.27734
527.9230, 10.13672
529.1020, 34.89893
530.2810, 9.615723
531.4590, 118.4805
532.6380, 105.3843
533.8160, 11.53369
534.9940, 26.37012
536.1720, 27.06006
537.3500, 2.999023
538.5270, 153.7266
539.7050, 21.47266
540.8820, 2.204590
542.0590, 122.5708
543.2360, 22.73047
544.4130, 5.152832
545.5900, 33.95654
546.7660, 37.72852
547.9430, 16.09326
549.1190, 23.72754
550.2950, 145.8076
551.4710, 107.1846
552.6470, 33.44971
553.8220, 162.8013
554.9980, 62.92627
556.1730, 86.97998
557.3480, 127.0786
558.5230, 151.0679
559.6980, 145.1499
560.8730, 161.3242
562.0470, 114.6284
563.2220, 161.8608
564.3960, 133.6167
565.5700, 134.4829
566.7440, 169.0020
567.9170, 184.6758
569.0910, 221.2769
570.2640, 172.7622
571.4380, 85.67529
572.6110, 295.7798
573.7840, 341.6016
574.9570, 276.8271
576.1290, 297.4355
577.3020, 479.2490
578.4740, 430.0132
579.6460, 555.0840
580.8180, 907.6074
581.9900, 1137.190
583.1620, 1690.052
584.3330, 1904.032
585.5040, 2330.170
586.6760, 2923.708
587.8470, 3377.021
589.0180, 3664.638
590.1880, 3588.883
591.3590, 3439.168
592.5290, 3135.822
593.7000, 2377.981
594.8700, 1909.573
596.0400, 1606.707
597.2090, 1195.423
598.3790, 1208.277
599.5490, 1289.603
600.7180, 1359.143
601.8870, 1514.667
603.0560, 1766.958
604.2250, 2026.575
605.3940, 1842.793
606.5620, 1807.028
607.7300, 1703.005
608.8990, 1382.348
610.0670, 934.4873
611.2350, 610.0615
612.4020, 534.5552
613.5700, 376.1406
614.7370, 326.7388
615.9050, 249.4131
617.0720, 242.4805
618.2390, 151.0225
619.4060, 170.2427
620.5720, 126.5083
621.7390, 271.5728
622.9050, 213.7485
624.0710, 281.1494
625.2370, 80.95703
626.4030, 110.6875
627.5690, 173.8574
628.7340, 259.6016
629.9000, 209.0615
631.0650, 173.3164
632.2300, 136.6289
633.3950, 131.3643
634.5600, 138.0674
635.7240, 160.3740
636.8890, 130.7793
638.0530, 187.3145
639.2170, 157.6729
640.3810, 146.1113
641.5450, 185.1191
642.7080, 65.41699
643.8720, 144.9932
645.0350, 180.0020
646.1980, 69.66602
647.3610, 175.4531
648.5240, 160.5371
649.6870, 216.6826
650.8490, 84.82520
652.0120, 122.4678
653.1740, 96.01660
654.3360, 166.0312
655.4980, 186.9746
656.6600, 216.9277
657.8210, 217.2344
658.9830, 174.1572
660.1440, 197.2588
661.3050, 84.49121
662.4660, 90.20996
663.6270, 118.5107
664.7870, 71.73145
665.9480, 171.5615
667.1080, 75.49902
668.2680, 103.8770
669.4280, 144.0625
670.5880, 132.8184
671.7480, 175.3965
672.9070, 161.4023
674.0670, 176.4385
675.2260, 143.2432
676.3850, 134.3271
677.5440, 144.7422
678.7030, 120.8887
679.8610, 145.9482
681.0200, 190.7871
682.1780, 158.3164
683.3360, 205.1494
684.4940, 199.4863
685.6520, 207.1494
686.8090, 173.3516
687.9670, 69.41211
689.1240, 69.79395
690.2810, 76.44336
691.4380, 6.063477
692.5950, 41.45508
693.7520, 18.61328
694.9080, 58.90625
696.0650, 43.06934
697.2210, 35.78613
698.3770, 15.46582
699.5330, 12.97852
700.6880, 29.87012
701.8440, 42.61719
702.9990, 137.9863
704.1550, 100.7793
705.3100, 165.0117
706.4650, 109.5449
707.6190, 109.7812
708.7740, 119.3984
709.9290, 237.7305
711.0830, 172.2480
712.2370, 221.8633
713.3910, 108.3965
714.5450, 237.7178
715.6980, 171.0527
716.8520, 165.3564
718.0050, 74.19727
719.1580, 187.0723
720.3110, 154.7676
721.4640, 70.54785
722.6170, 263.3066
723.7700, 208.2266
724.9220, 94.66992
726.0740, 22.49707
727.2260, 12.40039
728.3780, 109.9727
729.5300, 83.04785
730.6810, 222.9980
731.8330, 83.92676
732.9840, 201.1855
734.1350, 52.83398
735.2860, 36.36719
736.4370, 81.87793
737.5880, 189.9014
738.7380, 122.2334
739.8880, 107.5088
741.0390, 19.30664
742.1890, 47.90625
743.3380, 124.3086
744.4880, 102.3057
745.6380, 109.0068
746.7870, 223.3730
747.9360, 158.6152
749.0850, 101.7930
750.2340, 49.44043
751.3830, 244.1123
752.5310, 37.63965
753.6800, 124.1670
754.8280, 11.83203
755.9760, 134.0381
757.1240, 181.2734
758.2720, 161.9756
759.4190, 242.2061
760.5670, 131.6133
761.7140, 80.81641
762.8610, 146.7363
764.0080, 57.16016
765.1550, 100.3613
766.3020, 179.1006
767.4480, 40.46582
768.5950, 61.56543
769.7410, 113.1738
770.8870, 183.8887
772.0330, 126.2520
773.1780, 326.9268
774.3240, 134.1807
775.4690, 196.6084
776.6140, 211.9961
777.7590, 153.1465
778.9040, 223.9785
780.0490, 159.4766
781.1940, 288.9521
782.3380, 206.5830
783.4820, 9.093750
784.6260, 155.8320
785.7700, 139.4883
786.9140, 74.38086
788.0580, 234.0537
789.2010, 235.7695
790.3450, 151.8838
791.4880, 58.03418
792.6310, 95.36621
793.7730, 174.9795
794.9160, 168.2891
796.0590, 212.1465
797.2010, 241.3633
798.3430, 265.8184
799.4850, 7.739258
800.6270, 140.3682
801.7690, 43.90430
802.9100, 166.8145
804.0520, 94.42969
805.1930, 216.5762
806.3340, 164.0898
807.4750, 206.5381
808.6160, 210.8203
809.7560, 189.1621
810.8970, 216.3213
812.0370, 122.4258
813.1770, 122.2686
814.3170, 123.9648
815.4570, 81.58496
816.5960, 126.9795
817.7360, 184.3672
818.8750, 131.8232
820.0140, 215.0195
821.1530, 143.2939
822.2920, 174.4268
823.4310, 182.4717
824.5690, 33.27344
825.7070, 152.5176
826.8460, 13.34668
827.9840, 135.6738
829.1220, 96.19727
830.2590, 32.85156
831.3970, 88.25781
832.5340, 116.7432
833.6710, 236.0459
834.8080, 242.2051
835.9450, 33.12012
837.0820, 83.89258
838.2190, 160.7793
839.3550, 208.4941
840.4910, 50.50586
841.6270, 159.1670
842.7630, 95.01855
843.8990, 4.517578
845.0350, 71.88672
846.1700, 64.17871
847.3060, 145.1504
848.4410, 101.4668
849.5760, 65.98340
850.7100, 63.34863
851.8450, 54.53418
852.9800, 76.69043
854.1140, 160.5254
855.2480, 124.3652
856.3820, 140.7910
857.5160, 93.80957
858.6500, 72.06250
859.7830, 35.23242
860.9170, 104.6113
862.0500, 233.3223
863.1830, 6.231445
864.3160, 280.7578
865.4480, 86.10645
866.5810, 45.92383
867.7130, 67.79395
868.8460, 201.1631
869.9780, 81.63379
871.1100, 257.0889
872.2410, 117.4688
873.3730, 142.5000
874.5050, 1.878906
875.6360, 43.46680
876.7670, 261.8535
877.8980, 222.3652
879.0290, 148.7930
880.1590, 19.22266
881.2900, 39.83008
882.4200, 74.95898
883.5500, 78.20898
884.6800, 66.78711
885.8100, 166.2402
886.9400, 146.2129
888.0690, 154.1348
889.1990, 44.29297
890.3280, 115.7598
891.4570, 114.9258
892.5860, 23.89258
893.7140, 46.03906
894.8430, 69.16016
895.9710, 144.8652
897.1000, 108.2422
898.2280, 22.43555
899.3560, 106.1172
900.4830, 92.89844
901.6110, 104.8203
902.7380, 184.3574
903.8660, 198.1738
904.9930, 170.4824
906.1200, 110.4121
907.2460, 160.5293
908.3730, 63.30859
909.5000, 158.8203
910.6260, 59.41406
911.7520, 97.16016
912.8780, 95.86133
914.0040, 131.2109
915.1290, 17.74414
916.2550, 78.90039
917.3800, 93.51367
918.5050, 173.6758
919.6300, 123.8906
920.7550, 21.36328
921.8800, 4.179688
923.0040, 70.66602
924.1290, 72.98438
925.2530, 18.53711
926.3770, 28.37305
927.5010, 159.1875
928.6250, 321.7988
929.7480, 156.6445
930.8720, 235.3574
931.9950, 78.15430
933.1180, 253.9688
934.2410, 116.7871
935.3640, 166.2715
936.4860, 301.3652
937.6090, 372.9043
938.7310, 274.9219
939.8530, 260.5391
940.9750, 412.5742
942.0970, 474.3008
943.2180, 597.1172
944.3400, 742.3027
945.4610, 966.4258
946.5820, 1044.014
947.7030, 1182.121
948.8240, 1343.139
949.9450, 1363.074
951.0650, 1547.742
952.1860, 1853.514
953.3060, 2406.438
954.4260, 3068.053
955.5460, 5391.930
956.6650, 6445.422
957.7850, 9348.957
958.9040, 14921.44
960.0230, 21393.46
961.1420, 27475.87
962.2610, 34855.73
963.3800, 39064.87
964.4990, 39267.40
965.6170, 36677.59
966.7350, 30161.29
967.8530, 22148.93
968.9710, 14160.18
970.0890, 8488.355
971.2070, 5158.082
972.3240, 3458.422
973.4410, 2350.516
974.5580, 1707.873
975.6750, 1155.273
976.7920, 1122.916
977.9090, 680.5117
979.0250, 601.5723
980.1410, 501.3145
981.2580, 348.3691
982.3740, 412.0215
983.4890, 383.3750
984.6050, 276.2246
985.7200, 431.3281
986.8360, 330.0840
987.9510, 371.7832
989.0660, 338.4902
990.1810, 344.3516
991.2950, 229.3164
992.4100, 59.62305
993.5240, 26.79297
994.6390, 19.92578
995.7530, 66.66602
996.8660, 82.60938
997.9800, 59.67188
999.0940, 144.7480
1000.207, 182.8906
1001.320, 99.14648
1002.433, 25.10938
1003.546, 78.79688
1004.659, 143.8340
1005.772, 12.68555
1006.884, 217.1230
1007.996, 155.0234
1009.108, 119.8105
1010.220, 65.91992
1011.332, 44.50977
1012.444, 179.3535
1013.555, 10.11719
1014.666, 176.6055
1015.777, 177.8203
1016.888, 43.31250
1017.999, 110.3008
1019.110, 54.83008
1020.220, 101.1250
1021.331, 268.5391
1022.441, 126.9355
1023.551, 55.82812
1024.661, 51.66016
1025.770, 218.0293
1026.880, 46.26953
1027.989, 192.5449
1029.098, 104.4023
1030.207, 45.11328
1031.316, 19.66602
1032.425, 167.8359
1033.533, 266.6992
1034.642, 224.8828
1035.750, 409.2559
1036.858, 420.7695
1037.966, 668.6953
1039.073, 772.1602
1040.181, 913.9531
1041.288, 904.5078
1042.396, 959.2461
1043.503, 1114.768
1044.610, 1312.531
1045.716, 1492.094
1046.823, 2472.521
1047.929, 3324.676
1049.036, 4572.104
1050.142, 5840.664
1051.248, 7320.174
1052.353, 8208.348
1053.459, 8121.010
1054.564, 7036.994
1055.670, 5764.371
1056.775, 4269.639
1057.880, 2875.174
1058.985, 2053.600
1060.089, 1511.221
1061.194, 1405.764
1062.298, 965.3477
1063.402, 979.7695
1064.506, 477.3184
1065.610, 430.2949
1066.713, 601.4609
1067.817, 511.1484
1068.920, 428.5566
1070.023, 474.2422
1071.126, 434.8574
1072.229, 407.3242
1073.332, 566.7734
1074.435, 923.2500
1075.537, 1255.279
1076.639, 1965.426
1077.741, 2671.332
1078.843, 3072.195
1079.945, 3657.211
1081.046, 3764.115
1082.148, 3522.756
1083.249, 3014.340
1084.350, 2135.869
1085.451, 1442.342
1086.551, 1043.846
1087.652, 839.5996
1088.752, 696.3066
1089.853, 630.9434
1090.953, 437.1387
1092.053, 277.2793
1093.152, 308.3652
1094.252, 145.3926
1095.351, 78.89258
1096.451, 159.8047
1097.550, 133.9492
1098.649, 73.74414
1099.748, 95.47461
1100.846, 48.34961
1101.945, 50.95312
1103.043, 146.0781
1104.141, 54.56055
1105.239, 173.2168
1106.337, 138.7949
1107.434, 191.0977
1108.532, 78.63867
1109.629, 146.8926
1110.726, 313.9902
1111.823, 49.03711
1112.920, 186.1621
1114.017, 102.7871
1115.113, 353.6211
1116.210, 175.3027
1117.306, 91.46875
1118.402, 144.3281
1119.498, 141.6113
1120.593, 242.5254
1121.689, 130.9355
1122.784, 341.5176
1123.879, 192.7520
1124.974, 322.0254
1126.069, 136.0156
1127.164, 162.9766
1128.259, 220.1738
1129.353, 53.91602
1130.447, 49.02148
1131.541, 25.04688
1132.635, 259.9336
1133.729, 47.54883
1134.822, 225.9922
1135.916, 240.4199
1137.009, 50.54102
1138.102, 289.4395
1139.195, 273.7539
1140.288, 179.3105
1141.380, 69.57617
1142.473, 274.0723
1143.565, 185.6465
1144.657, 217.7734
1145.749, 353.0332
1146.841, 185.0723
1147.932, 19.52344
1149.024, 262.0645
1150.115, 102.0645
1151.206, 60.32617
1152.297, 85.75391
1153.388, 85.44727
1154.479, 180.9395
1155.569, 273.6934
1156.659, 199.0410
1157.750, 341.6738
1158.839, 175.3125
1159.929, 297.7344
1161.019, 155.2344
1162.108, 141.1562
1163.198, 357.1289
1164.287, 27.70312
1165.376, 159.7578
1166.465, 226.0469
1167.553, 372.9453
1168.642, 318.0000
1169.730, 155.2148
1170.818, 240.4961
1171.906, 15.36719
1172.994, 190.6133
1174.082, 366.1016
1175.170, 168.5977
1176.257, 237.6484
1177.344, 253.4961
1178.431, 418.5469
1179.518, 109.8320
1180.605, 56.30859
1181.691, 168.6055
1182.778, 74.33203
1183.864, 134.1680
1184.950, 182.6367
1186.036, 211.2656
1187.122, 302.8203
1188.207, 290.3594
1189.292, 215.8594
1190.378, 512.3164
1191.463, 499.7500
1192.548, 230.3828
1193.632, 363.7305
1194.717, 122.0391
1195.801, 399.4648
1196.886, 202.6875
1197.970, 165.8672
1199.054, 271.2891
1200.137, 379.3828
1201.221, 161.4375
1202.305, 333.4492
1203.388, 60.41797
1204.471, 191.3320
1205.554, 310.2070
1206.637, 268.0352
1207.719, 309.8203
1208.802, 306.5625
1209.884, 255.2617
1210.966, 267.9180
1212.048, 383.5352
1213.130, 409.1055
1214.212, 317.6367
1215.293, 382.1328
1216.374, 293.5820
1217.456, 219.9922
1218.536, 217.3594
1219.617, 220.0391
1220.698, 435.9570
1221.778, 362.1992
1222.859, 445.0430
1223.939, 636.9805
1225.019, 184.1992
1226.099, 655.0977
1227.178, 238.2969
1228.258, 596.3555
1229.337, 341.1211
1230.417, 257.0391
1231.496, 453.6328
1232.574, 164.2070
1233.653, 412.1367
1234.732, 246.6484
1235.810, 249.6172
1236.888, 473.4102
1237.966, 437.3828
1239.044, 204.4414
1240.122, 428.1602
1241.199, 408.5430
1242.277, 259.7852
1243.354, 443.5625
1244.431, 492.9609
1245.508, 287.3633
1246.585, 305.0000
1247.661, 253.2578
1248.738, 429.7031
1249.814, 166.1055
1250.890, 239.8945
1251.966, 191.1836
1253.042, 147.3281
1254.117, 193.8086
1255.193, 192.8047
1256.268, 53.00781
1257.343, 9.312500
1258.418, 14.85938
1259.493, 60.88672
1260.567, 56.17578
1261.642, 381.5156
1262.716, 586.0000
1263.790, 218.6016
1264.864, 383.9297
1265.938, 161.2891
1267.011, 333.8281
1268.085, 162.3594
1269.158, 327.7930
1270.231, 55.80859
1271.304, 0.3359380
1272.377, 121.6836
1273.450, 111.7617
1274.522, 115.8164
1275.594, 4.667969
1276.666, 11.11719
1277.738, 41.12500
1278.810, 9.957031
1279.882, 4.664063
1280.953, 101.5078
1282.025, 178.8164
1283.096, 101.3242
1284.167, 177.9844
1285.238, 75.01172
1286.308, 108.7266
1287.379, 3.074219
1288.449, 117.4883
1289.519, 31.46094
1290.589, 27.06250
1291.659, 282.2305
1292.729, 16.25391
1293.798, 227.0273
1294.868, 119.6680
1295.937, 71.20312
1297.006, 10.40234
1298.075, 32.32031
1299.143, 275.3281
1300.212, 126.3125
1301.280, 46.36719
1302.348, 150.6367
1303.416, 139.8398
1304.484, 234.5781
1305.552, 32.57812
1306.620, 212.6172
1307.687, 144.8867
1308.754, 535.3867
1309.821, 194.9609
1310.888, 270.5664
1311.955, 462.7539
1313.021, 382.1719
1314.088, 218.7734
1315.154, 315.4805
1316.220, 434.6445
1317.286, 259.6445
1318.352, 442.3125
1319.417, 595.4453
1320.483, 163.5547
1321.548, 349.2305
1322.613, 719.2891
1323.678, 178.4570
1324.743, 658.4688
1325.807, 708.9414
1326.872, 148.2383
1327.936, 450.9609
1329.000, 263.8906
1330.064, 543.1172
1331.128, 495.0039
1332.191, 607.7734
1333.255, 659.0781
1334.318, 537.8633
1335.381, 546.4531
1336.444, 396.2031
1337.507, 492.9219
1338.569, 423.4102
1339.632, 538.9531
1340.694, 615.6719
1341.756, 333.3711
1342.818, 461.0469
1343.880, 355.7070
1344.941, 517.2617
1346.003, 226.4961
1347.064, 738.7070
1348.125, 558.9102
1349.186, 390.4844
1350.247, 389.0391
1351.308, 252.5781
1352.368, 486.1055
1353.428, 631.0977
1354.489, 505.5977
1355.549, 221.7969
1356.608, 528.2773
1357.668, 172.9844
1358.727, 443.2383
1359.787, 652.6797
1360.846, 452.5312
1361.905, 594.9531
1362.964, 540.1328
1364.022, 534.3164
1365.081, 653.7070
1366.139, 440.0859
1367.197, 408.0977
1368.255, 548.4805
1369.313, 520.8516
1370.371, 396.3789
1371.428, 562.7344
1372.486, 652.0820
1373.543, 335.4023
1374.600, 393.7305
1375.657, 669.8984
1376.713, 427.2148
1377.770, 562.0156
1378.826, 422.1211
1379.882, 230.0195
1380.938, 586.7305
1381.994, 285.6328
1383.050, 401.5273
1384.106, 489.8320
1385.161, 647.9180
1386.216, 591.0586
1387.271, 419.9961
1388.326, 319.2383
1389.381, 485.5156
1390.435, 342.3789
1391.490, 415.4219
1392.544, 488.6875
1393.598, 450.4883
1394.652, 438.7539
1395.705, 238.5664
1396.759, 542.8242
1397.812, 418.1836
1398.866, 536.0391
1399.919, 137.6836
1400.972, 388.2852
1402.024, 307.9102
1403.077, 286.5000
1404.129, 399.6641
1405.181, 265.0156
1406.233, 559.1953
1407.285, 264.8320
1408.337, 273.4102
1409.389, 551.7773
1410.440, 396.4062
1411.491, 419.3633
1412.542, 515.8984
1413.593, 553.5781
1414.644, 302.5859
1415.695, 487.3164
1416.745, 550.5742
1417.795, 453.1250
1418.845, 601.4336
1419.895, 297.6367
1420.945, 373.7266
1421.995, 421.3750
1423.044, 574.2930
1424.093, 388.2070
1425.142, 330.5117
1426.191, 651.6602
1427.240, 286.9531
1428.289, 608.7109
1429.337, 273.5508
1430.385, 370.6172
1431.433, 293.8711
1432.481, 138.2344
1433.529, 162.5977
1434.577, 406.4492
1435.624, 361.6953
1436.672, 205.8047
1437.719, 460.8789
1438.766, 393.9336
1439.812, 140.2695
1440.859, 272.2500
1441.905, 100.6953
1442.952, 350.4102
1443.998, 544.9922
1445.044, 286.8281
1446.090, 455.7266
1447.135, 515.7773
1448.181, 433.0000
1449.226, 327.0000
1450.271, 382.1680
1451.316, 158.0352
1452.361, 417.1758
1453.405, 224.3203
1454.450, 542.4570
1455.494, 324.5859
1456.538, 390.7031
1457.582, 233.8125
1458.626, 316.9141
1459.670, 607.0078
1460.713, 167.0938
1461.757, 291.1719
1462.800, 574.2461
1463.843, 266.3125
1464.886, 114.3672
1465.928, 161.3047
1466.971, 176.3242
1468.013, 593.3359
1469.055, 676.3477
1470.097, 566.3516
1471.139, 465.3516
1472.181, 454.3516
1473.222, 396.1094
1474.263, 295.2969
1475.305, 395.2617
1476.346, 243.2305
1477.386, 300.1953
1478.427, 294.1641
1479.468, 405.1445
1480.508, 385.1680
1481.548, 475.2773
1482.588, 49.70703
1483.628, 289.3047
1484.668, 189.3125
1485.707, 390.3242
1486.747, 446.1719
1487.786, 398.2148
1488.825, 386.2812
1489.864, 522.4023
1490.902, 471.5547
1491.941, 343.6992
1492.979, 587.8594
1494.017, 332.0352
1495.055, 44.25000
1496.093, 535.5117
1497.131, 247.7930
1498.168, 347.2383
1499.206, 244.7461
1500.243, 524.2773
1501.280, 215.9648
1502.317, 389.7422
1503.354, 451.5430
1504.390, 405.3594
1505.426, 498.1914
1506.463, 554.0391
1507.499, 393.7148
1508.535, 300.5820
1509.570, 465.4609
1510.606, 548.3945
1511.641, 352.3672
1512.676, 290.3828
1513.711, 414.4180
1514.746, 124.5156
1515.781, 330.5820
1516.816, 610.7109
1517.850, 275.8789
1518.884, 246.0352
1519.918, 327.2852
1520.952, 687.5820
1521.986, 402.9219
1523.019, 348.3086
1524.053, 617.7578
1525.086, 255.2578
1526.119, 535.8320
1527.152, 325.4609
1528.185, 455.8516
1529.217, 652.4727
1530.250, 364.1719
1531.282, 272.9375
1532.314, 652.7812
1533.346, 37.70312
1534.377, 442.7148
1535.409, 179.7773
1536.440, 385.9141
1537.472, 507.1289
1538.503, 141.4102
1539.534, 621.7656
1540.564, 338.2109
1541.595, 370.7461
1542.625, 295.3672
1543.656, 267.1328
1544.686, 417.7070
1545.716, 333.2969
1546.745, 94.88672
1547.775, 50.46875
1548.804, 403.0312
1549.834, 51.43359
1550.863, 209.3789
1551.892, 73.16406
1552.920, 392.9297
1553.949, 96.47656
1554.977, 151.8945
1556.006, 190.6094
1557.034, 109.5898
1558.062, 575.4961
1559.089, 588.6719
1560.117, 601.4375
1561.144, 180.3633
1562.172, 204.2773
1563.199, 75.66406
1564.226, 192.3047
1565.252, 38.14844
1566.279, 2.390625
1567.305, 15.03516
1568.332, 332.0156
1569.358, 65.91406
1570.384, 0.7265630
1571.409, 0.0000000E+00
##END=



