##NAMES=Fluorapatite
##RRUFFID=R060070
##IDEAL CHEMISTRY=Ca_5_(PO_4_)_3_F
##LOCALITY=Panasqueira, Portugal
##OWNER=RRUFF
##SOURCE=Dave Bunk
##DESCRIPTION=Green hexagonal tablet
##STATUS=The identification of this mineral has been confirmed by X-ray diffraction and chemical analysis
##URL=rruff.info/R060070
##MEASURED CHEMISTRY=(Ca_0.99_Mn_0.01_)_5_(P_1.00_O_4_)_3_F_1.00_
##PIN_ID=L01870
##ORIENTATION=Laser parallel to -c* (0 0 -1). Fiducial mark perpendicular to laser is parallel to -a [-1 0 0]
127.9790, 0.0000000E+00
129.2090, 0.7414550
130.4390, 94.61108
131.6680, 70.70801
132.8980, 73.62500
134.1270, 161.8110
135.3560, 27.98926
136.5850, 63.92432
137.8140, 142.4277
139.0430, 118.3955
140.2710, 69.75342
141.5000, 139.4458
142.7280, 118.9976
143.9560, 105.1978
145.1840, 137.6704
146.4120, 118.1699
147.6390, 69.17969
148.8670, 117.1514
150.0940, 77.24854
151.3210, 74.47363
152.5490, 108.8926
153.7750, 76.35547
155.0020, 51.91797
156.2290, 67.61182
157.4550, 5.607422
158.6810, 70.24512
159.9080, 37.24707
161.1340, 67.69434
162.3590, 63.03369
163.5850, 103.9946
164.8110, 59.06348
166.0360, 105.4648
167.2610, 34.48291
168.4860, 16.34863
169.7110, 48.85547
170.9360, 102.0024
172.1610, 73.06982
173.3850, 97.81055
174.6100, 128.9312
175.8340, 98.18457
177.0580, 16.19043
178.2820, 68.14600
179.5050, 73.52344
180.7290, 127.0752
181.9520, 28.20264
183.1760, 97.80420
184.3990, 105.8550
185.6220, 56.66650
186.8450, 94.24268
188.0670, 136.7505
189.2900, 130.0786
190.5120, 131.7725
191.7340, 74.23926
192.9560, 19.55615
194.1780, 53.05322
195.4000, 90.99854
196.6220, 28.16797
197.8430, 47.16211
199.0640, 72.57666
200.2860, 115.4424
201.5070, 45.90918
202.7270, 27.19873
203.9480, 87.05566
205.1690, 214.0054
206.3890, 55.38477
207.6090, 112.7109
208.8290, 197.7158
210.0490, 33.03418
211.2690, 80.24561
212.4890, 137.7515
213.7080, 121.6772
214.9280, 187.1006
216.1470, 153.2852
217.3660, 30.74463
218.5850, 95.41455
219.8030, 114.5762
221.0220, 91.48486
222.2400, 167.4351
223.4590, 161.8965
224.6770, 104.9902
225.8950, 36.04395
227.1120, 48.41113
228.3300, 89.48584
229.5480, 144.0024
230.7650, 72.77686
231.9820, 134.4541
233.1990, 50.94580
234.4160, 80.07324
235.6330, 35.18896
236.8490, 0.9311520
238.0660, 101.1743
239.2820, 195.6069
240.4980, 128.4189
241.7140, 115.0459
242.9300, 73.81543
244.1460, 33.09863
245.3610, 79.29785
246.5770, 62.58447
247.7920, 166.0449
249.0070, 92.27930
250.2220, 122.0400
251.4370, 125.9917
252.6510, 12.70068
253.8660, 169.6064
255.0800, 132.2690
256.2940, 138.9243
257.5080, 240.6636
258.7220, 53.43652
259.9360, 101.4683
261.1490, 63.29688
262.3630, 141.2783
263.5760, 134.5371
264.7890, 146.9097
266.0020, 160.4023
267.2150, 139.4722
268.4270, 155.6147
269.6400, 87.18848
270.8520, 40.24219
272.0640, 25.48975
273.2760, 135.0142
274.4880, 76.58887
275.7000, 115.7085
276.9120, 11.21875
278.1230, 69.57617
279.3340, 3.275879
280.5450, 95.37695
281.7560, 36.52539
282.9670, 109.8247
284.1780, 89.05566
285.3880, 88.38281
286.5980, 113.5908
287.8090, 57.63721
289.0190, 52.24805
290.2290, 12.52832
291.4380, 82.03955
292.6480, 64.64941
293.8570, 58.92578
295.0670, 76.17432
296.2760, 6.198242
297.4850, 36.45557
298.6930, 44.13965
299.9020, 182.5571
301.1110, 99.80713
302.3190, 128.8340
303.5270, 191.1738
304.7350, 95.82617
305.9430, 31.19238
307.1510, 108.5464
308.3580, 10.62891
309.5660, 49.65820
310.7730, 101.3682
311.9800, 90.45459
313.1870, 66.38184
314.3940, 44.54150
315.6010, 38.55469
316.8070, 47.60156
318.0130, 165.8799
319.2200, 94.95215
320.4260, 171.9790
321.6310, 132.2144
322.8370, 137.7861
324.0430, 84.56006
325.2480, 139.8306
326.4540, 143.1777
327.6590, 129.7666
328.8640, 82.24023
330.0680, 110.8193
331.2730, 22.84912
332.4780, 146.6099
333.6820, 128.9302
334.8860, 188.0200
336.0900, 143.1084
337.2940, 40.12061
338.4980, 143.0156
339.7010, 79.50879
340.9050, 33.46533
342.1080, 35.05811
343.3110, 12.90918
344.5140, 104.1763
345.7170, 109.7974
346.9200, 52.54346
348.1220, 20.06787
349.3240, 69.46680
350.5270, 92.06836
351.7290, 17.53711
352.9310, 152.7241
354.1320, 60.99902
355.3340, 117.9634
356.5350, 57.58447
357.7370, 3.436035
358.9380, 115.4951
360.1390, 19.74902
361.3400, 86.54102
362.5400, 99.78760
363.7410, 131.1763
364.9410, 95.33350
366.1410, 98.14502
367.3410, 145.6440
368.5410, 84.04492
369.7410, 147.1006
370.9400, 163.9863
372.1400, 64.23730
373.3390, 196.5381
374.5380, 88.94336
375.7370, 86.57812
376.9360, 58.63184
378.1350, 105.2637
379.3330, 79.62988
380.5310, 25.97070
381.7300, 141.1543
382.9280, 121.3438
384.1260, 119.8447
385.3230, 110.4258
386.5210, 68.92871
387.7180, 139.2061
388.9160, 21.49219
390.1130, 157.5264
391.3100, 49.16016
392.5060, 126.4570
393.7030, 175.0166
394.9000, 157.1680
396.0960, 193.7021
397.2920, 18.61328
398.4880, 220.6396
399.6840, 74.14941
400.8800, 132.9863
402.0750, 46.52441
403.2710, 175.7363
404.4660, 14.04297
405.6610, 91.29199
406.8560, 113.8555
408.0510, 249.7910
409.2450, 70.30078
410.4400, 98.58105
411.6340, 98.17578
412.8280, 160.0889
414.0220, 213.4551
415.2160, 146.3379
416.4100, 144.7148
417.6030, 129.7471
418.7970, 64.01367
419.9900, 66.54590
421.1830, 103.6523
422.3760, 41.91504
423.5690, 160.4482
424.7610, 145.7891
425.9540, 104.5781
427.1460, 115.4219
428.3380, 86.33398
429.5300, 108.3594
430.7220, 139.5938
431.9140, 4.833008
433.1050, 8.826172
434.2970, 132.2334
435.4880, 52.49316
436.6790, 199.1602
437.8700, 267.6934
439.0610, 168.0625
440.2510, 149.6230
441.4420, 131.7549
442.6320, 185.6641
443.8220, 216.0498
445.0120, 258.7881
446.2020, 159.7715
447.3910, 88.42480
448.5810, 145.5303
449.7700, 137.2041
450.9600, 190.6982
452.1490, 191.9180
453.3370, 37.32715
454.5260, 154.5703
455.7150, 124.2695
456.9030, 3.258789
458.0910, 100.2539
459.2800, 99.81445
460.4670, 41.44727
461.6550, 69.69434
462.8430, 68.06348
464.0300, 28.33789
465.2180, 59.68359
466.4050, 31.98926
467.5920, 5.301758
468.7790, 17.07617
469.9650, 96.32324
471.1520, 109.8369
472.3380, 72.05469
473.5250, 190.2578
474.7110, 239.9189
475.8970, 92.70410
477.0820, 134.3525
478.2680, 117.7588
479.4540, 123.1865
480.6390, 117.1201
481.8240, 225.4404
483.0090, 84.98730
484.1940, 0.9589840
485.3780, 285.5664
486.5630, 34.74609
487.7470, 118.7324
488.9320, 64.38965
490.1160, 114.4561
491.3000, 75.52832
492.4830, 66.98828
493.6670, 84.53027
494.8500, 106.6602
496.0340, 89.72070
497.2170, 113.9854
498.4000, 208.1240
499.5820, 106.5205
500.7650, 101.6836
501.9480, 25.73438
503.1300, 108.1875
504.3120, 169.9102
505.4940, 22.82324
506.6760, 8.801758
507.8580, 32.50586
509.0390, 93.30762
510.2210, 102.6279
511.4020, 171.6670
512.5830, 128.6729
513.7640, 39.25293
514.9450, 52.80273
516.1250, 35.46094
517.3060, 163.8301
518.4860, 87.54785
519.6660, 112.4932
520.8460, 189.4795
522.0260, 127.5967
523.2060, 90.59375
524.3850, 193.0850
525.5650, 115.1377
526.7440, 71.17773
527.9230, 61.32422
529.1020, 58.45605
530.2810, 17.55273
531.4590, 86.40625
532.6380, 150.2246
533.8160, 57.02832
534.9940, 166.8057
536.1720, 40.66016
537.3500, 156.0889
538.5270, 175.7920
539.7050, 49.27246
540.8820, 140.3389
542.0590, 53.12207
543.2360, 121.2236
544.4130, 86.57715
545.5900, 116.5762
546.7660, 34.08984
547.9430, 41.37988
549.1190, 169.1982
550.2950, 41.78320
551.4710, 90.59180
552.6470, 38.36719
553.8220, 143.8037
554.9980, 191.1719
556.1730, 22.81738
557.3480, 90.60645
558.5230, 275.0889
559.6980, 143.2480
560.8730, 102.1621
562.0470, 59.83691
563.2220, 85.83984
564.3960, 129.1846
565.5700, 56.81348
566.7440, 112.5986
567.9170, 155.1621
569.0910, 101.4658
570.2640, 55.99219
571.4380, 252.1865
572.6110, 96.93066
573.7840, 203.7627
574.9570, 101.2803
576.1290, 129.5850
577.3020, 287.1465
578.4740, 245.4639
579.6460, 45.75000
580.8180, 176.6338
581.9900, 262.1582
583.1620, 70.25879
584.3330, 76.91016
585.5040, 132.1680
586.6760, 91.56445
587.8470, 215.2168
589.0180, 232.3145
590.1880, 20.79980
591.3590, 114.9150
592.5290, 83.94922
593.7000, 223.8232
594.8700, 112.9502
596.0400, 220.5947
597.2090, 107.2109
598.3790, 171.9062
599.5490, 138.1621
600.7180, 118.5566
601.8870, 70.40625
603.0560, 189.8447
604.2250, 130.4170
605.3940, 97.71191
606.5620, 189.1367
607.7300, 116.1641
608.8990, 114.2031
610.0670, 60.14648
611.2350, 43.47168
612.4020, 47.08984
613.5700, 61.75781
614.7370, 56.54980
615.9050, 161.7402
617.0720, 158.0391
618.2390, 256.3623
619.4060, 187.1123
620.5720, 44.40723
621.7390, 175.6221
622.9050, 41.62012
624.0710, 91.50586
625.2370, 178.3271
626.4030, 89.87988
627.5690, 120.2139
628.7340, 186.1230
629.9000, 247.4111
631.0650, 169.6318
632.2300, 39.25195
633.3950, 47.72754
634.5600, 135.7471
635.7240, 33.00586
636.8890, 196.1582
638.0530, 73.29102
639.2170, 37.26953
640.3810, 25.72266
641.5450, 130.8389
642.7080, 116.4961
643.8720, 141.0898
645.0350, 25.98633
646.1980, 166.6113
647.3610, 94.17383
648.5240, 42.93750
649.6870, 187.1895
650.8490, 177.1836
652.0120, 231.2812
653.1740, 92.20312
654.3360, 219.4473
655.4980, 200.5215
656.6600, 113.8828
657.8210, 142.9043
658.9830, 43.48438
660.1440, 60.42773
661.3050, 16.92969
662.4660, 144.2168
663.6270, 158.6855
664.7870, 107.6133
665.9480, 85.23047
667.1080, 152.6934
668.2680, 95.26562
669.4280, 155.1230
670.5880, 271.9453
671.7480, 206.5195
672.9070, 70.62695
674.0670, 147.3906
675.2260, 161.0293
676.3850, 225.2578
677.5440, 180.0098
678.7030, 234.9160
679.8610, 405.4082
681.0200, 225.6855
682.1780, 188.6953
683.3360, 32.66406
684.4940, 217.7793
685.6520, 22.05469
686.8090, 41.19531
687.9670, 140.0273
689.1240, 95.96680
690.2810, 307.2344
691.4380, 40.74609
692.5950, 10.20117
693.7520, 194.6367
694.9080, 162.9844
696.0650, 50.68164
697.2210, 93.71875
698.3770, 137.9531
699.5330, 111.6094
700.6880, 151.7031
701.8440, 91.30078
702.9990, 147.0605
704.1550, 199.9473
705.3100, 127.2129
706.4650, 120.6973
707.6190, 3.214844
708.7740, 72.83594
709.9290, 154.0234
711.0830, 274.4102
712.2370, 90.39844
713.3910, 352.4824
714.5450, 315.1016
715.6980, 2.462891
716.8520, 115.8594
718.0050, 173.6172
719.1580, 150.0352
720.3110, 204.6895
721.4640, 50.08398
722.6170, 172.6367
723.7700, 57.40820
724.9220, 47.98242
726.0740, 92.59375
727.2260, 134.1133
728.3780, 321.5176
729.5300, 142.2422
730.6810, 195.5723
731.8330, 215.7441
732.9840, 20.09766
734.1350, 51.94531
735.2860, 4.880859
736.4370, 181.3926
737.5880, 194.3809
738.7380, 140.7695
739.8880, 183.9961
741.0390, 299.0898
742.1890, 42.80859
743.3380, 35.21875
744.4880, 15.67969
745.6380, 189.7520
746.7870, 185.5098
747.9360, 157.1875
749.0850, 213.5703
750.2340, 241.9922
751.3830, 13.18359
752.5310, 13.93555
753.6800, 322.7539
754.8280, 131.4609
755.9760, 147.7793
757.1240, 250.8301
758.2720, 75.43945
759.4190, 134.6113
760.5670, 233.6016
761.7140, 370.1055
762.8610, 179.7559
764.0080, 108.2363
765.1550, 120.3926
766.3020, 77.53516
767.4480, 138.8457
768.5950, 27.56250
769.7410, 65.16016
770.8870, 163.0605
772.0330, 66.38086
773.1780, 99.51953
774.3240, 90.16406
775.4690, 101.2461
776.6140, 212.3809
777.7590, 215.7793
778.9040, 273.4609
780.0490, 273.1426
781.1940, 126.6953
782.3380, 365.7031
783.4820, 17.68750
784.6260, 183.6934
785.7700, 174.6738
786.9140, 101.3965
788.0580, 13.87891
789.2010, 30.63672
790.3450, 160.4648
791.4880, 212.3594
792.6310, 252.5410
793.7730, 144.6191
794.9160, 375.9609
796.0590, 108.6562
797.2010, 65.12109
798.3430, 188.4668
799.4850, 161.8809
800.6270, 302.0605
801.7690, 278.4395
802.9100, 254.8047
804.0520, 228.3633
805.1930, 172.5195
806.3340, 95.19336
807.4750, 249.2109
808.6160, 26.34375
809.7560, 91.05664
810.8970, 277.4766
812.0370, 34.35938
813.1770, 112.6465
814.3170, 16.48828
815.4570, 205.0547
816.5960, 316.7930
817.7360, 122.8359
818.8750, 97.39844
820.0140, 138.7305
821.1530, 287.2363
822.2920, 259.5527
823.4310, 189.8340
824.5690, 251.2051
825.7070, 10.00781
826.8460, 10.57617
827.9840, 294.7305
829.1220, 175.7773
830.2590, 507.5234
831.3970, 133.1836
832.5340, 327.6406
833.6710, 88.52734
834.8080, 182.5625
835.9450, 168.7129
837.0820, 218.6855
838.2190, 97.75977
839.3550, 70.51172
840.4910, 259.4258
841.6270, 335.4980
842.7630, 86.20312
843.8990, 321.8125
845.0350, 53.58398
846.1700, 263.2930
847.3060, 152.8555
848.4410, 354.2871
849.5760, 145.4434
850.7100, 137.5254
851.8450, 201.7734
852.9800, 1.632813
854.1140, 206.6055
855.2480, 306.7520
856.3820, 2.890625
857.5160, 281.5977
858.6500, 263.9336
859.7830, 5.203125
860.9170, 271.0215
862.0500, 205.1426
863.1830, 344.4473
864.3160, 44.87109
865.4480, 265.1973
866.5810, 213.5137
867.7130, 203.5684
868.8460, 280.0664
869.9780, 244.6719
871.1100, 122.9629
872.2410, 96.01172
873.3730, 220.1133
874.5050, 378.2070
875.6360, 406.0195
876.7670, 272.9785
877.8980, 224.3633
879.0290, 220.0195
880.1590, 241.0000
881.2900, 226.9316
882.4200, 327.6211
883.5500, 302.1992
884.6800, 338.7441
885.8100, 253.3105
886.9400, 292.0020
888.0690, 150.3281
889.1990, 72.39844
890.3280, 74.37500
891.4570, 294.2812
892.5860, 67.20508
893.7140, 207.7773
894.8430, 415.6406
895.9710, 56.20898
897.1000, 305.2598
898.2280, 313.2539
899.3560, 163.0547
900.4830, 135.5000
901.6110, 25.93750
902.7380, 149.0664
903.8660, 117.4434
904.9930, 251.9688
906.1200, 349.5684
907.2460, 239.8867
908.3730, 301.8711
909.5000, 100.4629
910.6260, 55.39258
911.7520, 164.2461
912.8780, 314.5137
914.0040, 164.7480
915.1290, 317.1758
916.2550, 289.6152
917.3800, 164.2715
918.5050, 254.8105
919.6300, 152.5156
920.7550, 54.32422
921.8800, 19.02734
923.0040, 184.3477
924.1290, 78.83203
925.2530, 154.3730
926.3770, 218.7793
927.5010, 14.36133
928.6250, 294.0273
929.7480, 107.1973
930.8720, 242.1250
931.9950, 171.0488
933.1180, 199.5898
934.2410, 21.76172
935.3640, 96.75195
936.4860, 41.27930
937.6090, 159.6426
938.7310, 103.8652
939.8530, 306.9297
940.9750, 88.72070
942.0970, 310.0879
943.2180, 223.2969
944.3400, 45.17383
945.4610, 216.8574
946.5820, 156.8027
947.7030, 94.20508
948.8240, 208.3691
949.9450, 270.3711
951.0650, 375.5645
952.1860, 391.4688
953.3060, 456.4941
954.4260, 259.3574
955.5460, 518.4023
956.6650, 393.0312
957.7850, 366.5078
958.9040, 666.6602
960.0230, 468.0371
961.1420, 704.8301
962.2610, 1118.691
963.3800, 1101.191
964.4990, 1166.160
965.6170, 1080.721
966.7350, 1033.451
967.8530, 751.9336
968.9710, 767.3145
970.0890, 723.1523
971.2070, 570.9023
972.3240, 561.0781
973.4410, 509.3594
974.5580, 378.2227
975.6750, 464.2285
976.7920, 278.4375
977.9090, 239.5469
979.0250, 433.6914
980.1410, 52.61328
981.2580, 120.1895
982.3740, 11.50000
983.4890, 280.4355
984.6050, 165.6270
985.7200, 36.24805
986.8360, 26.94727
987.9510, 110.9961
989.0660, 320.2148
990.1810, 20.15234
991.2950, 107.3789
992.4100, 120.9062
993.5240, 245.0898
994.6390, 262.9844
995.7530, 247.1523
996.8660, 181.0547
997.9800, 199.7422
999.0940, 9.812500
1000.207, 207.2266
1001.320, 18.03125
1002.433, 107.7500
1003.546, 24.76953
1004.659, 191.6055
1005.772, 167.5508
1006.884, 107.9062
1007.996, 198.6172
1009.108, 149.6875
1010.220, 152.5977
1011.332, 281.4727
1012.444, 14.12109
1013.555, 108.7383
1014.666, 330.4375
1015.777, 136.0625
1016.888, 332.9883
1017.999, 274.8867
1019.110, 250.7656
1020.220, 114.4375
1021.331, 246.2578
1022.441, 139.4805
1023.551, 342.5078
1024.661, 342.9961
1025.770, 117.7617
1026.880, 47.12500
1027.989, 92.45312
1029.098, 100.0352
1030.207, 229.9453
1031.316, 32.50391
1032.425, 89.13672
1033.533, 332.1172
1034.642, 266.9492
1035.750, 79.83594
1036.858, 342.7266
1037.966, 167.4023
1039.073, 34.73047
1040.181, 307.1680
1041.288, 20.42578
1042.396, 9.136719
1043.503, 23.25000
1044.610, 143.7578
1045.716, 108.6523
1046.823, 194.0000
1047.929, 81.88281
1049.036, 76.20312
1050.142, 277.5117
1051.248, 178.3711
1052.353, 350.6016
1053.459, 244.4102
1054.564, 130.8555
1055.670, 260.2617
1056.775, 243.1953
1057.880, 102.2031
1058.985, 128.0273
1060.089, 261.1211
1061.194, 123.3789
1062.298, 365.5859
1063.402, 103.0742
1064.506, 254.2539
1065.610, 120.1484
1066.713, 188.1641
1067.817, 252.7188
1068.920, 271.0938
1070.023, 221.3672
1071.126, 124.2305
1072.229, 137.8555
1073.332, 209.8672
1074.435, 200.0117
1075.537, 8.128906
1076.639, 236.2305
1077.741, 12.23047
1078.843, 299.3281
1079.945, 316.2109
1081.046, 98.66797
1082.148, 181.7578
1083.249, 46.14453
1084.350, 275.9180
1085.451, 109.9805
1086.551, 83.03906
1087.652, 136.0938
1088.752, 207.1523
1089.853, 182.2070
1090.953, 207.2656
1092.053, 215.3203
1093.152, 31.37500
1094.252, 38.55859
1095.351, 138.4844
1096.451, 277.5352
1097.550, 346.5781
1098.649, 161.6289
1099.748, 341.6758
1100.846, 179.7266
1101.945, 144.7852
1103.043, 247.8398
1104.141, 227.9023
1105.239, 260.9648
1106.337, 271.0273
1107.434, 309.1172
1108.532, 249.1953
1109.629, 166.2812
1110.726, 134.3711
1111.823, 181.4688
1112.920, 163.4219
1114.017, 243.2305
1115.113, 282.9023
1116.210, 267.0430
1117.306, 315.9531
1118.402, 229.0039
1119.498, 257.4766
1120.593, 223.6445
1121.689, 23.81641
1122.784, 223.8438
1123.879, 259.4648
1124.974, 178.6758
1126.069, 327.8984
1127.164, 269.1406
1128.259, 402.3945
1129.353, 4.667969
1130.447, 383.9375
1131.541, 201.0312
1132.635, 467.3359
1133.729, 406.0742
1134.822, 177.4062
1135.916, 338.5234
1137.009, 228.8789
1138.102, 326.2500
1139.195, 363.6445
1140.288, 202.0547
1141.380, 101.5234
1142.473, 266.8633
1143.565, 316.2695
1144.657, 52.77734
1145.749, 109.2148
1146.841, 277.6992
1147.932, 222.1680
1149.024, 136.6562
1150.115, 150.1602
1151.206, 131.3516
1152.297, 231.2070
1153.388, 225.7578
1154.479, 244.4180
1155.569, 253.4648
1156.659, 242.1172
1157.750, 187.5898
1158.839, 218.2617
1159.929, 96.53906
1161.019, 288.4062
1162.108, 127.1562
1163.198, 364.6289
1164.287, 70.00391
1165.376, 706.6641
1166.465, 371.3398
1167.553, 302.0469
1168.642, 222.0625
1169.730, 421.8242
1170.818, 230.5039
1171.906, 303.1836
1172.994, 603.0430
1174.082, 363.2812
1175.170, 90.09766
1176.257, 183.0078
1177.344, 149.9414
1178.431, 169.8984
1179.518, 124.8828
1180.605, 359.8867
1181.691, 338.9219
1182.778, 498.9766
1183.864, 477.3438
1184.950, 380.1719
1186.036, 410.3125
1187.122, 355.4961
1188.207, 348.7031
1189.292, 157.9453
1190.378, 396.2148
1191.463, 437.5117
1192.548, 249.8516
1193.632, 450.2188
1194.717, 163.6172
1195.801, 167.0391
1196.886, 693.4922
1197.970, 34.97656
1199.054, 325.5039
1200.137, 6.054688
1201.221, 237.6445
1202.305, 413.2695
1203.388, 393.9219
1204.471, 19.39062
1205.554, 607.3164
1206.637, 297.8750
1207.719, 0.3554690
1208.802, 265.5508
1209.884, 432.4102
1210.966, 493.2969
1212.048, 216.2227
1213.130, 420.1797
1214.212, 343.3594
1215.293, 392.4688
1216.374, 381.5195
1217.456, 420.6016
1218.536, 445.7227
1219.617, 403.8750
1220.698, 343.9062
1221.778, 253.2695
1222.859, 172.5273
1223.939, 179.6367
1225.019, 161.8164
1226.099, 567.1758
1227.178, 464.5625
1228.258, 486.9883
1229.337, 342.4453
1230.417, 446.9414
1231.496, 293.4727
1232.574, 479.0352
1233.653, 357.6367
1234.732, 310.2773
1235.810, 465.9492
1236.888, 431.6641
1237.966, 444.4102
1239.044, 278.1953
1240.122, 492.0234
1241.199, 341.8828
1242.277, 553.7773
1243.354, 568.7422
1244.431, 568.7422
1245.508, 341.7930
1246.585, 533.8828
1247.661, 578.0117
1248.738, 376.2031
1249.814, 448.4531
1250.890, 505.7422
1251.966, 426.0469
1253.042, 402.4336
1254.117, 224.8984
1255.193, 246.4102
1256.268, 377.9531
1257.343, 232.5430
1258.418, 392.1719
1259.493, 286.5117
1260.567, 263.2266
1261.642, 265.9883
1262.716, 373.7969
1263.790, 512.6562
1264.864, 315.5547
1265.938, 420.5000
1267.011, 336.4883
1268.085, 475.5156
1269.158, 172.5898
1270.231, 190.7031
1271.304, 455.0000
1272.377, 5.203125
1273.450, 146.5547
1274.522, 567.6992
1275.594, 3.9059999E-03
1276.666, 479.3398
1277.738, 358.7227
1278.810, 432.1484
1279.882, 640.6250
1280.953, 474.1445
1282.025, 374.7070
1283.096, 47.68359
1284.167, 104.9609
1285.238, 23.34766
1286.308, 128.6172
1287.379, 54.87500
1288.449, 51.90625
1289.519, 22.69531
1290.589, 173.7422
1291.659, 92.76953
1292.729, 133.7461
1293.798, 193.8672
1294.868, 157.0391
1295.937, 25.25781
1297.006, 150.4688
1298.075, 240.8125
1299.143, 37.85547
1300.212, 203.5195
1301.280, 270.0547
1302.348, 196.3516
1303.416, 79.82031
1304.484, 277.3438
1305.552, 227.9180
1306.620, 154.5469
1307.687, 196.2227
1308.754, 261.9531
1309.821, 256.7344
1310.888, 362.5664
1311.955, 293.4492
1313.021, 245.3828
1314.088, 438.3750
1315.154, 434.4180
1316.220, 698.5156
1317.286, 314.6641
1318.352, 691.8672
1319.417, 401.1289
1320.483, 434.4492
1321.548, 449.8281
1322.613, 378.2461
1323.678, 237.7109
1324.743, 545.2148
1325.807, 406.7656
1326.872, 634.3555
1327.936, 462.9922
1329.000, 247.5742
1330.064, 625.2930
1331.128, 655.0547
1332.191, 462.8633
1333.255, 321.8555
1334.318, 499.7500
1335.381, 386.6953
1336.444, 589.4531
1337.507, 645.5000
1338.569, 561.5820
1339.632, 604.7109
1340.694, 535.8789
1341.756, 312.1016
1342.818, 512.3828
1343.880, 472.7109
1344.941, 638.0781
1346.003, 278.5000
1347.064, 542.9648
1348.125, 492.4766
1349.186, 366.0352
1350.247, 530.6445
1351.308, 504.2969
1352.368, 716.0000
1353.428, 682.8398
1354.489, 658.5586
1355.549, 695.4297
1356.608, 493.3359
1357.668, 551.2969
1358.727, 405.2969
1359.787, 729.3516
1360.846, 644.4531
1361.905, 577.6016
1362.964, 806.8008
1364.022, 488.0508
1365.081, 898.3477
1366.139, 545.6992
1367.197, 669.0977
1368.255, 734.5469
1369.313, 347.0469
1370.371, 615.5977
1371.428, 506.1992
1372.486, 416.8477
1373.543, 323.5547
1374.600, 341.7500
1375.657, 780.1133
1376.713, 416.9727
1377.770, 417.8828
1378.826, 454.8438
1379.882, 106.8555
1380.938, 556.9219
1381.994, 401.0391
1383.050, 470.2070
1384.106, 85.43359
1385.161, 378.7031
1386.216, 603.0312
1387.271, 447.4102
1388.326, 352.8398
1389.381, 521.3242
1390.435, 752.8672
1391.490, 357.4531
1392.544, 583.1016
1393.598, 480.8047
1394.652, 678.5586
1395.705, 551.3711
1396.759, 527.2422
1397.812, 268.1719
1398.866, 575.1719
1399.919, 259.2344
1400.972, 483.7148
1402.024, 706.8984
1403.077, 616.0977
1404.129, 374.4023
1405.181, 243.7617
1406.233, 553.1836
1407.285, 483.6680
1408.337, 726.2188
1409.389, 498.8242
1410.440, 451.4141
1411.491, 449.1562
1412.542, 675.5273
1413.593, 412.5859
1414.644, 610.2578
1415.695, 201.2656
1416.745, 240.2812
1417.795, 553.4297
1418.845, 443.6562
1419.895, 571.0312
1420.945, 372.4766
1421.995, 431.0039
1423.044, 515.6055
1424.093, 612.0117
1425.142, 738.7734
1426.191, 708.2656
1427.240, 638.9062
1428.289, 634.8125
1429.337, 424.9258
1430.385, 374.1250
1431.433, 757.4219
1432.481, 178.8164
1433.529, 556.0039
1434.577, 313.2617
1435.624, 351.6016
1436.672, 528.0234
1437.719, 457.6719
1438.766, 308.2539
1439.812, 468.0977
1440.859, 517.8203
1441.905, 506.6406
1442.952, 561.5703
1443.998, 764.0117
1445.044, 473.2891
1446.090, 640.5586
1447.135, 426.0156
1448.181, 400.0664
1449.226, 472.7969
1450.271, 607.6016
1451.316, 780.4805
1452.361, 333.4297
1453.405, 493.4492
1454.450, 573.5586
1455.494, 256.7344
1456.538, 356.9922
1457.582, 401.3203
1458.626, 190.7188
1459.670, 694.1953
1460.713, 492.7461
1461.757, 490.3711
1462.800, 439.0664
1463.843, 502.8438
1464.886, 447.8789
1465.928, 465.0195
1466.971, 368.6055
1468.013, 526.6758
1469.055, 457.8203
1470.097, 590.0430
1471.139, 337.3359
1472.181, 552.7031
1473.222, 567.1562
1474.263, 456.6758
1475.305, 554.2695
1476.346, 316.9336
1477.386, 608.6797
1478.427, 398.5078
1479.468, 429.4062
1480.508, 505.3828
1481.548, 500.4336
1482.588, 475.5547
1483.628, 302.7461
1484.668, 423.0156
1485.707, 601.3633
1486.747, 370.7852
1487.786, 236.3359
1488.825, 411.9648
1489.864, 330.6719
1490.902, 575.4414
1491.941, 596.3008
1492.979, 307.2344
1494.017, 662.3164
1495.055, 362.4102
1496.093, 541.5117
1497.131, 635.6719
1498.168, 243.8984
1499.206, 159.2578
1500.243, 354.6797
1501.280, 368.2969
1502.317, 344.9727
1503.354, 326.6992
1504.390, 443.4805
1505.426, 70.32031
1506.463, 412.2109
1507.499, 687.1484
1508.535, 562.1328
1509.570, 322.1250
1510.606, 382.1523
1511.641, 127.3125
1512.676, 350.6094
1513.711, 261.0391
1514.746, 428.6094
1515.781, 461.3203
1516.816, 258.1719
1517.850, 340.1719
1518.884, 437.3164
1519.918, 323.6094
1520.952, 773.0508
1521.986, 435.6484
1523.019, 168.4023
1524.053, 506.3125
1525.086, 180.3867
1526.119, 316.6289
1527.152, 597.0430
1528.185, 372.6289
1529.217, 508.3906
1530.250, 204.3359
1531.282, 478.4727
1532.314, 430.7969
1533.346, 301.3203
1534.377, 142.0547
1535.409, 524.0039
1536.440, 475.1797
1537.472, 193.5781
1538.503, 459.2266
1539.534, 228.1289
1540.564, 203.6914
1541.595, 286.7891
1542.625, 154.5898
1543.656, 192.7227
1544.686, 321.1992
1545.716, 324.0430
1546.745, 121.2656
1547.775, 315.8906
1548.804, 76.93750
1549.834, 194.4375
1550.863, 238.4023
1551.892, 227.8828
1552.920, 147.9141
1553.949, 517.5273
1554.977, 199.7773
1556.006, 127.7266
1557.034, 64.82812
1558.062, 408.9023
1559.089, 148.0078
1560.117, 246.0078
1561.144, 86.69141
1562.172, 241.7539
1563.199, 100.6914
1564.226, 259.6914
1565.252, 258.3750
1566.279, 284.1250
1567.305, 115.7383
1568.332, 23.82031
1569.358, 515.8945
1570.384, 1.707031
1571.409, 0.0000000E+00
##END=



