##NAMES=Fluorapatite
##RRUFFID=R050194
##IDEAL CHEMISTRY=Ca_5_(PO_4_)_3_F
##LOCALITY=Siglo XX mine, Llallagua, Bolivia
##OWNER=RRUFF
##SOURCE=Dave Bunk Minerals
##DESCRIPTION=Purple crystal fragments
##STATUS=The identification of this mineral has been confirmed by X-ray diffraction and chemical analysis
##URL=rruff.info/R050194
##MEASURED CHEMISTRY=Ca_5.00_(P_1.00_O_4_)_3_F_1.00_
##PIN_ID=L01968
##ORIENTATION=Laser parallel to -a* (-1 0 0). Fiducial mark perpendicular to laser is parallel to -c [0 0 -1]
136.5850, 0.0000000E+00
137.8140, 7.793945
139.0430, 74.11816
140.2710, 8.360840
141.5000, 21.57861
142.7280, 1.137695
143.9560, 23.60645
145.1840, 21.89990
146.4120, 33.20654
147.6390, 103.9058
148.8670, 75.76270
150.0940, 107.2246
151.3210, 90.96191
152.5490, 96.12598
153.7750, 40.62256
155.0020, 23.15674
156.2290, 7.375000
157.4550, 4.791992
158.6810, 7.726074
159.9080, 45.65527
161.1340, 94.92627
162.3590, 91.18164
163.5850, 123.5103
164.8110, 81.90430
166.0360, 130.6270
167.2610, 57.21973
168.4860, 74.80615
169.7110, 99.38965
170.9360, 61.92725
172.1610, 139.1826
173.3850, 109.9316
174.6100, 117.6841
175.8340, 128.1807
177.0580, 143.5249
178.2820, 210.8818
179.5050, 150.3403
180.7290, 125.8809
181.9520, 57.65723
183.1760, 9.143066
184.3990, 114.6929
185.6220, 32.12012
186.8450, 102.1724
188.0670, 100.2822
189.2900, 120.5137
190.5120, 78.68213
191.7340, 116.4839
192.9560, 146.5273
194.1780, 87.13379
195.4000, 75.02539
196.6220, 187.0151
197.8430, 92.70312
199.0640, 88.37939
200.2860, 39.86572
201.5070, 133.1968
202.7270, 168.5259
203.9480, 93.33594
205.1690, 126.7236
206.3890, 49.05713
207.6090, 249.7349
208.8290, 79.66211
210.0490, 154.4434
211.2690, 115.0601
212.4890, 79.87695
213.7080, 96.41113
214.9280, 117.5239
216.1470, 128.7144
217.3660, 131.9399
218.5850, 157.0615
219.8030, 110.0889
221.0220, 38.20752
222.2400, 108.1411
223.4590, 90.84717
224.6770, 141.5396
225.8950, 70.95557
227.1120, 174.0215
228.3300, 110.1509
229.5480, 155.7261
230.7650, 56.61572
231.9820, 129.8003
233.1990, 141.8945
234.4160, 85.39941
235.6330, 127.4678
236.8490, 161.1465
238.0660, 101.5239
239.2820, 129.4341
240.4980, 91.97852
241.7140, 125.1499
242.9300, 98.21631
244.1460, 123.4785
245.3610, 102.9927
246.5770, 166.0957
247.7920, 74.84326
249.0070, 68.75342
250.2220, 17.36133
251.4370, 86.37305
252.6510, 56.02051
253.8660, 75.59521
255.0800, 105.9248
256.2940, 100.5542
257.5080, 56.55273
258.7220, 69.84961
259.9360, 84.18896
261.1490, 46.99561
262.3630, 134.0664
263.5760, 117.9507
264.7890, 122.6455
266.0020, 135.7598
267.2150, 129.4717
268.4270, 117.9785
269.6400, 139.9624
270.8520, 153.6733
272.0640, 172.9233
273.2760, 163.0117
274.4880, 173.0493
275.7000, 164.1465
276.9120, 161.1006
278.1230, 126.8149
279.3340, 94.64258
280.5450, 42.18066
281.7560, 56.14453
282.9670, 70.97070
284.1780, 64.57861
285.3880, 223.9951
286.5980, 73.09668
287.8090, 158.2158
289.0190, 74.91406
290.2290, 56.91602
291.4380, 68.88281
292.6480, 17.73975
293.8570, 23.94189
295.0670, 162.2681
296.2760, 180.7334
297.4850, 95.95703
298.6930, 94.36523
299.9020, 57.48779
301.1110, 22.31885
302.3190, 42.03467
303.5270, 47.66455
304.7350, 89.91309
305.9430, 116.6216
307.1510, 170.6694
308.3580, 217.2202
309.5660, 98.25830
310.7730, 158.3555
311.9800, 34.29639
313.1870, 38.21240
314.3940, 184.0352
315.6010, 108.7441
316.8070, 139.4531
318.0130, 80.09180
319.2200, 152.7715
320.4260, 156.3623
321.6310, 155.2134
322.8370, 100.4385
324.0430, 157.8408
325.2480, 118.0894
326.4540, 87.02295
327.6590, 62.92236
328.8640, 146.0493
330.0680, 196.8765
331.2730, 96.57520
332.4780, 1.353516
333.6820, 47.36475
334.8860, 33.66650
336.0900, 51.54492
337.2940, 3.348145
338.4980, 66.02441
339.7010, 7.086426
340.9050, 73.73291
342.1080, 68.26367
343.3110, 146.3374
344.5140, 127.5000
345.7170, 141.9150
346.9200, 73.86914
348.1220, 48.68164
349.3240, 20.48779
350.5270, 179.6597
351.7290, 10.97021
352.9310, 148.5010
354.1320, 126.6650
355.3340, 5.768555
356.5350, 160.3228
357.7370, 123.6431
358.9380, 119.3975
360.1390, 125.2109
361.3400, 185.0322
362.5400, 105.8857
363.7410, 73.29297
364.9410, 133.6699
366.1410, 32.97070
367.3410, 86.53711
368.5410, 208.7998
369.7410, 76.88574
370.9400, 75.98047
372.1400, 248.0820
373.3390, 146.2705
374.5380, 110.2861
375.7370, 54.07812
376.9360, 137.1816
378.1350, 126.1191
379.3330, 172.9521
380.5310, 120.7549
381.7300, 158.3652
382.9280, 76.38086
384.1260, 76.90039
385.3230, 70.70605
386.5210, 231.9209
387.7180, 17.92676
388.9160, 165.5361
390.1130, 151.5479
391.3100, 195.3711
392.5060, 97.08594
393.7030, 146.8574
394.9000, 129.2627
396.0960, 143.7607
397.2920, 222.8018
398.4880, 160.7363
399.6840, 93.60742
400.8800, 127.7725
402.0750, 171.7236
403.2710, 90.13574
404.4660, 122.5371
405.6610, 37.78711
406.8560, 2.509766
408.0510, 97.20215
409.2450, 52.87305
410.4400, 170.7480
411.6340, 60.70801
412.8280, 136.6836
414.0220, 191.3662
415.2160, 56.78125
416.4100, 195.3291
417.6030, 216.4150
418.7970, 177.0918
419.9900, 212.9854
421.1830, 244.5693
422.3760, 198.9600
423.5690, 293.1094
424.7610, 272.5488
425.9540, 377.4990
427.1460, 315.5713
428.3380, 447.9980
429.5300, 410.4131
430.7220, 411.1455
431.9140, 347.1992
433.1050, 355.9180
434.2970, 310.4473
435.4880, 318.6172
436.6790, 233.0039
437.8700, 192.5332
439.0610, 149.2822
440.2510, 197.9766
441.4420, 143.4971
442.6320, 194.6406
443.8220, 235.9971
445.0120, 362.2061
446.2020, 174.9951
447.3910, 174.7607
448.5810, 234.7227
449.7700, 148.6699
450.9600, 257.2578
452.1490, 130.9375
453.3370, 105.8271
454.5260, 132.2314
455.7150, 127.2412
456.9030, 137.1865
458.0910, 153.8320
459.2800, 143.0781
460.4670, 148.0645
461.6550, 126.9990
462.8430, 136.8916
464.0300, 122.6035
465.2180, 142.2314
466.4050, 147.6650
467.5920, 172.3818
468.7790, 235.7520
469.9650, 220.5664
471.1520, 243.2295
472.3380, 224.3184
473.5250, 203.9385
474.7110, 142.9414
475.8970, 213.4199
477.0820, 139.9277
478.2680, 173.9238
479.4540, 269.4951
480.6390, 9.083008
481.8240, 307.3262
483.0090, 51.19238
484.1940, 135.1963
485.3780, 230.4092
486.5630, 129.9717
487.7470, 137.6426
488.9320, 219.5996
490.1160, 35.66895
491.3000, 222.3623
492.4830, 131.6738
493.6670, 257.9180
494.8500, 47.05566
496.0340, 66.64160
497.2170, 215.3760
498.4000, 74.63867
499.5820, 222.4697
500.7650, 119.7168
501.9480, 100.2109
503.1300, 83.88672
504.3120, 310.7520
505.4940, 3.394531
506.6760, 154.0977
507.8580, 85.49512
509.0390, 68.38184
510.2210, 118.8975
511.4020, 173.2295
512.5830, 109.7949
513.7640, 0.4101560
514.9450, 103.5059
516.1250, 143.8906
517.3060, 117.2471
518.4860, 95.71289
519.6660, 122.1738
520.8460, 91.91992
522.0260, 123.1025
523.2060, 145.9990
524.3850, 162.9023
525.5650, 154.7197
526.7440, 14.01562
527.9230, 136.4551
529.1020, 144.5371
530.2810, 243.1152
531.4590, 107.9873
532.6380, 193.3242
533.8160, 119.0439
534.9940, 86.01172
536.1720, 80.42871
537.3500, 140.3369
538.5270, 202.7988
539.7050, 234.0264
540.8820, 265.0293
542.0590, 284.5684
543.2360, 297.0068
544.4130, 295.4512
545.5900, 298.0166
546.7660, 264.5840
547.9430, 233.0752
549.1190, 196.7178
550.2950, 196.7520
551.4710, 146.1680
552.6470, 104.9844
553.8220, 75.21777
554.9980, 1.624023
556.1730, 16.41113
557.3480, 66.14453
558.5230, 28.79883
559.6980, 54.35449
560.8730, 55.71875
562.0470, 110.2383
563.2220, 108.1094
564.3960, 119.4053
565.5700, 16.25781
566.7440, 102.4424
567.9170, 71.59863
569.0910, 204.4990
570.2640, 85.28320
571.4380, 108.9844
572.6110, 102.3877
573.7840, 359.5566
574.9570, 232.7686
576.1290, 280.8135
577.3020, 258.9580
578.4740, 224.0137
579.6460, 358.6934
580.8180, 99.44922
581.9900, 280.0537
583.1620, 113.0146
584.3330, 247.4746
585.5040, 198.2754
586.6760, 329.8809
587.8470, 334.9971
589.0180, 311.0391
590.1880, 416.9053
591.3590, 207.7764
592.5290, 216.1006
593.7000, 268.5283
594.8700, 188.1416
596.0400, 118.0244
597.2090, 123.6797
598.3790, 104.8389
599.5490, 129.2412
600.7180, 161.9971
601.8870, 119.4258
603.0560, 184.9141
604.2250, 213.8145
605.3940, 222.9648
606.5620, 196.9941
607.7300, 168.4355
608.8990, 193.5967
610.0670, 279.3154
611.2350, 273.5381
612.4020, 229.4502
613.5700, 155.4512
614.7370, 176.3516
615.9050, 39.75586
617.0720, 195.9639
618.2390, 94.76270
619.4060, 148.3291
620.5720, 230.4443
621.7390, 211.2832
622.9050, 305.1582
624.0710, 143.1025
625.2370, 162.1797
626.4030, 141.4531
627.5690, 79.00195
628.7340, 246.0811
629.9000, 133.2959
631.0650, 161.6523
632.2300, 11.30371
633.3950, 145.8691
634.5600, 119.6338
635.7240, 236.3818
636.8890, 161.1045
638.0530, 112.8770
639.2170, 135.0947
640.3810, 221.1768
641.5450, 139.3867
642.7080, 360.6113
643.8720, 62.16797
645.0350, 275.4932
646.1980, 208.2441
647.3610, 85.26367
648.5240, 235.4834
649.6870, 30.55371
650.8490, 102.7744
652.0120, 137.6230
653.1740, 106.8750
654.3360, 43.69922
655.4980, 3.572266
656.6600, 148.4219
657.8210, 39.56250
658.9830, 115.9453
660.1440, 257.5625
661.3050, 181.4453
662.4660, 178.2461
663.6270, 196.5059
664.7870, 133.0234
665.9480, 232.4629
667.1080, 149.2656
668.2680, 151.7168
669.4280, 209.8184
670.5880, 101.6914
671.7480, 197.2246
672.9070, 131.7988
674.0670, 3.121094
675.2260, 119.2637
676.3850, 208.1992
677.5440, 312.4805
678.7030, 193.2168
679.8610, 137.0527
681.0200, 109.3223
682.1780, 114.8770
683.3360, 57.43750
684.4940, 111.9746
685.6520, 172.7012
686.8090, 29.28320
687.9670, 240.6289
689.1240, 220.3574
690.2810, 149.0996
691.4380, 327.3438
692.5950, 243.5430
693.7520, 178.9941
694.9080, 199.4395
696.0650, 107.3711
697.2210, 199.9863
698.3770, 3.041016
699.5330, 104.2988
700.6880, 39.84961
701.8440, 187.5176
702.9990, 261.6055
704.1550, 204.3340
705.3100, 85.04102
706.4650, 227.5566
707.6190, 53.42969
708.7740, 169.2344
709.9290, 170.1484
711.0830, 23.18945
712.2370, 41.89062
713.3910, 235.3555
714.5450, 252.3281
715.6980, 218.5605
716.8520, 139.0918
718.0050, 170.9453
719.1580, 92.27344
720.3110, 4.6875000E-02
721.4640, 32.27539
722.6170, 154.3477
723.7700, 97.30664
724.9220, 17.61523
726.0740, 167.6895
727.2260, 168.3770
728.3780, 255.3203
729.5300, 150.8711
730.6810, 133.3340
731.8330, 204.3418
732.9840, 117.8203
734.1350, 62.74219
735.2860, 93.54688
736.4370, 31.35742
737.5880, 111.6855
738.7380, 47.92188
739.8880, 96.91211
741.0390, 53.99414
742.1890, 175.2520
743.3380, 58.43750
744.4880, 113.7930
745.6380, 241.8516
746.7870, 362.7227
747.9360, 27.11914
749.0850, 324.9277
750.2340, 155.7031
751.3830, 97.72266
752.5310, 90.73438
753.6800, 130.3340
754.8280, 230.9219
755.9760, 238.1133
757.1240, 316.6602
758.2720, 50.54688
759.4190, 218.4531
760.5670, 103.3008
761.7140, 75.32422
762.8610, 90.35938
764.0080, 1.699219
765.1550, 175.4473
766.3020, 277.1641
767.4480, 354.3457
768.5950, 60.40234
769.7410, 18.86328
770.8870, 100.9727
772.0330, 162.0684
773.1780, 159.5762
774.3240, 187.8125
775.4690, 307.7031
776.6140, 283.7402
777.7590, 206.8867
778.9040, 295.2207
780.0490, 254.2129
781.1940, 222.2676
782.3380, 355.2227
783.4820, 125.9473
784.6260, 55.28320
785.7700, 139.0938
786.9140, 150.2832
788.0580, 137.2832
789.2010, 49.65625
790.3450, 84.46289
791.4880, 5.554688
792.6310, 45.07422
793.7730, 171.7891
794.9160, 62.96289
796.0590, 23.02930
797.2010, 140.3320
798.3430, 269.1367
799.4850, 302.6523
800.6270, 199.5723
801.7690, 142.5781
802.9100, 149.2734
804.0520, 108.2441
805.1930, 95.55078
806.3340, 169.3867
807.4750, 76.15625
808.6160, 234.6523
809.7560, 294.4512
810.8970, 262.7129
812.0370, 253.1816
813.1770, 2.722656
814.3170, 44.85547
815.4570, 24.58984
816.5960, 167.0684
817.7360, 81.23047
818.8750, 249.3770
820.0140, 243.0566
821.1530, 228.4355
822.2920, 167.9941
823.4310, 26.25586
824.5690, 25.65234
825.7070, 34.99219
826.8460, 131.7793
827.9840, 66.40820
829.1220, 46.28125
830.2590, 131.7383
831.3970, 191.8730
832.5340, 122.0391
833.6710, 9.224609
834.8080, 131.8535
835.9450, 118.6602
837.0820, 20.72852
838.2190, 223.4492
839.3550, 103.2793
840.4910, 183.7695
841.6270, 266.5645
842.7630, 182.8047
843.8990, 387.5859
845.0350, 178.5605
846.1700, 253.9941
847.3060, 229.3906
848.4410, 340.9648
849.5760, 75.64062
850.7100, 80.23047
851.8450, 284.8086
852.9800, 170.1465
854.1140, 315.1055
855.2480, 248.1523
856.3820, 138.8145
857.5160, 194.7070
858.6500, 345.9668
859.7830, 185.7559
860.9170, 471.2852
862.0500, 36.24609
863.1830, 352.9766
864.3160, 32.66211
865.4480, 400.6484
866.5810, 158.1465
867.7130, 55.51953
868.8460, 197.2246
869.9780, 201.7441
871.1100, 169.3945
872.2410, 156.3926
873.3730, 56.52930
874.5050, 300.8105
875.6360, 108.4141
876.7670, 265.2363
877.8980, 379.7910
879.0290, 390.8516
880.1590, 387.8828
881.2900, 328.4141
882.4200, 271.6074
883.5500, 149.0742
884.6800, 116.1230
885.8100, 103.4863
886.9400, 222.1348
888.0690, 33.50977
889.1990, 234.7266
890.3280, 79.69727
891.4570, 106.9629
892.5860, 142.7285
893.7140, 101.7305
894.8430, 158.4922
895.9710, 139.0000
897.1000, 171.9785
898.2280, 236.7949
899.3560, 265.6289
900.4830, 170.5469
901.6110, 194.6504
902.7380, 19.86328
903.8660, 135.6973
904.9930, 15.91602
906.1200, 160.9746
907.2460, 92.47266
908.3730, 182.1777
909.5000, 107.8320
910.6260, 99.55469
911.7520, 212.7363
912.8780, 324.7773
914.0040, 246.2891
915.1290, 228.4707
916.2550, 141.2715
917.3800, 145.8926
918.5050, 141.8750
919.6300, 152.1484
920.7550, 136.7832
921.8800, 179.9219
923.0040, 302.0664
924.1290, 219.1250
925.2530, 184.6660
926.3770, 320.4277
927.5010, 146.0391
928.6250, 54.17969
929.7480, 273.7852
930.8720, 114.1895
931.9950, 126.1484
933.1180, 130.8730
934.2410, 109.0977
935.3640, 63.32227
936.4860, 1.822266
937.6090, 30.72461
938.7310, 59.11914
939.8530, 285.5547
940.9750, 148.7734
942.0970, 214.9062
943.2180, 149.9414
944.3400, 47.63672
945.4610, 219.5391
946.5820, 222.2754
947.7030, 289.9414
948.8240, 156.1191
949.9450, 240.6660
951.0650, 134.9141
952.1860, 131.0859
953.3060, 89.84961
954.4260, 271.3008
955.5460, 404.6973
956.6650, 435.3223
957.7850, 551.3457
958.9040, 709.0449
960.0230, 870.9727
961.1420, 1187.273
962.2610, 1572.461
963.3800, 1999.832
964.4990, 2028.977
965.6170, 2060.324
966.7350, 1355.221
967.8530, 1093.799
968.9710, 861.4727
970.0890, 438.0391
971.2070, 387.5312
972.3240, 165.9043
973.4410, 338.7891
974.5580, 67.14453
975.6750, 37.80664
976.7920, 197.7793
977.9090, 191.3809
979.0250, 351.3906
980.1410, 321.9258
981.2580, 292.0918
982.3740, 260.8047
983.4890, 174.7129
984.6050, 112.6836
985.7200, 120.5742
986.8360, 198.2852
987.9510, 125.6250
989.0660, 192.3516
990.1810, 169.9766
991.2950, 250.1230
992.4100, 111.5977
993.5240, 176.8418
994.6390, 163.3184
995.7530, 243.6836
996.8660, 148.7402
997.9800, 232.3301
999.0940, 202.5156
1000.207, 314.0547
1001.320, 143.1016
1002.433, 97.55273
1003.546, 35.72461
1004.659, 45.01172
1005.772, 169.8086
1006.884, 25.41406
1007.996, 36.74219
1009.108, 303.9980
1010.220, 275.5703
1011.332, 165.7852
1012.444, 113.0039
1013.555, 100.9648
1014.666, 77.32031
1015.777, 137.6133
1016.888, 132.7812
1017.999, 254.4570
1019.110, 349.0078
1020.220, 116.4961
1021.331, 327.4609
1022.441, 248.0391
1023.551, 50.03125
1024.661, 173.7031
1025.770, 78.57031
1026.880, 107.6875
1027.989, 267.8750
1029.098, 330.0391
1030.207, 382.0078
1031.316, 356.4688
1032.425, 350.1914
1033.533, 355.4531
1034.642, 121.4336
1035.750, 311.9453
1036.858, 254.6172
1037.966, 178.8594
1039.073, 329.2109
1040.181, 583.5469
1041.288, 341.5469
1042.396, 403.9531
1043.503, 88.03125
1044.610, 159.0703
1045.716, 202.5664
1046.823, 149.1914
1047.929, 228.8047
1049.036, 216.3398
1050.142, 237.3047
1051.248, 229.6641
1052.353, 328.8047
1053.459, 196.9883
1054.564, 323.0977
1055.670, 284.3789
1056.775, 268.8750
1057.880, 228.3086
1058.985, 211.5977
1060.089, 119.0664
1061.194, 47.18750
1062.298, 178.3594
1063.402, 213.7969
1064.506, 313.7734
1065.610, 300.8047
1066.713, 430.8438
1067.817, 22.78906
1068.920, 205.8750
1070.023, 80.25391
1071.126, 274.9648
1072.229, 154.3477
1073.332, 419.6914
1074.435, 3.777344
1075.537, 335.0977
1076.639, 271.1641
1077.741, 359.2578
1078.843, 197.5547
1079.945, 324.8359
1081.046, 35.11328
1082.148, 171.1992
1083.249, 225.4688
1084.350, 192.4727
1085.451, 334.4648
1086.551, 232.2891
1087.652, 205.5391
1088.752, 12.22266
1089.853, 81.99609
1090.953, 2.796875
1092.053, 65.40625
1093.152, 206.6172
1094.252, 94.83594
1095.351, 162.0977
1096.451, 248.3555
1097.550, 20.61719
1098.649, 248.8594
1099.748, 192.1016
1100.846, 274.3438
1101.945, 271.5898
1103.043, 159.8359
1104.141, 19.92188
1105.239, 347.3125
1106.337, 415.5430
1107.434, 183.3633
1108.532, 461.5820
1109.629, 352.8008
1110.726, 271.0195
1111.823, 177.2344
1112.920, 19.54688
1114.017, 45.64453
1115.113, 149.8320
1116.210, 245.0234
1117.306, 9.867188
1118.402, 127.2617
1119.498, 340.4414
1120.593, 33.39453
1121.689, 284.7539
1122.784, 319.9023
1123.879, 55.94922
1124.974, 202.1016
1126.069, 118.7812
1127.164, 126.2695
1128.259, 69.68359
1129.353, 216.3320
1130.447, 140.3477
1131.541, 225.3711
1132.635, 279.3945
1133.729, 36.42188
1134.822, 270.3672
1135.916, 248.0820
1137.009, 278.3906
1138.102, 40.56250
1139.195, 341.2578
1140.288, 175.9922
1141.380, 427.0195
1142.473, 295.0586
1143.565, 270.1016
1144.657, 248.9688
1145.749, 368.0195
1146.841, 313.8633
1147.932, 415.0469
1149.024, 378.7500
1150.115, 270.0859
1151.206, 230.3594
1152.297, 197.0000
1153.388, 139.5312
1154.479, 143.6484
1155.569, 65.15234
1156.659, 0.9921880
1157.750, 16.75000
1158.839, 85.94141
1159.929, 30.92578
1161.019, 219.7383
1162.108, 315.8672
1163.198, 329.0000
1164.287, 351.1445
1165.376, 81.29688
1166.465, 128.4570
1167.553, 239.6250
1168.642, 367.8242
1169.730, 13.96875
1170.818, 307.2539
1171.906, 172.4844
1172.994, 254.7266
1174.082, 372.9805
1175.170, 288.2500
1176.257, 127.5312
1177.344, 262.8203
1178.431, 225.1172
1179.518, 265.4336
1180.605, 102.7539
1181.691, 296.0938
1182.778, 376.4414
1183.864, 22.80469
1184.950, 531.1836
1186.036, 249.5742
1187.122, 461.9766
1188.207, 271.3984
1189.292, 255.8242
1190.378, 645.2695
1191.463, 352.7266
1192.548, 143.8359
1193.632, 387.3516
1194.717, 502.8789
1195.801, 246.4258
1196.886, 335.9844
1197.970, 295.5586
1199.054, 28.75391
1200.137, 220.8438
1201.221, 386.4648
1202.305, 437.1172
1203.388, 220.7812
1204.471, 255.4648
1205.554, 238.5273
1206.637, 43.24609
1207.719, 250.9766
1208.802, 150.7344
1209.884, 201.5039
1210.966, 324.2969
1212.048, 354.6680
1213.130, 292.4922
1214.212, 408.3359
1215.293, 110.1992
1216.374, 477.0742
1217.456, 208.9727
1218.536, 129.8906
1219.617, 664.5039
1220.698, 39.46094
1221.778, 250.6562
1222.859, 324.6484
1223.939, 232.6602
1225.019, 193.6914
1226.099, 645.7383
1227.178, 337.8086
1228.258, 163.2188
1229.337, 303.3320
1230.417, 725.4570
1231.496, 268.6055
1232.574, 531.7734
1233.653, 439.9609
1234.732, 206.6602
1235.810, 373.8906
1236.888, 368.1406
1237.966, 331.4180
1239.044, 185.7227
1240.122, 589.0430
1241.199, 373.3906
1242.277, 388.7539
1243.354, 234.8047
1244.431, 291.2031
1245.508, 173.6367
1246.585, 43.09375
1247.661, 141.7891
1248.738, 251.2930
1249.814, 397.8164
1250.890, 254.4219
1251.966, 182.9922
1253.042, 215.5938
1254.117, 112.8359
1255.193, 118.4844
1256.268, 30.94531
1257.343, 150.6445
1258.418, 136.6133
1259.493, 291.3594
1260.567, 342.0000
1261.642, 222.9453
1262.716, 424.7773
1263.790, 459.6289
1264.864, 349.5117
1265.938, 434.4258
1267.011, 199.4023
1268.085, 80.51953
1269.158, 170.5078
1270.231, 168.4297
1271.304, 262.6016
1272.377, 97.66797
1273.450, 94.23438
1274.522, 181.8594
1275.594, 349.9844
1276.666, 76.85547
1277.738, 86.30469
1278.810, 192.4961
1279.882, 50.32812
1280.953, 104.8555
1282.025, 429.0703
1283.096, 183.3164
1284.167, 127.5898
1285.238, 94.89844
1286.308, 198.2734
1287.379, 253.9805
1288.449, 279.4414
1289.519, 94.43750
1290.589, 149.0781
1291.659, 37.62891
1292.729, 319.2109
1293.798, 143.8242
1294.868, 301.4727
1295.937, 154.1562
1297.006, 410.8672
1298.075, 410.6172
1299.143, 430.9258
1300.212, 394.7422
1301.280, 379.8438
1302.348, 352.6914
1303.416, 315.4023
1304.484, 272.3594
1305.552, 245.3516
1306.620, 194.3828
1307.687, 189.5586
1308.754, 401.5508
1309.821, 215.6875
1310.888, 346.8672
1311.955, 451.0820
1313.021, 376.3242
1314.088, 564.6172
1315.154, 341.9492
1316.220, 333.3242
1317.286, 644.7383
1318.352, 414.1914
1319.417, 332.6953
1320.483, 430.2344
1321.548, 625.8281
1322.613, 182.4453
1323.678, 482.0898
1324.743, 219.7656
1325.807, 258.4688
1326.872, 347.2031
1327.936, 418.3398
1329.000, 424.3750
1330.064, 492.9648
1331.128, 437.8242
1332.191, 463.7148
1333.255, 473.6328
1334.318, 298.5898
1335.381, 194.5781
1336.444, 441.5938
1337.507, 218.6445
1338.569, 335.7266
1339.632, 394.8438
1340.694, 145.9883
1341.756, 301.1680
1342.818, 278.3789
1343.880, 389.6250
1344.941, 694.8984
1346.003, 437.2070
1347.064, 791.5547
1348.125, 109.9414
1349.186, 595.3633
1350.247, 382.8281
1351.308, 472.3203
1352.368, 336.8516
1353.428, 355.4141
1354.489, 433.0117
1355.549, 613.6484
1356.608, 353.3164
1357.668, 278.0195
1358.727, 12.76562
1359.787, 366.5430
1360.846, 197.3555
1361.905, 341.1992
1362.964, 466.0977
1364.022, 212.0312
1365.081, 367.0039
1366.139, 298.0117
1367.197, 371.0586
1368.255, 651.1406
1369.313, 155.2617
1370.371, 239.4258
1371.428, 534.6367
1372.486, 239.8867
1373.543, 446.1758
1374.600, 587.5000
1375.657, 539.8789
1376.713, 608.6289
1377.770, 281.7422
1378.826, 495.2500
1379.882, 310.7930
1380.938, 135.3828
1381.994, 215.0234
1383.050, 241.7070
1384.106, 43.46875
1385.161, 204.2617
1386.216, 184.1172
1387.271, 326.0156
1388.326, 466.9570
1389.381, 65.93359
1390.435, 449.9531
1391.490, 11.01562
1392.544, 366.1484
1393.598, 197.2930
1394.652, 698.4844
1395.705, 241.3555
1396.759, 574.6484
1397.812, 391.9805
1398.866, 549.3594
1399.919, 60.78516
1400.972, 202.4336
1402.024, 441.9531
1403.077, 257.5195
1404.129, 428.0039
1405.181, 505.6680
1406.233, 365.4766
1407.285, 199.0391
1408.337, 300.8477
1409.389, 364.7148
1410.440, 272.6289
1411.491, 318.5938
1412.542, 352.7891
1413.593, 283.6953
1414.644, 341.8398
1415.695, 419.0430
1416.745, 181.6797
1417.795, 140.0039
1418.845, 477.3867
1419.895, 350.8320
1420.945, 371.3320
1421.995, 304.9023
1423.044, 199.5352
1424.093, 171.2344
1425.142, 291.9961
1426.191, 269.5273
1427.240, 215.7461
1428.289, 388.7344
1429.337, 312.7891
1430.385, 362.9258
1431.433, 533.1406
1432.481, 361.4414
1433.529, 552.7227
1434.577, 560.0820
1435.624, 348.5273
1436.672, 364.0547
1437.719, 143.6758
1438.766, 131.3867
1439.812, 460.5898
1440.859, 510.8125
1441.905, 518.0742
1442.952, 571.8984
1443.998, 545.7031
1445.044, 347.4453
1446.090, 474.7109
1447.135, 134.7383
1448.181, 151.4961
1449.226, 247.3828
1450.271, 388.3320
1451.316, 338.3438
1452.361, 259.4141
1453.405, 185.5469
1454.450, 179.8477
1455.494, 127.2031
1456.538, 223.2852
1457.582, 192.6523
1458.626, 323.0664
1459.670, 307.0469
1460.713, 480.0859
1461.757, 301.6875
1462.800, 443.3438
1463.843, 427.0625
1464.886, 427.8398
1465.928, 115.6758
1466.971, 345.5742
1468.013, 399.5273
1469.055, 282.5469
1470.097, 535.6250
1471.139, 184.7695
1472.181, 292.9688
1473.222, 288.2266
1474.263, 435.5508
1475.305, 327.9336
1476.346, 481.3828
1477.386, 513.8867
1478.427, 416.0625
1479.468, 344.0820
1480.508, 173.7734
1481.548, 450.5195
1482.588, 215.3281
1483.628, 444.1914
1484.668, 181.1328
1485.707, 241.1875
1486.747, 470.3438
1487.786, 27.59375
1488.825, 736.9180
1489.864, 294.3672
1490.902, 162.9453
1491.941, 296.5781
1492.979, 337.2812
1494.017, 243.0430
1495.055, 414.8750
1496.093, 403.7617
1497.131, 184.7109
1498.168, 82.71484
1499.206, 143.7773
1500.243, 88.87500
1501.280, 100.0547
1502.317, 229.2734
1503.354, 237.5391
1504.390, 388.8516
1505.426, 299.2070
1506.463, 195.5977
1507.499, 257.0117
1508.535, 363.4336
1509.570, 167.8672
1510.606, 324.3008
1511.641, 138.8594
1512.676, 346.5352
1513.711, 107.3242
1514.746, 494.2344
1515.781, 306.2617
1516.816, 4.593750
1517.850, 359.6836
1518.884, 159.0820
1519.918, 162.6172
1520.952, 255.2734
1521.986, 274.0703
1523.019, 231.0000
1524.053, 124.0703
1525.086, 288.2852
1526.119, 415.6445
1527.152, 348.6367
1528.185, 561.8203
1529.217, 309.6484
1530.250, 344.6367
1531.282, 329.7891
1532.314, 195.0977
1533.346, 365.5742
1534.377, 303.2266
1535.409, 474.0547
1536.440, 402.0742
1537.472, 35.29297
1538.503, 153.7227
1539.534, 255.3750
1540.564, 115.7266
1541.595, 201.4297
1542.625, 309.8750
1543.656, 228.6133
1544.686, 299.5234
1545.716, 342.8945
1546.745, 307.6016
1547.775, 311.9375
1548.804, 250.1211
1549.834, 237.9766
1550.863, 218.2617
1551.892, 191.0039
1552.920, 172.8516
1553.949, 183.4492
1554.977, 162.4102
1556.006, 233.4258
1557.034, 289.0938
1558.062, 354.8047
1559.089, 267.0977
1560.117, 296.4453
1561.144, 422.4766
1562.172, 256.5742
1563.199, 54.22656
1564.226, 89.32812
1565.252, 127.6523
1566.279, 37.88281
1567.305, 136.6680
1568.332, 167.3203
1569.358, 348.2617
1570.384, 1.750000
1571.409, 0.0000000E+00
##END=



