##NAMES=Fluorite
##RRUFFID=R050045
##IDEAL CHEMISTRY=CaF_2_
##LOCALITY=Hunan Province, China
##OWNER=RRUFF
##SOURCE=Eugene Schlepp
##DESCRIPTION=Pale green colored cubes
##STATUS=The identification of this mineral has been confirmed by X-ray diffraction and chemical analysis
##URL=rruff.info/R050045
##MEASURED CHEMISTRY=Ca_1.000_ F_2.000_
##PIN_ID=L00437
##ORIENTATION=Laser parallel to a* (1 0 0). Fiducial mark perpendicular to laser is parallel to -b [0 -1 0]
132.432, 0.000
133.821, 109.438
135.210, 2.534
136.599, 220.748
137.987, 97.958
139.376, 208.150
140.764, 140.685
142.152, 165.098
143.539, 271.061
144.927, 98.346
146.314, 276.756
147.701, 276.131
149.088, 106.336
150.474, 227.275
151.861, 128.871
153.247, 321.051
154.633, 103.762
156.018, 337.094
157.404, 230.838
158.789, 94.957
160.174, 249.422
161.559, 244.209
162.943, 309.289
164.327, 311.438
165.711, 280.264
167.095, 236.119
168.479, 232.230
169.862, 138.559
171.246, 155.100
172.628, 131.844
174.011, 118.781
175.394, 132.207
176.776, 83.168
178.158, 62.922
179.540, 67.684
180.922, 18.037
182.303, 115.789
183.684, 153.668
185.065, 281.660
186.446, 159.768
187.826, 117.977
189.207, 256.293
190.587, 14.707
191.967, 323.217
193.346, 51.816
194.726, 250.504
196.105, 169.277
197.484, 78.135
198.862, 167.074
200.241, 156.098
201.619, 75.199
202.997, 85.010
204.375, 274.281
205.753, 73.695
207.130, 83.221
208.507, 312.846
209.884, 252.537
211.261, 222.316
212.638, 32.188
214.014, 222.121
215.390, 242.096
216.766, 132.055
218.141, 122.006
219.517, 101.955
220.892, 131.916
222.267, 48.107
223.642, 91.887
225.016, 161.902
226.391, 31.943
227.765, 182.016
229.139, 112.191
230.512, 262.391
231.886, 272.621
233.259, 92.879
234.632, 93.176
236.005, 23.506
237.377, 363.865
238.749, 44.254
240.122, 254.672
241.493, 325.119
242.865, 195.605
244.237, 216.129
245.608, 46.680
246.979, 217.264
248.350, 7.877
249.720, 398.520
251.090, 179.193
252.461, 189.895
253.830, 200.637
255.200, 131.408
256.570, 212.213
257.939, 143.045
259.308, 173.906
260.677, 234.795
262.045, 235.717
263.414, 416.703
264.782, 57.756
266.150, 348.840
267.517, 199.957
268.885, 361.133
270.252, 62.367
271.619, 26.363
272.986, 345.676
274.353, 197.305
275.719, 428.697
277.085, 103.484
278.451, 324.930
279.817, 476.641
281.182, 121.295
282.548, 302.844
283.913, 264.516
285.278, 316.109
286.642, 357.725
288.007, 339.359
289.371, 384.314
290.735, 325.422
292.099, 427.096
293.462, 518.789
294.826, 560.504
296.189, 782.236
297.552, 582.703
298.914, 842.473
300.277, 721.547
301.639, 931.621
303.001, 1231.816
304.363, 1232.121
305.724, 1702.520
307.086, 1883.004
308.447, 2673.568
309.808, 3244.205
311.168, 3914.910
312.529, 5425.680
313.889, 7246.508
315.249, 10027.395
316.609, 13188.330
317.969, 17119.316
319.328, 19990.354
320.687, 22101.434
322.046, 21652.871
323.405, 18499.082
324.764, 15650.281
326.122, 12011.520
327.480, 9112.797
328.838, 7034.107
330.196, 5345.453
331.553, 4486.832
332.910, 3528.242
334.267, 3270.297
335.624, 2621.816
336.981, 2423.316
338.337, 2084.842
339.693, 1816.396
341.049, 1667.975
342.405, 1459.568
343.760, 1341.193
345.116, 1422.842
346.471, 1004.514
347.826, 1246.209
349.180, 887.928
350.535, 1079.668
351.889, 742.328
353.243, 824.109
354.597, 865.912
355.950, 757.738
357.304, 849.582
358.657, 571.465
360.010, 843.365
361.362, 605.285
362.715, 477.223
364.067, 599.180
365.419, 291.166
366.771, 613.168
368.123, 335.188
369.474, 437.223
370.825, 439.273
372.176, 421.947
373.527, 594.037
374.877, 336.176
376.228, 328.330
377.578, 450.500
378.928, 172.699
380.277, 384.912
381.627, 287.137
382.976, 479.375
384.325, 281.627
385.674, 273.660
387.023, 525.990
388.371, 198.334
389.719, 440.691
391.067, 213.061
392.415, 352.254
393.762, 334.746
395.110, 227.285
396.457, 559.832
397.804, 142.461
399.150, 305.104
400.497, 87.756
401.843, 243.254
403.189, 315.947
404.535, 201.199
405.881, 383.912
407.226, 246.639
408.571, 30.357
409.916, 123.105
411.261, 29.984
412.605, 192.779
413.950, 14.447
415.294, 198.332
416.638, 151.119
417.981, 85.748
419.325, 327.043
420.668, 32.471
422.011, 125.281
423.354, 11.902
424.697, 27.396
426.039, 270.240
427.381, 76.912
428.723, 275.932
430.065, 108.779
431.406, 81.633
432.748, 5.510
434.089, 47.088
435.430, 55.650
436.770, 52.816
438.111, 95.688
439.451, 288.547
440.791, 181.408
442.131, 314.275
443.471, 52.869
444.810, 29.980
446.149, 27.166
447.488, 295.686
448.827, 188.541
450.166, 41.396
451.504, 354.248
452.842, 87.098
454.180, 179.949
455.518, 142.803
456.855, 195.658
458.193, 338.516
459.530, 71.402
460.867, 264.301
462.203, 47.213
463.540, 300.135
464.876, 93.066
466.212, 56.002
467.548, 418.949
468.883, 301.906
470.219, 364.867
471.554, 137.834
472.889, 110.809
474.224, 313.789
475.558, 286.807
476.892, 369.803
478.227, 342.801
479.561, 15.805
480.894, 378.814
482.228, 8.174
483.561, 95.162
484.894, 437.811
486.227, 200.785
487.559, 253.764
488.892, 96.746
490.224, 109.730
491.556, 62.717
492.888, 23.648
494.220, 11.299
495.551, 1.688
496.882, 144.674
498.213, 147.662
499.544, 220.652
500.874, 323.643
502.205, 106.635
503.535, 300.740
504.865, 223.734
506.194, 186.729
507.524, 309.727
508.853, 212.723
510.182, 215.721
511.511, 11.283
512.840, 381.705
514.168, 144.691
515.496, 207.678
516.824, 290.662
518.152, 137.564
519.480, 420.549
520.807, 293.533
522.134, 36.516
523.461, 269.498
524.788, 245.811
526.114, 328.791
527.441, 131.766
528.767, 194.742
530.093, 337.715
531.418, 2.875
532.744, 465.840
534.069, 66.865
535.394, 259.822
536.719, 163.482
538.044, 269.816
539.368, 292.766
540.693, 145.711
542.017, 198.654
543.340, 241.596
544.664, 26.646
545.987, 169.578
547.311, 192.504
548.634, 345.426
549.956, 348.342
551.279, 75.896
552.601, 296.949
553.923, 77.592
555.245, 480.428
556.567, 129.633
557.889, 212.930
559.210, 215.742
560.531, 2.777
561.852, 275.547
563.173, 8.312
564.493, 231.045
565.813, 324.613
567.133, 47.562
568.453, 560.258
569.773, 17.053
571.092, 304.979
572.412, 267.613
573.731, 120.324
575.049, 592.938
576.368, 75.543
577.686, 215.166
579.005, 7.750
580.323, 301.049
581.640, 263.592
582.958, 54.066
584.275, 311.262
585.593, 403.721
586.909, 183.357
588.226, 615.797
589.543, 178.227
590.859, 440.646
592.175, 192.967
593.491, 185.369
594.807, 407.764
596.122, 190.148
597.438, 242.523
598.753, 264.889
600.068, 437.246
601.382, 529.594
602.697, 250.051
604.011, 312.379
605.325, 513.936
606.639, 176.246
607.952, 448.547
609.266, 170.838
610.579, 413.119
611.892, 175.391
613.205, 287.654
614.518, 469.906
615.830, 182.150
617.142, 479.082
618.454, 601.307
619.766, 433.523
621.078, 545.730
622.389, 307.926
623.700, 780.113
625.011, 632.287
626.322, 624.453
627.632, 936.611
628.943, 668.758
630.253, 690.893
631.563, 263.021
632.872, 105.137
634.182, 547.850
635.491, 139.945
636.800, 582.033
638.109, 314.109
639.418, 436.176
640.726, 367.912
642.035, 474.922
643.343, 786.957
644.651, 458.984
645.958, 611.004
647.266, 833.012
648.573, 465.010
649.880, 677.000
651.187, 668.980
652.494, 540.334
653.800, 702.244
655.106, 194.197
656.412, 746.137
657.718, 188.070
659.024, 419.998
660.329, 41.910
661.634, 283.805
662.939, 305.689
664.244, 207.566
665.549, 229.436
666.853, 351.295
668.157, 163.145
669.461, 354.102
670.765, 125.943
672.069, 297.775
673.372, 629.604
674.675, 18.582
675.978, 353.195
677.281, 174.963
678.583, 356.725
679.886, 128.479
681.188, 9.773
682.490, 191.969
683.792, 133.701
685.093, 155.426
686.394, 237.182
687.696, 8.928
688.997, 390.070
690.297, 88.201
691.598, 163.449
692.898, 45.098
694.198, 13.270
695.498, 338.326
696.798, 109.910
698.097, 141.488
699.397, 333.061
700.696, 155.375
701.995, 445.709
703.293, 267.158
704.592, 118.594
705.890, 200.025
707.188, 328.551
708.486, 365.957
709.784, 92.824
711.081, 298.314
712.378, 230.547
713.675, 40.443
714.972, 511.422
716.269, 37.602
717.565, 350.516
718.862, 201.438
720.158, 139.812
721.453, 20.727
722.749, 41.633
724.045, 161.543
725.340, 222.430
726.635, 169.160
727.930, 370.047
729.224, 30.926
730.519, 461.801
731.813, 202.672
733.107, 423.203
734.401, 404.082
735.694, 12.328
736.988, 363.188
738.281, 384.047
739.574, 31.566
740.867, 349.262
742.160, 40.090
743.452, 260.930
744.744, 421.766
746.036, 142.602
747.328, 393.441
748.620, 494.273
749.911, 75.109
751.202, 565.945
752.493, 86.781
753.784, 437.617
755.075, 118.449
756.365, 69.285
757.655, 450.121
758.945, 60.965
760.235, 301.809
761.525, 472.660
762.814, 273.512
764.103, 224.367
765.392, 265.215
766.681, 316.074
767.969, 206.930
769.258, 337.789
770.546, 418.648
771.834, 80.492
773.122, 610.332
774.409, 71.160
775.697, 91.988
776.984, 282.816
778.271, 73.648
779.558, 164.484
780.844, 285.324
782.131, 356.168
783.417, 507.012
784.703, 217.863
785.989, 178.719
787.274, 409.574
788.560, 9.594
789.845, 391.266
791.130, 342.129
792.415, 293.000
793.699, 543.871
794.983, 14.754
796.268, 725.645
797.552, 276.559
798.835, 177.480
800.119, 398.402
801.402, 69.336
802.686, 750.273
803.969, 351.215
805.251, 232.168
806.534, 393.125
807.816, 124.098
809.098, 525.078
810.380, 206.062
811.662, 397.074
812.944, 460.547
814.225, 347.031
815.506, 391.277
816.787, 415.188
818.068, 418.789
819.349, 445.309
820.629, 293.387
821.909, 424.488
823.189, 417.734
824.469, 308.855
825.749, 489.984
827.028, 281.121
828.307, 602.270
829.586, 620.172
830.865, 181.336
832.144, 873.219
833.422, 524.406
834.700, 865.609
835.978, 721.414
837.256, 572.637
838.534, 993.871
839.811, 1033.367
841.088, 1024.625
842.365, 1318.414
843.642, 1029.695
844.919, 1572.922
846.195, 724.766
847.472, 1015.375
848.748, 1033.324
850.023, 374.660
851.299, 1296.012
852.575, 927.375
853.850, 848.754
855.125, 978.027
856.400, 749.434
857.674, 990.852
858.949, 1352.281
860.223, 753.730
861.497, 952.367
862.771, 733.895
864.045, 967.633
865.318, 699.191
866.591, 364.395
867.864, 985.516
869.137, 497.129
870.410, 444.535
871.682, 526.199
872.955, 277.879
874.227, 559.594
875.499, 710.480
876.770, 451.996
878.042, 473.773
879.313, 415.566
880.584, 357.398
881.855, 529.258
883.126, 130.816
884.396, 872.711
885.667, 254.633
886.937, 496.582
888.207, 648.547
889.476, 419.801
890.746, 861.824
892.015, 423.871
893.284, 623.105
894.553, 765.223
895.822, 547.402
897.090, 829.598
898.359, 651.812
899.627, 654.121
900.895, 786.449
902.163, 308.828
903.430, 901.227
904.698, 573.652
905.965, 396.098
907.232, 928.566
908.499, 271.059
909.765, 683.574
911.032, 706.113
912.298, 638.676
913.564, 931.266
914.830, 693.879
916.095, 626.516
917.361, 559.180
918.626, 651.871
919.891, 894.586
921.156, 857.324
922.420, 320.086
923.685, 1112.879
924.949, 370.996
926.213, 893.832
927.477, 486.703
928.740, 719.594
930.004, 882.551
931.267, 595.535
932.530, 628.547
933.793, 1011.586
935.056, 234.652
936.318, 677.738
937.581, 440.855
938.843, 444.000
940.104, 807.176
941.366, 429.770
942.628, 363.000
943.889, 476.258
945.150, 389.543
946.411, 1102.863
947.672, 576.203
948.932, 1199.578
950.193, 662.980
951.453, 386.410
952.713, 849.871
953.973, 543.359
955.232, 456.879
956.491, 660.430
957.751, 184.000
959.010, 907.602
960.268, 61.238
961.527, 584.898
962.785, 592.891
964.044, 156.613
965.302, 273.570
966.559, 498.051
967.817, 71.863
969.075, 195.699
970.332, 141.848
971.589, 75.266
972.846, 367.398
974.102, 88.648
975.359, 555.305
976.615, 59.289
977.871, 223.305
979.127, 367.348
980.383, 38.582
981.638, 445.527
982.893, 40.012
984.149, 154.160
985.404, 398.363
986.658, 227.410
987.913, 226.797
989.167, 141.023
990.421, 234.715
991.675, 409.508
992.929, 156.246
994.183, 238.004
995.436, 172.273
996.689, 33.387
997.942, 320.973
999.195, 355.367
1000.448, 629.805
1001.700, 1244.270
1002.952, 898.758
1004.204, 723.281
1005.456, 737.828
1006.708, 72.457
1007.959, 847.121
1009.210, 191.812
1010.461, 176.523
1011.712, 405.422
1012.963, 160.293
1014.213, 665.191
1015.464, 750.152
1016.714, 215.141
1017.964, 890.234
1019.214, 275.406
1020.463, 780.555
1021.712, 755.746
1022.962, 390.961
1024.210, 1166.223
1025.459, 501.508
1026.708, 456.820
1027.956, 1132.199
1029.204, 217.602
1030.452, 663.031
1031.700, 698.504
1032.948, 413.984
1034.195, 729.508
1035.442, 97.027
1036.689, 342.598
1037.936, 848.273
1039.183, 34.227
1040.429, 1039.957
1041.676, 465.945
1042.922, 301.781
1044.168, 987.668
1045.413, 131.520
1046.659, 1117.453
1047.904, 883.609
1049.149, 644.199
1050.394, 1100.227
1051.639, 1021.230
1052.884, 387.309
1054.128, 1113.402
1055.372, 349.523
1056.616, 1025.656
1057.860, 231.832
1059.104, 498.023
1060.347, 684.230
1061.590, 181.297
1062.833, 737.613
1064.076, 703.949
1065.319, 580.777
1066.561, 807.191
1067.803, 433.680
1069.046, 650.188
1070.287, 1066.703
1071.529, 413.250
1072.771, 829.812
1074.012, 856.387
1075.253, 543.230
1076.494, 1119.941
1077.735, 616.656
1078.975, 702.363
1080.216, 939.176
1081.456, 686.039
1082.696, 932.934
1083.936, 749.840
1085.175, 416.926
1086.415, 1284.027
1087.654, 601.141
1088.893, 988.402
1090.132, 1005.676
1091.371, 292.965
1092.609, 1270.270
1093.847, 637.586
1095.085, 234.918
1096.323, 1042.258
1097.561, 289.609
1098.799, 727.367
1100.036, 574.742
1101.273, 262.125
1102.510, 539.551
1103.747, 376.984
1104.983, 374.609
1106.220, 1002.066
1107.456, 89.527
1108.692, 647.492
1109.928, 484.977
1111.163, 117.531
1112.399, 649.934
1113.634, 92.598
1114.869, 25.148
1116.104, 422.301
1117.339, 79.758
1118.573, 497.230
1119.808, 4.707
1121.042, 242.188
1122.276, 609.688
1123.509, 65.051
1124.743, 622.562
1125.976, 500.070
1127.210, 117.590
1128.443, 625.113
1129.675, 281.984
1130.908, 10.477
1132.141, 509.727
1133.373, 7.270
1134.605, 454.805
1135.837, 304.441
1137.068, 362.000
1138.300, 520.660
1139.531, 479.984
1140.762, 337.562
1141.993, 541.680
1143.224, 329.258
1144.455, 136.840
1145.685, 298.754
1146.915, 161.465
1148.145, 449.684
1149.375, 427.258
1150.605, 484.836
1151.834, 742.664
1153.063, 100.230
1154.292, 477.793
1155.521, 817.004
1156.750, 94.555
1157.978, 622.098
1159.207, 100.156
1160.435, 697.332
1161.663, 466.203
1162.891, 73.672
1164.118, 503.352
1165.345, 470.793
1166.573, 38.227
1167.800, 506.430
1169.026, 73.832
1170.253, 331.223
1171.480, 532.051
1172.706, 119.410
1173.932, 646.746
1175.158, 282.391
1176.383, 129.691
1177.609, 877.539
1178.834, 95.902
1180.059, 333.156
1181.284, 583.676
1182.509, 39.113
1183.734, 408.055
1184.958, 505.309
1186.182, 82.430
1187.406, 700.535
1188.630, 122.105
1189.854, 259.160
1191.077, 269.574
1192.301, 121.941
1193.524, 334.957
1194.747, 147.578
1195.969, 224.215
1197.192, 882.473
1198.414, 68.703
1199.636, 467.883
1200.858, 585.059
1202.080, 492.258
1203.302, 818.750
1204.523, 479.406
1205.744, 315.836
1206.966, 762.234
1208.186, 66.402
1209.407, 442.730
1210.628, 749.125
1211.848, 166.059
1213.068, 822.277
1214.288, 631.312
1215.508, 358.059
1216.727, 1434.172
1217.947, 483.277
1219.166, 399.316
1220.385, 1105.316
1221.604, 290.047
1222.822, 1165.977
1224.041, 1051.867
1225.259, 88.098
1226.477, 1207.641
1227.695, 882.988
1228.913, 632.258
1230.130, 1268.465
1231.348, 593.750
1232.565, 1590.449
1233.782, 1005.984
1234.999, 753.820
1236.215, 1439.270
1237.432, 1335.945
1238.648, 772.141
1239.864, 1527.531
1241.080, 824.148
1242.296, 1129.496
1243.511, 1154.816
1244.726, 381.086
1245.942, 1496.359
1247.156, 771.613
1248.371, 565.020
1249.586, 1770.227
1250.800, 455.418
1252.014, 1221.434
1253.228, 1566.570
1254.442, 393.445
1255.656, 1728.535
1256.869, 1293.582
1258.083, 605.684
1259.296, 1470.680
1260.509, 832.434
1261.722, 1167.941
1262.934, 1032.848
1264.147, 719.680
1265.359, 1175.238
1266.571, 910.043
1267.783, 557.070
1268.994, 1712.023
1270.206, 746.758
1271.417, 962.340
1272.628, 1587.000
1273.839, 641.629
1275.050, 1118.598
1276.260, 1643.148
1277.471, 97.344
1278.681, 1362.191
1279.891, 1086.582
1281.101, 764.664
1282.310, 1379.004
1283.520, 323.184
1284.729, 1051.059
1285.938, 1025.082
1287.147, 299.059
1288.356, 1254.039
1289.564, 687.898
1290.773, 871.719
1291.981, 1655.508
1293.189, 459.234
1294.397, 1283.305
1295.604, 1536.832
1296.812, 560.238
1298.019, 1453.504
1299.226, 646.711
1300.433, 279.879
1301.640, 1542.859
1302.846, 645.676
1304.053, 588.379
1305.259, 1176.832
1306.465, 319.066
1307.671, 1170.973
1308.876, 222.812
1310.082, 784.582
1311.287, 1336.281
1312.492, 457.855
1313.697, 779.422
1314.902, 870.848
1316.106, 142.199
1317.310, 1243.457
1318.515, 724.645
1319.719, 5.750
1320.922, 1366.734
1322.126, 527.617
1323.329, 398.422
1324.533, 1039.102
1325.736, 159.703
1326.939, 790.211
1328.141, 708.629
1329.344, 181.070
1330.546, 1039.008
1331.748, 428.742
1332.950, 91.414
1334.152, 928.086
1335.354, 157.664
1336.555, 337.129
1337.757, 1128.551
1338.958, 57.809
1340.159, 346.766
1341.359, 861.211
1342.560, 240.148
1343.760, 954.047
1344.960, 502.812
1346.160, 491.496
1347.360, 1020.105
1348.560, 98.633
1349.759, 827.066
1350.959, 1075.418
1352.158, 156.305
1353.357, 811.055
1354.555, 629.105
1355.754, 42.906
1356.952, 1024.535
1358.151, 77.652
1359.349, 510.051
1360.546, 1297.691
1361.744, 165.293
1362.941, 822.840
1364.139, 1120.344
1365.336, 172.180
1366.533, 1395.047
1367.730, 703.590
1368.926, 99.055
1370.123, 759.332
1371.319, 27.992
1372.515, 129.320
1373.711, 516.535
1374.906, 506.203
1376.102, 379.836
1377.297, 645.629
1378.492, 389.961
1379.687, 962.602
1380.882, 355.094
1382.077, 467.520
1383.271, 1669.895
1384.465, 361.789
1385.659, 1124.000
1386.853, 1215.922
1388.047, 437.977
1389.240, 1169.430
1390.434, 971.355
1391.627, 3.258
1392.820, 1525.113
1394.013, 906.883
1395.205, 478.586
1396.398, 1700.215
1397.590, 321.766
1398.782, 913.242
1399.974, 1480.684
1401.166, 371.984
1402.357, 1053.184
1403.549, 922.961
1404.740, 392.441
1405.931, 1513.363
1407.122, 314.227
1408.313, 534.211
1409.503, 1274.605
1410.693, 285.270
1411.883, 663.703
1413.073, 1193.957
1414.263, 502.625
1415.453, 1180.090
1416.642, 1190.492
1417.831, 279.762
1419.020, 1685.254
1420.209, 745.492
1421.398, 613.801
1422.587, 1521.457
1423.775, 176.629
1424.963, 1176.570
1426.151, 1366.297
1427.339, 142.254
1428.526, 856.266
1429.714, 953.168
1430.901, 421.164
1432.088, 1786.992
1433.275, 785.312
1434.462, 783.539
1435.648, 1645.867
1436.835, 534.945
1438.021, 1263.629
1439.207, 1523.887
1440.393, 898.715
1441.579, 2071.574
1442.764, 1679.801
1443.949, 793.293
1445.135, 2424.309
1446.320, 1023.293
1447.504, 1282.258
1448.689, 2538.527
1449.873, 929.027
1451.058, 1730.738
1452.242, 1983.020
1453.426, 813.969
1454.609, 2275.133
1455.793, 2018.012
1456.976, 712.293
1458.159, 2422.176
1459.342, 1549.488
1460.525, 1350.434
1461.708, 2277.656
1462.890, 904.586
1464.073, 1969.254
1465.255, 2296.402
1466.437, 828.465
1467.619, 1873.887
1468.800, 2071.133
1469.982, 841.148
1471.163, 2166.000
1472.344, 1470.539
1473.525, 935.578
1474.706, 2329.043
1475.886, 1070.207
1477.066, 1114.137
1478.247, 2247.328
1479.427, 388.789
1480.607, 1971.977
1481.786, 1714.754
1482.966, 468.094
1484.145, 1951.715
1485.324, 938.441
1486.503, 635.883
1487.682, 2163.008
1488.860, 790.078
1490.039, 737.273
1491.217, 1764.297
1492.395, 551.340
1493.573, 1158.512
1494.751, 1295.852
1495.928, 413.574
1497.106, 1872.098
1498.283, 721.695
1499.460, 411.988
1500.637, 1533.191
1501.814, 425.375
1502.990, 298.562
1504.166, 1452.523
1505.342, 257.445
1506.518, 1093.566
1507.694, 921.184
1508.870, 40.598
1510.045, 1372.020
1511.221, 695.703
1512.396, 37.965
1513.571, 1641.637
1514.745, 573.770
1515.920, 543.387
1517.094, 1085.875
1518.269, 23.352
1519.443, 0.000
##END=



