##NAMES=Fluorapatite
##RRUFFID=R060184
##IDEAL CHEMISTRY=Ca_5_(PO_4_)_3_F
##LOCALITY=Yates mine, Otter Lake, Quebec, Canada
##OWNER=RRUFF
##SOURCE=Lloyd Twaites
##DESCRIPTION=Green colored fragment of a hexagonal prism
##STATUS=The identification of this mineral has been confirmed by X-ray diffraction and chemical analysis
##URL=rruff.info/R060184
##MEASURED CHEMISTRY=(Ca_0.99_Ce_0.01_)_5.00_((P_0.98_Si_0.01_S_0.01_)O_4_)_3_F_1.00_
##PIN_ID=M00532
##ORIENTATION=Laser parallel to -a* (-1 0 0). Fiducial mark perpendicular to laser is parallel to -c [0 0 -1]
170.5590, 0.0000000E+00
171.7860, 44.08130
173.0130, 1.395508
174.2400, 9.289307
175.4670, 0.4722900
176.6930, 17.69080
177.9200, 10.27222
179.1460, 16.40759
180.3720, 9.048828
181.5980, 16.69556
182.8230, 33.00745
184.0490, 17.90601
185.2740, 30.33752
186.5000, 79.23975
187.7250, 106.5471
188.9500, 103.1964
190.1740, 99.13135
191.3990, 166.3037
192.6230, 280.6759
193.8480, 261.2314
195.0720, 368.0117
196.2960, 376.0634
197.5200, 479.3777
198.7430, 560.9189
199.9670, 760.6460
201.1900, 793.5203
202.4130, 984.5056
203.6360, 1015.571
204.8590, 1178.691
206.0820, 1281.845
207.3050, 1524.015
208.5270, 1501.189
209.7490, 1553.361
210.9710, 1498.525
212.1930, 1434.678
213.4150, 1341.825
214.6370, 1097.005
215.8580, 1047.269
217.0790, 894.6598
218.3010, 842.6204
219.5210, 708.0801
220.7420, 617.8516
221.9630, 592.8044
223.1830, 482.8521
224.4040, 475.8868
225.6240, 439.8866
226.8440, 437.8080
228.0640, 396.6248
229.2840, 473.3486
230.5030, 357.9584
231.7230, 376.4470
232.9420, 414.8020
234.1610, 349.0245
235.3800, 337.1194
236.5990, 360.0911
237.8170, 261.9438
239.0360, 205.6816
240.2540, 245.3080
241.4720, 204.8267
242.6900, 231.2405
243.9080, 266.5634
245.1250, 133.8230
246.3430, 174.0250
247.5600, 137.1769
248.7770, 100.2825
249.9940, 122.3451
251.2110, 165.3666
252.4280, 167.3820
253.6450, 138.3463
254.8610, 170.3451
256.0770, 132.5648
257.2930, 164.4639
258.5090, 216.6206
259.7250, 173.9873
260.9400, 127.8369
262.1560, 191.0149
263.3710, 198.1171
264.5860, 113.2120
265.8010, 196.3513
267.0160, 221.9309
268.2310, 181.6482
269.4450, 236.5955
270.6600, 264.7393
271.8740, 289.4662
273.0880, 354.5896
274.3020, 272.9187
275.5150, 320.2748
276.7290, 312.6283
277.9420, 385.2266
279.1550, 444.8971
280.3680, 335.4640
281.5810, 405.5090
282.7940, 439.5779
284.0070, 464.7969
285.2190, 489.1793
286.4310, 508.5880
287.6430, 530.2368
288.8550, 536.0852
290.0670, 573.0002
291.2790, 584.5918
292.4900, 618.8669
293.7020, 673.9276
294.9130, 711.6118
296.1240, 758.5933
297.3350, 814.6680
298.5450, 844.5137
299.7560, 885.3252
300.9660, 912.3916
302.1760, 897.8458
303.3860, 909.5552
304.5960, 901.2307
305.8060, 867.8726
307.0150, 809.4812
308.2250, 745.0565
309.4340, 739.5992
310.6430, 663.1091
311.8520, 628.3649
313.0610, 580.0325
314.2700, 542.4463
315.4780, 523.8284
316.6860, 493.4972
317.8940, 470.8439
319.1020, 448.3250
320.3100, 415.9410
321.5180, 383.5930
322.7250, 331.2771
323.9330, 300.9835
325.1400, 309.7058
326.3470, 268.4395
327.5540, 306.1804
328.7600, 237.9253
329.9670, 201.6709
331.1730, 234.4149
332.3800, 172.2260
333.5860, 134.9597
334.7920, 137.6853
335.9970, 165.4014
337.2030, 130.1572
338.4080, 144.1136
339.6140, 100.9603
340.8190, 141.0139
342.0240, 60.96375
343.2290, 83.07214
344.4330, 34.01550
345.6380, 78.98132
346.8420, 52.82690
348.0460, 29.92383
349.2500, 1.054810
350.4540, 21.93774
351.6580, 15.09924
352.8610, 8.142090
354.0650, 3.323364
355.2680, 16.44031
356.4710, 37.31909
357.6740, 71.02832
358.8760, 66.85571
360.0790, 44.41211
361.2810, 54.34778
362.4840, 10.92249
363.6860, 32.13147
364.8880, 35.69238
366.0900, 12.29504
367.2910, 36.78308
368.4930, 71.31262
369.6940, 10.01135
370.8950, 26.40991
372.0960, 6.301392
373.2970, 14.11060
374.4980, 28.63098
375.6980, 1.542480
376.8980, 15.56323
378.0990, 1.389038
379.2990, 1.486206
380.4980, 43.37292
381.6980, 32.45410
382.8980, 12.04346
384.0970, 5.778809
385.2960, 57.47449
386.4950, 9.384033
387.6940, 8.803467
388.8930, 69.56128
390.0920, 24.08264
391.2900, 69.74390
392.4880, 46.29907
393.6860, 34.63916
394.8840, 95.03223
396.0820, 94.51636
397.2800, 69.02490
398.4770, 84.34424
399.6750, 51.84741
400.8720, 30.96338
402.0690, 94.32568
403.2660, 94.54834
404.4620, 106.9363
405.6590, 130.1685
406.8550, 122.4995
408.0510, 96.49780
409.2480, 174.2886
410.4430, 102.0435
411.6390, 155.8735
412.8350, 177.4895
414.0300, 176.9414
415.2250, 235.3408
416.4200, 207.6899
417.6150, 235.9824
418.8100, 256.2380
420.0050, 291.4521
421.1990, 332.6382
422.3940, 369.7864
423.5880, 406.7515
424.7820, 430.9941
425.9750, 499.0569
427.1690, 564.0935
428.3630, 652.1082
429.5560, 724.0994
430.7490, 711.0642
431.9420, 730.0068
433.1350, 729.9275
434.3280, 735.8264
435.5200, 850.7043
436.7130, 812.5630
437.9050, 886.4031
439.0970, 957.2256
440.2890, 949.0295
441.4810, 1062.816
442.6720, 1127.585
443.8640, 1255.337
445.0550, 1415.071
446.2460, 1518.786
447.4370, 1605.094
448.6280, 1650.642
449.8180, 1708.826
451.0090, 1661.472
452.1990, 1639.102
453.3890, 1608.716
454.5790, 1521.312
455.7690, 1415.891
456.9590, 1326.438
458.1480, 1101.997
459.3380, 1079.526
460.5270, 923.0342
461.7160, 761.5205
462.9050, 730.9861
464.0940, 677.4290
465.2820, 578.8491
466.4700, 467.2468
467.6590, 468.6226
468.8470, 397.9756
470.0350, 323.3069
471.2220, 284.6147
472.4100, 230.7041
473.5970, 261.1660
474.7850, 176.4075
475.9720, 199.6245
477.1590, 229.8005
478.3460, 199.9592
479.5320, 181.1060
480.7190, 130.1802
481.9050, 153.2778
483.0910, 100.1702
484.2770, 121.1982
485.4630, 78.86182
486.6490, 113.5869
487.8340, 103.0342
489.0200, 126.6809
490.2050, 61.18701
491.3900, 73.50098
492.5750, 73.06616
493.7600, 37.24414
494.9440, 48.79175
496.1290, 21.23145
497.3130, 38.48560
498.4970, 13.46265
499.6810, 2.504150
500.8650, 0.1530760
502.0480, 24.50854
503.2320, 8.3984002E-02
504.4150, 13.32227
505.5980, 16.10742
506.7810, 33.82764
507.9640, 8.080566
509.1460, 28.54712
510.3290, 31.00342
511.5110, 23.63794
512.6930, 19.65918
513.8750, 24.76147
515.0570, 49.52612
516.2390, 4.703369
517.4210, 48.12305
518.6020, 33.62305
519.7830, 38.91211
520.9640, 63.37012
522.1450, 63.80444
523.3260, 3.324219
524.5060, 112.7305
525.6870, 7.194336
526.8670, 12.12183
528.0470, 10.44507
529.2270, 119.3530
530.4070, 30.21167
531.5870, 79.76758
532.7660, 38.93750
533.9450, 57.47925
535.1240, 101.8530
536.3030, 82.10571
537.4820, 53.70850
538.6610, 41.28613
539.8390, 79.74023
541.0180, 29.24878
542.1960, 114.5579
543.3740, 47.68750
544.5520, 73.19019
545.7290, 25.67505
546.9070, 53.19238
548.0840, 20.81006
549.2620, 90.35181
550.4390, 118.7705
551.6160, 106.4966
552.7920, 71.90161
553.9690, 106.6858
555.1450, 144.4070
556.3220, 130.3352
557.4980, 192.1929
558.6740, 220.9524
559.8490, 238.6968
561.0250, 295.4229
562.2000, 271.1426
563.3760, 290.8462
564.5510, 354.5327
565.7260, 419.2854
566.9010, 411.9370
568.0750, 411.7629
569.2500, 555.7642
570.4240, 645.5103
571.5980, 659.0952
572.7720, 666.8862
573.9460, 766.5264
575.1200, 863.2788
576.2930, 1044.788
577.4670, 1178.502
578.6400, 1319.982
579.8130, 1668.817
580.9860, 1789.292
582.1590, 2338.938
583.3310, 2641.756
584.5040, 3089.268
585.6760, 3573.730
586.8480, 4192.074
588.0200, 4975.430
589.1920, 5687.997
590.3630, 6036.491
591.5350, 5613.128
592.7060, 4980.798
593.8770, 3945.378
595.0480, 3301.676
596.2190, 2666.100
597.3900, 2330.391
598.5600, 2334.919
599.7310, 2282.306
600.9010, 2191.997
602.0710, 2384.200
603.2410, 2587.449
604.4100, 3039.590
605.5800, 3256.731
606.7490, 3116.082
607.9190, 2812.404
609.0880, 2270.779
610.2570, 1759.146
611.4250, 1520.356
612.5940, 1181.616
613.7620, 953.7139
614.9310, 928.6174
616.0990, 692.5757
617.2670, 654.7957
618.4340, 595.6501
619.6020, 519.9851
620.7690, 458.3701
621.9370, 501.9504
623.1040, 425.9512
624.2710, 464.5193
625.4380, 454.4014
626.6040, 394.0540
627.7710, 426.6665
628.9370, 446.4451
630.1030, 359.9053
631.2690, 409.3140
632.4350, 408.5186
633.6010, 361.8289
634.7660, 386.8201
635.9320, 445.9229
637.0970, 449.0879
638.2620, 546.1824
639.4270, 474.4907
640.5920, 503.9224
641.7560, 457.2034
642.9210, 429.8059
644.0850, 469.3328
645.2490, 534.1238
646.4130, 512.2339
647.5770, 490.1995
648.7400, 596.4209
649.9040, 515.6057
651.0670, 559.7407
652.2300, 527.1079
653.3930, 489.3838
654.5560, 564.9634
655.7190, 468.0569
656.8810, 387.6987
658.0440, 460.4292
659.2060, 397.7617
660.3680, 446.1733
661.5300, 410.5796
662.6910, 385.5435
663.8530, 315.9692
665.0140, 317.9731
666.1750, 397.0325
667.3360, 294.8647
668.4970, 301.3430
669.6580, 258.8457
670.8190, 359.0020
671.9790, 234.9839
673.1390, 231.4265
674.2990, 272.4333
675.4590, 221.7268
676.6190, 270.1548
677.7790, 276.4653
678.9380, 182.3640
680.0970, 279.6907
681.2570, 243.3047
682.4160, 239.6262
683.5740, 273.3264
684.7330, 260.3945
685.8920, 232.4907
687.0500, 162.3789
688.2080, 199.0232
689.3660, 300.7593
690.5240, 177.5803
691.6820, 313.0305
692.8390, 137.5483
693.9960, 235.6970
695.1540, 125.0396
696.3110, 154.2720
697.4680, 194.2393
698.6240, 229.7617
699.7810, 221.9463
700.9370, 219.1245
702.0940, 199.4795
703.2500, 187.4409
704.4060, 167.5591
705.5610, 210.3076
706.7170, 143.0884
707.8720, 96.80273
709.0280, 153.7549
710.1830, 227.2261
711.3380, 133.6699
712.4920, 165.0835
713.6470, 133.4683
714.8020, 186.8232
715.9560, 133.1504
717.1100, 184.4468
718.2640, 94.71582
719.4180, 175.9531
720.5720, 130.1611
721.7250, 84.33936
722.8780, 152.4858
724.0320, 159.6025
725.1850, 182.6899
726.3380, 175.0522
727.4900, 119.7793
728.6430, 131.7793
729.7950, 92.74805
730.9470, 79.68604
732.1000, 96.59131
733.2510, 158.4648
734.4030, 123.3091
735.5550, 150.1226
736.7060, 87.90625
737.8570, 116.6592
739.0090, 53.37939
740.1600, 150.0674
741.3100, 133.7246
742.4610, 154.3525
743.6110, 148.9648
744.7620, 93.53320
745.9120, 101.1587
747.0620, 92.28906
748.2120, 89.00244
749.3610, 121.4419
750.5110, 103.8501
751.6600, 9.609375
752.8090, 178.9463
753.9580, 143.2534
755.1070, 92.59766
756.2560, 175.2817
757.4050, 76.34668
758.5530, 61.52783
759.7010, 189.0098
760.8490, 106.1265
761.9970, 159.3667
763.1450, 104.9858
764.2920, 117.7544
765.4400, 156.7451
766.5870, 103.7886
767.7340, 210.7158
768.8810, 139.6138
770.0280, 225.2534
771.1740, 168.0928
772.3210, 192.9014
773.4670, 183.6826
774.6130, 110.4346
775.7590, 32.15723
776.9050, 74.84180
778.0510, 55.47998
779.1960, 68.09912
780.3420, 32.68604
781.4870, 54.24170
782.6320, 86.76270
783.7770, 29.25439
784.9210, 9.708008
786.0660, 74.48389
787.2100, 80.10938
788.3540, 5.466797
789.4980, 132.7764
790.6420, 29.05957
791.7860, 1.698242
792.9300, 42.49658
794.0730, 48.65381
795.2160, 66.77539
796.3590, 26.86133
797.5020, 93.90576
798.6450, 1.917969
799.7880, 48.87988
800.9300, 16.80469
802.0720, 56.68652
803.2150, 0.4682620
804.3560, 62.67285
805.4980, 59.04102
806.6400, 113.7202
807.7810, 102.3667
808.9230, 39.98193
810.0640, 83.44092
811.2050, 27.95850
812.3460, 116.4595
813.4860, 2.154297
814.6270, 69.18018
815.7670, 2.481934
816.9070, 18.26514
818.0470, 34.92920
819.1870, 32.91406
820.3270, 31.17578
821.4670, 20.22803
822.6060, 12.92041
823.7450, 20.79346
824.8840, 23.11768
826.0230, 3.010742
827.1620, 28.85693
828.3010, 42.66504
829.4390, 44.56201
830.5770, 53.01465
831.7150, 48.61279
832.8530, 52.97852
833.9910, 66.56592
835.1290, 30.91211
836.2660, 86.35449
837.4030, 13.23340
838.5410, 32.12549
839.6780, 54.45020
840.8140, 39.74316
841.9510, 76.92090
843.0870, 11.15186
844.2240, 67.15625
845.3600, 37.93848
846.4960, 149.9272
847.6320, 113.0308
848.7680, 167.8887
849.9030, 131.8521
851.0380, 184.6567
852.1740, 160.6587
853.3090, 173.4102
854.4440, 145.3511
855.5780, 179.8911
856.7130, 327.7466
857.8470, 268.3848
858.9820, 255.8081
860.1160, 400.4907
861.2500, 327.1797
862.3830, 275.9414
863.5170, 380.6479
864.6500, 322.0991
865.7840, 292.5767
866.9170, 264.8687
868.0500, 251.0825
869.1830, 254.3447
870.3150, 268.8433
871.4480, 221.1729
872.5800, 89.59375
873.7120, 170.7319
874.8440, 205.9697
875.9760, 83.86133
877.1080, 121.1968
878.2390, 68.44287
879.3710, 31.75439
880.5020, 38.02393
881.6330, 35.95947
882.7640, 60.96973
883.8940, 9.905273
885.0250, 35.74365
886.1550, 79.69824
887.2850, 4.561035
888.4160, 51.54248
889.5450, 35.67725
890.6750, 10.64502
891.8050, 1.381836
892.9340, 117.5586
894.0630, 62.94629
895.1930, 94.68896
896.3220, 26.20068
897.4500, 61.27100
898.5790, 36.58936
899.7070, 40.18408
900.8360, 69.22461
901.9640, 14.21826
903.0920, 77.08838
904.2200, 34.77490
905.3470, 9.795898
906.4750, 65.85059
907.6020, 23.36133
908.7290, 131.9629
909.8560, 20.51367
910.9830, 54.74658
912.1100, 52.17188
913.2360, 16.85693
914.3630, 39.87793
915.4890, 81.75488
916.6150, 35.11670
917.7410, 83.80664
918.8670, 162.8125
919.9920, 6.072754
921.1180, 80.23535
922.2430, 4.430664
923.3680, 65.41016
924.4930, 22.68555
925.6180, 10.80957
926.7420, 115.8853
927.8670, 143.7021
928.9910, 93.03906
930.1150, 173.4751
931.2390, 313.1504
932.3630, 308.1431
933.4860, 317.0532
934.6100, 354.0522
935.7330, 502.4775
936.8560, 440.1582
937.9790, 659.6943
939.1020, 729.5278
940.2250, 809.4546
941.3470, 1172.022
942.4700, 1212.999
943.5920, 1435.927
944.7140, 1632.210
945.8360, 2085.840
946.9570, 2472.955
948.0790, 3041.943
949.2000, 3687.691
950.3220, 4364.412
951.4430, 5686.465
952.5640, 7006.227
953.6840, 8910.464
954.8050, 11381.33
955.9250, 14727.51
957.0460, 18735.40
958.1660, 24193.04
959.2860, 30077.99
960.4050, 36098.02
961.5250, 42833.21
962.6440, 49813.42
963.7640, 54818.93
964.8830, 54975.20
966.0020, 48790.95
967.1210, 39805.61
968.2390, 30308.34
969.3580, 22357.31
970.4760, 16439.71
971.5940, 12244.71
972.7120, 9190.117
973.8300, 6857.608
974.9480, 5292.471
976.0650, 3979.152
977.1830, 2978.181
978.3000, 2367.153
979.4170, 1764.170
980.5340, 1429.924
981.6500, 1086.136
982.7670, 806.8301
983.8830, 733.0586
985.0000, 455.2944
986.1160, 472.5381
987.2320, 444.7881
988.3470, 240.0464
989.4630, 217.3120
990.5780, 174.5874
991.6940, 139.8755
992.8090, 141.3789
993.9240, 136.0400
995.0380, 155.9414
996.1530, 171.2710
997.2680, 196.8125
998.3820, 229.1372
999.4960, 300.3184
1000.610, 338.6885
1001.724, 417.0708
1002.837, 496.4648
1003.951, 620.8711
1005.064, 723.2891
1006.177, 793.9077
1007.291, 868.3501
1008.403, 909.8057
1009.516, 1024.277
1010.629, 873.7637
1011.741, 1000.263
1012.853, 843.7754
1013.965, 658.2891
1015.077, 706.8311
1016.189, 560.3008
1017.300, 555.2500
1018.412, 566.5986
1019.523, 495.2119
1020.634, 496.8418
1021.745, 760.1396
1022.856, 648.8730
1023.966, 862.6426
1025.077, 907.3623
1026.187, 873.7461
1027.297, 925.7432
1028.407, 1077.630
1029.517, 1073.200
1030.627, 1240.125
1031.736, 1173.913
1032.845, 1179.312
1033.955, 1265.549
1035.064, 1340.553
1036.172, 1581.494
1037.281, 1714.555
1038.390, 1849.640
1039.498, 1977.977
1040.606, 2078.107
1041.714, 2574.259
1042.822, 2715.432
1043.930, 3109.626
1045.037, 3555.842
1046.145, 3976.086
1047.252, 4752.367
1048.359, 5485.660
1049.466, 6275.979
1050.573, 7324.324
1051.679, 8030.695
1052.786, 8105.090
1053.892, 7791.514
1054.998, 7265.610
1056.104, 6328.004
1057.210, 5423.510
1058.315, 4580.051
1059.421, 3898.615
1060.526, 3462.212
1061.631, 2988.844
1062.736, 2644.505
1063.841, 2505.193
1064.946, 2263.910
1066.050, 2394.659
1067.154, 2155.435
1068.258, 2378.246
1069.362, 2442.087
1070.466, 2705.961
1071.570, 2730.863
1072.674, 2724.803
1073.777, 2915.797
1074.880, 3142.820
1075.983, 3113.870
1077.086, 3185.949
1078.189, 3232.111
1079.291, 3231.281
1080.394, 3060.496
1081.496, 2817.739
1082.598, 2567.021
1083.700, 2348.333
1084.802, 2216.683
1085.903, 1848.075
1087.005, 1764.501
1088.106, 1545.973
1089.207, 1301.479
1090.308, 1358.018
1091.409, 1083.593
1092.509, 858.2021
1093.610, 856.8467
1094.710, 667.5283
1095.810, 635.2441
1096.910, 548.9922
1098.010, 418.7910
1099.110, 361.6426
1100.209, 349.5273
1101.309, 255.4434
1102.408, 268.4180
1103.507, 276.4238
1104.606, 167.4629
1105.704, 18.54395
1106.803, 257.6582
1107.901, 184.8066
1108.999, 201.9863
1110.097, 34.19922
1111.195, 84.44922
1112.293, 124.7305
1113.391, 33.04492
1114.488, 75.60840
1115.585, 19.59180
1116.682, 139.9873
1117.779, 17.41602
1118.876, 15.87500
1119.973, 34.36719
1121.069, 129.8896
1122.165, 229.4453
1123.261, 144.0859
1124.357, 14.58008
1125.453, 126.0693
1126.549, 126.7510
1127.644, 159.4648
1128.739, 175.9258
1129.835, 146.9346
1130.930, 139.7998
1132.024, 91.64258
1133.119, 63.51758
1134.214, 55.42578
1135.308, 94.36621
1136.402, 42.33984
1137.496, 18.65527
1138.590, 81.38184
1139.684, 220.4512
1140.777, 97.07520
1141.871, 141.2100
1142.964, 165.3779
1144.057, 91.57812
1145.150, 54.29785
1146.243, 6.564453
1147.335, 273.1387
1148.428, 79.48535
1149.520, 199.8857
1150.612, 88.78613
1151.704, 221.2529
1152.796, 196.0361
1153.887, 138.5791
1154.979, 186.1846
1156.070, 146.9307
1157.161, 183.7979
1158.252, 168.7959
1159.343, 173.1025
1160.433, 201.9756
1161.524, 163.9482
1162.614, 201.8008
1163.704, 175.7031
1164.794, 196.5498
1165.884, 271.6387
1166.974, 224.6592
1168.063, 246.9590
1169.153, 234.9453
1170.242, 177.8291
1171.331, 149.9824
1172.420, 152.8467
1173.508, 179.3828
1174.597, 192.6289
1175.685, 149.9062
1176.774, 222.2139
1177.862, 155.5518
1178.950, 166.3066
1180.037, 180.3320
1181.125, 116.7676
1182.212, 202.2334
1183.300, 122.7305
1184.387, 137.2568
1185.474, 128.8184
1186.560, 9.569336
1187.647, 39.07227
1188.733, 31.74512
1189.820, 230.4473
1190.906, 205.1807
1191.992, 106.9424
1193.078, 193.7354
1194.163, 102.5576
1195.249, 100.4102
1196.334, 131.2920
1197.419, 52.20410
1198.504, 31.14551
1199.589, 234.1162
1200.674, 73.11621
1201.758, 220.1465
1202.843, 19.20703
1203.927, 41.29590
1205.011, 237.4131
1206.095, 108.5605
1207.179, 137.7373
1208.262, 2.057617
1209.345, 135.1748
1210.429, 138.4365
1211.512, 95.72754
1212.595, 107.0469
1213.677, 170.3945
1214.760, 183.7715
1215.842, 133.1768
1216.925, 67.61523
1218.007, 231.0820
1219.089, 114.5752
1220.171, 215.0986
1221.252, 88.64844
1222.334, 166.2266
1223.415, 127.8311
1224.496, 213.4648
1225.577, 102.1250
1226.658, 97.82324
1227.738, 216.5654
1228.819, 312.3340
1229.899, 269.1289
1230.979, 163.9521
1232.060, 105.7998
1233.139, 230.6787
1234.219, 155.5840
1235.299, 205.5459
1236.378, 151.5547
1237.457, 153.0498
1238.536, 156.6504
1239.615, 162.7373
1240.694, 153.8574
1241.772, 185.0029
1242.851, 273.1748
1243.929, 63.37109
1245.007, 21.88379
1246.085, 101.3555
1247.163, 123.6191
1248.240, 159.9082
1249.318, 96.22266
1250.395, 43.56152
1251.472, 63.92480
1252.549, 24.68652
1253.626, 16.28418
1254.703, 128.0029
1255.779, 80.44727
1256.855, 162.9170
1257.931, 77.41016
1259.007, 46.92773
1260.083, 102.4697
1261.159, 232.0352
1262.234, 156.6250
1263.310, 207.2373
1264.385, 134.8760
1265.460, 72.53711
1266.535, 128.2207
1267.610, 28.74219
1268.684, 239.4746
1269.758, 6.769531
1270.833, 112.0049
1271.907, 69.80176
1272.981, 33.62109
1274.054, 4.537109
1275.128, 81.32227
1276.201, 1.203125
1277.275, 14.10156
1278.348, 49.02246
1279.421, 25.03711
1280.493, 51.91113
1281.566, 158.1211
1282.638, 134.2031
1283.711, 96.32520
1284.783, 7.529297
1285.855, 79.59961
1286.927, 19.74414
1287.998, 90.88281
1289.070, 43.95703
1290.141, 264.8164
1291.212, 96.69531
1292.283, 118.5918
1293.354, 115.5078
1294.425, 43.44238
1295.495, 21.39453
1296.566, 56.63477
1297.636, 7.675781
1298.706, 4.557617
1299.776, 60.27148
1300.845, 93.26758
1301.915, 68.28516
1302.984, 142.3203
1304.054, 205.3721
1305.123, 50.44141
1306.191, 120.5264
1307.260, 152.6299
1308.329, 170.7490
1309.397, 191.5840
1310.465, 259.0381
1311.534, 189.2070
1312.602, 300.3926
1313.669, 297.6172
1314.737, 219.8330
1315.804, 159.9199
1316.872, 158.1748
1317.939, 105.4277
1319.006, 142.7080
1320.073, 179.0039
1321.139, 185.3154
1322.206, 297.6445
1323.272, 145.9893
1324.338, 279.3506
1325.404, 254.7285
1326.470, 197.1230
1327.536, 122.5332
1328.601, 233.9600
1329.667, 152.4033
1330.732, 88.86230
1331.797, 196.3359
1332.862, 215.8262
1333.926, 291.3320
1334.991, 345.8525
1336.055, 261.4570
1337.120, 216.9561
1338.184, 224.5225
1339.248, 253.1035
1340.311, 203.7002
1341.375, 142.5273
1342.438, 233.1514
1343.502, 152.7881
1344.565, 55.59082
1345.628, 300.2549
1346.691, 277.9336
1347.753, 230.8359
1348.816, 153.5420
1349.878, 184.2598
1350.940, 228.9912
1352.002, 243.7354
1353.064, 250.4922
1354.126, 254.9150
1355.187, 184.5098
1356.248, 148.3037
1357.310, 336.1104
1358.371, 79.92969
1359.431, 297.7617
1360.492, 135.4766
1361.553, 156.3320
1362.613, 262.4814
1363.673, 353.1104
1364.733, 325.6025
1365.793, 327.6279
1366.853, 260.8262
1367.912, 270.6895
1368.972, 197.6338
1370.031, 275.6641
1371.090, 315.6357
1372.149, 258.6699
1373.208, 364.7910
1374.267, 194.8086
1375.325, 143.8418
1376.383, 137.9258
1377.441, 223.9443
1378.499, 199.0078
1379.557, 235.0830
1380.615, 243.1191
1381.672, 279.5068
1382.730, 289.0752
1383.787, 196.7539
1384.844, 328.8984
1385.901, 270.0645
1386.957, 322.2344
1388.014, 147.4180
1389.070, 340.6162
1390.126, 401.8262
1391.182, 158.0479
1392.238, 220.2822
1393.294, 340.5293
1394.349, 302.0898
1395.405, 313.3486
1396.460, 189.7070
1397.515, 396.4688
1398.570, 398.7334
1399.625, 211.9609
1400.679, 353.2012
1401.734, 301.9541
1402.788, 271.1055
1403.842, 247.9238
1404.896, 216.0225
1405.950, 224.0977
1407.003, 251.7109
1408.057, 263.7949
1409.110, 207.5986
1410.163, 233.3721
1411.216, 216.3965
1412.269, 244.6846
1413.322, 221.5469
1414.374, 229.3115
1415.427, 239.5723
1416.479, 211.6670
1417.531, 234.7588
1418.583, 198.8408
1419.634, 229.9141
1420.686, 117.9805
1421.737, 269.0400
1422.788, 455.0977
1423.839, 139.9102
1424.890, 237.0957
1425.941, 255.3936
1426.992, 188.5137
1428.042, 340.4971
1429.092, 232.5605
1430.142, 145.6260
1431.192, 187.6934
1432.242, 150.7637
1433.291, 38.84082
1434.341, 174.9219
1435.390, 96.93262
1436.439, 129.4600
1437.488, 320.4551
1438.537, 143.4307
1439.586, 0.6376950
1440.634, 160.4141
1441.682, 36.76953
1442.731, 76.20508
1443.779, 229.6562
1444.826, 186.1211
1445.874, 146.6016
1446.922, 141.0967
1447.969, 269.6064
1449.016, 165.1289
1450.063, 70.66504
1451.110, 209.2148
1452.157, 107.7773
1453.203, 312.3535
1454.250, 200.9434
1455.296, 149.5439
1456.342, 234.1494
1457.388, 109.7598
1458.433, 199.3809
1459.479, 112.0137
1460.524, 114.6572
1461.570, 40.26562
1462.615, 146.8623
1463.660, 133.4697
1464.705, 125.0762
1465.749, 182.5898
1466.794, 33.08301
1467.838, 229.5713
1468.882, 150.0518
1469.926, 4.537109
1470.970, 135.0361
1472.013, 132.5371
1473.057, 35.04102
1474.100, 134.5537
1475.143, 281.0859
1476.186, 90.62012
1477.229, 87.15234
1478.272, 98.68750
1479.314, 19.77930
1480.357, 38.24512
1481.399, 203.2812
1482.441, 216.8086
1483.483, 144.3369
1484.525, 124.8691
1485.566, 14.40820
1486.608, 105.9541
1487.649, 91.47461
1488.690, 50.73828
1489.731, 203.1299
1490.771, 228.0820
1491.812, 154.1299
1492.853, 3.805664
1493.893, 108.2773
1494.933, 53.37988
1495.973, 158.5625
1497.013, 94.78906
1498.052, 222.0264
1499.092, 213.2891
1500.131, 260.5762
1501.170, 252.8926
1502.209, 89.23145
1503.248, 239.5820
1504.287, 105.9385
1505.325, 165.3447
1506.363, 209.7705
1507.402, 249.2178
1508.440, 128.6846
1509.478, 124.1719
1510.515, 77.68066
1511.553, 238.2090
1512.590, 167.7588
1513.627, 255.3320
1514.664, 249.7666
1515.701, 188.3848
1516.738, 213.4863
1517.775, 310.1572
1518.811, 66.83887
1519.847, 232.9482
1520.883, 85.64941
1521.919, 137.3887
1522.955, 146.5303
1523.991, 263.9189
1525.026, 195.3076
1526.061, 181.0117
1527.096, 157.1729
1528.131, 171.3691
1529.166, 215.6426
1530.201, 315.1592
1531.235, 91.82812
1532.270, 167.6406
1533.304, 131.3369
1534.338, 250.8984
1535.372, 188.3887
1536.405, 186.7158
1537.439, 107.8584
1538.472, 183.7529
1539.505, 108.4482
1540.538, 88.87793
1541.571, 106.0176
1542.604, 255.2285
1543.637, 244.2510
1544.669, 173.4795
1545.701, 147.0137
1546.733, 135.8818
1547.765, 81.95508
1548.797, 56.28906
1549.829, 178.5225
1550.860, 49.65723
1551.891, 4.290039
1552.922, 135.7334
1553.953, 84.80273
1554.984, 157.2422
1556.015, 140.0771
1557.045, 265.2383
1558.076, 232.1562
1559.106, 135.6553
1560.136, 0.7832030
1561.165, 106.7275
1562.195, 163.9297
1563.225, 0.1250000
1564.254, 220.2617
1565.283, 0.0000000E+00
##END=



