##NAMES=Fluorapatite
##RRUFFID=R050194
##IDEAL CHEMISTRY=Ca_5_(PO_4_)_3_F
##LOCALITY=Siglo XX mine, Llallagua, Bolivia
##OWNER=RRUFF
##SOURCE=Dave Bunk Minerals
##DESCRIPTION=Purple crystal fragments
##STATUS=The identification of this mineral has been confirmed by X-ray diffraction and chemical analysis
##URL=rruff.info/R050194
##MEASURED CHEMISTRY=Ca_5.00_(P_1.00_O_4_)_3_F_1.00_
##PIN_ID=L01968
##ORIENTATION=Laser parallel to -a* (-1 0 0). Fiducial mark perpendicular to laser is parallel to -c [0 0 -1]
136.5850, 0.0000000E+00
137.8140, 57.06641
139.0430, 64.33252
140.2710, 88.60205
141.5000, 46.34570
142.7280, 60.26953
143.9560, 81.16650
145.1840, 43.96875
146.4120, 77.73535
147.6390, 5.451172
148.8670, 63.88818
150.0940, 10.69092
151.3210, 95.58203
152.5490, 89.33398
153.7750, 77.93506
155.0020, 93.68994
156.2290, 82.78223
157.4550, 100.9258
158.6810, 76.21240
159.9080, 98.25391
161.1340, 121.6309
162.3590, 3.429688
163.5850, 102.4868
164.8110, 31.42725
166.0360, 82.24707
167.2610, 68.00879
168.4860, 72.93408
169.7110, 91.27734
170.9360, 105.6274
172.1610, 157.6904
173.3850, 76.18652
174.6100, 59.64795
175.8340, 1.913086
177.0580, 108.2422
178.2820, 123.5698
179.5050, 41.00098
180.7290, 184.1709
181.9520, 97.42676
183.1760, 152.6050
184.3990, 73.74219
185.6220, 117.8608
186.8450, 145.9707
188.0670, 102.3936
189.2900, 87.53564
190.5120, 60.43848
191.7340, 121.0010
192.9560, 47.58887
194.1780, 49.33398
195.4000, 132.0713
196.6220, 114.2822
197.8430, 133.1001
199.0640, 126.4243
200.2860, 92.94287
201.5070, 3.986816
202.7270, 32.30322
203.9480, 74.24902
205.1690, 35.03857
206.3890, 81.75830
207.6090, 43.10352
208.8290, 137.4785
210.0490, 181.1514
211.2690, 161.5591
212.4890, 129.0469
213.7080, 125.5396
214.9280, 159.6353
216.1470, 75.32812
217.3660, 61.17139
218.5850, 210.9604
219.8030, 168.0112
221.0220, 141.8501
222.2400, 246.7676
223.4590, 235.8198
224.6770, 84.66260
225.8950, 38.93262
227.1120, 98.83691
228.3300, 157.5801
229.5480, 146.7329
230.7650, 144.9097
231.9820, 241.9868
233.1990, 111.1562
234.4160, 96.91748
235.6330, 171.3652
236.8490, 193.6592
238.0660, 64.31738
239.2820, 47.05322
240.4980, 139.6528
241.7140, 72.91748
242.9300, 176.9102
244.1460, 158.0259
245.3610, 89.66895
246.5770, 196.2749
247.7920, 135.4561
249.0070, 104.0020
250.2220, 124.0786
251.4370, 92.47705
252.6510, 109.5796
253.8660, 95.80615
255.0800, 91.11914
256.2940, 58.57373
257.5080, 124.1758
258.7220, 51.95459
259.9360, 174.8467
261.1490, 150.7329
262.3630, 32.34375
263.5760, 180.3545
264.7890, 197.3018
266.0020, 61.80615
267.2150, 181.4941
268.4270, 134.4614
269.6400, 107.0415
270.8520, 25.97314
272.0640, 26.10498
273.2760, 115.9692
274.4880, 198.4404
275.7000, 54.96436
276.9120, 101.9932
278.1230, 6.801758
279.3340, 9.475586
280.5450, 19.83496
281.7560, 27.64014
282.9670, 1.426270
284.1780, 115.1182
285.3880, 99.70166
286.5980, 166.1602
287.8090, 39.50635
289.0190, 132.7246
290.2290, 200.7676
291.4380, 139.9097
292.6480, 30.83789
293.8570, 167.0029
295.0670, 111.4927
296.2760, 28.98535
297.4850, 103.5767
298.6930, 70.12109
299.9020, 48.11279
301.1110, 123.4385
302.3190, 88.02051
303.5270, 152.5708
304.7350, 17.58545
305.9430, 210.3345
307.1510, 60.13867
308.3580, 165.7642
309.5660, 147.4722
310.7730, 53.22461
311.9800, 142.6284
313.1870, 65.72119
314.3940, 62.24463
315.6010, 106.4907
316.8070, 70.86133
318.0130, 111.3887
319.2200, 84.48682
320.4260, 153.5347
321.6310, 124.4209
322.8370, 57.48438
324.0430, 2.237305
325.2480, 53.86230
326.4540, 63.76660
327.6590, 88.71289
328.8640, 24.99023
330.0680, 48.08984
331.2730, 0.9628910
332.4780, 54.14258
333.6820, 13.78125
334.8860, 65.74121
336.0900, 115.0127
337.2940, 160.3135
338.4980, 136.2715
339.7010, 115.7891
340.9050, 20.00098
342.1080, 22.31836
343.3110, 3.000977
344.5140, 96.25391
345.7170, 73.52148
346.9200, 109.0762
348.1220, 0.4150390
349.3240, 86.94141
350.5270, 82.91895
351.7290, 116.8262
352.9310, 128.2695
354.1320, 148.6387
355.3340, 96.27832
356.5350, 49.55176
357.7370, 84.74512
358.9380, 22.35352
360.1390, 60.79102
361.3400, 48.47363
362.5400, 86.59668
363.7410, 111.4238
364.9410, 139.9688
366.1410, 182.5996
367.3410, 114.4053
368.5410, 56.78320
369.7410, 207.4805
370.9400, 96.05273
372.1400, 1.832031
373.3390, 90.96289
374.5380, 102.6387
375.7370, 101.7520
376.9360, 50.98340
378.1350, 230.3252
379.3330, 73.94434
380.5310, 183.3350
381.7300, 87.41602
382.9280, 74.38965
384.1260, 14.33496
385.3230, 75.26074
386.5210, 9.098633
387.7180, 108.6475
388.9160, 92.87598
390.1130, 76.73145
391.3100, 16.56250
392.5060, 139.8838
393.7030, 139.8799
394.9000, 91.53320
396.0960, 142.1074
397.2920, 162.0273
398.4880, 34.78223
399.6840, 45.38770
400.8800, 209.3457
402.0750, 72.47949
403.2710, 80.35547
404.4660, 11.83496
405.6610, 118.2402
406.8560, 102.9648
408.0510, 43.60547
409.2450, 206.6758
410.4400, 30.60156
411.6340, 118.8057
412.8280, 65.76465
414.0220, 87.71387
415.2160, 193.9873
416.4100, 170.6514
417.6030, 66.02344
418.7970, 208.5830
419.9900, 40.50391
421.1830, 152.8359
422.3760, 248.0283
423.5690, 185.9150
424.7610, 99.41992
425.9540, 296.4111
427.1460, 324.5107
428.3380, 318.8047
429.5300, 363.0479
430.7220, 341.1680
431.9140, 293.0381
433.1050, 308.1836
434.2970, 224.2842
435.4880, 205.9385
436.6790, 175.9463
437.8700, 121.3809
439.0610, 252.6846
440.2510, 65.88477
441.4420, 65.75977
442.6320, 186.3799
443.8220, 94.68555
445.0120, 256.4844
446.2020, 253.4746
447.3910, 171.5254
448.5810, 139.3389
449.7700, 221.9766
450.9600, 185.9785
452.1490, 147.6221
453.3370, 82.03320
454.5260, 196.2197
455.7150, 33.08496
456.9030, 142.2471
458.0910, 5.363281
459.2800, 1.539063
460.4670, 104.3574
461.6550, 191.8887
462.8430, 175.3457
464.0300, 93.61426
465.2180, 169.4180
466.4050, 107.0234
467.5920, 91.38379
468.7790, 171.0254
469.9650, 147.1816
471.1520, 56.62402
472.3380, 70.97168
473.5250, 128.6963
474.7110, 27.42285
475.8970, 158.7129
477.0820, 177.1123
478.2680, 62.60742
479.4540, 194.7402
480.6390, 11.80957
481.8240, 68.03906
483.0090, 178.8457
484.1940, 140.3184
485.3780, 44.45508
486.5630, 5.936523
487.7470, 101.7412
488.9320, 87.37988
490.1160, 197.1514
491.3000, 259.2637
492.4830, 58.19336
493.6670, 108.6260
494.8500, 2.616211
496.0340, 22.65430
497.2170, 156.7422
498.4000, 21.13672
499.5820, 17.08301
500.7650, 127.5527
501.9480, 151.5205
503.1300, 14.98633
504.3120, 136.7158
505.4940, 35.37109
506.6760, 75.34082
507.8580, 278.8740
509.0390, 14.52637
510.2210, 69.81934
511.4020, 165.0176
512.5830, 134.5039
513.7640, 133.5488
514.9450, 77.75098
516.1250, 175.2441
517.3060, 58.20801
518.4860, 39.94238
519.6660, 191.7363
520.8460, 98.04199
522.0260, 188.6133
523.2060, 28.97754
524.3850, 166.3838
525.5650, 141.8555
526.7440, 223.5088
527.9230, 211.5107
529.1020, 35.09277
530.2810, 126.4424
531.4590, 134.5547
532.6380, 21.29199
533.8160, 31.72266
534.9940, 71.19434
536.1720, 22.45215
537.3500, 133.5820
538.5270, 77.17969
539.7050, 68.36719
540.8820, 84.79004
542.0590, 192.8691
543.2360, 203.6035
544.4130, 179.7861
545.5900, 302.8633
546.7660, 200.6035
547.9430, 139.2109
549.1190, 46.08203
550.2950, 175.3477
551.4710, 94.47559
552.6470, 125.0479
553.8220, 132.0908
554.9980, 93.58203
556.1730, 142.0586
557.3480, 44.70020
558.5230, 99.53125
559.6980, 199.0547
560.8730, 16.71777
562.0470, 150.7129
563.2220, 118.4482
564.3960, 138.5830
565.5700, 202.5811
566.7440, 88.57715
567.9170, 212.6650
569.0910, 89.89551
570.2640, 186.1777
571.4380, 133.9365
572.6110, 209.0332
573.7840, 83.58691
574.9570, 135.8652
576.1290, 178.8340
577.3020, 112.6865
578.4740, 228.2822
579.6460, 188.4980
580.8180, 103.2217
581.9900, 254.0781
583.1620, 264.9141
584.3330, 306.7910
585.5040, 244.1172
586.6760, 149.4941
587.8470, 184.4150
589.0180, 215.2354
590.1880, 297.9668
591.3590, 219.5000
592.5290, 233.9639
593.7000, 255.5107
594.8700, 198.5371
596.0400, 110.2393
597.2090, 184.2939
598.3790, 177.4248
599.5490, 208.1299
600.7180, 11.31348
601.8870, 74.25879
603.0560, 152.2598
604.2250, 284.1406
605.3940, 213.5225
606.5620, 178.0361
607.7300, 302.5381
608.8990, 132.7383
610.0670, 242.0059
611.2350, 182.4639
612.4020, 104.7852
613.5700, 279.7051
614.7370, 118.7646
615.9050, 147.3115
617.0720, 27.33301
618.2390, 112.0283
619.4060, 159.8086
620.5720, 203.9785
621.7390, 147.1406
622.9050, 210.6797
624.0710, 153.8711
625.2370, 223.0234
626.4030, 287.5273
627.5690, 156.4375
628.7340, 126.9434
629.9000, 114.6973
631.0650, 307.1797
632.2300, 47.52148
633.3950, 121.5195
634.5600, 300.4570
635.7240, 170.4531
636.8890, 25.03906
638.0530, 322.2930
639.2170, 157.5605
640.3810, 206.4297
641.5450, 48.56445
642.7080, 191.4395
643.8720, 112.0508
645.0350, 145.3008
646.1980, 353.7500
647.3610, 194.0156
648.5240, 192.7793
649.6870, 192.4355
650.8490, 140.5410
652.0120, 207.6406
653.1740, 186.0332
654.3360, 219.4082
655.4980, 59.47070
656.6600, 9.076172
657.8210, 63.22461
658.9830, 116.8945
660.1440, 7.921875
661.3050, 162.8340
662.4660, 305.1309
663.6270, 180.9688
664.7870, 136.2422
665.9480, 221.3496
667.1080, 131.0742
668.2680, 123.3750
669.4280, 134.3027
670.5880, 158.4395
671.7480, 215.1465
672.9070, 135.4590
674.0670, 305.6855
675.2260, 344.8086
676.3850, 82.95117
677.5440, 74.89258
678.7030, 216.8848
679.8610, 84.68945
681.0200, 170.5410
682.1780, 169.8848
683.3360, 148.8379
684.4940, 165.8945
685.6520, 137.5898
686.8090, 284.2637
687.9670, 228.9707
689.1240, 194.8711
690.2810, 49.39453
691.4380, 100.8887
692.5950, 84.23828
693.7520, 145.5527
694.9080, 160.7695
696.0650, 211.0840
697.2210, 139.9375
698.3770, 277.8398
699.5330, 146.4336
700.6880, 99.74219
701.8440, 277.1270
702.9990, 262.3223
704.1550, 29.63281
705.3100, 120.0195
706.4650, 48.85742
707.6190, 209.3496
708.7740, 179.9531
709.9290, 64.60742
711.0830, 190.9707
712.2370, 72.89453
713.3910, 115.4082
714.5450, 117.5840
715.6980, 111.4102
716.8520, 142.1523
718.0050, 162.5059
719.1580, 155.6484
720.3110, 159.3691
721.4640, 148.0137
722.6170, 244.6895
723.7700, 58.40625
724.9220, 16.47266
726.0740, 253.4180
727.2260, 178.4258
728.3780, 14.18164
729.5300, 269.2109
730.6810, 241.8496
731.8330, 166.4961
732.9840, 209.4922
734.1350, 145.8945
735.2860, 100.1738
736.4370, 28.40039
737.5880, 94.53320
738.7380, 160.2656
739.8880, 149.9043
741.0390, 207.6074
742.1890, 203.2109
743.3380, 225.1895
744.4880, 253.5254
745.6380, 177.2871
746.7870, 219.8496
747.9360, 266.2812
749.0850, 181.1738
750.2340, 107.0449
751.3830, 200.1875
752.5310, 209.0039
753.6800, 43.08984
754.8280, 215.4238
755.9760, 327.3613
757.1240, 155.7129
758.2720, 178.7676
759.4190, 170.0508
760.5670, 188.5176
761.7140, 19.48633
762.8610, 94.65820
764.0080, 124.5430
765.1550, 102.8340
766.3020, 155.6191
767.4480, 304.4355
768.5950, 222.1973
769.7410, 356.6074
770.8870, 166.4395
772.0330, 215.1367
773.1780, 240.9258
774.3240, 155.6699
775.4690, 138.7148
776.6140, 195.4648
777.7590, 73.69727
778.9040, 14.82031
780.0490, 22.17383
781.1940, 11.06250
782.3380, 260.2832
783.4820, 94.56250
784.6260, 168.5918
785.7700, 236.9941
786.9140, 184.7930
788.0580, 152.5098
789.2010, 55.84180
790.3450, 114.4238
791.4880, 104.8262
792.6310, 106.3105
793.7730, 319.9902
794.9160, 134.1328
796.0590, 206.4336
797.2010, 138.4707
798.3430, 15.41797
799.4850, 349.5723
800.6270, 205.1426
801.7690, 247.0293
802.9100, 246.0430
804.0520, 168.0176
805.1930, 240.5918
806.3340, 121.0254
807.4750, 164.4551
808.6160, 258.0605
809.7560, 190.7383
810.8970, 218.0332
812.0370, 333.9941
813.1770, 117.9531
814.3170, 123.8945
815.4570, 254.7207
816.5960, 86.16016
817.7360, 302.9941
818.8750, 259.1387
820.0140, 111.2324
821.1530, 334.1875
822.2920, 230.1641
823.4310, 124.9688
824.5690, 382.3379
825.7070, 132.4277
826.8460, 279.3516
827.9840, 349.1914
829.1220, 399.6328
830.2590, 397.1543
831.3970, 25.50781
832.5340, 249.0000
833.6710, 232.6895
834.8080, 35.03906
835.9450, 190.9531
837.0820, 259.2793
838.2190, 160.3691
839.3550, 158.1523
840.4910, 36.82812
841.6270, 43.28125
842.7630, 163.3340
843.8990, 113.8281
845.0350, 187.0723
846.1700, 397.6914
847.3060, 309.1816
848.4410, 180.2188
849.5760, 135.6895
850.7100, 347.3242
851.8450, 71.92383
852.9800, 63.55078
854.1140, 84.02148
855.2480, 367.5977
856.3820, 278.1035
857.5160, 159.5859
858.6500, 40.97656
859.7830, 160.3789
860.9170, 412.1953
862.0500, 157.1289
863.1830, 161.7930
864.3160, 63.10938
865.4480, 326.3457
866.5810, 316.9512
867.7130, 390.4062
868.8460, 153.5039
869.9780, 332.6914
871.1100, 162.6191
872.2410, 340.7305
873.3730, 302.7852
874.5050, 107.3848
875.6360, 112.2168
876.7670, 65.60938
877.8980, 345.9160
879.0290, 86.81055
880.1590, 128.7500
881.2900, 215.9355
882.4200, 133.5977
883.5500, 288.6113
884.6800, 205.5684
885.8100, 135.1387
886.9400, 279.3574
888.0690, 295.9355
889.1990, 335.5098
890.3280, 176.1387
891.4570, 8.673828
892.5860, 106.5195
893.7140, 348.7070
894.8430, 305.9590
895.9710, 129.1738
897.1000, 266.9199
898.2280, 2.791016
899.3560, 269.3652
900.4830, 146.0664
901.6110, 39.64062
902.7380, 83.39258
903.8660, 186.7344
904.9930, 198.7012
906.1200, 154.9785
907.2460, 70.65039
908.3730, 48.49023
909.5000, 72.39453
910.6260, 61.90820
911.7520, 150.3164
912.8780, 111.9453
914.0040, 256.2988
915.1290, 73.34766
916.2550, 303.7188
917.3800, 295.7500
918.5050, 27.48438
919.6300, 24.42969
920.7550, 65.68359
921.8800, 125.1914
923.0040, 129.4805
924.1290, 247.0137
925.2530, 151.4160
926.3770, 249.2988
927.5010, 217.1016
928.6250, 254.8926
929.7480, 308.4492
930.8720, 134.3184
931.9950, 100.5039
933.1180, 66.62305
934.2410, 39.14844
935.3640, 112.2051
936.4860, 337.1504
937.6090, 74.24805
938.7310, 12.31641
939.8530, 350.0059
940.9750, 42.97656
942.0970, 256.4160
943.2180, 93.01562
944.3400, 283.1484
945.4610, 202.8125
946.5820, 385.7793
947.7030, 300.8086
948.8240, 195.0977
949.9450, 354.3906
951.0650, 369.2148
952.1860, 229.1895
953.3060, 202.0957
954.4260, 383.8770
955.5460, 520.0020
956.6650, 373.8398
957.7850, 567.4414
958.9040, 727.5840
960.0230, 927.3496
961.1420, 1387.482
962.2610, 1921.203
963.3800, 2413.918
964.4990, 2533.615
965.6170, 2262.289
966.7350, 1833.814
967.8530, 1211.752
968.9710, 721.2148
970.0890, 595.2305
971.2070, 320.5488
972.3240, 506.0723
973.4410, 289.1660
974.5580, 315.2344
975.6750, 330.1895
976.7920, 64.25195
977.9090, 523.3008
979.0250, 84.13086
980.1410, 38.25195
981.2580, 162.6426
982.3740, 421.0156
983.4890, 90.06250
984.6050, 250.9121
985.7200, 104.2344
986.8360, 144.5957
987.9510, 62.30273
989.0660, 205.8633
990.1810, 234.1211
991.2950, 250.3633
992.4100, 118.2344
993.5240, 27.04688
994.6390, 120.0000
995.7530, 32.17578
996.8660, 215.9922
997.9800, 325.8711
999.0940, 60.00000
1000.207, 125.7734
1001.320, 259.8750
1002.433, 105.9609
1003.546, 83.28906
1004.659, 383.7109
1005.772, 7.398438
1006.884, 212.3633
1007.996, 293.3242
1009.108, 293.7344
1010.220, 394.1797
1011.332, 225.0977
1012.444, 175.0078
1013.555, 344.2148
1014.666, 46.70703
1015.777, 162.5586
1016.888, 9.062500
1017.999, 83.91016
1019.110, 320.8477
1020.220, 201.3438
1021.331, 151.1758
1022.441, 352.0039
1023.551, 25.14453
1024.661, 266.5117
1025.770, 53.85938
1026.880, 142.2188
1027.989, 77.00781
1029.098, 38.20703
1030.207, 343.7773
1031.316, 41.56250
1032.425, 188.5430
1033.533, 288.3242
1034.642, 94.90625
1035.750, 298.3867
1036.858, 47.64844
1037.966, 273.4062
1039.073, 341.1562
1040.181, 337.7852
1041.288, 346.8984
1042.396, 136.6055
1043.503, 47.76953
1044.610, 65.75781
1045.716, 54.38281
1046.823, 24.70312
1047.929, 122.5117
1049.036, 138.4219
1050.142, 174.0508
1051.248, 167.6836
1052.353, 455.6484
1053.459, 369.5234
1054.564, 203.7422
1055.670, 252.2109
1056.775, 45.28906
1057.880, 169.3008
1058.985, 182.8672
1060.089, 286.4688
1061.194, 153.0664
1062.298, 322.6680
1063.402, 61.26953
1064.506, 502.8125
1065.610, 213.2188
1066.713, 322.5586
1067.817, 322.9258
1068.920, 193.4219
1070.023, 222.0391
1071.126, 156.2891
1072.229, 228.8320
1073.332, 425.4492
1074.435, 330.0742
1075.537, 188.7031
1076.639, 27.79297
1077.741, 159.8164
1078.843, 15.43359
1079.945, 325.0547
1081.046, 217.6719
1082.148, 234.2969
1083.249, 525.9297
1084.350, 220.5664
1085.451, 219.2109
1086.551, 242.8594
1087.652, 216.5117
1088.752, 354.1719
1089.853, 258.8359
1090.953, 331.1016
1092.053, 311.1914
1093.152, 334.8711
1094.252, 306.6562
1095.351, 291.4531
1096.451, 176.9688
1097.550, 209.6719
1098.649, 61.39062
1099.748, 58.86719
1100.846, 250.8516
1101.945, 388.5820
1103.043, 11.67969
1104.141, 208.0547
1105.239, 85.80078
1106.337, 104.5547
1107.434, 128.3203
1108.532, 225.1016
1109.629, 87.79688
1110.726, 339.6055
1111.823, 326.4219
1112.920, 126.7070
1114.017, 564.5469
1115.113, 285.3945
1116.210, 266.2539
1117.306, 196.1289
1118.402, 218.0117
1119.498, 22.90625
1120.593, 16.19141
1121.689, 174.7422
1122.784, 119.6953
1123.879, 454.6641
1124.974, 184.6367
1126.069, 82.03125
1127.164, 105.9375
1128.259, 294.3203
1129.353, 17.67969
1130.447, 159.3242
1131.541, 8.726563
1132.635, 138.3047
1133.729, 128.3438
1134.822, 170.3984
1135.916, 177.0664
1137.009, 144.6016
1138.102, 195.0078
1139.195, 195.1250
1140.288, 316.2539
1141.380, 138.4023
1142.473, 224.5703
1143.565, 408.7578
1144.657, 150.3594
1145.749, 240.5820
1146.841, 206.0156
1147.932, 197.2695
1149.024, 144.1406
1150.115, 23.24609
1151.206, 42.05078
1152.297, 154.3008
1153.388, 57.63672
1154.479, 256.7695
1155.569, 55.47266
1156.659, 177.8633
1157.750, 174.2539
1158.839, 383.6914
1159.929, 354.1484
1161.019, 75.98828
1162.108, 24.52734
1163.198, 11.98047
1164.287, 103.6016
1165.376, 95.20312
1166.465, 291.8242
1167.553, 178.4727
1168.642, 196.1406
1169.730, 231.8320
1170.818, 172.9023
1171.906, 385.6328
1172.994, 329.3906
1174.082, 329.1719
1175.170, 341.9766
1176.257, 236.8086
1177.344, 363.5234
1178.431, 136.1016
1179.518, 221.0664
1180.605, 354.9922
1181.691, 79.93750
1182.778, 109.9102
1183.864, 441.9141
1184.950, 6.054688
1186.036, 277.0000
1187.122, 62.08203
1188.207, 110.7188
1189.292, 141.8477
1190.378, 376.0078
1191.463, 289.1875
1192.548, 227.3906
1193.632, 300.6211
1194.717, 279.8750
1195.801, 225.1562
1196.886, 74.53516
1197.970, 157.8047
1199.054, 140.1914
1200.137, 346.6055
1201.221, 411.0469
1202.305, 201.5156
1203.388, 168.0234
1204.471, 269.5547
1205.554, 208.1211
1206.637, 373.7109
1207.719, 240.1641
1208.802, 360.8125
1209.884, 106.2695
1210.966, 316.9688
1212.048, 84.69922
1213.130, 249.4531
1214.212, 89.24219
1215.293, 150.0508
1216.374, 445.8945
1217.456, 359.7656
1218.536, 410.4023
1219.617, 332.5938
1220.698, 257.5508
1221.778, 462.5352
1222.859, 265.5430
1223.939, 448.5859
1225.019, 442.6602
1226.099, 160.7578
1227.178, 358.8906
1228.258, 447.0547
1229.337, 267.2422
1230.417, 364.0703
1231.496, 194.3242
1232.574, 251.6172
1233.653, 211.8750
1234.732, 198.2266
1235.810, 431.6133
1236.888, 174.0312
1237.966, 258.8867
1239.044, 325.9570
1240.122, 175.4688
1241.199, 243.0078
1242.277, 173.5820
1243.354, 346.1953
1244.431, 162.8320
1245.508, 307.5039
1246.585, 241.2109
1247.661, 123.9492
1248.738, 425.7148
1249.814, 279.5156
1250.890, 511.2812
1251.966, 277.1484
1253.042, 260.0469
1254.117, 372.9805
1255.193, 246.9453
1256.268, 450.8906
1257.343, 95.92578
1258.418, 456.0000
1259.493, 394.0469
1260.567, 211.1875
1261.642, 345.7031
1262.716, 113.9102
1263.790, 170.1523
1264.864, 279.4297
1265.938, 150.7695
1267.011, 34.85156
1268.085, 540.5586
1269.158, 186.0039
1270.231, 281.4844
1271.304, 21.00000
1272.377, 135.5547
1273.450, 22.85938
1274.522, 198.7617
1275.594, 57.55859
1276.666, 217.1211
1277.738, 39.16797
1278.810, 86.41797
1279.882, 329.1953
1280.953, 44.00391
1282.025, 58.82422
1283.096, 218.3086
1284.167, 20.47266
1285.238, 23.40625
1286.308, 212.3242
1287.379, 223.2812
1288.449, 404.2695
1289.519, 185.3008
1290.589, 291.3828
1291.659, 303.4961
1292.729, 288.9492
1293.798, 405.1406
1294.868, 386.3672
1295.937, 129.6445
1297.006, 554.9531
1298.075, 293.3047
1299.143, 23.28125
1300.212, 426.1719
1301.280, 358.6641
1302.348, 493.1875
1303.416, 96.75781
1304.484, 491.3594
1305.552, 371.0000
1306.620, 419.7031
1307.687, 374.4453
1308.754, 127.2617
1309.821, 498.1133
1310.888, 490.0078
1311.955, 236.9453
1313.021, 268.9219
1314.088, 324.6445
1315.154, 292.6992
1316.220, 12.78906
1317.286, 493.9375
1318.352, 137.1211
1319.417, 385.3477
1320.483, 297.6172
1321.548, 215.9258
1322.613, 343.2695
1323.678, 101.6367
1324.743, 352.0430
1325.807, 141.7578
1326.872, 380.2344
1327.936, 141.7383
1329.000, 317.2734
1330.064, 472.8477
1331.128, 185.4531
1332.191, 472.0859
1333.255, 472.7617
1334.318, 320.4648
1335.381, 345.2070
1336.444, 316.6328
1337.507, 260.8086
1338.569, 363.6602
1339.632, 385.5508
1340.694, 504.4766
1341.756, 308.4297
1342.818, 612.4258
1343.880, 235.4492
1344.941, 500.5117
1346.003, 452.6094
1347.064, 295.7383
1348.125, 95.90625
1349.186, 262.1094
1350.247, 181.3477
1351.308, 51.62109
1352.368, 727.9336
1353.428, 564.2773
1354.489, 366.6602
1355.549, 731.0781
1356.608, 331.5273
1357.668, 390.0156
1358.727, 498.5586
1359.787, 463.5391
1360.846, 340.1562
1361.905, 355.8086
1362.964, 195.5000
1364.022, 352.2266
1365.081, 288.9961
1366.139, 365.8008
1367.197, 280.6367
1368.255, 560.5156
1369.313, 447.4336
1370.371, 530.3906
1371.428, 283.3828
1372.486, 386.4141
1373.543, 561.4805
1374.600, 222.5898
1375.657, 390.7344
1376.713, 430.9219
1377.770, 77.14453
1378.826, 479.4102
1379.882, 547.7148
1380.938, 360.0547
1381.994, 90.43359
1383.050, 5.144531
1384.106, 384.3281
1385.161, 559.8438
1386.216, 376.3945
1387.271, 233.9883
1388.326, 284.6211
1389.381, 300.2969
1390.435, 541.0117
1391.490, 489.7695
1392.544, 335.5625
1393.598, 596.3984
1394.652, 280.5625
1395.705, 565.4766
1396.759, 284.4297
1397.812, 510.4297
1398.866, 729.8906
1399.919, 197.9766
1400.972, 440.6992
1402.024, 2.132813
1403.077, 660.7109
1404.129, 456.9648
1405.181, 329.4219
1406.233, 189.4062
1407.285, 305.7695
1408.337, 437.2422
1409.389, 206.6953
1410.440, 406.4062
1411.491, 667.6172
1412.542, 194.1992
1413.593, 666.8281
1414.644, 230.5039
1415.695, 555.2305
1416.745, 158.0039
1417.795, 208.8242
1418.845, 199.6992
1419.895, 302.6211
1420.945, 251.5977
1421.995, 430.4414
1423.044, 374.5195
1424.093, 435.6367
1425.142, 465.4375
1426.191, 261.3086
1427.240, 263.5938
1428.289, 287.9375
1429.337, 471.3398
1430.385, 246.8008
1431.433, 357.3242
1432.481, 346.9102
1433.529, 560.5625
1434.577, 311.2812
1435.624, 266.0352
1436.672, 505.8516
1437.719, 399.5938
1438.766, 467.4766
1439.812, 303.1133
1440.859, 462.7773
1441.905, 309.4492
1442.952, 205.1133
1443.998, 418.0820
1445.044, 385.6992
1446.090, 453.5820
1447.135, 506.4219
1448.181, 230.6562
1449.226, 314.1875
1450.271, 306.7852
1451.316, 429.4414
1452.361, 388.1523
1453.405, 272.9141
1454.450, 74.73047
1455.494, 314.6055
1456.538, 474.5273
1457.582, 136.5039
1458.626, 511.5391
1459.670, 457.6250
1460.713, 387.7539
1461.757, 255.9453
1462.800, 427.1992
1463.843, 214.4961
1464.886, 231.8477
1465.928, 414.2539
1466.971, 492.6953
1468.013, 414.1836
1469.055, 468.7188
1470.097, 403.3086
1471.139, 319.9531
1472.181, 318.6523
1473.222, 321.9336
1474.263, 201.2070
1475.305, 395.0703
1476.346, 591.9766
1477.386, 632.9375
1478.427, 494.8789
1479.468, 339.9531
1480.508, 903.0625
1481.548, 151.2305
1482.588, 512.4492
1483.628, 469.7188
1484.668, 88.95312
1485.707, 515.4297
1486.747, 448.8555
1487.786, 106.2969
1488.825, 40.84375
1489.864, 428.4688
1490.902, 253.1641
1491.941, 29.96875
1492.979, 457.8867
1494.017, 346.8477
1495.055, 506.8633
1496.093, 207.9297
1497.131, 73.04688
1498.168, 316.1953
1499.206, 219.3477
1500.243, 241.5000
1501.280, 503.6953
1502.317, 468.9336
1503.354, 261.1992
1504.390, 475.5000
1505.426, 57.83594
1506.463, 389.2109
1507.499, 346.6211
1508.535, 284.0703
1509.570, 258.5469
1510.606, 237.2734
1511.641, 458.6836
1512.676, 228.3867
1513.711, 163.1953
1514.746, 173.0898
1515.781, 585.0781
1516.816, 118.1602
1517.850, 362.3320
1518.884, 328.6094
1519.918, 159.9844
1520.952, 472.4570
1521.986, 183.0352
1523.019, 17.28516
1524.053, 386.5039
1525.086, 265.3906
1526.119, 307.3945
1527.152, 295.5078
1528.185, 372.7422
1529.217, 562.1602
1530.250, 315.4492
1531.282, 393.8672
1532.314, 586.3906
1533.346, 231.0234
1534.377, 212.7695
1535.409, 548.6367
1536.440, 309.6328
1537.472, 297.7578
1538.503, 218.0234
1539.534, 330.4375
1540.564, 101.0117
1541.595, 579.7539
1542.625, 280.6758
1543.656, 339.7773
1544.686, 238.0664
1545.716, 5.445313
1546.745, 396.2383
1547.775, 275.9727
1548.804, 92.02344
1549.834, 131.1875
1550.863, 283.8047
1551.892, 431.8555
1552.920, 386.2109
1553.949, 477.8828
1554.977, 259.8906
1556.006, 315.2695
1557.034, 224.0430
1558.062, 215.2500
1559.089, 321.1211
1560.117, 233.7422
1561.144, 109.5938
1562.172, 93.39453
1563.199, 226.8320
1564.226, 169.1758
1565.252, 284.1758
1566.279, 314.3555
1567.305, 99.70312
1568.332, 17.98047
1569.358, 142.1641
1570.384, 0.7304690
1571.409, 0.0000000E+00
##END=



