##NAMES=Fluorapatite
##RRUFFID=R060333
##IDEAL CHEMISTRY=Ca_5_(PO_4_)_3_F
##LOCALITY=Lovozero Massif, Kola Peninsula, U.S.S.R.
##OWNER=RRUFF
##SOURCE=Michael Scott
##DESCRIPTION=Colorless fragment associated with red villiaumite
##STATUS=The identification of this mineral has been confirmed by X-ray diffraction and chemical analysis
##URL=rruff.info/R060333
##MEASURED CHEMISTRY=(Ca_4.29_Sr_0.47_Na_0.12_Ce_0.07_La_0.06_)_Σ=5_((P_0.99_Si_0.01_)_Σ=1_O_4_)_3_F_1.00_
##PIN_ID=L00852
##ORIENTATION=Laser parallel to c* (0 0 1). Fiducial mark perpendicular to laser is parallel to -a [-1 0 0]
164.2210, 0.0000000E+00
165.4520, 0.4516600
166.6830, 77.41553
167.9140, 73.39111
169.1450, 128.8877
170.3760, 128.0498
171.6060, 131.4062
172.8360, 105.7314
174.0660, 73.82764
175.2960, 32.19336
176.5260, 98.45459
177.7550, 96.11816
178.9840, 39.90283
180.2130, 90.43945
181.4420, 55.91992
182.6710, 52.15527
183.9000, 71.80566
185.1280, 36.25586
186.3560, 97.81689
187.5840, 90.90186
188.8120, 79.63525
190.0400, 29.74902
191.2670, 128.0068
192.4950, 92.21436
193.7220, 6.942871
194.9490, 50.97754
196.1750, 71.97656
197.4020, 26.00537
198.6280, 11.03906
199.8540, 22.06494
201.0800, 117.0601
202.3060, 53.02051
203.5320, 138.0029
204.7570, 88.05957
205.9830, 169.1885
207.2080, 96.36475
208.4330, 104.8145
209.6570, 100.4131
210.8820, 84.08350
212.1060, 81.38428
213.3310, 79.42578
214.5550, 75.62402
215.7780, 91.52637
217.0020, 126.3901
218.2260, 157.1812
219.4490, 118.9331
220.6720, 73.64795
221.8950, 130.3589
223.1180, 189.1567
224.3400, 149.8994
225.5630, 133.6528
226.7850, 201.3267
228.0070, 278.1362
229.2290, 199.5757
230.4500, 301.9014
231.6720, 303.0854
232.8930, 312.1216
234.1140, 243.2539
235.3350, 300.9990
236.5560, 321.6440
237.7770, 283.1431
238.9970, 275.6055
240.2170, 376.3301
241.4370, 279.7656
242.6570, 285.7329
243.8770, 248.1084
245.0960, 336.6753
246.3160, 321.1362
247.5350, 373.2100
248.7540, 363.1382
249.9730, 355.3979
251.1910, 371.0615
252.4100, 485.6157
253.6280, 423.7979
254.8460, 533.7622
256.0640, 543.0537
257.2810, 509.6069
258.4990, 513.2305
259.7160, 562.2788
260.9330, 542.2310
262.1500, 531.4219
263.3670, 671.7568
264.5840, 579.7681
265.8000, 552.3066
267.0170, 647.5669
268.2330, 470.9346
269.4490, 479.5410
270.6640, 313.4365
271.8800, 376.2837
273.0950, 304.3765
274.3100, 332.2681
275.5260, 258.4160
276.7400, 316.1069
277.9550, 253.6172
279.1690, 265.5732
280.3840, 240.0674
281.5980, 266.9893
282.8120, 253.0181
284.0260, 248.7964
285.2390, 236.5449
286.4530, 215.6421
287.6660, 181.8853
288.8790, 152.4512
290.0920, 194.5234
291.3040, 305.8623
292.5170, 261.7729
293.7290, 319.6528
294.9410, 232.5464
296.1530, 338.5713
297.3650, 292.8242
298.5770, 322.0024
299.7880, 300.1045
301.0000, 244.1289
302.2110, 340.0796
303.4220, 202.9556
304.6320, 346.7578
305.8430, 302.4868
307.0530, 358.1411
308.2630, 229.7212
309.4730, 385.2285
310.6830, 322.4775
311.8930, 260.5664
313.1030, 277.0869
314.3120, 218.2383
315.5210, 225.7837
316.7300, 189.9507
317.9390, 161.9810
319.1470, 152.9810
320.3560, 124.6792
321.5640, 124.1875
322.7720, 90.82959
323.9800, 87.25586
325.1880, 90.38281
326.3950, 83.52393
327.6030, 95.13770
328.8100, 120.2476
330.0170, 98.84717
331.2240, 114.7617
332.4300, 113.6016
333.6370, 102.2197
334.8430, 69.96143
336.0490, 23.15527
337.2550, 12.91357
338.4610, 7.311523
339.6660, 20.09961
340.8720, 135.0269
342.0770, 18.65820
343.2820, 36.83008
344.4870, 142.2847
345.6920, 85.30225
346.8960, 24.20850
348.1010, 82.02002
349.3050, 110.3047
350.5090, 47.07129
351.7130, 26.41797
352.9160, 48.18066
354.1200, 65.26660
355.3230, 98.96191
356.5260, 34.06055
357.7290, 49.47559
358.9320, 74.49023
360.1350, 2.746094
361.3370, 77.34473
362.5390, 28.32617
363.7410, 58.69336
364.9430, 58.45020
366.1450, 67.94922
367.3470, 104.8037
368.5480, 58.13477
369.7490, 51.86621
370.9500, 87.88965
372.1510, 173.5068
373.3520, 83.13477
374.5520, 232.7588
375.7530, 140.5488
376.9530, 115.9570
378.1530, 83.79785
379.3520, 133.8594
380.5520, 35.91016
381.7510, 94.48145
382.9510, 90.23730
384.1500, 62.29785
385.3490, 88.66992
386.5480, 125.4277
387.7460, 118.5420
388.9440, 129.6777
390.1430, 14.43945
391.3410, 67.97266
392.5390, 7.680664
393.7360, 25.16211
394.9340, 1.222656
396.1310, 56.96582
397.3280, 90.17676
398.5250, 112.8135
399.7220, 104.8203
400.9190, 110.0762
402.1150, 93.63379
403.3120, 6.293945
404.5080, 23.11133
405.7040, 81.96484
406.8990, 13.82812
408.0950, 92.75098
409.2900, 88.80176
410.4860, 155.0840
411.6810, 155.2012
412.8760, 206.4658
414.0700, 198.1055
415.2650, 154.7969
416.4590, 180.3027
417.6540, 321.4307
418.8480, 300.8711
420.0420, 386.4160
421.2350, 266.3066
422.4290, 143.1279
423.6220, 244.6650
424.8150, 203.6016
426.0080, 433.0781
427.2010, 405.4102
428.3940, 388.6807
429.5860, 410.8838
430.7790, 432.7295
431.9710, 672.9482
433.1630, 577.7012
434.3540, 820.5703
435.5460, 1029.486
436.7370, 893.3496
437.9290, 1024.162
439.1200, 1238.916
440.3110, 1279.617
441.5010, 1424.270
442.6920, 1358.869
443.8820, 1710.420
445.0730, 1637.922
446.2630, 1716.376
447.4530, 1558.665
448.6420, 1726.020
449.8320, 1448.324
451.0210, 1427.578
452.2100, 1399.763
453.3990, 1186.947
454.5880, 1146.066
455.7770, 997.1230
456.9660, 902.1191
458.1540, 779.9570
459.3420, 712.7568
460.5300, 629.3408
461.7180, 580.7412
462.9050, 447.0381
464.0930, 556.1484
465.2800, 433.1904
466.4670, 433.0264
467.6540, 501.7832
468.8410, 536.4883
470.0280, 234.1055
471.2140, 338.7012
472.4000, 230.3369
473.5870, 345.8398
474.7720, 179.3457
475.9580, 214.8008
477.1440, 291.1367
478.3290, 120.2793
479.5140, 285.4561
480.6990, 169.2021
481.8840, 5.607422
483.0690, 215.8477
484.2540, 106.3594
485.4380, 74.40039
486.6220, 124.1680
487.8060, 13.43066
488.9900, 52.04297
490.1740, 9.114258
491.3570, 3.962891
492.5410, 55.29297
493.7240, 88.82324
494.9070, 51.14160
496.0900, 151.6953
497.2720, 28.98438
498.4550, 102.6826
499.6370, 34.46582
500.8190, 97.03906
502.0010, 38.33105
503.1830, 3.360352
504.3650, 96.92383
505.5460, 28.91504
506.7280, 115.1709
507.9090, 117.2422
509.0900, 74.27832
510.2710, 9.389648
511.4510, 77.22656
512.6320, 29.94141
513.8120, 76.74219
514.9920, 63.82422
516.1720, 57.45410
517.3520, 31.62793
518.5310, 74.33105
519.7110, 12.84961
520.8900, 1.464844
522.0690, 120.5596
523.2480, 27.60645
524.4270, 15.50000
525.6050, 78.43457
526.7840, 170.5137
527.9620, 123.1133
529.1400, 44.81738
530.3180, 34.42578
531.4960, 76.30469
532.6730, 114.3906
533.8510, 144.0400
535.0280, 85.03418
536.2050, 13.82715
537.3820, 120.0801
538.5590, 94.24316
539.7350, 186.9404
540.9120, 138.4561
542.0880, 48.35059
543.2640, 186.2188
544.4400, 53.51367
545.6150, 58.01074
546.7910, 8.885742
547.9660, 279.2764
549.1410, 247.9219
550.3170, 202.3330
551.4910, 131.2344
552.6660, 50.71777
553.8410, 105.8662
555.0150, 241.1641
556.1890, 215.3643
557.3630, 33.44434
558.5370, 81.78027
559.7110, 235.1279
560.8840, 195.6797
562.0570, 338.0801
563.2310, 100.2432
564.4040, 389.7373
565.5760, 276.9131
566.7490, 372.0625
567.9220, 488.9697
569.0940, 510.0449
570.2660, 656.3535
571.4380, 783.5410
572.6100, 983.2188
573.7820, 1145.131
574.9530, 1165.682
576.1240, 1616.043
577.2960, 1621.406
578.4670, 1967.091
579.6370, 2061.896
580.8080, 2030.471
581.9790, 1923.720
583.1490, 1629.445
584.3190, 1480.990
585.4890, 1183.294
586.6590, 902.7021
587.8280, 878.7754
588.9980, 772.7354
590.1670, 822.2637
591.3360, 725.8701
592.5050, 705.9023
593.6740, 742.1758
594.8430, 691.7158
596.0110, 733.8779
597.1790, 817.6396
598.3480, 812.0615
599.5160, 929.2266
600.6830, 1155.730
601.8510, 1334.929
603.0180, 1393.119
604.1860, 1450.969
605.3530, 1699.715
606.5200, 1654.555
607.6870, 1647.522
608.8530, 1637.123
610.0200, 1238.906
611.1860, 1201.088
612.3520, 888.4814
613.5180, 1030.999
614.6840, 747.3369
615.8500, 961.3887
617.0150, 793.7256
618.1800, 610.9131
619.3450, 478.4053
620.5100, 478.2383
621.6750, 377.2754
622.8400, 339.3887
624.0040, 307.3564
625.1690, 256.4004
626.3330, 200.3643
627.4970, 289.4824
628.6610, 190.9814
629.8240, 236.3340
630.9880, 91.83887
632.1510, 235.3389
633.3140, 0.4121090
634.4770, 273.1777
635.6400, 232.0986
636.8020, 300.0166
637.9650, 216.4600
639.1270, 91.61914
640.2890, 249.2734
641.4510, 232.5967
642.6130, 381.5703
643.7750, 368.8135
644.9360, 523.6787
646.0980, 384.3721
647.2590, 412.1865
648.4200, 440.8857
649.5810, 462.7754
650.7410, 452.1836
651.9020, 569.1729
653.0620, 590.6348
654.2220, 586.9170
655.3820, 435.6445
656.5420, 582.7617
657.7020, 503.4004
658.8610, 552.2324
660.0200, 630.3008
661.1800, 491.1094
662.3390, 487.7129
663.4970, 396.5762
664.6560, 427.2129
665.8150, 331.7500
666.9730, 573.9531
668.1310, 444.5508
669.2890, 425.1172
670.4470, 324.8867
671.6050, 316.4004
672.7620, 277.9414
673.9200, 313.5625
675.0770, 318.1562
676.2340, 307.8281
677.3910, 292.6836
678.5470, 191.9805
679.7040, 238.9238
680.8600, 121.8652
682.0160, 113.3379
683.1720, 215.4863
684.3280, 50.87109
685.4840, 158.5527
686.6390, 121.5098
687.7950, 147.1992
688.9500, 90.37109
690.1050, 189.5254
691.2600, 201.5547
692.4150, 49.69531
693.5690, 140.5215
694.7240, 136.2051
695.8780, 103.0078
697.0320, 53.16602
698.1860, 18.75000
699.3400, 77.55859
700.4930, 144.6953
701.6470, 98.20508
702.8000, 115.4219
703.9530, 11.24805
705.1060, 20.99609
706.2590, 2.583984
707.4110, 116.7051
708.5640, 52.18945
709.7160, 58.07227
710.8680, 161.2441
712.0200, 23.46289
713.1720, 157.5254
714.3230, 186.0137
715.4750, 176.5742
716.6260, 82.08008
717.7770, 274.3418
718.9280, 72.69727
720.0790, 133.0430
721.2300, 240.5918
722.3800, 44.59766
723.5300, 67.38281
724.6810, 43.67188
725.8300, 87.11328
726.9800, 97.55664
728.1300, 182.0703
729.2790, 145.5371
730.4290, 78.15430
731.5780, 97.86719
732.7270, 107.6250
733.8760, 180.0098
735.0240, 40.34375
736.1730, 320.8203
737.3210, 125.0547
738.4700, 44.31641
739.6180, 81.41602
740.7650, 65.74219
741.9130, 129.4258
743.0610, 135.9922
744.2080, 95.34961
745.3550, 54.61914
746.5020, 116.8223
747.6490, 7.060547
748.7960, 49.55859
749.9430, 72.97070
751.0890, 95.79492
752.2350, 58.91406
753.3810, 94.17969
754.5270, 126.6680
755.6730, 27.54688
756.8190, 13.75000
757.9640, 266.3516
759.1090, 189.8125
760.2540, 45.69727
761.3990, 113.3770
762.5440, 16.09766
763.6890, 6.003906
764.8330, 5.394531
765.9780, 116.3750
767.1220, 37.43555
768.2660, 163.0352
769.4100, 323.7109
770.5530, 210.8594
771.6970, 27.51367
772.8400, 64.04102
773.9830, 144.6680
775.1260, 79.58984
776.2690, 237.5566
777.4120, 40.79492
778.5540, 159.2305
779.6970, 135.6719
780.8390, 211.7715
781.9810, 212.0723
783.1230, 128.5820
784.2650, 30.88086
785.4060, 34.37695
786.5480, 109.3008
787.6890, 6.392578
788.8300, 66.50000
789.9710, 78.28906
791.1120, 24.65039
792.2520, 3.283203
793.3930, 156.0195
794.5330, 198.7695
795.6730, 211.1113
796.8130, 264.5430
797.9530, 241.0469
799.0930, 260.4199
800.2320, 280.5488
801.3710, 258.5820
802.5110, 177.6348
803.6500, 151.4160
804.7880, 22.48828
805.9270, 26.52344
807.0660, 209.3594
808.2040, 61.85742
809.3420, 142.2441
810.4800, 90.39258
811.6180, 259.6133
812.7560, 105.7812
813.8930, 281.8359
815.0310, 207.7578
816.1680, 206.1855
817.3050, 138.7363
818.4420, 125.2227
819.5790, 94.60156
820.7150, 114.8320
821.8520, 56.25195
822.9880, 89.09570
824.1240, 216.7129
825.2600, 289.3633
826.3960, 226.7109
827.5320, 165.4375
828.6670, 143.1426
829.8020, 145.8926
830.9380, 294.4707
832.0730, 218.7246
833.2080, 142.7676
834.3420, 214.5117
835.4770, 60.68555
836.6110, 265.4160
837.7450, 297.3633
838.8790, 108.0488
840.0130, 358.7422
841.1470, 231.0352
842.2810, 145.0469
843.4140, 168.8066
844.5470, 33.25781
845.6800, 377.3301
846.8130, 253.3848
847.9460, 202.8125
849.0790, 247.8633
850.2110, 107.1406
851.3440, 42.53320
852.4760, 299.6309
853.6080, 412.3359
854.7400, 292.9375
855.8710, 273.4785
857.0030, 205.3262
858.1340, 322.1719
859.2650, 114.3320
860.3960, 210.8027
861.5270, 150.8223
862.6580, 129.4434
863.7890, 386.0801
864.9190, 333.5625
866.0490, 280.3281
867.1790, 172.2773
868.3090, 246.6992
869.4390, 250.6406
870.5690, 241.8867
871.6980, 190.2188
872.8270, 228.8711
873.9570, 199.7676
875.0860, 216.7637
876.2140, 159.6465
877.3430, 290.9844
878.4720, 297.8750
879.6000, 380.5996
880.7280, 353.8848
881.8560, 371.4824
882.9840, 353.0059
884.1120, 181.9590
885.2390, 209.7715
886.3670, 230.6758
887.4940, 376.8691
888.6210, 246.5879
889.7480, 219.7676
890.8750, 32.67188
892.0020, 370.9062
893.1280, 206.9883
894.2540, 221.3066
895.3810, 403.2500
896.5070, 290.4785
897.6320, 229.0039
898.7580, 110.8613
899.8840, 156.5352
901.0090, 150.8516
902.1340, 185.3477
903.2590, 166.9668
904.3840, 3.818359
905.5090, 151.9316
906.6340, 50.83984
907.7580, 65.21484
908.8820, 29.59570
910.0060, 194.3398
911.1300, 79.75000
912.2540, 108.7871
913.3780, 197.7676
914.5010, 159.3867
915.6250, 130.8633
916.7480, 51.61133
917.8710, 262.3086
918.9940, 290.6152
920.1160, 130.1973
921.2390, 192.7793
922.3610, 41.86914
923.4840, 250.7812
924.6060, 66.53516
925.7280, 148.3418
926.8490, 61.55469
927.9710, 339.1289
929.0930, 228.1445
930.2140, 173.2988
931.3350, 22.53711
932.4560, 340.7695
933.5770, 280.9395
934.6980, 283.1523
935.8180, 238.4121
936.9380, 106.5430
938.0590, 349.2910
939.1790, 629.8945
940.2990, 690.5391
941.4180, 755.6816
942.5380, 860.4160
943.6570, 954.4238
944.7770, 1114.809
945.8960, 1421.947
947.0150, 1885.758
948.1340, 2266.893
949.2520, 3033.729
950.3710, 3538.225
951.4890, 4641.684
952.6070, 6231.832
953.7260, 7907.895
954.8430, 10417.80
955.9610, 13199.77
957.0790, 16537.37
958.1960, 20177.16
959.3130, 23799.47
960.4310, 27324.06
961.5480, 29697.88
962.6640, 30259.90
963.7810, 28638.79
964.8970, 26038.68
966.0140, 21940.16
967.1300, 18265.29
968.2460, 14719.41
969.3620, 11819.75
970.4780, 8924.848
971.5930, 7013.100
972.7090, 5317.463
973.8240, 3888.930
974.9390, 3093.469
976.0540, 2193.719
977.1690, 1696.246
978.2830, 1253.977
979.3980, 1120.912
980.5120, 613.3320
981.6260, 510.3555
982.7400, 472.1445
983.8540, 186.1152
984.9680, 341.4785
986.0820, 195.6602
987.1950, 204.7871
988.3080, 131.0449
989.4210, 226.1016
990.5340, 6.060547
991.6470, 51.46094
992.7600, 377.5938
993.8720, 110.7637
994.9850, 175.3184
996.0970, 58.60742
997.2090, 47.78711
998.3210, 86.56445
999.4320, 15.09180
1000.544, 164.9883
1001.655, 82.16602
1002.767, 170.6875
1003.878, 134.2109
1004.989, 23.31250
1006.100, 176.8945
1007.210, 112.2500
1008.321, 85.46875
1009.431, 136.2578
1010.541, 453.6445
1011.651, 52.08203
1012.761, 82.53516
1013.871, 149.0938
1014.980, 53.35938
1016.090, 64.12891
1017.199, 156.5938
1018.308, 133.4570
1019.417, 214.4258
1020.526, 188.4688
1021.635, 217.9141
1022.743, 398.0586
1023.852, 431.1484
1024.960, 184.2812
1026.068, 662.8047
1027.176, 622.9453
1028.283, 897.2188
1029.391, 1107.879
1030.498, 1021.535
1031.606, 895.9922
1032.713, 669.9531
1033.820, 809.0977
1034.927, 856.9297
1036.033, 951.1914
1037.140, 774.0117
1038.246, 602.0742
1039.353, 508.1836
1040.459, 576.2969
1041.564, 663.0391
1042.670, 390.4180
1043.776, 474.6992
1044.881, 294.5000
1045.987, 378.4219
1047.092, 434.7109
1048.197, 557.8438
1049.302, 440.8516
1050.406, 437.5312
1051.511, 789.0898
1052.615, 602.6641
1053.720, 557.6797
1054.824, 861.9531
1055.928, 693.5820
1057.031, 971.1094
1058.135, 1044.875
1059.238, 569.9844
1060.342, 657.7383
1061.445, 542.2969
1062.548, 335.7578
1063.651, 728.9922
1064.754, 241.1094
1065.856, 602.6445
1066.959, 202.1758
1068.061, 350.6992
1069.163, 594.2148
1070.265, 465.1797
1071.367, 311.6953
1072.469, 390.1992
1073.570, 469.7109
1074.671, 462.2344
1075.773, 605.7539
1076.874, 717.2773
1077.975, 687.8008
1079.075, 590.3125
1080.176, 332.8281
1081.276, 549.3438
1082.377, 158.8594
1083.477, 308.3633
1084.577, 293.8711
1085.677, 318.3750
1086.777, 219.8828
1087.876, 360.3906
1088.975, 457.8984
1090.075, 64.40625
1091.174, 20.91797
1092.273, 112.4297
1093.372, 144.0625
1094.470, 90.37109
1095.569, 163.8047
1096.667, 357.2344
1097.765, 150.6719
1098.863, 22.10547
1099.961, 4.457031
1101.059, 237.9727
1102.157, 380.4062
1103.254, 103.8398
1104.351, 193.2734
1105.449, 17.28906
1106.546, 176.1367
1107.642, 42.43750
1108.739, 71.03516
1109.836, 78.33594
1110.932, 323.7148
1112.028, 401.0938
1113.124, 206.4727
1114.220, 444.8555
1115.316, 366.2383
1116.412, 120.6211
1117.507, 206.0039
1118.603, 263.4180
1119.698, 18.83203
1120.793, 147.0898
1121.888, 282.5000
1122.983, 16.20703
1124.077, 291.4805
1125.172, 351.8906
1126.266, 203.1016
1127.360, 81.51953
1128.454, 190.5391
1129.548, 89.48047
1130.642, 211.9336
1131.735, 416.8555
1132.829, 61.25391
1133.922, 296.3672
1135.015, 67.77344
1136.108, 404.1289
1137.201, 188.6602
1138.294, 160.0820
1139.386, 75.38672
1140.478, 338.5898
1141.571, 177.8438
1142.663, 338.5898
1143.755, 158.6992
1144.846, 200.9492
1145.938, 369.4141
1147.030, 89.32031
1148.121, 316.5312
1149.212, 184.0156
1150.303, 186.5078
1151.394, 154.0039
1152.485, 103.5117
1153.575, 43.02344
1154.666, 202.8281
1155.756, 187.6836
1156.846, 288.0781
1157.936, 479.2461
1159.026, 431.3594
1160.116, 592.7188
1161.205, 371.0156
1162.295, 300.0430
1163.384, 572.6094
1164.473, 338.1836
1165.562, 372.7578
1166.651, 169.3906
1167.739, 406.0234
1168.828, 204.7148
1169.916, 462.4219
1171.005, 171.1328
1172.093, 93.87500
1173.181, 503.6211
1174.268, 69.37500
1175.356, 277.1367
1176.443, 325.9062
1177.531, 643.6797
1178.618, 460.4609
1179.705, 312.2422
1180.792, 603.0391
1181.879, 441.8398
1182.965, 110.6445
1184.052, 540.4570
1185.138, 368.2734
1186.224, 387.0938
1187.310, 434.9258
1188.396, 482.7617
1189.482, 211.6055
1190.567, 238.4609
1191.653, 497.3164
1192.738, 753.1797
1193.823, 536.0430
1194.908, 214.9180
1195.993, 383.8164
1197.077, 497.7148
1198.162, 400.6250
1199.246, 674.5352
1200.331, 455.4531
1201.415, 344.3789
1202.499, 453.3125
1203.582, 66.24609
1204.666, 530.1875
1205.750, 571.1328
1206.833, 324.0898
1207.916, 626.0469
1208.999, 350.0117
1210.082, 273.9844
1211.165, 427.9609
1212.248, 308.9453
1213.330, 48.92969
1214.412, 418.9297
1215.495, 689.9297
1216.577, 538.9375
1217.658, 348.9492
1218.740, 315.9727
1219.822, 354.0000
1220.903, 571.0352
1221.985, 247.0742
1223.066, 573.1211
1224.147, 377.6602
1225.228, 653.7227
1226.308, 637.7891
1227.389, 246.8672
1228.469, 664.9492
1229.550, 470.0391
1230.630, 196.8164
1231.710, 790.9219
1232.790, 880.0352
1233.869, 505.1523
1234.949, 548.2891
1236.028, 620.5039
1237.108, 469.6484
1238.187, 641.5820
1239.266, 501.8633
1240.344, 432.0352
1241.423, 417.2109
1242.502, 414.3984
1243.580, 235.5938
1244.658, 128.7969
1245.736, 301.0156
1246.814, 38.23438
1247.892, 463.4688
1248.970, 334.7148
1250.047, 82.96094
1251.125, 331.2227
1252.202, 580.4961
1253.279, 44.94922
1254.356, 524.2617
1255.433, 518.5898
1256.509, 598.9258
1257.586, 649.2734
1258.662, 325.6289
1259.738, 75.35156
1260.814, 276.7656
1261.890, 686.1992
1262.966, 511.6484
1264.042, 370.0977
1265.117, 556.5664
1266.193, 435.0430
1267.268, 532.5469
1268.343, 440.0625
1269.418, 476.5859
1270.492, 822.1172
1271.567, 152.7109
1272.642, 344.3125
1273.716, 148.9336
1274.790, 488.5586
1275.864, 643.1953
1276.938, 391.8633
1278.012, 464.5508
1279.085, 357.2422
1280.159, 512.9531
1281.232, 380.6719
1282.305, 304.4062
1283.378, 18.84766
1284.451, 314.1016
1285.524, 31.50391
1286.597, 86.90625
1287.669, 350.3398
1288.741, 274.9375
1289.813, 162.6562
1290.885, 254.4375
1291.957, 58.66406
1293.029, 90.78906
1294.101, 289.9297
1295.172, 54.08203
1296.243, 34.24609
1297.315, 33.42969
1298.386, 45.73828
1299.456, 127.8398
1300.527, 203.0664
1301.598, 374.3164
1302.668, 387.5742
1303.738, 273.8477
1304.809, 513.1406
1305.879, 525.4531
1306.948, 682.7773
1308.018, 661.1211
1309.088, 693.4883
1310.157, 865.8750
1311.226, 551.2734
1312.296, 509.6992
1313.365, 823.1367
1314.433, 757.5781
1315.502, 514.0273
1316.571, 509.4883
1317.639, 668.9609
1318.707, 741.4414
1319.776, 718.9297
1320.844, 620.4336
1321.911, 727.9414
1322.979, 942.4609
1324.047, 661.9922
1325.114, 506.5312
1326.181, 703.0781
1327.249, 667.6406
1328.316, 770.2109
1329.382, 773.7930
1330.449, 859.3867
1331.516, 634.9883
1332.582, 865.5977
1333.648, 663.2227
1334.715, 629.8594
1335.781, 866.5039
1336.846, 854.1641
1337.912, 707.8242
1338.978, 736.5039
1340.043, 529.1953
1341.108, 720.8906
1342.174, 774.6055
1343.239, 684.3320
1344.303, 488.0664
1345.368, 657.8125
1346.433, 634.5703
1347.497, 572.3398
1348.561, 700.1211
1349.626, 578.9219
1350.690, 606.7227
1351.753, 567.5391
1352.817, 624.4062
1353.881, 573.2891
1354.944, 482.1758
1356.007, 871.0781
1357.071, 854.9922
1358.134, 661.9180
1359.196, 478.8555
1360.259, 504.6133
1361.322, 452.7383
1362.384, 481.7539
1363.447, 581.7461
1364.509, 537.7578
1365.571, 676.7812
1366.633, 699.8359
1367.694, 816.9219
1368.756, 952.0312
1369.817, 516.1523
1370.879, 846.2969
1371.940, 532.4570
1373.001, 288.6367
1374.062, 550.8359
1375.122, 423.0508
1376.183, 479.2812
1377.244, 714.5352
1378.304, 663.8008
1379.364, 597.0898
1380.424, 733.3984
1381.484, 654.8047
1382.544, 620.0742
1383.603, 583.4453
1384.663, 702.8359
1385.722, 569.2422
1386.781, 657.6719
1387.840, 607.1445
1388.899, 647.6406
1389.958, 766.1562
1391.017, 712.6875
1392.075, 863.2500
1393.134, 648.8320
1394.192, 658.4375
1395.250, 440.0703
1396.308, 489.7227
1397.365, 522.4023
1398.423, 373.1055
1399.481, 779.8398
1400.538, 508.6016
1401.595, 393.3867
1402.652, 751.2070
1403.709, 874.0469
1404.766, 779.9219
1405.823, 659.8242
1406.879, 812.7578
1407.936, 913.7227
1408.992, 431.7227
1410.048, 783.7539
1411.104, 613.5430
1412.160, 714.3203
1413.215, 465.6094
1414.271, 799.1602
1415.326, 446.8203
1416.382, 697.2773
1417.437, 847.8477
1418.492, 490.7344
1419.546, 573.1328
1420.601, 634.5352
1421.656, 471.0391
1422.710, 687.5977
1423.764, 406.2070
1424.819, 596.1641
1425.873, 833.8945
1426.926, 575.7734
1427.980, 633.6367
1429.034, 486.5703
1430.087, 378.5742
1431.140, 327.7695
1432.194, 626.8633
1433.247, 423.7188
1434.299, 782.9609
1435.352, 554.0352
1436.405, 471.3867
1437.457, 700.8125
1438.510, 790.3516
1439.562, 703.4102
1440.614, 499.0742
1441.666, 761.7539
1442.717, 318.4609
1443.769, 676.1875
1444.821, 488.9258
1445.872, 461.6953
1446.923, 471.4766
1447.974, 740.2852
1449.025, 550.1133
1450.076, 539.9609
1451.127, 616.8359
1452.177, 437.7227
1453.227, 570.6367
1454.278, 692.5664
1455.328, 516.5273
1456.378, 573.4961
1457.428, 605.5000
1458.477, 762.5156
1459.527, 652.5625
1460.576, 426.6250
1461.625, 759.7109
1462.675, 430.8164
1463.724, 864.9414
1464.772, 518.0898
1465.821, 609.2617
1466.870, 736.4570
1467.918, 813.6641
1468.966, 465.8984
1470.015, 566.1523
1471.063, 496.4219
1472.110, 674.7148
1473.158, 373.0234
1474.206, 773.3516
1475.253, 545.6914
1476.301, 256.0508
1477.348, 474.4336
1478.395, 599.8281
1479.442, 752.2344
1480.488, 668.6602
1481.535, 486.0938
1482.582, 558.5469
1483.628, 400.0078
1484.674, 489.4805
1485.720, 408.9609
1486.766, 594.4492
1487.812, 688.9453
1488.858, 726.5938
1489.903, 26.44141
1490.949, 224.7461
1491.994, 188.4375
1493.039, 427.2539
1494.084, 409.0898
1495.129, 485.9492
1496.173, 577.8320
1497.218, 743.7305
1498.262, 494.6445
1499.307, 139.5703
1500.351, 263.4805
1501.395, 586.3906
1502.439, 348.3008
1503.483, 480.2852
1504.526, 288.3438
1505.570, 387.4727
1506.613, 612.6680
1507.656, 378.9453
1508.699, 408.3008
1509.742, 392.7461
1510.785, 273.2773
1511.827, 508.8906
1512.870, 380.5977
1513.912, 267.3984
1514.955, 462.2930
1515.997, 247.2852
1517.039, 117.3906
1518.080, 337.6055
1519.122, 286.9414
1520.164, 205.3984
1521.205, 489.9844
1522.246, 228.7070
1523.288, 695.5781
1524.329, 281.6055
1525.369, 360.8008
1526.410, 79.16797
1527.451, 237.7266
1528.491, 294.4453
1529.531, 296.3008
1530.572, 319.3164
1531.612, 183.4922
1532.652, 170.8477
1533.691, 229.4062
1534.731, 356.1719
1535.770, 306.1641
1536.810, 201.3945
1537.849, 107.8789
1538.888, 269.6250
1539.927, 198.6445
1540.966, 149.9688
1542.005, 80.60938
1543.043, 40.29688
1544.082, 56.92188
1545.120, 37.36328
1546.158, 146.7617
1547.196, 129.3086
1548.234, 353.3320
1549.272, 7.136719
1550.309, 595.9648
1551.347, 32.67188
1552.384, 177.0508
1553.421, 157.1719
1554.458, 113.1133
1555.495, 53.60547
1556.532, 130.7109
1557.568, 2.707031
1558.605, 129.6250
1559.641, 4.136719
1560.678, 220.1992
1561.714, 142.2891
1562.750, 0.0000000E+00
1563.785, 0.0000000E+00
##END=



