##NAMES=Fluorapatite
##RRUFFID=R050369
##IDEAL CHEMISTRY=Ca_5_(PO_4_)_3_F
##LOCALITY=Russia
##OWNER=RRUFF
##SOURCE=Eugene Schlepp
##DESCRIPTION=Blueish-green hexagonal prismatic crystal
##STATUS=The identification of this mineral has been confirmed by X-ray diffraction and chemical analysis
##URL=rruff.info/R050369
##MEASURED CHEMISTRY=(Ca_0.99_Na_0.01_)_5_((P_0.98_S_0.02_)O_4_)_3_F_1.00_
##PIN_ID=L01431
##ORIENTATION=Laser parallel to -c* (0 0 -1). Fiducial mark perpendicular to laser is parallel to b [0 1 0]
107.0470, 0.0000000E+00
108.2800, 92.00024
109.5120, 99.71509
110.7440, 4.890625
111.9760, 5.054688
113.2080, 6.552002
114.4400, 71.42920
115.6710, 88.35596
116.9030, 32.16333
118.1340, 29.72168
119.3650, 44.92676
120.5960, 70.69238
121.8270, 112.9470
123.0580, 52.63110
124.2880, 76.69897
125.5190, 95.11597
126.7490, 130.8521
127.9790, 143.8777
129.2090, 133.1648
130.4390, 306.6887
131.6680, 335.4268
132.8980, 313.3591
134.1270, 506.4675
135.3560, 635.7366
136.5850, 759.1521
137.8140, 922.7039
139.0430, 1177.389
140.2710, 1300.205
141.5000, 1309.164
142.7280, 1246.259
143.9560, 1012.480
145.1840, 840.8132
146.4120, 642.2451
147.6390, 522.7681
148.8670, 385.3726
150.0940, 378.0510
151.3210, 361.7966
152.5490, 409.6028
153.7750, 489.4644
155.0020, 461.3767
156.2290, 463.3357
157.4550, 601.3379
158.6810, 652.3794
159.9080, 748.4573
161.1340, 691.5686
162.3590, 692.7107
163.5850, 563.8816
164.8110, 625.0803
166.0360, 511.3040
167.2610, 530.5735
168.4860, 491.8979
169.7110, 460.3225
170.9360, 487.8203
172.1610, 382.3740
173.3850, 472.0691
174.6100, 372.0251
175.8340, 348.0508
177.0580, 241.1069
178.2820, 217.1562
179.5050, 214.2014
180.7290, 105.2468
181.9520, 142.2754
183.1760, 139.2773
184.3990, 103.2629
185.6220, 66.27393
186.8450, 131.2783
188.0670, 124.2725
189.2900, 58.25464
190.5120, 33.22583
191.7340, 91.18555
192.9560, 36.13550
194.1780, 78.07642
195.4000, 90.00903
196.6220, 108.9338
197.8430, 44.85205
199.0640, 61.76343
200.2860, 98.66870
201.5070, 76.56763
202.7270, 143.4609
203.9480, 39.34839
205.1690, 90.22998
206.3890, 170.1057
207.6090, 123.9758
208.8290, 159.8403
210.0490, 150.6987
211.2690, 195.5513
212.4890, 172.3979
213.7080, 181.2383
214.9280, 233.0720
216.1470, 229.8997
217.3660, 169.7197
218.5850, 103.5332
219.8030, 156.3806
221.0220, 210.1787
222.2400, 162.0588
223.4590, 131.8442
224.6770, 148.6248
225.8950, 182.2598
227.1120, 204.4412
228.3300, 141.5291
229.5480, 243.5430
230.7650, 221.7366
231.9820, 329.3457
233.1990, 350.5366
234.4160, 335.4980
235.6330, 410.6553
236.8490, 395.0518
238.0660, 445.9880
239.2820, 457.8098
240.4980, 334.0647
241.7140, 319.5249
242.9300, 283.0354
244.1460, 247.7700
245.3610, 201.5762
246.5770, 191.5764
247.7920, 132.3457
249.0070, 139.8384
250.2220, 127.0959
251.4370, 157.1362
252.6510, 158.3755
253.8660, 188.1560
255.0800, 222.7700
256.2940, 270.1509
257.5080, 285.5911
258.7220, 400.6875
259.9360, 464.2583
261.1490, 549.2153
262.3630, 521.9683
263.5760, 648.7163
264.7890, 710.6370
266.0020, 858.3760
267.2150, 898.1399
268.4270, 992.7715
269.6400, 898.3103
270.8520, 886.0518
272.0640, 755.6235
273.2760, 765.2090
274.4880, 594.8069
275.7000, 549.4150
276.9120, 446.0339
278.1230, 406.6614
279.3340, 295.2954
280.5450, 313.9351
281.7560, 284.5796
282.9670, 308.2280
284.1780, 256.8794
285.3880, 180.5334
286.5980, 222.1895
287.8090, 200.8464
289.0190, 210.5037
290.2290, 207.1606
291.4380, 207.8164
292.6480, 157.4709
293.8570, 181.1233
295.0670, 185.7100
296.2760, 193.2830
297.4850, 228.0632
298.6930, 257.7031
299.9020, 276.3391
301.1110, 346.9705
302.3190, 392.5972
303.5270, 446.2188
304.7350, 493.5930
305.9430, 474.4460
307.1510, 568.0513
308.3580, 571.6506
309.5660, 584.2437
310.7730, 524.8301
311.9800, 606.4099
313.1870, 553.9829
314.3940, 558.5483
315.6010, 420.1062
316.8070, 352.6555
318.0130, 461.1965
319.2200, 327.7278
320.4260, 292.2485
321.6310, 270.7583
322.8370, 262.2568
324.0430, 262.7441
325.2480, 230.2200
326.4540, 198.6843
327.6590, 216.1372
328.8640, 128.5789
330.0680, 53.00879
331.2730, 156.4272
332.4780, 119.8335
333.6820, 92.26758
334.8860, 91.83765
336.0900, 49.28857
337.2940, 134.7041
338.4980, 91.20972
339.7010, 101.8770
340.9050, 73.19995
342.1080, 46.51074
343.3110, 8.191162
344.5140, 11.09229
345.7170, 51.36206
346.9200, 28.89087
348.1220, 53.17114
349.3240, 23.30371
350.5270, 0.5271000
351.7290, 28.92773
352.9310, 46.67969
354.1320, 30.06836
355.3340, 5.128418
356.5350, 27.51904
357.7370, 29.97754
358.9380, 29.78516
360.1390, 76.34424
361.3400, 9.942871
362.5400, 61.86621
363.7410, 23.55811
364.9410, 14.85400
366.1410, 113.6211
367.3410, 40.00586
368.5410, 31.61182
369.7410, 97.23584
370.9400, 23.83447
372.1400, 66.47607
373.3390, 8.207031
374.5380, 23.78906
375.7370, 1.837891
376.9360, 56.10059
378.1350, 43.54443
379.3330, 30.86328
380.5310, 54.01465
381.7300, 105.9595
382.9280, 12.00635
384.1260, 114.1909
385.3230, 63.10693
386.5210, 104.9917
387.7180, 36.07568
388.9160, 99.83105
390.1130, 147.6338
391.3100, 28.77539
392.5060, 98.46387
393.7030, 14.24561
394.9000, 47.47754
396.0960, 18.59131
397.2920, 26.42041
398.4880, 36.13232
399.6840, 35.93848
400.8800, 46.74609
402.0750, 64.26709
403.2710, 59.86768
404.4660, 12.93457
405.6610, 17.82275
406.8560, 54.81689
408.0510, 27.13037
409.2450, 71.85742
410.4400, 72.05811
411.6340, 109.7397
412.8280, 154.5317
414.0220, 93.75977
415.2160, 192.3369
416.4100, 155.5498
417.6030, 207.8359
418.7970, 160.0371
419.9900, 223.4492
421.1830, 332.6250
422.3760, 201.6650
423.5690, 272.6094
424.7610, 227.5356
425.9540, 329.4448
427.1460, 381.3354
428.3380, 463.2075
429.5300, 517.0625
430.7220, 664.8979
431.9140, 722.7163
433.1050, 827.5220
434.2970, 907.6709
435.4880, 918.0791
436.6790, 1053.830
437.8700, 1147.562
439.0610, 1234.275
440.2510, 1400.971
441.4420, 1554.647
442.6320, 1685.305
443.8220, 1833.943
445.0120, 1972.563
446.2020, 2092.167
447.3910, 2067.752
448.5810, 1911.319
449.7700, 1960.867
450.9600, 1779.395
452.1490, 1727.904
453.3370, 1518.394
454.5260, 1379.862
455.7150, 1193.312
456.9030, 1061.741
458.0910, 869.1523
459.2800, 780.4980
460.4670, 727.9170
461.6550, 595.2686
462.8430, 542.5991
464.0300, 430.9082
465.2180, 371.1982
466.4050, 366.4678
467.5920, 384.7153
468.7790, 266.9453
469.9650, 279.1543
471.1520, 281.3428
472.3380, 241.5122
473.5250, 219.1528
474.7110, 187.7598
475.8970, 156.8696
477.0820, 121.9590
478.2680, 148.0249
479.4540, 154.0000
480.6390, 130.0312
481.8240, 89.04004
483.0090, 216.0249
484.1940, 171.9888
485.3780, 228.8296
486.5630, 224.1514
487.7470, 228.7969
488.9320, 105.8213
490.1160, 162.6533
491.3000, 101.5063
492.4830, 35.74414
493.6670, 88.19775
494.8500, 67.00293
496.0340, 116.6147
497.2170, 31.13232
498.4000, 57.25537
499.5820, 77.98193
500.7650, 24.72754
501.9480, 57.20508
503.1300, 46.97070
504.3120, 20.67236
505.4940, 46.83057
506.6760, 50.25000
507.8580, 58.85889
509.0390, 77.54883
510.2210, 74.71582
511.4020, 68.56787
512.5830, 35.73193
513.7640, 38.57129
514.9450, 6.549805
516.1250, 33.58838
517.3060, 3.383301
518.4860, 23.57520
519.6660, 20.98486
520.8460, 12.31494
522.0260, 44.81445
523.2060, 86.97803
524.3850, 59.01074
525.5650, 20.57861
526.7440, 64.58984
527.9230, 65.36328
529.1020, 21.44336
530.2810, 84.04883
531.4590, 68.95117
532.6380, 7.857910
533.8160, 88.48193
534.9940, 62.24951
536.1720, 15.20410
537.3500, 4.761230
538.5270, 38.20166
539.7050, 19.62402
540.8820, 88.47803
542.0590, 32.12451
543.2360, 98.42188
544.4130, 75.81836
545.5900, 46.66602
546.7660, 2.006348
547.9430, 48.32178
549.1190, 111.7241
550.2950, 28.85645
551.4710, 140.2578
552.6470, 24.61475
553.8220, 9.483398
554.9980, 122.1934
556.1730, 34.44482
557.3480, 118.8359
558.5230, 97.18262
559.6980, 113.5049
560.8730, 59.22119
562.0470, 111.8257
563.2220, 140.3149
564.3960, 162.0083
565.5700, 203.1831
566.7440, 237.3359
567.9170, 244.0933
569.0910, 329.3037
570.2640, 386.9243
571.4380, 457.9966
572.6110, 614.3745
573.7840, 759.8818
574.9570, 977.3979
576.1290, 1216.518
577.3020, 1569.914
578.4740, 2013.926
579.6460, 2494.301
580.8180, 3088.548
581.9900, 3066.708
583.1620, 2809.973
584.3330, 2325.963
585.5040, 1516.313
586.6760, 1145.847
587.8470, 963.1318
589.0180, 850.3853
590.1880, 820.4717
591.3590, 734.3633
592.5290, 832.6152
593.7000, 650.3179
594.8700, 652.0664
596.0400, 510.1172
597.2090, 463.0239
598.3790, 493.1406
599.5490, 716.2959
600.7180, 709.8555
601.8870, 896.5723
603.0560, 1055.173
604.2250, 1212.759
605.3940, 1530.666
606.5620, 1909.104
607.7300, 2057.521
608.8990, 1970.851
610.0670, 1542.218
611.2350, 1430.901
612.4020, 1163.886
613.5700, 856.4360
614.7370, 861.4424
615.9050, 986.9116
617.0720, 970.4199
618.2390, 796.5659
619.4060, 697.8467
620.5720, 518.1348
621.7390, 447.3345
622.9050, 215.1880
624.0710, 215.7280
625.2370, 165.7954
626.4030, 221.7466
627.5690, 229.2817
628.7340, 109.6514
629.9000, 126.7993
631.0650, 140.0815
632.2300, 183.1465
633.3950, 217.7417
634.5600, 207.3281
635.7240, 254.0542
636.8890, 190.7515
638.0530, 264.1953
639.2170, 194.1270
640.3810, 91.91846
641.5450, 148.3638
642.7080, 6.787598
643.8720, 148.3770
645.0350, 149.5566
646.1980, 103.8281
647.3610, 141.2202
648.5240, 101.5737
649.6870, 204.1128
650.8490, 257.2231
652.0120, 192.6289
653.1740, 133.7998
654.3360, 44.54883
655.4980, 226.8633
656.6600, 164.7734
657.8210, 140.8447
658.9830, 191.3120
660.1440, 129.1973
661.3050, 79.98730
662.4660, 88.11377
663.6270, 221.3540
664.7870, 191.4116
665.9480, 218.9429
667.1080, 230.9102
668.2680, 128.1841
669.4280, 169.2461
670.5880, 152.6611
671.7480, 167.8628
672.9070, 134.6445
674.0670, 163.8354
675.2260, 114.9736
676.3850, 47.61035
677.5440, 128.2026
678.7030, 141.2358
679.8610, 42.11475
681.0200, 85.36035
682.1780, 4.004883
683.3360, 162.1924
684.4940, 123.2109
685.6520, 9.649902
686.8090, 127.1660
687.9670, 112.7231
689.1240, 144.2012
690.2810, 123.5679
691.4380, 128.8750
692.5950, 37.30859
693.7520, 95.74658
694.9080, 155.7524
696.0650, 4.868652
697.2210, 215.0068
698.3770, 216.6650
699.5330, 66.85449
700.6880, 91.36084
701.8440, 125.2803
702.9990, 70.68604
704.1550, 152.4326
705.3100, 103.9819
706.4650, 162.0151
707.6190, 165.0830
708.7740, 131.0430
709.9290, 132.3740
711.0830, 115.6572
712.2370, 5.787109
713.3910, 71.42676
714.5450, 160.8340
715.6980, 89.23145
716.8520, 201.5757
718.0050, 82.97412
719.1580, 108.3013
720.3110, 123.4902
721.4640, 92.49951
722.6170, 152.4756
723.7700, 60.63232
724.9220, 24.55908
726.0740, 64.45410
727.2260, 66.31836
728.3780, 100.1509
729.5300, 140.9575
730.6810, 48.72803
731.8330, 186.4692
732.9840, 157.5898
734.1350, 79.31836
735.2860, 108.0093
736.4370, 51.63574
737.5880, 37.22900
738.7380, 177.2354
739.8880, 129.8794
741.0390, 151.3848
742.1890, 149.3271
743.3380, 66.91113
744.4880, 205.4863
745.6380, 171.8760
746.7870, 3.770508
747.9360, 198.1279
749.0850, 90.45605
750.2340, 24.90332
751.3830, 110.1387
752.5310, 16.62500
753.6800, 124.8965
754.8280, 100.5732
755.9760, 146.1572
757.1240, 133.4854
758.2720, 16.06641
759.4190, 121.9932
760.5670, 157.0908
761.7140, 66.30176
762.8610, 181.2246
764.0080, 13.32812
765.1550, 61.71582
766.3020, 98.54492
767.4480, 80.29980
768.5950, 100.2422
769.7410, 90.13672
770.8870, 122.0264
772.0330, 7.943359
773.1780, 69.04199
774.3240, 23.73340
775.4690, 127.5635
776.6140, 48.21680
777.7590, 98.87695
778.9040, 97.40234
780.0490, 51.31250
781.1940, 23.26660
782.3380, 103.0166
783.4820, 154.2959
784.6260, 84.40723
785.7700, 138.6299
786.9140, 105.7871
788.0580, 38.95215
789.2010, 12.25293
790.3450, 8.129883
791.4880, 19.58496
792.6310, 46.91992
793.7730, 45.09277
794.9160, 14.87500
796.0590, 64.00586
797.2010, 167.9766
798.3430, 8.770508
799.4850, 137.3311
800.6270, 144.8984
801.7690, 153.7598
802.9100, 19.59473
804.0520, 8.397461
805.1930, 88.16699
806.3340, 79.75000
807.4750, 59.46387
808.6160, 88.09082
809.7560, 96.74512
810.8970, 96.24219
812.0370, 75.83398
813.1770, 76.92090
814.3170, 104.2510
815.4570, 55.62207
816.5960, 57.01855
817.7360, 40.93164
818.8750, 3.078125
820.0140, 45.52148
821.1530, 58.88184
822.2920, 75.04980
823.4310, 5.320313
824.5690, 123.8262
825.7070, 40.11230
826.8460, 136.0088
827.9840, 27.01953
829.1220, 98.02051
830.2590, 58.61328
831.3970, 46.42383
832.5340, 101.4590
833.6710, 57.19727
834.8080, 80.50879
835.9450, 10.50488
837.0820, 17.93066
838.2190, 85.31445
839.3550, 161.3418
840.4910, 82.74512
841.6270, 122.4668
842.7630, 17.98047
843.8990, 104.7080
845.0350, 46.57910
846.1700, 144.9189
847.3060, 165.4023
848.4410, 75.79199
849.5760, 160.0029
850.7100, 92.15723
851.8450, 86.98828
852.9800, 91.83789
854.1140, 71.35059
855.2480, 80.45117
856.3820, 105.6328
857.5160, 140.8525
858.6500, 159.4307
859.7830, 92.50293
860.9170, 212.2158
862.0500, 169.3711
863.1830, 182.2295
864.3160, 248.0732
865.4480, 168.0361
866.5810, 198.1484
867.7130, 171.8525
868.8460, 39.05957
869.9780, 125.1719
871.1100, 125.9346
872.2410, 155.7959
873.3730, 215.4004
874.5050, 25.91797
875.6360, 104.9854
876.7670, 137.8477
877.8980, 20.78027
879.0290, 96.67969
880.1590, 90.21094
881.2900, 129.1641
882.4200, 11.09277
883.5500, 118.0625
884.6800, 117.9473
885.8100, 81.47070
886.9400, 151.6465
888.0690, 55.21094
889.1990, 50.72754
890.3280, 7.809570
891.4570, 12.21973
892.5860, 60.79785
893.7140, 24.29980
894.8430, 103.7744
895.9710, 87.18848
897.1000, 52.73145
898.2280, 118.8721
899.3560, 86.55859
900.4830, 4.058594
901.6110, 19.95410
902.7380, 63.14648
903.8660, 9.846680
904.9930, 40.78906
906.1200, 7.829102
907.2460, 21.23242
908.3730, 19.17090
909.5000, 81.33203
910.6260, 38.79883
911.7520, 73.81152
912.8780, 63.47266
914.0040, 12.33105
915.1290, 0.1669920
916.2550, 48.78906
917.3800, 125.0000
918.5050, 112.8145
919.6300, 78.83105
920.7550, 105.5420
921.8800, 58.06543
923.0040, 141.2393
924.1290, 2.612305
925.2530, 27.18945
926.3770, 27.14941
927.5010, 76.47461
928.6250, 47.93945
929.7480, 183.3799
930.8720, 106.9707
931.9950, 135.4697
933.1180, 213.3936
934.2410, 204.3047
935.3640, 205.0791
936.4860, 208.8750
937.6090, 341.7246
938.7310, 241.8662
939.8530, 378.7510
940.9750, 506.2949
942.0970, 470.7930
943.2180, 548.1963
944.3400, 657.7100
945.4610, 854.2490
946.5820, 1017.776
947.7030, 1209.210
948.8240, 1281.638
949.9450, 1720.175
951.0650, 1902.498
952.1860, 2351.819
953.3060, 2949.064
954.4260, 3726.647
955.5460, 5067.903
956.6650, 7044.207
957.7850, 9819.571
958.9040, 13456.62
960.0230, 17993.18
961.1420, 24064.04
962.2610, 31320.63
963.3800, 40015.72
964.4990, 46741.14
965.6170, 48592.39
966.7350, 42866.59
967.8530, 32931.01
968.9710, 23208.24
970.0890, 15507.75
971.2070, 10440.80
972.3240, 7026.041
973.4410, 4971.246
974.5580, 3498.857
975.6750, 2605.882
976.7920, 1835.303
977.9090, 1395.256
979.0250, 956.6465
980.1410, 732.0957
981.2580, 690.4297
982.3740, 614.9912
983.4890, 398.2461
984.6050, 473.8018
985.7200, 467.1279
986.8360, 355.4287
987.9510, 418.7490
989.0660, 145.9795
990.1810, 316.2461
991.2950, 127.6172
992.4100, 131.1357
993.5240, 30.34863
994.6390, 21.41211
995.7530, 14.16406
996.8660, 24.91504
997.9800, 71.39160
999.0940, 141.8643
1000.207, 213.3340
1001.320, 309.7998
1002.433, 388.2607
1003.546, 410.3125
1004.659, 556.7227
1005.772, 628.1367
1006.884, 687.5820
1007.996, 883.0264
1009.108, 1078.024
1010.220, 1051.353
1011.332, 1086.668
1012.444, 1091.758
1013.555, 926.0566
1014.666, 796.3281
1015.777, 655.7559
1016.888, 624.6484
1017.999, 446.0430
1019.110, 297.4355
1020.220, 344.6797
1021.331, 393.1025
1022.441, 431.2412
1023.551, 467.5645
1024.661, 522.4492
1025.770, 577.3975
1026.880, 617.5723
1027.989, 788.5967
1029.098, 938.9824
1030.207, 1340.305
1031.316, 1328.481
1032.425, 1713.917
1033.533, 1729.143
1034.642, 1700.052
1035.750, 1509.490
1036.858, 1353.737
1037.966, 1207.840
1039.073, 724.0146
1040.181, 586.2754
1041.288, 510.3682
1042.396, 380.4863
1043.503, 362.1699
1044.610, 312.2275
1045.716, 367.6758
1046.823, 482.1055
1047.929, 553.3271
1049.036, 321.3936
1050.142, 453.8379
1051.248, 511.4941
1052.353, 431.1533
1053.459, 784.7637
1054.564, 621.4268
1055.670, 852.9648
1056.775, 912.6328
1057.880, 1121.821
1058.985, 1476.105
1060.089, 1537.767
1061.194, 1494.481
1062.298, 1265.086
1063.402, 931.8135
1064.506, 801.5527
1065.610, 555.2949
1066.713, 440.0391
1067.817, 545.7910
1068.920, 347.5459
1070.023, 372.8359
1071.126, 227.5957
1072.229, 324.3604
1073.332, 401.1309
1074.435, 413.9062
1075.537, 416.6855
1076.639, 572.4678
1077.741, 752.2539
1078.843, 764.0449
1079.945, 715.8379
1081.046, 738.5156
1082.148, 692.4385
1083.249, 597.2441
1084.350, 426.0547
1085.451, 274.8701
1086.551, 271.6914
1087.652, 235.5195
1088.752, 268.3525
1089.853, 214.1904
1090.953, 261.0332
1092.053, 51.88574
1093.152, 83.74219
1094.252, 74.61719
1095.351, 180.4971
1096.451, 2.382813
1097.550, 82.27246
1098.649, 30.16602
1099.748, 40.06543
1100.846, 24.96973
1101.945, 9.121094
1103.043, 73.20898
1104.141, 127.6816
1105.239, 9.416016
1106.337, 80.51758
1107.434, 24.54590
1108.532, 100.6113
1109.629, 87.28320
1110.726, 123.1855
1111.823, 69.09082
1112.920, 25.98047
1114.017, 28.94434
1115.113, 160.8711
1116.210, 163.8047
1117.306, 199.4502
1118.402, 114.6826
1119.498, 219.6289
1120.593, 181.5801
1121.689, 225.5371
1122.784, 267.8887
1123.879, 85.90137
1124.974, 290.8730
1126.069, 280.5615
1127.164, 184.7148
1128.259, 73.19922
1129.353, 82.18652
1130.447, 72.17773
1131.541, 38.17383
1132.635, 124.1748
1133.729, 40.17871
1134.822, 14.18848
1135.916, 210.2041
1137.009, 240.2275
1138.102, 200.2559
1139.195, 244.2783
1140.288, 6.325195
1141.380, 159.3682
1142.473, 107.4160
1143.565, 34.25488
1144.657, 184.3145
1145.749, 147.3789
1146.841, 130.4482
1147.932, 121.5225
1149.024, 57.60352
1150.115, 78.68945
1151.206, 119.9678
1152.297, 147.0635
1153.388, 103.1631
1154.479, 227.2686
1155.569, 89.39648
1156.659, 294.5459
1157.750, 401.6914
1158.839, 154.8418
1159.929, 235.8369
1161.019, 163.9990
1162.108, 175.1660
1163.198, 256.3379
1164.287, 87.51465
1165.376, 84.72363
1166.465, 327.9375
1167.553, 136.1650
1168.642, 194.3984
1169.730, 190.6416
1170.818, 231.9043
1171.906, 212.1768
1172.994, 270.1377
1174.082, 196.6299
1175.170, 105.5137
1176.257, 251.7402
1177.344, 259.7148
1178.431, 281.0166
1179.518, 235.3516
1180.605, 263.0166
1181.691, 201.1416
1182.778, 243.4590
1183.864, 187.7764
1184.950, 142.0977
1186.036, 316.4199
1187.122, 150.7451
1188.207, 206.0732
1189.292, 24.59473
1190.378, 5.723633
1191.463, 204.0430
1192.548, 92.36328
1193.632, 186.6875
1194.717, 196.0117
1195.801, 239.3379
1196.886, 320.6660
1197.970, 102.9961
1199.054, 218.3301
1200.137, 98.33594
1201.221, 152.9434
1202.305, 250.2246
1203.388, 189.5059
1204.471, 254.7910
1205.554, 71.08398
1206.637, 123.3203
1207.719, 265.6797
1208.802, 122.9805
1209.884, 160.2832
1210.966, 160.5859
1212.048, 248.8926
1213.130, 81.20117
1214.212, 441.5098
1215.293, 236.8184
1216.374, 136.1309
1217.456, 242.4453
1218.536, 52.75977
1219.617, 188.0762
1220.698, 73.39453
1221.778, 125.7129
1222.859, 307.0352
1223.939, 117.3574
1225.019, 323.6797
1226.099, 185.0059
1227.178, 209.3301
1228.258, 191.6562
1229.337, 235.9844
1230.417, 354.3164
1231.496, 154.6445
1232.574, 358.7949
1233.653, 63.90039
1234.732, 202.2363
1235.810, 307.3789
1236.888, 42.71680
1237.966, 356.3398
1239.044, 157.7324
1240.122, 158.0723
1241.199, 299.4141
1242.277, 155.7559
1243.354, 202.3164
1244.431, 103.6641
1245.508, 205.0117
1246.585, 16.35938
1247.661, 202.7070
1248.738, 110.0586
1249.814, 256.4121
1250.890, 162.7637
1251.966, 166.1172
1253.042, 0.4746090
1254.117, 289.8281
1255.193, 160.1777
1256.268, 138.5371
1257.343, 158.9043
1258.418, 78.27148
1259.493, 94.48047
1260.567, 108.5840
1261.642, 106.3848
1262.716, 158.7578
1263.790, 228.1328
1264.864, 243.0605
1265.938, 243.5840
1267.011, 198.9609
1268.085, 208.3379
1269.158, 136.7168
1270.231, 126.0957
1271.304, 76.47656
1272.377, 4.138672
1273.450, 66.23633
1274.522, 166.6113
1275.594, 175.9863
1276.666, 314.3672
1277.738, 180.7441
1278.810, 87.12305
1279.882, 8.505859
1280.953, 195.8848
1282.025, 137.2656
1283.096, 134.6445
1284.167, 79.02734
1285.238, 17.18164
1286.308, 241.5645
1287.379, 158.9492
1288.449, 35.66406
1289.519, 203.6953
1290.589, 194.0566
1291.659, 310.4180
1292.729, 193.7812
1293.798, 225.1445
1294.868, 109.5098
1295.937, 126.8770
1297.006, 174.2422
1298.075, 37.61133
1299.143, 103.9805
1300.212, 149.3477
1301.280, 48.28125
1302.348, 247.4492
1303.416, 1.753906
1304.484, 20.04688
1305.552, 47.86719
1306.620, 44.28125
1307.687, 53.54883
1308.754, 135.4141
1309.821, 44.64453
1310.888, 92.70312
1311.955, 113.7656
1313.021, 109.8320
1314.088, 183.9004
1315.154, 230.9707
1316.220, 217.8906
1317.286, 145.1152
1318.352, 233.3770
1319.417, 198.2734
1320.483, 276.3496
1321.548, 286.4258
1322.613, 177.5059
1323.678, 394.5840
1324.743, 247.6641
1325.807, 148.7422
1326.872, 240.8203
1327.936, 78.90234
1329.000, 266.4492
1330.064, 66.52734
1331.128, 235.6074
1332.191, 281.6855
1333.255, 171.4336
1334.318, 183.5156
1335.381, 147.0195
1336.444, 96.49219
1337.507, 131.1348
1338.569, 74.26953
1339.632, 132.3496
1340.694, 232.4336
1341.756, 146.5176
1342.818, 184.6035
1343.880, 165.6895
1344.941, 170.7734
1346.003, 196.8574
1347.064, 191.4258
1348.125, 202.0723
1349.186, 219.1211
1350.247, 163.2090
1351.308, 192.2949
1352.368, 74.38477
1353.428, 111.9238
1354.489, 246.5645
1355.549, 156.6543
1356.608, 165.7461
1357.668, 229.8379
1358.727, 226.9258
1359.787, 223.0117
1360.846, 223.1016
1361.905, 234.2070
1362.964, 284.3105
1364.022, 101.4180
1365.081, 167.5293
1366.139, 41.64062
1367.197, 288.7754
1368.255, 90.90430
1369.313, 144.0332
1370.371, 150.1641
1371.428, 54.29883
1372.486, 190.4336
1373.543, 237.5723
1374.600, 328.7090
1375.657, 115.8477
1376.713, 124.9844
1377.770, 154.1191
1378.826, 68.26172
1379.882, 119.6133
1380.938, 7.111328
1381.994, 123.2578
1383.050, 173.4102
1384.106, 108.5645
1385.161, 247.7227
1386.216, 275.8828
1387.271, 90.04883
1388.326, 102.2168
1389.381, 216.3867
1390.435, 141.5625
1391.490, 49.74023
1392.544, 10.09375
1393.598, 66.06836
1394.652, 150.2324
1395.705, 94.40234
1396.759, 82.57617
1397.812, 89.00000
1398.866, 27.93164
1399.919, 95.33008
1400.972, 38.51953
1402.024, 122.7148
1403.077, 109.9141
1404.129, 60.11914
1405.181, 294.3281
1406.233, 84.54297
1407.285, 149.5762
1408.337, 101.8027
1409.389, 251.0371
1410.440, 114.2793
1411.491, 13.47266
1412.542, 254.7676
1413.593, 268.0273
1414.644, 176.2949
1415.695, 15.73633
1416.745, 155.0195
1417.795, 171.3145
1418.845, 170.6211
1419.895, 133.9336
1420.945, 246.2598
1421.995, 166.3086
1423.044, 203.7168
1424.093, 99.31055
1425.142, 202.6875
1426.191, 219.0762
1427.240, 189.4844
1428.289, 11.77344
1429.337, 171.4551
1430.385, 228.3184
1431.433, 60.86523
1432.481, 339.6855
1433.529, 166.2129
1434.577, 167.7285
1435.624, 137.1348
1436.672, 110.7344
1437.719, 239.9648
1438.766, 166.6289
1439.812, 59.32617
1440.859, 215.0625
1441.905, 187.5684
1442.952, 185.0801
1443.998, 225.5293
1445.044, 259.9492
1446.090, 240.5762
1447.135, 246.0137
1448.181, 216.0391
1449.226, 208.4551
1450.271, 207.6914
1451.316, 195.9258
1452.361, 189.1934
1453.405, 100.4941
1454.450, 109.7871
1455.494, 157.0742
1456.538, 305.3613
1457.582, 134.6523
1458.626, 46.05273
1459.670, 95.24414
1460.713, 20.45703
1461.757, 98.84375
1462.800, 314.1504
1463.843, 46.45898
1464.886, 122.7715
1465.928, 132.0859
1466.971, 286.4043
1468.013, 124.7246
1469.055, 90.05273
1470.097, 128.3789
1471.139, 114.7109
1472.181, 182.0469
1473.222, 211.3848
1474.263, 93.72461
1475.305, 156.0703
1476.346, 105.4160
1477.386, 379.7676
1478.427, 233.1250
1479.468, 3.488281
1480.508, 226.8555
1481.548, 407.2266
1482.588, 142.5977
1483.628, 184.0098
1484.668, 234.3750
1485.707, 246.7441
1486.747, 234.1191
1487.786, 262.5078
1488.825, 310.8789
1489.864, 164.2930
1490.902, 375.6914
1491.941, 329.0938
1492.979, 220.3086
1494.017, 98.70117
1495.055, 23.11328
1496.093, 24.54688
1497.131, 291.9805
1498.168, 168.4160
1499.206, 180.8516
1500.243, 296.2871
1501.280, 27.90234
1502.317, 245.6211
1503.354, 169.4141
1504.390, 238.2070
1505.426, 157.1777
1506.463, 310.1465
1507.499, 231.1211
1508.535, 7.101563
1509.570, 87.09375
1510.606, 332.1016
1511.641, 172.1250
1512.676, 259.1680
1513.711, 169.2344
1514.746, 43.32812
1515.781, 97.44336
1516.816, 282.9375
1517.850, 156.0957
1518.884, 218.2109
1519.918, 121.3516
1520.952, 161.5215
1521.986, 326.7207
1523.019, 100.9551
1524.053, 196.2227
1525.086, 248.5176
1526.119, 163.8555
1527.152, 155.2305
1528.185, 205.6484
1529.217, 329.1348
1530.250, 118.6719
1531.282, 211.2578
1532.314, 148.8984
1533.346, 78.61328
1534.377, 280.4121
1535.409, 163.2773
1536.440, 114.2148
1537.472, 245.2480
1538.503, 185.3672
1539.534, 190.5586
1540.564, 121.8145
1541.595, 157.3535
1542.625, 235.5469
1543.656, 224.0391
1544.686, 174.6172
1545.716, 199.4648
1546.745, 209.4531
1547.775, 189.5801
1548.804, 215.0625
1549.834, 215.3887
1550.863, 192.8770
1551.892, 235.6621
1552.920, 130.6465
1553.949, 132.8477
1554.977, 119.2910
1556.006, 231.9902
1557.034, 56.02930
1558.062, 288.2793
1559.089, 446.9512
1560.117, 239.0195
1561.144, 9.527344
1562.172, 286.5371
1563.199, 233.1191
1564.226, 244.3652
1565.252, 413.5391
1566.279, 161.6641
1567.305, 313.2676
1568.332, 75.44727
1569.358, 164.9688
1570.384, 38.80469
1571.409, 189.3105
1572.435, 0.0000000E+00
##END=



