##NAMES=Fluorapatite
##RRUFFID=R060333
##IDEAL CHEMISTRY=Ca_5_(PO_4_)_3_F
##LOCALITY=Lovozero Massif, Kola Peninsula, U.S.S.R.
##OWNER=RRUFF
##SOURCE=Michael Scott
##DESCRIPTION=Colorless fragment associated with red villiaumite
##STATUS=The identification of this mineral has been confirmed by X-ray diffraction and chemical analysis
##URL=rruff.info/R060333
##MEASURED CHEMISTRY=(Ca_4.29_Sr_0.47_Na_0.12_Ce_0.07_La_0.06_)_Σ=5_((P_0.99_Si_0.01_)_Σ=1_O_4_)_3_F_1.00_
##PIN_ID=L01212
##ORIENTATION=Laser parallel to a* (1 0 0). Fiducial mark perpendicular to laser is parallel to -c [0 0 -1]
164.2210, 0.0000000E+00
165.4520, 86.20923
166.6830, 94.55762
167.9140, 52.13208
169.1450, 77.84668
170.3760, 80.57300
171.6060, 108.6802
172.8360, 74.70166
174.0660, 95.52441
175.2960, 91.56616
176.5260, 138.4570
177.7550, 107.1621
178.9840, 122.5110
180.2130, 51.97095
181.4420, 106.5659
182.6710, 134.5039
183.9000, 101.7151
185.1280, 12.81177
186.3560, 53.96094
187.5840, 27.08179
188.8120, 16.54102
190.0400, 91.29175
191.2670, 24.72852
192.4950, 44.42456
193.7220, 173.7061
194.9490, 206.0757
196.1750, 169.4937
197.4020, 218.9275
198.6280, 323.3516
199.8540, 400.7434
201.0800, 431.0872
202.3060, 472.3730
203.5320, 489.6865
204.7570, 599.2856
205.9830, 534.1218
207.2080, 567.3726
208.4330, 515.2239
209.6570, 602.3784
210.8820, 403.9321
212.1060, 522.4712
213.3310, 400.1494
214.5550, 369.7188
215.7780, 387.1899
217.0020, 429.5029
218.2260, 392.6548
219.4490, 378.6509
220.6720, 380.5237
221.8950, 412.2388
223.1180, 404.4863
224.3400, 395.6748
225.5630, 421.4128
226.7850, 375.4194
228.0070, 384.2363
229.2290, 412.8708
230.4500, 408.3289
231.6720, 382.6160
232.8930, 344.7378
234.1140, 308.6978
235.3350, 319.5020
236.5560, 309.1533
237.7770, 295.6714
238.9970, 276.1143
240.2170, 239.0513
241.4370, 222.1240
242.6570, 160.3169
243.8770, 133.3423
245.0960, 108.5923
246.3160, 139.5005
247.5350, 124.4990
248.7540, 146.2529
249.9730, 220.5425
251.1910, 212.1499
252.4100, 266.4741
253.6280, 263.7827
254.8460, 364.9131
256.0640, 287.6479
257.2810, 430.5205
258.4990, 455.7354
259.7160, 376.0713
260.9330, 486.9443
262.1500, 472.7300
263.3670, 430.0508
264.5840, 487.2568
265.8000, 389.6123
267.0170, 459.4243
268.2330, 505.2910
269.4490, 501.0239
270.6640, 596.7075
271.8800, 581.6318
273.0950, 613.2466
274.3100, 577.6704
275.5260, 624.1187
276.7400, 586.3853
277.9550, 679.8120
279.1690, 788.3628
280.3840, 777.3164
281.5980, 726.3628
282.8120, 790.1904
284.0260, 682.8545
285.2390, 774.6748
286.4530, 762.8730
287.6660, 683.0308
288.8790, 717.1470
290.0920, 728.2192
291.3040, 690.2451
292.5170, 704.2188
293.7290, 702.1382
294.9410, 587.0020
296.1530, 464.8096
297.3650, 518.5591
298.5770, 464.2520
299.7880, 555.8882
301.0000, 429.4688
302.2110, 425.9941
303.4220, 475.4644
304.6320, 451.8789
305.8430, 417.1846
307.0530, 383.5439
308.2630, 318.7949
309.4730, 318.9912
310.6830, 300.1279
311.8930, 237.4175
313.1030, 252.7871
314.3120, 270.2017
315.5210, 230.6421
316.7300, 116.0923
317.9390, 146.5410
319.1470, 135.9829
320.3560, 17.41455
321.5640, 31.81543
322.7720, 2.279297
323.9800, 14.47119
325.1880, 10.82764
326.3950, 22.09717
327.6030, 102.3384
328.8100, 31.55176
330.0170, 23.26660
331.2240, 108.6689
332.4300, 13.22607
333.6370, 81.98975
334.8430, 3.995605
336.0490, 75.24463
337.2550, 61.33252
338.4610, 58.20752
339.6660, 16.27002
340.8720, 18.85840
342.0770, 22.79102
343.2820, 16.58936
344.4870, 10.02881
345.6920, 72.70410
346.8960, 43.48633
348.1010, 7.570313
349.3050, 59.91162
350.5090, 88.79883
351.7130, 11.27246
352.9160, 52.99707
354.1200, 19.16113
355.3230, 48.33496
356.5260, 59.53320
357.7290, 68.41748
358.9320, 7.609863
360.1350, 88.22949
361.3370, 69.24170
362.5390, 29.10254
363.7410, 73.76318
364.9430, 9.381348
366.1450, 52.82812
367.3470, 63.60400
368.5480, 163.8896
369.7490, 87.20166
370.9500, 102.4751
372.1510, 67.35547
373.3520, 44.98779
374.5520, 180.2114
375.7530, 57.06885
376.9530, 113.0576
378.1530, 215.1250
379.3520, 60.41602
380.5520, 176.9443
381.7510, 31.55322
382.9510, 133.0186
384.1500, 54.47803
385.3490, 64.99707
386.5480, 118.8223
387.7460, 131.8657
388.9440, 121.2905
390.1430, 109.8799
391.3410, 196.2520
392.5390, 218.5098
393.7360, 56.05811
394.9340, 159.1777
396.1310, 115.0171
397.3280, 195.7603
398.5250, 219.5049
399.7220, 367.3511
400.9190, 245.8955
402.1150, 317.1367
403.3120, 204.8662
404.5080, 340.2607
405.7040, 385.7222
406.8990, 417.8350
408.0950, 473.1382
409.2900, 500.1592
410.4860, 631.4282
411.6810, 794.1738
412.8760, 802.1533
414.0700, 1067.928
415.2650, 1147.736
416.4590, 1359.067
417.6540, 1461.502
418.8480, 1755.505
420.0420, 2043.662
421.2350, 2221.896
422.4290, 2485.800
423.6220, 2701.644
424.8150, 3160.442
426.0080, 3498.198
427.2010, 3647.918
428.3940, 3727.602
429.5860, 3631.249
430.7790, 3633.860
431.9710, 3347.445
433.1630, 2911.998
434.3540, 2795.517
435.5460, 2485.019
436.7370, 2301.485
437.9290, 2083.918
439.1200, 1957.316
440.3110, 1846.679
441.5010, 1738.007
442.6920, 1674.297
443.8820, 1793.553
445.0730, 1803.772
446.2630, 1751.957
447.4530, 1708.105
448.6420, 1746.221
449.8320, 1724.301
451.0210, 1562.348
452.2100, 1503.362
453.3990, 1542.341
454.5880, 1466.277
455.7770, 1258.170
456.9660, 1164.049
458.1540, 1161.882
459.3420, 1094.680
460.5300, 1007.028
461.7180, 949.4517
462.9050, 908.7827
464.0930, 717.1553
465.2800, 647.7529
466.4670, 592.0430
467.6540, 455.5024
468.8410, 492.3789
470.0280, 526.5640
471.2140, 453.3906
472.4000, 442.6401
473.5870, 336.2295
474.7720, 411.9258
475.9580, 287.0415
477.1440, 359.7793
478.3290, 252.3535
479.5140, 318.7075
480.6990, 250.5801
481.8840, 275.5840
483.0690, 215.1567
484.2540, 150.5542
485.4380, 128.0107
486.6220, 102.7900
487.8060, 132.1958
488.9900, 122.6782
490.1740, 143.1509
491.3570, 62.57129
492.5410, 160.9204
493.7240, 249.3574
494.9070, 176.3232
496.0900, 136.2485
497.2720, 122.4360
498.4550, 90.61182
499.6370, 74.16064
500.8190, 44.49512
502.0010, 54.94434
503.1830, 23.90820
504.3650, 35.35205
505.5460, 58.46191
506.7280, 55.50439
507.9090, 81.26221
509.0900, 16.97607
510.2710, 93.72656
511.4510, 74.95752
512.6320, 72.21240
513.8120, 154.0742
514.9920, 131.6279
516.1720, 115.8940
517.3520, 122.9595
518.5310, 79.23779
519.7110, 48.89551
520.8900, 12.90039
522.0690, 3.936035
523.2480, 22.04785
524.4270, 146.5449
525.6050, 137.1406
526.7840, 110.9761
527.9620, 31.85889
529.1400, 17.79980
530.3180, 25.11719
531.4960, 60.99805
532.6730, 42.66309
533.8510, 58.17871
535.0280, 14.56543
536.2050, 66.28809
537.3820, 111.3257
538.5590, 108.1016
539.7350, 89.28516
540.9120, 49.83398
542.0880, 93.66943
543.2640, 152.0806
544.4400, 27.99170
545.6150, 86.34473
546.7910, 52.25293
547.9660, 121.4673
549.1410, 65.05957
550.3170, 120.9194
551.4910, 48.66699
552.6660, 163.0991
553.8410, 96.97998
555.0150, 134.3271
556.1890, 116.0063
557.3630, 220.6519
558.5370, 185.0127
559.7110, 309.5107
560.8840, 232.7607
562.0570, 203.8652
563.2310, 271.6382
564.4040, 294.0674
565.5760, 349.0020
566.7490, 383.0947
567.9220, 351.0635
569.0940, 320.3818
570.2660, 428.2568
571.4380, 630.0645
572.6100, 766.0605
573.7820, 726.9414
574.9530, 945.0811
576.1240, 1065.777
577.2960, 1376.707
578.4670, 1638.291
579.6370, 1770.962
580.8080, 1909.266
581.9790, 1986.460
583.1490, 2076.645
584.3190, 2092.697
585.4890, 2529.756
586.6590, 2894.888
587.8280, 3491.916
588.9980, 4151.197
590.1670, 4443.435
591.3360, 4247.641
592.5050, 3497.806
593.6740, 3170.842
594.8430, 2551.849
596.0110, 2089.662
597.1790, 1807.485
598.3480, 1520.773
599.5160, 1467.941
600.6830, 1461.824
601.8510, 1468.630
603.0180, 1793.977
604.1860, 2098.469
605.3530, 2246.035
606.5200, 2197.367
607.6870, 1891.781
608.8530, 1755.296
610.0200, 1389.521
611.1860, 1111.685
612.3520, 1029.888
613.5180, 762.1436
614.6840, 708.4766
615.8500, 827.1514
617.0150, 559.7861
618.1800, 664.2803
619.3450, 496.1436
620.5100, 470.4600
621.6750, 444.3555
622.8400, 367.3184
624.0040, 293.9678
625.1690, 183.3223
626.3330, 144.1348
627.4970, 155.5371
628.6610, 97.07422
629.8240, 138.1846
630.9880, 221.9395
632.1510, 102.7529
633.3140, 121.9580
634.4770, 180.6172
635.6400, 149.3486
636.8020, 144.7363
637.9650, 172.3887
639.1270, 101.2021
640.2890, 134.5820
641.4510, 175.9668
642.6130, 143.2842
643.7750, 198.8750
644.9360, 145.5850
646.0980, 279.0830
647.2590, 316.3984
648.4200, 387.6465
649.5810, 333.5596
650.7410, 316.8047
651.9020, 185.9746
653.0620, 356.8789
654.2220, 433.9697
655.3820, 326.0117
656.5420, 277.2393
657.7020, 333.1484
658.8610, 431.1904
660.0200, 454.7119
661.1800, 412.0977
662.3390, 250.8848
663.4970, 288.5498
664.6560, 243.9453
665.8150, 311.2002
666.9730, 321.4814
668.1310, 250.3721
669.2890, 162.9375
670.4470, 143.1475
671.6050, 111.2295
672.7620, 149.6328
673.9200, 134.3438
675.0770, 135.9004
676.2340, 216.8457
677.3910, 222.8213
678.5470, 193.6963
679.7040, 117.9092
680.8600, 135.3984
682.0160, 152.2930
683.1720, 92.46289
684.3280, 100.6787
685.4840, 70.82715
686.6390, 1.209961
687.7950, 122.9971
688.9500, 46.99316
690.1050, 62.79785
691.2600, 125.3447
692.4150, 11.21777
693.5690, 123.3975
694.7240, 33.20215
695.8780, 28.65039
697.0320, 86.54297
698.1860, 43.12500
699.3400, 28.29297
700.4930, 116.5879
701.6470, 184.7998
702.8000, 17.14453
703.9530, 125.3164
705.1060, 76.61133
706.2590, 95.68359
707.4110, 8.816406
708.5640, 97.08105
709.7160, 103.1475
710.8680, 30.59375
712.0200, 63.98926
713.1720, 3.671875
714.3230, 59.68945
715.4750, 19.93750
716.6260, 91.53711
717.7770, 59.80762
718.9280, 136.0225
720.0790, 151.1230
721.2300, 142.5469
722.3800, 163.0791
723.5300, 150.5508
724.6810, 122.1357
725.8300, 134.7178
726.9800, 63.09375
728.1300, 61.40527
729.2790, 58.16309
730.4290, 56.34570
731.5780, 76.11426
732.7270, 71.59863
733.8760, 105.7725
735.0240, 106.2334
736.1730, 207.6064
737.3210, 33.62305
738.4700, 13.95117
739.6180, 47.65527
740.7650, 6.804688
741.9130, 98.68164
743.0610, 70.28711
744.2080, 114.6260
745.3550, 84.91895
746.5020, 52.64844
747.6490, 111.1143
748.7960, 24.79590
749.9430, 93.21680
751.0890, 69.16699
752.2350, 42.05371
753.3810, 51.69238
754.5270, 6.558594
755.6730, 17.82617
756.8190, 50.22949
757.9640, 6.291016
759.1090, 28.37598
760.2540, 35.62207
761.3990, 44.20117
762.5440, 39.95508
763.6890, 64.20117
764.8330, 46.45410
765.9780, 1.284180
767.1220, 48.86133
768.2660, 149.9014
769.4100, 53.19629
770.5530, 44.89844
771.6970, 18.27148
772.8400, 182.2402
773.9830, 212.1553
775.1260, 134.0166
776.2690, 65.52734
777.4120, 152.5596
778.5540, 115.6426
779.6970, 140.1836
780.8390, 6.589844
781.9810, 8.934570
783.1230, 3.506836
784.2650, 91.70508
785.4060, 124.1807
786.5480, 108.7031
787.6890, 122.3096
788.8300, 120.6133
789.9710, 168.6797
791.1120, 197.7402
792.2520, 175.5049
793.3930, 104.0820
794.5330, 175.0020
795.6730, 87.57422
796.8130, 169.0381
797.9530, 4.562500
799.0930, 186.7168
800.2320, 172.8574
801.3710, 248.2412
802.5110, 259.2539
803.6500, 215.4229
804.7880, 210.4238
805.9270, 209.2119
807.0660, 172.5889
808.2040, 64.83887
809.3420, 145.9258
810.4800, 28.13770
811.6180, 177.2520
812.7560, 145.3174
813.8930, 170.6602
815.0310, 178.9707
816.1680, 66.10059
817.3050, 185.8525
818.4420, 118.6201
819.5790, 97.39844
820.7150, 181.8652
821.8520, 247.3105
822.9880, 142.5742
824.1240, 99.42578
825.2600, 217.7920
826.3960, 65.78418
827.5320, 278.7812
828.6670, 61.98926
829.8020, 146.6396
830.9380, 35.71973
832.0730, 347.3604
833.2080, 54.92871
834.3420, 78.67773
835.4770, 156.1826
836.6110, 33.83496
837.7450, 134.5254
838.8790, 225.4434
840.0130, 116.6035
841.1470, 141.1572
842.2810, 179.4482
843.4140, 149.7627
844.5470, 102.6279
845.6800, 134.8330
846.8130, 74.02930
847.9460, 213.9346
849.0790, 174.8545
850.2110, 169.4141
851.3440, 145.3184
852.4760, 135.8877
853.6080, 199.7002
854.7400, 197.3262
855.8710, 210.2188
857.0030, 118.1201
858.1340, 117.9297
859.2650, 129.7705
860.3960, 181.5039
861.5270, 260.0654
862.6580, 314.6328
863.7890, 381.8643
864.9190, 72.05371
866.0490, 156.1748
867.1790, 139.2383
868.3090, 191.3281
869.4390, 250.3496
870.5690, 278.4658
871.6980, 279.4941
872.8270, 281.9600
873.9570, 291.8477
875.0860, 280.1221
876.2140, 280.7793
877.3430, 275.7988
878.4720, 232.5791
879.6000, 290.1934
880.7280, 276.9482
881.8560, 157.5342
882.9840, 204.9453
884.1120, 342.5586
885.2390, 690.1416
886.3670, 775.5986
887.4940, 624.9102
888.6210, 174.0664
889.7480, 128.7891
890.8750, 64.30859
892.0020, 159.0762
893.1280, 142.0977
894.2540, 120.8496
895.3810, 66.68750
896.5070, 24.50586
897.6320, 103.3125
898.7580, 156.0547
899.8840, 50.14648
901.0090, 97.48828
902.1340, 50.70312
903.2590, 102.2598
904.3840, 49.80273
905.5090, 118.6387
906.6340, 11.99219
907.7580, 225.7988
908.8820, 68.86523
910.0060, 37.38672
911.1300, 31.02344
912.2540, 93.02148
913.3780, 76.77930
914.5010, 2.802734
915.6250, 95.22461
916.7480, 147.0625
917.8710, 289.0039
918.9940, 224.6289
920.1160, 150.3340
921.2390, 50.86328
922.3610, 88.78125
923.4840, 81.54297
924.6060, 87.01172
925.7280, 16.26758
926.8490, 76.50977
927.9710, 173.1641
929.0930, 151.9688
930.2140, 229.4395
931.3350, 240.2344
932.4560, 240.7168
933.5770, 334.9805
934.6980, 230.4668
935.8180, 196.8848
936.9380, 201.5820
938.0590, 306.8516
939.1790, 563.7832
940.2990, 616.2207
941.4180, 857.6211
942.5380, 994.8496
943.6570, 1240.369
944.7770, 1230.660
945.8960, 1801.080
947.0150, 2057.211
948.1340, 2378.180
949.2520, 3170.223
950.3710, 4024.275
951.4890, 5239.822
952.6070, 6389.844
953.7260, 8327.555
954.8430, 10870.15
955.9610, 14271.07
957.0790, 18586.24
958.1960, 23841.95
959.3130, 29207.45
960.4310, 33728.40
961.5480, 36632.73
962.6640, 37218.90
963.7810, 35689.13
964.8970, 32060.71
966.0140, 27844.73
967.1300, 23298.94
968.2460, 19054.05
969.3620, 15382.24
970.4780, 12324.73
971.5930, 9935.637
972.7090, 7661.004
973.8240, 5862.725
974.9390, 4246.977
976.0540, 3211.307
977.1690, 2379.070
978.2830, 1760.721
979.3980, 1464.082
980.5120, 1085.820
981.6260, 757.1934
982.7400, 574.7109
983.8540, 378.0469
984.9680, 504.7344
986.0820, 426.0645
987.1950, 381.2051
988.3080, 240.8125
989.4210, 303.1699
990.5340, 418.5566
991.6470, 353.6465
992.7600, 300.6074
993.8720, 300.1699
994.9850, 274.5254
996.0970, 348.3066
997.2090, 303.1035
998.3210, 448.8867
999.4320, 303.0020
1000.544, 475.4102
1001.655, 586.2930
1002.767, 595.6191
1003.878, 487.0859
1004.989, 426.8125
1006.100, 641.3223
1007.210, 852.7520
1008.321, 592.3027
1009.431, 656.7852
1010.541, 434.2227
1011.651, 538.0117
1012.761, 457.1855
1013.871, 573.7676
1014.980, 513.2500
1016.090, 545.0352
1017.199, 750.1094
1018.308, 535.6719
1019.417, 530.3281
1020.526, 636.5996
1021.635, 703.1094
1022.743, 592.4180
1023.852, 837.5625
1024.960, 811.9531
1026.068, 1009.717
1027.176, 1038.531
1028.283, 1177.635
1029.391, 1251.979
1030.498, 1458.629
1031.606, 1607.105
1032.713, 1623.785
1033.820, 1767.271
1034.927, 1801.219
1036.033, 1912.559
1037.140, 1889.217
1038.246, 1923.938
1039.353, 1874.371
1040.459, 2137.908
1041.564, 1829.852
1042.670, 1975.033
1043.776, 1929.920
1044.881, 2268.615
1045.987, 2349.270
1047.092, 2417.988
1048.197, 2459.742
1049.302, 2654.504
1050.406, 2931.164
1051.511, 2815.338
1052.615, 3067.105
1053.720, 2857.699
1054.824, 2703.422
1055.928, 2654.199
1057.031, 2628.307
1058.135, 2230.873
1059.238, 1916.629
1060.342, 1835.744
1061.445, 1697.467
1062.548, 1671.307
1063.651, 1519.977
1064.754, 1438.686
1065.856, 1255.648
1066.959, 1268.936
1068.061, 1186.820
1069.163, 1281.484
1070.265, 1271.988
1071.367, 1244.666
1072.469, 1314.330
1073.570, 1504.975
1074.671, 1541.580
1075.773, 1627.504
1076.874, 1731.111
1077.975, 1711.994
1079.075, 1833.580
1080.176, 1826.422
1081.276, 1752.168
1082.377, 1575.143
1083.477, 1513.334
1084.577, 1388.324
1085.677, 1277.141
1086.777, 1060.031
1087.876, 944.6543
1088.975, 784.1016
1090.075, 642.9453
1091.174, 527.3867
1092.273, 533.8496
1093.372, 517.8047
1094.470, 551.2090
1095.569, 493.8672
1096.667, 242.5547
1097.765, 432.9180
1098.863, 301.6270
1099.961, 404.9688
1101.059, 296.8730
1102.157, 194.1934
1103.254, 319.4980
1104.351, 322.7949
1105.449, 256.3555
1106.546, 215.6270
1107.642, 292.8848
1108.739, 101.1328
1109.836, 93.50391
1110.932, 110.1289
1112.028, 83.46289
1113.124, 67.67773
1114.220, 193.8066
1115.316, 183.5840
1116.412, 75.68359
1117.507, 140.2754
1118.603, 269.3477
1119.698, 117.4082
1120.793, 427.8066
1121.888, 339.3086
1122.983, 144.5000
1124.077, 245.5215
1125.172, 31.53125
1126.266, 127.5254
1127.360, 99.50391
1128.454, 45.53320
1129.548, 45.61328
1130.642, 55.26367
1131.735, 64.13477
1132.829, 289.9805
1133.922, 108.8164
1135.015, 129.8242
1136.108, 63.36133
1137.201, 152.3945
1138.294, 234.1367
1139.386, 140.8613
1140.478, 150.5742
1141.571, 157.1895
1142.663, 64.95312
1143.755, 163.6191
1144.846, 110.2715
1145.938, 129.5000
1147.030, 24.87891
1148.121, 9.601563
1149.212, 100.1035
1150.303, 14.58984
1151.394, 164.9336
1152.485, 102.4395
1153.575, 65.05859
1154.666, 59.34180
1155.756, 174.3848
1156.846, 215.9805
1157.936, 144.8027
1159.026, 50.23047
1160.116, 283.6074
1161.205, 59.11719
1162.295, 195.8145
1163.384, 197.1406
1164.473, 94.65625
1165.562, 122.9707
1166.651, 144.3711
1167.739, 116.0293
1168.828, 6.529297
1169.916, 256.7383
1171.005, 29.88086
1172.093, 32.34375
1173.181, 282.6133
1174.268, 77.12695
1175.356, 138.0840
1176.443, 172.5352
1177.531, 172.5508
1178.618, 78.20117
1179.705, 58.44141
1180.792, 65.33594
1181.879, 18.17188
1182.965, 209.9570
1184.052, 147.0723
1185.138, 86.17383
1186.224, 23.72656
1187.310, 11.80859
1188.396, 78.41016
1189.482, 116.4648
1190.567, 14.48633
1191.653, 118.5293
1192.738, 66.53125
1193.823, 365.5137
1194.908, 255.4824
1195.993, 117.4355
1197.077, 185.3691
1198.162, 57.70898
1199.246, 140.1543
1200.331, 249.0039
1201.415, 252.0879
1202.499, 302.9062
1203.582, 297.7090
1204.666, 28.50391
1205.750, 164.2402
1206.833, 52.96875
1207.916, 284.6797
1208.999, 218.6895
1210.082, 114.3887
1211.165, 134.0684
1212.248, 75.73438
1213.330, 147.3789
1214.412, 201.0059
1215.495, 103.7891
1216.577, 83.38867
1217.658, 143.9648
1218.740, 89.52930
1219.822, 246.0723
1220.903, 191.6016
1221.985, 169.1191
1223.066, 47.61719
1224.147, 209.0957
1225.228, 112.5625
1226.308, 103.0098
1227.389, 424.4492
1228.469, 91.87695
1229.550, 223.4727
1230.630, 38.86523
1231.710, 331.2363
1232.790, 239.5996
1233.869, 249.9473
1234.949, 109.2793
1236.028, 395.5938
1237.108, 214.8965
1238.187, 210.1875
1239.266, 141.1621
1240.344, 77.09375
1241.423, 126.0762
1242.502, 208.7793
1243.580, 213.5547
1244.658, 14.96094
1245.736, 215.1523
1246.814, 48.92773
1247.892, 246.9707
1248.970, 278.1562
1250.047, 86.17969
1251.125, 57.33398
1252.202, 128.4844
1253.279, 307.1133
1254.356, 288.2188
1255.433, 170.7363
1256.509, 375.6387
1257.586, 305.4102
1258.662, 373.5176
1259.738, 303.3633
1260.814, 163.9121
1261.890, 242.4863
1262.966, 215.4824
1264.042, 121.2168
1265.117, 163.0234
1266.193, 165.6543
1267.268, 191.6523
1268.343, 193.5820
1269.418, 207.6152
1270.492, 379.4473
1271.567, 268.2949
1272.642, 162.0156
1273.716, 166.8672
1274.790, 24.51953
1275.864, 343.1328
1276.938, 6.953125
1278.012, 126.6445
1279.085, 11.87109
1280.159, 220.4844
1281.232, 203.1973
1282.305, 161.3672
1283.378, 128.7656
1284.451, 81.86328
1285.524, 110.4238
1286.597, 52.98242
1287.669, 143.3867
1288.741, 33.61328
1289.813, 116.8711
1290.885, 23.15430
1291.957, 153.2812
1293.029, 105.7051
1294.101, 178.7598
1295.172, 129.9199
1296.243, 64.15430
1297.315, 112.2637
1298.386, 155.1973
1299.456, 121.6582
1300.527, 326.2109
1301.598, 226.9180
1302.668, 264.3203
1303.738, 283.8613
1304.809, 90.07812
1305.879, 96.19336
1306.948, 48.95117
1308.018, 150.0078
1309.088, 268.6426
1310.157, 279.9434
1311.226, 330.7910
1312.296, 282.1230
1313.365, 261.0781
1314.433, 278.7656
1315.502, 247.2324
1316.571, 142.5879
1317.639, 191.2676
1318.707, 345.0488
1319.776, 382.2461
1320.844, 590.0195
1321.911, 259.5625
1322.979, 181.5742
1324.047, 193.5781
1325.114, 313.3086
1326.181, 448.2891
1327.249, 170.4805
1328.316, 215.2773
1329.382, 67.23438
1330.449, 401.1836
1331.516, 206.1211
1332.582, 521.0547
1333.648, 309.0039
1334.715, 194.8555
1335.781, 263.2305
1336.846, 56.52734
1337.912, 311.4141
1338.978, 136.0195
1340.043, 460.7031
1341.108, 278.2930
1342.174, 369.0195
1343.239, 85.86328
1344.303, 224.3867
1345.368, 252.8164
1346.433, 311.7383
1347.497, 350.1602
1348.561, 338.9453
1349.626, 366.7227
1350.690, 254.4531
1351.753, 276.6719
1352.817, 494.4219
1353.881, 156.8945
1354.944, 459.7734
1356.007, 281.4961
1357.071, 79.85547
1358.134, 214.5586
1359.196, 210.6836
1360.259, 547.1328
1361.322, 410.8125
1362.384, 218.5781
1363.447, 378.9688
1364.509, 185.1016
1365.571, 265.2383
1366.633, 203.8867
1367.694, 285.3867
1368.756, 287.6133
1369.817, 126.0430
1370.879, 227.6953
1371.940, 72.33984
1373.001, 214.6758
1374.062, 182.2891
1375.122, 295.3164
1376.183, 424.1836
1377.244, 115.7812
1378.304, 441.0234
1379.364, 130.1406
1380.424, 27.44922
1381.484, 274.1133
1382.544, 255.6719
1383.603, 189.2812
1384.663, 349.8359
1385.722, 74.38281
1386.781, 228.1328
1387.840, 272.7070
1388.899, 175.2227
1389.958, 372.7422
1391.017, 221.2578
1392.075, 223.5781
1393.134, 351.0703
1394.192, 102.6836
1395.250, 529.3008
1396.308, 76.80859
1397.365, 545.3125
1398.423, 318.7852
1399.481, 66.25391
1400.538, 276.7070
1401.595, 287.1523
1402.652, 284.9961
1403.709, 291.4219
1404.766, 402.1641
1405.823, 472.4531
1406.879, 335.0703
1407.936, 410.7148
1408.992, 359.5859
1410.048, 383.6406
1411.104, 317.6836
1412.160, 329.5547
1413.215, 301.5312
1414.271, 330.2539
1415.326, 274.3398
1416.382, 256.5547
1417.437, 274.3945
1418.492, 229.1250
1419.546, 261.1875
1420.601, 341.0352
1421.656, 188.0625
1422.710, 189.9766
1423.764, 344.0156
1424.819, 397.8203
1425.873, 217.7852
1426.926, 162.6211
1427.980, 108.5820
1429.034, 84.52734
1430.087, 139.4688
1431.140, 23.57031
1432.194, 7.355469
1433.247, 266.1016
1434.299, 23.51172
1435.352, 258.3047
1436.405, 454.0859
1437.457, 18.94531
1438.510, 47.93750
1439.562, 269.5039
1440.614, 183.1562
1441.666, 397.8242
1442.717, 209.4961
1443.769, 88.17578
1444.821, 310.8555
1445.872, 50.52734
1446.923, 345.2188
1447.974, 375.6562
1449.025, 347.3594
1450.076, 245.0625
1451.127, 281.7812
1452.177, 235.4961
1453.227, 220.3320
1454.278, 224.4648
1455.328, 226.9375
1456.378, 250.5977
1457.428, 296.6016
1458.477, 269.9219
1459.527, 334.5820
1460.576, 357.2266
1461.625, 437.6367
1462.675, 57.73438
1463.724, 131.8867
1464.772, 103.5078
1465.821, 321.1211
1466.870, 65.72656
1467.918, 434.3359
1468.966, 163.6680
1470.015, 303.2383
1471.063, 312.7383
1472.110, 47.08984
1473.158, 353.9609
1474.206, 354.3711
1475.253, 164.7734
1476.301, 102.8242
1477.348, 349.2109
1478.395, 164.5898
1479.442, 349.9648
1480.488, 23.84766
1481.535, 375.1680
1482.582, 259.1016
1483.628, 309.4336
1484.674, 219.8008
1485.720, 5.167969
1486.766, 370.5625
1487.812, 81.03516
1488.858, 271.5938
1489.903, 20.17188
1490.949, 19.78125
1491.994, 236.4414
1493.039, 214.1406
1494.084, 307.8594
1495.129, 300.5781
1496.173, 307.3203
1497.218, 270.3359
1498.262, 34.30469
1499.307, 130.5508
1500.351, 26.21094
1501.395, 94.99219
1502.439, 130.4766
1503.483, 359.3906
1504.526, 232.2070
1505.570, 297.6836
1506.613, 248.5977
1507.656, 125.5156
1508.699, 98.44141
1509.742, 323.3750
1510.785, 316.3125
1511.827, 68.25781
1512.870, 336.2070
1513.912, 125.3242
1514.955, 217.0625
1515.997, 485.3945
1517.039, 498.1250
1518.080, 269.8555
1519.122, 86.98047
1520.164, 84.80078
1521.205, 380.6445
1522.246, 347.5000
1523.288, 347.9609
1524.329, 179.6836
1525.369, 296.9922
1526.410, 221.3594
1527.451, 297.4414
1528.491, 411.3633
1529.531, 409.9062
1530.572, 283.4180
1531.612, 224.1719
1532.652, 238.2227
1533.691, 183.6289
1534.731, 305.0039
1535.770, 230.5391
1536.810, 338.6367
1537.849, 340.7422
1538.888, 354.7852
1539.927, 409.0977
1540.966, 397.4492
1542.005, 462.4141
1543.043, 469.9180
1544.082, 480.6641
1545.120, 199.4961
1546.158, 313.8555
1547.196, 254.8203
1548.234, 17.41406
1549.272, 156.0039
1550.309, 402.2617
1551.347, 261.4805
1552.384, 238.7812
1553.421, 373.1562
1554.458, 442.8125
1555.495, 43.87109
1556.532, 23.91406
1557.568, 177.8438
1558.605, 349.1016
1559.641, 106.1211
1560.678, 82.74609
1561.714, 1.957031
1562.750, 0.5976560
1563.785, 0.0000000E+00
##END=



