##NAMES=Fluorapatite
##RRUFFID=R060070
##IDEAL CHEMISTRY=Ca_5_(PO_4_)_3_F
##LOCALITY=Panasqueira, Portugal
##OWNER=RRUFF
##SOURCE=Dave Bunk
##DESCRIPTION=Green hexagonal tablet
##STATUS=The identification of this mineral has been confirmed by X-ray diffraction and chemical analysis
##URL=rruff.info/R060070
##MEASURED CHEMISTRY=(Ca_0.99_Mn_0.01_)_5_(P_1.00_O_4_)_3_F_1.00_
##PIN_ID=L01695
##ORIENTATION=Laser parallel to -a* (-1 0 0). Fiducial mark perpendicular to laser is parallel to -c [0 0 -1]
118.1340, 0.0000000E+00
119.3650, 0.9687500
120.5960, 10.35400
121.8270, 7.663574
123.0580, 1.800781
124.2880, 25.62549
125.5190, 6.746582
126.7490, 75.39941
127.9790, 32.49023
129.2090, 28.94678
130.4390, 77.70898
131.6680, 135.8022
132.8980, 95.05029
134.1270, 60.50244
135.3560, 124.1387
136.5850, 75.94482
137.8140, 47.89990
139.0430, 131.9878
140.2710, 69.18018
141.5000, 108.4648
142.7280, 132.8384
143.9560, 80.30518
145.1840, 1.147949
146.4120, 89.51221
147.6390, 116.2349
148.8670, 185.0264
150.0940, 66.87354
151.3210, 123.8179
152.5490, 94.83594
153.7750, 174.9380
155.0020, 61.07324
156.2290, 94.20752
157.4550, 120.4194
158.6810, 121.6924
159.9080, 112.8408
161.1340, 214.0229
162.3590, 86.19336
163.5850, 164.3745
164.8110, 42.58740
166.0360, 108.9180
167.2610, 109.2549
168.4860, 131.7778
169.7110, 151.2080
170.9360, 172.6641
172.1610, 164.1196
173.3850, 172.2988
174.6100, 171.9077
175.8340, 166.6084
177.0580, 153.9614
178.2820, 149.8721
179.5050, 120.3320
180.7290, 72.60498
181.9520, 180.9717
183.1760, 161.9858
184.3990, 124.5527
185.6220, 97.28125
186.8450, 23.39844
188.0670, 182.0977
189.2900, 135.8433
190.5120, 42.66748
191.7340, 152.8726
192.9560, 81.03809
194.1780, 114.1919
195.4000, 28.61865
196.6220, 126.8003
197.8430, 104.5347
199.0640, 28.51465
200.2860, 143.4648
201.5070, 168.4414
202.7270, 121.4346
203.9480, 66.63818
205.1690, 89.11133
206.3890, 115.9922
207.6090, 85.50098
208.8290, 74.36963
210.0490, 51.71973
211.2690, 154.9131
212.4890, 130.1943
213.7080, 47.83691
214.9280, 171.8154
216.1470, 85.43408
217.3660, 56.81787
218.5850, 77.69873
219.8030, 105.1963
221.0220, 154.9727
222.2400, 97.25635
223.4590, 119.9956
224.6770, 128.6260
225.8950, 106.5366
227.1120, 160.8652
228.3300, 18.17578
229.5480, 117.9229
230.7650, 31.07715
231.9820, 169.5444
233.1990, 201.3740
234.4160, 216.8252
235.6330, 148.0957
236.8490, 40.46484
238.0660, 121.0107
239.2820, 79.54004
240.4980, 154.4985
241.7140, 118.0933
242.9300, 146.5522
244.1460, 20.44971
245.3610, 95.01758
246.5770, 139.0728
247.7920, 25.22168
249.0070, 7.312012
250.2220, 75.19678
251.4370, 123.6704
252.6510, 67.98096
253.8660, 40.82373
255.0800, 136.7344
256.2940, 77.23584
257.5080, 36.96387
258.7220, 135.7773
259.9360, 80.35986
261.1490, 141.7217
262.3630, 56.35547
263.5760, 195.3081
264.7890, 109.0796
266.0020, 196.9854
267.2150, 110.5688
268.4270, 249.9106
269.6400, 107.5029
270.8520, 80.86816
272.0640, 149.7031
273.2760, 154.1958
274.4880, 104.2954
275.7000, 143.9248
276.9120, 169.0728
278.1230, 105.8779
279.3340, 228.7271
280.5450, 60.24756
281.7560, 82.66699
282.9670, 66.26074
284.1780, 64.62207
285.3880, 73.06250
286.5980, 46.25342
287.8090, 98.51660
289.0190, 122.7432
290.2290, 173.9346
291.4380, 145.0835
292.6480, 112.5073
293.8570, 19.83398
295.0670, 65.99219
296.2760, 91.67676
297.4850, 123.8911
298.6930, 121.7656
299.9020, 52.90137
301.1110, 113.7993
302.3190, 80.95898
303.5270, 101.6924
304.7350, 85.43164
305.9430, 75.64111
307.1510, 36.24951
308.3580, 70.08154
309.5660, 19.55811
310.7730, 40.47900
311.9800, 140.4468
313.1870, 6.243652
314.3940, 74.71582
315.6010, 37.21387
316.8070, 12.29736
318.0130, 32.48145
319.2200, 16.25586
320.4260, 78.15967
321.6310, 13.01416
322.8370, 33.65479
324.0430, 24.58789
325.2480, 72.28809
326.4540, 17.71143
327.6590, 27.37695
328.8640, 31.36475
330.0680, 18.23828
331.2730, 38.93506
332.4780, 78.40332
333.6820, 101.8174
334.8860, 97.98047
336.0900, 114.3774
337.2940, 79.95264
338.4980, 60.14453
339.7010, 52.34229
340.9050, 178.9468
342.1080, 211.9678
343.3110, 45.27637
344.5140, 108.4766
345.7170, 1.906738
346.9200, 19.46777
348.1220, 10.06006
349.3240, 46.62012
350.5270, 23.48828
351.7290, 175.5352
352.9310, 149.0688
354.1320, 169.8115
355.3340, 161.5859
356.5350, 113.8066
357.7370, 136.0654
358.9380, 135.1240
360.1390, 60.69922
361.3400, 121.1387
362.5400, 51.31250
363.7410, 40.34961
364.9410, 198.0977
366.1410, 9.442383
367.3410, 147.1104
368.5410, 192.5869
369.7410, 75.99414
370.9400, 113.3350
372.1400, 141.2676
373.3390, 144.3438
374.5380, 123.9707
375.7370, 130.7334
376.9360, 138.5879
378.1350, 115.9736
379.3330, 140.1543
380.5310, 146.4854
381.7300, 95.50000
382.9280, 81.47852
384.1260, 21.00293
385.3230, 32.81934
386.5210, 219.8203
387.7180, 70.66504
388.9160, 66.58789
390.1130, 103.6738
391.3100, 119.7383
392.5060, 158.5000
393.7030, 7.047852
394.9000, 140.2129
396.0960, 135.0459
397.2920, 56.79492
398.4880, 102.2725
399.6840, 105.0449
400.8800, 161.4238
402.0750, 79.19238
403.2710, 48.36719
404.4660, 137.5166
405.6610, 84.96973
406.8560, 220.7227
408.0510, 58.63477
409.2450, 42.98340
410.4400, 83.81250
411.6340, 141.4121
412.8280, 72.94629
414.0220, 131.6787
415.2160, 255.3721
416.4100, 93.68750
417.6030, 183.5225
418.7970, 291.0918
419.9900, 161.5977
421.1830, 237.9912
422.3760, 220.9912
423.5690, 293.4219
424.7610, 325.8779
425.9540, 263.5596
427.1460, 398.0791
428.3380, 330.1279
429.5300, 368.9775
430.7220, 357.5400
431.9140, 467.0273
433.1050, 427.9346
434.2970, 345.6523
435.4880, 244.4775
436.6790, 258.4355
437.8700, 288.4971
439.0610, 153.2334
440.2510, 256.2070
441.4420, 264.2822
442.6320, 372.3223
443.8220, 303.0059
445.0120, 230.0459
446.2020, 337.2441
447.3910, 309.3916
448.5810, 186.0947
449.7700, 319.1592
450.9600, 46.49121
452.1490, 88.93262
453.3370, 200.1240
454.5260, 191.1758
455.7150, 211.0127
456.9030, 275.6533
458.0910, 258.2861
459.2800, 249.0645
460.4670, 123.0547
461.6550, 196.9785
462.8430, 111.6250
464.0300, 119.5010
465.2180, 142.8145
466.4050, 69.43945
467.5920, 110.1270
468.7790, 163.8828
469.9650, 89.58105
471.1520, 77.49316
472.3380, 184.1816
473.5250, 284.1475
474.7110, 86.63086
475.8970, 5.1757999E-02
477.0820, 172.5986
478.2680, 262.9629
479.4540, 39.79883
480.6390, 87.15430
481.8240, 72.81445
483.0090, 196.9414
484.1940, 89.47949
485.3780, 248.1699
486.5630, 41.34766
487.7470, 147.8818
488.9320, 174.4980
490.1160, 62.37207
491.3000, 112.8154
492.4830, 264.8379
493.6670, 19.04395
494.8500, 77.92676
496.0340, 41.58301
497.2170, 230.5137
498.4000, 113.2822
499.5820, 91.00586
500.7650, 0.9531250
501.9480, 220.0869
503.1300, 237.0615
504.3120, 184.3604
505.4940, 143.8965
506.6760, 108.4570
507.8580, 159.9375
509.0390, 118.7148
510.2210, 121.9326
511.4020, 124.1543
512.5830, 124.5205
513.7640, 15.80273
514.9450, 90.02441
516.1250, 37.73145
517.3060, 62.08008
518.4860, 86.32129
519.6660, 191.2852
520.8460, 59.34082
522.0260, 34.26660
523.2060, 44.01660
524.3850, 57.26172
525.5650, 129.7715
526.7440, 59.59668
527.9230, 233.4160
529.1020, 94.22852
530.2810, 76.12402
531.4590, 80.35449
532.6380, 26.57520
533.8160, 98.83496
534.9940, 113.3232
536.1720, 32.69043
537.3500, 118.4561
538.5270, 66.72266
539.7050, 76.49121
540.8820, 75.13281
542.0590, 94.20996
543.2360, 182.2686
544.4130, 168.0146
545.5900, 105.4717
546.7660, 13.78320
547.9430, 7.008789
549.1190, 191.8213
550.2950, 33.61621
551.4710, 178.1602
552.6470, 169.3516
553.8220, 217.9404
554.9980, 100.1797
556.1730, 65.83301
557.3480, 208.7012
558.5230, 72.43750
559.6980, 69.18750
560.8730, 108.4170
562.0470, 144.4395
563.2220, 159.4180
564.3960, 105.8252
565.5700, 7.772461
566.7440, 5.480469
567.9170, 4.639648
569.0910, 20.12305
570.2640, 63.38281
571.4380, 88.49512
572.6110, 141.6885
573.7840, 48.85059
574.9570, 129.0928
576.1290, 57.41895
577.3020, 214.4355
578.4740, 297.9863
579.6460, 186.2949
580.8180, 136.5049
581.9900, 126.8252
583.1620, 115.3105
584.3330, 114.5498
585.5040, 348.7090
586.6760, 222.9941
587.8470, 239.4316
589.0180, 317.1943
590.1880, 197.6064
591.3590, 343.8643
592.5290, 379.8896
593.7000, 281.6250
594.8700, 269.6602
596.0400, 238.9014
597.2090, 298.4521
598.3790, 185.3584
599.5490, 105.8809
600.7180, 109.1045
601.8870, 24.81152
603.0560, 31.13574
604.2250, 44.38574
605.3940, 5.437500
606.5620, 240.4922
607.7300, 187.2793
608.8990, 227.5361
610.0670, 128.7764
611.2350, 80.38184
612.4020, 130.1738
613.5700, 253.7197
614.7370, 156.9297
615.9050, 206.9590
617.0720, 177.0752
618.2390, 198.0098
619.4060, 358.6631
620.5720, 143.1016
621.7390, 270.3213
622.9050, 126.1924
624.0710, 148.0273
625.2370, 124.8301
626.4030, 288.2861
627.5690, 36.22949
628.7340, 135.4746
629.9000, 207.3213
631.0650, 68.48633
632.2300, 207.5918
633.3950, 92.96191
634.5600, 107.8057
635.7240, 115.1230
636.8890, 49.48145
638.0530, 61.88281
639.2170, 26.97266
640.3810, 171.6875
641.5450, 148.6426
642.7080, 303.5254
643.8720, 43.46484
645.0350, 279.0898
646.1980, 66.78125
647.3610, 252.1016
648.5240, 313.0605
649.6870, 226.4805
650.8490, 31.83398
652.0120, 389.3633
653.1740, 120.6426
654.3360, 142.2207
655.4980, 248.9961
656.6600, 293.9316
657.8210, 306.3906
658.9830, 121.4453
660.1440, 58.33008
661.3050, 92.92188
662.4660, 128.8340
663.6270, 150.8223
664.7870, 182.0527
665.9480, 316.0195
667.1080, 95.00781
668.2680, 308.0234
669.4280, 175.0137
670.5880, 139.0684
671.7480, 74.67773
672.9070, 229.2578
674.0670, 22.81250
675.2260, 162.7695
676.3850, 107.9199
677.5440, 9.416016
678.7030, 204.7617
679.8610, 48.84375
681.0200, 160.9531
682.1780, 202.8145
683.3360, 177.2422
684.4940, 26.83398
685.6520, 197.7305
686.8090, 115.2441
687.9670, 16.67383
689.1240, 263.2539
690.2810, 44.80664
691.4380, 0.5292970
692.5950, 119.5352
693.7520, 113.3047
694.9080, 58.79102
696.0650, 111.4863
697.2210, 11.12695
698.3770, 47.18750
699.5330, 34.37305
700.6880, 3.195313
701.8440, 23.78516
702.9990, 84.82031
704.1550, 36.80664
705.3100, 59.25391
706.4650, 81.54883
707.6190, 187.0625
708.7740, 287.1133
709.9290, 122.6270
711.0830, 326.0059
712.2370, 72.53320
713.3910, 49.59180
714.5450, 232.9062
715.6980, 213.9492
716.8520, 81.84961
718.0050, 151.6426
719.1580, 259.8906
720.3110, 77.85938
721.4640, 265.7109
722.6170, 121.4453
723.7700, 104.1250
724.9220, 221.8125
726.0740, 44.21289
727.2260, 150.7109
728.3780, 93.15039
729.5300, 80.61523
730.6810, 34.47266
731.8330, 103.5879
732.9840, 125.8027
734.1350, 79.91992
735.2860, 198.5410
736.4370, 194.7051
737.5880, 43.41016
738.7380, 293.6660
739.8880, 8.355469
741.0390, 23.59570
742.1890, 21.81445
743.3380, 130.9258
744.4880, 135.6387
745.6380, 105.7598
746.7870, 48.25977
747.9360, 298.7500
749.0850, 119.9512
750.2340, 57.96094
751.3830, 190.0078
752.5310, 113.9004
753.6800, 181.2227
754.8280, 145.0469
755.9760, 256.3652
757.1240, 159.1758
758.2720, 176.4707
759.4190, 66.94922
760.5670, 103.0254
761.7140, 44.23047
762.8610, 99.01172
764.0080, 84.15234
765.1550, 192.7227
766.3020, 236.2227
767.4480, 115.4141
768.5950, 226.0137
769.7410, 34.99609
770.8870, 270.5254
772.0330, 320.2031
773.1780, 297.4980
774.3240, 209.5117
775.4690, 154.6426
776.6140, 346.1875
777.7590, 20.27734
778.9040, 93.72656
780.0490, 192.9902
781.1940, 32.01758
782.3380, 184.9570
783.4820, 118.5410
784.6260, 152.3457
785.7700, 67.50586
786.9140, 107.0137
788.0580, 107.5273
789.2010, 80.36523
790.3450, 101.8887
791.4880, 98.57812
792.6310, 145.0117
793.7730, 250.8340
794.9160, 155.8359
796.0590, 259.0078
797.2010, 146.5371
798.3430, 302.6152
799.4850, 155.7617
800.6270, 117.7051
801.7690, 475.7246
802.9100, 220.7852
804.0520, 128.3477
805.1930, 277.1738
806.3340, 125.5684
807.4750, 16.12695
808.6160, 188.6621
809.7560, 32.07422
810.8970, 181.6738
812.0370, 94.36133
813.1770, 161.6973
814.3170, 157.8672
815.4570, 121.2383
816.5960, 175.5488
817.7360, 148.3652
818.8750, 207.1191
820.0140, 141.2363
821.1530, 228.1758
822.2920, 227.0117
823.4310, 193.9160
824.5690, 260.4199
825.7070, 250.2891
826.8460, 362.2930
827.9840, 165.2734
829.1220, 16.78125
830.2590, 35.98242
831.3970, 97.08203
832.5340, 218.8867
833.6710, 116.8516
834.8080, 5.869141
835.9450, 76.63477
837.0820, 242.9609
838.2190, 37.18750
839.3550, 131.8672
840.4910, 76.28516
841.6270, 257.3203
842.7630, 225.4902
843.8990, 158.7207
845.0350, 106.3398
846.1700, 253.3242
847.3060, 330.5664
848.4410, 400.5938
849.5760, 395.8789
850.7100, 316.5820
851.8450, 262.0684
852.9800, 194.4238
854.1140, 401.1660
855.2480, 447.1465
856.3820, 376.5234
857.5160, 297.0840
858.6500, 293.3887
859.7830, 318.2227
860.9170, 227.9941
862.0500, 208.5703
863.1830, 179.6426
864.3160, 247.1797
865.4480, 162.4219
866.5810, 263.2402
867.7130, 257.4238
868.8460, 167.9570
869.9780, 180.3047
871.1100, 250.5215
872.2410, 36.13672
873.3730, 140.1641
874.5050, 146.5488
875.6360, 33.66797
876.7670, 255.4062
877.8980, 252.4141
879.0290, 351.3457
880.1590, 354.9785
881.2900, 202.5430
882.4200, 326.9473
883.5500, 40.93555
884.6800, 83.02734
885.8100, 213.3125
886.9400, 256.2285
888.0690, 140.7109
889.1990, 57.82227
890.3280, 8.152344
891.4570, 146.2559
892.5860, 33.77148
893.7140, 310.8164
894.8430, 263.8809
895.9710, 28.18164
897.1000, 54.82422
898.2280, 297.8887
899.3560, 232.4297
900.4830, 4.830078
901.6110, 242.6172
902.7380, 61.16016
903.8660, 48.13086
904.9930, 202.8242
906.1200, 132.3633
907.2460, 203.1523
908.3730, 93.10156
909.5000, 16.91016
910.6260, 319.2773
911.7520, 131.3770
912.8780, 23.17188
914.0040, 224.1172
915.1290, 371.7891
916.2550, 63.85938
917.3800, 57.82031
918.5050, 307.7520
919.6300, 176.3633
920.7550, 80.07617
921.8800, 263.2402
923.0040, 107.6719
924.1290, 22.93750
925.2530, 141.1465
926.3770, 139.3672
927.5010, 247.5176
928.6250, 247.9414
929.7480, 190.0840
930.8720, 149.8027
931.9950, 104.5020
933.1180, 126.1895
934.2410, 127.7246
935.3640, 208.6484
936.4860, 184.6094
937.6090, 248.4062
938.7310, 269.6387
939.8530, 122.5371
940.9750, 267.0195
942.0970, 71.83203
943.2180, 305.4375
944.3400, 159.4375
945.4610, 168.5918
946.5820, 187.4980
947.7030, 263.9512
948.8240, 129.7148
949.9450, 281.4316
951.0650, 320.9668
952.1860, 229.7012
953.3060, 257.0430
954.4260, 524.8496
955.5460, 475.3496
956.6650, 421.1836
957.7850, 1010.941
958.9040, 1178.588
960.0230, 1333.484
961.1420, 1886.318
962.2610, 2053.369
963.3800, 2545.791
964.4990, 2543.781
965.6170, 2666.107
966.7350, 2343.127
967.8530, 2106.678
968.9710, 1424.773
970.0890, 903.9316
971.2070, 680.6836
972.3240, 744.2461
973.4410, 184.1895
974.5580, 333.1797
975.6750, 231.8516
976.7920, 145.3965
977.9090, 163.7891
979.0250, 152.8789
980.1410, 177.7227
981.2580, 154.1641
982.3740, 160.7422
983.4890, 57.29297
984.6050, 154.8145
985.7200, 373.3145
986.8360, 418.6875
987.9510, 387.2734
989.0660, 459.1797
990.1810, 207.5859
991.2950, 125.9648
992.4100, 21.32031
993.5240, 60.35938
994.6390, 16.88672
995.7530, 118.1953
996.8660, 72.53906
997.9800, 238.1367
999.0940, 212.0000
1000.207, 194.4922
1001.320, 37.43750
1002.433, 10.35156
1003.546, 131.1406
1004.659, 11.28125
1005.772, 153.9688
1006.884, 56.26562
1007.996, 170.4609
1009.108, 1.671875
1010.220, 19.63281
1011.332, 334.9531
1012.444, 278.5195
1013.555, 179.2109
1014.666, 270.8867
1015.777, 167.2188
1016.888, 85.86328
1017.999, 134.5938
1019.110, 255.1172
1020.220, 159.4609
1021.331, 308.0117
1022.441, 107.6562
1023.551, 117.7891
1024.661, 323.1484
1025.770, 135.2109
1026.880, 493.7812
1027.989, 194.3008
1029.098, 7.191406
1030.207, 209.1719
1031.316, 230.1602
1032.425, 48.63281
1033.533, 225.0938
1034.642, 165.7227
1035.750, 121.7852
1036.858, 316.4219
1037.966, 147.2422
1039.073, 56.56641
1040.181, 299.6094
1041.288, 485.9531
1042.396, 216.6680
1043.503, 236.6250
1044.610, 400.1133
1045.716, 533.1562
1046.823, 180.3398
1047.929, 118.8086
1049.036, 426.2930
1050.142, 195.5820
1051.248, 273.7617
1052.353, 422.2344
1053.459, 469.5234
1054.564, 346.1523
1055.670, 680.6172
1056.775, 48.63672
1057.880, 258.4453
1058.985, 634.6211
1060.089, 264.8008
1061.194, 23.74219
1062.298, 10.30859
1063.402, 49.37109
1064.506, 90.21875
1065.610, 153.1836
1066.713, 225.2656
1067.817, 194.3594
1068.920, 180.7383
1070.023, 48.09375
1071.126, 2.527344
1072.229, 168.8398
1073.332, 311.9453
1074.435, 140.3125
1075.537, 364.8906
1076.639, 278.2734
1077.741, 242.5859
1078.843, 345.9844
1079.945, 380.3867
1081.046, 412.7891
1082.148, 190.0703
1083.249, 406.4805
1084.350, 203.8945
1085.451, 22.68359
1086.551, 279.7227
1087.652, 152.1328
1088.752, 255.5469
1089.853, 7.035156
1090.953, 303.3789
1092.053, 43.79297
1093.152, 184.2188
1094.252, 213.6406
1095.351, 237.0742
1096.451, 305.5078
1097.550, 161.9531
1098.649, 19.41406
1099.748, 136.8789
1100.846, 215.3555
1101.945, 55.16016
1103.043, 242.3125
1104.141, 149.3086
1105.239, 92.79688
1106.337, 9.683594
1107.434, 111.8320
1108.532, 53.77734
1109.629, 148.8867
1110.726, 85.43359
1111.823, 157.9805
1112.920, 181.5508
1114.017, 180.5430
1115.113, 293.6992
1116.210, 207.9258
1117.306, 351.5195
1118.402, 363.1250
1119.498, 248.7422
1120.593, 404.3672
1121.689, 345.0039
1122.784, 493.6523
1123.879, 292.3086
1124.974, 153.7852
1126.069, 309.4492
1127.164, 17.11719
1128.259, 115.9531
1129.353, 166.6367
1130.447, 327.3594
1131.541, 415.0938
1132.635, 167.8398
1133.729, 113.0664
1134.822, 178.4297
1135.916, 84.03125
1137.009, 147.5234
1138.102, 354.3555
1139.195, 224.1250
1140.288, 196.0117
1141.380, 313.3086
1142.473, 33.36719
1143.565, 46.30859
1144.657, 36.27344
1145.749, 162.2578
1146.841, 135.0508
1147.932, 316.2656
1149.024, 197.3008
1150.115, 135.3672
1151.206, 236.4492
1152.297, 97.55078
1153.388, 17.32812
1154.479, 58.80859
1155.569, 18.02344
1156.659, 133.1641
1157.750, 85.69531
1158.839, 129.6133
1159.929, 183.8750
1161.019, 2.339844
1162.108, 291.6680
1163.198, 231.0000
1164.287, 38.12500
1165.376, 380.5039
1166.465, 87.91016
1167.553, 252.0859
1168.642, 378.3867
1169.730, 347.9570
1170.818, 149.3555
1171.906, 264.9375
1172.994, 602.5156
1174.082, 186.1211
1175.170, 440.7539
1176.257, 490.4141
1177.344, 325.0938
1178.431, 485.7305
1179.518, 460.4688
1180.605, 255.2305
1181.691, 70.01562
1182.778, 343.8320
1183.864, 70.66406
1184.950, 556.5273
1186.036, 466.4141
1187.122, 319.3281
1188.207, 257.2656
1189.292, 258.2500
1190.378, 529.2539
1191.463, 506.2852
1192.548, 174.2617
1193.632, 400.9453
1194.717, 93.64062
1195.801, 170.7773
1196.886, 252.9414
1197.970, 241.1289
1199.054, 225.3477
1200.137, 77.59375
1201.221, 378.8633
1202.305, 351.2461
1203.388, 340.5742
1204.471, 573.9258
1205.554, 384.3047
1206.637, 281.7148
1207.719, 315.1562
1208.802, 331.6250
1209.884, 208.1211
1210.966, 262.6445
1212.048, 238.1914
1213.130, 320.7695
1214.212, 303.3789
1215.293, 281.0156
1216.374, 517.9219
1217.456, 642.6133
1218.536, 501.3359
1219.617, 297.0859
1220.698, 378.9219
1221.778, 200.7266
1222.859, 191.5703
1223.939, 226.1797
1225.019, 253.3398
1226.099, 311.2695
1227.178, 398.2305
1228.258, 468.2227
1229.337, 399.2305
1230.417, 201.2812
1231.496, 216.3633
1232.574, 351.3164
1233.653, 12.53906
1234.732, 400.6328
1235.810, 217.8320
1236.888, 387.1406
1237.966, 191.4062
1239.044, 275.7070
1240.122, 299.0352
1241.199, 366.3945
1242.277, 377.4102
1243.354, 332.2148
1244.431, 385.6758
1245.508, 332.1680
1246.585, 325.6953
1247.661, 444.2500
1248.738, 250.8438
1249.814, 473.4766
1250.890, 564.1367
1251.966, 136.8281
1253.042, 244.5586
1254.117, 265.3203
1255.193, 154.1211
1256.268, 251.9844
1257.343, 291.9258
1258.418, 143.9141
1259.493, 243.9414
1260.567, 388.9961
1261.642, 358.0859
1262.716, 492.2188
1263.790, 803.3867
1264.864, 362.5938
1265.938, 462.8789
1267.011, 214.2109
1268.085, 411.5742
1269.158, 205.9766
1270.231, 232.4180
1271.304, 370.8984
1272.377, 608.4297
1273.450, 590.9961
1274.522, 318.6055
1275.594, 514.2422
1276.666, 334.9219
1277.738, 233.6406
1278.810, 396.3906
1279.882, 327.1836
1280.953, 407.0117
1282.025, 337.8789
1283.096, 225.1953
1284.167, 179.1328
1285.238, 313.5156
1286.308, 90.53125
1287.379, 18.58594
1288.449, 122.6836
1289.519, 355.8164
1290.589, 2.988281
1291.659, 47.20703
1292.729, 323.5352
1293.798, 92.64453
1294.868, 33.85938
1295.937, 206.8711
1297.006, 265.6016
1298.075, 164.3789
1299.143, 32.17188
1300.212, 92.92578
1301.280, 126.3320
1302.348, 121.6250
1303.416, 407.9648
1304.484, 86.34375
1305.552, 70.76172
1306.620, 140.7734
1307.687, 30.68750
1308.754, 234.1914
1309.821, 172.7383
1310.888, 210.3242
1311.955, 343.9570
1313.021, 72.63281
1314.088, 242.3594
1315.154, 325.1289
1316.220, 264.9375
1317.286, 295.7930
1318.352, 489.6914
1319.417, 803.6406
1320.483, 428.6445
1321.548, 401.7031
1322.613, 416.8047
1323.678, 678.9531
1324.743, 666.1367
1325.807, 490.3516
1326.872, 607.6016
1327.936, 415.8828
1329.000, 460.9141
1330.064, 616.5547
1331.128, 538.9492
1332.191, 568.3711
1333.255, 692.8359
1334.318, 352.3281
1335.381, 473.8594
1336.444, 546.4258
1337.507, 691.0273
1338.569, 692.6602
1339.632, 596.3359
1340.694, 492.0391
1341.756, 528.7852
1342.818, 548.5586
1343.880, 393.3750
1344.941, 819.2344
1346.003, 661.1328
1347.064, 464.0625
1348.125, 537.0312
1349.186, 291.0391
1350.247, 297.0859
1351.308, 622.1680
1352.368, 429.2891
1353.428, 675.4492
1354.489, 538.6523
1355.549, 371.8828
1356.608, 469.1562
1357.668, 246.4688
1358.727, 749.8164
1359.787, 438.2031
1360.846, 558.6406
1361.905, 342.6016
1362.964, 654.1133
1364.022, 511.6719
1365.081, 768.2695
1366.139, 711.9062
1367.197, 617.5820
1368.255, 297.2969
1369.313, 694.0508
1370.371, 537.8438
1371.428, 386.6719
1372.486, 855.5430
1373.543, 652.4531
1374.600, 469.4102
1375.657, 379.4062
1376.713, 309.4414
1377.770, 491.5234
1378.826, 483.6445
1379.882, 595.8086
1380.938, 549.0156
1381.994, 340.2617
1383.050, 512.5547
1384.106, 478.8867
1385.161, 998.2656
1386.216, 452.6875
1387.271, 555.1523
1388.326, 373.6562
1389.381, 843.2070
1390.435, 198.8047
1391.490, 451.4414
1392.544, 399.1250
1393.598, 503.8516
1394.652, 437.6211
1395.705, 343.4336
1396.759, 252.2930
1397.812, 568.1992
1398.866, 392.1562
1399.919, 445.1562
1400.972, 260.2031
1402.024, 558.2969
1403.077, 499.4453
1404.129, 600.6328
1405.181, 350.8789
1406.233, 461.1680
1407.285, 454.5117
1408.337, 215.9062
1409.389, 535.3594
1410.440, 613.8594
1411.491, 629.4180
1412.542, 391.0273
1413.593, 402.6992
1414.644, 449.4258
1415.695, 445.2070
1416.745, 189.0508
1417.795, 635.9258
1418.845, 413.8867
1419.895, 662.1211
1420.945, 546.2031
1421.995, 407.5117
1423.044, 604.6836
1424.093, 354.1523
1425.142, 262.1719
1426.191, 440.7266
1427.240, 256.1992
1428.289, 493.7695
1429.337, 498.4102
1430.385, 683.1367
1431.433, 415.9414
1432.481, 376.8281
1433.529, 358.8750
1434.577, 305.9453
1435.624, 304.7188
1436.672, 334.1641
1437.719, 297.9258
1438.766, 239.6719
1439.812, 243.1211
1440.859, 366.6016
1441.905, 541.1758
1442.952, 649.8555
1443.998, 533.7031
1445.044, 344.8047
1446.090, 456.4180
1447.135, 260.1914
1448.181, 339.1250
1449.226, 441.5977
1450.271, 417.1211
1451.316, 676.6992
1452.361, 449.3320
1453.405, 449.0273
1454.450, 368.7734
1455.494, 543.5742
1456.538, 731.4375
1457.582, 635.3555
1458.626, 470.3320
1459.670, 471.3594
1460.713, 333.4453
1461.757, 286.5859
1462.800, 261.5117
1463.843, 140.0430
1464.886, 246.3594
1465.928, 415.7305
1466.971, 492.1562
1468.013, 533.6445
1469.055, 475.1953
1470.097, 411.8008
1471.139, 421.4648
1472.181, 608.1836
1473.222, 521.9570
1474.263, 524.7930
1475.305, 301.6797
1476.346, 409.6289
1477.386, 400.6328
1478.427, 422.6875
1479.468, 464.3945
1480.508, 372.0078
1481.548, 503.2070
1482.588, 296.4883
1483.628, 291.3789
1484.668, 481.2148
1485.707, 279.6562
1486.747, 534.1523
1487.786, 541.7070
1488.825, 739.3086
1489.864, 631.9648
1490.902, 667.4883
1491.941, 398.4219
1492.979, 595.2227
1494.017, 468.0781
1495.055, 416.9688
1496.093, 490.9141
1497.131, 369.0898
1498.168, 327.3320
1499.206, 401.8906
1500.243, 454.5742
1501.280, 449.8203
1502.317, 527.1094
1503.354, 466.9922
1504.390, 509.9492
1505.426, 489.9453
1506.463, 502.4531
1507.499, 512.7422
1508.535, 489.0781
1509.570, 531.1406
1510.606, 413.2266
1511.641, 429.4258
1512.676, 384.7383
1513.711, 452.1641
1514.746, 403.7109
1515.781, 525.3750
1516.816, 471.1602
1517.850, 537.0664
1518.884, 703.0977
1519.918, 300.2578
1520.952, 513.5469
1521.986, 360.9688
1523.019, 461.5312
1524.053, 310.2344
1525.086, 448.0781
1526.119, 680.0586
1527.152, 35.19531
1528.185, 392.4961
1529.217, 478.9531
1530.250, 140.5781
1531.282, 209.3789
1532.314, 538.3594
1533.346, 307.5273
1534.377, 409.8984
1535.409, 473.4727
1536.440, 383.2383
1537.472, 226.2109
1538.503, 309.3906
1539.534, 446.7969
1540.564, 470.4336
1541.595, 106.3359
1542.625, 191.5156
1543.656, 474.9883
1544.686, 440.7617
1545.716, 72.14453
1546.745, 312.2812
1547.775, 310.0625
1548.804, 27.78516
1549.834, 155.7617
1550.863, 263.7305
1551.892, 216.1484
1552.920, 534.0430
1553.949, 379.4453
1554.977, 605.3984
1556.006, 342.9414
1557.034, 685.1328
1558.062, 391.0234
1559.089, 173.0000
1560.117, 156.6953
1561.144, 569.6953
1562.172, 555.6602
1563.199, 1.054688
1564.226, 517.3750
1565.252, 323.5664
1566.279, 938.9688
1567.305, 252.9453
1568.332, 200.8086
1569.358, 0.9726560
1570.384, 393.6719
1571.409, 0.0000000E+00
##END=



