##NAMES=Fluorapatite
##RRUFFID=R050192
##IDEAL CHEMISTRY=Ca_5_(PO_4_)_3_F
##LOCALITY=Fulford, Eagle County, Colorado, USA
##OWNER=RRUFF
##SOURCE=Dave Bunk Minerals
##DESCRIPTION=Pale green hexagonal prism
##STATUS=The identification of this mineral has been confirmed by X-ray diffraction and chemical analysis
##URL=rruff.info/R050192
##MEASURED CHEMISTRY=Ca_5.00_(P_1.00_O_4_)_3_(F_0.86_Cl_0.13_)
##PIN_ID=L00262
##ORIENTATION=Laser parallel to c* (0 0 1). Fiducial mark perpendicular to laser is parallel to b [0 1 0]
131.6680, 0.0000000E+00
132.8980, 0.6066890
134.1270, 85.66064
135.3560, 99.03271
136.5850, 110.5920
137.8140, 104.3096
139.0430, 128.4509
140.2710, 143.8713
141.5000, 129.5659
142.7280, 115.1416
143.9560, 105.2234
145.1840, 163.4812
146.4120, 86.97827
147.6390, 65.72778
148.8670, 71.02515
150.0940, 132.3481
151.3210, 150.1692
152.5490, 129.1240
153.7750, 95.62720
155.0020, 133.8252
156.2290, 118.1003
157.4550, 98.38086
158.6810, 70.36572
159.9080, 96.61865
161.1340, 66.58325
162.3590, 69.76343
163.5850, 99.07666
164.8110, 10.83130
166.0360, 42.87695
167.2610, 53.55420
168.4860, 65.99268
169.7110, 28.36279
170.9360, 18.52490
172.1610, 16.66235
173.3850, 23.57495
174.6100, 6.651367
175.8340, 5.269287
177.0580, 76.12280
178.2820, 10.69067
179.5050, 25.62891
180.7290, 60.50415
181.9520, 52.75244
183.1760, 59.40015
184.3990, 57.94507
185.6220, 54.93262
186.8450, 62.16333
188.0670, 72.89404
189.2900, 69.00781
190.5120, 23.75439
191.7340, 22.95142
192.9560, 18.73511
194.1780, 36.02612
195.4000, 3.622803
196.6220, 25.69336
197.8430, 74.99170
199.0640, 41.25732
200.2860, 35.49219
201.5070, 12.67920
202.7270, 27.81958
203.9480, 43.91504
205.1690, 25.89966
206.3890, 94.27563
207.6090, 47.53174
208.8290, 6.932373
210.0490, 42.70020
211.2690, 44.46289
212.4890, 34.70654
213.7080, 46.02319
214.9280, 54.33325
216.1470, 8.468506
217.3660, 69.51636
218.5850, 23.65137
219.8030, 78.96753
221.0220, 2.3193000E-02
222.2400, 50.13745
223.4590, 74.92822
224.6770, 113.0481
225.8950, 36.32397
227.1120, 34.99561
228.3300, 112.1306
229.5480, 48.60693
230.7650, 65.13672
231.9820, 58.80908
233.1990, 109.1936
234.4160, 99.18799
235.6330, 72.54614
236.8490, 85.25024
238.0660, 72.62451
239.2820, 81.65356
240.4980, 109.8198
241.7140, 144.2522
242.9300, 118.6250
244.1460, 66.32397
245.3610, 122.2236
246.5770, 40.33252
247.7920, 91.80762
249.0070, 110.8127
250.2220, 170.0024
251.4370, 155.3701
252.6510, 88.65942
253.8660, 158.5664
255.0800, 128.1475
256.2940, 138.8330
257.5080, 295.3157
258.7220, 228.4453
259.9360, 254.0242
261.1490, 230.5864
262.3630, 263.6775
263.5760, 331.4231
264.7890, 232.8232
266.0020, 171.9661
267.2150, 246.7043
268.4270, 246.8547
269.6400, 177.6499
270.8520, 229.5046
272.0640, 148.2749
273.2760, 152.3828
274.4880, 155.3459
275.7000, 210.6318
276.9120, 127.6824
278.1230, 190.9661
279.3340, 129.8799
280.5450, 154.0327
281.7560, 139.9092
282.9670, 130.0005
284.1780, 99.71753
285.3880, 136.3740
286.5980, 103.9783
287.8090, 119.5271
289.0190, 85.01221
290.2290, 120.4353
291.4380, 115.7996
292.6480, 173.1084
293.8570, 127.3608
295.0670, 134.5454
296.2760, 144.6746
297.4850, 116.7375
298.6930, 163.6782
299.9020, 122.5491
301.1110, 130.1650
302.3190, 192.1389
303.5270, 113.8667
304.7350, 185.5510
305.9430, 170.1960
307.1510, 83.79810
308.3580, 141.3171
309.5660, 148.7822
310.7730, 47.92456
311.9800, 66.22070
313.1870, 90.51611
314.3940, 70.76074
315.6010, 125.8127
316.8070, 129.7192
318.0130, 120.5696
319.2200, 100.7334
320.4260, 92.35571
321.6310, 54.96362
322.8370, 128.5923
324.0430, 96.62842
325.2480, 117.6406
326.4540, 47.10742
327.6590, 39.39478
328.8640, 110.7007
330.0680, 65.94238
331.2730, 54.08228
332.4780, 64.16382
333.6820, 96.26367
334.8860, 82.19531
336.0900, 136.9219
337.2940, 6.073242
338.4980, 4.772461
339.7010, 30.68018
340.9050, 41.03271
342.1080, 75.90161
343.3110, 44.02905
344.5140, 13.03809
345.7170, 13.97021
346.9200, 84.42041
348.1220, 56.17041
349.3240, 31.02393
350.5270, 50.75293
351.7290, 18.92944
352.9310, 70.50342
354.1320, 1.211426
355.3340, 54.71948
356.5350, 41.96631
357.7370, 91.40625
358.9380, 31.81104
360.1390, 61.19775
361.3400, 25.44263
362.5400, 76.27783
363.7410, 48.31372
364.9410, 58.07568
366.1410, 71.30273
367.3410, 14.02344
368.5410, 44.51831
369.7410, 7.292969
370.9400, 80.93140
372.1400, 5.239746
373.3390, 2.025635
374.5380, 36.92773
375.7370, 92.66187
376.9360, 67.71680
378.1350, 73.36328
379.3330, 61.37671
380.5310, 46.29688
381.7300, 53.73438
382.9280, 76.93359
384.1260, 160.4458
385.3230, 63.59961
386.5210, 85.41016
387.7180, 61.96533
388.9160, 95.58228
390.1130, 29.33105
391.3100, 27.67261
392.5060, 83.02734
393.7030, 26.65332
394.9000, 39.28931
396.0960, 122.5442
397.2920, 138.0779
398.4880, 70.44653
399.6840, 62.06567
400.8800, 22.00830
402.0750, 108.1213
403.2710, 78.15137
404.4660, 157.3640
405.6610, 99.46240
406.8560, 67.31445
408.0510, 166.4238
409.2450, 89.97998
410.4400, 153.1045
411.6340, 35.68945
412.8280, 124.5522
414.0220, 174.3711
415.2160, 21.84424
416.4100, 119.5327
417.6030, 209.0835
418.7970, 214.3721
419.9900, 160.6436
421.1830, 146.9170
422.3760, 211.6240
423.5690, 160.1685
424.7610, 218.1338
425.9540, 155.2119
427.1460, 305.6626
428.3380, 270.1748
429.5300, 279.7964
430.7220, 360.9941
431.9140, 394.2090
433.1050, 415.2305
434.2970, 484.3525
435.4880, 503.4082
436.6790, 480.5864
437.8700, 455.5957
439.0610, 576.5889
440.2510, 617.5762
441.4420, 682.3999
442.6320, 695.3613
443.8220, 767.1152
445.0120, 632.8535
446.2020, 637.6841
447.3910, 652.2612
448.5810, 560.0020
449.7700, 565.7129
450.9600, 444.0449
452.1490, 505.7305
453.3370, 462.4688
454.5260, 432.8408
455.7150, 445.2261
456.9030, 309.4937
458.0910, 310.7012
459.2800, 291.8906
460.4670, 288.0513
461.6550, 189.1294
462.8430, 271.0908
464.0300, 239.9746
465.2180, 99.65723
466.4050, 147.5967
467.5920, 179.3521
468.7790, 98.14502
469.9650, 124.5894
471.1520, 118.9551
472.3380, 124.5728
473.5250, 137.3188
474.7110, 150.5332
475.8970, 148.4971
477.0820, 175.8472
478.2680, 171.0874
479.4540, 147.8701
480.6390, 115.3232
481.8240, 114.0933
483.0090, 92.66602
484.1940, 96.55664
485.3780, 75.74072
486.5630, 62.24512
487.7470, 66.15186
488.9320, 140.6230
490.1160, 86.17676
491.3000, 69.46582
492.4830, 87.69482
493.6670, 26.88281
494.8500, 115.0356
496.0340, 115.2158
497.2170, 107.7803
498.4000, 146.6338
499.5820, 108.0649
500.7650, 102.8994
501.9480, 106.3921
503.1300, 44.18115
504.3120, 22.66357
505.4940, 33.88916
506.6760, 26.49658
507.8580, 11.81592
509.0390, 13.20361
510.2210, 31.58057
511.4020, 18.60986
512.5830, 36.09277
513.7640, 13.64258
514.9450, 2.267578
516.1250, 80.91211
517.3060, 139.4722
518.4860, 46.01904
519.6660, 0.4975590
520.8460, 6.663086
522.0260, 58.98389
523.2060, 49.26611
524.3850, 7.343262
525.5650, 68.78809
526.7440, 4.437988
527.9230, 25.04883
529.1020, 37.65088
530.2810, 44.25342
531.4590, 49.45215
532.6380, 57.85059
533.8160, 90.90674
534.9940, 34.91504
536.1720, 34.46240
537.3500, 114.6313
538.5270, 7.956055
539.7050, 67.53955
540.8820, 6.796875
542.0590, 150.7637
543.2360, 95.05127
544.4130, 105.5659
545.5900, 51.98096
546.7660, 69.83789
547.9430, 118.6021
549.1190, 46.91846
550.2950, 169.8408
551.4710, 26.18848
552.6470, 4.994141
553.8220, 68.96631
554.9980, 70.57471
556.1730, 144.2827
557.3480, 82.96387
558.5230, 106.0479
559.6980, 159.3955
560.8730, 154.6577
562.0470, 129.1826
563.2220, 281.2134
564.3960, 43.95410
565.5700, 188.2485
566.7440, 142.5176
567.9170, 301.7236
569.0910, 214.9814
570.2640, 214.1660
571.4380, 445.3018
572.6110, 426.2793
573.7840, 537.1128
574.9570, 671.9854
576.1290, 647.9731
577.3020, 803.8071
578.4740, 810.6851
579.6460, 793.7188
580.8180, 675.3115
581.9900, 661.9355
583.1620, 587.5781
584.3330, 525.8467
585.5040, 385.1523
586.6760, 299.8579
587.8470, 336.9639
589.0180, 337.7261
590.1880, 285.0020
591.3590, 275.6660
592.5290, 237.6104
593.7000, 221.6963
594.8700, 197.9653
596.0400, 202.1318
597.2090, 243.7764
598.3790, 227.4775
599.5490, 327.5059
600.7180, 353.2344
601.8870, 400.9727
603.0560, 536.1392
604.2250, 538.0522
605.3940, 582.5576
606.5620, 567.5322
607.7300, 591.2900
608.8990, 569.3213
610.0670, 553.1860
611.2350, 499.9175
612.4020, 422.8428
613.5700, 353.5005
614.7370, 414.1509
615.9050, 292.2026
617.0720, 340.7510
618.2390, 353.1030
619.4060, 202.2583
620.5720, 207.7358
621.7390, 74.46777
622.9050, 194.6191
624.0710, 135.8110
625.2370, 227.7192
626.4030, 106.8062
627.5690, 190.7485
628.7340, 45.85059
629.9000, 98.95312
631.0650, 121.4741
632.2300, 100.2720
633.3950, 120.5488
634.5600, 75.34814
635.7240, 116.0498
636.8890, 136.3413
638.0530, 154.6040
639.2170, 213.9980
640.3810, 170.2363
641.5450, 180.9487
642.7080, 126.3618
643.8720, 160.2539
645.0350, 197.0020
646.1980, 158.6982
647.3610, 166.0864
648.5240, 154.2578
649.6870, 291.1919
650.8490, 227.3672
652.0120, 216.7148
653.1740, 394.7163
654.3360, 136.3481
655.4980, 266.8027
656.6600, 203.9253
657.8210, 249.9268
658.9830, 227.5869
660.1440, 132.1255
661.3050, 155.3721
662.4660, 214.1255
663.6270, 172.4316
664.7870, 149.4399
665.9480, 41.00391
667.1080, 100.1182
668.2680, 128.3853
669.4280, 198.6348
670.5880, 10.38184
671.7480, 10.12109
672.9070, 74.85742
674.0670, 141.9951
675.2260, 168.5938
676.3850, 31.15234
677.5440, 64.14355
678.7030, 3.125000
679.8610, 0.7744140
681.0200, 46.04297
682.1780, 138.2002
683.3360, 173.8828
684.4940, 153.9668
685.6520, 113.8135
686.8090, 63.96484
687.9670, 125.1523
689.1240, 65.42578
690.2810, 13.27832
691.4380, 49.57422
692.5950, 118.0566
693.7520, 40.82910
694.9080, 52.66797
696.0650, 115.8350
697.2210, 119.5176
698.3770, 132.4189
699.5330, 146.0752
700.6880, 15.94043
701.8440, 106.1641
702.9990, 1.532227
704.1550, 29.54590
705.3100, 79.65039
706.4650, 17.94043
707.6190, 75.57227
708.7740, 80.51270
709.9290, 79.62891
711.0830, 104.9102
712.2370, 127.9092
713.3910, 105.8740
714.5450, 66.60254
715.6980, 90.96484
716.8520, 68.29297
718.0050, 17.86133
719.1580, 110.4238
720.3110, 90.27930
721.4640, 72.59863
722.6170, 149.1934
723.7700, 128.0312
724.9220, 19.64941
726.0740, 150.2803
727.2260, 219.3730
728.3780, 49.39648
729.5300, 216.5303
730.6810, 136.2178
731.8330, 89.31738
732.9840, 32.15039
734.1350, 142.8252
735.2860, 55.53516
736.4370, 128.0967
737.5880, 68.42578
738.7380, 95.11230
739.8880, 79.48730
741.0390, 140.4424
742.1890, 10.72168
743.3380, 83.00293
744.4880, 56.54590
745.6380, 142.5547
746.7870, 188.9570
747.9360, 185.7764
749.0850, 15.45215
750.2340, 20.78906
751.3830, 74.99707
752.5310, 75.53320
753.6800, 217.8916
754.8280, 83.05176
755.9760, 143.3926
757.1240, 171.5469
758.2720, 56.35449
759.4190, 189.1162
760.5670, 72.02637
761.7140, 26.77930
762.8610, 82.81348
764.0080, 5.078125
765.1550, 10.32129
766.3020, 4.509766
767.4480, 20.08398
768.5950, 88.50391
769.7410, 23.11230
770.8870, 135.6865
772.0330, 130.8809
773.1780, 9.826172
774.3240, 106.7637
775.4690, 94.94824
776.6140, 91.72461
777.7590, 81.47754
778.9040, 186.7598
780.0490, 10.55957
781.1940, 52.89941
782.3380, 65.98145
783.4820, 176.5381
784.6260, 107.2559
785.7700, 149.3418
786.9140, 154.8447
788.0580, 151.2793
789.2010, 186.0518
790.3450, 168.1533
791.4880, 209.7549
792.6310, 200.7295
793.7730, 145.8223
794.9160, 217.7090
796.0590, 190.6465
797.2010, 100.9180
798.3430, 40.93555
799.4850, 131.9609
800.6270, 212.8740
801.7690, 77.09570
802.9100, 201.1064
804.0520, 155.9580
805.1930, 177.5840
806.3340, 215.7549
807.4750, 188.2979
808.6160, 48.53125
809.7560, 222.0889
810.8970, 2.174805
812.0370, 195.7354
813.1770, 187.6621
814.3170, 145.9199
815.4570, 254.2178
816.5960, 142.1699
817.7360, 145.0137
818.8750, 65.95801
820.0140, 106.1914
821.1530, 146.5029
822.2920, 82.63867
823.4310, 153.5098
824.5690, 174.0830
825.7070, 63.81934
826.8460, 162.2100
827.9840, 102.7090
829.1220, 51.85156
830.2590, 127.1865
831.3970, 93.10156
832.5340, 68.97168
833.6710, 105.0078
834.8080, 56.96680
835.9450, 1.122070
837.0820, 75.73926
838.2190, 183.9590
839.3550, 47.46094
840.4910, 93.38672
841.6270, 211.3848
842.7630, 101.5000
843.8990, 128.8584
845.0350, 105.8936
846.1700, 34.73828
847.3060, 153.5449
848.4410, 4.090820
849.5760, 192.2207
850.7100, 16.58203
851.8450, 58.96777
852.9800, 48.56055
854.1140, 210.7266
855.2480, 192.2988
856.3820, 103.4160
857.5160, 212.6094
858.6500, 127.7773
859.7830, 50.98828
860.9170, 84.81836
862.0500, 62.62109
863.1830, 172.6006
864.3160, 121.8232
865.4480, 166.4326
866.5810, 202.4688
867.7130, 46.96875
868.8460, 74.77832
869.9780, 68.12891
871.1100, 45.09473
872.2410, 100.4385
873.3730, 84.29102
874.5050, 90.58301
875.6360, 109.8643
876.7670, 190.0596
877.8980, 93.03809
879.0290, 72.23828
880.1590, 17.94922
881.2900, 98.44727
882.4200, 16.18262
883.5500, 105.3799
884.6800, 98.29980
885.8100, 102.3408
886.9400, 48.57812
888.0690, 88.22852
889.1990, 109.6162
890.3280, 137.4678
891.4570, 73.49609
892.5860, 97.62988
893.7140, 72.64160
894.8430, 67.61719
895.9710, 117.8711
897.1000, 33.65527
898.2280, 107.0557
899.3560, 37.58301
900.4830, 85.56641
901.6110, 65.17969
902.7380, 44.99512
903.8660, 109.3027
904.9930, 122.7393
906.1200, 216.0752
907.2460, 122.6729
908.3730, 117.3271
909.5000, 113.4434
910.6260, 21.76465
911.7520, 31.35352
912.8780, 17.38672
914.0040, 40.83594
915.1290, 129.5996
916.2550, 161.9199
917.3800, 106.4639
918.5050, 33.35547
919.6300, 51.74023
920.7550, 62.00391
921.8800, 55.54980
923.0040, 24.47363
924.1290, 213.3818
925.2530, 148.8184
926.3770, 82.48340
927.5010, 38.63770
928.6250, 135.1494
929.7480, 99.31738
930.8720, 111.4531
931.9950, 227.4141
933.1180, 139.6924
934.2410, 190.0420
935.3640, 222.4980
936.4860, 324.7598
937.6090, 331.0996
938.7310, 247.4863
939.8530, 338.0781
940.9750, 216.7168
942.0970, 488.0605
943.2180, 501.5645
944.3400, 547.5332
945.4610, 759.8887
946.5820, 789.1465
947.7030, 654.8262
948.8240, 930.1426
949.9450, 1205.166
951.0650, 1764.014
952.1860, 2022.443
953.3060, 2623.006
954.4260, 3783.412
955.5460, 5140.320
956.6650, 6693.191
957.7850, 8589.055
958.9040, 10407.96
960.0230, 11789.61
961.1420, 12666.44
962.2610, 12577.08
963.3800, 11951.70
964.4990, 10757.84
965.6170, 9038.754
966.7350, 7077.312
967.8530, 5715.775
968.9710, 4363.430
970.0890, 3260.754
971.2070, 2593.719
972.3240, 2006.811
973.4410, 1682.594
974.5580, 1294.881
975.6750, 911.6504
976.7920, 679.2148
977.9090, 300.9688
979.0250, 414.7969
980.1410, 442.0371
981.2580, 425.4141
982.3740, 250.4023
983.4890, 108.2207
984.6050, 246.7129
985.7200, 176.6289
986.8360, 126.5645
987.9510, 181.0176
989.0660, 248.8789
990.1810, 188.5918
991.2950, 125.3125
992.4100, 103.3496
993.5240, 145.3789
994.6390, 190.5703
995.7530, 53.73242
996.8660, 174.3574
997.9800, 113.5957
999.0940, 99.98828
1000.207, 107.9805
1001.320, 133.0703
1002.433, 235.9590
1003.546, 309.4180
1004.659, 331.5137
1005.772, 303.4824
1006.884, 164.8535
1007.996, 183.1113
1009.108, 219.9453
1010.220, 201.9414
1011.332, 290.3359
1012.444, 91.13672
1013.555, 263.4531
1014.666, 64.67969
1015.777, 265.6191
1016.888, 176.0430
1017.999, 214.2148
1019.110, 83.66016
1020.220, 399.2637
1021.331, 339.6992
1022.441, 377.3320
1023.551, 383.6133
1024.661, 426.7070
1025.770, 435.6641
1026.880, 467.9785
1027.989, 336.4297
1029.098, 377.1387
1030.207, 348.8555
1031.316, 369.5977
1032.425, 370.9160
1033.533, 397.7129
1034.642, 486.7168
1035.750, 112.6074
1036.858, 262.7500
1037.966, 7.595703
1039.073, 176.7012
1040.181, 58.11523
1041.288, 193.0449
1042.396, 148.7520
1043.503, 322.4277
1044.610, 342.6406
1045.716, 226.0527
1046.823, 259.5742
1047.929, 263.7188
1049.036, 403.7988
1050.142, 117.9883
1051.248, 437.3555
1052.353, 277.5664
1053.459, 382.9785
1054.564, 311.2168
1055.670, 505.0254
1056.775, 414.9805
1057.880, 299.9102
1058.985, 444.8984
1060.089, 406.4980
1061.194, 383.1934
1062.298, 212.0703
1063.402, 266.3203
1064.506, 60.66992
1065.610, 306.5859
1066.713, 212.7461
1067.817, 246.4824
1068.920, 111.1641
1070.023, 173.2148
1071.126, 263.0625
1072.229, 384.2773
1073.332, 373.4199
1074.435, 218.4082
1075.537, 369.5840
1076.639, 337.0449
1077.741, 158.2676
1078.843, 316.8535
1079.945, 248.6934
1081.046, 304.4512
1082.148, 310.7480
1083.249, 199.2891
1084.350, 167.8633
1085.451, 117.4023
1086.551, 80.69922
1087.652, 70.11914
1088.752, 42.88281
1089.853, 130.7988
1090.953, 26.72070
1092.053, 49.54688
1093.152, 79.15430
1094.252, 28.65039
1095.351, 7.382813
1096.451, 137.6992
1097.550, 242.2578
1098.649, 71.39062
1099.748, 59.41602
1100.846, 43.48438
1101.945, 221.3320
1103.043, 139.7578
1104.141, 61.44336
1105.239, 171.8867
1106.337, 41.61133
1107.434, 277.7715
1108.532, 33.72070
1109.629, 33.94922
1110.726, 2.955078
1111.823, 98.98828
1112.920, 191.8828
1114.017, 147.5938
1115.113, 211.4746
1116.210, 63.66406
1117.306, 165.3242
1118.402, 203.5918
1119.498, 258.9629
1120.593, 110.0430
1121.689, 94.36328
1122.784, 199.2812
1123.879, 83.94336
1124.974, 105.3906
1126.069, 194.8242
1127.164, 215.6406
1128.259, 295.3164
1129.353, 232.6172
1130.447, 118.7910
1131.541, 57.55273
1132.635, 50.50000
1133.729, 58.79297
1134.822, 196.2012
1135.916, 252.4043
1137.009, 166.6035
1138.102, 236.5996
1139.195, 154.9297
1140.288, 61.25391
1141.380, 42.98828
1142.473, 161.0000
1143.565, 181.5996
1144.657, 111.3633
1145.749, 165.0000
1146.841, 314.9355
1147.932, 89.17773
1149.024, 215.5684
1150.115, 117.0332
1151.206, 304.9238
1152.297, 45.03320
1153.388, 237.5742
1154.479, 318.1895
1155.569, 22.29688
1156.659, 311.2637
1157.750, 225.6621
1158.839, 142.5645
1159.929, 272.5762
1161.019, 103.5547
1162.108, 178.6172
1163.198, 115.5684
1164.287, 133.9453
1165.376, 127.0977
1166.465, 20.41406
1167.553, 239.5176
1168.642, 124.7910
1169.730, 292.5039
1170.818, 294.9316
1171.906, 295.1094
1172.994, 324.4668
1174.082, 333.5801
1175.170, 128.4082
1176.257, 156.6133
1177.344, 155.9941
1178.431, 273.8359
1179.518, 397.8184
1180.605, 27.33203
1181.691, 372.8633
1182.778, 91.06445
1183.864, 533.8809
1184.950, 298.1641
1186.036, 248.1504
1187.122, 426.4258
1188.207, 118.3594
1189.292, 245.9629
1190.378, 238.5273
1191.463, 166.8145
1192.548, 180.9102
1193.632, 269.1836
1194.717, 64.34961
1195.801, 194.9238
1196.886, 264.7070
1197.970, 163.4883
1199.054, 187.0977
1200.137, 169.2305
1201.221, 192.7871
1202.305, 233.7246
1203.388, 103.5332
1204.471, 215.5273
1205.554, 120.0703
1206.637, 264.9570
1207.719, 94.92969
1208.802, 173.0508
1209.884, 374.5352
1210.966, 358.6992
1212.048, 180.0195
1213.130, 381.6816
1214.212, 7.921875
1215.293, 279.7520
1216.374, 314.7559
1217.456, 487.3398
1218.536, 328.1309
1219.617, 386.9004
1220.698, 279.0586
1221.778, 279.1855
1222.859, 328.4297
1223.939, 375.6426
1225.019, 209.1562
1226.099, 474.6328
1227.178, 203.8242
1228.258, 418.5859
1229.337, 515.9492
1230.417, 247.2109
1231.496, 403.1992
1232.574, 119.2500
1233.653, 374.5664
1234.732, 83.12500
1235.810, 486.5801
1236.888, 331.9492
1237.966, 110.6328
1239.044, 234.1719
1240.122, 146.0176
1241.199, 245.1152
1242.277, 257.9727
1243.354, 384.7031
1244.431, 549.2969
1245.508, 349.3281
1246.585, 297.5078
1247.661, 352.0156
1248.738, 149.3359
1249.814, 320.2188
1250.890, 232.5859
1251.966, 518.7461
1253.042, 181.8789
1254.117, 230.0781
1255.193, 225.0156
1256.268, 25.37500
1257.343, 254.1836
1258.418, 220.9375
1259.493, 168.3906
1260.567, 387.1133
1261.642, 173.1523
1262.716, 449.5547
1263.790, 530.6602
1264.864, 478.3672
1265.938, 509.8477
1267.011, 345.8789
1268.085, 251.4141
1269.158, 230.0391
1270.231, 140.2852
1271.304, 72.82422
1272.377, 200.2422
1273.450, 111.7461
1274.522, 132.0547
1275.594, 209.5977
1276.666, 117.0938
1277.738, 412.4766
1278.810, 263.9609
1279.882, 25.82422
1280.953, 392.4414
1282.025, 246.3750
1283.096, 353.9297
1284.167, 399.6875
1285.238, 548.9141
1286.308, 52.05469
1287.379, 202.0000
1288.449, 452.0234
1289.519, 2.042969
1290.589, 0.0000000E+00
##END=



