##NAMES=Fluorapophyllite-(K)
##RRUFFID=R050084
##IDEAL CHEMISTRY=KCa_4_Si_8_O_20_F&#183;8H_2_O
##LOCALITY=near Ahmednagar, Maharashtra, India
##OWNER=RRUFF
##SOURCE=Rock Currier
##DESCRIPTION=Greenish-white prismatic single crystal associated with scolecite
##STATUS=The identification of this mineral has been confirmed by X-ray diffraction and chemical analysis
##URL=rruff.info/R050084
##MEASURED CHEMISTRY=(K_0.98_Na_0.02_)Ca_4.00_Si_8.00_O_20_F_1.00_Â·8H_2_O
##PIN_ID=L00295
##ORIENTATION=Laser parallel to -a* (-1 0 0). Fiducial mark perpendicular to laser is parallel to -c [0 0 -1]
81.728, 0.000
83.128, 78.407
84.529, 6.090
85.929, 1.311
87.329, 33.021
88.728, 165.897
90.128, 468.092
91.527, 906.752
92.926, 1773.608
94.324, 2021.471
95.723, 1968.688
97.121, 1662.770
98.519, 1178.816
99.917, 1087.232
101.314, 1004.978
102.712, 1367.464
104.109, 1610.048
105.505, 2943.636
106.902, 5686.208
108.298, 8760.224
109.694, 10461.785
111.090, 6752.963
112.486, 4379.818
113.881, 2684.910
115.277, 1997.278
116.672, 1991.976
118.066, 2623.169
119.461, 3245.603
120.855, 2280.292
122.249, 2390.303
123.643, 2690.633
125.036, 3527.458
126.430, 3774.211
127.823, 2860.280
129.216, 2575.359
130.608, 2326.029
132.001, 3122.793
133.393, 3303.642
134.785, 2875.557
136.176, 1778.527
137.568, 771.544
138.959, 479.598
140.350, 306.678
141.741, 373.766
143.131, 123.856
144.521, 28.055
145.911, 105.970
147.301, 184.894
148.691, 39.831
150.080, 83.785
151.469, 42.283
152.858, 132.648
154.247, 416.442
155.635, 738.314
157.024, 1016.191
158.411, 1923.500
159.799, 2690.591
161.187, 4915.346
162.574, 6564.403
163.961, 7685.371
165.348, 6976.697
166.734, 4638.950
168.121, 3548.477
169.507, 2175.528
170.893, 1285.323
172.278, 631.104
173.664, 156.976
175.049, 36.794
176.434, 83.441
177.819, 146.271
179.203, 254.929
180.587, 742.536
181.971, 1349.225
183.355, 2466.705
184.739, 4581.119
186.122, 6224.471
187.505, 6224.764
188.888, 6757.991
190.271, 5649.159
191.653, 3932.269
193.035, 2744.320
194.417, 2243.314
195.799, 1719.250
197.180, 1834.065
198.562, 1613.631
199.943, 1985.070
201.324, 2255.465
202.704, 2680.814
204.084, 3755.118
205.465, 4491.377
206.844, 6830.590
208.224, 8488.757
209.603, 11826.876
210.983, 14474.946
212.362, 14832.939
213.740, 15470.851
215.119, 11538.719
216.497, 10356.544
217.875, 8034.319
219.253, 7022.804
220.631, 6439.961
222.008, 5363.285
223.385, 5570.077
224.762, 4845.045
226.139, 5580.039
227.515, 5580.032
228.891, 6158.593
230.267, 6508.304
231.643, 5769.750
233.018, 5919.942
234.394, 4459.752
235.769, 4125.291
237.144, 3016.988
238.518, 2333.203
239.893, 1933.771
241.267, 1315.137
242.641, 1181.824
244.014, 694.594
245.388, 567.945
246.761, 446.757
248.134, 264.881
249.507, 246.267
250.879, 70.030
252.252, 153.861
253.624, 30.425
254.996, 36.658
256.367, 70.761
257.739, 1.206
259.110, 151.509
260.481, 123.815
261.852, 361.116
263.222, 411.411
264.592, 613.668
265.962, 1028.871
267.332, 1184.026
268.702, 1667.139
270.071, 1456.213
271.440, 1458.248
272.809, 1108.244
274.178, 755.202
275.546, 660.124
276.915, 397.011
278.283, 435.866
279.650, 336.497
281.018, 358.808
282.385, 410.999
283.752, 360.181
285.119, 609.353
286.486, 544.511
287.852, 884.657
289.218, 926.786
290.584, 1260.898
291.950, 1777.987
293.316, 1911.052
294.681, 2877.003
296.046, 3156.932
297.411, 4348.836
298.775, 4805.717
300.140, 4872.575
301.504, 5158.407
302.868, 4048.213
304.231, 4248.995
305.595, 2790.749
306.958, 2258.479
308.321, 1893.181
309.684, 1403.198
311.047, 1350.343
312.409, 995.552
313.771, 955.881
315.133, 795.465
316.495, 657.923
317.856, 728.618
319.217, 573.103
320.578, 717.556
321.939, 608.979
323.299, 715.369
324.660, 810.722
326.020, 739.035
327.380, 983.307
328.739, 950.538
330.099, 1189.726
331.458, 1246.859
332.817, 1388.925
334.176, 1755.888
335.534, 1754.772
336.892, 2268.612
338.251, 2156.762
339.608, 2406.204
340.966, 2371.857
342.323, 2101.594
343.681, 2093.250
345.037, 1546.123
346.394, 1407.706
347.751, 973.512
349.107, 785.037
350.463, 664.544
351.819, 415.276
353.174, 403.681
354.530, 228.148
355.885, 152.479
357.240, 131.771
358.594, 15.976
359.949, 54.220
361.303, 87.626
362.657, 34.454
364.011, 17.509
365.365, 41.526
366.718, 43.396
368.071, 17.724
369.424, 96.102
370.777, 128.889
372.129, 187.639
373.481, 236.353
374.833, 176.032
376.185, 201.676
377.537, 72.284
378.888, 84.854
380.239, 30.385
381.590, 100.125
382.941, 47.714
384.291, 193.373
385.642, 90.167
386.992, 169.090
388.341, 93.161
389.691, 131.339
391.040, 164.610
392.389, 59.975
393.738, 134.410
395.087, 102.940
396.435, 37.600
397.784, 50.419
399.132, 53.597
400.479, 0.480
401.827, 124.236
403.174, 92.865
404.521, 120.415
405.868, 131.915
407.215, 134.589
408.561, 191.826
409.908, 164.242
411.254, 187.397
412.599, 209.441
413.945, 185.294
415.290, 276.895
416.636, 208.798
417.980, 329.809
419.325, 328.531
420.670, 425.822
422.014, 594.260
423.358, 626.424
424.702, 993.584
426.045, 1184.721
427.389, 1711.828
428.732, 2442.930
430.075, 3618.005
431.417, 5829.073
432.760, 7956.110
434.102, 8174.646
435.444, 10320.106
436.786, 7826.064
438.127, 5727.997
439.469, 3404.896
440.810, 2608.761
442.151, 1726.510
443.492, 1303.313
444.832, 1149.086
446.172, 777.829
447.512, 779.541
448.852, 551.222
450.192, 515.873
451.531, 501.494
452.870, 388.084
454.209, 518.645
455.548, 444.175
456.887, 520.675
458.225, 596.146
459.563, 619.587
460.901, 896.998
462.238, 845.380
463.576, 1211.733
464.913, 1207.057
466.250, 1219.351
467.587, 1208.616
468.923, 940.852
470.259, 897.059
471.596, 683.246
472.931, 587.433
474.267, 488.641
475.603, 357.831
476.938, 414.015
478.273, 271.172
479.608, 385.298
480.942, 349.396
482.276, 383.466
483.611, 516.508
484.944, 590.522
486.278, 824.508
487.612, 823.466
488.945, 804.397
490.278, 745.301
491.611, 517.177
492.943, 551.026
494.276, 365.848
495.608, 356.645
496.940, 340.415
498.271, 214.159
499.603, 296.875
500.934, 210.567
502.265, 283.254
503.596, 301.917
504.927, 230.553
506.257, 327.163
507.587, 226.748
508.917, 284.306
510.247, 278.838
511.577, 215.347
512.906, 325.828
514.235, 259.285
515.564, 339.090
516.892, 356.543
518.221, 316.796
519.549, 439.531
520.877, 368.937
522.205, 447.124
523.533, 383.125
524.860, 548.664
526.187, 572.673
527.514, 528.774
528.841, 724.232
530.167, 670.966
531.493, 880.952
532.820, 919.273
534.145, 1009.776
535.471, 1242.004
536.796, 1240.319
538.122, 1477.659
539.447, 1493.137
540.771, 1412.761
542.096, 1638.844
543.420, 1360.199
544.744, 1517.394
546.068, 1326.053
547.392, 1203.749
548.715, 1282.201
550.039, 1044.250
551.362, 1196.208
552.684, 1033.731
554.007, 997.624
555.329, 1032.451
556.652, 918.518
557.973, 1127.652
559.295, 991.547
560.617, 1076.015
561.938, 1189.620
563.259, 1100.930
564.580, 1439.603
565.901, 1307.380
567.221, 1531.568
568.541, 1662.541
569.861, 1682.357
571.181, 2125.563
572.501, 2098.878
573.820, 2562.005
575.139, 2859.327
576.458, 3195.343
577.777, 3938.506
579.095, 4115.504
580.414, 5119.651
581.732, 5771.941
583.049, 6237.428
584.367, 7523.679
585.685, 7139.944
587.002, 8168.597
588.319, 7441.700
589.636, 7124.258
590.952, 6745.029
592.268, 5385.890
593.585, 5135.775
594.900, 4121.468
596.216, 3530.847
597.532, 3332.626
598.847, 2482.271
600.162, 2499.038
601.477, 2019.666
602.792, 1807.286
604.106, 1736.903
605.420, 1372.513
606.734, 1421.114
608.048, 1227.717
609.361, 1189.313
610.675, 1150.996
611.988, 1199.513
613.301, 1104.102
614.614, 973.688
615.926, 1022.267
617.238, 1015.843
618.550, 903.413
619.862, 1070.977
621.174, 1109.535
622.485, 1085.074
623.797, 1130.633
625.108, 1017.173
626.418, 1230.708
627.729, 1083.244
629.039, 1241.775
630.349, 1275.301
631.659, 1183.820
632.969, 1392.334
634.279, 1220.843
635.588, 1338.347
636.897, 1325.665
638.206, 1317.157
639.515, 1485.644
640.823, 1357.126
642.131, 1585.603
643.439, 1624.074
644.747, 1610.540
646.055, 1981.001
647.362, 1799.458
648.669, 2140.910
649.976, 2254.357
651.283, 2373.801
652.589, 2824.239
653.896, 2641.674
655.202, 3235.105
656.508, 3361.183
657.814, 3498.606
659.119, 4151.671
660.424, 4057.044
661.729, 4701.455
663.034, 4850.609
664.339, 4763.013
665.643, 5207.154
666.947, 4700.538
668.251, 5114.901
669.555, 4577.000
670.859, 4219.389
672.162, 4185.676
673.465, 3324.062
674.768, 3367.449
676.071, 2735.838
677.373, 2417.248
678.676, 2314.661
679.978, 1791.114
681.280, 1763.574
682.581, 1436.054
683.883, 1231.560
685.184, 1220.073
686.485, 953.607
687.786, 949.145
689.087, 797.686
690.387, 636.230
691.687, 660.775
692.987, 507.321
694.287, 501.871
695.586, 433.426
696.886, 334.987
698.185, 379.558
699.484, 241.171
700.783, 258.813
702.081, 204.523
703.379, 165.272
704.677, 197.082
705.975, 62.933
707.273, 89.126
708.570, 68.358
709.868, 43.791
711.165, 83.836
712.462, 20.925
713.758, 67.039
715.055, 92.183
716.351, 39.666
717.647, 81.482
718.943, 36.365
720.238, 28.774
721.533, 26.918
722.829, 76.735
724.124, 55.376
725.418, 83.509
726.713, 21.434
728.007, 0.631
729.301, 86.118
730.595, 52.904
731.889, 82.073
733.182, 6.035
734.476, 2.059
735.769, 119.933
737.061, 5.026
738.354, 109.125
739.647, 41.284
740.939, 4.466
742.231, 111.655
743.523, 20.904
744.814, 94.167
746.106, 13.925
747.397, 8.750
748.688, 66.578
749.978, 44.058
751.269, 25.307
752.559, 18.627
753.849, 90.245
755.139, 16.863
756.429, 114.481
757.719, 83.099
759.008, 132.868
760.297, 292.487
761.586, 252.106
762.875, 464.847
764.163, 410.468
765.451, 623.576
766.739, 775.197
768.027, 708.819
769.315, 869.459
770.602, 709.082
771.890, 635.290
773.177, 623.106
774.463, 383.729
775.750, 406.606
777.036, 374.229
778.323, 267.854
779.609, 298.587
780.894, 172.212
782.180, 289.758
783.465, 294.384
784.750, 237.011
786.035, 387.638
787.320, 315.266
788.605, 586.175
789.889, 697.804
791.173, 721.433
792.457, 1021.064
793.741, 1001.695
795.024, 1152.327
796.307, 1032.960
797.591, 726.593
798.873, 733.227
800.156, 540.862
801.439, 394.498
802.721, 361.134
804.003, 286.771
805.285, 285.409
806.566, 173.048
807.848, 197.688
809.129, 226.328
810.410, 66.969
811.691, 186.613
812.971, 119.258
814.252, 100.906
815.532, 210.554
816.812, 90.204
818.092, 200.856
819.371, 199.508
820.651, 174.164
821.930, 267.820
823.209, 176.477
824.488, 301.137
825.766, 258.798
827.045, 256.460
828.323, 421.123
829.601, 279.788
830.878, 431.454
832.156, 424.121
833.433, 358.789
834.710, 525.457
835.987, 414.127
837.264, 486.809
838.540, 541.491
839.817, 445.175
841.093, 591.858
842.369, 392.543
843.644, 450.228
844.920, 473.914
846.195, 357.600
847.470, 483.297
848.745, 383.994
850.020, 323.692
851.294, 438.391
852.568, 240.091
853.842, 358.791
855.116, 310.491
856.390, 221.191
857.663, 366.903
858.936, 189.614
860.209, 276.325
861.482, 241.034
862.755, 163.743
864.027, 302.408
865.299, 110.114
866.571, 186.682
867.843, 243.390
869.115, 101.097
870.386, 224.688
871.657, 102.393
872.928, 105.127
874.199, 126.727
875.470, 18.317
876.740, 185.514
878.010, 31.216
879.280, 56.952
880.550, 138.391
881.820, 12.812
883.089, 150.321
884.358, 39.022
885.627, 11.754
886.896, 182.888
888.164, 8.196
889.433, 111.506
890.701, 106.666
891.969, 27.635
893.236, 60.831
894.504, 18.006
895.771, 43.784
897.038, 107.106
898.305, 32.028
899.572, 102.609
900.838, 40.149
902.105, 33.663
903.371, 42.306
904.637, 8.630
905.902, 101.968
907.168, 99.924
908.433, 69.819
909.698, 80.042
910.963, 27.216
912.228, 114.517
913.492, 28.252
914.757, 45.010
916.021, 82.710
917.285, 68.567
918.548, 113.139
919.812, 58.953
921.075, 24.445
922.338, 45.258
923.601, 15.038
924.864, 5.338
926.126, 79.361
927.388, 6.938
928.650, 65.768
929.912, 11.475
931.174, 2.816
932.435, 84.894
933.697, 41.395
934.958, 84.301
936.218, 51.999
937.479, 19.698
938.739, 80.400
940.000, 7.897
941.260, 25.805
942.520, 88.509
943.779, 16.214
945.039, 128.921
946.298, 9.630
947.557, 28.340
948.816, 152.053
950.074, 17.768
951.333, 151.484
952.591, 68.205
953.849, 70.927
955.107, 151.652
956.365, 35.378
957.622, 132.105
958.879, 122.835
960.136, 57.567
961.393, 165.301
962.650, 149.036
963.906, 123.773
965.162, 242.512
966.418, 95.253
967.674, 277.995
968.930, 244.739
970.185, 264.485
971.441, 444.232
972.696, 371.981
973.950, 569.732
975.205, 469.485
976.459, 254.239
977.714, 342.995
978.968, 159.752
980.222, 194.511
981.475, 252.271
982.729, 114.034
983.982, 236.799
985.235, 196.564
986.488, 149.331
987.740, 272.791
988.993, 176.561
990.245, 253.332
991.497, 244.138
992.749, 203.912
994.000, 283.817
995.252, 204.594
996.503, 304.373
997.754, 376.440
999.005, 300.221
1000.256, 538.094
1001.506, 466.029
1002.756, 529.814
1004.006, 791.714
1005.256, 716.501
1006.506, 1047.289
1007.755, 1156.984
1009.005, 1219.773
1010.254, 1267.240
1011.502, 1177.435
1012.751, 1084.235
1014.000, 986.202
1015.248, 717.122
1016.496, 764.926
1017.744, 599.054
1018.991, 516.860
1020.239, 623.773
1021.486, 442.133
1022.733, 541.952
1023.980, 463.832
1025.227, 411.663
1026.473, 580.353
1027.719, 456.982
1028.965, 516.835
1030.211, 612.882
1031.457, 453.304
1032.702, 644.008
1033.948, 642.126
1035.193, 646.170
1036.438, 824.058
1037.682, 684.513
1038.927, 963.310
1040.171, 932.401
1041.415, 956.533
1042.659, 1311.554
1043.903, 1263.796
1045.146, 1505.991
1046.390, 1758.101
1047.633, 1687.584
1048.876, 2498.127
1050.118, 2622.235
1051.361, 2920.624
1052.603, 3825.749
1053.845, 4153.291
1055.087, 5631.181
1056.329, 6893.316
1057.571, 8063.659
1058.812, 11113.794
1060.053, 12404.078
1061.294, 14643.123
1062.535, 16203.253
1063.775, 13563.726
1065.016, 13101.735
1066.256, 10111.866
1067.496, 7541.330
1068.736, 6641.458
1069.975, 4547.757
1071.214, 3933.073
1072.454, 3311.199
1073.693, 2307.742
1074.931, 2284.676
1076.170, 1689.802
1077.408, 1377.098
1078.647, 1366.223
1079.885, 1004.430
1081.122, 960.557
1082.360, 951.680
1083.597, 679.883
1084.835, 777.006
1086.072, 581.126
1087.308, 568.477
1088.545, 653.617
1089.781, 525.476
1091.018, 617.614
1092.254, 569.750
1093.490, 445.923
1094.725, 504.057
1095.961, 384.189
1097.196, 313.476
1098.431, 406.605
1099.666, 234.818
1100.900, 340.510
1102.135, 277.635
1103.369, 246.407
1104.603, 313.982
1105.837, 231.101
1107.071, 243.444
1108.304, 284.560
1109.538, 209.674
1110.771, 313.996
1112.004, 299.106
1113.236, 298.236
1114.469, 425.344
1115.701, 323.449
1116.933, 460.692
1118.165, 489.793
1119.397, 349.892
1120.629, 398.192
1121.860, 252.299
1123.091, 204.433
1124.322, 398.585
1125.553, 462.693
1126.783, 245.883
1128.014, 160.986
1129.244, 34.086
1130.474, 408.435
1131.704, 70.529
1132.933, 89.619
1134.163, 109.708
1135.392, 42.207
1136.621, 93.968
1137.850, 40.025
1139.079, 26.078
1140.307, 113.299
1141.535, 4.345
1142.763, 63.387
1143.991, 97.584
1145.219, 34.382
1146.446, 64.838
1147.674, 16.844
1148.901, 2.845
1150.128, 131.004
1151.354, 13.000
1152.581, 47.062
1153.807, 96.125
1155.033, 42.891
1156.259, 77.125
1157.485, 55.305
1158.710, 25.251
1159.936, 120.889
1161.161, 6.916
1162.386, 18.846
1163.611, 74.142
1164.835, 15.937
1166.060, 90.069
1167.284, 24.210
1168.508, 2.895
1169.732, 99.136
1170.955, 39.187
1172.179, 65.060
1173.402, 39.246
1174.625, 21.891
1175.848, 105.951
1177.070, 14.536
1178.293, 1.634
1179.515, 103.011
1180.737, 11.892
1181.959, 26.904
1183.181, 105.209
1184.402, 31.880
1185.624, 118.874
1186.845, 36.862
1188.066, 25.398
1189.286, 97.465
1190.507, 13.396
1191.727, 26.092
1192.947, 54.055
1194.167, 13.107
1195.387, 138.550
1196.607, 66.646
1197.826, 10.706
1199.045, 148.983
1200.264, 4.083
1201.483, 51.691
1202.702, 91.385
1203.920, 24.901
1205.138, 132.661
1206.356, 34.509
1207.574, 56.053
1208.792, 142.592
1210.009, 8.486
1211.227, 102.003
1212.444, 87.552
1213.661, 33.719
1214.877, 149.770
1216.094, 33.432
1217.310, 25.084
1218.526, 134.545
1219.742, 76.675
1220.958, 82.119
1222.173, 148.555
1223.389, 10.496
1224.604, 132.908
1225.819, 58.363
1227.034, 52.118
1228.248, 148.491
1229.463, 87.484
1230.677, 137.957
1231.891, 116.334
1233.105, 36.097
1234.318, 144.479
1235.532, 170.903
1236.745, 96.438
1237.958, 164.741
1239.171, 79.227
1240.384, 93.725
1241.596, 176.003
1242.809, 52.594
1244.021, 202.865
1245.233, 70.121
1246.444, 10.651
1247.656, 190.888
1248.867, 67.199
1250.079, 121.792
1251.290, 170.005
1252.500, 39.466
1253.711, 150.788
1254.921, 103.975
1256.132, 44.425
1257.342, 168.594
1258.552, 89.814
1259.761, 95.423
1260.971, 155.566
1262.180, 62.911
1263.389, 161.395
1264.598, 139.510
1265.807, 54.760
1267.015, 180.021
1268.223, 94.107
1269.432, 93.472
1270.640, 143.529
1271.847, 83.576
1273.055, 161.969
1274.262, 123.995
1275.470, 45.138
1276.677, 165.141
1277.883, 122.136
1279.090, 138.453
1280.296, 208.475
1281.503, 76.730
1282.709, 137.229
1283.915, 206.147
1285.120, 65.019
1286.326, 160.194
1287.531, 145.948
1288.736, 68.820
1289.941, 227.679
1291.146, 55.240
1292.350, 130.123
1293.555, 226.859
1294.759, 67.523
1295.963, 133.580
1297.167, 91.260
1298.370, 90.043
1299.574, 228.284
1300.777, 92.137
1301.980, 51.884
1303.183, 165.725
1304.386, 7.635
1305.588, 86.220
1306.790, 172.701
1307.993, 31.217
1309.195, 149.220
1310.396, 83.506
1311.598, 50.103
1312.799, 234.105
1314.000, 73.136
1315.201, 67.694
1316.402, 170.306
1317.603, 37.836
1318.803, 174.438
1320.003, 128.164
1321.203, 9.648
1322.403, 158.221
1323.603, 7.107
1324.802, 41.486
1326.002, 196.935
1327.201, 5.847
1328.400, 77.480
1329.599, 127.282
1330.797, 2.430
1331.995, 150.735
1333.194, 68.847
1334.392, 51.084
1335.589, 153.097
1336.787, 39.146
1337.985, 67.276
1339.182, 131.052
1340.379, 21.184
1341.576, 142.297
1342.772, 89.359
1343.969, 17.431
1345.165, 164.077
1346.361, 81.035
1347.557, 74.042
1348.753, 211.964
1349.949, 33.932
1351.144, 101.725
1352.339, 104.767
1353.534, 25.669
1354.729, 137.211
1355.924, 94.259
1357.118, 49.106
1358.312, 131.114
1359.506, 56.084
1360.700, 55.697
1361.894, 165.254
1363.088, 4.001
1364.281, 193.721
1365.474, 129.691
1366.667, 11.368
1367.860, 130.593
1369.052, 84.646
1370.245, 22.159
1371.437, 153.623
1372.629, 5.276
1373.821, 71.707
1375.013, 92.544
1376.204, 73.149
1377.395, 84.267
1378.586, 72.861
1379.777, 45.438
1380.968, 173.961
1382.159, 54.346
1383.349, 49.785
1384.539, 205.700
1385.729, 30.079
1386.919, 98.309
1388.109, 141.761
1389.298, 34.967
1390.487, 182.355
1391.676, 81.594
1392.865, 24.969
1394.054, 185.082
1395.242, 40.300
1396.431, 71.471
1397.619, 187.720
1398.807, 37.656
1399.995, 124.866
1401.182, 87.930
1402.370, 18.126
1403.557, 134.095
1404.744, 52.058
1405.931, 27.949
1407.118, 196.098
1408.304, 35.983
1409.490, 63.931
1410.676, 207.949
1411.862, 22.258
1413.048, 139.433
1414.234, 128.968
1415.419, 27.850
1416.604, 138.525
1417.789, 72.076
1418.974, 102.602
1420.159, 195.568
1421.343, 30.446
1422.528, 87.761
1423.712, 201.434
1424.896, 9.143
1426.079, 153.158
1427.263, 164.479
1428.446, 34.932
1429.629, 234.562
1430.812, 295.737
1431.995, 264.737
1433.178, 355.447
1434.360, 89.114
1435.543, 109.495
1436.725, 157.739
1437.907, 6.454
1439.088, 138.036
1440.270, 153.275
1441.451, 15.929
1442.632, 207.804
1443.813, 122.708
1444.994, 74.768
1446.175, 253.424
1447.355, 64.013
1448.535, 106.879
1449.715, 185.880
1450.895, 16.128
1452.075, 173.294
1453.255, 141.163
1454.434, 5.074
1455.613, 233.381
1456.792, 115.987
1457.971, 62.501
1459.149, 244.215
1460.328, 57.380
1461.506, 103.527
1462.684, 222.305
1463.862, 19.374
1465.040, 194.875
1466.217, 119.638
1467.395, 16.410
1468.572, 212.733
1469.749, 135.354
1470.925, 92.793
1472.102, 275.674
1473.278, 90.203
1474.455, 139.787
1475.631, 234.192
1476.807, 82.381
1477.982, 185.647
1479.158, 162.366
1480.333, 61.611
1481.508, 173.448
1482.683, 167.789
1483.858, 12.989
1485.033, 240.272
1486.207, 65.001
1487.381, 92.259
1488.555, 257.134
1489.729, 28.742
1490.903, 136.921
1492.076, 228.706
1493.250, 17.611
1494.423, 183.962
1495.596, 148.279
1496.769, 16.527
1497.941, 215.660
1499.114, 87.790
1500.286, 20.777
1501.458, 209.933
1502.630, 94.958
1503.802, 76.159
1504.973, 214.877
1506.145, 5.062
1507.316, 151.161
1508.487, 200.615
1509.657, 2.319
1510.828, 195.023
1511.999, 183.126
1513.169, 30.943
1514.339, 260.566
1515.509, 0.126
1516.678, 44.914
1517.848, 0.000
##END=



