##NAMES=Fluorophlogopite
##RRUFFID=R040075
##IDEAL CHEMISTRY=KMg_3_(Si_3_Al)O_10_F_2_
##LOCALITY=unknown
##OWNER=RRUFF
##SOURCE=University of Arizona Mineral Museum
##DESCRIPTION=Green hexagonal tablet
##STATUS=The identification of this mineral has been confirmed by X-ray diffraction and chemical analysis
##URL=rruff.info/R040075
##MEASURED CHEMISTRY=(K_0.93_[box]_0.04_Na_0.03_)(Mg_0.66_Fe_0.30_Ti_0.02_)_3_(Si_0.75_Al_0.25_)_4_O_10_(F_0.90_(OH)_0.06_Cl_0.04_)
##PIN_ID=L00455
##ORIENTATION=Laser parallel to [1 0 1]. Fiducial mark perpendicular to laser is parallel to b* (0 1 0)
160.066, 0.000
161.452, 49.237
162.839, 1.417
164.225, 53.680
165.611, 65.833
166.996, 52.683
168.381, 83.315
169.767, 175.449
171.152, 199.969
172.536, 224.127
173.921, 294.704
175.305, 333.704
176.689, 363.100
178.073, 445.774
179.456, 536.878
180.839, 635.982
182.222, 687.401
183.605, 877.734
184.988, 980.232
186.370, 1103.516
187.752, 1094.912
189.134, 1091.229
190.516, 1086.380
191.898, 1122.161
193.279, 949.339
194.660, 893.876
196.041, 899.374
197.421, 771.046
198.801, 685.181
200.182, 637.461
201.561, 624.309
202.941, 570.247
204.321, 479.510
205.700, 447.553
207.079, 415.226
208.457, 374.583
209.836, 354.581
211.214, 284.367
212.592, 291.835
213.970, 254.542
215.348, 156.176
216.725, 167.363
218.102, 149.481
219.479, 95.524
220.856, 103.486
222.232, 77.654
223.608, 48.361
224.984, 52.307
226.360, 42.959
227.736, 24.940
229.111, 13.266
230.486, 38.666
231.861, 0.639
233.236, 20.766
234.610, 32.630
235.984, 21.715
237.358, 31.543
238.732, 18.467
240.105, 10.999
241.479, 34.353
242.852, 42.496
244.224, 47.972
245.597, 51.698
246.969, 51.025
248.342, 45.667
249.713, 40.407
251.085, 36.658
252.457, 21.348
253.828, 71.018
255.199, 62.842
256.570, 138.699
257.940, 116.968
259.310, 121.574
260.681, 130.437
262.050, 202.230
263.420, 168.705
264.790, 255.127
266.159, 300.851
267.528, 319.995
268.896, 334.314
270.265, 386.468
271.633, 494.078
273.001, 495.055
274.369, 541.908
275.737, 635.769
277.104, 568.394
278.471, 663.893
279.838, 625.280
281.205, 555.519
282.572, 575.604
283.938, 448.529
285.304, 402.331
286.670, 335.030
288.035, 315.629
289.401, 272.523
290.766, 277.565
292.131, 222.944
293.495, 201.271
294.860, 196.552
296.224, 124.016
297.588, 165.615
298.952, 122.672
300.315, 179.169
301.679, 124.785
303.042, 177.582
304.405, 122.815
305.767, 194.503
307.130, 100.258
308.492, 181.100
309.854, 168.879
311.216, 258.582
312.578, 233.516
313.939, 285.141
315.300, 233.036
316.661, 325.309
318.021, 382.349
319.382, 387.397
320.742, 370.565
322.102, 335.747
323.462, 341.977
324.821, 324.858
326.181, 314.756
327.540, 291.523
328.899, 274.197
330.257, 284.745
331.616, 278.151
332.974, 252.408
334.332, 257.047
335.690, 242.440
337.047, 242.207
338.405, 231.803
339.762, 221.226
341.119, 227.473
342.475, 225.540
343.832, 211.424
345.188, 280.117
346.544, 198.624
347.900, 319.949
349.255, 271.099
350.610, 305.068
351.965, 277.854
353.320, 308.459
354.675, 352.877
356.029, 303.114
357.384, 304.163
358.738, 347.978
360.091, 359.599
361.445, 335.055
362.798, 380.258
364.151, 374.645
365.504, 398.998
366.857, 380.587
368.209, 374.068
369.561, 343.396
370.913, 340.630
372.265, 316.688
373.617, 285.601
374.968, 270.173
376.319, 285.736
377.670, 349.113
379.021, 303.958
380.371, 371.880
381.721, 337.637
383.071, 353.912
384.421, 364.254
385.770, 358.798
387.120, 378.393
388.469, 334.042
389.818, 375.519
391.166, 361.565
392.515, 376.688
393.863, 391.030
395.211, 380.940
396.559, 350.824
397.906, 413.994
399.254, 382.567
400.601, 441.512
401.948, 398.259
403.294, 397.464
404.641, 378.192
405.987, 373.398
407.333, 425.727
408.679, 390.869
410.025, 405.668
411.370, 382.890
412.715, 371.998
414.060, 391.458
415.405, 429.117
416.749, 331.566
418.093, 396.887
419.437, 379.883
420.781, 331.672
422.125, 341.475
423.468, 318.330
424.811, 283.545
426.154, 311.649
427.497, 296.150
428.839, 304.988
430.182, 234.837
431.524, 253.710
432.866, 221.707
434.207, 239.759
435.549, 131.870
436.890, 149.200
438.231, 120.039
439.572, 136.944
440.912, 92.689
442.252, 90.924
443.593, 85.624
444.932, 57.433
446.272, 31.277
447.611, 27.558
448.951, 13.213
450.290, 0.762
451.628, 23.431
452.967, 15.342
454.305, 29.320
455.644, 39.388
456.981, 51.515
458.319, 73.482
459.657, 50.021
460.994, 57.781
462.331, 44.315
463.668, 11.130
465.004, 45.751
466.341, 94.640
467.677, 9.709
469.013, 75.445
470.348, 14.257
471.684, 22.796
473.019, 27.130
474.354, 4.722
475.689, 92.585
477.024, 60.603
478.358, 130.940
479.692, 193.452
481.026, 214.943
482.360, 180.417
483.694, 203.750
485.027, 257.103
486.360, 218.341
487.693, 353.493
489.026, 342.505
490.358, 330.402
491.691, 450.301
493.023, 440.130
494.354, 416.812
495.686, 461.472
497.017, 471.032
498.349, 481.187
499.680, 512.994
501.010, 516.353
502.341, 517.704
503.671, 543.374
505.001, 633.228
506.331, 614.700
507.661, 630.800
508.990, 635.380
510.319, 631.728
511.648, 641.190
512.977, 572.513
514.306, 686.939
515.634, 612.526
516.962, 660.882
518.290, 669.222
519.618, 636.730
520.945, 586.274
522.273, 632.700
523.600, 681.287
524.927, 620.859
526.253, 625.426
527.580, 637.984
528.906, 712.535
530.232, 641.965
531.558, 665.385
532.883, 656.703
534.208, 622.903
535.534, 699.044
536.858, 608.262
538.183, 694.752
539.508, 645.055
540.832, 658.609
542.156, 624.061
543.480, 671.602
544.803, 528.165
546.127, 715.723
547.450, 610.278
548.773, 634.755
550.096, 698.313
551.418, 524.872
552.741, 657.437
554.063, 583.997
555.385, 623.560
556.706, 592.120
558.028, 507.677
559.349, 536.246
560.670, 545.825
561.991, 474.411
563.312, 472.001
564.632, 492.604
565.952, 435.218
567.272, 461.828
568.592, 409.447
569.911, 331.064
571.231, 358.677
572.550, 284.285
573.869, 284.906
575.187, 253.525
576.506, 308.139
577.824, 233.748
579.142, 198.349
580.460, 224.943
581.778, 190.530
583.095, 136.111
584.412, 122.682
585.729, 108.245
587.046, 66.798
588.363, 76.156
589.679, 77.685
590.995, 72.104
592.311, 52.380
593.627, 31.722
594.942, 6.397
596.258, 83.544
597.573, 61.355
598.888, 93.228
600.202, 7.092
601.517, 91.569
602.831, 59.200
604.145, 44.706
605.459, 37.006
606.772, 55.270
608.086, 78.404
609.399, 91.288
610.712, 83.509
612.024, 95.538
613.337, 73.695
614.649, 104.234
615.961, 95.023
617.273, 117.448
618.585, 108.360
619.896, 89.800
621.208, 191.100
622.519, 167.499
623.829, 204.742
625.140, 157.933
626.450, 207.067
627.761, 244.500
629.071, 236.792
630.380, 229.053
631.690, 256.355
632.999, 249.217
634.308, 262.830
635.617, 194.311
636.926, 265.087
638.235, 289.126
639.543, 354.256
640.851, 318.242
642.159, 347.326
643.466, 304.521
644.774, 365.670
646.081, 353.858
647.388, 398.042
648.695, 431.224
650.002, 464.403
651.308, 457.580
652.614, 491.755
653.920, 573.927
655.226, 552.099
656.531, 683.269
657.837, 613.438
659.142, 753.607
660.447, 876.894
661.752, 805.061
663.056, 955.465
664.360, 1059.631
665.664, 1192.350
666.968, 1346.743
668.272, 1492.654
669.575, 1667.565
670.879, 1811.941
672.182, 1975.324
673.484, 2111.704
674.787, 2301.500
676.089, 2620.988
677.392, 2611.725
678.694, 2753.778
679.995, 2887.508
681.297, 2791.066
682.598, 2689.771
683.899, 2670.247
685.200, 2530.430
686.501, 2227.573
687.802, 2061.568
689.102, 1866.948
690.402, 1753.177
691.702, 1566.804
693.002, 1410.526
694.301, 1363.401
695.600, 1251.110
696.899, 1163.922
698.198, 1124.579
699.497, 1129.214
700.795, 1043.370
702.093, 1134.336
703.391, 1104.683
704.689, 1137.633
705.987, 1100.877
707.284, 1153.980
708.581, 1153.171
709.878, 1222.270
711.175, 1221.341
712.472, 1267.407
713.768, 1347.562
715.064, 1394.589
716.360, 1368.822
717.656, 1378.867
718.951, 1345.907
720.247, 1521.943
721.542, 1361.973
722.837, 1455.998
724.131, 1347.017
725.426, 1393.030
726.720, 1339.039
728.014, 1292.129
729.308, 1295.126
730.601, 1294.118
731.895, 1203.105
733.188, 1232.086
734.481, 1097.062
735.774, 1204.032
737.067, 1178.997
738.359, 1031.956
739.651, 1000.899
740.943, 1056.784
742.235, 946.606
743.526, 1031.254
744.818, 1064.938
746.109, 969.628
747.400, 979.294
748.691, 960.876
749.981, 919.372
751.271, 911.622
752.562, 946.334
753.851, 1031.956
755.141, 994.711
756.431, 992.952
757.720, 1021.704
759.009, 1014.322
760.298, 1058.882
761.587, 1100.413
762.875, 1138.024
764.163, 1190.746
765.451, 1217.415
766.739, 1183.281
768.027, 1247.099
769.314, 1224.846
770.601, 1172.747
771.888, 1256.641
773.175, 1242.610
774.462, 1152.594
775.748, 1201.574
777.034, 1125.587
778.320, 1154.604
779.606, 1170.636
780.892, 1080.693
782.177, 989.750
783.462, 1017.828
784.747, 876.910
786.032, 851.992
787.317, 868.074
788.601, 788.158
789.885, 778.240
791.169, 662.320
792.453, 654.398
793.736, 631.472
795.019, 576.542
796.303, 511.609
797.585, 448.672
798.868, 457.730
800.151, 341.784
801.433, 327.834
802.715, 337.879
803.997, 241.920
805.279, 268.957
806.560, 209.989
807.841, 224.017
809.122, 190.040
810.403, 136.059
811.684, 122.073
812.964, 133.083
814.245, 46.088
815.525, 85.088
816.804, 18.083
818.084, 90.072
819.363, 1.944
820.643, 20.030
821.922, 10.997
823.201, 19.958
824.479, 23.393
825.758, 21.803
827.036, 21.799
828.314, 2.266
829.592, 14.344
830.869, 18.170
832.147, 6.552
833.424, 33.679
834.701, 14.834
835.977, 33.007
837.254, 29.208
838.530, 24.434
839.807, 23.684
841.082, 37.157
842.358, 27.259
843.634, 72.587
844.909, 46.964
846.184, 64.376
847.459, 50.833
848.734, 16.327
850.008, 49.841
851.283, 1.609
852.557, 8.324
853.831, 23.565
855.105, 4.202
856.378, 12.148
857.651, 20.509
858.925, 9.187
860.197, 6.881
861.470, 43.411
862.743, 63.698
864.015, 53.215
865.287, 41.655
866.559, 45.549
867.831, 52.788
869.102, 24.086
870.373, 73.342
871.645, 89.594
872.915, 79.842
874.186, 84.085
875.457, 115.324
876.727, 91.562
877.997, 124.797
879.267, 109.033
880.536, 43.265
881.806, 127.492
883.075, 86.715
884.344, 163.935
885.613, 114.154
886.882, 149.368
888.150, 201.579
889.419, 142.786
890.687, 202.990
891.954, 173.189
893.222, 168.385
894.490, 212.578
895.757, 158.769
897.024, 183.959
898.291, 207.147
899.557, 195.333
900.824, 221.516
902.090, 287.696
903.356, 270.875
904.622, 285.313
905.888, 297.232
907.153, 251.408
908.418, 254.581
909.683, 206.754
910.948, 267.924
912.213, 302.092
913.477, 263.275
914.741, 273.456
916.005, 291.634
917.269, 334.810
918.533, 322.983
919.796, 334.237
921.060, 315.321
922.323, 322.486
923.585, 336.647
924.848, 327.806
926.111, 335.960
927.373, 362.112
928.635, 393.259
929.897, 344.403
931.158, 344.543
932.420, 385.679
933.681, 307.812
934.942, 342.940
936.203, 346.065
937.463, 267.185
938.724, 308.302
939.984, 346.415
941.244, 354.526
942.504, 369.113
943.764, 362.741
945.023, 364.845
946.282, 319.944
947.541, 307.041
948.800, 342.133
950.059, 371.226
951.317, 322.317
952.575, 371.404
953.833, 351.488
955.091, 368.568
956.349, 384.645
957.606, 284.718
958.864, 371.788
960.121, 314.854
961.377, 312.916
962.634, 330.975
963.891, 326.031
965.147, 315.083
966.403, 295.013
967.659, 298.012
968.914, 295.460
970.170, 299.903
971.425, 310.386
972.680, 319.190
973.935, 336.954
975.190, 261.751
976.444, 276.560
977.698, 269.359
978.952, 329.154
980.206, 267.530
981.460, 306.209
982.713, 294.636
983.967, 336.741
985.220, 261.165
986.473, 330.758
987.725, 256.197
988.978, 302.862
990.230, 308.814
991.482, 265.803
992.734, 257.935
993.986, 298.679
995.237, 313.570
996.488, 309.285
997.739, 313.496
998.990, 307.689
1000.241, 273.088
1001.492, 279.380
1002.742, 221.824
1003.992, 266.286
1005.242, 279.223
1006.492, 223.347
1007.741, 245.085
1008.990, 181.218
1010.239, 212.052
1011.488, 263.025
1012.737, 221.906
1013.986, 212.204
1015.234, 271.198
1016.482, 262.396
1017.730, 230.363
1018.978, 206.445
1020.225, 165.262
1021.473, 288.270
1022.720, 215.272
1023.967, 259.276
1025.213, 324.281
1026.460, 331.069
1027.706, 382.077
1028.953, 287.381
1030.198, 293.392
1031.444, 336.318
1032.690, 342.334
1033.935, 377.410
1035.180, 374.109
1036.425, 313.129
1037.670, 342.151
1038.915, 332.175
1040.159, 427.201
1041.403, 335.229
1042.647, 369.362
1043.891, 385.394
1045.135, 355.642
1046.378, 400.158
1047.621, 391.197
1048.864, 330.238
1050.107, 476.282
1051.350, 378.328
1052.592, 393.376
1053.835, 411.427
1055.077, 400.944
1056.318, 448.037
1057.560, 462.095
1058.802, 400.156
1060.043, 417.219
1061.284, 440.285
1062.525, 506.257
1063.765, 498.328
1065.006, 441.403
1066.246, 451.479
1067.486, 448.559
1068.726, 405.641
1069.966, 472.726
1071.205, 479.814
1072.445, 490.905
1073.684, 519.999
1074.923, 426.096
1076.161, 478.196
1077.400, 552.300
1078.638, 414.406
1079.876, 492.516
1081.114, 460.630
1082.352, 502.747
1083.590, 510.868
1084.827, 468.992
1086.064, 482.120
1087.301, 481.955
1088.538, 484.388
1089.775, 500.021
1091.011, 490.165
1092.247, 498.160
1093.483, 485.312
1094.719, 487.469
1095.955, 417.629
1097.190, 429.795
1098.425, 406.914
1099.660, 432.502
1100.895, 404.667
1102.130, 397.835
1103.364, 450.008
1104.598, 304.179
1105.833, 320.343
1107.066, 254.511
1108.300, 294.683
1109.534, 210.854
1110.767, 220.028
1112.000, 229.208
1113.233, 152.390
1114.466, 197.569
1115.698, 87.754
1116.930, 118.943
1118.163, 147.138
1119.394, 114.331
1120.626, 88.547
1121.858, 94.771
1123.089, 76.212
1124.320, 80.693
1125.551, 86.309
1126.782, 90.493
1128.013, 90.987
1129.243, 87.312
1130.473, 83.086
1131.703, 80.303
1132.933, 60.529
1134.163, 68.770
1135.392, 29.021
1136.621, 61.280
1137.850, 37.539
1139.079, 91.811
1140.308, 84.079
1141.536, 47.354
1142.765, 73.642
1143.993, 114.953
1145.221, 90.282
1146.448, 44.633
1147.676, 97.002
1148.903, 51.393
1150.130, 11.789
1151.357, 33.189
1152.584, 68.614
1153.810, 16.052
1155.037, 76.495
1156.263, 25.943
1157.489, 24.401
1158.715, 39.171
1159.940, 70.644
1161.166, 30.880
1162.391, 37.594
1163.616, 7.927
1164.841, 3.404
1166.065, 2.917
1167.290, 33.580
1168.514, 0.102
1169.738, 31.612
1170.962, 20.109
1172.185, 19.613
1173.409, 19.881
1174.632, 31.627
1175.855, 28.863
1177.078, 53.650
1178.301, 20.230
1179.523, 43.100
1180.746, 2.726
1181.968, 17.151
1183.190, 9.430
1184.412, 15.018
1185.633, 16.614
1186.855, 11.036
1188.076, 11.681
1189.297, 3.564
1190.518, 8.058
1191.738, 6.313
1192.959, 11.713
1194.179, 26.965
1195.399, 2.599
1196.619, 26.224
1197.838, 47.857
1199.058, 56.498
1200.277, 29.149
1201.496, 10.192
1202.715, 0.523
1203.934, 3.425
1205.152, 3.843
1206.371, 30.539
1207.589, 44.246
1208.807, 65.041
1210.024, 16.675
1211.242, 33.395
1212.459, 27.125
1213.677, 46.852
1214.894, 49.586
1216.110, 6.330
1217.327, 29.085
1218.543, 18.850
1219.760, 32.627
1220.976, 37.729
1222.192, 10.215
1223.407, 47.026
1224.623, 44.849
1225.838, 47.684
1227.053, 31.534
1228.268, 35.014
1229.483, 30.273
1230.697, 44.162
1231.912, 55.066
1233.126, 87.982
1234.340, 72.913
1235.554, 4.143
1236.767, 56.815
1237.981, 9.214
1239.194, 62.769
1240.407, 31.764
1241.620, 18.771
1242.832, 37.788
1244.045, 10.539
1245.257, 1.899
1246.469, 19.889
1247.681, 36.893
1248.893, 27.921
1250.104, 38.465
1251.315, 33.503
1252.527, 50.977
1253.738, 42.863
1254.948, 51.490
1256.159, 88.491
1257.369, 97.502
1258.579, 91.303
1259.789, 103.819
1260.999, 61.815
1262.209, 96.829
1263.418, 54.851
1264.628, 32.695
1265.837, 17.709
1267.046, 17.730
1268.254, 11.004
1269.463, 23.086
1270.671, 42.576
1271.879, 54.390
1273.087, 83.199
1274.295, 82.001
1275.502, 68.794
1276.710, 40.576
1277.917, 73.345
1279.124, 45.098
1280.331, 54.832
1281.537, 64.930
1282.744, 27.722
1283.950, 69.250
1285.156, 83.349
1286.362, 85.218
1287.568, 114.562
1288.773, 70.946
1289.978, 60.324
1291.184, 39.702
1292.389, 78.025
1293.593, 11.355
1294.798, 32.616
1296.002, 72.786
1297.206, 32.009
1298.410, 88.534
1299.614, 59.015
1300.818, 90.448
1302.021, 38.828
1303.225, 5.851
1304.428, 33.595
1305.631, 25.211
1306.833, 35.061
1308.036, 22.955
1309.238, 9.906
1310.440, 55.812
1311.642, 101.944
1312.844, 18.177
1314.045, 54.544
1315.247, 56.813
1316.448, 53.003
1317.649, 63.459
1318.850, 93.538
1320.051, 37.913
1321.251, 79.519
1322.451, 19.552
1323.651, 0.261
1324.851, 0.000
##END=



