##NAMES=Fluorapophyllite-(K)
##RRUFFID=R050084
##IDEAL CHEMISTRY=KCa_4_Si_8_O_20_F&#183;8H_2_O
##LOCALITY=near Ahmednagar, Maharashtra, India
##OWNER=RRUFF
##SOURCE=Rock Currier
##DESCRIPTION=Greenish-white prismatic single crystal associated with scolecite
##STATUS=The identification of this mineral has been confirmed by X-ray diffraction and chemical analysis
##URL=rruff.info/R050084
##MEASURED CHEMISTRY=(K_0.98_Na_0.02_)Ca_4.00_Si_8.00_O_20_F_1.00_Â·8H_2_O
##PIN_ID=L00128
##ORIENTATION=Laser parallel to c* (0 0 1). Fiducial mark perpendicular to laser is parallel to a [1 0 0]
97.121, 0.000
98.519, 7.829
99.917, 295.080
101.314, 199.933
102.712, 603.820
104.109, 745.106
105.505, 1377.849
106.902, 3519.068
108.298, 5302.240
109.694, 7605.476
111.090, 4619.135
112.486, 2916.078
113.881, 1786.128
115.277, 1068.851
116.672, 1277.670
118.066, 835.870
119.461, 1974.087
120.855, 3700.935
122.249, 5393.182
123.643, 3705.312
125.036, 2872.706
126.430, 3216.588
127.823, 2047.916
129.216, 2077.654
130.608, 1738.775
132.001, 2624.297
133.393, 2715.239
134.785, 2283.617
136.176, 1648.668
137.568, 524.352
138.959, 622.021
140.350, 103.061
141.741, 354.429
143.131, 104.109
144.521, 1.068
145.911, 163.279
147.301, 301.288
148.691, 250.349
150.080, 163.831
151.469, 188.156
152.858, 272.284
154.247, 287.539
155.635, 755.910
157.024, 637.390
158.411, 1613.971
159.799, 1890.646
161.187, 3632.405
162.574, 5084.253
163.961, 5650.483
165.348, 5907.055
166.734, 3571.216
168.121, 3006.687
169.507, 1581.323
170.893, 1151.534
172.278, 662.276
173.664, 133.905
175.049, 272.845
176.434, 270.298
177.819, 445.432
179.203, 87.128
180.587, 645.915
181.971, 1038.599
183.355, 1791.234
184.739, 3813.841
186.122, 4622.428
187.505, 4928.664
188.888, 5599.937
190.271, 4538.477
191.653, 3421.526
193.035, 2023.032
194.417, 2100.509
195.799, 1277.958
197.180, 1665.384
198.562, 1211.787
199.943, 1530.170
201.324, 1873.528
202.704, 1777.863
204.084, 2976.172
205.465, 2951.342
206.844, 4969.325
208.224, 6077.243
209.603, 8285.152
210.983, 10933.053
212.362, 10630.942
213.740, 11768.827
215.119, 8726.700
216.497, 7784.563
217.875, 6292.419
219.253, 5070.366
220.631, 5098.135
222.008, 3796.895
223.385, 4413.654
224.762, 3541.410
226.139, 4135.373
227.515, 4377.486
228.891, 4562.208
230.267, 5323.174
231.643, 4108.865
233.018, 4732.298
234.394, 3472.488
235.769, 3098.717
237.144, 2585.212
238.518, 1688.142
239.893, 1763.375
241.267, 730.294
242.641, 1123.375
244.014, 512.707
245.388, 462.078
246.761, 556.291
248.134, 22.226
249.507, 498.588
250.879, 5.938
252.252, 491.787
253.624, 137.532
254.996, 98.987
256.367, 335.649
257.739, 76.952
259.110, 590.078
260.481, 44.573
261.852, 498.022
263.222, 529.410
264.592, 498.896
265.962, 1219.150
267.332, 788.735
268.702, 1642.558
270.071, 1093.546
271.440, 1328.650
272.809, 1141.842
274.178, 432.101
275.546, 796.384
276.915, 162.644
278.283, 653.889
279.650, 371.128
281.018, 265.367
282.385, 616.608
283.752, 146.835
285.119, 818.051
286.486, 254.247
287.852, 905.951
289.218, 825.442
290.584, 833.963
291.950, 1620.514
293.316, 1228.090
294.681, 2496.839
296.046, 2303.461
297.411, 3174.102
298.775, 3918.761
300.140, 3430.436
301.504, 4310.122
302.868, 2963.559
304.231, 3060.009
305.595, 2174.470
306.958, 1725.940
308.321, 1791.418
309.684, 806.703
311.047, 1412.193
312.409, 607.289
313.771, 783.787
315.133, 794.874
316.495, 388.375
317.856, 898.227
319.217, 226.730
320.578, 810.233
321.939, 456.735
323.299, 544.236
324.660, 799.736
326.020, 360.233
327.380, 1092.727
328.739, 443.215
330.099, 1040.698
331.458, 1065.172
332.817, 883.635
334.176, 1724.086
335.534, 1081.523
336.892, 1986.944
338.251, 1677.661
339.608, 1886.001
340.966, 2097.298
342.323, 1406.523
343.681, 2041.721
345.037, 1012.305
346.394, 1340.469
347.751, 811.875
349.107, 601.007
350.463, 837.121
351.819, 179.217
353.174, 715.296
354.530, 149.988
355.885, 322.030
357.240, 354.055
358.594, 45.937
359.949, 578.030
361.303, 127.975
362.657, 326.911
364.011, 183.780
365.365, 139.368
366.718, 519.417
368.071, 192.814
369.424, 561.875
370.777, 10.452
372.129, 264.190
373.481, 496.816
374.833, 55.571
376.185, 702.998
377.537, 104.449
378.888, 377.049
380.239, 153.531
381.590, 53.002
382.941, 420.420
384.291, 268.172
385.642, 384.137
386.992, 86.569
388.341, 33.673
389.691, 198.894
391.040, 194.872
392.389, 447.251
393.738, 213.700
395.087, 179.286
396.435, 101.196
397.784, 149.937
399.132, 377.846
400.479, 274.418
401.827, 489.189
403.174, 5.216
404.521, 89.376
405.868, 521.858
407.215, 46.718
408.561, 730.602
409.908, 18.835
411.254, 405.308
412.599, 339.491
413.945, 1.531
415.290, 668.527
416.636, 28.742
417.980, 613.815
419.325, 278.821
420.670, 324.201
422.014, 901.200
423.358, 235.308
424.702, 1160.339
426.045, 728.355
427.389, 1344.374
428.732, 1989.412
430.075, 2123.438
431.417, 4535.477
432.760, 5300.500
434.102, 8245.506
435.444, 8020.515
436.786, 5635.505
438.127, 4870.486
439.469, 2385.241
440.810, 2418.190
442.151, 1316.143
443.492, 1021.078
444.832, 1284.999
446.172, 335.604
447.512, 1029.491
448.852, 322.365
450.192, 616.225
451.531, 723.071
452.870, 197.904
454.209, 905.723
455.548, 152.529
456.887, 712.319
458.225, 549.096
459.563, 323.859
460.901, 1104.607
462.238, 393.341
463.576, 1329.061
464.913, 950.769
466.250, 963.462
467.587, 1382.143
468.923, 531.841
470.259, 1310.526
471.596, 452.200
472.931, 724.860
474.267, 769.582
475.603, 142.291
476.938, 890.023
478.273, 91.742
479.608, 714.444
480.942, 509.132
482.276, 225.808
483.611, 966.470
484.944, 227.118
486.278, 1129.752
487.612, 778.373
488.945, 699.980
490.278, 1098.575
491.611, 179.155
492.943, 885.722
494.276, 215.275
495.608, 376.816
496.940, 563.343
498.271, 110.144
499.603, 789.282
500.934, 45.696
502.265, 550.155
503.596, 531.602
504.927, 63.037
506.257, 828.458
507.587, 0.869
508.917, 704.251
510.247, 423.622
511.577, 161.980
512.906, 893.160
514.235, 18.499
515.564, 782.521
516.892, 335.831
518.221, 388.129
519.549, 886.818
520.877, 134.094
522.205, 1005.588
523.533, 425.842
524.860, 579.914
526.187, 877.631
527.514, 214.855
528.841, 1250.182
530.167, 396.387
531.493, 928.127
532.820, 1076.314
534.145, 680.494
535.471, 1536.358
536.796, 682.522
538.122, 1472.292
539.447, 1447.441
540.771, 988.271
542.096, 1971.235
543.420, 811.363
544.744, 1637.803
546.068, 1213.918
547.392, 961.741
548.715, 1580.540
550.039, 492.610
551.362, 1427.618
552.684, 875.708
554.007, 848.150
555.329, 1366.025
556.652, 411.346
557.973, 1482.174
559.295, 813.244
560.617, 893.045
561.938, 1512.109
563.259, 573.859
564.580, 1627.342
565.901, 878.399
567.221, 1430.744
568.541, 1654.799
569.861, 1031.362
571.181, 2298.420
572.501, 1407.477
573.820, 2179.745
575.139, 2512.862
576.458, 2169.416
577.777, 3510.535
579.095, 2761.654
580.414, 4087.483
581.732, 4441.636
583.049, 4385.105
584.367, 6279.261
585.685, 5073.415
587.002, 6594.611
588.319, 6028.763
589.636, 5208.405
590.952, 5882.554
592.268, 3776.700
593.585, 4413.640
594.900, 3277.783
596.216, 2570.183
597.532, 3187.323
598.847, 1704.463
600.162, 2469.862
601.477, 1628.000
602.792, 1523.134
604.106, 1955.269
605.420, 784.402
606.734, 1637.873
608.048, 932.004
609.361, 1069.133
610.675, 1399.262
611.988, 627.390
613.301, 1473.517
614.614, 709.512
615.926, 942.657
617.238, 1386.801
618.550, 593.944
619.862, 1457.087
621.174, 724.236
622.485, 1161.385
623.797, 1296.534
625.108, 676.682
626.418, 1690.782
627.729, 794.952
629.039, 1335.120
630.349, 1530.288
631.659, 796.456
632.969, 1954.622
634.279, 846.646
635.588, 1462.812
636.897, 1498.628
638.206, 927.791
639.515, 1904.954
640.823, 910.116
642.131, 1661.277
643.439, 1641.438
644.747, 1105.600
646.055, 2249.761
647.362, 1243.922
648.669, 2048.082
649.976, 2055.243
651.283, 1672.403
652.589, 2950.562
653.896, 1821.723
655.202, 2960.883
656.508, 2904.719
657.814, 2409.880
659.119, 3904.555
660.424, 2796.716
661.729, 3972.879
663.034, 3897.041
664.339, 3401.205
665.643, 4684.111
666.947, 3288.275
668.251, 4352.442
669.555, 3707.295
670.859, 3051.463
672.162, 4025.003
673.465, 2203.174
674.768, 3003.355
676.071, 2343.537
677.373, 1794.747
678.676, 2435.917
679.978, 1228.181
681.280, 1897.447
682.581, 1346.716
683.883, 883.036
685.184, 1722.394
686.485, 418.818
687.786, 1314.244
689.087, 926.708
690.387, 454.175
691.687, 1387.721
692.987, 153.297
694.287, 978.876
695.586, 695.509
696.886, 250.145
698.185, 1175.783
699.484, 73.454
700.783, 829.125
702.081, 522.885
703.379, 123.646
704.677, 892.448
705.975, 121.742
707.273, 641.007
708.570, 313.825
709.868, 81.355
711.165, 722.494
712.462, 194.652
713.758, 519.102
715.055, 360.913
716.351, 66.273
717.647, 788.593
718.943, 209.538
720.238, 687.238
721.533, 470.018
722.829, 16.131
724.124, 1032.669
725.418, 134.528
726.713, 705.214
728.007, 488.958
729.301, 43.868
730.595, 993.866
731.889, 74.397
733.182, 552.317
734.476, 598.033
735.769, 135.247
737.061, 1033.396
738.354, 144.958
739.647, 539.606
740.939, 572.172
742.231, 108.260
743.523, 1001.247
744.814, 83.245
746.106, 601.215
747.397, 603.677
748.688, 39.859
749.978, 999.579
751.269, 12.982
752.559, 504.446
753.849, 685.875
755.139, 62.693
756.429, 1044.700
757.719, 81.096
759.008, 552.493
760.297, 958.892
761.586, 5.293
762.875, 1199.690
764.163, 497.089
765.451, 779.516
766.739, 1368.919
768.027, 446.324
769.315, 1587.139
770.602, 768.548
771.890, 726.967
773.177, 1401.382
774.463, 138.798
775.750, 1161.748
777.036, 455.168
778.323, 343.591
779.609, 1172.017
780.894, 100.557
782.180, 1051.878
783.465, 592.247
784.750, 323.618
786.035, 1223.990
787.320, 161.364
788.605, 1278.758
789.889, 884.136
791.173, 671.514
792.457, 1728.896
793.741, 604.278
795.024, 1506.661
796.307, 1292.046
797.591, 579.432
798.873, 1584.968
800.156, 354.358
801.439, 908.749
802.721, 931.142
804.003, 94.536
805.285, 1221.931
806.566, 242.329
807.848, 704.727
809.129, 882.127
810.410, 79.528
811.691, 1160.969
812.971, 349.411
814.252, 644.857
815.532, 1107.305
816.812, 12.754
818.092, 1167.201
819.371, 393.649
820.651, 511.108
821.930, 1218.568
823.209, 7.030
824.488, 1252.485
825.766, 626.941
827.045, 429.403
828.323, 1368.337
829.601, 119.803
830.878, 1125.272
832.156, 799.606
833.433, 437.079
834.710, 1739.552
835.987, 1999.029
837.264, 2305.554
838.540, 1086.039
839.817, 406.566
841.093, 1494.096
842.369, 378.830
843.644, 973.361
844.920, 1208.951
846.195, 305.485
847.470, 1550.022
848.745, 395.709
850.020, 846.248
851.294, 1318.788
852.568, 170.328
853.842, 1466.880
855.116, 694.435
856.390, 739.990
857.663, 1461.547
858.936, 168.105
860.209, 1253.568
861.482, 840.127
862.755, 391.685
864.027, 1409.623
865.299, 84.182
866.571, 1002.966
867.843, 831.529
869.115, 168.090
870.386, 1350.876
871.657, 293.438
872.928, 804.188
874.199, 907.755
875.470, 33.322
876.740, 1254.911
878.010, 249.486
879.280, 545.865
880.550, 934.437
881.820, 153.999
883.089, 1144.614
884.358, 206.090
885.627, 303.757
886.896, 1000.237
888.164, 36.719
889.433, 1074.527
890.701, 638.016
891.969, 257.194
893.236, 1349.690
894.504, 32.190
895.771, 830.651
897.038, 825.160
898.305, 54.183
899.572, 1169.702
900.838, 167.227
902.105, 630.939
903.371, 1028.450
904.637, 28.709
905.902, 1177.223
907.168, 360.740
908.433, 458.975
909.698, 1204.478
910.963, 30.986
912.228, 1011.500
913.492, 581.020
914.757, 216.207
916.021, 1246.739
917.285, 5.276
918.548, 877.820
919.812, 736.370
921.075, 79.072
922.338, 1277.472
923.601, 10.023
924.864, 649.581
926.126, 933.146
927.388, 30.280
928.650, 1224.293
929.912, 408.875
931.174, 293.453
932.435, 1245.038
933.697, 92.327
934.958, 1107.246
936.218, 633.772
937.479, 252.306
938.739, 1235.816
940.000, 6.210
941.260, 723.590
942.520, 768.976
943.779, 47.366
945.039, 1089.763
946.298, 21.165
947.557, 593.573
948.816, 960.987
950.074, 0.594
951.333, 1175.005
952.591, 590.435
953.849, 434.869
955.107, 1288.310
956.365, 101.757
957.622, 1085.210
958.879, 804.670
960.136, 149.136
961.393, 1362.609
962.650, 182.090
963.906, 806.577
965.162, 1157.072
966.418, 30.573
967.674, 1255.082
968.930, 389.195
970.185, 469.719
971.441, 1408.251
972.696, 62.792
973.950, 1334.342
975.205, 800.213
976.459, 256.779
977.714, 1398.354
978.968, 33.062
980.222, 795.522
981.475, 1009.116
982.729, 20.281
983.982, 1186.335
985.235, 322.951
986.488, 299.581
987.740, 1188.139
988.993, 134.198
990.245, 1040.446
991.497, 534.109
992.749, 74.214
994.000, 871.464
995.252, 294.840
996.503, 437.800
997.754, 745.085
999.005, 41.231
1000.256, 1410.466
1001.506, 570.187
1002.756, 801.933
1004.006, 1767.500
1005.256, 495.302
1006.506, 1847.135
1007.755, 1452.434
1009.005, 1051.333
1010.254, 2221.951
1011.502, 825.619
1012.751, 1621.307
1014.000, 1596.217
1015.248, 376.940
1016.496, 1805.677
1017.744, 707.959
1018.991, 947.626
1020.239, 1690.257
1021.486, 418.896
1022.733, 1569.539
1023.980, 1107.445
1025.227, 604.066
1026.473, 1834.621
1027.719, 532.381
1028.965, 1183.779
1030.211, 1439.368
1031.457, 403.130
1032.702, 1646.684
1033.948, 773.709
1035.193, 788.761
1036.438, 1821.900
1037.682, 390.135
1038.927, 1602.412
1040.171, 1487.761
1041.415, 844.146
1042.659, 2268.575
1043.903, 1143.034
1045.146, 1719.528
1046.390, 2375.059
1047.633, 1180.606
1048.876, 2706.176
1050.118, 2241.734
1051.361, 2302.248
1052.603, 4017.810
1053.845, 3103.396
1055.087, 4877.176
1056.329, 5722.777
1057.571, 5652.283
1058.812, 9177.935
1060.053, 9303.604
1061.294, 10839.270
1062.535, 13584.982
1063.775, 10420.722
1065.016, 11296.487
1066.256, 9012.081
1067.496, 6087.892
1068.736, 6813.729
1069.975, 3759.593
1071.214, 3795.484
1072.454, 3751.405
1073.693, 1787.354
1074.931, 2983.336
1076.170, 1799.354
1077.408, 1385.401
1078.647, 2321.493
1079.885, 618.437
1081.122, 1461.567
1082.360, 1406.416
1083.597, 490.597
1084.835, 1796.235
1086.072, 696.171
1087.308, 1030.393
1088.545, 1657.936
1089.781, 379.908
1091.018, 1615.389
1092.254, 1150.861
1093.490, 568.324
1094.725, 1721.789
1095.961, 446.269
1097.196, 877.762
1098.431, 1418.267
1099.666, 39.777
1100.900, 1499.304
1102.135, 684.838
1103.369, 406.379
1104.603, 1645.904
1105.837, 193.479
1107.071, 1107.268
1108.304, 1293.073
1109.538, 144.890
1110.771, 1254.714
1112.004, 422.541
1113.236, 315.369
1114.469, 1172.196
1115.701, 213.078
1116.933, 1224.018
1118.165, 1190.002
1119.397, 422.125
1120.629, 1822.255
1121.860, 636.390
1123.091, 954.530
1124.322, 1760.677
1125.553, 320.818
1126.783, 1522.953
1128.014, 1039.078
1129.244, 196.187
1130.474, 1541.343
1131.704, 130.522
1132.933, 552.035
1134.163, 1151.172
1135.392, 169.088
1136.621, 1296.762
1137.850, 764.730
1139.079, 212.827
1140.307, 1520.397
1141.535, 193.762
1142.763, 897.289
1143.991, 1245.983
1145.219, 45.856
1146.446, 1443.928
1147.674, 745.216
1148.901, 522.742
1150.128, 1532.517
1151.354, 14.432
1152.581, 992.935
1153.807, 1233.658
1155.033, 120.796
1156.259, 1536.332
1157.485, 526.851
1158.710, 440.774
1159.936, 1499.596
1161.161, 138.248
1162.386, 919.097
1163.611, 1125.591
1164.835, 82.376
1166.060, 1444.348
1167.284, 474.786
1168.508, 457.442
1169.732, 1462.583
1170.955, 2.542
1172.179, 979.241
1173.402, 961.340
1174.625, 5.299
1175.848, 1359.958
1177.070, 92.673
1178.293, 0.000
##END=



