##NAMES=Fluorapatite
##RRUFFID=R050194
##IDEAL CHEMISTRY=Ca_5_(PO_4_)_3_F
##LOCALITY=Siglo XX mine, Llallagua, Bolivia
##OWNER=RRUFF
##SOURCE=Dave Bunk Minerals
##DESCRIPTION=Purple crystal fragments
##STATUS=The identification of this mineral has been confirmed by X-ray diffraction and chemical analysis
##URL=rruff.info/R050194
##MEASURED CHEMISTRY=Ca_5.00_(P_1.00_O_4_)_3_F_1.00_
##PIN_ID=L01106
##ORIENTATION=Laser parallel to -c* (0 0 -1). Fiducial mark perpendicular to laser is parallel to -a [-1 0 0]
134.1270, 0.0000000E+00
135.3560, 62.17188
136.5850, 5.967285
137.8140, 0.4858400
139.0430, 57.52881
140.2710, 95.45312
141.5000, 74.63330
142.7280, 93.39697
143.9560, 89.86768
145.1840, 31.81006
146.4120, 98.22803
147.6390, 116.5527
148.8670, 79.63818
150.0940, 63.72949
151.3210, 50.51953
152.5490, 40.58545
153.7750, 49.29004
155.0020, 71.95215
156.2290, 69.28809
157.4550, 73.60254
158.6810, 67.06738
159.9080, 64.28662
161.1340, 8.510254
162.3590, 32.72949
163.5850, 2.038574
164.8110, 8.552246
166.0360, 94.78320
167.2610, 20.28564
168.4860, 37.43848
169.7110, 3.410156
170.9360, 40.72217
172.1610, 37.06104
173.3850, 84.16064
174.6100, 4.389160
175.8340, 69.77637
177.0580, 82.72363
178.2820, 68.68555
179.5050, 116.2324
180.7290, 90.13574
181.9520, 123.2544
183.1760, 53.95898
184.3990, 78.18848
185.6220, 72.35156
186.8450, 113.9282
188.0670, 84.51123
189.2900, 94.36865
190.5120, 77.28906
191.7340, 82.54346
192.9560, 71.76807
194.1780, 58.72656
195.4000, 59.18164
196.6220, 44.59131
197.8430, 53.42334
199.0640, 55.68164
200.2860, 87.83936
201.5070, 72.67432
202.7270, 79.36133
203.9480, 98.30176
205.1690, 93.64160
206.3890, 117.2095
207.6090, 114.3511
208.8290, 75.67871
210.0490, 105.8213
211.2690, 133.9077
212.4890, 178.6235
213.7080, 38.54346
214.9280, 68.53174
216.1470, 148.5718
217.3660, 12.58643
218.5850, 66.46533
219.8030, 45.83057
221.0220, 82.13965
222.2400, 95.68066
223.4590, 66.22070
224.6770, 65.45264
225.8950, 79.85205
227.1120, 128.7622
228.3300, 82.36523
229.5480, 97.65381
230.7650, 165.8169
231.9820, 104.9380
233.1990, 192.2217
234.4160, 147.9395
235.6330, 81.31689
236.8490, 56.96094
238.0660, 142.6523
239.2820, 197.9287
240.4980, 104.4556
241.7140, 45.58496
242.9300, 70.95020
244.1460, 76.36816
245.3610, 38.54053
246.5770, 39.88428
247.7920, 63.38525
249.0070, 99.75391
250.2220, 143.1973
251.4370, 195.9478
252.6510, 68.34766
253.8660, 113.8608
255.0800, 64.29980
256.2940, 98.59180
257.5080, 52.65234
258.7220, 42.04199
259.9360, 110.5405
261.1490, 82.17188
262.3630, 86.24316
263.5760, 27.71436
264.7890, 88.76611
266.0020, 90.35596
267.2150, 147.8735
268.4270, 145.2705
269.6400, 144.2793
270.8520, 49.57422
272.0640, 121.9146
273.2760, 19.11084
274.4880, 113.8818
275.7000, 110.1182
276.9120, 48.86230
278.1230, 44.46045
279.3340, 77.31152
280.5450, 35.45361
281.7560, 126.5742
282.9670, 9.509766
284.1780, 11.64502
285.3880, 28.05713
286.5980, 146.7695
287.8090, 91.13721
289.0190, 133.4995
290.2290, 148.7793
291.4380, 77.35791
292.6480, 45.80713
293.8570, 62.96436
295.0670, 224.8511
296.2760, 93.21680
297.4850, 135.3164
298.6930, 19.01953
299.9020, 123.9727
301.1110, 100.8301
302.3190, 118.5166
303.5270, 150.7520
304.7350, 160.7485
305.9430, 146.7061
307.1510, 168.1641
308.3580, 111.4292
309.5660, 163.3062
310.7730, 180.0200
311.9800, 89.26367
313.1870, 185.8789
314.3940, 124.6387
315.6010, 101.6533
316.8070, 37.09863
318.0130, 32.34131
319.2200, 40.33936
320.4260, 48.41895
321.6310, 35.49609
322.8370, 125.0786
324.0430, 145.0977
325.2480, 58.04590
326.4540, 67.85156
327.6590, 11.57959
328.8640, 3.195313
330.0680, 116.8545
331.2730, 11.71777
332.4780, 4.601074
333.6820, 63.36426
334.8860, 2.972168
336.0900, 45.71729
337.2940, 20.29883
338.4980, 22.77686
339.7010, 95.50244
340.9050, 46.01025
342.1080, 19.22510
343.3110, 49.23389
344.5140, 63.67285
345.7170, 99.11426
346.9200, 136.7471
348.1220, 86.93945
349.3240, 73.11865
350.5270, 99.10107
351.7290, 72.06689
352.9310, 79.91650
354.1320, 123.6152
355.3340, 61.30225
356.5350, 70.29150
357.7370, 72.79102
358.9380, 38.22754
360.1390, 79.55664
361.3400, 52.22900
362.5400, 61.56396
363.7410, 45.59180
364.9410, 55.77832
366.1410, 120.7461
367.3410, 92.91699
368.5410, 113.4873
369.7410, 158.8076
370.9400, 99.24414
372.1400, 142.1250
373.3390, 146.0156
374.5380, 99.53711
375.7370, 25.46094
376.9360, 68.63379
378.1350, 107.0381
379.3330, 192.7939
380.5310, 82.70801
381.7300, 49.73047
382.9280, 73.09570
384.1260, 104.0195
385.3230, 43.91309
386.5210, 105.4365
387.7180, 92.13770
388.9160, 162.4365
390.1130, 38.55078
391.3100, 108.3906
392.5060, 109.4668
393.7030, 107.5762
394.9000, 154.9775
396.0960, 38.81836
397.2920, 128.2070
398.4880, 10.08105
399.6840, 63.02246
400.8800, 253.8350
402.0750, 47.10352
403.2710, 125.2871
404.4660, 40.13086
405.6610, 2.172852
406.8560, 124.9844
408.0510, 158.5713
409.2450, 165.1230
410.4400, 191.1172
411.6340, 188.1172
412.8280, 153.8418
414.0220, 155.3330
415.2160, 118.8145
416.4100, 168.8906
417.6030, 201.7676
418.7970, 112.1992
419.9900, 49.18457
421.1830, 243.4111
422.3760, 87.07324
423.5690, 109.6992
424.7610, 91.75000
425.9540, 110.0146
427.1460, 43.34180
428.3380, 21.00195
429.5300, 136.7324
430.7220, 206.7383
431.9140, 195.9219
433.1050, 203.6074
434.2970, 120.6445
435.4880, 140.1641
436.6790, 191.4404
437.8700, 241.9746
439.0610, 116.4287
440.2510, 168.4707
441.4420, 35.89355
442.6320, 7.545898
443.8220, 191.5088
445.0120, 222.9023
446.2020, 82.38770
447.3910, 129.2695
448.5810, 193.9111
449.7700, 223.0479
450.9600, 265.6689
452.1490, 269.0557
453.3370, 111.2148
454.5260, 251.2568
455.7150, 126.1191
456.9030, 98.08398
458.0910, 170.8262
459.2800, 154.3760
460.4670, 111.4707
461.6550, 82.34766
462.8430, 160.9238
464.0300, 11.94043
465.2180, 67.99316
466.4050, 191.7666
467.5920, 198.2578
468.7790, 20.07520
469.9650, 23.75488
471.1520, 90.64648
472.3380, 128.0039
473.5250, 160.9561
474.7110, 144.8174
475.8970, 161.5420
477.0820, 174.4678
478.2680, 153.6152
479.4540, 167.8281
480.6390, 171.8096
481.8240, 107.3760
483.0090, 138.1816
484.1940, 180.5283
485.3780, 58.61816
486.5630, 68.17383
487.7470, 163.8037
488.9320, 58.35938
490.1160, 157.6328
491.3000, 145.1865
492.4830, 181.0020
493.6670, 172.9180
494.8500, 188.7256
496.0340, 200.2598
497.2170, 202.2764
498.4000, 118.2217
499.5820, 90.15332
500.7650, 69.28418
501.9480, 216.3447
503.1300, 147.3223
504.3120, 149.1201
505.4940, 26.51855
506.6760, 85.64453
507.8580, 102.2363
509.0390, 10.42383
510.2210, 105.8135
511.4020, 73.61816
512.5830, 86.49512
513.7640, 19.92090
514.9450, 183.8633
516.1250, 120.3223
517.3060, 93.82617
518.4860, 95.03125
519.6660, 44.09180
520.8460, 176.1992
522.0260, 88.81445
523.2060, 142.0986
524.3850, 119.8740
525.5650, 84.59082
526.7440, 62.66406
527.9230, 78.78125
529.1020, 50.94238
530.2810, 136.4082
531.4590, 133.4707
532.6380, 186.3545
533.8160, 139.8467
534.9940, 154.2021
536.1720, 99.88477
537.3500, 136.1133
538.5270, 98.89258
539.7050, 167.8232
540.8820, 88.26660
542.0590, 139.2324
543.2360, 210.0957
544.4130, 197.7578
545.5900, 94.57129
546.7660, 88.12793
547.9430, 205.0146
549.1190, 28.14062
550.2950, 246.5400
551.4710, 188.6396
552.6470, 96.75293
553.8220, 10.47852
554.9980, 96.79004
556.1730, 228.1602
557.3480, 145.1504
558.5230, 168.3955
559.6980, 38.90234
560.8730, 117.8848
562.0470, 63.31934
563.2220, 103.9102
564.3960, 227.3691
565.5700, 79.64453
566.7440, 5.180664
567.9170, 29.24414
569.0910, 166.4316
570.2640, 2.992188
571.4380, 224.7373
572.6110, 112.1650
573.7840, 258.7471
574.9570, 175.3223
576.1290, 212.2383
577.3020, 13.82910
578.4740, 165.4580
579.6460, 369.9629
580.8180, 331.7158
581.9900, 219.1367
583.1620, 244.0625
584.3330, 293.8516
585.5040, 142.9150
586.6760, 123.4590
587.8470, 320.1631
589.0180, 96.09766
590.1880, 187.5000
591.3590, 79.84570
592.5290, 100.5967
593.7000, 121.2578
594.8700, 185.4814
596.0400, 122.9170
597.2090, 179.3008
598.3790, 154.7373
599.5490, 168.6699
600.7180, 188.6045
601.8870, 13.39941
603.0560, 51.38574
604.2250, 190.5693
605.3940, 139.9639
606.5620, 322.8730
607.7300, 124.3711
608.8990, 182.8770
610.0670, 208.2314
611.2350, 280.6992
612.4020, 257.6221
613.5700, 142.5000
614.7370, 240.6543
615.9050, 38.05078
617.0720, 16.15234
618.2390, 254.0176
619.4060, 166.4121
620.5720, 155.1650
621.7390, 246.4473
622.9050, 40.00488
624.0710, 74.29688
625.2370, 122.3320
626.4030, 160.8857
627.5690, 2.465820
628.7340, 237.2031
629.9000, 86.71289
631.0650, 192.5264
632.2300, 100.2754
633.3950, 86.15430
634.5600, 80.99707
635.7240, 114.7832
636.8890, 41.83691
638.0530, 217.8945
639.2170, 9.813477
640.3810, 153.2842
641.5450, 103.4102
642.7080, 165.1406
643.8720, 162.3604
645.0350, 34.44531
646.1980, 260.8018
647.3610, 161.3926
648.5240, 66.91016
649.6870, 211.9150
650.8490, 116.7217
652.0120, 127.6982
653.1740, 158.8174
654.3360, 72.07422
655.4980, 175.5234
656.6600, 102.5254
657.8210, 321.5977
658.9830, 145.8135
660.1440, 155.2480
661.3050, 103.3965
662.4660, 61.92871
663.6270, 148.0420
664.7870, 4.830078
665.9480, 78.09082
667.1080, 178.8906
668.2680, 63.72266
669.4280, 161.0938
670.5880, 28.85547
671.7480, 196.7109
672.9070, 123.4141
674.0670, 141.1016
675.2260, 46.85938
676.3850, 0.7578130
677.5440, 21.59766
678.7030, 86.57031
679.8610, 126.4805
681.0200, 94.65430
682.1780, 289.8418
683.3360, 110.7578
684.4940, 146.2988
685.6520, 88.77539
686.8090, 281.9141
687.9670, 89.38281
689.1240, 137.3281
690.2810, 267.3906
691.4380, 273.9004
692.5950, 96.56836
693.7520, 162.3457
694.9080, 122.2617
696.0650, 160.8887
697.2210, 133.7051
698.3770, 90.86914
699.5330, 109.4746
700.6880, 65.02148
701.8440, 131.3926
702.9990, 146.2988
704.1550, 200.6250
705.3100, 100.8047
706.4650, 213.3945
707.6190, 82.66797
708.7740, 169.1484
709.9290, 40.91406
711.0830, 163.0527
712.2370, 99.83789
713.3910, 93.33203
714.5450, 151.6660
715.6980, 22.79883
716.8520, 34.99609
718.0050, 83.34570
719.1580, 122.0586
720.3110, 238.6602
721.4640, 183.4531
722.6170, 131.5645
723.7700, 61.36328
724.9220, 200.7441
726.0740, 243.7109
727.2260, 220.3672
728.3780, 157.5312
729.5300, 183.6074
730.6810, 112.3320
731.8330, 120.2363
732.9840, 336.1562
734.1350, 123.4141
735.2860, 233.3047
736.4370, 176.7695
737.5880, 40.55273
738.7380, 81.26172
739.8880, 246.7188
741.0390, 31.37500
742.1890, 49.50391
743.3380, 192.2129
744.4880, 159.9863
745.6380, 128.6797
746.7870, 116.6895
747.9360, 160.1035
749.0850, 125.0293
750.2340, 102.2422
751.3830, 136.2969
752.5310, 86.42578
753.6800, 235.8906
754.8280, 67.80469
755.9760, 118.9043
757.1240, 196.6602
758.2720, 109.5410
759.4190, 17.24219
760.5670, 64.85547
761.7140, 142.4785
762.8610, 229.8750
764.0080, 135.1895
765.1550, 194.5781
766.3020, 240.0254
767.4480, 184.3945
768.5950, 194.6055
769.7410, 184.1133
770.8870, 171.8750
772.0330, 155.7188
773.1780, 169.0410
774.3240, 102.2227
775.4690, 86.21289
776.6140, 42.83984
777.7590, 80.73828
778.9040, 126.2402
780.0490, 112.6953
781.1940, 150.5117
782.3380, 168.9219
783.4820, 184.7305
784.6260, 191.7051
785.7700, 212.4512
786.9140, 180.9824
788.0580, 114.5371
789.2010, 264.3008
790.3450, 226.8359
791.4880, 84.55664
792.6310, 211.5527
793.7730, 34.50000
794.9160, 179.1289
796.0590, 2.414063
797.2010, 242.2246
798.3430, 198.2969
799.4850, 206.5762
800.6270, 161.5645
801.7690, 95.40820
802.9100, 90.77539
804.0520, 86.71289
805.1930, 90.75195
806.3340, 155.0547
807.4750, 69.78516
808.6160, 152.1289
809.7560, 156.8711
810.8970, 97.24609
812.0370, 79.41211
813.1770, 29.37305
814.3170, 340.8516
815.4570, 31.03516
816.5960, 232.0684
817.7360, 74.09961
818.8750, 104.9375
820.0140, 33.77734
821.1530, 354.5645
822.2920, 181.4453
823.4310, 239.0293
824.5690, 50.37109
825.7070, 192.8438
826.8460, 129.5078
827.9840, 188.6602
829.1220, 377.7812
830.2590, 26.11133
831.3970, 189.6621
832.5340, 134.9902
833.6710, 255.4238
834.8080, 126.6895
835.9450, 128.7207
837.0820, 216.7773
838.2190, 110.5938
839.3550, 15.33398
840.4910, 90.72070
841.6270, 216.2324
842.7630, 229.3359
843.8990, 98.51562
845.0350, 24.26758
846.1700, 106.1445
847.3060, 16.50195
848.4410, 44.21484
849.5760, 207.6074
850.7100, 145.9199
851.8450, 214.4219
852.9800, 194.2148
854.1140, 81.07812
855.2480, 95.31250
856.3820, 106.2871
857.5160, 219.1152
858.6500, 152.7656
859.7830, 268.5645
860.9170, 211.2832
862.0500, 425.8965
863.1830, 255.2969
864.3160, 27.87695
865.4480, 266.7891
866.5810, 226.9707
867.7130, 189.5312
868.8460, 190.1406
869.9780, 158.4141
871.1100, 166.8281
872.2410, 77.97070
873.3730, 219.6172
874.5050, 172.9531
875.6360, 262.3203
876.7670, 347.7207
877.8980, 230.5020
879.0290, 138.0957
880.1590, 69.53125
881.2900, 37.77539
882.4200, 194.8359
883.5500, 139.8008
884.6800, 54.90625
885.8100, 277.8105
886.9400, 254.5742
888.0690, 223.7676
889.1990, 229.3770
890.3280, 254.6758
891.4570, 148.1211
892.5860, 392.5176
893.7140, 125.4121
894.8430, 258.8945
895.9710, 115.7559
897.1000, 48.96094
898.2280, 81.43945
899.3560, 136.7695
900.4830, 150.1250
901.6110, 16.31445
902.7380, 59.60742
903.8660, 84.71875
904.9930, 23.03906
906.1200, 147.6426
907.2460, 236.7676
908.3730, 134.7812
909.5000, 13.80859
910.6260, 231.6602
911.7520, 241.2422
912.8780, 157.0391
914.0040, 174.5176
915.1290, 120.1465
916.2550, 74.30859
917.3800, 109.9492
918.5050, 230.9707
919.6300, 100.6719
920.7550, 16.35547
921.8800, 222.0684
923.0040, 107.6133
924.1290, 185.8359
925.2530, 342.6445
926.3770, 288.2598
927.5010, 429.2090
928.6250, 118.6875
929.7480, 104.2402
930.8720, 121.5039
931.9950, 74.52734
933.1180, 50.97070
934.2410, 126.1875
935.3640, 0.5996090
936.4860, 9.216797
937.6090, 104.0625
938.7310, 14.32422
939.8530, 63.79883
940.9750, 48.74609
942.0970, 211.4043
943.2180, 199.6484
944.3400, 348.2461
945.4610, 305.8262
946.5820, 64.32227
947.7030, 338.5098
948.8240, 319.2246
949.9450, 96.22266
951.0650, 164.4941
952.1860, 228.1953
953.3060, 228.4160
954.4260, 148.3027
955.5460, 343.8730
956.6650, 490.6699
957.7850, 405.0000
958.9040, 504.5430
960.0230, 548.1562
961.1420, 997.4277
962.2610, 1268.420
963.3800, 1672.629
964.4990, 1968.197
965.6170, 2235.383
966.7350, 2094.504
967.8530, 1440.369
968.9710, 1182.709
970.0890, 728.4805
971.2070, 553.2324
972.3240, 489.3281
973.4410, 288.9531
974.5580, 431.4336
975.6750, 112.9199
976.7920, 96.89844
977.9090, 346.9023
979.0250, 135.3320
980.1410, 179.0938
981.2580, 149.5020
982.3740, 205.6719
983.4890, 193.6270
984.6050, 443.3945
985.7200, 260.8770
986.8360, 365.6211
987.9510, 176.4180
989.0660, 127.5605
990.1810, 545.7383
991.2950, 387.9414
992.4100, 83.59766
993.5240, 100.0508
994.6390, 208.6543
995.7530, 68.10156
996.8660, 148.7852
997.9800, 68.36523
999.0940, 230.5625
1000.207, 97.14062
1001.320, 35.52734
1002.433, 145.7266
1003.546, 206.9082
1004.659, 147.9336
1005.772, 114.1211
1006.884, 382.7402
1007.996, 183.9590
1009.108, 79.98633
1010.220, 5.632813
1011.332, 328.7129
1012.444, 160.9082
1013.555, 237.7266
1014.666, 238.1953
1015.777, 138.6289
1016.888, 249.6289
1017.999, 158.0371
1019.110, 226.3047
1020.220, 123.5078
1021.331, 53.68750
1022.441, 223.7188
1023.551, 82.75977
1024.661, 159.8867
1025.770, 90.43555
1026.880, 286.5859
1027.989, 182.0410
1029.098, 145.0254
1030.207, 196.4199
1031.316, 353.3125
1032.425, 8.460938
1033.533, 226.9609
1034.642, 312.4258
1035.750, 34.07617
1036.858, 236.5645
1037.966, 149.6621
1039.073, 34.82812
1040.181, 242.1758
1041.288, 124.8828
1042.396, 177.1523
1043.503, 43.00781
1044.610, 267.6602
1045.716, 25.34375
1046.823, 229.6562
1047.929, 58.03906
1049.036, 17.81250
1050.142, 109.0430
1051.248, 29.32422
1052.353, 291.6406
1053.459, 70.64453
1054.564, 184.4023
1055.670, 184.9102
1056.775, 185.9297
1057.880, 212.0273
1058.985, 210.1250
1060.089, 181.4062
1061.194, 190.9766
1062.298, 147.0703
1063.402, 61.11328
1064.506, 156.2266
1065.610, 118.1250
1066.713, 182.7344
1067.817, 210.2969
1068.920, 69.99219
1070.023, 232.5977
1071.126, 225.6094
1072.229, 160.8711
1073.332, 18.98047
1074.435, 222.5273
1075.537, 152.9492
1076.639, 170.3242
1077.741, 140.7461
1078.843, 102.8359
1079.945, 96.76953
1081.046, 378.1133
1082.148, 257.4453
1083.249, 89.29297
1084.350, 44.44141
1085.451, 21.07812
1086.551, 2.933594
1087.652, 124.1641
1088.752, 71.46875
1089.853, 231.7656
1090.953, 278.0586
1092.053, 68.34375
1093.152, 104.3750
1094.252, 442.8398
1095.351, 396.0547
1096.451, 293.2578
1097.550, 274.4570
1098.649, 157.6602
1099.748, 135.8516
1100.846, 134.0430
1101.945, 104.2305
1103.043, 217.4141
1104.141, 411.5938
1105.239, 313.5586
1106.337, 309.9453
1107.434, 234.1250
1108.532, 189.0195
1109.629, 180.8477
1110.726, 100.7539
1111.823, 299.0234
1112.920, 63.19922
1114.017, 59.59375
1115.113, 224.7773
1116.210, 184.9648
1117.306, 122.1484
1118.402, 328.3320
1119.498, 64.48828
1120.593, 326.6562
1121.689, 644.6484
1122.784, 261.7930
1123.879, 167.6094
1124.974, 135.4375
1126.069, 292.8477
1127.164, 165.9961
1128.259, 129.7812
1129.353, 351.9062
1130.447, 196.7109
1131.541, 171.8594
1132.635, 27.80078
1133.729, 244.0234
1134.822, 62.17969
1135.916, 155.3359
1137.009, 12.49609
1138.102, 291.5508
1139.195, 181.7188
1140.288, 165.8867
1141.380, 80.17969
1142.473, 256.7422
1143.565, 184.9219
1144.657, 274.0977
1145.749, 240.2812
1146.841, 4.460938
1147.932, 126.6562
1149.024, 24.15234
1150.115, 470.0273
1151.206, 174.2227
1152.297, 220.4180
1153.388, 41.27734
1154.479, 84.48047
1155.569, 266.0625
1156.659, 423.2734
1157.750, 171.7109
1158.839, 285.9297
1159.929, 365.1562
1161.019, 201.3906
1162.108, 191.6367
1163.198, 448.1133
1164.287, 336.1133
1165.376, 448.7500
1166.465, 200.6523
1167.553, 455.8711
1168.642, 339.7188
1169.730, 141.0664
1170.818, 499.0469
1171.906, 136.4141
1172.994, 247.7969
1174.082, 142.1797
1175.170, 331.4180
1176.257, 226.8281
1177.344, 475.7109
1178.431, 279.1328
1179.518, 99.59375
1180.605, 44.40625
1181.691, 257.8633
1182.778, 232.9844
1183.864, 178.7539
1184.950, 171.1602
1186.036, 175.4961
1187.122, 467.0078
1188.207, 351.9727
1189.292, 63.50781
1190.378, 404.0586
1191.463, 231.6133
1192.548, 251.1758
1193.632, 145.6367
1194.717, 372.2227
1195.801, 361.8203
1196.886, 501.4336
1197.970, 260.0625
1199.054, 394.7031
1200.137, 108.3594
1201.221, 409.0391
1202.305, 341.7305
1203.388, 168.4453
1204.471, 330.0859
1205.554, 338.8555
1206.637, 524.6328
1207.719, 271.4258
1208.802, 186.2266
1209.884, 270.8477
1210.966, 271.6758
1212.048, 364.5156
1213.130, 311.3711
1214.212, 242.2383
1215.293, 256.1172
1216.374, 128.7930
1217.456, 129.2461
1218.536, 113.3008
1219.617, 131.7734
1220.698, 200.7227
1221.778, 321.6836
1222.859, 568.6562
1223.939, 407.6602
1225.019, 249.6641
1226.099, 538.6797
1227.178, 343.7070
1228.258, 409.7500
1229.337, 327.8047
1230.417, 424.8789
1231.496, 123.9688
1232.574, 136.0703
1233.653, 357.1875
1234.732, 152.3164
1235.810, 359.4648
1236.888, 226.6250
1237.966, 454.8047
1239.044, 559.0000
1240.122, 413.2109
1241.199, 92.44141
1242.277, 268.6875
1243.354, 26.01172
1244.431, 298.1445
1245.508, 479.8945
1246.585, 526.9023
1247.661, 35.52734
1248.738, 239.3984
1249.814, 160.4648
1250.890, 74.30078
1251.966, 376.0078
1253.042, 36.98047
1254.117, 258.5547
1255.193, 271.3047
1256.268, 413.5000
1257.343, 275.4141
1258.418, 223.9219
1259.493, 452.8555
1260.567, 526.4961
1261.642, 356.2031
1262.716, 506.6992
1263.790, 84.02734
1264.864, 164.3555
1265.938, 461.7109
1267.011, 305.3711
1268.085, 461.0820
1269.158, 498.0000
1270.231, 4.812500
1271.304, 431.0664
1272.377, 461.0312
1273.450, 74.19141
1274.522, 477.9258
1275.594, 148.5508
1276.666, 80.52734
1277.738, 209.8164
1278.810, 132.1484
1279.882, 379.8398
1280.953, 315.6875
1282.025, 223.7461
1283.096, 253.3359
1284.167, 61.55469
1285.238, 262.7109
1286.308, 150.3359
1287.379, 255.1094
1288.449, 409.0312
1289.519, 186.3164
1290.589, 362.3867
1291.659, 79.90234
1292.729, 4.789063
1293.798, 14.60156
1294.868, 364.7812
1295.937, 74.48047
1297.006, 11.24219
1298.075, 262.4688
1299.143, 238.2383
1300.212, 338.6445
1301.280, 70.28516
1302.348, 148.3516
1303.416, 130.9453
1304.484, 443.5156
1305.552, 495.6289
1306.620, 233.6367
1307.687, 27.03906
1308.754, 309.3086
1309.821, 79.83594
1310.888, 155.6484
1311.955, 83.77734
1313.021, 51.04297
1314.088, 22.55859
1315.154, 145.4414
1316.220, 109.6992
1317.286, 184.0508
1318.352, 160.5898
1319.417, 230.5430
1320.483, 290.1836
1321.548, 75.89453
1322.613, 541.7227
1323.678, 402.4492
1324.743, 171.1914
1325.807, 653.9492
1326.872, 424.7344
1327.936, 240.5312
1329.000, 433.3516
1330.064, 531.1875
1331.128, 361.0430
1332.191, 731.9180
1333.255, 504.8281
1334.318, 336.7539
1335.381, 491.7031
1336.444, 566.6719
1337.507, 407.6562
1338.569, 329.6914
1339.632, 62.75391
1340.694, 545.8320
1341.756, 112.9297
1342.818, 517.0508
1343.880, 475.1875
1344.941, 433.3477
1346.003, 736.5352
1347.064, 609.7422
1348.125, 93.96484
1349.186, 336.2109
1350.247, 390.4883
1351.308, 339.7773
1352.368, 386.1172
1353.428, 713.4844
1354.489, 427.8672
1355.549, 497.2773
1356.608, 537.7109
1357.668, 224.1641
1358.727, 575.6367
1359.787, 429.1328
1360.846, 336.6484
1361.905, 355.1914
1362.964, 413.7578
1364.022, 450.3438
1365.081, 442.4883
1366.139, 452.8867
1367.197, 434.2422
1368.255, 426.5195
1369.313, 452.3477
1370.371, 456.0742
1371.428, 139.5039
1372.486, 102.2773
1373.543, 307.0547
1374.600, 182.8555
1375.657, 311.6836
1376.713, 316.5352
1377.770, 326.5078
1378.826, 383.3438
1379.882, 486.2852
1380.938, 352.5820
1381.994, 617.5781
1383.050, 363.5938
1384.106, 108.6328
1385.161, 402.6992
1386.216, 519.7891
1387.271, 451.9219
1388.326, 481.0625
1389.381, 414.2305
1390.435, 665.4219
1391.490, 102.6406
1392.544, 295.8789
1393.598, 362.1562
1394.652, 593.4570
1395.705, 234.7773
1396.759, 599.1328
1397.812, 288.1680
1398.866, 211.5820
1399.919, 864.0234
1400.972, 138.4883
1402.024, 179.9844
1403.077, 628.5117
1404.129, 503.0703
1405.181, 466.6562
1406.233, 86.28516
1407.285, 207.9414
1408.337, 485.6289
1409.389, 212.3398
1410.440, 247.0820
1411.491, 29.36719
1412.542, 169.1758
1413.593, 213.0156
1414.644, 343.8945
1415.695, 223.8086
1416.745, 273.7578
1417.795, 266.7422
1418.845, 29.53906
1419.895, 491.3242
1420.945, 435.4297
1421.995, 283.5664
1423.044, 88.20703
1424.093, 164.4961
1425.142, 260.7539
1426.191, 171.0586
1427.240, 367.4023
1428.289, 453.8008
1429.337, 437.2422
1430.385, 503.7422
1431.433, 589.2891
1432.481, 225.8945
1433.529, 153.6055
1434.577, 230.3047
1435.624, 274.0898
1436.672, 300.9414
1437.719, 155.8633
1438.766, 311.5664
1439.812, 122.7227
1440.859, 263.0664
1441.905, 389.3438
1442.952, 301.2617
1443.998, 292.7188
1445.044, 399.3086
1446.090, 108.0312
1447.135, 186.9766
1448.181, 122.1406
1449.226, 223.8984
1450.271, 333.6914
1451.316, 261.3711
1452.361, 426.3789
1453.405, 215.2812
1454.450, 186.2109
1455.494, 222.1836
1456.538, 272.1875
1457.582, 260.6719
1458.626, 258.0781
1459.670, 301.4062
1460.713, 200.5508
1461.757, 258.7305
1462.800, 230.9453
1463.843, 183.1992
1464.886, 241.4844
1465.928, 419.8047
1466.971, 388.1641
1468.013, 452.5586
1469.055, 410.8398
1470.097, 366.4492
1471.139, 259.9492
1472.181, 354.4766
1473.222, 302.0625
1474.263, 278.6758
1475.305, 302.3164
1476.346, 289.7656
1477.386, 307.7500
1478.427, 341.5391
1479.468, 380.3594
1480.508, 450.7656
1481.548, 104.1133
1482.588, 512.0469
1483.628, 277.0117
1484.668, 198.0156
1485.707, 324.0586
1486.747, 144.1445
1487.786, 434.2617
1488.825, 202.4180
1489.864, 206.6094
1490.902, 111.8359
1491.941, 50.19531
1492.979, 39.57812
1494.017, 13.20703
1495.055, 61.19141
1496.093, 21.65234
1497.131, 242.1719
1498.168, 241.6367
1499.206, 459.2148
1500.243, 416.8242
1501.280, 45.46094
1502.317, 113.1289
1503.354, 177.8203
1504.390, 273.5508
1505.426, 247.4609
1506.463, 428.1367
1507.499, 174.0156
1508.535, 124.9766
1509.570, 44.70703
1510.606, 458.8984
1511.641, 2.050781
1512.676, 242.0742
1513.711, 276.2695
1514.746, 116.5352
1515.781, 45.88281
1516.816, 384.3086
1517.850, 341.8047
1518.884, 224.3828
1519.918, 429.0430
1520.952, 363.7852
1521.986, 107.6172
1523.019, 343.5312
1524.053, 236.5352
1525.086, 336.6289
1526.119, 341.8281
1527.152, 311.1016
1528.185, 327.4805
1529.217, 383.9648
1530.250, 430.5117
1531.282, 369.0703
1532.314, 403.0625
1533.346, 300.6758
1534.377, 343.6523
1535.409, 463.8125
1536.440, 327.1758
1537.472, 227.6758
1538.503, 281.3320
1539.534, 320.1445
1540.564, 60.12891
1541.595, 452.2969
1542.625, 119.5820
1543.656, 170.1289
1544.686, 69.89844
1545.716, 74.88672
1546.745, 116.1094
1547.775, 70.70703
1548.804, 283.3281
1549.834, 88.35547
1550.863, 121.6875
1551.892, 185.3477
1552.920, 371.4453
1553.949, 71.00391
1554.977, 3.000000
1556.006, 269.4844
1557.034, 6.511719
1558.062, 23.08984
1559.089, 318.3438
1560.117, 78.33203
1561.144, 67.16016
1562.172, 239.9492
1563.199, 105.8477
1564.226, 274.0195
1565.252, 92.87109
1566.279, 194.2617
1567.305, 230.9062
1568.332, 314.3906
1569.358, 261.8789
1570.384, 1.105469
1571.409, 0.0000000E+00
##END=



