##NAMES=Fluorapatite
##RRUFFID=R050369
##IDEAL CHEMISTRY=Ca_5_(PO_4_)_3_F
##LOCALITY=Russia
##OWNER=RRUFF
##SOURCE=Eugene Schlepp
##DESCRIPTION=Blueish-green hexagonal prismatic crystal
##STATUS=The identification of this mineral has been confirmed by X-ray diffraction and chemical analysis
##URL=rruff.info/R050369
##MEASURED CHEMISTRY=(Ca_0.99_Na_0.01_)_5_((P_0.98_S_0.02_)O_4_)_3_F_1.00_
##PIN_ID=L01224
##ORIENTATION=Laser parallel to a* (1 0 0). Fiducial mark perpendicular to laser is parallel to c [0 0 1]
53.91000, 0.0000000E+00
55.14900, 6.936768
56.38700, 18.62506
57.62600, 11.52899
58.86400, 12.53357
60.10300, 44.81454
61.34100, 48.88235
62.57900, 37.83902
63.81700, 42.60773
65.05400, 4.887238
66.29200, 15.71796
67.52900, 3.948914
68.76700, 25.36359
70.00400, 15.17120
71.24100, 33.43146
72.47700, 52.10767
73.71400, 73.16650
74.95100, 100.5767
76.18700, 135.3089
77.42300, 118.3383
78.65900, 138.6438
79.89500, 176.2073
81.13100, 170.0131
82.36700, 218.0464
83.60200, 247.2945
84.83700, 253.7452
86.07200, 251.3876
87.30800, 299.2120
88.54200, 312.2095
89.77700, 336.3713
91.01200, 351.6899
92.24600, 351.1543
93.48000, 400.7521
94.71400, 414.4721
95.94800, 411.3054
97.18200, 421.2455
98.41600, 421.2892
99.64900, 409.4347
100.8830, 402.6814
102.1160, 440.0266
103.3490, 481.4681
104.5820, 519.0036
105.8150, 502.6302
107.0470, 690.3453
108.2800, 728.1457
109.5120, 662.0280
110.7440, 588.9897
111.9760, 597.0287
113.2080, 674.1421
114.4400, 660.3277
115.6710, 665.5837
116.9030, 639.9078
118.1340, 631.2985
119.3650, 607.7538
120.5960, 525.2722
121.8270, 527.8521
123.0580, 492.4921
124.2880, 479.1904
125.5190, 484.9458
126.7490, 496.7573
127.9790, 481.6123
129.2090, 525.4780
130.4390, 519.3521
131.6680, 494.2323
132.8980, 533.1216
134.1270, 550.0052
135.3560, 584.8983
136.5850, 486.8153
137.8140, 498.7545
139.0430, 516.7179
140.2710, 501.7087
141.5000, 532.7593
142.7280, 507.8700
143.9560, 507.0195
145.1840, 513.2446
146.4120, 454.5387
147.6390, 496.8713
148.8670, 519.2430
150.0940, 510.6658
151.3210, 585.1249
152.5490, 575.6331
153.7750, 624.1744
155.0020, 630.7582
156.2290, 717.3815
157.4550, 692.0343
158.6810, 762.7132
159.9080, 679.4231
161.1340, 679.1593
162.3590, 658.9214
163.5850, 629.7095
164.8110, 627.5234
166.0360, 599.3625
167.2610, 584.2273
168.4860, 581.1174
169.7110, 585.0327
170.9360, 588.9731
172.1610, 532.9385
173.3850, 545.9283
174.6100, 533.9429
175.8340, 519.9817
177.0580, 542.0447
178.2820, 548.1318
179.5050, 585.2424
180.7290, 588.3765
181.9520, 571.5338
183.1760, 573.7144
184.3990, 561.9176
185.6220, 593.1434
186.8450, 559.3912
188.0670, 560.6616
189.2900, 621.9537
190.5120, 651.2673
191.7340, 744.6025
192.9560, 702.9587
194.1780, 722.3358
195.4000, 789.7336
196.6220, 885.1516
197.8430, 988.5901
199.0640, 1078.049
200.2860, 1150.526
201.5070, 1300.860
202.7270, 1437.347
203.9480, 1585.724
205.1690, 1784.036
206.3890, 1910.377
207.6090, 2089.614
208.8290, 2162.907
210.0490, 2191.268
211.2690, 2173.690
212.4890, 2048.550
213.7080, 1846.035
214.9280, 1613.490
216.1470, 1539.604
217.3660, 1282.296
218.5850, 1093.042
219.8030, 1006.836
221.0220, 963.6799
222.2400, 961.5677
223.4590, 808.4955
224.6770, 765.4602
225.8950, 765.6335
227.1120, 735.3121
228.3300, 776.2080
229.5480, 755.8947
230.7650, 747.3669
231.9820, 729.5376
233.1990, 745.9515
234.4160, 710.9115
235.6330, 720.1254
236.8490, 661.4417
238.0660, 620.7551
239.2820, 551.9019
240.4980, 554.2784
241.7140, 487.6876
242.9300, 462.8835
244.1460, 443.6245
245.3610, 472.1139
246.5770, 405.7437
247.7920, 372.2814
249.0070, 421.4569
250.2220, 425.0369
251.4370, 397.0831
252.6510, 409.7035
253.8660, 367.5209
255.0800, 366.1913
256.2940, 406.5898
257.5080, 360.7031
258.7220, 457.4280
259.9360, 427.1705
261.1490, 356.9302
262.3630, 418.7064
263.5760, 380.8112
264.7890, 410.6202
266.0020, 367.4452
267.2150, 396.2859
268.4270, 431.1420
269.6400, 380.0128
270.8520, 392.8988
272.0640, 425.7992
273.2760, 426.7139
274.4880, 446.6426
275.7000, 466.5854
276.9120, 426.5425
278.1230, 484.5133
279.3340, 489.4984
280.5450, 455.4974
281.7560, 521.5104
282.9670, 523.5375
284.1780, 568.5786
285.3880, 565.6331
286.5980, 644.7014
287.8090, 586.7828
289.0190, 645.8774
290.2290, 737.9851
291.4380, 703.1055
292.6480, 778.2379
293.8570, 806.3826
295.0670, 773.5391
296.2760, 841.7073
297.4850, 929.8868
298.6930, 893.0781
299.9020, 947.2805
301.1110, 917.4937
302.3190, 944.7180
303.5270, 906.9529
304.7350, 932.1982
305.9430, 853.4539
307.1510, 838.7202
308.3580, 760.9965
309.5660, 696.2828
310.7730, 682.5793
311.9800, 641.8855
313.1870, 518.2014
314.3940, 494.5270
315.6010, 442.8618
316.8070, 448.2064
318.0130, 457.5604
319.2200, 348.9233
320.4260, 322.2957
321.6310, 292.6766
322.8370, 328.0667
324.0430, 259.4653
325.2480, 214.8727
326.4540, 252.2886
327.6590, 222.7130
328.8640, 177.1458
330.0680, 161.5867
331.2730, 144.0359
332.4780, 139.4929
333.6820, 130.9583
334.8860, 139.4312
336.0900, 123.9120
337.2940, 68.40039
338.4980, 79.89636
339.7010, 127.3997
340.9050, 63.91040
342.1080, 93.42847
343.3110, 89.95374
344.5140, 41.48621
345.7170, 61.02551
346.9200, 29.57727
348.1220, 56.14136
349.3240, 76.82019
350.5270, 42.40942
351.7290, 40.01123
352.9310, 35.62610
354.1320, 22.33459
355.3340, 30.89355
356.5350, 5.545654
357.7370, 45.21240
358.9380, 25.59375
360.1390, 19.66272
361.3400, 7.108032
362.5400, 8.480469
363.7410, 4.404663
364.9410, 20.81750
366.1410, 11.43079
367.3410, 42.35205
368.5410, 5.113770
369.7410, 7.686035
370.9400, 42.90820
372.1400, 25.13635
373.3390, 41.09460
374.5380, 12.32764
375.7370, 9.444092
376.9360, 32.77600
378.1350, 42.99792
379.3330, 47.22742
380.5310, 48.46167
381.7300, 26.18140
382.9280, 21.44775
384.1260, 8.634155
385.3230, 19.27856
386.5210, 39.05896
387.7180, 7.296509
388.9160, 22.86218
390.1130, 2.099365
391.3100, 8.675049
392.5060, 34.52393
393.7030, 25.24512
394.9000, 9.983765
396.0960, 4.868530
397.2920, 23.68311
398.4880, 25.08960
399.6840, 14.10754
400.8800, 7.331055
402.0750, 9.446411
403.2710, 16.22900
404.4660, 70.01672
405.6610, 42.80969
406.8560, 4.392090
408.0510, 84.40808
409.2450, 69.22485
410.4400, 78.03442
411.6340, 106.8488
412.8280, 136.6676
414.0220, 122.4912
415.2160, 168.3193
416.4100, 241.1517
417.6030, 245.9886
418.7970, 275.8298
419.9900, 289.6753
421.1830, 347.5254
422.3760, 449.3796
423.5690, 510.2383
424.7610, 555.1010
425.9540, 629.9677
427.1460, 706.8384
428.3380, 752.7126
429.5300, 807.5907
430.7220, 759.4724
431.9140, 744.3579
433.1050, 764.2471
434.2970, 746.1400
435.4880, 776.0369
436.6790, 734.9370
437.8700, 795.8406
439.0610, 801.7473
440.2510, 881.6571
441.4420, 959.5714
442.6320, 1092.489
443.8220, 1223.409
445.0120, 1364.333
446.2020, 1442.259
447.3910, 1509.189
448.5810, 1618.121
449.7700, 1623.055
450.9600, 1650.992
452.1490, 1569.932
453.3370, 1527.873
454.5260, 1431.818
455.7150, 1272.766
456.9030, 1151.715
458.0910, 1000.667
459.2800, 931.6245
460.4670, 861.5845
461.6550, 743.5459
462.8430, 650.5110
464.0300, 613.4778
465.2180, 527.4478
466.4050, 480.4198
467.5920, 417.3931
468.7790, 378.3689
469.9650, 335.3461
471.1520, 285.3246
472.3380, 249.3053
473.5250, 226.2874
474.7110, 127.2705
475.8970, 202.2561
477.0820, 173.2435
478.2680, 121.2332
479.4540, 156.2251
480.6390, 64.21814
481.8240, 109.2133
483.0090, 67.20935
484.1940, 92.20984
485.3780, 92.21155
486.5630, 88.21509
487.7470, 70.21924
488.9320, 59.22424
490.1160, 48.22974
491.3000, 15.23572
492.4830, 80.24109
493.6670, 92.24658
494.8500, 86.25244
496.0340, 60.25842
497.2170, 49.26514
498.4000, 31.59167
499.5820, 28.27832
500.7650, 1.290894
501.9480, 20.29871
503.1300, 18.83569
504.3120, 15.15869
505.4940, 7.168457
506.6760, 15.18921
507.8580, 1.225464
509.0390, 15.73059
510.2210, 37.68835
511.4020, 10.35474
512.5830, 37.42212
513.7640, 25.72815
514.9450, 10.85095
516.1250, 38.21521
517.3060, 55.82800
518.4860, 45.77563
519.6660, 53.77954
520.8460, 29.97803
522.0260, 29.96948
523.2060, 7.114624
524.3850, 36.17554
525.5650, 2.944458
526.7440, 24.08606
527.9230, 24.19080
529.1020, 34.95959
530.2810, 21.43750
531.4590, 55.43457
532.6380, 14.26233
533.8160, 12.12866
534.9940, 13.38440
536.1720, 26.25696
537.3500, 7.681885
538.5270, 39.44495
539.7050, 30.24927
540.8820, 10.10876
542.0590, 17.25964
543.2360, 52.71362
544.4130, 28.57568
545.5900, 28.43640
546.7660, 66.38550
547.9430, 87.31689
549.1190, 27.00488
550.2950, 10.86206
551.4710, 101.7375
552.6470, 40.65393
553.8220, 131.5341
554.9980, 43.43530
556.1730, 53.34424
557.3480, 62.25134
558.5230, 56.15735
559.6980, 66.06763
560.8730, 87.97559
562.0470, 101.9630
563.2220, 147.9117
564.3960, 195.8721
565.5700, 225.8043
566.7440, 253.9105
567.9170, 221.6371
569.0910, 299.5537
570.2640, 299.4677
571.4380, 334.3785
572.6110, 384.2922
573.7840, 413.2357
574.9570, 556.2917
576.1290, 576.2333
577.3020, 762.1926
578.4740, 910.0857
579.6460, 1164.026
580.8180, 1503.912
581.9900, 1919.120
583.1620, 2393.999
584.3330, 2878.007
585.5040, 3519.883
586.6760, 4350.884
587.8470, 5230.747
589.0180, 5938.615
590.1880, 5908.469
591.3590, 5290.368
592.5290, 4481.222
593.7000, 3515.107
594.8700, 2592.103
596.0400, 2233.010
597.2090, 1899.844
598.3790, 1717.667
599.5490, 1837.475
600.7180, 1839.289
601.8870, 1988.099
603.0560, 2424.319
604.2250, 2771.119
605.3940, 2983.269
606.5620, 2879.146
607.7300, 2351.937
608.8990, 1798.929
610.0670, 1376.721
611.2350, 945.5291
612.4020, 738.4822
613.5700, 542.2571
614.7370, 496.0399
615.9050, 388.0887
617.0720, 357.0496
618.2390, 272.0958
619.4060, 235.1328
620.5720, 197.1121
621.7390, 196.9723
622.9050, 154.7468
624.0710, 218.3234
625.2370, 252.1792
626.4030, 203.1978
627.5690, 212.9561
628.7340, 139.7080
629.9000, 141.9095
631.0650, 150.2144
632.2300, 132.8556
633.3950, 115.5925
634.5600, 133.3226
635.7240, 120.0463
636.8890, 83.90991
638.0530, 114.6200
639.2170, 74.32336
640.3810, 93.42163
641.5450, 93.91675
642.7080, 76.55029
643.8720, 94.18530
645.0350, 79.19556
646.1980, 125.7500
647.3610, 151.8032
648.5240, 148.8386
649.6870, 139.2664
650.8490, 140.9622
652.0120, 65.16040
653.1740, 54.90576
654.3360, 77.93848
655.4980, 24.74878
656.6600, 52.26392
657.8210, 76.79688
658.9830, 6.733398
660.1440, 118.9839
661.3050, 56.69849
662.4660, 34.44189
663.6270, 69.14722
664.7870, 96.41553
665.9480, 15.87622
667.1080, 59.62769
668.2680, 15.85864
669.4280, 86.73608
670.5880, 38.40063
671.7480, 11.30200
672.9070, 80.96655
674.0670, 67.14478
675.2260, 75.16772
676.3850, 65.70947
677.5440, 60.66479
678.7030, 61.78052
679.8610, 42.43237
681.0200, 53.60815
682.1780, 33.37646
683.3360, 29.68140
684.4940, 43.22681
685.6520, 14.84058
686.8090, 16.31909
687.9670, 11.27734
689.1240, 56.95557
690.2810, 43.16187
691.4380, 25.65552
692.5950, 80.08667
693.7520, 85.95703
694.9080, 90.67920
696.0650, 61.15796
697.2210, 66.82007
698.3770, 52.66699
699.5330, 67.13794
700.6880, 34.50659
701.8440, 42.16455
702.9990, 42.08984
704.1550, 48.49585
705.3100, 55.28394
706.4650, 60.33936
707.6190, 64.20776
708.7740, 66.03174
709.9290, 65.38330
711.0830, 54.65259
712.2370, 47.08521
713.3910, 30.41064
714.5450, 46.66333
715.6980, 42.01685
716.8520, 66.31616
718.0050, 45.51807
719.1580, 99.70874
720.3110, 18.88818
721.4640, 60.05396
722.6170, 33.20874
723.7700, 57.35156
724.9220, 33.48315
726.0740, 65.60229
727.2260, 56.71069
728.3780, 61.80762
729.5300, 48.10376
730.6810, 57.96826
731.8330, 49.40723
732.9840, 31.08325
734.1350, 42.12231
735.2860, 59.14966
736.4370, 65.16553
737.5880, 1.829834
738.7380, 96.15527
739.8880, 91.12842
741.0390, 14.17676
742.1890, 82.12451
743.3380, 17.94629
744.4880, 41.94971
745.6380, 62.03467
746.7870, 29.67749
747.9360, 62.56250
749.0850, 57.43555
750.2340, 31.29736
751.3830, 63.36646
752.5310, 80.74902
753.6800, 26.57422
754.8280, 35.12769
755.9760, 28.89526
757.1240, 32.83203
758.2720, 70.73315
759.4190, 32.54590
760.5670, 105.2988
761.7140, 9.095947
762.8610, 52.80688
764.0080, 34.19336
765.1550, 99.88452
766.3020, 80.55566
767.4480, 117.6641
768.5950, 135.3108
769.7410, 149.9451
770.8870, 87.56738
772.0330, 88.17749
773.1780, 101.7751
774.3240, 45.36060
775.4690, 85.93237
776.6140, 94.49170
777.7590, 1.960938
778.9040, 19.56128
780.0490, 79.07056
781.1940, 68.58789
782.3380, 79.57471
783.4820, 52.55298
784.6260, 56.02563
785.7700, 32.49292
786.9140, 4.949707
788.0580, 59.38696
789.2010, 83.81104
790.3450, 45.22974
791.4880, 21.63525
792.6310, 19.02490
793.7730, 5.399902
794.9160, 4.754639
796.0590, 25.08911
797.2010, 11.15869
798.3430, 44.46021
799.4850, 40.74854
800.6270, 77.02393
801.7690, 26.29102
802.9100, 33.55493
804.0520, 58.75000
805.1930, 12.99780
806.3340, 24.21167
807.4750, 6.436279
808.6160, 21.64917
809.7560, 41.77344
810.8970, 9.041016
812.0370, 14.11816
813.1770, 69.26123
814.3170, 1.392578
815.4570, 27.49634
816.5960, 37.59033
817.7360, 6.664063
818.8750, 23.72046
820.0140, 4.762695
821.1530, 41.78613
822.2920, 35.79712
823.4310, 69.70605
824.5690, 10.61914
825.7070, 24.44849
826.8460, 60.59399
827.9840, 50.31152
829.1220, 16.83765
830.2590, 71.97241
831.3970, 22.16528
832.5340, 42.61084
833.6710, 17.37500
834.8080, 10.87402
835.9450, 85.85156
837.0820, 18.43359
838.2190, 13.17944
839.3550, 12.18359
840.4910, 38.42163
841.6270, 6.040527
842.7630, 13.33813
843.8990, 14.25830
845.0350, 80.84204
846.1700, 35.41846
847.3060, 82.98413
848.4410, 20.53369
849.5760, 24.03882
850.7100, 45.41797
851.8450, 19.89746
852.9800, 27.34570
854.1140, 54.84619
855.2480, 62.28638
856.3820, 80.76733
857.5160, 72.91260
858.6500, 66.37451
859.7830, 88.69312
860.9170, 101.1311
862.0500, 42.43164
863.1830, 43.85620
864.3160, 74.26123
865.4480, 150.6677
866.5810, 114.0176
867.7130, 125.3994
868.8460, 178.7356
869.9780, 87.94922
871.1100, 78.23657
872.2410, 141.5864
873.3730, 39.93237
874.5050, 41.28271
875.6360, 69.61230
876.7670, 9.934326
877.8980, 50.83276
879.0290, 10.86182
880.1590, 8.076904
881.2900, 0.2751460
882.4200, 25.45386
883.5500, 89.59570
884.6800, 35.83228
885.8100, 37.04053
886.9400, 1.908936
888.0690, 55.69409
889.1990, 29.48511
890.3280, 27.61377
891.4570, 15.64502
892.5860, 50.77856
893.7140, 18.92871
894.8430, 2.144287
895.9710, 11.95752
897.1000, 18.97241
898.2280, 39.27832
899.3560, 13.76172
900.4830, 8.019775
901.6110, 40.04956
902.7380, 42.92627
903.8660, 41.07104
904.9930, 43.06323
906.1200, 23.04980
907.2460, 116.0312
908.3730, 45.00781
909.5000, 43.97925
910.6260, 39.79932
911.7520, 71.76172
912.8780, 18.71924
914.0040, 17.27051
915.1290, 29.71533
916.2550, 0.3400880
917.3800, 23.57324
918.5050, 86.50977
919.6300, 112.3496
920.7550, 84.20166
921.8800, 60.87036
923.0040, 121.8376
924.1290, 49.69507
925.2530, 140.6099
926.3770, 95.39795
927.5010, 195.8953
928.6250, 83.33984
929.7480, 130.3462
930.8720, 155.3267
931.9950, 195.8933
933.1180, 221.1396
934.2410, 205.9202
935.3640, 262.6724
936.4860, 289.5642
937.6090, 318.1675
938.7310, 486.8608
939.8530, 598.6987
940.9750, 665.0364
942.0970, 886.6169
943.2180, 1011.734
944.3400, 1229.278
945.4610, 1416.046
946.5820, 1674.270
947.7030, 1804.671
948.8240, 2220.548
949.9450, 2621.448
951.0650, 3105.542
952.1860, 3956.290
953.3060, 5225.480
954.4260, 7103.097
955.5460, 9934.222
956.6650, 13792.00
957.7850, 19834.75
958.9040, 26657.62
960.0230, 34145.02
961.1420, 43908.67
962.2610, 54126.78
963.3800, 60726.62
964.4990, 59076.49
965.6170, 49994.93
966.7350, 37756.50
967.8530, 26863.31
968.9710, 17864.93
970.0890, 12273.26
971.2070, 8334.154
972.3240, 5802.044
973.4410, 4025.637
974.5580, 3014.955
975.6750, 2226.784
976.7920, 1632.224
977.9090, 1186.524
979.0250, 981.2000
980.1410, 760.8008
981.2580, 632.6479
982.3740, 562.5698
983.4890, 495.3540
984.6050, 452.1741
985.7200, 359.0913
986.8360, 289.9004
987.9510, 286.7593
989.0660, 183.7090
990.1810, 259.6716
991.2950, 210.6379
992.4100, 85.64990
993.5240, 186.6338
994.6390, 169.6292
995.7530, 186.6294
996.8660, 135.6389
997.9800, 187.6575
999.0940, 166.6826
1000.207, 211.7239
1001.320, 252.7710
1002.433, 359.8230
1003.546, 415.8850
1004.659, 534.9585
1005.772, 649.0281
1006.884, 775.1079
1007.996, 942.2334
1009.108, 1050.329
1010.220, 964.4438
1011.332, 893.4819
1012.444, 788.6143
1013.555, 693.8774
1014.666, 743.9524
1015.777, 817.9404
1016.888, 760.3748
1017.999, 702.5613
1019.110, 615.7542
1020.220, 488.9541
1021.331, 511.9417
1022.441, 401.6187
1023.551, 450.8484
1024.661, 411.3525
1025.770, 470.6484
1026.880, 448.7700
1027.989, 534.9214
1029.098, 532.1631
1030.207, 605.4590
1031.316, 645.7061
1032.425, 635.0322
1033.533, 762.6780
1034.642, 901.0178
1035.750, 942.3735
1036.858, 1115.288
1037.966, 1310.661
1039.073, 1528.042
1040.181, 1752.432
1041.288, 1926.841
1042.396, 2239.261
1043.503, 2555.690
1044.610, 3057.129
1045.716, 3889.576
1046.823, 4923.033
1047.929, 6228.504
1049.036, 7662.988
1050.142, 9415.467
1051.248, 10573.97
1052.353, 10518.49
1053.459, 9547.116
1054.564, 7815.651
1055.670, 5912.197
1056.775, 4487.756
1057.880, 3523.327
1058.985, 2612.906
1060.089, 2201.496
1061.194, 1811.096
1062.298, 1464.915
1063.402, 1409.541
1064.506, 1167.181
1065.610, 1120.832
1066.713, 1022.496
1067.817, 1065.596
1068.920, 1079.281
1070.023, 1182.977
1071.126, 1382.684
1072.229, 1590.402
1073.332, 1904.130
1074.435, 2339.870
1075.537, 2853.622
1076.639, 3435.387
1077.741, 4154.556
1078.843, 4443.344
1079.945, 4383.150
1081.046, 4062.968
1082.148, 3185.796
1083.249, 2670.639
1084.350, 2197.504
1085.451, 1937.378
1086.551, 1491.267
1087.652, 1283.166
1088.752, 1103.079
1089.853, 968.0027
1090.953, 820.9370
1092.053, 719.8813
1093.152, 587.8379
1094.252, 548.8057
1095.351, 445.8049
1096.451, 368.8145
1097.550, 316.1331
1098.649, 266.9050
1099.748, 211.9868
1100.846, 152.0793
1101.945, 125.1831
1103.043, 173.3037
1104.141, 124.4348
1105.239, 90.58472
1106.337, 32.74634
1107.434, 88.92480
1108.532, 115.1140
1109.629, 94.31519
1110.726, 2.533447
1111.823, 38.23682
1112.920, 67.99609
1114.017, 64.23950
1115.113, 129.4929
1116.210, 61.75684
1117.306, 94.03345
1118.402, 123.3201
1119.498, 74.19482
1120.593, 53.50244
1121.689, 102.6292
1122.784, 114.9619
1123.879, 4.689453
1124.974, 133.1462
1126.069, 71.82593
1127.164, 198.2026
1128.259, 115.5208
1129.353, 159.7578
1130.447, 84.39111
1131.541, 20.36255
1132.635, 13.79858
1133.729, 12.24390
1134.822, 42.68213
1135.916, 74.14478
1137.009, 6.617432
1138.102, 2.098633
1139.195, 4.411133
1140.288, 55.08667
1141.380, 10.53003
1142.473, 61.93579
1143.565, 81.46021
1144.657, 22.43066
1145.749, 113.9758
1146.841, 81.52979
1147.932, 52.16577
1149.024, 64.74438
1150.115, 55.73828
1151.206, 54.34399
1152.297, 52.69751
1153.388, 86.95361
1154.479, 35.59058
1155.569, 99.05884
1156.659, 146.3867
1157.750, 88.05518
1158.839, 185.7449
1159.929, 171.7629
1161.019, 152.4719
1162.108, 141.1882
1163.198, 150.9163
1164.287, 85.65112
1165.376, 128.1726
1166.465, 106.9238
1167.553, 162.6829
1168.642, 61.45825
1169.730, 51.24536
1170.818, 58.03833
1171.906, 113.2546
1172.994, 44.47949
1174.082, 88.29102
1175.170, 19.10840
1176.257, 135.9316
1177.344, 49.76099
1178.431, 41.60400
1179.518, 44.81128
1180.605, 148.3958
1181.691, 36.41211
1182.778, 115.2776
1183.864, 5.851563
1184.950, 59.02344
1186.036, 52.90332
1187.122, 49.78857
1188.207, 70.88208
1189.292, 55.61279
1190.378, 67.52124
1191.463, 12.43457
1192.548, 9.647461
1193.632, 84.27295
1194.717, 36.23511
1195.801, 68.16455
1196.886, 100.0996
1197.970, 15.96069
1199.054, 106.9790
1200.137, 67.37378
1201.221, 50.32178
1202.305, 78.27368
1203.388, 77.22949
1204.471, 57.18921
1205.554, 23.15283
1206.637, 81.12012
1207.719, 13.50000
1208.802, 51.51929
1209.884, 50.49512
1210.966, 99.47437
1212.048, 22.45703
1213.130, 16.44287
1214.212, 52.43213
1215.293, 86.42432
1216.374, 88.41919
1217.456, 130.4172
1218.536, 85.41870
1219.617, 129.4224
1220.698, 183.4292
1221.778, 145.4382
1222.859, 182.4502
1223.939, 179.4644
1225.019, 88.71265
1226.099, 113.7327
1227.178, 83.75464
1228.258, 137.7786
1229.337, 76.80420
1230.417, 74.83154
1231.496, 102.8604
1232.574, 146.8906
1233.653, 45.92603
1234.732, 104.9587
1235.810, 164.0186
1236.888, 84.05322
1237.966, 64.08887
1239.044, 133.1255
1240.122, 36.16309
1241.199, 71.20117
1242.277, 5.554199
1243.354, 78.59375
1244.431, 91.63379
1245.508, 64.67480
1246.585, 31.17041
1247.661, 38.21289
1248.738, 10.65186
1249.814, 37.38477
1250.890, 31.49951
1251.966, 59.69092
1253.042, 21.15869
1254.117, 24.86133
1255.193, 21.85596
1256.268, 19.13721
1257.343, 14.87012
1258.418, 12.70020
1259.493, 0.7260740
1260.567, 38.92676
1261.642, 59.02051
1262.716, 56.96680
1263.790, 13.08838
1264.864, 90.84619
1265.938, 105.0200
1267.011, 61.95215
1268.085, 14.88379
1269.158, 22.77344
1270.231, 42.29834
1271.304, 9.396484
1272.377, 12.67334
1273.450, 33.43701
1274.522, 24.42871
1275.594, 50.36816
1276.666, 26.76953
1277.738, 27.07178
1278.810, 28.91113
1279.882, 55.74854
1280.953, 5.590332
1282.025, 18.57275
1283.096, 12.24658
1284.167, 20.93652
1285.238, 34.13867
1286.308, 59.63330
1287.379, 64.41895
1288.449, 11.81445
1289.519, 48.93652
1290.589, 45.72998
1291.659, 53.47461
1292.729, 39.21680
1293.798, 2.044922
1294.868, 79.68262
1295.937, 37.51660
1297.006, 52.23730
1298.075, 114.0063
1299.143, 89.72021
1300.212, 26.56689
1301.280, 6.120605
1302.348, 30.80029
1303.416, 78.48193
1304.484, 74.15283
1305.552, 45.82080
1306.620, 35.41113
1307.687, 10.08057
1308.754, 2.731934
1309.821, 16.37256
1310.888, 117.0308
1311.955, 87.66016
1313.021, 125.1875
1314.088, 49.81104
1315.154, 43.42969
1316.220, 31.57568
1317.286, 62.37793
1318.352, 70.21484
1319.417, 69.81348
1320.483, 95.40625
1321.548, 87.78711
1322.613, 32.36865
1323.678, 105.9424
1324.743, 46.81250
1325.807, 76.37842
1326.872, 147.5117
1327.936, 13.06787
1329.000, 92.61816
1330.064, 114.1621
1331.128, 105.7017
1332.191, 166.2378
1333.255, 73.77002
1334.318, 152.2979
1335.381, 16.21484
1336.444, 37.34131
1337.507, 89.85400
1338.569, 137.4072
1339.632, 163.9097
1340.694, 56.40723
1341.756, 70.92432
1342.818, 93.41211
1343.880, 107.8950
1344.941, 105.4136
1346.003, 127.9697
1347.064, 84.43799
1348.125, 61.90186
1349.186, 58.35693
1350.247, 76.85791
1351.308, 97.29639
1352.368, 26.87061
1353.428, 106.4478
1354.489, 138.8599
1355.549, 75.25928
1356.608, 102.7036
1357.668, 81.08545
1358.727, 161.5034
1359.787, 140.8687
1360.846, 60.22900
1361.905, 97.58252
1362.964, 55.92969
1364.022, 118.2720
1365.081, 103.6084
1366.139, 110.9390
1367.197, 148.2646
1368.255, 143.5845
1369.313, 115.9116
1370.371, 91.32568
1371.428, 158.6328
1372.486, 80.01855
1373.543, 22.44678
1374.600, 106.7412
1375.657, 45.01709
1376.713, 81.71045
1377.770, 5.975098
1378.826, 35.41113
1379.882, 1.354980
1380.938, 117.8799
1381.994, 86.65039
1383.050, 83.65332
1384.106, 79.84570
1385.161, 1.099121
1386.216, 107.4365
1387.271, 9.618164
1388.326, 117.9902
1389.381, 136.1382
1390.435, 133.2842
1391.490, 126.4370
1392.544, 25.73096
1393.598, 88.85205
1394.652, 225.1021
1395.705, 85.21045
1396.759, 119.4282
1397.812, 89.58838
1398.866, 27.78906
1399.919, 176.8730
1400.972, 198.5576
1402.024, 41.62695
1403.077, 123.6899
1404.129, 120.6743
1405.181, 136.7266
1406.233, 133.7734
1407.285, 73.39844
1408.337, 161.2651
1409.389, 154.6519
1410.440, 75.67334
1411.491, 192.9468
1412.542, 98.28760
1413.593, 52.29346
1414.644, 69.29492
1415.695, 85.97559
1416.745, 44.96582
1417.795, 77.97266
1418.845, 157.9541
1419.895, 119.9312
1420.945, 101.1284
1421.995, 30.09424
1423.044, 75.05322
1424.093, 4.993652
1425.142, 187.9507
1426.191, 79.51953
1427.240, 99.04932
1428.289, 167.5684
1429.337, 54.45703
1430.385, 89.33984
1431.433, 74.25928
1432.481, 19.87061
1433.529, 54.04688
1434.577, 72.53760
1435.624, 94.68506
1436.672, 50.36523
1437.719, 81.19531
1438.766, 80.13525
1439.812, 124.5381
1440.859, 78.30957
1441.905, 13.74854
1442.952, 20.00537
1443.998, 16.72852
1445.044, 87.35352
1446.090, 123.9478
1447.135, 100.4414
1448.181, 59.14160
1449.226, 105.1768
1450.271, 12.28857
1451.316, 127.3921
1452.361, 173.0239
1453.405, 108.1055
1454.450, 93.17676
1455.494, 66.80762
1456.538, 80.80518
1457.582, 90.84180
1458.626, 129.8677
1459.670, 115.5581
1460.713, 7.887207
1461.757, 79.88037
1462.800, 106.8618
1463.843, 49.57031
1464.886, 169.5259
1465.928, 194.4692
1466.971, 55.40186
1468.013, 109.3193
1469.055, 78.20020
1470.097, 52.09961
1471.139, 41.98975
1472.181, 87.86816
1473.222, 154.7339
1474.263, 124.0186
1475.305, 49.73486
1476.346, 201.1846
1477.386, 25.91846
1478.427, 24.71826
1479.468, 117.5303
1480.508, 80.76416
1481.548, 42.10938
1482.588, 55.90137
1483.628, 45.36328
1484.668, 57.14160
1485.707, 57.90820
1486.747, 66.45068
1487.786, 114.2583
1488.825, 68.96191
1489.864, 136.7944
1490.902, 90.60938
1491.941, 88.42041
1492.979, 110.2476
1494.017, 55.09131
1495.055, 33.96387
1496.093, 86.76709
1497.131, 38.63721
1498.168, 27.33398
1499.206, 54.44531
1500.243, 64.28076
1501.280, 65.14600
1502.317, 116.0020
1503.354, 92.45459
1504.390, 85.24658
1505.426, 53.02637
1506.463, 48.84717
1507.499, 31.65527
1508.535, 81.16260
1509.570, 107.4609
1510.606, 89.20654
1511.641, 86.95898
1512.676, 60.09033
1513.711, 114.8193
1514.746, 53.53809
1515.781, 135.2471
1516.816, 18.94092
1517.850, 87.74121
1518.884, 22.28662
1519.918, 107.9238
1520.952, 27.48926
1521.986, 115.0000
1523.019, 62.38672
1524.053, 112.9653
1525.086, 44.42334
1526.119, 88.24756
1527.152, 195.8750
1528.185, 125.3926
1529.217, 91.94971
1530.250, 150.6318
1531.282, 19.69043
1532.314, 141.9771
1533.346, 101.6328
1534.377, 67.91406
1535.409, 37.25732
1536.440, 128.3906
1537.472, 136.0068
1538.503, 102.6562
1539.534, 126.2988
1540.564, 77.46387
1541.595, 53.22803
1542.625, 146.9961
1543.656, 124.7827
1544.686, 98.55029
1545.716, 183.6201
1546.745, 63.79053
1547.775, 82.02539
1548.804, 114.8120
1549.834, 1.601074
1550.863, 60.24023
1551.892, 62.09814
1552.920, 100.2642
1553.949, 130.6289
1554.977, 46.44043
1556.006, 72.74219
1557.034, 43.00195
1558.062, 64.02344
1559.089, 50.10156
1560.117, 104.1294
1561.144, 113.0767
1562.172, 21.57764
1563.199, 3.222656
1564.226, 60.70215
1565.252, 17.97363
1566.279, 45.12402
1567.305, 124.2734
1568.332, 68.87305
1569.358, 34.76416
1570.384, 39.22412
1571.409, 0.1259770
1572.435, 0.0000000E+00
##END=



