##NAMES=Fluorapatite
##RRUFFID=R060184
##IDEAL CHEMISTRY=Ca_5_(PO_4_)_3_F
##LOCALITY=Yates mine, Otter Lake, Quebec, Canada
##OWNER=RRUFF
##SOURCE=Lloyd Twaites
##DESCRIPTION=Green colored fragment of a hexagonal prism
##STATUS=The identification of this mineral has been confirmed by X-ray diffraction and chemical analysis
##URL=rruff.info/R060184
##MEASURED CHEMISTRY=(Ca_0.99_Ce_0.01_)_5.00_((P_0.98_Si_0.01_S_0.01_)O_4_)_3_F_1.00_
##PIN_ID=M00887
##ORIENTATION=Laser parallel to c* (0 0 1). Fiducial mark perpendicular to laser is parallel to a [1 0 0]
170.5590, 0.0000000E+00
171.7860, 0.1701660
173.0130, 27.98096
174.2400, 1.555664
175.4670, 48.27563
176.6930, 50.48145
177.9200, 76.57104
179.1460, 48.50122
180.3720, 61.61719
181.5980, 28.48486
182.8230, 98.27783
184.0490, 16.68335
185.2740, 47.30029
186.5000, 70.16553
187.7250, 51.24829
188.9500, 0.4184570
190.1740, 34.65210
191.3990, 1.526855
192.6230, 21.26392
193.8480, 16.34839
195.0720, 40.12109
196.2960, 41.69165
197.5200, 140.3723
198.7430, 27.15283
199.9670, 62.01660
201.1900, 71.93896
202.4130, 4.106689
203.6360, 166.8562
204.8590, 128.8101
206.0820, 127.7390
207.3050, 133.6311
208.5270, 196.4836
209.7490, 203.2966
210.9710, 188.0903
212.1930, 143.9172
213.4150, 133.7810
214.6370, 183.7214
215.8580, 209.7510
217.0790, 241.8711
218.3010, 236.2539
219.5210, 188.7708
220.7420, 180.4309
221.9630, 285.2480
223.1830, 242.1748
224.4040, 343.1260
225.6240, 216.0544
226.8440, 345.0205
228.0640, 445.9177
229.2840, 403.7261
230.5030, 496.4260
231.7230, 396.9978
232.9420, 518.4312
234.1610, 464.7295
235.3800, 450.8970
236.5990, 440.9382
237.8170, 435.8547
239.0360, 415.6509
240.2540, 359.3296
241.4720, 327.8931
242.6900, 268.3440
243.9080, 179.7119
245.1250, 228.0693
246.3430, 282.4043
247.5600, 302.7095
248.7770, 203.9834
249.9940, 319.3389
251.2110, 259.6951
252.4280, 364.1221
253.6450, 240.7119
254.8610, 449.2756
256.0770, 487.8838
257.2930, 577.5337
258.5090, 688.9094
259.7250, 828.9988
260.9400, 791.1387
262.1560, 1076.880
263.3710, 1016.805
264.5860, 1007.174
265.8010, 977.3682
267.0160, 1069.402
268.2310, 977.6279
269.4450, 985.0701
270.6600, 836.5942
271.8740, 816.4238
273.0880, 801.1504
274.3020, 749.9746
275.5150, 622.4065
276.7290, 659.5745
277.9420, 685.6011
279.1550, 534.9255
280.3680, 498.3428
281.5810, 532.7324
282.7940, 505.9009
284.0070, 488.8958
285.2190, 480.4365
286.4310, 540.1941
287.6430, 433.4260
288.8550, 377.7793
290.0670, 474.7017
291.2790, 466.3059
292.4900, 498.4253
293.7020, 400.5049
294.9130, 436.5439
296.1240, 504.5356
297.3350, 498.4790
298.5450, 536.3730
299.7560, 559.2173
300.9660, 618.0122
302.1760, 632.1033
303.3860, 686.4534
304.5960, 669.0996
305.8060, 677.6975
307.0150, 683.2466
308.2250, 663.3162
309.4340, 665.0383
310.6430, 640.6035
311.8520, 632.9602
313.0610, 642.2695
314.2700, 598.5317
315.4780, 559.7476
316.6860, 420.1423
317.8940, 458.2644
319.1020, 301.2363
320.3100, 366.9258
321.5180, 336.5801
322.7250, 279.0723
323.9330, 288.3943
325.1400, 298.5464
326.3470, 221.5576
327.5540, 205.2600
328.7600, 274.0515
329.9670, 128.3042
331.1730, 161.7854
332.3800, 172.2703
333.5860, 98.89624
334.7920, 143.5483
335.9970, 93.45776
337.2030, 171.3291
338.4080, 59.88306
339.6140, 107.8982
340.8190, 98.32690
342.0240, 131.8628
343.2290, 59.90820
344.4330, 61.58862
345.6380, 7.779541
346.8420, 94.32568
348.0460, 37.49365
349.2500, 57.29688
350.4540, 48.38965
351.6580, 64.52441
352.8610, 73.77686
354.0650, 23.47485
355.2680, 46.49707
356.4710, 18.09863
357.6740, 9.181885
358.8760, 61.94873
360.0790, 54.94165
361.2810, 18.58008
362.4840, 63.14795
363.6860, 50.48950
364.8880, 12.07349
366.0900, 10.39941
367.2910, 2.646484
368.4930, 51.02759
369.6940, 3.633301
370.8950, 48.94629
372.0960, 22.60352
373.2970, 60.47632
374.4980, 87.68774
375.6980, 15.83545
376.8980, 10.19653
378.0990, 32.85498
379.2990, 47.64844
380.4980, 2.818115
381.6980, 0.1513670
382.8980, 12.92505
384.0970, 12.28760
385.2960, 40.83057
386.4950, 39.90308
387.6940, 40.61768
388.8930, 26.27612
390.0920, 33.13452
391.2900, 122.3008
392.4880, 64.79663
393.6860, 12.52710
394.8840, 144.9841
396.0820, 71.09180
397.2800, 31.37646
398.4770, 116.1399
399.6750, 161.6382
400.8720, 99.63623
402.0690, 128.8022
403.2660, 223.5342
404.4620, 191.3613
405.6590, 128.1108
406.8550, 174.6558
408.0510, 218.8530
409.2480, 247.0298
410.4430, 199.6689
411.6390, 337.9585
412.8350, 308.2593
414.0300, 279.5557
415.2250, 399.4473
416.4200, 383.7441
417.6150, 403.5303
418.8100, 554.1343
420.0050, 582.8418
421.1990, 707.3555
422.3940, 723.8271
423.5880, 730.2588
424.7820, 950.6499
425.9750, 1063.988
427.1690, 1262.287
428.3630, 1298.549
429.5560, 1335.773
430.7490, 1411.965
431.9420, 1482.122
433.1350, 1582.246
434.3280, 1617.337
435.5200, 1683.396
436.7130, 1890.425
437.9050, 1957.424
439.0970, 2102.393
440.2890, 2214.332
441.4810, 2256.242
442.6720, 2559.123
443.8640, 2547.976
445.0550, 2591.800
446.2460, 2500.598
447.4370, 2475.368
448.6280, 2398.109
449.8180, 2242.823
451.0090, 2093.508
452.1990, 1827.165
453.3890, 1633.795
454.5790, 1474.396
455.7690, 1325.973
456.9590, 1157.521
458.1480, 998.0449
459.3380, 853.5483
460.5270, 852.0107
461.7160, 723.4321
462.9050, 652.8125
464.0940, 536.1562
465.2820, 602.4624
466.4700, 505.7300
467.6590, 379.9619
468.8470, 354.1592
470.0350, 481.3164
471.2220, 358.3672
472.4100, 325.4565
473.5970, 335.1123
474.7850, 285.8750
475.9720, 207.6440
477.1590, 308.0674
478.3460, 102.6489
479.5320, 227.9785
480.7190, 148.5996
481.9050, 165.7056
483.0910, 201.9971
484.2770, 170.2114
485.4630, 104.5264
486.6490, 94.49268
487.8340, 20.57178
489.0200, 37.90088
490.2050, 44.86328
491.3900, 119.4512
492.5750, 44.16455
493.7600, 34.75928
494.9440, 16.43408
496.1290, 8.159668
497.3130, 38.30957
498.4970, 3.286621
499.6810, 1.833008
500.8650, 52.11133
502.0480, 1.510254
503.2320, 12.47266
504.4150, 64.45312
505.5980, 60.27881
506.7810, 76.78418
507.9640, 21.18457
509.1460, 4.679199
510.3290, 7.619141
511.5110, 10.54346
512.6930, 46.78369
513.8750, 21.39404
515.0570, 66.10205
516.2390, 38.18945
517.4210, 32.11133
518.6020, 64.29297
519.7830, 31.68311
520.9640, 83.05615
522.1450, 3.605957
523.3260, 14.48145
524.5060, 3.142090
525.6870, 35.75439
526.8670, 49.72852
528.0470, 29.49951
529.2270, 30.66455
530.4070, 34.54053
531.5870, 41.19287
532.7660, 62.90234
533.9450, 39.36377
535.1240, 1.371582
536.3030, 29.28906
537.4820, 102.7393
538.6610, 49.95703
539.8390, 98.29102
541.0180, 0.8735350
542.1960, 86.41797
543.3740, 35.66211
544.5520, 126.2700
545.7290, 93.13184
546.9070, 100.4419
548.0840, 138.7256
549.2620, 207.3940
550.4390, 197.6621
551.6160, 70.74365
552.7920, 143.4917
553.9690, 128.3130
555.1450, 114.8735
556.3220, 200.4321
557.4980, 89.86279
558.6740, 195.3730
559.8490, 237.8340
561.0250, 191.2783
562.2000, 226.9463
563.3760, 308.8135
564.5510, 402.5762
565.7260, 412.4165
566.9010, 413.0698
568.0750, 621.6836
569.2500, 648.3340
570.4240, 840.6445
571.5980, 1062.365
572.7720, 1282.523
573.9460, 1610.890
575.1200, 1877.938
576.2930, 2350.839
577.4670, 2930.911
578.6400, 3401.656
579.8130, 3775.519
580.9860, 3296.271
582.1590, 2954.236
583.3310, 2578.169
584.5040, 2078.155
585.6760, 1635.422
586.8480, 1576.718
588.0200, 1392.776
589.1920, 1349.504
590.3630, 1364.335
591.5350, 1238.106
592.7060, 1179.974
593.8770, 1078.779
595.0480, 1029.547
596.2190, 1093.654
597.3900, 993.6343
598.5600, 1183.561
599.7310, 1226.891
600.9010, 1346.459
602.0710, 1563.544
603.2410, 1995.024
604.4100, 2248.720
605.5800, 2293.309
606.7490, 2268.669
607.9190, 1967.398
609.0880, 1792.260
610.2570, 1673.495
611.4250, 1457.773
612.5940, 1349.868
613.7620, 1368.320
614.9310, 1360.414
616.0990, 1151.455
617.2670, 989.6113
618.4340, 815.3081
619.6020, 713.6460
620.7690, 612.3823
621.9370, 541.4438
623.1040, 413.4541
624.2710, 351.3477
625.4380, 373.2295
626.6040, 409.5913
627.7710, 303.4673
628.9370, 351.7881
630.1030, 354.5713
631.2690, 405.4102
632.4350, 291.9839
633.6010, 395.2100
634.7660, 381.8223
635.9320, 515.2827
637.0970, 453.1797
638.2620, 541.3037
639.4270, 624.8218
640.5920, 627.0640
641.7560, 671.9810
642.9210, 638.5024
644.0850, 611.8813
645.2490, 841.9805
646.4130, 856.5078
647.5770, 755.1880
648.7400, 925.7075
649.9040, 791.1226
651.0670, 790.4565
652.2300, 781.3389
653.3930, 802.7041
654.5560, 785.2695
655.7190, 649.9058
656.8810, 695.1387
658.0440, 672.5801
659.2060, 561.4648
660.3680, 583.6655
661.5300, 505.9736
662.6910, 470.5723
663.8530, 462.9014
665.0140, 417.6494
666.1750, 423.4331
667.3360, 296.2363
668.4970, 259.9360
669.6580, 330.9985
670.8190, 388.3564
671.9790, 391.2124
673.1390, 233.6196
674.2990, 209.8301
675.4590, 230.5884
676.6190, 296.5825
677.7790, 201.4897
678.9380, 235.6670
680.0970, 159.2246
681.2570, 263.8511
682.4160, 165.2651
683.5740, 98.08008
684.7330, 123.3809
685.8920, 214.1997
687.0500, 147.8281
688.2080, 93.58789
689.3660, 235.6211
690.5240, 50.81592
691.6820, 74.95264
692.8390, 119.1816
693.9960, 175.2119
695.1540, 170.0117
696.3110, 192.9287
697.4680, 165.2490
698.6240, 168.6689
699.7810, 166.4688
700.9370, 104.7861
702.0940, 50.23926
703.2500, 67.66504
704.4060, 41.13672
705.5610, 78.39355
706.7170, 79.92480
707.8720, 63.52051
709.0280, 136.6592
710.1830, 34.51660
711.3380, 157.5615
712.4920, 111.9727
713.6470, 156.1104
714.8020, 195.1895
715.9560, 146.5381
717.1100, 216.3623
718.2640, 179.9492
719.4180, 197.8867
720.5720, 138.6631
721.7250, 138.3154
722.8780, 117.3564
724.0320, 41.91797
725.1850, 34.43164
726.3380, 74.89844
727.4900, 145.3164
728.6430, 112.0654
729.7950, 118.0166
730.9470, 86.29883
732.1000, 92.53320
733.2510, 92.72168
734.4030, 23.86328
735.5550, 34.95508
736.7060, 37.51074
737.8570, 29.44531
739.0090, 97.48535
740.1600, 207.1143
741.3100, 103.9785
742.4610, 52.59082
743.6110, 69.80078
744.7620, 115.4990
745.9120, 36.09473
747.0620, 19.40039
748.2120, 139.6152
749.3610, 120.1279
750.5110, 170.6299
751.6600, 76.04102
752.8090, 5.054688
753.9580, 165.3896
755.1070, 73.26953
756.2560, 33.47852
757.4050, 146.6885
758.5530, 169.5557
759.7010, 50.03027
760.8490, 70.12207
761.9970, 129.3652
763.1450, 103.3799
764.2920, 163.8066
765.4400, 270.3242
766.5870, 204.0977
767.7340, 214.0049
768.8810, 48.69336
770.0280, 104.3301
771.1740, 102.9150
772.3210, 78.45215
773.4670, 136.9375
774.6130, 13.62305
775.7590, 95.74805
776.9050, 108.0693
778.0510, 1.380859
779.1960, 128.5938
780.3420, 144.4463
781.4870, 23.65527
782.6320, 112.3047
783.7770, 276.3154
784.9210, 55.29883
786.0660, 73.04395
787.2100, 154.7773
788.3540, 177.0488
789.4980, 84.77637
790.6420, 223.3594
791.7860, 41.98828
792.9300, 51.56348
794.0730, 70.08203
795.2160, 52.54590
796.3590, 34.95410
797.5020, 63.30273
798.6450, 18.40527
799.7880, 28.84570
800.9300, 126.9561
802.0720, 71.05859
803.2150, 111.1094
804.3560, 120.1162
805.4980, 59.08691
806.6400, 172.0068
807.7810, 109.8799
808.9230, 213.7031
810.0640, 111.4814
811.2050, 8.791016
812.3460, 146.7832
813.4860, 46.38965
814.6270, 220.9385
815.7670, 107.3262
816.9070, 113.7793
818.0470, 132.9346
819.1870, 85.31641
820.3270, 125.7178
821.4670, 104.1504
822.6060, 159.9580
823.7450, 202.0986
824.8840, 198.5449
826.0230, 190.4590
827.1620, 131.5039
828.3010, 71.77051
829.4390, 30.08691
830.5770, 33.52246
831.7150, 21.13184
832.8530, 92.66504
833.9910, 112.2432
835.1290, 283.6660
836.2660, 51.05762
837.4030, 234.3818
838.5410, 64.40527
839.6780, 140.1445
840.8140, 182.9102
841.9510, 90.52051
843.0870, 150.2363
844.2240, 121.9111
845.3600, 218.4717
846.4960, 77.29297
847.6320, 233.6260
848.7680, 115.4424
849.9030, 168.0215
851.0380, 169.7422
852.1740, 98.58203
853.3090, 219.1719
854.4440, 259.0127
855.5780, 305.6602
856.7130, 181.3408
857.8470, 296.7314
858.9820, 96.07812
860.1160, 266.2949
861.2500, 319.1543
862.3830, 325.9092
863.5170, 310.8271
864.6500, 307.9980
865.7840, 254.9912
866.9170, 263.9697
868.0500, 250.7764
869.1830, 288.5693
870.3150, 261.3242
871.4480, 308.6650
872.5800, 74.06055
873.7120, 158.4307
874.8440, 168.3223
875.9760, 19.90234
877.1080, 156.8818
878.2390, 33.60742
879.3710, 70.59277
880.5020, 156.8242
881.6330, 44.20996
882.7640, 0.8505860
883.8940, 80.12793
885.0250, 144.1133
886.1550, 86.76172
887.2850, 182.4404
888.4160, 52.21289
889.5450, 23.72949
890.6750, 17.29004
891.8050, 180.8730
892.9340, 115.0879
894.0630, 42.91016
895.1930, 95.21387
896.3220, 74.39062
897.4500, 125.8242
898.5790, 59.66895
899.7070, 51.59082
900.8360, 38.36035
901.9640, 173.2285
903.0920, 21.50781
904.2200, 203.7842
905.3470, 178.9990
906.4750, 215.7344
907.6020, 169.4297
908.7290, 105.8906
909.8560, 186.6973
910.9830, 127.7676
912.1100, 130.2861
913.2360, 62.88086
914.3630, 194.7754
915.4890, 141.5898
916.6150, 48.95117
917.7410, 2.124023
918.8670, 131.4229
919.9920, 62.41602
921.1180, 17.93945
922.2430, 110.5156
923.3680, 2.107422
924.4930, 129.3232
925.6180, 25.82910
926.7420, 103.7119
927.8670, 119.8135
928.9910, 283.0654
930.1150, 61.58301
931.2390, 199.8047
932.3630, 243.6641
933.4860, 251.0225
934.6100, 298.4316
935.7330, 359.0762
936.8560, 633.0312
937.9790, 583.4238
939.1020, 749.2188
940.2250, 875.0732
941.3470, 892.2295
942.4700, 1221.283
943.5920, 1421.005
944.7140, 1691.202
945.8360, 1936.907
946.9570, 2308.656
948.0790, 2673.526
949.2000, 3437.342
950.3220, 3938.495
951.4430, 5112.102
952.5640, 6462.753
953.6840, 7864.498
954.8050, 10047.86
955.9250, 12600.56
957.0460, 16438.08
958.1660, 21015.90
959.2860, 26525.88
960.4050, 32623.84
961.5250, 40005.76
962.6440, 45465.43
963.7640, 47298.55
964.8830, 43923.84
966.0020, 37558.21
967.1210, 30659.18
968.2390, 23693.55
969.3580, 18069.56
970.4760, 13398.61
971.5940, 10024.35
972.7120, 7598.434
973.8300, 5684.422
974.9480, 4390.072
976.0650, 3193.900
977.1830, 2504.256
978.3000, 1735.944
979.4170, 1740.513
980.5340, 1180.484
981.6500, 974.6836
982.7670, 845.6396
983.8830, 576.1787
985.0000, 697.9385
986.1160, 340.7041
987.2320, 312.1650
988.3470, 217.0977
989.4630, 457.0234
990.5780, 142.9414
991.6940, 188.7734
992.8090, 185.6787
993.9240, 87.16211
995.0380, 99.07324
996.1530, 391.0537
997.2680, 230.9600
998.3820, 184.8623
999.4960, 78.76172
1000.610, 361.6572
1001.724, 397.5508
1002.837, 375.4512
1003.951, 743.3516
1005.064, 666.2500
1006.177, 917.1484
1007.291, 967.5332
1008.403, 953.3848
1009.516, 869.2910
1010.629, 743.4551
1011.741, 865.3379
1012.853, 722.4277
1013.965, 594.8750
1015.077, 659.7871
1016.189, 521.7559
1017.300, 516.9697
1018.412, 556.2285
1019.523, 557.1445
1020.634, 853.0293
1021.745, 781.9688
1022.856, 937.2588
1023.966, 945.1924
1025.077, 872.5371
1026.187, 1140.543
1027.297, 1214.516
1028.407, 1397.794
1029.517, 1537.425
1030.627, 1806.397
1031.736, 1779.176
1032.845, 1759.145
1033.955, 1775.662
1035.064, 1573.051
1036.172, 1681.150
1037.281, 1348.086
1038.390, 1314.207
1039.498, 1023.342
1040.606, 1002.490
1041.714, 953.6523
1042.822, 878.8301
1043.930, 868.0195
1045.037, 885.2363
1046.145, 719.4668
1047.252, 590.6758
1048.359, 828.9434
1049.466, 793.5371
1050.573, 644.7480
1051.679, 919.4805
1052.786, 1073.816
1053.892, 980.1699
1054.998, 1210.811
1056.104, 1259.230
1057.210, 1417.102
1058.315, 1266.555
1059.421, 1551.119
1060.526, 1685.611
1061.631, 1345.377
1062.736, 1271.914
1063.841, 1226.473
1064.946, 1138.055
1066.050, 1086.660
1067.154, 1185.289
1068.258, 1257.955
1069.362, 1322.648
1070.466, 1487.361
1071.570, 1491.100
1072.674, 1505.857
1073.777, 1447.639
1074.880, 1406.404
1075.983, 1352.701
1077.086, 1226.121
1078.189, 1192.992
1079.291, 1026.885
1080.394, 901.8164
1081.496, 959.7715
1082.598, 785.7559
1083.700, 581.7617
1084.802, 512.7930
1085.903, 198.8457
1087.005, 377.9258
1088.106, 348.0293
1089.207, 229.1582
1090.308, 75.31445
1091.409, 115.4941
1092.509, 92.69727
1093.610, 120.9238
1094.710, 20.17383
1095.810, 114.4531
1096.910, 103.7578
1098.010, 26.09375
1099.110, 94.53516
1100.209, 4.839844
1101.309, 57.75586
1102.408, 41.66016
1103.507, 49.02344
1104.606, 5.503906
1105.704, 158.7441
1106.803, 269.2715
1107.901, 107.8262
1108.999, 129.4062
1110.097, 16.01562
1111.195, 204.6523
1112.293, 134.3164
1113.391, 188.0098
1114.488, 62.73242
1115.585, 9.480469
1116.682, 195.2578
1117.779, 243.0723
1118.876, 300.1562
1119.973, 226.0273
1121.069, 210.9258
1122.165, 230.8516
1123.261, 276.8047
1124.357, 276.7891
1125.453, 355.3574
1126.549, 411.3984
1127.644, 5.527344
1128.739, 236.5742
1129.835, 78.70508
1130.930, 177.8672
1132.024, 192.0566
1133.119, 154.2734
1134.214, 198.7051
1135.308, 261.1309
1136.402, 163.4375
1137.496, 141.7754
1138.590, 55.14258
1139.684, 231.5410
1140.777, 16.97070
1141.871, 175.4336
1142.964, 138.9316
1144.057, 202.6836
1145.150, 212.2637
1146.243, 124.8789
1147.335, 187.5254
1148.428, 116.2070
1149.520, 143.9297
1150.612, 285.7207
1151.704, 139.8691
1152.796, 114.7871
1153.887, 206.7090
1154.979, 246.6758
1156.070, 37.68359
1157.161, 195.1270
1158.252, 149.1719
1159.343, 407.2832
1160.433, 254.4277
1161.524, 291.6406
1162.614, 158.9180
1163.704, 257.2695
1164.794, 263.6816
1165.884, 279.1484
1166.974, 296.8984
1168.063, 345.2207
1169.153, 254.8105
1170.242, 223.4316
1171.331, 145.0879
1172.420, 320.7773
1173.508, 360.4980
1174.597, 218.2520
1175.685, 108.0391
1176.774, 377.8574
1177.862, 14.70898
1178.950, 266.5957
1180.037, 35.51562
1181.125, 260.5137
1182.212, 150.5430
1183.300, 29.61719
1184.387, 144.7266
1185.474, 28.86719
1186.560, 20.05273
1187.647, 30.73047
1188.733, 218.5215
1189.820, 138.8066
1190.906, 216.1367
1191.992, 9.500000
1193.078, 54.89453
1194.163, 190.3223
1195.249, 258.7832
1196.334, 263.2773
1197.419, 319.1445
1198.504, 225.3691
1199.589, 241.9648
1200.674, 262.5938
1201.758, 24.25781
1202.843, 128.9551
1203.927, 193.6836
1205.011, 72.44727
1206.095, 212.2441
1207.179, 159.0742
1208.262, 97.93555
1209.345, 233.8340
1210.429, 33.76562
1211.512, 103.3594
1212.595, 167.3594
1213.677, 267.3906
1214.760, 258.4551
1215.842, 129.5547
1216.925, 279.6855
1218.007, 143.8516
1219.089, 354.0508
1220.171, 76.28320
1221.252, 197.5508
1222.334, 36.84961
1223.415, 261.1816
1224.496, 306.5488
1225.577, 254.9473
1226.658, 216.3809
1227.738, 81.84961
1228.819, 193.3496
1229.899, 71.91211
1230.979, 56.47852
1232.060, 25.60547
1233.139, 27.50977
1234.219, 17.20898
1235.299, 72.46875
1236.378, 57.23438
1237.457, 74.97070
1238.536, 4.740234
1239.615, 30.54297
1240.694, 129.3809
1241.772, 144.2480
1242.851, 139.1523
1243.929, 141.0996
1245.007, 205.0781
1246.085, 63.08984
1247.163, 184.6094
1248.240, 81.31250
1249.318, 66.77148
1250.395, 55.89062
1251.472, 61.04102
1252.549, 89.22461
1253.626, 145.4434
1254.703, 87.30664
1255.779, 352.9453
1256.855, 69.62695
1257.931, 35.87500
1259.007, 217.2441
1260.083, 157.6484
1261.159, 122.0840
1262.234, 85.55469
1263.310, 57.94336
1264.385, 100.5723
1265.460, 208.1230
1266.535, 125.7051
1267.610, 295.3223
1268.684, 158.9707
1269.758, 188.0195
1270.833, 105.3652
1271.907, 176.1133
1272.981, 3.103516
1274.054, 28.70703
1275.128, 275.5508
1276.201, 84.42773
1277.275, 96.33594
1278.348, 148.2793
1279.421, 120.2559
1280.493, 5.736328
1281.566, 24.69922
1282.638, 43.33008
1283.711, 47.57812
1284.783, 90.52734
1285.855, 162.3340
1286.927, 69.22656
1287.998, 30.88477
1289.070, 142.0410
1290.141, 173.6758
1291.212, 189.4629
1292.283, 226.7207
1293.354, 68.01172
1294.425, 66.33008
1295.495, 163.6836
1296.566, 98.06445
1297.636, 170.4785
1298.706, 101.9238
1299.776, 88.39648
1300.845, 194.9062
1301.915, 209.4434
1302.984, 100.0137
1304.054, 209.6133
1305.123, 194.2031
1306.191, 120.8984
1307.260, 225.5879
1308.329, 178.3066
1309.397, 99.05273
1310.465, 316.8281
1311.534, 333.6348
1312.602, 159.4688
1313.669, 398.3320
1314.737, 134.2285
1315.804, 313.1465
1316.872, 338.1582
1317.939, 197.1328
1319.006, 292.1309
1320.073, 354.1543
1321.139, 42.95508
1322.206, 284.0312
1323.272, 418.1348
1324.338, 178.2617
1325.404, 485.4160
1326.470, 155.5977
1327.536, 212.8047
1328.601, 368.0371
1329.667, 316.2910
1330.732, 375.5742
1331.797, 329.8828
1332.862, 195.2148
1333.926, 422.5762
1334.991, 342.9609
1336.055, 413.3730
1337.120, 38.81250
1338.184, 272.2754
1339.248, 11.23633
1340.311, 377.2773
1341.375, 406.8145
1342.438, 402.3789
1343.502, 471.8613
1344.565, 265.5879
1345.628, 363.2207
1346.691, 241.8789
1347.753, 196.5645
1348.816, 363.2754
1349.878, 126.0137
1350.940, 362.7676
1352.002, 82.54883
1353.064, 248.3535
1354.126, 398.1855
1355.187, 340.0430
1356.248, 165.9258
1357.310, 519.8340
1358.371, 119.7812
1359.431, 325.7539
1360.492, 163.7617
1361.553, 76.87500
1362.613, 147.9297
1363.673, 136.2559
1364.733, 287.3574
1365.793, 254.4863
1366.853, 410.6387
1367.912, 238.8203
1368.972, 221.0254
1370.031, 249.2578
1371.090, 179.2871
1372.149, 104.5703
1373.208, 132.8789
1374.267, 30.78711
1375.325, 171.5664
1376.383, 275.7031
1377.441, 238.1074
1378.499, 198.5410
1379.557, 178.9980
1380.615, 160.4805
1381.672, 67.98828
1382.730, 11.96289
1383.787, 31.47656
1384.844, 285.1016
1385.901, 293.8418
1386.957, 187.4746
1388.014, 138.1367
1389.070, 142.7520
1390.126, 111.0664
1391.182, 250.9453
1392.238, 37.70898
1393.294, 299.5059
1394.349, 92.32617
1395.405, 258.1738
1396.460, 199.0508
1397.515, 83.95312
1398.570, 153.8848
1399.625, 278.8477
1400.679, 192.6152
1401.734, 357.6309
1402.788, 281.6758
1403.842, 79.75195
1404.896, 242.8555
1405.950, 439.9902
1407.003, 166.1270
1408.057, 154.9629
1409.110, 19.87305
1410.163, 153.3477
1411.216, 216.5879
1412.269, 286.8691
1413.322, 389.7812
1414.374, 349.0781
1415.427, 266.7207
1416.479, 123.9902
1417.531, 483.4648
1418.583, 116.8438
1419.634, 169.2480
1420.686, 361.6836
1421.737, 193.1445
1422.788, 236.6348
1423.839, 137.1523
1424.890, 183.7012
1425.941, 168.2773
1426.992, 167.8828
1428.042, 362.5176
1429.092, 352.0859
1430.142, 90.58789
1431.192, 404.1055
1432.242, 154.6367
1433.291, 158.1777
1434.341, 228.7227
1435.390, 247.2637
1436.439, 191.8086
1437.488, 221.5996
1438.537, 336.1719
1439.586, 410.8711
1440.634, 156.9219
1441.682, 287.8223
1442.731, 89.93555
1443.779, 378.0859
1444.826, 230.2695
1445.874, 365.4902
1446.922, 212.7402
1447.969, 435.0234
1449.016, 265.3379
1450.063, 196.6855
1451.110, 175.0645
1452.157, 255.4766
1453.203, 275.9199
1454.250, 294.6895
1455.296, 321.1875
1456.342, 315.7188
1457.388, 301.3516
1458.433, 255.8750
1459.479, 270.5000
1460.524, 276.1504
1461.570, 321.8320
1462.615, 252.5488
1463.660, 111.2910
1464.705, 181.0723
1465.749, 195.9004
1466.794, 252.7773
1467.838, 250.1914
1468.882, 136.6133
1469.926, 230.5586
1470.970, 167.6055
1472.013, 143.6055
1473.057, 140.6523
1474.100, 69.73047
1475.143, 98.64258
1476.186, 55.09961
1477.229, 127.2324
1478.272, 142.3926
1479.314, 159.5918
1480.357, 217.8359
1481.399, 374.1055
1482.441, 193.4004
1483.483, 72.71680
1484.525, 235.0645
1485.566, 112.4414
1486.608, 103.8379
1487.649, 125.2617
1488.690, 173.1758
1489.731, 201.6719
1490.771, 183.3184
1491.812, 192.9668
1492.853, 55.62305
1493.893, 199.3047
1494.933, 399.0098
1495.973, 33.25977
1497.013, 107.4941
1498.052, 456.2676
1499.092, 171.0684
1500.131, 64.89648
1501.170, 343.7559
1502.209, 143.6387
1503.248, 181.5488
1504.287, 129.4863
1505.325, 105.4746
1506.363, 174.5156
1507.402, 298.6016
1508.440, 193.7402
1509.478, 130.9277
1510.515, 69.82422
1511.553, 54.48438
1512.590, 56.84375
1513.627, 149.2578
1514.664, 150.4844
1515.701, 84.24414
1516.738, 170.8203
1517.775, 73.45312
1518.811, 146.1602
1519.847, 375.9492
1520.883, 116.7988
1521.919, 333.7598
1522.955, 376.7812
1523.991, 122.8730
1525.026, 409.0293
1526.061, 230.2617
1527.096, 172.5664
1528.131, 39.99219
1529.166, 76.15625
1530.201, 193.0820
1531.235, 171.4297
1532.270, 259.9922
1533.304, 270.6367
1534.338, 295.1172
1535.372, 113.1875
1536.405, 295.1035
1537.439, 358.1191
1538.472, 247.5898
1539.505, 23.92383
1540.538, 16.39062
1541.571, 22.17969
1542.604, 97.79102
1543.637, 170.4277
1544.669, 60.07617
1545.701, 221.7246
1546.733, 122.3574
1547.765, 258.9453
1548.797, 198.6621
1549.829, 235.2812
1550.860, 234.3359
1551.891, 283.0273
1552.922, 153.6094
1553.953, 119.2871
1554.984, 60.32617
1556.015, 97.67578
1557.045, 148.0898
1558.076, 263.1602
1559.106, 170.2344
1560.136, 242.9531
1561.165, 9.611328
1562.195, 267.0625
1563.225, 32.50781
1564.254, 0.5117190
1565.283, 0.0000000E+00
##END=



