##NAMES=Fluorapatite
##RRUFFID=R060070
##IDEAL CHEMISTRY=Ca_5_(PO_4_)_3_F
##LOCALITY=Panasqueira, Portugal
##OWNER=RRUFF
##SOURCE=Dave Bunk
##DESCRIPTION=Green hexagonal tablet
##STATUS=The identification of this mineral has been confirmed by X-ray diffraction and chemical analysis
##URL=rruff.info/R060070
##MEASURED CHEMISTRY=(Ca_0.99_Mn_0.01_)_5_(P_1.00_O_4_)_3_F_1.00_
##PIN_ID=L01870
##ORIENTATION=Laser parallel to -c* (0 0 -1). Fiducial mark perpendicular to laser is parallel to -a [-1 0 0]
127.9790, 0.0000000E+00
129.2090, 0.8408200
130.4390, 50.09180
131.6680, 17.16650
132.8980, 35.09521
134.1270, 73.33887
135.3560, 140.5710
136.5850, 107.5696
137.8140, 105.1794
139.0430, 82.28662
140.2710, 113.8286
141.5000, 106.9785
142.7280, 147.9390
143.9560, 131.4058
145.1840, 95.09619
146.4120, 119.9907
147.6390, 145.0610
148.8670, 120.2744
150.0940, 99.64893
151.3210, 117.2744
152.5490, 149.0186
153.7750, 113.8232
155.0020, 99.69141
156.2290, 115.6284
157.4550, 97.61084
158.6810, 105.4429
159.9080, 111.8398
161.1340, 109.1265
162.3590, 116.3193
163.5850, 107.7651
164.8110, 86.18066
166.0360, 126.5659
167.2610, 59.08057
168.4860, 36.44287
169.7110, 31.88721
170.9360, 102.1069
172.1610, 17.14502
173.3850, 57.83252
174.6100, 88.87842
175.8340, 53.37988
177.0580, 31.83252
178.2820, 67.19434
179.5050, 33.23096
180.7290, 108.1323
181.9520, 30.12402
183.1760, 65.99170
184.3990, 103.1084
185.6220, 91.39355
186.8450, 78.83008
188.0670, 44.00342
189.2900, 34.21924
190.5120, 28.21973
191.7340, 25.61475
192.9560, 42.20361
194.1780, 35.62598
195.4000, 75.16943
196.6220, 70.16357
197.8430, 53.20654
199.0640, 28.45996
200.2860, 68.99561
201.5070, 36.75635
202.7270, 49.12500
203.9480, 96.28809
205.1690, 68.81299
206.3890, 43.01123
207.6090, 93.49561
208.8290, 61.83301
210.0490, 74.39062
211.2690, 114.0527
212.4890, 117.6504
213.7080, 81.69287
214.9280, 2.830566
216.1470, 2.783691
217.3660, 5.182617
218.5850, 12.25537
219.8030, 3.766602
221.0220, 0.5166020
222.2400, 52.84863
223.4590, 97.42578
224.6770, 94.02979
225.8950, 55.87256
227.1120, 70.10889
228.3300, 120.6377
229.5480, 47.51074
230.7650, 94.87451
231.9820, 115.6470
233.1990, 75.40381
234.4160, 18.90137
235.6330, 117.3613
236.8490, 25.63477
238.0660, 138.4741
239.2820, 89.36133
240.4980, 156.9976
241.7140, 153.3750
242.9300, 69.69727
244.1460, 12.63477
245.3610, 41.79346
246.5770, 74.92041
247.7920, 107.6416
249.0070, 19.38281
250.2220, 7.220215
251.4370, 143.7661
252.6510, 32.39600
253.8660, 78.75000
255.0800, 45.11328
256.2940, 47.17139
257.5080, 64.26660
258.7220, 79.54980
259.9360, 66.43213
261.1490, 75.03271
262.3630, 50.27539
263.5760, 24.45068
264.7890, 40.28613
266.0020, 28.48340
267.2150, 17.69238
268.4270, 37.86426
269.6400, 3.302734
270.8520, 5.400879
272.0640, 15.50586
273.2760, 32.20898
274.4880, 29.24121
275.7000, 50.03418
276.9120, 6.550781
278.1230, 9.794434
279.3340, 1.482422
280.5450, 30.19727
281.7560, 32.20898
282.9670, 27.90771
284.1780, 69.99170
285.3880, 90.19873
286.5980, 97.26123
287.8090, 109.8242
289.0190, 94.62988
290.2290, 98.44727
291.4380, 80.44287
292.6480, 49.69678
293.8570, 0.4682620
295.0670, 48.94434
296.2760, 0.9111330
297.4850, 36.36914
298.6930, 66.09766
299.9020, 31.49365
301.1110, 12.04346
302.3190, 15.59131
303.5270, 7.996094
304.7350, 92.78418
305.9430, 86.93799
307.1510, 63.00977
308.3580, 15.72412
309.5660, 95.90723
310.7730, 3.199707
311.9800, 6.727539
313.1870, 34.67334
314.3940, 47.29150
315.6010, 119.4009
316.8070, 52.01172
318.0130, 58.54102
319.2200, 51.21973
320.4260, 47.71680
321.6310, 51.83740
322.8370, 162.9580
324.0430, 23.51025
325.2480, 44.74658
326.4540, 225.3848
327.6590, 26.20410
328.8640, 52.21436
330.0680, 129.1411
331.2730, 42.31201
332.4780, 49.18164
333.6820, 56.91211
334.8860, 125.6665
336.0900, 59.21436
337.2940, 117.6694
338.4980, 30.66162
339.7010, 31.96973
340.9050, 102.7935
342.1080, 0.4106450
343.3110, 34.16064
344.5140, 24.33740
345.7170, 42.78320
346.9200, 75.01807
348.1220, 44.71094
349.3240, 54.97168
350.5270, 50.87500
351.7290, 83.33301
352.9310, 44.14014
354.1320, 127.3740
355.3340, 125.4277
356.5350, 47.45508
357.7370, 4.376953
358.9380, 81.43311
360.1390, 46.03809
361.3400, 2.593750
362.5400, 10.93457
363.7410, 39.22266
364.9410, 0.9062500
366.1410, 123.2036
367.3410, 14.56738
368.5410, 48.07324
369.7410, 121.4438
370.9400, 5.822266
372.1400, 25.68750
373.3390, 86.22363
374.5380, 118.6250
375.7370, 119.2529
376.9360, 148.3926
378.1350, 135.4023
379.3330, 168.0781
380.5310, 104.8613
381.7300, 69.66211
382.9280, 48.30176
384.1260, 96.96582
385.3230, 212.6416
386.5210, 95.25684
387.7180, 21.54492
388.9160, 115.5596
390.1130, 22.33496
391.3100, 50.48926
392.5060, 107.4883
393.7030, 99.00488
394.9000, 119.2773
396.0960, 85.11035
397.2920, 134.9355
398.4880, 124.5918
399.6840, 156.8398
400.8800, 115.0654
402.0750, 155.8525
403.2710, 132.3760
404.4660, 179.3564
405.6610, 103.1846
406.8560, 66.17383
408.0510, 49.18848
409.2450, 199.2988
410.4400, 188.1016
411.6340, 107.2549
412.8280, 190.1719
414.0220, 33.59668
415.2160, 35.84570
416.4100, 13.36426
417.6030, 226.7188
418.7970, 36.07129
419.9900, 237.1074
421.1830, 133.8691
422.3760, 136.3369
423.5690, 59.38184
424.7610, 90.60352
425.9540, 161.3438
427.1460, 66.06738
428.3380, 46.58008
429.5300, 60.95312
430.7220, 151.2549
431.9140, 131.8047
433.1050, 99.45020
434.2970, 32.04785
435.4880, 218.9932
436.6790, 86.96680
437.8700, 148.3350
439.0610, 42.13672
440.2510, 134.4121
441.4420, 61.11133
442.6320, 5.625000
443.8220, 84.90039
445.0120, 75.45508
446.2020, 99.54492
447.3910, 236.8955
448.5810, 139.4648
449.7700, 149.1387
450.9600, 224.6133
452.1490, 101.6816
453.3370, 64.92383
454.5260, 236.6523
455.7150, 125.0400
456.9030, 93.14453
458.0910, 157.6885
459.2800, 166.9561
460.4670, 173.6826
461.6550, 125.6230
462.8430, 156.2119
464.0300, 28.41113
465.2180, 222.7715
466.4050, 113.1699
467.5920, 163.3828
468.7790, 60.52539
469.9650, 103.6807
471.1520, 85.48535
472.3380, 191.4561
473.5250, 122.3623
474.7110, 180.8779
475.8970, 202.1924
477.0820, 181.7910
478.2680, 216.5830
479.4540, 221.6748
480.6390, 164.8604
481.8240, 156.5566
483.0090, 98.29980
484.1940, 91.73438
485.3780, 134.1533
486.5630, 203.1660
487.7470, 135.8691
488.9320, 166.5918
490.1160, 53.96387
491.3000, 136.6660
492.4830, 210.6035
493.6670, 326.5986
494.8500, 207.4219
496.0340, 98.48730
497.2170, 128.9170
498.4000, 121.8027
499.5820, 132.9570
500.7650, 86.36328
501.9480, 113.4180
503.1300, 120.4180
504.3120, 127.8926
505.4940, 192.7539
506.6760, 54.54199
507.8580, 96.14258
509.0390, 129.0303
510.2210, 81.77539
511.4020, 117.5342
512.5830, 29.97559
513.7640, 133.9287
514.9450, 30.32324
516.1250, 247.6465
517.3060, 214.8213
518.4860, 78.81152
519.6660, 149.2080
520.8460, 41.85742
522.0260, 2.577148
523.2060, 45.82520
524.3850, 124.4570
525.5650, 98.43652
526.7440, 5.040039
527.9230, 88.47559
529.1020, 145.1260
530.2810, 90.05176
531.4590, 182.9102
532.6380, 106.5498
533.8160, 157.4014
534.9940, 171.6562
536.1720, 59.60547
537.3500, 28.60645
538.5270, 58.06152
539.7050, 130.8682
540.8820, 77.46680
542.0590, 46.18555
543.2360, 48.76367
544.4130, 283.4551
545.5900, 35.40723
546.7660, 228.3193
547.9430, 66.75781
549.1190, 102.9834
550.2950, 80.31641
551.4710, 127.0107
552.6470, 257.1689
553.8220, 79.78027
554.9980, 161.6904
556.1730, 315.6602
557.3480, 12.84863
558.5230, 3.975586
559.6980, 107.3457
560.8730, 186.9648
562.0470, 114.1035
563.2220, 131.3105
564.3960, 61.86914
565.5700, 56.99805
566.7440, 156.8760
567.9170, 4.749023
569.0910, 14.58691
570.2640, 250.8018
571.4380, 256.9756
572.6110, 193.3672
573.7840, 137.6260
574.9570, 157.8770
576.1290, 220.9492
577.3020, 191.7832
578.4740, 248.5859
579.6460, 196.4082
580.8180, 236.8066
581.9900, 170.8867
583.1620, 19.59277
584.3330, 227.9258
585.5040, 117.5381
586.6760, 217.0996
587.8470, 124.3740
589.0180, 149.3936
590.1880, 100.0664
591.3590, 105.4922
592.5290, 133.5068
593.7000, 158.6572
594.8700, 152.3057
596.0400, 222.8057
597.2090, 77.20215
598.3790, 152.9131
599.5490, 93.28320
600.7180, 136.7969
601.8870, 73.71094
603.0560, 131.7617
604.2250, 202.8145
605.3940, 147.8340
606.5620, 232.4336
607.7300, 184.4160
608.8990, 139.0879
610.0670, 38.90820
611.2350, 180.9658
612.4020, 132.1396
613.5700, 12.32520
614.7370, 198.0723
615.9050, 167.8311
617.0720, 223.6865
618.2390, 161.2930
619.4060, 243.7793
620.5720, 39.61133
621.7390, 203.0205
622.9050, 31.37402
624.0710, 132.4424
625.2370, 22.41797
626.4030, 128.9609
627.5690, 166.7803
628.7340, 169.1172
629.9000, 267.1924
631.0650, 138.4902
632.2300, 12.52637
633.3950, 47.20410
634.5600, 28.24902
635.7240, 17.31152
636.8890, 193.3760
638.0530, 62.83496
639.2170, 141.2295
640.3810, 218.3926
641.5450, 161.5635
642.7080, 119.4912
643.8720, 123.9180
645.0350, 56.62598
646.1980, 114.4258
647.3610, 41.14844
648.5240, 135.5439
649.6870, 149.3994
650.8490, 137.7695
652.0120, 159.8867
653.1740, 157.1934
654.3360, 127.4736
655.4980, 169.5400
656.6600, 134.7510
657.8210, 160.7822
658.9830, 73.41504
660.1440, 220.1230
661.3050, 253.9023
662.4660, 207.2852
663.6270, 97.12500
664.7870, 190.3301
665.9480, 133.2148
667.1080, 205.8516
668.2680, 276.3496
669.4280, 94.48633
670.5880, 13.27734
671.7480, 121.2559
672.9070, 106.6094
674.0670, 52.91602
675.2260, 95.02734
676.3850, 86.93359
677.5440, 162.7266
678.7030, 108.7363
679.8610, 128.3711
681.0200, 112.3457
682.1780, 83.85938
683.3360, 321.2461
684.4940, 213.2324
685.6520, 254.4629
686.8090, 157.5449
687.9670, 126.6816
689.1240, 181.1836
690.2810, 233.7129
691.4380, 93.66602
692.5950, 126.5273
693.7520, 119.2090
694.9080, 162.0859
696.0650, 250.5996
697.2210, 221.3750
698.3770, 214.3301
699.5330, 160.5078
700.6880, 242.7012
701.8440, 104.5000
702.9990, 244.5996
704.1550, 38.03711
705.3100, 85.22852
706.4650, 40.92773
707.6190, 149.3594
708.7740, 123.4590
709.9290, 149.3555
711.0830, 168.8223
712.2370, 162.0156
713.3910, 111.4902
714.5450, 85.11914
715.6980, 13.62305
716.8520, 148.9961
718.0050, 188.1875
719.1580, 144.6289
720.3110, 315.0371
721.4640, 72.35352
722.6170, 212.3594
723.7700, 367.6562
724.9220, 66.78516
726.0740, 24.72070
727.2260, 347.3359
728.3780, 285.3906
729.5300, 210.3125
730.6810, 134.6543
731.8330, 74.92969
732.9840, 145.7441
734.1350, 81.65625
735.2860, 29.04492
736.4370, 58.22852
737.5880, 232.0078
738.7380, 186.8477
739.8880, 342.1387
741.0390, 219.6621
742.1890, 230.7891
743.3380, 298.4395
744.4880, 129.8926
745.6380, 149.7773
746.7870, 47.28906
747.9360, 100.8125
749.0850, 72.15820
750.2340, 44.34766
751.3830, 4.755859
752.5310, 2.521484
753.6800, 146.6953
754.8280, 125.8164
755.9760, 148.9863
757.1240, 193.3047
758.2720, 98.23047
759.4190, 121.4395
760.5670, 112.4355
761.7140, 101.2168
762.8610, 296.8691
764.0080, 11.89453
765.1550, 202.2285
766.3020, 240.5000
767.4480, 79.58594
768.5950, 124.1680
769.7410, 267.9785
770.8870, 139.4453
772.0330, 255.1504
773.1780, 130.2871
774.3240, 123.8145
775.4690, 283.2559
776.6140, 59.62891
777.7590, 83.46875
778.9040, 50.28516
780.0490, 359.8066
781.1940, 186.1953
782.3380, 107.2793
783.4820, 48.90625
784.6260, 231.6680
785.7700, 99.37305
786.9140, 241.0820
788.0580, 80.66992
789.2010, 208.6621
790.3450, 174.9805
791.4880, 47.85547
792.6310, 148.4609
793.7730, 168.3516
794.9160, 158.7988
796.0590, 98.11719
797.2010, 130.5078
798.3430, 37.42383
799.4850, 145.4102
800.6270, 171.6660
801.7690, 166.5996
802.9100, 219.5586
804.0520, 248.3086
805.1930, 66.29492
806.3340, 148.5020
807.4750, 161.4219
808.6160, 188.4199
809.7560, 242.8867
810.8970, 285.1074
812.0370, 98.02344
813.1770, 2.939453
814.3170, 242.9727
815.4570, 177.4434
816.5960, 432.4102
817.7360, 166.3184
818.8750, 214.0938
820.0140, 229.7949
821.1530, 91.29688
822.2920, 16.63086
823.4310, 195.4453
824.5690, 98.04688
825.7070, 39.48828
826.8460, 122.0820
827.9840, 79.83594
829.1220, 42.93750
830.2590, 70.09961
831.3970, 13.16406
832.5340, 10.59961
833.6710, 54.77734
834.8080, 0.9609380
835.9450, 100.1875
837.0820, 147.0664
838.2190, 149.2305
839.3550, 92.76758
840.4910, 35.82031
841.6270, 178.8340
842.7630, 137.7129
843.8990, 165.6211
845.0350, 386.0215
846.1700, 22.34570
847.3060, 285.8984
848.4410, 199.6152
849.5760, 330.7891
850.7100, 260.6953
851.8450, 159.4316
852.9800, 269.3965
854.1140, 170.2793
855.2480, 278.2598
856.3820, 92.00586
857.5160, 245.3945
858.6500, 117.7070
859.7830, 270.5469
860.9170, 182.7988
862.0500, 174.9277
863.1830, 45.30078
864.3160, 168.3633
865.4480, 132.2266
866.5810, 257.7168
867.7130, 308.8359
868.8460, 158.6523
869.9780, 110.7031
871.1100, 24.42773
872.2410, 297.6738
873.3730, 53.33398
874.5050, 212.4961
875.6360, 38.41211
876.7670, 73.57812
877.8980, 146.5020
879.0290, 94.42383
880.1590, 85.57031
881.2900, 72.95312
882.4200, 371.3516
883.5500, 212.5527
884.6800, 46.64062
885.8100, 7.529297
886.9400, 361.0957
888.0690, 273.0859
889.1990, 74.91992
890.3280, 214.8945
891.4570, 27.73242
892.5860, 121.5918
893.7140, 85.58008
894.8430, 210.1133
895.9710, 181.6953
897.1000, 256.1875
898.2280, 154.5879
899.3560, 85.75586
900.4830, 235.7207
901.6110, 30.59961
902.7380, 274.1348
903.8660, 207.5957
904.9930, 310.7461
906.1200, 253.4512
907.2460, 130.5840
908.3730, 91.15234
909.5000, 1.164063
910.6260, 19.07031
911.7520, 171.0723
912.8780, 117.4805
914.0040, 186.7402
915.1290, 179.9727
916.2550, 151.4316
917.3800, 210.2949
918.5050, 27.78516
919.6300, 37.32812
920.7550, 127.2109
921.8800, 239.4980
923.0040, 76.33398
924.1290, 129.4082
925.2530, 88.01367
926.3770, 140.4297
927.5010, 155.0898
928.6250, 114.3105
929.7480, 166.6758
930.8720, 428.8770
931.9950, 367.7852
933.1180, 283.7891
934.2410, 3.917969
935.3640, 259.2461
936.4860, 44.74023
937.6090, 119.8633
938.7310, 193.0684
939.8530, 415.0762
940.9750, 306.1094
942.0970, 87.62500
943.2180, 134.1523
944.3400, 154.7578
945.4610, 211.5547
946.5820, 201.4922
947.7030, 257.5645
948.8240, 186.0391
949.9450, 102.8262
951.0650, 151.1738
952.1860, 459.0840
953.3060, 198.3164
954.4260, 135.7129
955.5460, 352.1445
956.6650, 140.7930
957.7850, 325.0410
958.9040, 349.2246
960.0230, 517.9141
961.1420, 769.9238
962.2610, 817.8711
963.3800, 1066.312
964.4990, 1037.486
965.6170, 1175.051
966.7350, 903.3730
967.8530, 765.5918
968.9710, 536.5918
970.0890, 583.3574
971.2070, 529.3398
972.3240, 156.0840
973.4410, 216.0684
974.5580, 257.3184
975.6750, 278.8340
976.7920, 67.46484
977.9090, 180.8906
979.0250, 203.4102
980.1410, 75.46484
981.2580, 353.2246
982.3740, 70.16406
983.4890, 418.7129
984.6050, 128.6406
985.7200, 293.3965
986.8360, 37.29492
987.9510, 209.3945
989.0660, 229.6426
990.1810, 94.32031
991.2950, 254.0977
992.4100, 97.58984
993.5240, 163.5273
994.6390, 239.2930
995.7530, 192.4551
996.8660, 136.5645
997.9800, 159.3555
999.0940, 132.8535
1000.207, 136.5332
1001.320, 137.9160
1002.433, 120.3887
1003.546, 115.3086
1004.659, 197.0137
1005.772, 180.4375
1006.884, 237.8125
1007.996, 94.86719
1009.108, 245.9648
1010.220, 113.2812
1011.332, 302.8281
1012.444, 117.4805
1013.555, 328.8203
1014.666, 178.0352
1015.777, 184.0820
1016.888, 45.79688
1017.999, 288.0000
1019.110, 148.3945
1020.220, 184.6250
1021.331, 70.62891
1022.441, 33.61328
1023.551, 220.4766
1024.661, 147.2109
1025.770, 247.0430
1026.880, 135.3672
1027.989, 190.3359
1029.098, 227.0156
1030.207, 173.5781
1031.316, 156.4414
1032.425, 186.8711
1033.533, 125.8242
1034.642, 114.5977
1035.750, 128.2852
1036.858, 42.08203
1037.966, 82.18750
1039.073, 91.47656
1040.181, 123.2305
1041.288, 123.5195
1042.396, 169.5156
1043.503, 123.6914
1044.610, 63.91016
1045.716, 77.45312
1046.823, 14.40234
1047.929, 174.9883
1049.036, 153.3516
1050.142, 241.5898
1051.248, 138.0742
1052.353, 174.4570
1053.459, 192.2227
1054.564, 157.3828
1055.670, 246.9414
1056.775, 266.6016
1057.880, 196.7695
1058.985, 120.6328
1060.089, 278.8555
1061.194, 129.1367
1062.298, 53.26562
1063.402, 450.6055
1064.506, 214.0977
1065.610, 228.5938
1066.713, 305.0820
1067.817, 65.92188
1068.920, 139.5117
1070.023, 164.7383
1071.126, 63.25781
1072.229, 295.6680
1073.332, 69.08594
1074.435, 96.50391
1075.537, 191.3750
1076.639, 214.5742
1077.741, 283.8711
1078.843, 293.2773
1079.945, 44.68359
1081.046, 224.0898
1082.148, 38.49609
1083.249, 76.59375
1084.350, 120.9023
1085.451, 116.2852
1086.551, 277.6641
1087.652, 122.9375
1088.752, 3.316406
1089.853, 75.62109
1090.953, 137.0117
1092.053, 233.4062
1093.152, 167.8047
1094.252, 23.78906
1095.351, 128.5938
1096.451, 292.9844
1097.550, 11.61328
1098.649, 108.7773
1099.748, 140.1836
1100.846, 183.5977
1101.945, 368.0195
1103.043, 75.55078
1104.141, 27.14844
1105.239, 52.75781
1106.337, 219.6094
1107.434, 107.9805
1108.532, 81.35938
1109.629, 46.12109
1110.726, 79.51562
1111.823, 139.9180
1112.920, 1.070313
1114.017, 129.7812
1115.113, 106.1094
1116.210, 209.7656
1117.306, 197.5547
1118.402, 84.00000
1119.498, 200.0391
1120.593, 26.50781
1121.689, 215.9844
1122.784, 108.4688
1123.879, 332.9648
1124.974, 330.4727
1126.069, 100.0078
1127.164, 153.4766
1128.259, 73.97266
1129.353, 132.4805
1130.447, 188.0039
1131.541, 340.5391
1132.635, 199.0859
1133.729, 81.64844
1134.822, 243.2188
1135.916, 471.8008
1137.009, 61.39844
1138.102, 380.0195
1139.195, 200.6484
1140.288, 84.30078
1141.380, 63.33594
1142.473, 18.88672
1143.565, 42.15625
1144.657, 137.5430
1145.749, 190.2578
1146.841, 369.9961
1147.932, 293.7500
1149.024, 408.1172
1150.115, 288.9023
1151.206, 359.7109
1152.297, 334.7656
1153.388, 16.27344
1154.479, 204.1836
1155.569, 363.0742
1156.659, 131.9805
1157.750, 266.9141
1158.839, 238.2422
1159.929, 180.2188
1161.019, 223.2148
1162.108, 213.8164
1163.198, 284.1484
1164.287, 247.3125
1165.376, 364.9219
1166.465, 361.0195
1167.553, 183.1602
1168.642, 321.8555
1169.730, 94.03125
1170.818, 343.2305
1171.906, 65.26562
1172.994, 298.5039
1174.082, 13.23047
1175.170, 298.0664
1176.257, 160.8945
1177.344, 451.2422
1178.431, 111.9141
1179.518, 97.31250
1180.605, 450.7305
1181.691, 140.1758
1182.778, 288.6445
1183.864, 333.1484
1184.950, 447.6836
1186.036, 436.5586
1187.122, 367.8320
1188.207, 347.4453
1189.292, 141.0898
1190.378, 5.757813
1191.463, 358.4492
1192.548, 129.8320
1193.632, 305.7930
1194.717, 396.5234
1195.801, 206.2852
1196.886, 250.0703
1197.970, 162.8789
1199.054, 102.5117
1200.137, 147.3945
1201.221, 277.3281
1202.305, 311.3359
1203.388, 392.3711
1204.471, 445.4375
1205.554, 243.5312
1206.637, 242.6562
1207.719, 65.80859
1208.802, 104.0938
1209.884, 145.2070
1210.966, 247.4492
1212.048, 280.7188
1213.130, 461.8906
1214.212, 165.2266
1215.293, 485.5820
1216.374, 249.9766
1217.456, 94.39844
1218.536, 253.8516
1219.617, 254.4219
1220.698, 463.9375
1221.778, 199.4883
1222.859, 156.0664
1223.939, 342.6758
1225.019, 446.1523
1226.099, 470.8242
1227.178, 66.53125
1228.258, 103.7812
1229.337, 142.5469
1230.417, 112.3516
1231.496, 348.1875
1232.574, 270.0586
1233.653, 141.3750
1234.732, 742.1797
1235.810, 95.75391
1236.888, 231.7578
1237.966, 427.7969
1239.044, 261.8633
1240.122, 626.9805
1241.199, 506.1250
1242.277, 266.3047
1243.354, 486.7734
1244.431, 519.0273
1245.508, 134.4336
1246.585, 22.23828
1247.661, 293.1172
1248.738, 371.5156
1249.814, 288.9727
1250.890, 435.4648
1251.966, 535.9922
1253.042, 168.5586
1254.117, 248.1602
1255.193, 140.8008
1256.268, 196.2656
1257.343, 347.9805
1258.418, 385.7344
1259.493, 490.8594
1260.567, 346.3438
1261.642, 537.2148
1262.716, 434.1172
1263.790, 166.0625
1264.864, 351.0391
1265.938, 305.0625
1267.011, 183.1211
1268.085, 204.2188
1269.158, 249.3555
1270.231, 99.46875
1271.304, 247.7305
1272.377, 49.99219
1273.450, 115.3242
1274.522, 289.6719
1275.594, 120.0586
1276.666, 153.4883
1277.738, 479.9609
1278.810, 311.4961
1279.882, 264.0703
1280.953, 359.6836
1282.025, 189.3359
1283.096, 208.0469
1284.167, 463.7969
1285.238, 415.5898
1286.308, 10.42969
1287.379, 28.69141
1288.449, 337.2266
1289.519, 122.8125
1290.589, 155.1641
1291.659, 297.1953
1292.729, 266.2734
1293.798, 77.60156
1294.868, 349.5469
1295.937, 47.73828
1297.006, 35.97656
1298.075, 456.2617
1299.143, 120.5859
1300.212, 88.04297
1301.280, 180.3516
1302.348, 362.7969
1303.416, 323.7031
1304.484, 332.2344
1305.552, 203.8320
1306.620, 97.47656
1307.687, 205.1758
1308.754, 116.9180
1309.821, 62.71094
1310.888, 113.6133
1311.955, 69.02734
1313.021, 133.3477
1314.088, 97.32422
1315.154, 77.34766
1316.220, 120.1445
1317.286, 345.5312
1318.352, 292.6875
1319.417, 485.8945
1320.483, 330.1445
1321.548, 491.4297
1322.613, 273.7617
1323.678, 361.1367
1324.743, 262.5508
1325.807, 232.0000
1326.872, 229.5586
1327.936, 258.9688
1329.000, 238.6250
1330.064, 353.2539
1331.128, 504.9180
1332.191, 460.6250
1333.255, 408.3672
1334.318, 487.1445
1335.381, 450.3242
1336.444, 528.8281
1337.507, 442.7227
1338.569, 455.6641
1339.632, 388.6445
1340.694, 495.6602
1341.756, 370.7344
1342.818, 654.8477
1343.880, 422.0000
1344.941, 614.1914
1346.003, 392.4219
1347.064, 248.6992
1348.125, 468.0156
1349.186, 812.3789
1350.247, 571.7773
1351.308, 486.2188
1352.368, 684.7031
1353.428, 258.2383
1354.489, 462.8125
1355.549, 229.4297
1356.608, 207.8438
1357.668, 463.8008
1358.727, 299.5547
1359.787, 279.3438
1360.846, 528.1797
1361.905, 642.0781
1362.964, 525.0273
1364.022, 222.0312
1365.081, 393.0898
1366.139, 661.1836
1367.197, 437.3281
1368.255, 644.5117
1369.313, 582.7383
1370.371, 507.0078
1371.428, 391.3242
1372.486, 14.31641
1373.543, 414.2227
1374.600, 221.3242
1375.657, 208.8164
1376.713, 721.3516
1377.770, 201.9297
1378.826, 533.5508
1379.882, 479.2148
1380.938, 461.9258
1381.994, 245.6797
1383.050, 288.4727
1384.106, 256.3359
1385.161, 382.2461
1386.216, 554.1992
1387.271, 370.1914
1388.326, 526.2344
1389.381, 407.3164
1390.435, 585.4492
1391.490, 273.6289
1392.544, 296.8516
1393.598, 171.1250
1394.652, 437.4414
1395.705, 455.8047
1396.759, 754.2109
1397.812, 355.2930
1398.866, 488.7969
1399.919, 316.4609
1400.972, 609.0742
1402.024, 406.7305
1403.077, 330.4414
1404.129, 372.1992
1405.181, 400.0078
1406.233, 607.8633
1407.285, 299.7695
1408.337, 510.7266
1409.389, 291.9766
1410.440, 391.0391
1411.491, 402.7266
1412.542, 374.3125
1413.593, 330.5273
1414.644, 534.4258
1415.695, 292.7539
1416.745, 363.1367
1417.795, 533.9805
1418.845, 496.4688
1419.895, 632.0195
1420.945, 473.0938
1421.995, 498.6719
1423.044, 411.4922
1424.093, 494.2773
1425.142, 424.1250
1426.191, 577.0469
1427.240, 530.2070
1428.289, 190.2539
1429.337, 526.3047
1430.385, 436.4180
1431.433, 507.6016
1432.481, 197.8477
1433.529, 441.0078
1434.577, 497.2266
1435.624, 363.5000
1436.672, 378.8281
1437.719, 530.2109
1438.766, 249.5312
1439.812, 574.0156
1440.859, 822.5508
1441.905, 621.1523
1442.952, 444.5273
1443.998, 498.0508
1445.044, 458.3633
1446.090, 190.7422
1447.135, 348.8555
1448.181, 164.4727
1449.226, 636.5664
1450.271, 465.7227
1451.316, 461.9414
1452.361, 577.2148
1453.405, 513.5547
1454.450, 507.9570
1455.494, 87.41797
1456.538, 250.9453
1457.582, 611.5312
1458.626, 383.1797
1459.670, 853.8906
1460.713, 477.6680
1461.757, 455.5039
1462.800, 523.4023
1463.843, 537.3594
1464.886, 533.7461
1465.928, 332.4688
1466.971, 583.6172
1468.013, 598.8281
1469.055, 743.1016
1470.097, 291.4375
1471.139, 395.8359
1472.181, 351.2930
1473.222, 400.6641
1474.263, 642.2422
1475.305, 480.8828
1476.346, 284.5859
1477.386, 481.3516
1478.427, 511.1758
1479.468, 467.0586
1480.508, 578.0078
1481.548, 461.7109
1482.588, 360.0742
1483.628, 297.1953
1484.668, 248.3789
1485.707, 214.4180
1486.747, 665.9766
1487.786, 357.3750
1488.825, 597.8438
1489.864, 537.3594
1490.902, 246.9336
1491.941, 725.5391
1492.979, 497.1914
1494.017, 247.9062
1495.055, 860.7070
1496.093, 541.5156
1497.131, 586.3789
1498.168, 13.69141
1499.206, 199.2812
1500.243, 155.3203
1501.280, 147.4258
1502.317, 266.5625
1503.354, 379.7500
1504.390, 379.9844
1505.426, 274.2578
1506.463, 514.5430
1507.499, 257.8672
1508.535, 139.2188
1509.570, 471.5977
1510.606, 34.03906
1511.641, 513.5703
1512.676, 222.2070
1513.711, 68.94922
1514.746, 143.7891
1515.781, 559.7305
1516.816, 498.7891
1517.850, 489.9492
1518.884, 347.2188
1519.918, 378.5898
1520.952, 359.0664
1521.986, 307.6562
1523.019, 333.3633
1524.053, 327.1797
1525.086, 475.1133
1526.119, 397.1641
1527.152, 401.3320
1528.185, 125.6172
1529.217, 424.0234
1530.250, 371.5547
1531.282, 529.2188
1532.314, 547.0000
1533.346, 59.07422
1534.377, 344.9883
1535.409, 46.73438
1536.440, 207.0742
1537.472, 60.57031
1538.503, 300.2266
1539.534, 157.0586
1540.564, 193.0703
1541.595, 82.70703
1542.625, 301.7188
1543.656, 501.3594
1544.686, 291.2227
1545.716, 334.3203
1546.745, 291.6562
1547.775, 88.24219
1548.804, 343.0977
1549.834, 266.2266
1550.863, 232.6484
1551.892, 338.3672
1552.920, 204.9844
1553.949, 398.5703
1554.977, 87.44922
1556.006, 110.6172
1557.034, 358.7461
1558.062, 103.7969
1559.089, 364.6953
1560.117, 140.3125
1561.144, 470.4609
1562.172, 10.15234
1563.199, 157.8906
1564.226, 162.7930
1565.252, 176.8555
1566.279, 27.19141
1567.305, 214.2617
1568.332, 2.683594
1569.358, 168.2539
1570.384, 14.73438
1571.409, 0.0000000E+00
##END=



