##NAMES=Fluorapatite
##RRUFFID=R050194
##IDEAL CHEMISTRY=Ca_5_(PO_4_)_3_F
##LOCALITY=Siglo XX mine, Llallagua, Bolivia
##OWNER=RRUFF
##SOURCE=Dave Bunk Minerals
##DESCRIPTION=Purple crystal fragments
##STATUS=The identification of this mineral has been confirmed by X-ray diffraction and chemical analysis
##URL=rruff.info/R050194
##MEASURED CHEMISTRY=Ca_5.00_(P_1.00_O_4_)_3_F_1.00_
##PIN_ID=L01968
##ORIENTATION=Laser parallel to -a* (-1 0 0). Fiducial mark perpendicular to laser is parallel to -c [0 0 -1]
136.5850, 0.0000000E+00
137.8140, 54.81763
139.0430, 111.5249
140.2710, 65.04150
141.5000, 60.72656
142.7280, 69.34570
143.9560, 91.08643
145.1840, 32.50708
146.4120, 83.14648
147.6390, 113.6033
148.8670, 71.49341
150.0940, 87.73682
151.3210, 142.3274
152.5490, 18.27295
153.7750, 63.50879
155.0020, 28.02686
156.2290, 174.6138
157.4550, 65.38867
158.6810, 140.2734
159.9080, 68.24316
161.1340, 115.2920
162.3590, 145.4102
163.5850, 125.6392
164.8110, 48.31201
166.0360, 63.05078
167.2610, 156.3296
168.4860, 27.52002
169.7110, 139.7021
170.9360, 43.85352
172.1610, 42.97803
173.3850, 74.06738
174.6100, 112.0820
175.8340, 63.04980
177.0580, 35.96289
178.2820, 97.82666
179.5050, 103.7310
180.7290, 124.5591
181.9520, 94.30615
183.1760, 148.1797
184.3990, 30.01953
185.6220, 94.90430
186.8450, 118.7471
188.0670, 52.60254
189.2900, 120.9897
190.5120, 101.9478
191.7340, 144.0747
192.9560, 96.30957
194.1780, 88.95703
195.4000, 158.5229
196.6220, 38.86426
197.8430, 126.8613
199.0640, 120.5659
200.2860, 103.8906
201.5070, 140.9922
202.7270, 89.95752
203.9480, 117.4526
205.1690, 152.6611
206.3890, 102.3804
207.6090, 143.9438
208.8290, 173.9194
210.0490, 214.9009
211.2690, 224.8677
212.4890, 268.7920
213.7080, 185.2842
214.9280, 171.5322
216.1470, 137.6851
217.3660, 118.5439
218.5850, 111.8643
219.8030, 162.8037
221.0220, 61.21777
222.2400, 114.9609
223.4590, 163.4146
224.6770, 67.43213
225.8950, 99.82959
227.1120, 113.9204
228.3300, 84.16602
229.5480, 148.2793
230.7650, 126.7554
231.9820, 109.5127
233.1990, 175.9790
234.4160, 82.69434
235.6330, 192.1382
236.8490, 155.0381
238.0660, 125.2417
239.2820, 147.1211
240.4980, 200.5439
241.7140, 46.26416
242.9300, 132.7676
244.1460, 2.194824
245.3610, 96.68311
246.5770, 41.18262
247.7920, 33.40479
249.0070, 121.4624
250.2220, 81.71729
251.4370, 15.07275
252.6510, 69.57959
253.8660, 25.94043
255.0800, 64.54297
256.2940, 32.04785
257.5080, 42.20410
258.7220, 78.34766
259.9360, 83.01416
261.1490, 74.36328
262.3630, 49.56299
263.5760, 54.99365
264.7890, 53.63232
266.0020, 91.95068
267.2150, 62.53613
268.4270, 90.94824
269.6400, 105.9067
270.8520, 92.22266
272.0640, 49.89453
273.2760, 60.34424
274.4880, 94.59766
275.7000, 77.99707
276.9120, 117.9814
278.1230, 64.09570
279.3340, 58.57764
280.5450, 64.81494
281.7560, 147.6455
282.9670, 82.64697
284.1780, 90.69678
285.3880, 137.7627
286.5980, 116.8213
287.8090, 113.8545
289.0190, 70.85596
290.2290, 84.73682
291.4380, 71.77002
292.6480, 109.6021
293.8570, 78.48096
295.0670, 110.3145
296.2760, 149.3149
297.4850, 74.04492
298.6930, 96.79639
299.9020, 61.00684
301.1110, 153.6089
302.3190, 46.37842
303.5270, 31.98633
304.7350, 102.8359
305.9430, 193.3921
307.1510, 46.10645
308.3580, 61.66455
309.5660, 51.38770
310.7730, 163.9106
311.9800, 22.57520
313.1870, 61.62207
314.3940, 48.23242
315.6010, 43.96973
316.8070, 105.6719
318.0130, 48.34814
319.2200, 70.77637
320.4260, 50.61719
321.6310, 75.49072
322.8370, 125.1782
324.0430, 94.63086
325.2480, 89.50928
326.4540, 6.388184
327.6590, 50.13232
328.8640, 22.32129
330.0680, 61.43359
331.2730, 101.3979
332.4780, 1.594727
333.6820, 18.22412
334.8860, 11.52734
336.0900, 100.8755
337.2940, 1.356445
338.4980, 50.47314
339.7010, 56.88135
340.9050, 44.78125
342.1080, 49.29932
343.3110, 122.6816
344.5140, 41.43164
345.7170, 82.04834
346.9200, 112.8384
348.1220, 41.08740
349.3240, 75.12109
350.5270, 77.60498
351.7290, 7.966309
352.9310, 62.54980
354.1320, 14.72949
355.3340, 46.38721
356.5350, 58.82568
357.7370, 47.28516
358.9380, 123.3638
360.1390, 66.59521
361.3400, 52.75195
362.5400, 93.11719
363.7410, 133.1812
364.9410, 174.0967
366.1410, 155.2847
367.3410, 116.5444
368.5410, 97.17871
369.7410, 53.78662
370.9400, 9.414551
372.1400, 66.99170
373.3390, 173.7905
374.5380, 55.49512
375.7370, 115.5771
376.9360, 25.09033
378.1350, 210.3979
379.3330, 91.45020
380.5310, 109.2534
381.7300, 77.07227
382.9280, 6.048340
384.1260, 62.16260
385.3230, 85.76172
386.5210, 160.2603
387.7180, 13.95264
388.9160, 15.16162
390.1130, 56.39795
391.3100, 49.18848
392.5060, 127.3081
393.7030, 71.49854
394.9000, 38.48242
396.0960, 66.03174
397.2920, 117.7744
398.4880, 23.36426
399.6840, 78.97314
400.8800, 97.26367
402.0750, 29.84326
403.2710, 87.80322
404.4660, 57.57324
405.6610, 183.5278
406.8560, 69.17529
408.0510, 216.2339
409.2450, 51.16260
410.4400, 119.0425
411.6340, 68.24805
412.8280, 191.3506
414.0220, 122.7881
415.2160, 24.59766
416.4100, 180.5522
417.6030, 116.9766
418.7970, 101.6064
419.9900, 96.41504
421.1830, 144.0117
422.3760, 115.8467
423.5690, 279.2471
424.7610, 271.3984
425.9540, 313.0693
427.1460, 330.2100
428.3380, 308.5234
429.5300, 336.9834
430.7220, 330.6982
431.9140, 375.9395
433.1050, 313.7041
434.2970, 329.9121
435.4880, 301.2031
436.6790, 265.8916
437.8700, 271.5762
439.0610, 225.8359
440.2510, 297.1924
441.4420, 272.9316
442.6320, 155.9746
443.8220, 221.7764
445.0120, 246.5361
446.2020, 277.1572
447.3910, 210.6318
448.5810, 272.3574
449.7700, 226.3076
450.9600, 254.6621
452.1490, 206.0137
453.3370, 244.2812
454.5260, 201.1719
455.7150, 99.22168
456.9030, 193.8857
458.0910, 153.1758
459.2800, 151.6211
460.4670, 74.94824
461.6550, 41.70605
462.8430, 81.13672
464.0300, 63.52051
465.2180, 97.14160
466.4050, 142.8994
467.5920, 108.5000
468.7790, 127.3232
469.9650, 93.41895
471.1520, 162.2373
472.3380, 169.4873
473.5250, 194.5186
474.7110, 128.6367
475.8970, 252.2129
477.0820, 92.72168
478.2680, 49.50195
479.4540, 172.9414
480.6390, 145.3408
481.8240, 26.18555
483.0090, 104.3350
484.1940, 169.7100
485.3780, 11.85645
486.5630, 95.84375
487.7470, 116.0508
488.9320, 63.21875
490.1160, 181.3301
491.3000, 19.94238
492.4830, 101.7754
493.6670, 18.34668
494.8500, 72.87695
496.0340, 141.1611
497.2170, 46.01270
498.4000, 69.90430
499.5820, 81.28027
500.7650, 105.4941
501.9480, 84.69434
503.1300, 90.84668
504.3120, 46.75195
505.4940, 89.88086
506.6760, 113.4453
507.8580, 149.8730
509.0390, 128.0264
510.2210, 152.9551
511.4020, 143.5352
512.5830, 129.2441
513.7640, 127.9844
514.9450, 61.27246
516.1250, 67.04883
517.3060, 17.84961
518.4860, 86.18750
519.6660, 121.7324
520.8460, 166.5273
522.0260, 216.0537
523.2060, 196.8828
524.3850, 144.4971
525.5650, 176.1982
526.7440, 121.7510
527.9230, 159.5928
529.1020, 152.5293
530.2810, 22.32324
531.4590, 98.41699
532.6380, 80.12012
533.8160, 150.8867
534.9940, 193.2627
536.1720, 204.1533
537.3500, 226.0566
538.5270, 221.8027
539.7050, 200.3262
540.8820, 102.3789
542.0590, 32.73438
543.2360, 1.983398
544.4130, 51.71094
545.5900, 1.353516
546.7660, 54.70898
547.9430, 100.2920
549.1190, 227.3389
550.2950, 71.60547
551.4710, 183.5811
552.6470, 139.3379
553.8220, 177.9541
554.9980, 103.4268
556.1730, 20.90527
557.3480, 134.8965
558.5230, 258.6113
559.6980, 18.09668
560.8730, 148.6836
562.0470, 19.52246
563.2220, 100.3506
564.3960, 184.2539
565.5700, 26.31738
566.7440, 184.3174
567.9170, 231.9297
569.0910, 16.52246
570.2640, 2.044922
571.4380, 85.47656
572.6110, 180.2510
573.7840, 236.0146
574.9570, 128.7031
576.1290, 319.8945
577.3020, 247.6328
578.4740, 202.6807
579.6460, 428.6318
580.8180, 338.1699
581.9900, 140.1377
583.1620, 314.0674
584.3330, 377.7178
585.5040, 172.9570
586.6760, 407.6357
587.8470, 441.1318
589.0180, 643.2197
590.1880, 520.4297
591.3590, 685.8545
592.5290, 487.8574
593.7000, 317.0889
594.8700, 264.6768
596.0400, 290.9727
597.2090, 182.7471
598.3790, 242.6348
599.5490, 184.0527
600.7180, 256.6396
601.8870, 132.3701
603.0560, 160.9834
604.2250, 134.9902
605.3940, 340.3955
606.5620, 424.0117
607.7300, 321.3174
608.8990, 245.4697
610.0670, 82.45898
611.2350, 173.5713
612.4020, 243.0195
613.5700, 100.3242
614.7370, 102.9873
615.9050, 237.2656
617.0720, 104.8203
618.2390, 195.6699
619.4060, 195.9463
620.5720, 163.8516
621.7390, 253.4629
622.9050, 168.3457
624.0710, 82.65625
625.2370, 58.11914
626.4030, 48.52832
627.5690, 56.77441
628.7340, 95.89844
629.9000, 122.7236
631.0650, 145.0391
632.2300, 115.2197
633.3950, 356.0039
634.5600, 40.27148
635.7240, 173.2412
636.8890, 99.76172
638.0530, 11.09180
639.2170, 93.28125
640.3810, 96.87695
641.5450, 163.1406
642.7080, 127.9736
643.8720, 98.48340
645.0350, 95.10156
646.1980, 252.1250
647.3610, 71.87109
648.5240, 100.7559
649.6870, 54.53711
650.8490, 171.1523
652.0120, 247.8350
653.1740, 155.6436
654.3360, 132.7871
655.4980, 103.8398
656.6600, 206.0791
657.8210, 117.1777
658.9830, 167.2363
660.1440, 66.41895
661.3050, 232.7002
662.4660, 290.2471
663.6270, 272.0098
664.7870, 5.848633
665.9480, 155.5967
667.1080, 61.79980
668.2680, 97.33398
669.4280, 150.4062
670.5880, 1.450195
671.7480, 113.7910
672.9070, 189.1729
674.0670, 110.1797
675.2260, 152.1387
676.3850, 229.0107
677.5440, 237.4307
678.7030, 233.6025
679.8610, 201.0674
681.0200, 210.1855
682.1780, 96.12598
683.3360, 141.1162
684.4940, 253.5752
685.6520, 38.96875
686.8090, 15.28711
687.9670, 127.0020
689.1240, 204.6445
690.2810, 57.17480
691.4380, 192.4844
692.5950, 156.8682
693.7520, 29.60449
694.9080, 8.604492
696.0650, 168.9795
697.2210, 169.5391
698.3770, 143.2432
699.5330, 83.60059
700.6880, 239.3398
701.8440, 39.78906
702.9990, 204.3408
704.1550, 66.74805
705.3100, 60.21973
706.4650, 138.4424
707.6190, 136.2998
708.7740, 109.0020
709.9290, 120.1211
711.0830, 260.0508
712.2370, 244.7988
713.3910, 245.4473
714.5450, 108.6543
715.6980, 201.1035
716.8520, 93.70898
718.0050, 103.7051
719.1580, 139.1250
720.3110, 78.13281
721.4640, 56.87695
722.6170, 18.37695
723.7700, 136.5996
724.9220, 43.41602
726.0740, 94.85938
727.2260, 108.9863
728.3780, 124.0000
729.5300, 248.0273
730.6810, 120.9512
731.8330, 240.0938
732.9840, 175.8691
734.1350, 184.1855
735.2860, 189.3848
736.4370, 24.71875
737.5880, 292.2520
738.7380, 231.5645
739.8880, 102.1289
741.0390, 307.8008
742.1890, 32.62891
743.3380, 121.7852
744.4880, 88.58984
745.6380, 52.07227
746.7870, 176.9082
747.9360, 14.08984
749.0850, 135.2715
750.2340, 105.4824
751.3830, 136.7480
752.5310, 57.25586
753.6800, 63.62500
754.8280, 104.5625
755.9760, 94.38086
757.1240, 163.6133
758.2720, 127.0566
759.4190, 152.0801
760.5670, 157.8633
761.7140, 146.7207
762.8610, 156.7109
764.0080, 145.9824
765.1550, 123.8906
766.3020, 124.7617
767.4480, 124.4062
768.5950, 108.6211
769.7410, 162.0371
770.8870, 118.2793
772.0330, 115.9258
773.1780, 110.0605
774.3240, 50.45898
775.4690, 174.6348
776.6140, 116.0879
777.7590, 249.6602
778.9040, 94.89648
780.0490, 159.8672
781.1940, 20.77734
782.3380, 118.6055
783.4820, 63.70703
784.6260, 21.99609
785.7700, 119.4668
786.9140, 22.56836
788.0580, 118.5859
789.2010, 91.81445
790.3450, 42.57617
791.4880, 169.9141
792.6310, 101.4102
793.7730, 44.08594
794.9160, 203.1445
796.0590, 75.84180
797.2010, 63.64062
798.3430, 65.00195
799.4850, 54.05078
800.6270, 200.3281
801.7690, 112.7715
802.9100, 145.8066
804.0520, 214.3184
805.1930, 2.669922
806.3340, 236.0781
807.4750, 294.3809
808.6160, 82.31445
809.7560, 289.9668
810.8970, 193.1270
812.0370, 227.2422
813.1770, 239.4648
814.3170, 112.2812
815.4570, 270.7148
816.5960, 156.3281
817.7360, 9.935547
818.8750, 175.1523
820.0140, 70.90430
821.1530, 109.5742
822.2920, 142.6738
823.4310, 198.7578
824.5690, 384.8301
825.7070, 105.2422
826.8460, 195.9082
827.9840, 109.8887
829.1220, 268.3613
830.2590, 253.6211
831.3970, 227.3945
832.5340, 289.7344
833.6710, 135.8496
834.8080, 205.9023
835.9450, 231.7734
837.0820, 58.33203
838.2190, 175.4707
839.3550, 246.1699
840.4910, 107.0352
841.6270, 125.2520
842.7630, 110.3750
843.8990, 225.7598
845.0350, 195.1855
846.1700, 331.3242
847.3060, 35.60547
848.4410, 122.6250
849.5760, 157.6270
850.7100, 18.31641
851.8450, 53.83594
852.9800, 149.1953
854.1140, 229.9688
855.2480, 227.8223
856.3820, 69.21094
857.5160, 170.2246
858.6500, 84.50195
859.7830, 263.4316
860.9170, 132.9082
862.0500, 113.2227
863.1830, 169.5820
864.3160, 176.7363
865.4480, 155.1738
866.5810, 160.8711
867.7130, 90.40039
868.8460, 153.0977
869.9780, 192.1953
871.1100, 227.7676
872.2410, 342.4941
873.3730, 68.96094
874.5050, 282.4473
875.6360, 277.4766
876.7670, 9.041016
877.8980, 90.20703
879.0290, 205.1250
880.1590, 37.56250
881.2900, 77.65820
882.4200, 124.1211
883.5500, 220.7578
884.6800, 277.1973
885.8100, 103.2402
886.9400, 40.51758
888.0690, 160.3906
889.1990, 186.2734
890.3280, 166.7891
891.4570, 282.7715
892.5860, 255.6328
893.7140, 187.5723
894.8430, 237.2461
895.9710, 127.1543
897.1000, 245.0488
898.2280, 109.4746
899.3560, 131.0273
900.4830, 164.3340
901.6110, 357.0352
902.7380, 140.1445
903.8660, 4.199219
904.9930, 206.1035
906.1200, 201.1758
907.2460, 115.0059
908.3730, 124.7676
909.5000, 30.46875
910.6260, 79.16992
911.7520, 155.6484
912.8780, 231.1680
914.0040, 390.1914
915.1290, 31.51758
916.2550, 131.0508
917.3800, 101.7930
918.5050, 54.03906
919.6300, 105.9922
920.7550, 100.1895
921.8800, 4.261719
923.0040, 181.2773
924.1290, 192.2500
925.2530, 124.0586
926.3770, 113.5508
927.5010, 59.57422
928.6250, 4.250000
929.7480, 123.6465
930.8720, 145.6230
931.9950, 152.0156
933.1180, 138.3027
934.2410, 83.45508
935.3640, 3.806641
936.4860, 65.69531
937.6090, 298.4512
938.7310, 25.72266
939.8530, 280.2129
940.9750, 292.3984
942.0970, 102.8887
943.2180, 203.5703
944.3400, 27.67969
945.4610, 123.8418
946.5820, 340.9082
947.7030, 297.0723
948.8240, 192.2402
949.9450, 343.8281
951.0650, 209.0332
952.1860, 128.7129
953.3060, 440.7129
954.4260, 218.3750
955.5460, 584.4941
956.6650, 565.7949
957.7850, 998.3008
958.9040, 1265.889
960.0230, 1609.486
961.1420, 2050.607
962.2610, 3271.062
963.3800, 4239.230
964.4990, 5132.906
965.6170, 4868.477
966.7350, 3834.465
967.8530, 2439.127
968.9710, 1582.100
970.0890, 913.3281
971.2070, 771.6211
972.3240, 623.1113
973.4410, 133.0879
974.5580, 274.3184
975.6750, 299.9258
976.7920, 338.5723
977.9090, 340.1172
979.0250, 218.1055
980.1410, 250.9277
981.2580, 207.2031
982.3740, 163.4609
983.4890, 133.8574
984.6050, 192.3574
985.7200, 85.33594
986.8360, 203.4492
987.9510, 232.0645
989.0660, 206.7031
990.1810, 105.0820
991.2950, 114.9629
992.4100, 276.2285
993.5240, 42.90234
994.6390, 301.6191
995.7530, 171.5566
996.8660, 201.3750
997.9800, 246.3516
999.0940, 176.4023
1000.207, 220.2832
1001.320, 116.1543
1002.433, 176.6895
1003.546, 382.4453
1004.659, 116.3340
1005.772, 78.32812
1006.884, 163.6191
1007.996, 0.8515630
1009.108, 251.8203
1010.220, 198.8691
1011.332, 10.82227
1012.444, 244.3262
1013.555, 195.9258
1014.666, 232.5625
1015.777, 304.1895
1016.888, 151.1445
1017.999, 295.7051
1019.110, 232.4766
1020.220, 140.8984
1021.331, 272.0352
1022.441, 31.77734
1023.551, 59.42578
1024.661, 122.5039
1025.770, 126.0371
1026.880, 161.4258
1027.989, 220.5059
1029.098, 86.76562
1030.207, 118.5723
1031.316, 328.0469
1032.425, 171.6875
1033.533, 263.3906
1034.642, 3.796875
1035.750, 229.5371
1036.858, 197.1523
1037.966, 275.2109
1039.073, 225.0527
1040.181, 451.8496
1041.288, 365.2617
1042.396, 488.6895
1043.503, 239.2754
1044.610, 484.4336
1045.716, 307.9160
1046.823, 207.6914
1047.929, 350.7227
1049.036, 305.1914
1050.142, 427.4727
1051.248, 522.6152
1052.353, 712.3711
1053.459, 771.4863
1054.564, 636.5703
1055.670, 518.1719
1056.775, 542.5664
1057.880, 526.9844
1058.985, 461.0195
1060.089, 234.1484
1061.194, 407.8477
1062.298, 253.3242
1063.402, 298.3828
1064.506, 325.5117
1065.610, 310.6523
1066.713, 379.7109
1067.817, 3.316406
1068.920, 56.43750
1070.023, 42.07031
1071.126, 122.0625
1072.229, 180.8320
1073.332, 201.1523
1074.435, 269.7070
1075.537, 250.3828
1076.639, 195.4570
1077.741, 321.4531
1078.843, 360.1602
1079.945, 373.4961
1081.046, 542.8125
1082.148, 447.7617
1083.249, 514.0391
1084.350, 448.0312
1085.451, 297.6797
1086.551, 131.9062
1087.652, 8.5937999E-02
1088.752, 150.0898
1089.853, 56.25781
1090.953, 170.4062
1092.053, 5.535156
1093.152, 149.6328
1094.252, 155.7148
1095.351, 47.78125
1096.451, 299.8320
1097.550, 193.8633
1098.649, 25.88281
1099.748, 479.8750
1100.846, 100.8516
1101.945, 204.8164
1103.043, 326.7695
1104.141, 105.7031
1105.239, 131.6250
1106.337, 331.0391
1107.434, 232.9336
1108.532, 248.8164
1109.629, 106.6875
1110.726, 71.55078
1111.823, 440.2812
1112.920, 167.1133
1114.017, 65.21875
1115.113, 319.1953
1116.210, 163.4766
1117.306, 52.00391
1118.402, 32.98047
1119.498, 99.18359
1120.593, 188.9805
1121.689, 44.64062
1122.784, 170.2617
1123.879, 246.2031
1124.974, 229.7188
1126.069, 62.21875
1127.164, 245.7148
1128.259, 281.8789
1129.353, 161.1719
1130.447, 225.6445
1131.541, 296.8281
1132.635, 152.1914
1133.729, 427.1250
1134.822, 205.3047
1135.916, 325.7422
1137.009, 146.6719
1138.102, 43.40234
1139.195, 262.8164
1140.288, 40.92969
1141.380, 176.7109
1142.473, 145.9414
1143.565, 364.3594
1144.657, 351.7305
1145.749, 156.9688
1146.841, 11.67188
1147.932, 307.6797
1149.024, 120.7227
1150.115, 319.0625
1151.206, 119.6016
1152.297, 232.3125
1153.388, 91.59766
1154.479, 116.5117
1155.569, 56.76172
1156.659, 166.6484
1157.750, 80.55469
1158.839, 44.95312
1159.929, 120.9219
1161.019, 18.67969
1162.108, 32.64844
1163.198, 210.6016
1164.287, 127.1367
1165.376, 195.6484
1166.465, 226.3516
1167.553, 52.59766
1168.642, 143.8398
1169.730, 196.0938
1170.818, 372.7305
1171.906, 152.9844
1172.994, 250.2422
1174.082, 294.5078
1175.170, 1.773438
1176.257, 178.0664
1177.344, 637.3633
1178.431, 211.6641
1179.518, 164.9648
1180.605, 348.2695
1181.691, 108.5859
1182.778, 181.9023
1183.864, 56.22656
1184.950, 262.5508
1186.036, 284.8828
1187.122, 128.2305
1188.207, 252.5781
1189.292, 266.9336
1190.378, 353.2930
1191.463, 131.6641
1192.548, 262.0391
1193.632, 262.4258
1194.717, 342.8203
1195.801, 82.22266
1196.886, 135.6289
1197.970, 117.0469
1199.054, 310.8750
1200.137, 47.43359
1201.221, 31.67969
1202.305, 181.7891
1203.388, 105.2734
1204.471, 288.7617
1205.554, 189.2617
1206.637, 364.7656
1207.719, 405.8828
1208.802, 416.3086
1209.884, 489.3711
1210.966, 405.9297
1212.048, 329.4922
1213.130, 158.0664
1214.212, 265.6484
1215.293, 173.2383
1216.374, 131.8398
1217.456, 250.4531
1218.536, 290.1328
1219.617, 312.7617
1220.698, 268.2891
1221.778, 286.9336
1222.859, 310.0547
1223.939, 407.7188
1225.019, 496.3906
1226.099, 408.8906
1227.178, 341.6602
1228.258, 297.3672
1229.337, 97.53906
1230.417, 178.2656
1231.496, 390.0000
1232.574, 211.7461
1233.653, 65.50781
1234.732, 261.2852
1235.810, 102.0664
1236.888, 221.8633
1237.966, 225.0508
1239.044, 278.8672
1240.122, 179.7070
1241.199, 293.5547
1242.277, 24.41016
1243.354, 292.2852
1244.431, 288.8594
1245.508, 93.75781
1246.585, 305.6797
1247.661, 302.2227
1248.738, 236.9805
1249.814, 38.66406
1250.890, 232.6445
1251.966, 88.85156
1253.042, 257.8672
1254.117, 203.9023
1255.193, 504.9531
1256.268, 304.0430
1257.343, 6.156250
1258.418, 83.28516
1259.493, 369.4297
1260.567, 88.59375
1261.642, 38.77734
1262.716, 455.9727
1263.790, 225.1953
1264.864, 32.43359
1265.938, 283.6875
1267.011, 330.9648
1268.085, 15.73828
1269.158, 139.5742
1270.231, 169.9688
1271.304, 299.3398
1272.377, 49.67188
1273.450, 175.0391
1274.522, 138.4297
1275.594, 146.8359
1276.666, 138.6055
1277.738, 150.8320
1278.810, 72.78906
1279.882, 168.2812
1280.953, 171.3789
1282.025, 121.9102
1283.096, 50.46484
1284.167, 123.0664
1285.238, 265.6953
1286.308, 111.3438
1287.379, 78.98438
1288.449, 22.69531
1289.519, 328.3945
1290.589, 71.91797
1291.659, 144.5742
1292.729, 37.66797
1293.798, 86.10938
1294.868, 68.90625
1295.937, 285.7461
1297.006, 112.6094
1298.075, 232.4922
1299.143, 62.59766
1300.212, 125.3281
1301.280, 240.2773
1302.348, 112.2500
1303.416, 464.2461
1304.484, 227.7969
1305.552, 147.8477
1306.620, 355.9219
1307.687, 43.02344
1308.754, 225.1562
1309.821, 204.3164
1310.888, 112.5078
1311.955, 274.7227
1313.021, 209.9727
1314.088, 321.2461
1315.154, 264.5508
1316.220, 240.5391
1317.286, 56.24219
1318.352, 254.6289
1319.417, 189.0508
1320.483, 415.5000
1321.548, 309.9766
1322.613, 557.4766
1323.678, 421.0039
1324.743, 246.5430
1325.807, 91.10547
1326.872, 275.6914
1327.936, 249.3086
1329.000, 100.9766
1330.064, 433.1719
1331.128, 268.8867
1332.191, 50.62109
1333.255, 479.3750
1334.318, 423.1562
1335.381, 346.9570
1336.444, 487.7891
1337.507, 267.6367
1338.569, 357.5039
1339.632, 100.3984
1340.694, 250.3164
1341.756, 358.2578
1342.818, 620.2188
1343.880, 510.1719
1344.941, 378.2188
1346.003, 297.2539
1347.064, 288.3242
1348.125, 138.4141
1349.186, 221.5352
1350.247, 220.6797
1351.308, 303.8555
1352.368, 348.0547
1353.428, 212.9727
1354.489, 401.5352
1355.549, 314.0703
1356.608, 147.1133
1357.668, 283.4414
1358.727, 268.7969
1359.787, 280.1836
1360.846, 329.5898
1361.905, 421.0312
1362.964, 446.4961
1364.022, 557.9883
1365.081, 30.49219
1366.139, 297.0547
1367.197, 133.6289
1368.255, 223.2305
1369.313, 419.8594
1370.371, 253.5234
1371.428, 262.2070
1372.486, 452.9453
1373.543, 402.7148
1374.600, 335.5078
1375.657, 246.3516
1376.713, 179.2383
1377.770, 204.1875
1378.826, 185.7031
1379.882, 254.1875
1380.938, 324.2422
1381.994, 209.3242
1383.050, 438.4375
1384.106, 198.5781
1385.161, 38.74609
1386.216, 185.9453
1387.271, 189.1797
1388.326, 4.437500
1389.381, 422.7266
1390.435, 269.0469
1391.490, 283.3984
1392.544, 195.7812
1393.598, 64.19531
1394.652, 166.6406
1395.705, 272.8203
1396.759, 255.3320
1397.812, 366.6250
1398.866, 292.2109
1399.919, 275.8320
1400.972, 160.4844
1402.024, 420.1719
1403.077, 279.8945
1404.129, 357.6602
1405.181, 445.4531
1406.233, 434.2891
1407.285, 326.1602
1408.337, 313.0977
1409.389, 409.0703
1410.440, 227.0859
1411.491, 203.1367
1412.542, 412.2266
1413.593, 245.3516
1414.644, 257.4766
1415.695, 305.6836
1416.745, 212.0703
1417.795, 284.5859
1418.845, 333.9258
1419.895, 393.6094
1420.945, 106.0352
1421.995, 279.5078
1423.044, 260.0234
1424.093, 196.5859
1425.142, 367.1953
1426.191, 25.48047
1427.240, 33.18359
1428.289, 431.9492
1429.337, 37.75781
1430.385, 63.62109
1431.433, 419.5469
1432.481, 130.5195
1433.529, 477.5547
1434.577, 373.6523
1435.624, 280.9609
1436.672, 90.17969
1437.719, 578.4727
1438.766, 343.9609
1439.812, 313.3906
1440.859, 438.4961
1441.905, 252.0898
1442.952, 313.7383
1443.998, 412.2539
1445.044, 431.3555
1446.090, 59.86328
1447.135, 391.2383
1448.181, 121.8164
1449.226, 270.8047
1450.271, 235.8320
1451.316, 350.9062
1452.361, 183.0273
1453.405, 242.2031
1454.450, 146.4141
1455.494, 379.6758
1456.538, 193.9727
1457.582, 291.3203
1458.626, 365.7031
1459.670, 248.1367
1460.713, 220.6094
1461.757, 150.1289
1462.800, 104.6914
1463.843, 210.3008
1464.886, 257.9492
1465.928, 467.6523
1466.971, 337.3945
1468.013, 183.1797
1469.055, 284.0156
1470.097, 562.4375
1471.139, 152.3555
1472.181, 291.3203
1473.222, 599.3281
1474.263, 432.3789
1475.305, 21.48438
1476.346, 256.6250
1477.386, 340.8203
1478.427, 479.0547
1479.468, 364.3359
1480.508, 171.6562
1481.548, 243.0273
1482.588, 261.4375
1483.628, 507.8906
1484.668, 175.3945
1485.707, 505.9766
1486.747, 78.65234
1487.786, 356.3672
1488.825, 66.12891
1489.864, 260.9375
1490.902, 15.78906
1491.941, 434.6836
1492.979, 65.61719
1494.017, 319.6133
1495.055, 35.66016
1496.093, 449.7773
1497.131, 324.9453
1498.168, 23.15234
1499.206, 283.4023
1500.243, 470.7109
1501.280, 139.0547
1502.317, 415.4336
1503.354, 429.8477
1504.390, 308.2734
1505.426, 418.7109
1506.463, 312.1680
1507.499, 205.6367
1508.535, 435.1172
1509.570, 276.6094
1510.606, 290.1211
1511.641, 335.7188
1512.676, 376.3945
1513.711, 367.1484
1514.746, 339.9883
1515.781, 280.9141
1516.816, 293.9141
1517.850, 99.00781
1518.884, 281.1875
1519.918, 15.45312
1520.952, 172.8047
1521.986, 183.2617
1523.019, 317.8047
1524.053, 365.4492
1525.086, 416.6953
1526.119, 413.2344
1527.152, 414.8828
1528.185, 308.0000
1529.217, 383.1523
1530.250, 275.4023
1531.282, 285.7578
1532.314, 408.2305
1533.346, 189.8125
1534.377, 254.5117
1535.409, 20.32812
1536.440, 566.2734
1537.472, 221.3477
1538.503, 427.5586
1539.534, 220.9180
1540.564, 12.56641
1541.595, 270.1250
1542.625, 268.0000
1543.656, 369.0742
1544.686, 246.3516
1545.716, 249.0977
1546.745, 248.1289
1547.775, 119.4766
1548.804, 239.6602
1549.834, 161.0938
1550.863, 191.8008
1551.892, 214.7930
1552.920, 279.1094
1553.949, 413.7500
1554.977, 289.7578
1556.006, 253.1641
1557.034, 220.8125
1558.062, 476.0195
1559.089, 32.27344
1560.117, 291.9648
1561.144, 440.8008
1562.172, 84.28906
1563.199, 239.5039
1564.226, 26.51953
1565.252, 465.6562
1566.279, 97.21094
1567.305, 424.9688
1568.332, 25.42969
1569.358, 125.7031
1570.384, 7.0312999E-02
1571.409, 0.0000000E+00
##END=



