##NAMES=Fluorapophyllite-(K)
##RRUFFID=R050084
##IDEAL CHEMISTRY=KCa_4_Si_8_O_20_F&#183;8H_2_O
##LOCALITY=near Ahmednagar, Maharashtra, India
##OWNER=RRUFF
##SOURCE=Rock Currier
##DESCRIPTION=Greenish-white prismatic single crystal associated with scolecite
##STATUS=The identification of this mineral has been confirmed by X-ray diffraction and chemical analysis
##URL=rruff.info/R050084
##MEASURED CHEMISTRY=(K_0.98_Na_0.02_)Ca_4.00_Si_8.00_O_20_F_1.00_Â·8H_2_O
##PIN_ID=L00128
##ORIENTATION=Laser parallel to c* (0 0 1). Fiducial mark perpendicular to laser is parallel to a [1 0 0]
80.327, 0.000
81.728, 60.178
83.128, 5.100
84.529, 5.630
85.929, 164.072
87.329, 284.501
88.728, 293.524
90.128, 450.431
91.527, 578.463
92.926, 1074.015
94.324, 1240.570
95.723, 1120.336
97.121, 1040.480
98.519, 625.009
99.917, 684.292
101.314, 557.945
102.712, 800.704
104.109, 992.406
105.505, 1636.626
106.902, 3684.888
108.298, 5655.430
109.694, 7434.496
111.090, 4877.354
112.486, 2951.495
113.881, 2034.861
115.277, 1350.148
116.672, 1479.735
118.066, 1289.468
119.461, 2261.331
120.855, 2373.046
122.249, 2653.268
123.643, 3313.650
125.036, 2747.890
126.430, 3077.442
127.823, 2214.527
129.216, 2065.841
130.608, 1823.087
132.001, 2466.259
133.393, 2768.457
134.785, 2142.654
136.176, 1543.844
137.568, 562.021
138.959, 375.176
140.350, 111.289
141.741, 68.365
143.131, 44.392
144.521, 94.630
145.911, 58.298
147.301, 200.830
148.691, 35.986
150.080, 93.221
151.469, 16.214
152.858, 134.928
154.247, 238.251
155.635, 612.625
157.024, 704.125
158.411, 1456.129
159.799, 2067.548
161.187, 3529.087
162.574, 5127.688
163.961, 5584.229
165.348, 5719.283
166.734, 3580.421
168.121, 2807.520
169.507, 1641.055
170.893, 1024.150
172.278, 592.619
173.664, 110.509
175.049, 163.385
176.434, 114.761
177.819, 149.068
179.203, 209.731
180.587, 557.654
181.971, 1126.696
183.355, 1812.316
184.739, 3993.076
186.122, 4659.535
187.505, 6461.942
188.888, 5668.289
190.271, 4185.576
191.653, 3180.805
193.035, 1996.974
194.417, 1854.058
195.799, 1256.985
197.180, 1350.676
198.562, 1317.135
199.943, 1289.539
201.324, 1787.116
202.704, 1802.553
204.084, 2857.718
205.465, 3211.844
206.844, 4777.930
208.224, 6241.975
209.603, 8355.977
210.983, 10979.920
212.362, 10833.699
213.740, 11677.429
215.119, 8951.123
216.497, 7604.776
217.875, 6412.585
219.253, 5272.074
220.631, 5170.811
222.008, 4005.417
223.385, 4291.203
224.762, 3718.891
226.139, 4044.779
227.515, 4442.828
228.891, 4366.755
230.267, 5061.095
231.643, 4313.473
233.018, 4478.634
234.394, 3505.497
235.769, 2927.414
237.144, 2473.172
238.518, 1639.014
239.893, 1549.533
241.267, 923.644
242.641, 890.575
244.014, 600.778
245.388, 434.768
246.761, 506.813
248.134, 169.349
249.507, 300.201
250.879, 82.081
252.252, 171.675
253.624, 149.271
254.996, 37.233
256.367, 188.563
257.739, 15.865
259.110, 224.685
260.481, 163.841
261.852, 368.905
263.222, 463.843
264.592, 469.633
265.962, 967.288
267.332, 853.822
268.702, 1383.249
270.071, 1260.575
271.440, 1123.800
272.809, 1044.930
274.178, 531.974
275.546, 692.936
276.915, 325.749
278.283, 401.223
279.650, 326.259
281.018, 247.015
282.385, 493.629
283.752, 294.212
285.119, 550.771
286.486, 410.308
287.852, 657.820
289.218, 846.308
290.584, 825.768
291.950, 1434.595
293.316, 1405.962
294.681, 2216.137
296.046, 2473.268
297.411, 3073.373
298.775, 3793.454
300.140, 3520.509
301.504, 3930.537
302.868, 3017.540
304.231, 2798.517
305.595, 2263.143
306.958, 1619.179
308.321, 1583.767
309.684, 928.720
311.047, 1096.597
312.409, 769.961
313.771, 596.400
315.133, 663.620
316.495, 377.671
317.856, 612.568
319.217, 336.842
320.578, 559.510
321.939, 450.416
323.299, 352.025
324.660, 631.601
326.020, 423.144
327.380, 774.653
328.739, 627.129
330.099, 808.558
331.458, 995.924
332.817, 871.186
334.176, 1423.356
335.534, 1225.583
336.892, 1667.672
338.251, 1655.070
339.608, 1624.225
340.966, 1917.478
342.323, 1389.481
343.681, 1605.771
345.037, 1098.479
346.394, 976.339
347.751, 790.305
349.107, 489.100
350.463, 669.866
351.819, 717.041
353.174, 327.748
354.530, 209.713
355.885, 37.358
357.240, 204.968
358.594, 70.455
359.949, 168.064
361.303, 15.327
362.657, 17.118
364.011, 122.529
365.365, 62.092
366.718, 151.233
368.071, 56.470
369.424, 181.774
370.777, 90.990
372.129, 48.177
373.481, 277.333
374.833, 12.537
376.185, 201.553
377.537, 1.382
378.888, 85.647
380.239, 83.648
381.590, 169.380
382.941, 75.500
384.291, 163.689
385.642, 29.022
386.992, 62.311
388.341, 187.731
389.691, 33.732
391.040, 175.845
392.389, 77.482
393.738, 82.233
395.087, 49.994
396.435, 75.135
397.784, 98.810
399.132, 133.096
400.479, 68.085
401.827, 118.685
403.174, 96.407
404.521, 12.076
405.868, 249.692
407.215, 5.719
408.561, 544.878
409.908, 450.439
411.254, 117.731
412.599, 241.680
413.945, 21.065
415.290, 313.119
416.636, 78.074
417.980, 214.027
419.325, 245.223
420.670, 218.431
422.014, 518.831
423.358, 358.756
424.702, 772.690
426.045, 824.904
427.389, 1143.086
428.732, 1789.271
430.075, 2290.426
431.417, 4301.560
432.760, 5630.672
434.102, 7871.754
435.444, 7840.832
436.786, 5636.880
438.127, 4402.900
439.469, 2418.374
440.810, 1968.138
442.151, 1334.569
443.492, 900.646
444.832, 937.544
446.172, 433.777
447.512, 627.627
448.852, 405.304
450.192, 388.109
451.531, 456.891
452.870, 155.650
454.209, 520.382
455.548, 245.093
456.887, 415.781
458.225, 509.449
459.563, 399.095
460.901, 830.719
462.238, 653.323
463.576, 1033.906
464.913, 1008.468
466.250, 877.009
467.587, 1128.535
468.923, 661.048
470.259, 858.551
471.596, 554.076
472.931, 464.590
474.267, 469.154
475.603, 215.707
476.938, 455.282
478.273, 179.781
479.608, 271.339
480.942, 379.638
482.276, 152.159
483.611, 550.659
484.944, 339.969
486.278, 628.430
487.612, 559.872
488.945, 472.295
490.278, 720.699
491.611, 247.085
492.943, 449.452
494.276, 272.802
495.608, 176.134
496.940, 363.448
498.271, 41.745
499.603, 304.032
500.934, 154.306
502.265, 187.608
503.596, 285.898
504.927, 2.174
506.257, 319.426
507.587, 154.663
508.917, 226.881
510.247, 316.084
511.577, 79.271
512.906, 392.439
514.235, 112.430
515.564, 245.914
516.892, 299.235
518.221, 185.676
519.549, 466.589
520.877, 139.853
522.205, 479.237
523.533, 350.240
524.860, 355.282
526.187, 590.750
527.514, 237.894
528.841, 724.730
530.167, 514.982
531.493, 579.758
532.820, 870.170
534.145, 563.798
535.471, 1048.435
536.796, 830.729
538.122, 1056.084
539.447, 1290.791
540.771, 927.477
542.096, 1410.315
543.420, 959.928
544.744, 1095.148
546.068, 1061.325
547.392, 809.937
548.715, 1148.694
550.039, 627.943
551.362, 918.485
552.684, 768.119
554.007, 635.294
555.329, 926.799
556.652, 578.788
557.973, 952.279
559.295, 797.224
560.617, 728.950
561.938, 1050.839
563.259, 663.374
564.580, 1152.600
565.901, 967.044
567.221, 1017.493
568.541, 1417.224
569.861, 1112.578
571.181, 1722.487
572.501, 1530.918
573.820, 1831.753
575.139, 2262.500
576.458, 2123.876
577.777, 3135.298
579.095, 2926.860
580.414, 3745.468
581.732, 4414.267
583.049, 4380.121
584.367, 5856.985
585.685, 5305.781
587.002, 6077.900
588.319, 5771.688
589.636, 5109.589
590.952, 5295.346
592.268, 3827.139
593.585, 3829.569
594.900, 3158.353
596.216, 2437.191
597.532, 2677.992
598.847, 1780.790
600.162, 1923.719
601.477, 1569.513
602.792, 1206.308
604.106, 1545.099
605.420, 899.889
606.734, 1176.677
608.048, 970.468
609.361, 807.255
610.675, 1058.040
611.988, 632.423
613.301, 930.202
614.614, 750.990
615.926, 694.788
617.238, 1007.583
618.550, 547.376
619.862, 1004.166
621.174, 763.961
622.485, 862.753
623.797, 1092.544
625.108, 731.333
626.418, 1201.119
627.729, 878.919
629.039, 938.716
630.349, 1253.512
631.659, 786.306
632.969, 1288.097
634.279, 939.855
635.588, 1063.643
636.897, 1253.259
638.206, 822.045
639.515, 1348.831
640.823, 992.347
642.131, 1163.129
643.439, 1477.910
644.747, 1075.699
646.055, 1708.487
647.362, 1376.274
648.669, 1665.060
649.976, 1865.844
651.283, 1627.627
652.589, 2373.409
653.896, 2002.085
655.202, 2431.866
656.508, 2746.395
657.814, 2565.173
659.119, 3352.780
660.424, 2951.529
661.729, 3563.305
663.034, 3746.269
664.339, 3383.043
665.643, 4242.676
666.947, 3487.449
668.251, 3788.222
669.555, 3766.556
670.859, 2973.328
672.162, 3430.812
673.465, 2340.587
674.768, 2589.370
676.071, 2238.156
677.373, 1593.972
678.676, 1981.686
679.978, 1279.537
681.280, 1334.396
682.581, 1243.261
683.883, 804.155
685.184, 1085.064
686.485, 599.002
687.786, 756.943
689.087, 744.893
690.387, 402.850
691.687, 703.810
692.987, 295.785
694.287, 476.764
695.586, 492.759
696.886, 141.760
698.185, 496.767
699.484, 144.831
700.783, 304.902
702.081, 351.029
703.379, 86.164
704.677, 382.327
705.975, 43.553
707.273, 248.787
708.570, 298.079
709.868, 67.623
711.165, 264.675
712.462, 61.002
713.758, 105.296
715.055, 247.632
716.351, 138.027
717.647, 260.271
718.943, 30.426
720.238, 3.866
721.533, 188.163
722.829, 178.536
724.124, 249.682
725.418, 78.098
726.713, 37.082
728.007, 183.267
729.301, 130.265
730.595, 256.868
731.889, 3.998
733.182, 75.135
734.476, 222.270
735.769, 209.592
737.061, 250.436
738.354, 12.535
739.647, 17.483
740.939, 202.502
742.231, 132.477
743.523, 260.472
744.814, 31.577
746.106, 26.638
747.397, 259.276
748.688, 86.809
749.978, 311.057
751.269, 20.924
752.559, 65.988
753.849, 316.857
755.139, 8.271
756.429, 315.589
757.719, 141.450
759.008, 165.312
760.297, 531.176
761.586, 156.041
762.875, 568.105
764.163, 447.973
765.451, 416.843
766.739, 874.713
768.027, 415.586
769.315, 937.685
770.602, 669.561
771.890, 467.438
773.177, 832.315
774.463, 295.194
775.750, 572.356
777.036, 471.237
778.323, 107.119
779.609, 582.002
780.894, 92.886
782.180, 400.834
783.465, 390.720
784.750, 177.608
786.035, 552.496
787.320, 230.385
788.605, 544.276
789.889, 698.167
791.173, 577.060
792.457, 1115.232
793.741, 768.128
795.024, 1010.026
796.307, 1075.925
797.591, 520.826
798.873, 924.931
800.156, 412.834
801.439, 385.738
802.721, 591.644
804.003, 95.550
805.285, 492.458
806.566, 194.367
807.848, 152.276
809.129, 480.188
810.410, 2.899
811.691, 477.003
812.971, 261.907
814.252, 158.813
815.532, 509.721
816.812, 137.629
818.092, 424.543
819.371, 316.458
820.651, 188.376
821.930, 647.295
823.209, 107.215
824.488, 478.139
825.766, 437.064
827.045, 190.992
828.323, 702.922
829.601, 307.853
830.878, 542.786
832.156, 639.539
833.433, 293.476
834.710, 736.413
835.987, 399.352
837.264, 546.298
838.540, 748.792
839.817, 339.740
841.093, 757.701
842.369, 472.216
843.644, 567.179
844.920, 767.143
846.195, 280.107
847.470, 686.080
848.745, 481.469
850.020, 371.443
851.294, 730.419
852.568, 236.395
853.842, 577.373
855.116, 504.351
856.390, 247.330
857.663, 691.310
858.936, 228.292
860.209, 514.273
861.482, 502.255
862.755, 217.238
864.027, 662.505
865.299, 207.488
866.571, 344.109
867.843, 531.102
869.115, 42.094
870.386, 475.841
871.657, 206.836
872.928, 255.093
874.199, 551.948
875.470, 54.946
876.740, 480.050
878.010, 195.051
879.280, 132.426
880.550, 440.430
881.820, 43.563
883.089, 356.360
884.358, 315.341
885.627, 44.745
886.896, 440.730
888.164, 57.721
889.433, 299.605
890.701, 332.602
891.969, 17.551
893.236, 462.489
894.504, 98.496
895.771, 199.178
897.038, 360.192
898.305, 70.889
899.572, 373.156
900.838, 163.166
902.105, 136.541
903.371, 444.560
904.637, 93.472
905.902, 288.511
907.168, 251.499
908.433, 29.361
909.698, 376.360
910.963, 71.361
912.228, 250.365
913.492, 258.369
914.757, 25.625
916.021, 458.373
917.285, 71.375
918.548, 190.358
919.812, 317.345
921.075, 94.663
922.338, 379.303
923.601, 84.274
924.864, 90.234
926.126, 360.198
927.388, 27.833
928.650, 309.134
929.912, 226.103
931.174, 61.077
932.435, 436.055
933.697, 59.974
934.958, 235.988
936.218, 309.954
937.479, 83.926
938.739, 406.902
940.000, 63.883
941.260, 131.869
942.520, 361.860
943.779, 6.144
945.039, 346.856
946.298, 104.861
947.557, 55.871
948.816, 433.886
950.074, 46.109
951.333, 324.890
952.591, 260.880
953.849, 24.874
955.107, 530.870
956.365, 101.871
957.622, 292.874
958.879, 440.882
960.136, 39.895
961.393, 486.914
962.650, 168.533
963.906, 211.563
965.162, 536.599
966.418, 63.640
967.674, 502.687
968.930, 391.740
970.185, 279.799
971.441, 708.863
972.696, 275.934
973.950, 660.010
975.205, 574.093
976.459, 81.181
977.714, 451.276
978.968, 107.377
980.222, 154.485
981.475, 353.599
982.729, 59.281
983.982, 369.833
985.235, 163.952
986.488, 22.080
987.740, 452.395
988.993, 54.464
990.245, 295.672
991.497, 350.375
992.749, 15.475
994.000, 459.681
995.252, 71.845
996.503, 171.017
997.754, 369.642
999.005, 12.168
1000.256, 532.028
1001.506, 411.233
1002.756, 351.448
1004.006, 966.674
1005.256, 543.908
1006.506, 998.152
1007.755, 1099.721
1009.005, 854.986
1010.254, 1433.262
1011.502, 951.551
1012.751, 867.851
1014.000, 1053.163
1015.248, 409.505
1016.496, 802.860
1017.744, 631.292
1018.991, 399.689
1020.239, 832.101
1021.486, 348.562
1022.733, 626.038
1023.980, 716.538
1025.227, 378.055
1026.473, 855.566
1027.719, 451.317
1028.965, 534.860
1030.211, 846.438
1031.457, 344.002
1032.702, 834.301
1033.948, 672.931
1035.193, 489.575
1036.438, 1061.232
1037.682, 493.527
1038.927, 817.216
1040.171, 1108.978
1041.415, 764.696
1042.659, 1350.434
1043.903, 1073.185
1045.146, 1196.947
1046.390, 1692.752
1047.633, 1280.916
1048.876, 1887.756
1050.118, 2089.632
1051.361, 2136.635
1052.603, 3075.536
1053.845, 2985.459
1055.087, 4115.210
1056.329, 5280.842
1057.571, 5632.324
1058.812, 8336.859
1060.053, 9265.292
1061.294, 10533.489
1062.535, 11074.801
1063.775, 10219.410
1065.016, 10217.021
1066.256, 8305.840
1067.496, 5761.313
1068.736, 5636.111
1069.975, 3621.921
1071.214, 3055.394
1072.454, 2932.217
1073.693, 1751.770
1074.931, 2081.589
1076.170, 1508.421
1077.408, 1050.266
1078.647, 1483.815
1079.885, 809.684
1081.122, 902.566
1082.360, 977.942
1083.597, 431.829
1084.835, 844.729
1086.072, 562.645
1087.308, 479.575
1088.545, 822.538
1089.781, 305.517
1091.018, 642.511
1092.254, 728.523
1093.490, 263.550
1094.725, 822.595
1095.961, 430.657
1097.196, 388.736
1098.431, 725.151
1099.666, 152.225
1100.900, 530.900
1102.135, 425.940
1103.369, 116.226
1104.603, 665.275
1105.837, 276.741
1107.071, 386.798
1108.304, 611.870
1109.538, 191.958
1110.771, 623.060
1112.004, 597.177
1113.236, 385.311
1114.469, 895.459
1115.701, 531.595
1116.933, 774.745
1118.165, 857.908
1119.397, 304.082
1120.629, 812.266
1121.860, 458.461
1123.091, 345.717
1124.322, 889.984
1125.553, 306.253
1126.783, 585.532
1128.014, 545.820
1129.244, 35.117
1130.474, 652.386
1131.704, 223.693
1132.933, 207.004
1134.163, 496.408
1135.392, 25.185
1136.621, 471.246
1137.850, 399.714
1139.079, 45.771
1140.307, 565.859
1141.535, 109.523
1142.763, 131.257
1143.991, 562.049
1145.219, 25.128
1146.446, 445.728
1147.674, 371.666
1148.901, 55.636
1150.128, 566.640
1151.354, 120.674
1152.581, 292.742
1153.807, 512.842
1155.033, 4.021
1156.259, 482.323
1157.485, 345.727
1158.710, 111.204
1159.936, 630.746
1161.161, 140.348
1162.386, 314.011
1163.611, 522.740
1164.835, 21.461
1166.060, 482.412
1167.284, 266.363
1168.508, 127.396
1169.732, 600.517
1170.955, 163.733
1172.179, 336.051
1173.402, 644.847
1174.625, 63.230
1175.848, 608.988
1177.070, 395.199
1178.293, 152.983
1179.515, 653.105
1180.737, 154.292
1181.959, 405.545
1183.181, 513.197
1184.402, 25.499
1185.624, 603.839
1186.845, 347.209
1188.066, 156.371
1189.286, 699.007
1190.507, 153.534
1191.727, 350.904
1192.947, 519.963
1194.167, 40.993
1195.387, 553.507
1196.607, 235.965
1197.826, 109.428
1199.045, 638.139
1200.264, 228.237
1201.483, 398.594
1202.702, 531.664
1203.920, 2.327
1205.138, 606.855
1206.356, 253.419
1207.574, 77.793
1208.792, 620.479
1210.009, 0.000
##END=



