##NAMES=Fluorophlogopite
##RRUFFID=R040039
##IDEAL CHEMISTRY=KMg_3_(Si_3_Al)O_10_F_2_
##LOCALITY=Franklin, Sussex County, New Jersey, USA
##OWNER=RRUFF
##SOURCE=University of Arizona Mineral Museum
##DESCRIPTION=Brown hexagonal sheets
##STATUS=The identification of this mineral has been confirmed by X-ray diffraction and chemical analysis
##URL=rruff.info/R040039
##MEASURED CHEMISTRY=(K_0.92_Na_0.06_[box]_0.02_)_Σ=1_(Mg_2.94_Fe_0.04_Ti_0.02_)_Σ=3_(Si_2.98_Al_1.02_)O_10_(F_1.24_(OH)_0.76_)_Σ=2_; OH estimated by charge balance
##PIN_ID=L00415
##ORIENTATION=Laser parallel to [-1 0 -1]. Fiducial mark perpendicular to laser is parallel to b* (0 1 0)
94.838, 0.000
96.233, 192.000
97.628, 639.679
99.023, 1577.806
100.418, 2508.234
101.812, 3891.118
103.206, 4971.623
104.600, 6056.605
105.994, 6409.579
107.387, 5926.040
108.781, 5363.780
110.174, 4366.045
111.566, 3890.589
112.959, 3415.977
114.351, 3150.908
115.744, 2991.995
117.136, 2624.917
118.527, 2694.070
119.919, 2238.006
121.310, 2190.424
122.701, 1768.818
124.092, 1782.028
125.482, 1539.371
126.873, 1400.963
128.263, 1367.937
129.653, 1067.146
131.042, 1226.154
132.432, 867.789
133.821, 769.063
135.210, 652.584
136.599, 515.831
137.987, 584.618
139.376, 432.803
140.764, 417.489
142.152, 240.751
143.539, 251.651
144.927, 163.238
146.314, 8.553
147.701, 56.633
149.088, 83.492
150.474, 32.796
151.861, 160.256
153.247, 72.846
154.633, 181.543
156.018, 163.333
157.404, 101.207
158.789, 244.159
160.174, 90.184
161.559, 1.275
162.943, 65.538
164.327, 127.855
165.711, 203.774
167.095, 303.416
168.479, 394.913
169.862, 551.789
171.246, 706.952
172.628, 853.436
174.011, 1105.167
175.394, 1305.074
176.776, 1674.096
178.158, 1781.146
179.540, 2236.125
180.922, 2603.315
182.303, 3202.854
183.684, 4098.788
185.065, 5265.085
186.446, 6841.628
187.826, 8908.413
189.207, 11995.411
190.587, 15142.591
191.967, 20039.947
193.346, 24247.463
194.726, 28035.123
196.105, 30322.916
197.484, 29450.848
198.862, 27278.898
200.241, 22597.072
201.619, 18125.355
202.997, 13973.740
204.375, 10352.225
205.753, 8050.782
207.130, 6069.458
208.507, 4828.275
209.884, 3917.286
211.261, 3156.435
212.638, 2587.725
214.014, 2095.098
215.390, 1853.520
216.766, 1437.974
218.141, 1167.447
219.517, 1017.928
220.892, 698.416
222.267, 601.909
223.642, 444.408
225.016, 379.911
226.391, 235.417
227.765, 266.928
229.139, 216.440
230.512, 162.180
231.886, 148.587
233.259, 93.982
234.632, 81.495
236.005, 61.010
237.377, 46.549
238.749, 85.889
240.122, 98.307
241.493, 12.708
242.865, 260.094
244.237, 98.477
245.608, 129.814
246.979, 180.167
248.350, 174.554
249.720, 247.022
251.090, 157.650
252.461, 248.492
253.830, 170.545
255.200, 167.862
256.570, 172.428
257.939, 51.157
259.308, 3.277
260.677, 65.959
262.045, 170.322
263.414, 215.302
264.782, 422.228
266.150, 601.479
267.517, 976.675
268.885, 1118.996
270.252, 1593.623
271.619, 2122.012
272.986, 2852.057
274.353, 3696.177
275.719, 4568.577
277.085, 5314.629
278.451, 5636.639
279.817, 5700.774
281.182, 5113.064
282.548, 4285.275
283.913, 3655.537
285.278, 2793.824
286.642, 2548.135
288.007, 2059.390
289.371, 1959.501
290.735, 1830.385
292.099, 1664.046
293.462, 1815.676
294.826, 1713.337
296.189, 1899.020
297.552, 1961.708
298.914, 2160.381
300.277, 2474.019
301.639, 2675.613
303.001, 3260.167
304.363, 3558.682
305.724, 4566.161
307.086, 5097.603
308.447, 6089.012
309.808, 7070.386
311.168, 7491.725
312.529, 8223.036
313.889, 8432.413
315.249, 8635.017
316.609, 8727.138
317.969, 8420.179
319.328, 8293.779
320.687, 7997.260
322.046, 7654.423
323.405, 7301.262
324.764, 6881.381
326.122, 6379.772
327.480, 5462.289
328.838, 5065.165
330.196, 4397.033
331.553, 3877.771
332.910, 3414.387
334.267, 2920.661
335.624, 2635.677
336.981, 2238.388
338.337, 2061.808
339.693, 1707.980
341.049, 1486.008
342.405, 1484.977
343.760, 1199.942
345.116, 1313.906
346.471, 1083.865
347.826, 1147.818
349.180, 1009.764
350.535, 955.699
351.889, 1035.625
353.243, 1054.539
354.597, 1082.439
355.950, 1092.327
357.304, 1082.200
358.657, 1208.058
360.010, 1262.899
361.362, 1434.725
362.715, 1544.533
364.067, 1922.323
365.419, 2185.094
366.771, 2571.846
368.123, 3219.578
369.474, 3412.291
370.825, 3842.981
372.176, 3748.650
373.527, 3511.563
374.877, 3055.478
376.228, 2573.414
377.578, 2233.163
378.928, 1742.587
380.277, 1469.504
381.627, 1368.816
382.976, 1073.261
384.325, 1085.709
385.674, 856.197
387.023, 947.243
388.371, 815.612
389.719, 717.147
391.067, 738.632
392.415, 685.219
393.762, 688.203
395.110, 594.438
396.457, 608.959
397.804, 629.430
399.150, 578.456
400.497, 600.709
401.843, 564.472
403.189, 557.846
404.535, 566.009
405.881, 482.131
407.226, 513.730
408.571, 430.039
409.916, 425.376
411.261, 289.030
412.605, 322.976
413.950, 278.102
415.294, 151.188
416.638, 227.539
417.981, 73.640
419.325, 140.486
420.668, 113.952
422.011, 79.416
423.354, 131.173
424.697, 63.304
426.039, 118.119
427.381, 32.099
428.723, 33.720
430.065, 28.204
431.406, 41.943
432.748, 68.706
434.089, 52.001
435.430, 149.416
436.770, 142.535
438.111, 23.600
439.451, 270.745
440.791, 78.627
442.131, 175.538
443.471, 235.319
444.810, 193.059
446.149, 289.758
447.488, 236.417
448.827, 350.034
450.166, 324.611
451.504, 445.148
452.842, 546.646
454.180, 419.106
455.518, 607.527
456.855, 578.911
458.193, 692.256
459.530, 773.562
460.867, 849.830
462.203, 1249.060
463.540, 1251.251
464.876, 1438.404
466.212, 1436.520
467.548, 1285.597
468.883, 1110.637
470.219, 743.638
471.554, 616.602
472.889, 243.529
474.224, 202.418
475.558, 70.280
476.892, 10.910
478.227, 20.835
479.561, 51.480
480.894, 40.877
482.228, 67.353
483.561, 148.929
484.894, 85.375
486.227, 49.359
487.559, 81.806
488.892, 64.920
490.224, 105.980
491.556, 206.995
492.888, 173.975
494.220, 282.920
495.551, 209.832
496.882, 428.712
498.213, 478.562
499.544, 403.382
500.874, 599.173
502.205, 647.938
503.535, 826.675
504.865, 994.385
506.194, 1057.067
507.524, 1365.722
508.853, 1300.349
510.182, 1557.949
511.511, 1562.521
512.840, 1425.067
514.168, 1472.586
515.496, 1249.077
516.824, 1129.540
518.152, 929.977
519.480, 781.387
520.807, 676.720
522.134, 549.765
523.461, 485.466
524.788, 398.772
526.114, 325.052
527.441, 317.312
528.767, 253.184
530.093, 328.760
531.418, 197.961
532.744, 124.135
534.069, 121.294
535.394, 7.424
536.719, 131.506
538.044, 22.584
539.368, 43.621
540.693, 75.618
542.017, 14.583
543.340, 154.506
544.664, 15.590
545.987, 82.259
547.311, 156.078
548.634, 44.871
549.956, 122.629
551.279, 55.640
552.601, 70.019
553.923, 167.647
555.245, 131.251
556.567, 94.834
557.889, 78.405
559.210, 114.956
560.531, 88.492
561.852, 70.056
563.173, 134.634
564.493, 32.785
565.813, 234.854
567.133, 52.512
568.453, 167.213
569.773, 83.953
571.092, 53.726
572.412, 156.563
573.731, 123.435
575.049, 150.382
576.368, 55.373
577.686, 6.022
579.005, 33.473
580.323, 56.553
581.640, 45.574
582.958, 90.902
584.275, 5.460
585.593, 86.528
586.909, 4.871
588.226, 32.492
589.543, 6.271
590.859, 87.838
592.175, 69.602
593.491, 75.344
594.807, 63.833
596.122, 64.877
597.438, 39.358
598.753, 197.956
600.068, 52.494
601.382, 178.927
602.697, 142.475
604.011, 219.998
605.325, 336.513
606.639, 173.013
607.952, 334.498
609.266, 375.967
610.579, 405.421
611.892, 536.860
613.205, 536.286
614.518, 775.696
615.830, 723.094
617.142, 885.479
618.454, 1193.851
619.766, 1112.208
621.078, 1477.553
622.389, 1550.884
623.700, 1833.204
625.011, 2246.510
626.322, 2129.806
627.632, 2699.089
628.943, 2796.382
630.253, 3001.663
631.563, 3264.933
632.872, 3438.192
634.182, 3969.449
635.491, 3957.321
636.800, 4166.988
638.109, 4462.368
639.418, 4368.481
640.726, 4702.962
642.035, 4632.367
643.343, 4604.107
644.651, 4719.833
645.958, 4381.521
647.266, 4832.803
648.573, 4655.022
649.880, 4788.224
651.187, 5131.367
652.494, 4964.557
653.800, 5447.739
655.106, 5270.917
656.412, 5584.087
657.718, 5767.253
659.024, 5980.416
660.329, 6423.572
661.634, 6626.725
662.939, 7099.872
664.244, 7903.014
665.549, 8246.154
666.853, 9349.289
668.157, 9932.417
669.461, 11005.543
670.765, 12398.666
672.069, 13461.786
673.372, 16144.901
674.675, 17588.012
675.978, 20341.119
677.281, 23154.969
678.583, 25478.076
679.886, 29061.172
681.188, 29664.271
682.490, 30797.361
683.792, 31052.002
685.093, 29565.766
686.394, 28928.854
687.696, 26805.438
688.997, 24928.525
690.297, 22734.258
691.598, 20187.047
692.898, 18417.793
694.198, 15596.069
695.498, 13837.272
696.798, 12078.955
698.097, 9891.385
699.397, 8942.486
700.696, 7346.854
701.995, 6506.861
703.293, 5759.284
704.592, 4842.356
705.890, 4564.236
707.188, 3737.141
708.486, 3534.917
709.784, 3147.269
711.081, 2730.344
712.378, 2683.362
713.675, 2375.994
714.972, 2312.526
716.269, 2105.442
717.565, 1928.890
718.862, 1970.374
720.158, 1837.374
721.453, 1753.412
722.749, 1768.500
724.045, 1641.096
725.340, 1685.188
726.635, 1657.926
727.930, 1627.865
729.224, 1600.957
730.519, 1606.026
731.813, 1626.255
733.107, 1579.724
734.401, 1601.174
735.694, 1520.428
736.988, 1515.290
738.281, 1673.755
739.574, 1491.696
740.867, 1454.354
742.160, 1588.308
743.452, 1375.171
744.744, 1598.734
746.036, 1493.052
747.328, 1438.917
748.620, 1570.094
749.911, 1212.073
751.202, 1532.315
752.493, 1309.571
753.784, 1226.693
755.075, 1308.042
756.365, 1101.313
757.655, 1333.678
758.945, 1065.046
760.235, 1027.417
761.525, 1186.792
762.814, 835.170
764.103, 1014.551
765.392, 1044.936
766.681, 916.324
767.969, 978.716
769.258, 846.111
770.546, 984.959
771.834, 890.362
773.122, 920.770
774.409, 1021.235
775.697, 927.650
776.984, 1046.137
778.271, 1075.562
779.558, 906.989
780.844, 1233.699
782.131, 1069.136
783.417, 1227.661
784.703, 1222.107
785.989, 1126.558
787.274, 1409.250
788.560, 1142.709
789.845, 1313.183
791.130, 1399.685
792.415, 1246.208
793.699, 1466.514
794.983, 1319.112
796.268, 1492.992
797.552, 1328.697
798.835, 1144.414
800.119, 1335.688
801.402, 960.453
802.686, 1057.232
803.969, 971.021
805.251, 727.813
806.534, 845.611
807.816, 726.414
809.098, 631.220
810.380, 696.031
811.662, 468.847
812.944, 617.668
814.225, 378.493
815.506, 449.323
816.787, 579.158
818.068, 272.998
819.349, 402.842
820.629, 447.691
821.909, 163.545
823.189, 437.405
824.469, 133.268
825.749, 261.137
827.028, 238.011
828.307, 157.890
829.586, 274.773
830.865, 26.338
832.144, 102.548
833.422, 75.438
834.700, 6.335
835.978, 127.236
837.256, 44.858
838.534, 22.962
839.811, 38.932
841.088, 79.170
842.365, 139.704
843.642, 69.418
844.919, 19.441
846.195, 48.310
847.472, 107.805
848.748, 62.046
850.023, 9.911
851.299, 4.539
852.575, 75.858
853.850, 36.379
855.125, 129.551
856.400, 108.504
857.674, 86.464
858.949, 330.436
860.223, 45.417
861.497, 191.407
862.771, 227.430
864.045, 42.460
865.318, 255.497
866.591, 46.459
867.864, 129.574
869.137, 157.620
870.410, 77.327
871.682, 23.696
872.955, 24.269
874.227, 132.238
875.499, 153.752
876.770, 100.252
878.042, 94.707
879.313, 46.678
880.584, 72.345
881.855, 167.608
883.126, 113.431
884.396, 147.481
885.667, 22.414
886.937, 43.355
888.207, 200.311
889.476, 25.297
890.746, 219.309
892.015, 159.329
893.284, 51.399
894.553, 253.482
895.822, 97.587
897.090, 232.707
898.359, 207.833
899.627, 152.016
900.895, 332.227
902.163, 216.442
903.430, 190.685
904.698, 325.933
905.965, 94.185
907.232, 266.442
908.499, 160.703
909.765, 174.986
911.032, 291.273
912.298, 97.563
913.564, 289.860
914.830, 193.161
916.095, 98.468
917.361, 210.777
918.626, 38.091
919.891, 89.414
921.156, 253.739
922.420, 5.930
923.685, 263.401
924.949, 83.735
926.213, 6.075
927.477, 213.416
928.740, 5.761
930.004, 167.110
931.267, 132.464
932.530, 0.180
933.793, 236.180
935.056, 86.458
936.318, 170.863
937.581, 90.188
938.843, 1.516
940.104, 194.845
941.366, 40.179
942.628, 50.515
943.889, 86.856
945.150, 142.800
946.411, 208.472
947.672, 38.254
948.932, 38.000
950.193, 185.259
951.453, 24.481
952.713, 239.766
953.973, 117.016
955.232, 46.268
956.491, 292.520
957.751, 16.773
959.010, 175.029
960.268, 217.288
961.527, 56.549
962.785, 311.809
964.044, 179.073
965.302, 157.339
966.559, 351.605
967.817, 99.872
969.075, 255.141
970.332, 249.409
971.589, 300.680
972.846, 533.951
974.102, 226.223
975.359, 477.495
976.615, 554.770
977.871, 384.043
979.127, 611.317
980.383, 475.593
981.638, 531.867
982.893, 659.402
984.149, 553.678
985.404, 748.954
986.658, 735.230
987.913, 714.509
989.167, 939.245
990.421, 629.851
991.675, 778.129
992.929, 874.260
994.183, 638.539
995.436, 1068.898
996.689, 837.952
997.942, 1028.231
999.195, 1258.766
1000.448, 1313.045
1001.700, 1717.325
1002.952, 1787.656
1004.204, 1721.936
1005.456, 1858.238
1006.708, 1512.877
1007.959, 1617.154
1009.210, 1672.514
1010.461, 1436.790
1011.712, 1711.398
1012.963, 1466.332
1014.213, 1420.604
1015.464, 1535.161
1016.714, 1129.758
1017.964, 1352.113
1019.214, 1227.354
1020.463, 1061.619
1021.712, 1362.131
1022.962, 1046.889
1024.210, 1270.219
1025.459, 1447.849
1026.708, 1212.491
1027.956, 1771.530
1029.204, 1767.145
1030.452, 1981.394
1031.700, 2542.166
1032.948, 2426.910
1034.195, 2855.004
1035.442, 3012.716
1036.689, 2957.353
1037.936, 2901.591
1039.183, 2351.266
1040.429, 2425.500
1041.676, 2190.040
1042.922, 1694.752
1044.168, 1798.983
1045.413, 1476.914
1046.659, 1421.897
1047.904, 1586.140
1049.149, 1231.341
1050.394, 1405.576
1051.639, 1400.061
1052.884, 1194.926
1054.128, 1459.146
1055.372, 1263.592
1056.616, 1297.812
1057.860, 1332.026
1059.104, 1170.222
1060.347, 1494.425
1061.590, 1318.814
1062.833, 1263.656
1064.076, 1577.867
1065.319, 1352.490
1066.561, 1516.723
1067.803, 1580.948
1069.046, 1446.404
1070.287, 1860.630
1071.529, 1684.855
1072.771, 1759.231
1074.012, 2043.441
1075.253, 1787.919
1076.494, 2112.079
1077.735, 2186.285
1078.975, 2211.339
1080.216, 2505.580
1081.456, 2529.812
1082.696, 2684.279
1083.936, 3138.502
1085.175, 2947.769
1086.415, 3441.988
1087.654, 3366.201
1088.893, 3220.664
1090.132, 3714.869
1091.371, 3469.067
1092.609, 3793.775
1093.847, 3867.961
1095.085, 3513.396
1096.323, 3927.566
1097.561, 3729.492
1098.799, 3643.971
1100.036, 3818.119
1101.273, 3580.740
1102.510, 3665.152
1103.747, 3609.301
1104.983, 3303.443
1106.220, 3467.590
1107.456, 3121.729
1108.692, 2866.111
1109.928, 2850.234
1111.163, 2254.352
1112.399, 2288.812
1113.634, 1912.912
1114.869, 1577.004
1116.104, 1711.089
1117.339, 1315.165
1118.573, 1319.232
1119.808, 1223.291
1121.042, 987.342
1122.276, 1321.383
1123.509, 1205.416
1124.743, 829.440
1125.976, 833.454
1127.210, 487.461
1128.443, 403.457
1129.675, 505.447
1130.908, 215.428
1132.141, 423.404
1133.373, 179.373
1134.605, 231.332
1135.837, 300.283
1137.068, 219.225
1138.300, 237.165
1139.531, 184.101
1140.762, 28.026
1141.993, 279.954
1143.224, 181.874
1144.455, 0.797
1145.685, 406.771
1146.915, 12.336
1148.145, 168.557
1149.375, 194.439
1150.605, 84.688
1151.834, 219.118
1153.063, 38.086
1154.292, 36.677
1155.521, 251.495
1156.750, 1.768
1157.978, 150.944
1159.207, 46.660
1160.435, 6.346
1161.663, 286.061
1162.891, 60.716
1164.118, 51.356
1165.345, 212.981
1166.573, 1.604
1167.800, 154.202
1169.026, 187.788
1170.253, 25.378
1171.480, 202.951
1172.706, 13.516
1173.932, 44.093
1175.158, 125.654
1176.383, 2.775
1177.609, 157.769
1178.834, 122.298
1180.059, 31.829
1181.284, 263.342
1182.509, 35.131
1183.734, 49.352
1184.958, 273.828
1186.182, 65.722
1187.406, 150.667
1188.630, 75.340
1189.854, 145.304
1191.077, 281.950
1192.301, 35.246
1193.524, 18.945
1194.747, 166.828
1195.969, 150.693
1197.192, 173.352
1198.414, 96.703
1199.636, 29.782
1200.858, 342.774
1202.080, 108.102
1203.302, 231.060
1204.523, 294.018
1205.744, 38.045
1206.966, 289.833
1208.186, 128.807
1209.407, 41.650
1210.628, 244.473
1211.848, 85.230
1213.068, 198.019
1214.288, 220.952
1215.508, 16.571
1216.727, 409.300
1217.947, 203.234
1219.166, 55.963
1220.385, 418.646
1221.604, 125.363
1222.822, 248.014
1224.041, 350.647
1225.259, 44.793
1226.477, 347.389
1227.695, 289.985
1228.913, 83.715
1230.130, 406.264
1231.348, 169.331
1232.565, 373.938
1233.782, 466.456
1234.999, 91.062
1236.215, 363.547
1237.432, 556.019
1238.648, 89.277
1239.864, 561.722
1241.080, 294.152
1242.296, 266.839
1243.511, 489.281
1244.726, 131.859
1245.942, 384.284
1247.156, 376.693
1248.371, 154.979
1249.586, 547.367
1250.800, 219.742
1252.014, 304.677
1253.228, 527.026
1254.442, 159.863
1255.656, 412.372
1256.869, 444.678
1258.083, 137.067
1259.296, 519.344
1260.509, 391.606
1261.722, 244.108
1262.934, 476.343
1264.147, 328.562
1265.359, 480.766
1266.571, 552.957
1267.783, 255.162
1268.994, 697.325
1270.206, 519.473
1271.417, 391.606
1272.628, 703.725
1273.839, 425.830
1275.050, 508.580
1276.260, 660.658
1277.471, 262.721
1278.681, 575.330
1279.891, 607.366
1281.101, 349.678
1282.310, 591.686
1283.520, 253.681
1284.729, 425.855
1285.938, 677.814
1287.147, 279.380
1288.356, 471.607
1289.564, 413.488
1290.773, 214.582
1291.981, 656.421
1293.189, 336.619
1294.397, 318.388
1295.604, 660.146
1296.812, 335.613
1298.019, 517.262
1299.226, 485.567
1300.433, 206.821
1301.640, 608.388
1302.846, 458.767
1304.053, 220.213
1305.259, 641.301
1306.465, 212.023
1307.671, 433.372
1308.876, 504.419
1310.082, 405.400
1311.287, 656.692
1312.492, 616.990
1313.697, 368.248
1314.902, 629.433
1316.106, 410.073
1317.310, 611.191
1318.515, 941.670
1319.719, 352.358
1320.922, 613.362
1322.126, 593.034
1323.329, 274.047
1324.533, 614.964
1325.736, 405.438
1326.939, 306.389
1328.141, 563.837
1329.344, 214.333
1330.546, 465.197
1331.748, 450.601
1332.950, 31.416
1334.152, 361.892
1335.354, 332.169
1336.555, 37.098
1337.757, 399.905
1338.958, 59.833
1340.159, 120.475
1341.359, 320.132
1342.560, 110.733
1343.760, 171.062
1344.960, 220.986
1346.160, 8.467
1347.360, 301.832
1348.560, 182.338
1349.759, 182.828
1350.959, 279.320
1352.158, 70.216
1353.357, 220.042
1354.555, 329.831
1355.754, 99.766
1356.952, 210.210
1358.151, 140.692
1359.349, 18.960
1360.546, 380.146
1361.744, 11.928
1362.941, 172.251
1364.139, 381.969
1365.336, 37.701
1366.533, 242.361
1367.730, 252.762
1368.926, 156.900
1370.123, 222.533
1371.319, 174.257
1372.515, 14.472
1373.711, 234.166
1374.906, 64.364
1376.102, 5.871
1377.297, 433.839
1378.492, 6.579
1379.687, 324.257
1380.882, 295.032
1382.077, 36.303
1383.271, 517.549
1384.465, 198.435
1385.659, 119.339
1386.853, 440.457
1388.047, 141.526
1389.240, 242.295
1390.434, 482.923
1391.627, 66.095
1392.820, 344.858
1394.013, 375.789
1395.205, 13.308
1396.398, 497.570
1397.590, 68.423
1398.782, 129.245
1399.974, 460.037
1401.166, 150.798
1402.357, 281.526
1403.549, 372.228
1404.740, 112.901
1405.931, 433.546
1407.122, 374.088
1408.313, 174.708
1409.503, 475.337
1410.693, 165.997
1411.883, 206.565
1413.073, 487.202
1414.263, 197.782
1415.453, 348.413
1416.642, 519.032
1417.831, 49.648
1419.020, 360.252
1420.209, 270.848
1421.398, 61.440
1422.587, 432.039
1423.775, 102.631
1424.963, 203.237
1426.151, 523.847
1427.339, 122.562
1428.526, 283.296
1429.714, 416.989
1430.901, 86.117
1432.088, 556.503
1433.275, 417.302
1434.462, 244.349
1435.648, 565.186
1436.835, 395.769
1438.021, 286.582
1439.207, 723.543
1440.393, 398.823
1441.579, 737.208
1442.764, 907.694
1443.949, 550.734
1445.135, 979.468
1446.320, 829.527
1447.504, 607.336
1448.689, 1192.217
1449.873, 867.929
1451.058, 857.772
1452.242, 1225.904
1453.426, 865.135
1454.609, 1064.494
1455.793, 1344.104
1456.976, 770.524
1458.159, 1193.918
1459.342, 1121.822
1460.525, 700.349
1461.708, 1199.000
1462.890, 917.176
1464.073, 785.885
1465.255, 1124.507
1466.437, 702.958
1467.619, 721.387
1468.800, 1009.707
1469.982, 366.064
1471.163, 822.493
1472.344, 689.506
1473.525, 307.205
1474.706, 834.167
1475.886, 620.723
1477.066, 298.157
1478.247, 1005.505
1479.427, 332.947
1480.607, 460.689
1481.786, 738.404
1482.966, 376.528
1484.145, 704.910
1485.324, 533.475
1486.503, 242.045
1487.682, 660.576
1488.860, 489.272
1490.039, 188.444
1491.217, 637.666
1492.395, 306.940
1493.573, 206.259
1494.751, 555.646
1495.928, 125.265
1497.106, 335.130
1498.283, 375.278
1499.460, 25.743
1500.637, 326.539
1501.814, 267.686
1502.990, 20.823
1504.166, 451.050
1505.342, 253.357
1506.518, 196.126
1507.694, 429.456
1508.870, 63.449
1510.045, 356.382
1511.221, 491.743
1512.396, 8.678
1513.571, 363.827
1514.745, 413.565
1515.920, 122.542
1517.094, 234.316
1518.269, 253.027
1519.443, 0.000
##END=



