##NAMES=Fluorapatite
##RRUFFID=R050369
##IDEAL CHEMISTRY=Ca_5_(PO_4_)_3_F
##LOCALITY=Russia
##OWNER=RRUFF
##SOURCE=Eugene Schlepp
##DESCRIPTION=Blueish-green hexagonal prismatic crystal
##STATUS=The identification of this mineral has been confirmed by X-ray diffraction and chemical analysis
##URL=rruff.info/R050369
##MEASURED CHEMISTRY=(Ca_0.99_Na_0.01_)_5_((P_0.98_S_0.02_)O_4_)_3_F_1.00_
##PIN_ID=L01431
##ORIENTATION=Laser parallel to -c* (0 0 -1). Fiducial mark perpendicular to laser is parallel to b [0 1 0]
107.0470, 0.0000000E+00
108.2800, 110.8772
109.5120, 96.10498
110.7440, 3.093506
111.9760, 59.30713
113.2080, 2.165771
114.4400, 60.03027
115.6710, 80.56787
116.9030, 93.20947
118.1340, 108.7788
119.3650, 78.13672
120.5960, 77.17236
121.8270, 54.79297
123.0580, 74.92578
124.2880, 76.51367
125.5190, 89.51318
126.7490, 143.8855
127.9790, 150.5935
129.2090, 175.6045
130.4390, 191.8877
131.6680, 334.4170
132.8980, 440.1682
134.1270, 526.1206
135.3560, 632.2554
136.5850, 828.5564
137.8140, 979.0168
139.0430, 1157.633
140.2710, 1252.403
141.5000, 1292.330
142.7280, 1213.403
143.9560, 1009.615
145.1840, 890.9529
146.4120, 601.4006
147.6390, 523.9470
148.8670, 463.5823
150.0940, 434.2974
151.3210, 389.0845
152.5490, 407.9382
153.7750, 453.8518
155.0020, 475.6863
156.2290, 568.8394
157.4550, 583.9043
158.6810, 670.0120
159.9080, 729.1587
161.1340, 702.3418
162.3590, 708.5576
163.5850, 599.8040
164.8110, 627.0820
166.0360, 486.3938
167.2610, 489.8120
168.4860, 535.3491
169.7110, 533.9329
170.9360, 524.5557
172.1610, 428.3447
173.3850, 395.3096
174.6100, 365.3467
175.8340, 253.4028
177.0580, 261.4980
178.2820, 274.6907
179.5050, 170.9092
180.7290, 83.12402
181.9520, 130.3120
183.1760, 114.4707
184.3990, 163.6123
185.6220, 36.74683
186.8450, 100.8643
188.0670, 78.96460
189.2900, 91.05322
190.5120, 88.13184
191.7340, 44.19824
192.9560, 100.2542
194.1780, 68.30029
195.4000, 77.33765
196.6220, 42.36670
197.8430, 63.38818
199.0640, 119.4026
200.2860, 60.40991
201.5070, 76.41064
202.7270, 126.4045
203.9480, 114.3921
205.1690, 54.37329
206.3890, 77.34790
207.6090, 31.31592
208.8290, 152.2776
210.0490, 164.2327
211.2690, 124.1812
212.4890, 143.1221
213.7080, 162.0562
214.9280, 170.9827
216.1470, 144.9016
217.3660, 147.8125
218.5850, 71.71484
219.8030, 153.6086
221.0220, 88.60254
222.2400, 147.6360
223.4590, 100.6458
224.6770, 151.8123
225.8950, 134.1897
227.1120, 139.3496
228.3300, 247.4041
229.5480, 273.7659
230.7650, 262.6204
231.9820, 305.9885
233.1990, 355.3438
234.4160, 287.4238
235.6330, 493.8711
236.8490, 372.5508
238.0660, 457.3955
239.2820, 417.6897
240.4980, 319.0581
241.7140, 308.3628
242.9300, 336.7852
244.1460, 227.5054
245.3610, 250.2043
246.5770, 143.2627
247.7920, 173.7786
249.0070, 186.8264
250.2220, 119.6155
251.4370, 153.5793
252.6510, 138.6475
253.8660, 167.8882
255.0800, 239.0720
256.2940, 210.2637
257.5080, 372.5134
258.7220, 387.2461
259.9360, 455.8845
261.1490, 498.6250
262.3630, 601.6660
263.5760, 693.5454
264.7890, 793.0571
266.0020, 871.5503
267.2150, 1004.156
268.4270, 983.7012
269.6400, 960.4819
270.8520, 979.1494
272.0640, 798.9912
273.2760, 674.6267
274.4880, 659.2803
275.7000, 494.9443
276.9120, 430.6191
278.1230, 313.3018
279.3340, 325.9912
280.5450, 247.6875
281.7560, 299.3887
282.9670, 231.0935
284.1780, 298.8018
285.3880, 180.5117
286.5980, 110.2234
287.8090, 214.9355
289.0190, 231.6475
290.2290, 214.3584
291.4380, 176.0679
292.6480, 117.7749
293.8570, 168.4792
295.0670, 167.1802
296.2760, 243.8774
297.4850, 210.5706
298.6930, 321.2588
299.9020, 342.9421
301.1110, 334.6201
302.3190, 315.2922
303.5270, 405.9585
304.7350, 440.6182
305.9430, 452.2717
307.1510, 492.9182
308.3580, 496.5576
309.5660, 568.1895
310.7730, 556.8140
311.9800, 514.4302
313.1870, 548.0383
314.3940, 496.6372
315.6010, 479.2266
316.8070, 391.8062
318.0130, 362.3755
319.2200, 323.7622
320.4260, 258.4790
321.6310, 270.0127
322.8370, 194.5339
324.0430, 196.0427
325.2480, 190.5383
326.4540, 85.02075
327.6590, 190.4897
328.8640, 105.9460
330.0680, 141.3887
331.2730, 74.83984
332.4780, 83.25659
333.6820, 42.65991
334.8860, 134.0498
336.0900, 35.55688
337.2940, 134.0916
338.4980, 40.44092
339.7010, 73.77588
340.9050, 10.09717
342.1080, 42.70947
343.3110, 14.77295
344.5140, 12.39062
345.7170, 37.11914
346.9200, 9.888672
348.1220, 11.67627
349.3240, 0.3251950
350.5270, 41.69824
351.7290, 38.86279
352.9310, 6.745117
354.1320, 18.82178
355.3340, 12.33594
356.5350, 27.61523
357.7370, 10.27734
358.9380, 26.71387
360.1390, 5.815918
361.3400, 85.68311
362.5400, 42.67969
363.7410, 102.0513
364.9410, 67.23047
366.1410, 56.42871
367.3410, 47.58203
368.5410, 19.55566
369.7410, 22.58252
370.9400, 51.34668
372.1400, 25.55469
373.3390, 6.510254
374.5380, 42.54102
375.7370, 5.527832
376.9360, 24.66602
378.1350, 0.8203130
379.3330, 21.06299
380.5310, 28.84814
381.7300, 14.08936
382.9280, 22.92773
384.1260, 63.94092
385.3230, 5.531738
386.5210, 26.46436
387.7180, 54.18604
388.9160, 119.6108
390.1130, 46.47168
391.3100, 119.0337
392.5060, 83.72852
393.7030, 44.46094
394.9000, 32.11963
396.0960, 73.88477
397.2920, 1.455566
398.4880, 107.7964
399.6840, 106.1260
400.8800, 46.43506
402.0750, 24.73730
403.2710, 44.84766
404.4660, 39.28516
405.6610, 15.07617
406.8560, 35.25391
408.0510, 127.6421
409.2450, 165.4297
410.4400, 120.8315
411.6340, 195.4727
412.8280, 98.45557
414.0220, 130.9580
415.2160, 94.34961
416.4100, 213.6079
417.6030, 191.9238
418.7970, 247.8198
419.9900, 244.0703
421.1830, 344.9287
422.3760, 229.7690
423.5690, 419.8311
424.7610, 344.6382
425.9540, 372.4272
427.1460, 492.1982
428.3380, 539.9487
429.5300, 586.6797
430.7220, 654.3911
431.9140, 749.0835
433.1050, 785.7563
434.2970, 792.4097
435.4880, 1017.043
436.6790, 1073.656
437.8700, 1219.248
439.0610, 1380.818
440.2510, 1539.368
441.4420, 1678.899
442.6320, 1782.409
443.8220, 2018.898
445.0120, 2067.368
446.2020, 2087.816
447.3910, 2178.246
448.5810, 2092.656
449.7700, 2096.044
450.9600, 2046.412
452.1490, 1813.756
453.3370, 1611.080
454.5260, 1400.381
455.7150, 1226.660
456.9030, 1099.917
458.0910, 949.1533
459.2800, 824.1533
460.4670, 659.5586
461.6550, 617.7271
462.8430, 546.8730
464.0300, 510.9971
465.2180, 545.1001
466.4050, 369.1807
467.5920, 423.2388
468.7790, 327.2754
469.9650, 305.2896
471.1520, 219.2837
472.3380, 229.2559
473.5250, 172.2065
474.7110, 186.1353
475.8970, 191.0415
477.0820, 186.8413
478.2680, 147.7051
479.4540, 138.4204
480.6390, 222.2363
481.8240, 184.9146
483.0090, 224.6841
484.1940, 108.1792
485.3780, 127.7803
486.5630, 155.3462
487.7470, 177.0181
488.9320, 214.2725
490.1160, 218.4878
491.3000, 219.3491
492.4830, 205.3408
493.6670, 186.7432
494.8500, 122.5962
496.0340, 76.63574
497.2170, 86.16016
498.4000, 11.32080
499.5820, 50.83008
500.7650, 25.69580
501.9480, 83.45459
503.1300, 72.11035
504.3120, 46.56396
505.4940, 41.76904
506.6760, 95.41748
507.8580, 111.7124
509.0390, 7.729980
510.2210, 112.2344
511.4020, 9.966309
512.5830, 3.980469
513.7640, 99.82520
514.9450, 97.88428
516.1250, 101.4609
517.3060, 107.2144
518.4860, 66.03906
519.6660, 57.62842
520.8460, 36.94141
522.0260, 11.90088
523.2060, 14.58154
524.3850, 54.00098
525.5650, 49.01318
526.7440, 13.40967
527.9230, 32.43066
529.1020, 43.48047
530.2810, 38.28564
531.4590, 43.30322
532.6380, 19.44238
533.8160, 70.06396
534.9940, 7.481445
536.1720, 65.68408
537.3500, 35.87109
538.5270, 77.26660
539.7050, 125.7700
540.8820, 126.0488
542.0590, 127.8301
543.2360, 125.5688
544.4130, 0.4204100
545.5900, 84.49805
546.7660, 15.35986
547.9430, 18.60352
549.1190, 89.85791
550.2950, 15.02979
551.4710, 78.17969
552.6470, 27.68604
553.8220, 47.03418
554.9980, 41.35205
556.1730, 63.30859
557.3480, 90.76172
558.5230, 6.053711
559.6980, 173.1919
560.8730, 79.32031
562.0470, 232.5059
563.2220, 212.9141
564.3960, 113.3535
565.5700, 185.3506
566.7440, 320.6699
567.9170, 220.0229
569.0910, 359.0317
570.2640, 516.1582
571.4380, 553.1846
572.6110, 637.3530
573.7840, 837.4854
574.9570, 1066.550
576.1290, 1296.599
577.3020, 1690.491
578.4740, 2117.196
579.6460, 2673.969
580.8180, 3152.742
581.9900, 3177.879
583.1620, 2792.658
584.3330, 2366.582
585.5040, 1745.497
586.6760, 1259.321
587.8470, 1011.389
589.0180, 989.2739
590.1880, 960.1738
591.3590, 814.6353
592.5290, 898.1489
593.7000, 736.5005
594.8700, 525.1304
596.0400, 543.3877
597.2090, 554.1128
598.3790, 481.5625
599.5490, 583.9023
600.7180, 708.0767
601.8870, 796.4331
603.0560, 1098.683
604.2250, 1273.023
605.3940, 1748.567
606.5620, 1948.766
607.7300, 2176.108
608.8990, 2163.476
610.0670, 1653.824
611.2350, 1442.411
612.4020, 1175.848
613.5700, 890.2646
614.7370, 923.4146
615.9050, 1020.726
617.0720, 995.9912
618.2390, 829.3711
619.4060, 717.3916
620.5720, 502.2539
621.7390, 269.0601
622.9050, 414.0005
624.0710, 357.7935
625.2370, 212.3994
626.4030, 209.8926
627.5690, 233.9429
628.7340, 124.7715
629.9000, 142.6313
631.0650, 108.8276
632.2300, 125.6030
633.3950, 187.7520
634.5600, 50.63428
635.7240, 92.24951
636.8890, 94.59668
638.0530, 168.6641
639.2170, 88.93652
640.3810, 71.86670
641.5450, 147.4458
642.7080, 103.6597
643.8720, 119.1152
645.0350, 114.1133
646.1980, 62.10645
647.3610, 115.6987
648.5240, 203.5122
649.6870, 182.6396
650.8490, 193.0825
652.0120, 209.5303
653.1740, 162.1753
654.3360, 68.03857
655.4980, 120.4590
656.6600, 99.06299
657.8210, 225.2925
658.9830, 182.2549
660.1440, 116.1885
661.3050, 54.93066
662.4660, 121.6294
663.6270, 79.75537
664.7870, 27.65186
665.9480, 184.5449
667.1080, 67.37256
668.2680, 311.7847
669.4280, 186.9189
670.5880, 218.5410
671.7480, 199.3555
672.9070, 204.0459
674.0670, 125.4800
675.2260, 144.6758
676.3850, 120.2222
677.5440, 107.6968
678.7030, 89.58008
679.8610, 6.760254
681.0200, 31.74170
682.1780, 90.66602
683.3360, 9.552734
684.4940, 155.3813
685.6520, 194.1602
686.8090, 47.37598
687.9670, 66.77686
689.1240, 145.5454
690.2810, 163.5469
691.4380, 43.46826
692.5950, 111.4199
693.7520, 24.72461
694.9080, 153.0913
696.0650, 6.050293
697.2210, 115.7031
698.3770, 93.88086
699.5330, 122.6035
700.6880, 102.8433
701.8440, 46.76465
702.9990, 12.23340
704.1550, 132.5166
705.3100, 50.04102
706.4650, 35.94189
707.6190, 122.2974
708.7740, 88.34082
709.9290, 106.5024
711.0830, 66.58154
712.2370, 69.36670
713.3910, 79.77832
714.5450, 77.90674
715.6980, 112.5967
716.8520, 151.7769
718.0050, 129.7026
719.1580, 123.4160
720.3110, 33.29883
721.4640, 110.0278
722.6170, 69.31689
723.7700, 65.10791
724.9220, 80.52246
726.0740, 25.90723
727.2260, 53.25928
728.3780, 43.99170
729.5300, 142.2793
730.6810, 123.6436
731.8330, 155.9727
732.9840, 83.17480
734.1350, 178.3467
735.2860, 47.49121
736.4370, 106.9736
737.5880, 126.9238
738.7380, 162.3604
739.8880, 112.3877
741.0390, 131.4824
742.1890, 103.5986
743.3380, 48.67090
744.4880, 124.6758
745.6380, 83.55371
746.7870, 71.63281
747.9360, 69.45020
749.0850, 20.32227
750.2340, 37.15527
751.3830, 35.52344
752.5310, 87.70117
753.6800, 47.36230
754.8280, 51.99121
755.9760, 35.42090
757.1240, 79.14355
758.2720, 103.3057
759.4190, 154.8711
760.5670, 116.4062
761.7140, 145.0010
762.8610, 110.4199
764.0080, 150.1807
765.1550, 52.18945
766.3020, 121.5215
767.4480, 113.6445
768.5950, 36.86328
769.7410, 122.0830
770.8870, 36.11621
772.0330, 83.45996
773.1780, 82.17285
774.3240, 94.24609
775.4690, 163.0928
776.6140, 160.1523
777.7590, 139.4668
778.9040, 36.47852
780.0490, 96.48438
781.1940, 33.19629
782.3380, 87.13086
783.4820, 79.84961
784.6260, 65.57422
785.7700, 180.2217
786.9140, 14.27930
788.0580, 63.41602
789.2010, 117.2461
790.3450, 46.29004
791.4880, 173.1162
792.6310, 42.40723
793.7730, 24.13281
794.9160, 75.48828
796.0590, 92.34863
797.2010, 83.90918
798.3430, 96.24902
799.4850, 43.30371
800.6270, 22.38867
801.7690, 63.68457
802.9100, 51.50586
804.0520, 175.8721
805.1930, 127.8242
806.3340, 132.1484
807.4750, 118.4600
808.6160, 45.75879
809.7560, 134.0273
810.8970, 148.2773
812.0370, 59.37793
813.1770, 3.463867
814.3170, 83.54688
815.4570, 33.47852
816.5960, 10.69531
817.7360, 145.3730
818.8750, 41.87891
820.0140, 41.60059
821.1530, 85.89355
822.2920, 27.83301
823.4310, 46.74902
824.5690, 0.8193360
825.7070, 85.32812
826.8460, 55.11523
827.9840, 176.9199
829.1220, 79.23242
830.2590, 11.19434
831.3970, 18.99805
832.5340, 101.6982
833.6710, 103.3057
834.8080, 1.904297
835.9450, 36.62695
837.0820, 28.70312
838.2190, 9.076172
839.3550, 170.8643
840.4910, 142.7236
841.6270, 21.97461
842.7630, 147.8525
843.8990, 67.35156
845.0350, 96.72559
846.1700, 60.64551
847.3060, 72.62988
848.4410, 75.42773
849.5760, 36.21582
850.7100, 36.48047
851.8450, 13.20898
852.9800, 20.66113
854.1140, 61.66992
855.2480, 104.5615
856.3820, 56.40234
857.5160, 84.83008
858.6500, 150.5664
859.7830, 99.11133
860.9170, 159.6162
862.0500, 145.1631
863.1830, 169.4199
864.3160, 34.81152
865.4480, 202.1387
866.5810, 106.8574
867.7130, 107.4746
868.8460, 205.2070
869.9780, 175.6152
871.1100, 333.3477
872.2410, 112.5645
873.3730, 86.00977
874.5050, 5.481445
875.6360, 158.1436
876.7670, 101.5391
877.8980, 88.99707
879.0290, 91.31738
880.1590, 99.38867
881.2900, 128.6875
882.4200, 65.93555
883.5500, 158.0420
884.6800, 99.12012
885.8100, 2.084961
886.9400, 85.80859
888.0690, 125.6768
889.1990, 141.7441
890.3280, 136.1553
891.4570, 94.49219
892.5860, 76.20020
893.7140, 11.92480
894.8430, 18.98340
895.9710, 97.13086
897.1000, 75.06641
898.2280, 148.1035
899.3560, 19.98047
900.4830, 92.99609
901.6110, 111.5186
902.7380, 124.3076
903.8660, 92.04883
904.9930, 49.41309
906.1200, 167.1553
907.2460, 61.48340
908.3730, 87.03418
909.5000, 34.56641
910.6260, 83.13379
911.7520, 132.9746
912.8780, 172.7891
914.0040, 115.5039
915.1290, 74.73926
916.2550, 195.2490
917.3800, 47.43164
918.5050, 86.87500
919.6300, 106.7246
920.7550, 91.51562
921.8800, 32.20312
923.0040, 13.09375
924.1290, 69.08203
925.2530, 12.47168
926.3770, 56.53223
927.5010, 206.1270
928.6250, 23.13281
929.7480, 153.9307
930.8720, 15.08398
931.9950, 130.2949
933.1180, 111.4600
934.2410, 163.6660
935.3640, 280.6182
936.4860, 161.1436
937.6090, 272.1855
938.7310, 215.1699
939.8530, 284.6377
940.9750, 407.9229
942.0970, 602.2168
943.2180, 488.4434
944.3400, 878.3516
945.4610, 756.6250
946.5820, 963.9482
947.7030, 1285.892
948.8240, 1602.520
949.9450, 1654.548
951.0650, 1894.305
952.1860, 2389.458
953.3060, 3081.729
954.4260, 3998.544
955.5460, 5144.353
956.6650, 7237.355
957.7850, 9984.030
958.9040, 13749.85
960.0230, 18468.61
961.1420, 25368.62
962.2610, 33238.50
963.3800, 42164.79
964.4990, 48819.23
965.6170, 50347.44
966.7350, 44745.02
967.8530, 34045.06
968.9710, 23524.50
970.0890, 15852.30
971.2070, 10931.92
972.3240, 7367.605
973.4410, 5171.953
974.5580, 3636.184
975.6750, 2609.392
976.7920, 1875.046
977.9090, 1493.267
979.0250, 1060.243
980.1410, 808.4121
981.2580, 727.4912
982.3740, 522.7891
983.4890, 475.3174
984.6050, 313.0664
985.7200, 227.8174
986.8360, 289.2227
987.9510, 329.8525
989.0660, 256.8096
990.1810, 219.8398
991.2950, 111.6680
992.4100, 258.6152
993.5240, 176.7803
994.6390, 63.78809
995.7530, 205.9482
996.8660, 187.1064
997.9800, 33.26172
999.0940, 81.00586
1000.207, 185.1582
1001.320, 92.20410
1002.433, 313.2529
1003.546, 358.3965
1004.659, 473.5400
1005.772, 490.6787
1006.884, 689.7529
1007.996, 951.7168
1009.108, 1112.513
1010.220, 1207.645
1011.332, 1027.171
1012.444, 1044.152
1013.555, 1052.145
1014.666, 783.1758
1015.777, 725.3018
1016.888, 526.1963
1017.999, 402.3311
1019.110, 353.3809
1020.220, 287.4385
1021.331, 350.4404
1022.441, 309.5781
1023.551, 321.7158
1024.661, 472.8545
1025.770, 548.1797
1026.880, 675.1816
1027.989, 764.7148
1029.098, 1002.814
1030.207, 1210.918
1031.316, 1486.934
1032.425, 1850.097
1033.533, 1781.891
1034.642, 1773.410
1035.750, 1608.578
1036.858, 1353.775
1037.966, 1015.924
1039.073, 779.9141
1040.181, 616.1348
1041.288, 602.1914
1042.396, 350.3643
1043.503, 493.3350
1044.610, 438.5762
1045.716, 305.8965
1046.823, 288.2441
1047.929, 290.8154
1049.036, 278.9053
1050.142, 363.3027
1051.248, 412.5459
1052.353, 449.9619
1053.459, 631.1533
1054.564, 655.6221
1055.670, 900.8584
1056.775, 904.9893
1057.880, 1283.399
1058.985, 1456.582
1060.089, 1460.958
1061.194, 1467.453
1062.298, 1343.708
1063.402, 1186.216
1064.506, 761.4570
1065.610, 456.9746
1066.713, 306.4961
1067.817, 421.0244
1068.920, 427.5576
1070.023, 353.1084
1071.126, 481.6631
1072.229, 510.2246
1073.332, 460.7891
1074.435, 446.3584
1075.537, 460.9316
1076.639, 379.5098
1077.741, 778.0947
1078.843, 724.6846
1079.945, 787.2783
1081.046, 560.8789
1082.148, 835.4893
1083.249, 632.1064
1084.350, 553.7314
1085.451, 398.3691
1086.551, 125.0127
1087.652, 401.6621
1088.752, 189.3164
1089.853, 114.9775
1090.953, 257.6465
1092.053, 25.32227
1093.152, 244.0088
1094.252, 113.7012
1095.351, 108.3994
1096.451, 18.89746
1097.550, 153.8066
1098.649, 6.525391
1099.748, 57.25098
1100.846, 27.98145
1101.945, 26.75000
1103.043, 12.53125
1104.141, 101.3311
1105.239, 169.1396
1106.337, 93.96582
1107.434, 131.7979
1108.532, 0.3662110
1109.629, 14.47559
1110.726, 56.67676
1111.823, 54.82031
1112.920, 73.97852
1114.017, 39.16016
1115.113, 21.34863
1116.210, 167.4639
1117.306, 139.2832
1118.402, 10.89160
1119.498, 110.9453
1120.593, 5.210938
1121.689, 45.63770
1122.784, 309.4912
1123.879, 229.3525
1124.974, 307.2178
1126.069, 193.0898
1127.164, 171.9668
1128.259, 156.8496
1129.353, 119.0059
1130.447, 157.6289
1131.541, 92.52734
1132.635, 94.52148
1133.729, 186.3408
1134.822, 65.25488
1135.916, 82.17578
1137.009, 74.09961
1138.102, 120.0293
1139.195, 227.9648
1140.288, 29.09473
1141.380, 170.8486
1142.473, 16.20410
1143.565, 121.7432
1144.657, 100.6963
1145.749, 8.655273
1146.841, 237.6201
1147.932, 110.5879
1149.024, 338.7666
1150.115, 73.74609
1151.206, 165.7324
1152.297, 106.7275
1153.388, 259.7285
1154.479, 284.7344
1155.569, 132.7451
1156.659, 192.6719
1157.750, 89.72266
1158.839, 95.77637
1159.929, 211.8428
1161.019, 98.92480
1162.108, 205.0098
1163.198, 79.10156
1164.287, 206.1973
1165.376, 214.2988
1166.465, 375.4385
1167.553, 62.25391
1168.642, 266.3965
1169.730, 111.3857
1170.818, 125.7158
1171.906, 164.8730
1172.994, 134.3525
1174.082, 165.9688
1175.170, 263.3242
1176.257, 157.0117
1177.344, 165.3457
1178.431, 121.5254
1179.518, 191.6973
1180.605, 238.8789
1181.691, 86.43750
1182.778, 271.6250
1183.864, 154.2578
1184.950, 195.4785
1186.036, 219.7012
1187.122, 345.9258
1188.207, 104.1582
1189.292, 244.3906
1190.378, 143.6270
1191.463, 289.8633
1192.548, 271.1016
1193.632, 277.3398
1194.717, 115.5801
1195.801, 242.8242
1196.886, 229.0664
1197.970, 128.3125
1199.054, 181.5586
1200.137, 153.8047
1201.221, 261.0508
1202.305, 241.2969
1203.388, 259.5469
1204.471, 123.7969
1205.554, 234.0488
1206.637, 157.3027
1207.719, 209.5547
1208.802, 209.8105
1209.884, 217.0625
1210.966, 238.3184
1212.048, 291.5742
1213.130, 257.8301
1214.212, 325.0859
1215.293, 216.3438
1216.374, 286.5996
1217.456, 212.8555
1218.536, 106.1133
1219.617, 386.3711
1220.698, 186.6270
1221.778, 326.8867
1222.859, 281.1426
1223.939, 194.3984
1225.019, 262.6562
1226.099, 187.9102
1227.178, 251.7051
1228.258, 280.9609
1229.337, 404.2148
1230.417, 250.4707
1231.496, 212.7266
1232.574, 358.9785
1233.653, 346.2344
1234.732, 191.4883
1235.810, 354.7852
1236.888, 127.0352
1237.966, 247.2871
1239.044, 249.5156
1240.122, 433.7656
1241.199, 334.7676
1242.277, 400.8535
1243.354, 343.8750
1244.431, 333.7285
1245.508, 323.3594
1246.585, 304.6055
1247.661, 121.8477
1248.738, 405.8359
1249.814, 231.0781
1250.890, 217.2148
1251.966, 424.4570
1253.042, 209.6953
1254.117, 241.9336
1255.193, 194.1699
1256.268, 116.4082
1257.343, 230.6465
1258.418, 305.8809
1259.493, 156.1152
1260.567, 326.3477
1261.642, 283.5801
1262.716, 366.8105
1263.790, 128.0410
1264.864, 183.2734
1265.938, 213.5000
1267.011, 154.7285
1268.085, 339.9551
1269.158, 249.1777
1270.231, 41.35742
1271.304, 167.5820
1272.377, 203.3086
1273.450, 99.53125
1274.522, 219.7500
1275.594, 146.9688
1276.666, 124.1836
1277.738, 14.59570
1278.810, 102.6016
1279.882, 105.7949
1280.953, 149.9922
1282.025, 313.1875
1283.096, 420.3809
1284.167, 334.5723
1285.238, 41.23828
1286.308, 168.9160
1287.379, 91.07227
1288.449, 182.2266
1289.519, 295.3789
1290.589, 229.5273
1291.659, 166.6777
1292.729, 199.8262
1293.798, 178.9727
1294.868, 37.11914
1295.937, 84.73633
1297.006, 223.3496
1298.075, 23.56445
1299.143, 26.49414
1300.212, 151.5488
1301.280, 21.60352
1302.348, 17.34570
1303.416, 204.3203
1304.484, 18.41406
1305.552, 76.53320
1306.620, 155.2988
1307.687, 121.8711
1308.754, 141.8809
1309.821, 96.36719
1310.888, 50.32031
1311.955, 65.99219
1313.021, 55.65039
1314.088, 187.2910
1315.154, 228.9336
1316.220, 280.5762
1317.286, 325.2207
1318.352, 353.8652
1319.417, 173.5098
1320.483, 357.1582
1321.548, 283.8086
1322.613, 210.4648
1323.678, 282.1191
1324.743, 158.7715
1325.807, 165.4219
1326.872, 224.0723
1327.936, 386.7168
1329.000, 115.3613
1330.064, 59.00195
1331.128, 382.6426
1332.191, 285.3496
1333.255, 388.4961
1334.318, 301.1270
1335.381, 353.7559
1336.444, 214.3809
1337.507, 428.0059
1338.569, 374.6348
1339.632, 332.2539
1340.694, 320.8691
1341.756, 370.4844
1342.818, 281.0977
1343.880, 278.7012
1344.941, 342.3047
1346.003, 417.9043
1347.064, 391.5000
1348.125, 387.5137
1349.186, 24.68555
1350.247, 257.2754
1351.308, 290.8613
1352.368, 158.4453
1353.428, 363.0254
1354.489, 180.6055
1355.549, 141.1836
1356.608, 274.7578
1357.668, 115.3320
1358.727, 228.9023
1359.787, 280.4727
1360.846, 163.0391
1361.905, 303.6035
1362.964, 5.832031
1364.022, 339.7227
1365.081, 243.2734
1366.139, 99.82227
1367.197, 219.3711
1368.255, 218.9160
1369.313, 175.4668
1370.371, 26.02930
1371.428, 72.59961
1372.486, 175.1758
1373.543, 230.7539
1374.600, 313.3301
1375.657, 271.9043
1376.713, 285.4805
1377.770, 195.0527
1378.826, 94.62695
1379.882, 192.2012
1380.938, 318.7754
1381.994, 111.3496
1383.050, 134.9297
1384.106, 159.5078
1385.161, 80.08984
1386.216, 293.6719
1387.271, 142.2559
1388.326, 260.8379
1389.381, 257.4277
1390.435, 135.0156
1391.490, 268.6055
1392.544, 139.1895
1393.598, 257.7793
1394.652, 81.36914
1395.705, 169.9629
1396.759, 352.5566
1397.812, 271.1602
1398.866, 208.7676
1399.919, 302.3789
1400.972, 180.9961
1402.024, 156.6152
1403.077, 137.2402
1404.129, 19.28906
1405.181, 210.7188
1406.233, 225.3555
1407.285, 131.0020
1408.337, 133.6504
1409.389, 143.3047
1410.440, 143.9668
1411.491, 165.6367
1412.542, 174.4023
1413.593, 166.3262
1414.644, 198.7793
1415.695, 145.4824
1416.745, 119.1953
1417.795, 97.56641
1418.845, 127.6484
1419.895, 99.39258
1420.945, 153.1484
1421.995, 189.9102
1423.044, 32.01367
1424.093, 244.8086
1425.142, 308.7793
1426.191, 182.4277
1427.240, 305.2598
1428.289, 229.7930
1429.337, 257.2109
1430.385, 257.9219
1431.433, 7.308594
1432.481, 211.6074
1433.529, 190.5664
1434.577, 82.56055
1435.624, 221.5723
1436.672, 168.2441
1437.719, 168.3203
1438.766, 277.9883
1439.812, 94.14062
1440.859, 317.3359
1441.905, 50.54102
1442.952, 220.7949
1443.998, 158.0977
1445.044, 48.45703
1446.090, 39.88281
1447.135, 170.6777
1448.181, 263.2734
1449.226, 179.7539
1450.271, 221.3672
1451.316, 84.98242
1452.361, 117.5977
1453.405, 109.2090
1454.450, 3.816406
1455.494, 58.41797
1456.538, 209.0234
1457.582, 6.373047
1458.626, 25.77148
1459.670, 229.8301
1460.713, 15.42773
1461.757, 176.0254
1462.800, 290.6250
1463.843, 0.2246090
1464.886, 134.8203
1465.928, 181.4160
1466.971, 189.0137
1468.013, 187.6113
1469.055, 220.6484
1470.097, 232.5508
1471.139, 225.1348
1472.181, 116.7168
1473.222, 26.30273
1474.263, 230.8867
1475.305, 314.4668
1476.346, 129.0488
1477.386, 190.6289
1478.427, 173.2070
1479.468, 84.78516
1480.508, 211.3633
1481.548, 135.9395
1482.588, 184.5117
1483.628, 197.0820
1484.668, 111.6523
1485.707, 176.9004
1486.747, 224.7832
1487.786, 189.3457
1488.825, 153.9062
1489.864, 80.47070
1490.902, 138.0469
1491.941, 234.6211
1492.979, 254.1875
1494.017, 236.8066
1495.055, 164.4199
1496.093, 163.0293
1497.131, 300.6309
1498.168, 94.22656
1499.206, 245.9102
1500.243, 100.6348
1501.280, 265.3555
1502.317, 210.2207
1503.354, 182.2695
1504.390, 87.42773
1505.426, 186.7168
1506.463, 141.1133
1507.499, 131.5566
1508.535, 191.0000
1509.570, 62.44336
1510.606, 103.8789
1511.641, 141.2930
1512.676, 233.7305
1513.711, 76.19531
1514.746, 138.6875
1515.781, 262.0508
1516.816, 29.48047
1517.850, 10.03906
1518.884, 126.6152
1519.918, 105.2441
1520.952, 280.9082
1521.986, 329.6406
1523.019, 243.4199
1524.053, 307.2422
1525.086, 211.1152
1526.119, 228.0391
1527.152, 79.01758
1528.185, 26.94336
1529.217, 116.1582
1530.250, 139.3301
1531.282, 209.5742
1532.314, 148.8965
1533.346, 221.3047
1534.377, 45.80273
1535.409, 325.3965
1536.440, 182.0918
1537.472, 386.8945
1538.503, 212.8027
1539.534, 186.8105
1540.564, 181.9062
1541.595, 213.0996
1542.625, 219.4004
1543.656, 204.8184
1544.686, 268.6270
1545.716, 206.1055
1546.745, 341.0000
1547.775, 197.0547
1548.804, 135.2871
1549.834, 92.70508
1550.863, 236.0000
1551.892, 169.7285
1552.920, 112.6855
1553.949, 207.8848
1554.977, 61.34766
1556.006, 24.90820
1557.034, 191.1426
1558.062, 131.5371
1559.089, 261.3145
1560.117, 456.5078
1561.144, 332.1621
1562.172, 387.8066
1563.199, 277.5156
1564.226, 280.3379
1565.252, 250.7402
1566.279, 218.2754
1567.305, 187.8379
1568.332, 135.0625
1569.358, 107.4375
1570.384, 25.35547
1571.409, 0.9472660
1572.435, 0.0000000E+00
##END=



