##NAMES=Fluorophlogopite
##RRUFFID=R040075
##IDEAL CHEMISTRY=KMg_3_(Si_3_Al)O_10_F_2_
##LOCALITY=unknown
##OWNER=RRUFF
##SOURCE=University of Arizona Mineral Museum
##DESCRIPTION=Green hexagonal tablet
##STATUS=The identification of this mineral has been confirmed by X-ray diffraction and chemical analysis
##URL=rruff.info/R040075
##MEASURED CHEMISTRY=(K_0.93_[box]_0.04_Na_0.03_)(Mg_0.66_Fe_0.30_Ti_0.02_)_3_(Si_0.75_Al_0.25_)_4_O_10_(F_0.90_(OH)_0.06_Cl_0.04_)
##PIN_ID=L00455
##ORIENTATION=Laser parallel to [1 0 1]. Fiducial mark perpendicular to laser is parallel to b* (0 1 0)
158.679, 0.000
160.066, 66.543
161.452, 2.067
162.839, 34.540
164.225, 42.988
165.611, 64.418
166.996, 57.274
168.381, 137.304
169.767, 153.290
171.152, 219.952
172.536, 267.796
173.921, 370.353
175.305, 447.383
176.689, 547.047
178.073, 666.980
179.456, 808.437
180.839, 974.605
182.222, 1112.590
183.605, 1309.990
184.988, 1449.188
186.370, 1619.857
187.752, 1719.548
189.134, 1680.162
190.516, 1719.280
191.898, 1586.848
193.279, 1494.562
194.660, 1379.866
196.041, 1288.558
197.421, 1106.821
198.801, 992.640
200.182, 946.049
201.561, 888.261
202.941, 794.494
204.321, 697.758
205.700, 608.897
207.079, 546.259
208.457, 416.750
209.836, 491.944
211.214, 429.083
212.592, 356.699
213.970, 291.134
215.348, 251.893
216.725, 178.243
218.102, 213.079
219.479, 126.216
220.856, 113.342
222.232, 163.506
223.608, 97.906
224.984, 39.838
226.360, 40.382
227.736, 62.317
229.111, 17.475
230.486, 41.301
231.861, 37.487
233.236, 61.167
234.610, 0.587
235.984, 23.881
237.358, 25.616
238.732, 1.921
240.105, 40.171
241.479, 14.470
242.852, 22.560
244.224, 10.780
245.597, 30.803
246.969, 5.557
248.342, 23.552
249.713, 42.076
251.085, 36.124
252.457, 44.985
253.828, 29.772
255.199, 48.338
256.570, 20.759
257.940, 18.023
259.310, 40.056
260.681, 97.202
262.050, 79.068
263.420, 112.900
264.790, 72.896
266.159, 139.740
267.528, 139.431
268.896, 144.924
270.265, 223.470
271.633, 187.007
273.001, 141.041
274.369, 192.104
275.737, 322.886
277.104, 346.530
278.471, 316.048
279.838, 299.412
281.205, 301.598
282.572, 284.659
283.938, 235.562
285.304, 222.305
286.670, 275.885
288.035, 130.474
289.401, 196.809
290.766, 74.262
292.131, 161.623
293.495, 139.455
294.860, 39.825
296.224, 107.418
297.588, 94.559
298.952, 58.803
300.315, 114.943
301.679, 148.545
303.042, 60.067
304.405, 98.706
305.767, 171.567
307.130, 161.462
308.492, 251.862
309.854, 125.384
311.216, 185.556
312.578, 240.354
313.939, 172.692
315.300, 221.083
316.661, 298.164
318.021, 281.385
319.382, 283.465
320.742, 303.376
322.102, 266.448
323.462, 297.879
324.821, 266.725
326.181, 231.381
327.540, 210.705
328.899, 197.418
330.257, 196.903
331.616, 192.587
332.974, 227.125
334.332, 245.450
335.690, 284.561
337.047, 253.455
338.405, 219.129
339.762, 244.581
341.119, 237.806
342.475, 295.804
343.832, 301.574
345.188, 346.115
346.544, 280.429
347.900, 348.513
349.255, 298.381
350.610, 346.019
351.965, 372.417
353.320, 365.582
354.675, 395.915
356.029, 360.211
357.384, 404.664
358.738, 378.875
360.091, 349.877
361.445, 409.602
362.798, 377.068
364.151, 364.352
365.504, 410.396
366.857, 399.223
368.209, 366.808
369.561, 400.209
370.913, 402.444
372.265, 347.221
373.617, 408.205
374.968, 355.838
376.319, 399.087
377.670, 369.996
379.021, 368.687
380.371, 363.869
381.721, 353.302
383.071, 355.988
384.421, 413.532
385.770, 432.464
387.120, 354.757
388.469, 399.118
389.818, 375.470
391.166, 372.844
392.515, 380.548
393.863, 373.160
395.211, 391.342
396.559, 365.928
397.906, 402.771
399.254, 386.147
400.601, 420.399
401.948, 385.368
403.294, 400.513
404.641, 449.011
405.987, 382.418
407.333, 400.549
408.679, 422.408
410.025, 445.499
411.370, 367.787
412.715, 316.898
414.060, 295.369
415.405, 283.182
416.749, 310.264
418.093, 288.329
419.437, 283.852
420.781, 251.293
422.125, 253.177
423.468, 272.719
424.811, 204.099
426.154, 205.731
427.497, 230.992
428.839, 245.879
430.182, 209.691
431.524, 201.700
432.866, 132.810
434.207, 146.812
435.549, 118.668
436.890, 116.723
438.231, 149.568
439.572, 86.262
440.912, 55.102
442.252, 64.446
443.593, 48.901
444.932, 64.146
446.272, 26.239
447.611, 38.347
448.951, 64.311
450.290, 5.630
451.628, 40.852
452.967, 24.869
454.305, 25.637
455.644, 35.975
456.981, 13.221
458.319, 51.019
459.657, 18.053
460.994, 1.186
462.331, 35.968
463.668, 59.594
465.004, 81.883
466.341, 102.882
467.677, 69.565
469.013, 26.352
470.348, 36.811
471.684, 9.148
473.019, 10.340
474.354, 43.705
475.689, 25.685
477.024, 38.813
478.358, 61.237
479.692, 46.578
481.026, 144.916
482.360, 92.328
483.694, 92.578
485.027, 169.903
486.360, 149.044
487.693, 215.985
489.026, 202.789
490.358, 267.487
491.691, 341.134
493.023, 240.716
494.354, 358.396
495.686, 367.106
497.017, 330.937
498.349, 310.593
499.680, 380.064
501.010, 397.601
502.341, 407.704
503.671, 349.743
505.001, 435.405
506.331, 443.218
507.661, 457.722
508.990, 515.480
510.319, 476.996
511.648, 502.692
512.977, 456.471
514.306, 480.198
515.634, 472.031
516.962, 516.698
518.290, 473.538
519.618, 783.258
520.945, 745.847
522.273, 651.674
523.600, 642.358
524.927, 551.977
526.253, 516.758
527.580, 555.685
528.906, 613.129
530.232, 640.886
531.558, 590.650
532.883, 599.202
534.208, 555.965
535.534, 653.565
536.858, 528.327
538.183, 721.996
539.508, 601.661
540.832, 605.310
542.156, 545.920
543.480, 595.548
544.803, 601.312
546.127, 662.084
547.450, 618.764
548.773, 569.549
550.096, 656.347
551.418, 632.143
552.741, 665.941
554.063, 625.743
555.385, 598.568
556.706, 592.391
558.028, 567.219
559.349, 538.061
560.670, 595.916
561.991, 609.775
563.312, 530.634
564.632, 553.494
565.952, 490.365
567.272, 460.243
568.592, 463.136
569.911, 384.031
571.231, 486.936
572.550, 363.858
573.869, 325.748
575.187, 369.595
576.506, 311.542
577.824, 257.451
579.142, 248.353
580.460, 222.130
581.778, 207.922
583.095, 127.799
584.412, 155.394
585.729, 151.997
587.046, 111.710
588.363, 185.486
589.679, 95.111
590.995, 162.702
592.311, 140.003
593.627, 96.363
594.942, 106.604
596.258, 42.836
597.573, 97.200
598.888, 26.295
600.202, 127.253
601.517, 93.248
602.831, 179.175
604.145, 104.163
605.459, 82.991
606.772, 75.868
608.086, 69.175
609.399, 127.662
610.712, 119.204
612.024, 135.156
613.337, 155.808
614.649, 154.939
615.961, 181.180
617.273, 169.457
618.585, 197.262
619.896, 249.943
621.208, 205.155
622.519, 235.975
623.829, 278.419
625.140, 261.566
626.450, 294.826
627.761, 317.587
629.071, 311.842
630.380, 328.637
631.690, 391.440
632.999, 445.384
634.308, 425.774
635.617, 556.187
636.926, 388.214
638.235, 386.181
639.543, 365.561
640.851, 422.722
642.159, 487.887
643.466, 375.378
644.774, 528.783
646.081, 475.473
647.388, 523.110
648.695, 605.796
650.002, 609.479
651.308, 676.160
652.614, 631.840
653.920, 728.517
655.226, 737.192
656.531, 1010.865
657.837, 1235.535
659.142, 1121.237
660.447, 1022.067
661.752, 1054.013
663.056, 1069.903
664.360, 1299.758
665.664, 1281.884
666.968, 1500.870
668.272, 1595.808
669.575, 1754.167
670.879, 2002.711
672.182, 2135.883
673.484, 2339.722
674.787, 2433.753
676.089, 2817.102
677.392, 2882.517
678.694, 3183.604
679.995, 3309.556
681.297, 3329.348
682.598, 3315.019
683.899, 3219.912
685.200, 3019.350
686.501, 2718.266
687.802, 2465.318
689.102, 2218.494
690.402, 2073.041
691.702, 1871.032
693.002, 1724.643
694.301, 1688.325
695.600, 1586.444
696.899, 1510.458
698.198, 1407.283
699.497, 1473.051
700.795, 1456.842
702.093, 1488.582
703.391, 1483.521
704.689, 1476.460
705.987, 1546.293
707.284, 1555.426
708.581, 1648.148
709.878, 1633.958
711.175, 1760.048
712.472, 1756.950
713.768, 1863.654
715.064, 1823.824
716.360, 1903.612
717.656, 1998.424
718.951, 1892.083
720.247, 1975.665
721.542, 1897.167
722.837, 1954.900
724.131, 1934.555
725.426, 1898.898
726.720, 1854.340
728.014, 1810.048
729.308, 1755.359
730.601, 1788.895
731.895, 1689.207
733.188, 1707.642
734.481, 1516.952
735.774, 1590.269
737.067, 1467.515
738.359, 1368.751
739.651, 1383.966
740.943, 1397.181
742.235, 1300.385
743.526, 1272.509
744.818, 1259.692
746.109, 1225.730
747.400, 1231.893
748.691, 1203.046
749.981, 1202.067
751.271, 1196.125
752.562, 1131.909
753.851, 1159.913
755.141, 1189.615
756.431, 1158.714
757.720, 1197.683
759.009, 1229.766
760.298, 1234.768
761.587, 1233.676
762.875, 1280.549
764.163, 1328.416
765.451, 1331.476
766.739, 1337.538
768.027, 1351.596
769.314, 1358.653
770.601, 1353.708
771.888, 1331.759
773.175, 1318.813
774.462, 1296.859
775.748, 1275.898
777.034, 1255.936
778.320, 1149.978
779.606, 1145.032
780.892, 1169.102
782.177, 1072.179
783.462, 931.253
784.747, 998.326
786.032, 901.391
787.317, 874.447
788.601, 772.494
789.885, 757.533
791.169, 674.562
792.453, 622.583
793.736, 603.594
795.019, 572.595
796.303, 497.586
797.585, 403.567
798.868, 452.538
800.151, 333.498
801.433, 305.447
802.715, 347.385
803.997, 265.312
805.279, 286.229
806.560, 254.136
807.841, 207.036
809.122, 213.290
810.403, 224.813
811.684, 179.687
812.964, 140.552
814.245, 101.406
815.525, 77.235
816.804, 90.044
818.084, 97.820
819.363, 32.560
820.643, 65.265
821.922, 17.054
823.201, 10.568
824.479, 6.149
825.758, 4.324
827.036, 14.847
828.314, 17.766
829.592, 22.751
830.869, 23.690
832.147, 18.424
833.424, 16.202
834.701, 1.992
835.977, 0.129
837.254, 10.758
838.530, 71.674
839.807, 0.367
841.082, 49.614
842.358, 51.632
843.634, 25.685
844.909, 48.767
846.184, 10.885
847.459, 28.028
848.734, 3.199
850.008, 1.595
851.283, 14.608
852.557, 2.151
853.831, 46.111
855.105, 45.406
856.378, 48.261
857.651, 27.484
858.925, 30.897
860.197, 15.692
861.470, 71.262
862.743, 1.125
864.015, 66.845
865.287, 24.646
866.559, 66.118
867.831, 13.573
869.102, 40.009
870.373, 31.426
871.645, 64.825
872.915, 80.206
874.186, 96.570
875.457, 37.916
876.727, 53.243
877.997, 158.552
879.267, 97.843
880.536, 31.115
881.806, 158.369
883.075, 65.604
884.344, 115.819
885.613, 83.015
886.882, 109.191
888.150, 104.348
889.419, 146.485
890.687, 138.604
891.954, 157.705
893.222, 192.790
894.490, 222.859
895.757, 147.913
897.024, 249.954
898.291, 212.982
899.557, 287.998
900.824, 198.001
902.090, 306.992
903.356, 263.971
904.622, 190.938
905.888, 265.895
907.153, 245.839
908.418, 213.765
909.683, 241.679
910.948, 247.578
912.213, 196.456
913.477, 250.323
914.741, 313.179
916.005, 269.024
917.269, 327.858
918.533, 308.681
919.796, 249.494
921.060, 320.296
922.323, 241.089
923.585, 304.872
924.848, 251.646
926.111, 368.413
927.373, 316.172
928.635, 296.925
929.897, 273.671
931.158, 255.415
932.420, 278.146
933.681, 237.875
934.942, 266.601
936.203, 260.325
937.463, 249.047
938.724, 256.770
939.984, 260.752
941.244, 236.222
942.504, 275.955
943.764, 305.694
945.023, 299.105
946.282, 317.309
947.541, 271.979
948.800, 299.775
950.059, 264.594
951.317, 215.443
952.575, 184.330
953.833, 242.265
955.091, 231.263
956.349, 210.346
957.606, 185.566
958.864, 234.361
960.121, 182.134
961.377, 230.870
962.634, 207.125
963.891, 226.389
965.147, 155.226
966.403, 266.696
967.659, 180.695
968.914, 203.280
970.170, 212.761
971.425, 166.890
972.680, 210.434
973.935, 129.924
975.190, 187.564
976.444, 144.026
977.698, 93.566
978.952, 76.009
980.206, 80.424
981.460, 74.652
982.713, 64.566
983.967, 83.916
985.220, 69.304
986.473, 68.117
987.725, 81.554
988.978, 108.454
990.230, 120.872
991.482, 76.695
992.734, 69.031
993.986, 102.065
995.237, 126.700
996.488, 116.775
997.739, 83.289
998.990, 99.264
1000.241, 64.292
1001.492, 36.293
1002.742, 54.266
1003.992, 88.211
1005.242, 84.128
1006.492, 23.984
1007.741, 41.874
1008.990, 7.703
1010.239, 2.502
1011.488, 68.270
1012.737, 15.993
1013.986, 22.288
1015.234, 1.385
1016.482, 12.024
1017.730, 15.629
1018.978, 22.978
1020.225, 32.731
1021.473, 25.226
1022.720, 53.681
1023.967, 62.095
1025.213, 112.465
1026.460, 68.789
1027.706, 151.065
1028.953, 85.287
1030.198, 92.452
1031.444, 147.554
1032.690, 110.583
1033.935, 141.516
1035.180, 125.351
1036.425, 86.098
1037.670, 86.833
1038.915, 49.642
1040.159, 103.543
1041.403, 101.621
1042.647, 124.933
1043.891, 64.418
1045.135, 80.144
1046.378, 97.053
1047.621, 65.150
1048.864, 112.286
1050.107, 112.443
1051.350, 71.614
1052.592, 47.801
1053.835, 61.996
1055.077, 78.197
1056.318, 39.406
1057.560, 73.864
1058.802, 98.056
1060.043, 77.279
1061.284, 141.854
1062.525, 40.044
1063.765, 151.267
1065.006, 104.529
1066.246, 91.840
1067.486, 47.211
1068.726, 74.654
1069.966, 51.185
1071.205, 97.826
1072.445, 24.602
1073.684, 106.523
1074.923, 36.583
1076.161, 54.764
1077.400, 92.043
1078.638, 23.413
1079.876, 70.880
1081.114, 70.459
1082.352, 121.214
1083.590, 110.203
1084.827, 78.515
1086.064, 59.061
1087.301, 111.873
1088.538, 62.986
1089.775, 104.435
1091.011, 117.252
1092.247, 136.485
1093.483, 88.211
1094.719, 133.532
1095.955, 79.551
1097.190, 139.384
1098.425, 66.212
1099.660, 52.293
1100.895, 26.004
1102.130, 0.087
1103.364, 29.009
1104.598, 73.168
1105.833, 0.000
##END=



