##NAMES=Fluorite
##RRUFFID=R060548
##IDEAL CHEMISTRY=CaF_2_
##LOCALITY=unknown
##OWNER=RRUFF
##SOURCE=Gemological Institute of America
##DESCRIPTION=Pale blue fragment
##STATUS=The identification of this mineral has been confirmed by X-ray diffraction and chemical analysis
##URL=rruff.info/R060548
##MEASURED CHEMISTRY=Ca_1.00_F_2.00_
##PIN_ID=L01039
##ORIENTATION=Laser parallel to -a* (-1 0 0). Fiducial mark perpendicular to laser is parallel to b [0 1 0]
177.7810, 0.0000000E+00
179.0090, 159.9121
180.2370, 1.921387
181.4640, 34.63916
182.6920, 32.13232
183.9190, 97.77393
185.1460, 258.0190
186.3730, 270.7954
187.6000, 440.6343
188.8270, 314.2939
190.0530, 461.5801
191.2800, 570.3862
192.5060, 546.9580
193.7320, 462.1768
194.9580, 543.8975
196.1830, 408.9473
197.4090, 378.2129
198.6340, 286.6162
199.8590, 360.1016
201.0840, 256.6367
202.3090, 295.2129
203.5340, 334.9053
204.7580, 66.15430
205.9820, 31.51172
207.2060, 9.423828
208.4300, 6.737305
209.6540, 62.71484
210.8780, 29.83887
212.1010, 38.67383
213.3240, 187.2490
214.5470, 220.5908
215.7700, 315.7246
216.9930, 440.6719
218.2150, 725.4521
219.4380, 665.0820
220.6600, 625.5781
221.8820, 874.9521
223.1040, 1142.219
224.3260, 1434.386
225.5470, 1256.465
226.7680, 1416.247
227.9900, 1367.152
229.2110, 1275.605
230.4310, 1063.391
231.6520, 1105.900
232.8720, 1125.653
234.0930, 1021.139
235.3130, 1241.952
236.5330, 1121.073
237.7530, 1237.318
238.9720, 1535.248
240.1920, 1686.316
241.4110, 1804.537
242.6300, 1877.798
243.8490, 2031.121
245.0680, 1785.438
246.2860, 1464.762
247.5040, 1184.093
248.7230, 1048.430
249.9410, 924.7715
251.1590, 965.1211
252.3760, 904.4854
253.5940, 804.8613
254.8110, 872.2617
256.0280, 804.6846
257.2450, 875.1309
258.4620, 1230.604
259.6790, 1922.098
260.8950, 2344.615
262.1120, 2470.151
263.3280, 2392.707
264.5440, 1945.282
265.7600, 1587.873
266.9750, 1020.480
268.1910, 644.1064
269.4060, 372.7510
270.6210, 765.4121
271.8360, 291.0889
273.0510, 279.7812
274.2650, 188.4863
275.4800, 23.20410
276.6940, 181.9424
277.9080, 184.6943
279.1220, 123.4512
280.3360, 15.78320
281.5490, 81.99219
282.7630, 84.80664
283.9760, 63.28906
285.1890, 54.28711
286.4020, 94.25684
287.6150, 110.5879
288.8270, 46.01855
290.0400, 17.81152
291.2520, 46.53125
292.4640, 131.7979
293.6760, 79.58105
294.8870, 20.99316
296.0990, 115.8760
297.3100, 54.16895
298.5210, 253.3457
299.7320, 267.8398
300.9430, 187.7871
302.1540, 148.6660
303.3640, 263.0010
304.5750, 341.6289
305.7850, 446.0576
306.9950, 520.3691
308.2050, 677.1982
309.4140, 713.3359
310.6240, 1001.280
311.8330, 1226.379
313.0420, 1395.777
314.2510, 1938.493
315.4600, 2516.188
316.6680, 3029.866
317.8770, 3825.526
319.0850, 4877.387
320.2930, 5816.008
321.5010, 6406.607
322.7090, 6255.186
323.9160, 5679.801
325.1240, 4906.860
326.3310, 4132.383
327.5380, 3358.574
328.7450, 2838.907
329.9520, 2344.282
331.1580, 1985.528
332.3650, 1668.937
333.5710, 1518.361
334.7770, 1316.803
335.9830, 1254.253
337.1880, 1205.710
338.3940, 1148.166
339.5990, 1120.615
340.8040, 1096.058
342.0090, 1173.492
343.2140, 1167.918
344.4190, 1198.333
345.6230, 1091.739
346.8280, 1222.134
348.0320, 1268.517
349.2360, 1148.889
350.4400, 1254.251
351.6430, 1220.631
352.8470, 1361.040
354.0500, 1519.345
355.2530, 1390.787
356.4560, 1491.256
357.6590, 1538.730
358.8620, 1501.225
360.0640, 1523.715
361.2660, 1504.608
362.4680, 1442.614
363.6700, 1460.045
364.8720, 1377.458
366.0740, 1352.926
367.2750, 1331.306
368.4760, 1403.670
369.6770, 1374.018
370.8780, 1334.587
372.0790, 1185.050
373.2800, 1219.771
374.4800, 1168.122
375.6800, 1120.863
376.8800, 1081.956
378.0800, 1008.159
379.2800, 982.2295
380.4790, 981.6924
381.6790, 1000.835
382.8780, 856.3115
384.0770, 830.7100
385.2760, 838.0977
386.4750, 883.2324
387.6730, 858.3604
388.8720, 825.3682
390.0700, 812.9863
391.2680, 760.8350
392.4660, 641.2656
393.6630, 858.0078
394.8610, 721.9795
396.0580, 526.6279
397.2550, 681.5273
398.4520, 492.4004
399.6490, 403.8174
400.8460, 343.4121
402.0420, 492.7451
403.2390, 305.0996
404.4350, 370.3418
405.6310, 437.7227
406.8270, 151.5186
408.0220, 258.4102
409.2180, 236.6338
410.4130, 180.0967
411.6080, 55.89746
412.8030, 121.7480
413.9980, 161.8164
415.1920, 130.7051
416.3870, 171.3486
417.5810, 147.1748
418.7750, 135.9795
419.9690, 114.9648
421.1630, 146.2324
422.3570, 29.69824
423.5500, 30.90332
424.7430, 72.03516
425.9360, 109.2188
427.1290, 3.291992
428.3220, 58.16992
429.5150, 3.395508
430.7070, 164.5156
431.8990, 193.3926
433.0910, 138.3115
434.2830, 290.1436
435.4750, 230.0029
436.6670, 167.8984
437.8580, 197.6494
439.0490, 245.0254
440.2400, 173.7939
441.4310, 291.3662
442.6220, 236.2812
443.8130, 274.0225
445.0030, 300.9531
446.1930, 333.6416
447.3830, 474.3408
448.5730, 348.8535
449.7630, 239.4893
450.9520, 335.4531
452.1420, 280.3945
453.3310, 366.2988
454.5200, 375.1377
455.7090, 283.1211
456.8980, 196.6172
458.0860, 188.6104
459.2740, 348.6162
460.4630, 353.8916
461.6510, 249.7881
462.8380, 342.0059
464.0260, 264.4102
465.2140, 439.3887
466.4010, 336.0615
467.5880, 570.5957
468.7750, 448.2539
469.9620, 509.5195
471.1490, 499.7256
472.3350, 595.5195
473.5220, 646.0508
474.7080, 581.9551
475.8940, 488.0762
477.0800, 555.4004
478.2650, 473.0693
479.4510, 428.3809
480.6360, 533.1602
481.8210, 503.2725
483.0060, 575.9912
484.1910, 670.6777
485.3760, 750.3340
486.5600, 721.9590
487.7440, 816.5537
488.9290, 804.1152
490.1130, 774.6523
491.2960, 753.4736
492.4800, 902.0625
493.6630, 834.1113
494.8470, 868.4521
496.0300, 885.6250
497.2130, 802.5713
498.3960, 681.3779
499.5780, 737.3555
500.7610, 725.7891
501.9430, 476.5488
503.1250, 511.7070
504.3070, 434.4619
505.4890, 415.5400
506.6710, 375.6914
507.8520, 295.0459
509.0330, 341.5566
510.2140, 320.7803
511.3950, 397.0361
512.5760, 329.9150
513.7570, 220.2998
514.9370, 212.5117
516.1170, 293.5186
517.2980, 196.2412
518.4780, 283.4297
519.6570, 304.5449
520.8370, 279.1484
522.0160, 174.8584
523.1960, 232.3818
524.3750, 149.8643
525.5540, 166.3037
526.7320, 25.70117
527.9110, 18.95215
529.0890, 35.04395
530.2680, 17.47266
531.4460, 59.33984
532.6240, 0.7041020
533.8010, 16.68848
534.9790, 83.62109
536.1560, 18.49316
537.3340, 13.67676
538.5110, 49.92578
539.6880, 60.73926
540.8650, 11.35449
542.0410, 78.08398
543.2180, 14.37793
544.3940, 59.21484
545.5700, 145.1025
546.7460, 44.62500
547.9220, 54.56445
549.0970, 41.49219
550.2730, 91.41992
551.4480, 86.56055
552.6230, 117.6357
553.7980, 7.506836
554.9730, 17.82715
556.1470, 189.2686
557.3210, 6.466797
558.4960, 184.8984
559.6700, 184.1162
560.8440, 331.2383
562.0170, 299.2314
563.1910, 246.3135
564.3640, 254.7617
565.5380, 284.9199
566.7110, 282.5664
567.8840, 323.3252
569.0560, 366.3145
570.2290, 408.8096
571.4010, 375.0723
572.5740, 307.5254
573.7460, 333.5957
574.9180, 250.4180
576.0890, 315.5234
577.2610, 290.6055
578.4320, 308.4658
579.6040, 338.4502
580.7750, 304.2930
581.9450, 308.2725
583.1160, 246.2070
584.2870, 279.1045
585.4570, 224.9688
586.6270, 270.7959
587.7980, 258.5889
588.9670, 302.3467
590.1370, 256.0703
591.3070, 170.7598
592.4760, 168.4111
593.6450, 170.0254
594.8140, 178.6025
595.9830, 137.1572
597.1520, 246.6855
598.3210, 120.1084
599.4890, 110.4932
600.6570, 277.9941
601.8250, 122.4805
602.9930, 277.9336
604.1610, 226.2109
605.3290, 87.01758
606.4960, 148.7451
607.6630, 17.79785
608.8300, 100.3652
609.9970, 42.94141
611.1640, 46.61621
612.3300, 0.5644530
613.4970, 67.71191
614.6630, 58.12988
615.8290, 43.39062
616.9950, 23.88965
618.1610, 90.34473
619.3260, 163.7568
620.4920, 398.1299
621.6570, 196.4678
622.8220, 568.7656
623.9870, 668.0293
625.1520, 598.2559
626.3160, 661.5322
627.4810, 655.6875
628.6450, 472.8066
629.8090, 304.8623
630.9730, 208.0957
632.1370, 59.73535
633.3000, 130.2627
634.4640, 183.1709
635.6270, 69.47949
636.7900, 193.8271
637.9530, 160.3799
639.1160, 84.06836
640.2780, 123.8535
641.4410, 20.24219
642.6030, 72.28711
643.7650, 130.2881
644.9270, 72.24609
646.0890, 255.1582
647.2500, 197.0322
648.4120, 149.7949
649.5730, 208.5879
650.7340, 191.3408
651.8950, 295.0527
653.0560, 140.7275
654.2160, 170.9707
655.3770, 209.1377
656.5370, 313.6035
657.6970, 144.6230
658.8570, 151.9668
660.0170, 361.3555
661.1760, 228.5996
662.3360, 473.3672
663.4950, 674.3369
664.6540, 804.9238
665.8130, 1034.540
666.9720, 1167.119
668.1310, 1286.903
669.2890, 1330.645
670.4470, 1012.456
671.6050, 888.6074
672.7630, 755.4775
673.9210, 828.7158
675.0790, 794.5918
676.2360, 726.3789
677.3930, 830.0586
678.5510, 682.6230
679.7080, 740.1650
680.8640, 885.1094
682.0210, 1144.827
683.1770, 1263.754
684.3340, 1426.608
685.4900, 1830.523
686.6460, 2041.246
687.8020, 2361.499
688.9570, 2518.604
690.1130, 2492.324
691.2680, 3491.752
692.4230, 3562.789
693.5780, 3636.723
694.7330, 3156.385
695.8880, 2981.203
697.0420, 2799.150
698.1960, 2435.891
699.3510, 2177.598
700.5040, 2094.806
701.6580, 2146.938
702.8120, 2228.820
703.9650, 2505.715
705.1190, 2400.727
706.2720, 2653.731
707.4250, 2698.835
708.5780, 2656.998
709.7300, 2580.193
710.8830, 2534.400
712.0350, 2427.696
713.1870, 2250.018
714.3390, 2214.201
715.4910, 1881.686
716.6430, 1951.215
717.7940, 1631.853
718.9460, 1614.555
720.0970, 1295.345
721.2480, 1175.154
722.3990, 1085.822
723.5500, 1037.620
724.7000, 1041.215
725.8500, 890.9854
727.0010, 828.6748
728.1510, 770.4775
729.3010, 841.0928
730.4500, 511.3203
731.6000, 712.5068
732.7490, 562.1113
733.8980, 606.2490
735.0470, 438.7861
736.1960, 508.4209
737.3450, 446.1504
738.4940, 219.7041
739.6420, 442.4238
740.7900, 293.3975
741.9380, 147.5801
743.0860, 413.1787
744.2340, 114.0869
745.3810, 55.76660
746.5290, 234.9404
747.6760, 17.95410
748.8230, 156.5107
749.9700, 134.7461
751.1170, 198.7021
752.2630, 259.5479
753.4100, 328.0391
754.5560, 356.0996
755.7020, 305.8135
756.8480, 405.7764
757.9940, 438.0215
759.1390, 464.2705
760.2850, 327.0127
761.4300, 423.6230
762.5750, 374.1875
763.7200, 266.7051
764.8650, 304.1768
766.0100, 287.6025
767.1540, 152.9824
768.2980, 140.3076
769.4420, 123.2617
770.5860, 231.3652
771.7300, 209.9307
772.8740, 266.7041
774.0170, 240.4072
775.1610, 331.8408
776.3040, 415.3340
777.4470, 369.5781
778.5900, 613.2900
779.7320, 682.5957
780.8750, 624.4258
782.0170, 606.5781
783.1590, 753.3320
784.3010, 579.9316
785.4430, 689.2500
786.5850, 741.3340
787.7260, 700.6250
788.8680, 774.8057
790.0090, 862.2822
791.1500, 922.1777
792.2910, 1027.162
793.4310, 1066.271
794.5720, 1153.018
795.7120, 1250.354
796.8520, 1297.115
797.9920, 1388.311
799.1320, 1451.769
800.2720, 1530.436
801.4120, 1631.512
802.5510, 1718.551
803.6900, 1803.552
804.8290, 2048.519
805.9680, 2067.460
807.1070, 2107.381
808.2450, 2291.276
809.3840, 2312.158
810.5220, 2367.008
811.6600, 2450.827
812.7980, 2561.609
813.9360, 2548.369
815.0730, 2456.100
816.2110, 2482.815
817.3480, 2584.495
818.4850, 2779.144
819.6220, 2570.784
820.7590, 2748.391
821.8960, 2906.985
823.0320, 2911.142
824.1680, 3169.083
825.3040, 3194.588
826.4400, 3185.062
827.5760, 3479.529
828.7120, 3940.962
829.8470, 4502.398
830.9830, 5273.809
832.1180, 6300.183
833.2530, 7418.531
834.3880, 9004.854
835.5220, 10156.14
836.6570, 10388.39
837.7910, 10746.62
838.9250, 11128.85
840.0590, 11446.09
841.1930, 12108.29
842.3270, 12409.42
843.4600, 12371.33
844.5940, 11646.51
845.7270, 10499.26
846.8600, 9875.098
847.9930, 9780.723
849.1250, 9604.154
850.2580, 9657.592
851.3900, 9530.816
852.5230, 8831.059
853.6550, 7449.730
854.7870, 6325.072
855.9180, 5070.176
857.0500, 4164.867
858.1810, 3467.328
859.3130, 2920.230
860.4440, 2653.447
861.5750, 2172.529
862.7050, 1887.891
863.8360, 1530.197
864.9660, 994.4531
866.0970, 896.6602
867.2270, 803.8145
868.3570, 345.9199
869.4870, 231.9688
870.6160, 243.9395
871.7460, 188.8379
872.8750, 93.64258
874.0040, 118.3281
875.1330, 182.9043
876.2620, 289.3906
877.3910, 2.187500
878.5190, 201.9219
879.6470, 274.0977
880.7760, 7.087891
881.9040, 34.84961
883.0310, 164.6699
884.1590, 147.5234
885.2870, 113.2637
886.4140, 136.4512
887.5410, 228.5957
888.6680, 135.8203
889.7950, 141.8242
890.9220, 282.3789
892.0480, 413.8867
893.1750, 677.3535
894.3010, 1307.775
895.4270, 1436.156
896.5530, 1441.496
897.6790, 1634.795
898.8040, 1599.049
899.9300, 1318.180
901.0550, 1342.352
902.1800, 1279.482
903.3050, 1410.600
904.4300, 2116.465
905.5540, 2919.008
906.6790, 4673.789
907.8030, 7262.525
908.9270, 11413.53
910.0510, 17277.48
911.1750, 23908.50
912.2990, 26635.53
913.4220, 22794.56
914.5450, 17649.59
915.6690, 13600.60
916.7920, 11878.58
917.9140, 12222.53
919.0370, 13819.46
920.1600, 16324.35
921.2820, 19604.21
922.4040, 20979.05
923.5260, 20323.85
924.6480, 20332.64
925.7700, 23284.39
926.8910, 27389.12
928.0130, 29335.81
929.1340, 26081.49
930.2550, 21030.14
931.3760, 17577.77
932.4970, 15970.37
933.6170, 14462.95
934.7380, 14701.51
935.8580, 16423.05
936.9780, 19669.57
938.0980, 20550.06
939.2180, 17082.53
940.3370, 13150.99
941.4570, 10875.43
942.5760, 11180.84
943.6950, 13666.24
944.8140, 19556.62
945.9330, 28412.98
947.0520, 38931.33
948.1700, 45405.67
949.2890, 41227.98
950.4070, 30047.28
951.5250, 19029.56
952.6430, 11371.84
953.7600, 7355.104
954.8780, 4695.352
955.9950, 3437.590
957.1120, 2746.816
958.2290, 2292.033
959.3460, 1833.242
960.4630, 1551.439
961.5800, 1517.631
962.6960, 1546.812
963.8120, 1794.988
964.9280, 1444.156
966.0440, 1577.320
967.1600, 1272.555
968.2760, 1308.816
969.3910, 1016.445
970.5060, 933.5898
971.6210, 602.2754
972.7360, 272.7969
973.8510, 258.9453
974.9660, 207.2520
976.0800, 19.06055
977.1950, 36.48047
978.3090, 263.4688
979.4230, 168.6309
980.5370, 62.91211
981.6500, 405.7168
982.7640, 154.3066
983.8770, 347.0078
984.9900, 438.9102
986.1030, 392.0566
987.2160, 369.4180
988.3290, 333.9883
989.4420, 436.7441
990.5540, 147.7285
991.6660, 366.8105
992.7780, 20.08398
993.8900, 170.3887
995.0020, 12.20703
996.1140, 153.7852
997.2250, 225.3828
998.3360, 192.9922
999.4470, 686.6172
1000.558, 1021.264
1001.669, 1359.924
1002.780, 1316.164
1003.890, 1125.895
1005.001, 840.0430
1006.111, 997.5410
1007.221, 1312.408
1008.331, 1348.203
1009.440, 1717.922
1010.550, 1777.533
1011.659, 1882.139
1012.768, 2008.988
1013.877, 1810.480
1014.986, 1851.475
1016.095, 2032.082
1017.204, 2096.602
1018.312, 2248.121
1019.420, 2252.904
1020.528, 2530.350
1021.636, 2701.139
1022.744, 2669.887
1023.852, 3004.332
1024.959, 3005.881
1026.066, 3326.328
1027.173, 3397.832
1028.280, 3417.396
1029.387, 3765.023
1030.494, 3697.717
1031.600, 3818.477
1032.707, 3814.311
1033.813, 3826.215
1034.919, 3551.191
1036.025, 3668.246
1037.130, 3526.379
1038.236, 3359.602
1039.341, 3713.908
1040.446, 3594.297
1041.552, 3532.770
1042.656, 3838.320
1043.761, 3569.959
1044.866, 3737.676
1045.970, 3794.479
1047.074, 3698.363
1048.179, 3805.340
1049.282, 3798.398
1050.386, 3853.547
1051.490, 3638.785
1052.593, 3652.111
1053.697, 3521.529
1054.800, 3546.037
1055.903, 3234.643
1057.006, 3385.338
1058.108, 3070.129
1059.211, 2999.016
1060.313, 2780.000
1061.415, 2772.078
1062.517, 2496.256
1063.619, 2583.533
1064.721, 2534.908
1065.823, 2283.383
1066.924, 2203.957
1068.025, 2247.635
1069.126, 2147.518
1070.227, 2059.398
1071.328, 2065.846
1072.429, 1918.883
1073.529, 2027.078
1074.629, 1945.381
1075.729, 1937.791
1076.829, 1799.309
1077.929, 1822.932
1079.029, 1716.666
1080.128, 1536.510
1081.228, 1570.461
1082.327, 1431.527
1083.426, 1490.705
1084.525, 1168.992
1085.623, 1254.395
1086.722, 1191.912
1087.820, 779.5430
1088.919, 840.2891
1090.017, 560.1504
1091.115, 779.1309
1092.212, 542.2246
1093.310, 308.4395
1094.407, 384.7734
1095.505, 221.2266
1096.602, 188.7988
1097.699, 81.49219
1098.795, 72.69141
1099.892, 0.7675780
1100.989, 35.72266
1102.085, 144.4375
1103.181, 99.27930
1104.277, 408.8867
1105.373, 339.4668
1106.469, 8.994141
1107.564, 150.3984
1108.660, 39.66602
1109.755, 21.38281
1110.850, 217.2480
1111.945, 120.6387
1113.040, 46.97266
1114.134, 190.4062
1115.229, 313.3359
1116.323, 134.7715
1117.417, 465.1465
1118.511, 692.5977
1119.605, 579.7148
1120.698, 1195.256
1121.792, 1196.137
1122.885, 1511.521
1123.978, 1768.236
1125.071, 1642.607
1126.164, 1591.764
1127.257, 1576.154
1128.349, 1578.475
1129.442, 1643.191
1130.534, 1707.248
1131.626, 1903.918
1132.718, 2065.742
1133.810, 2379.719
1134.901, 2494.855
1135.993, 2782.158
1137.084, 2791.627
1138.175, 3085.633
1139.266, 3494.109
1140.357, 3612.137
1141.448, 3483.334
1142.538, 3773.695
1143.628, 3940.270
1144.719, 4126.016
1145.809, 4233.928
1146.898, 4457.051
1147.988, 4582.389
1149.078, 4685.922
1150.167, 4669.738
1151.256, 4559.871
1152.345, 4620.420
1153.434, 4569.498
1154.523, 4283.109
1155.612, 4305.141
1156.700, 4270.598
1157.788, 4315.527
1158.877, 4112.949
1159.964, 4143.902
1161.052, 4094.354
1162.140, 4070.334
1163.227, 4212.797
1164.315, 3867.592
1165.402, 4022.773
1166.489, 3637.377
1167.576, 3759.295
1168.663, 3511.408
1169.749, 3400.697
1170.836, 3222.146
1171.922, 3203.748
1173.008, 3215.502
1174.094, 2918.406
1175.180, 2885.465
1176.265, 2558.689
1177.351, 2282.102
1178.436, 2094.494
1179.521, 1927.518
1180.606, 1638.564
1181.691, 1542.824
1182.776, 1419.293
1183.860, 1121.943
1184.944, 956.7539
1186.029, 1026.723
1187.113, 693.8340
1188.197, 711.0938
1189.280, 705.4961
1190.364, 486.0391
1191.447, 381.7246
1192.531, 395.5547
1193.614, 315.5273
1194.697, 132.6387
1195.779, 127.8926
1196.862, 131.2852
1197.945, 159.8203
1199.027, 0.5019530
1200.109, 97.31445
1201.191, 131.2695
1202.273, 49.63477
1203.355, 163.5938
1204.436, 42.95898
1205.518, 219.4648
1206.599, 138.1094
1207.680, 51.88867
1208.761, 102.8105
1209.842, 122.8672
1210.922, 397.0566
1212.003, 308.3848
1213.083, 374.8516
1214.163, 673.4512
1215.243, 545.1836
1216.323, 639.0547
1217.402, 704.0566
1218.482, 783.1953
1219.561, 785.4648
1220.641, 844.8672
1221.720, 903.4023
1222.798, 882.0664
1223.877, 982.8633
1224.956, 1059.621
1226.034, 1171.848
1227.112, 1304.035
1228.191, 1285.352
1229.269, 1457.717
1230.346, 1505.184
1231.424, 1672.613
1232.501, 1899.230
1233.579, 2025.641
1234.656, 2244.336
1235.733, 2385.670
1236.810, 2440.674
1237.886, 2597.547
1238.963, 2773.604
1240.039, 2954.301
1241.116, 3186.174
1242.192, 3217.203
1243.268, 3616.812
1244.343, 4067.178
1245.419, 4004.688
1246.494, 4398.391
1247.570, 4766.301
1248.645, 4875.404
1249.720, 4945.695
1250.795, 5220.160
1251.869, 5298.826
1252.944, 5659.617
1254.018, 5565.586
1255.093, 5699.650
1256.167, 5717.844
1257.240, 5916.117
1258.314, 5868.461
1259.388, 5860.873
1260.461, 5671.354
1261.535, 5747.898
1262.608, 5614.502
1263.681, 5700.170
1264.753, 5654.895
1265.826, 5508.678
1266.899, 5590.518
1267.971, 5433.410
1269.043, 5693.355
1270.115, 5494.348
1271.187, 5734.391
1272.259, 5645.477
1273.330, 5739.605
1274.402, 5636.775
1275.473, 5685.986
1276.544, 5783.094
1277.615, 5971.934
1278.686, 6033.508
1279.756, 6050.648
1280.827, 6068.160
1281.897, 6305.502
1282.967, 6677.859
1284.037, 6884.914
1285.107, 7297.434
1286.177, 7463.129
1287.247, 8238.027
1288.316, 8561.098
1289.385, 9031.055
1290.454, 9702.207
1291.523, 9767.861
1292.592, 10178.23
1293.661, 10249.13
1294.729, 10176.96
1295.797, 10552.26
1296.866, 10273.49
1297.934, 9731.016
1299.001, 9823.410
1300.069, 9225.992
1301.137, 8894.283
1302.204, 8732.531
1303.271, 8457.545
1304.338, 8056.119
1305.405, 7872.945
1306.472, 7599.441
1307.539, 7252.781
1308.605, 7114.039
1309.671, 7147.912
1310.737, 7041.160
1311.803, 7035.758
1312.869, 6922.525
1313.935, 6815.434
1315.000, 6734.775
1316.066, 6626.264
1317.131, 6578.781
1318.196, 6475.639
1319.261, 6412.902
1320.326, 6303.504
1321.390, 6168.129
1322.455, 6090.359
1323.519, 6040.451
1324.583, 5971.145
1325.647, 5809.859
1326.711, 5708.592
1327.775, 5317.244
1328.838, 5156.012
1329.902, 4976.797
1330.965, 4841.188
1332.028, 4747.000
1333.091, 4694.822
1334.153, 4619.564
1335.216, 4522.666
1336.279, 4491.344
1337.341, 4313.197
1338.403, 4150.055
1339.465, 4006.916
1340.527, 4187.777
1341.588, 4001.641
1342.650, 3732.500
1343.711, 3987.359
1344.772, 3879.215
1345.834, 3723.068
1346.894, 3630.918
1347.955, 3764.541
1349.016, 4021.598
1350.076, 4286.430
1351.136, 4756.252
1352.197, 5397.066
1353.257, 5974.875
1354.316, 7319.672
1355.376, 8722.461
1356.436, 10734.24
1357.495, 13334.01
1358.554, 15938.77
1359.613, 18214.52
1360.672, 19812.17
1361.731, 19177.43
1362.789, 17205.85
1363.848, 14230.45
1364.906, 11528.93
1365.964, 8877.166
1367.022, 7238.148
1368.080, 5703.330
1369.138, 4486.656
1370.195, 4099.746
1371.253, 3701.699
1372.310, 3407.525
1373.367, 3215.184
1374.424, 3493.561
1375.480, 3708.520
1376.537, 4090.088
1377.593, 4415.402
1378.650, 4540.533
1379.706, 4714.508
1380.762, 4593.320
1381.818, 4619.957
1382.873, 4608.418
1383.929, 5010.695
1384.984, 5197.777
1386.039, 5560.664
1387.094, 5663.340
1388.149, 5676.805
1389.204, 5554.043
1390.259, 5951.047
1391.313, 6760.811
1392.367, 7945.320
1393.422, 9457.568
1394.476, 10870.54
1395.529, 11698.22
1396.583, 11005.61
1397.637, 9405.684
1398.690, 7224.428
1399.743, 5385.828
1400.796, 3855.865
1401.849, 2677.533
1402.902, 1593.852
1403.954, 1205.184
1405.007, 720.2695
1406.059, 314.4043
1407.111, 120.3750
1408.163, 432.6348
1409.215, 556.8184
1410.267, 373.4277
1411.318, 473.2715
1412.370, 648.3887
1413.421, 744.4258
1414.472, 872.1934
1415.523, 772.3652
1416.574, 852.9238
1417.624, 678.5547
1418.675, 130.6934
1419.725, 312.9590
1420.775, 453.8906
1421.825, 46.09766
1422.875, 716.7461
1423.925, 1149.139
1424.974, 1703.691
1426.024, 2132.080
1427.073, 2518.883
1428.122, 2433.977
1429.171, 2006.613
1430.220, 1252.357
1431.268, 899.4668
1432.317, 704.3145
1433.365, 551.6270
1434.413, 303.9609
1435.461, 484.6523
1436.509, 509.0898
1437.557, 905.6348
1438.605, 1309.639
1439.652, 1619.646
1440.699, 2050.957
1441.746, 2886.430
1442.793, 3220.793
1443.840, 3692.035
1444.887, 4303.154
1445.933, 4540.146
1446.980, 4709.008
1448.026, 4802.734
1449.072, 4485.324
1450.118, 4071.768
1451.163, 3936.064
1452.209, 3271.203
1453.254, 3313.178
1454.300, 3146.992
1455.345, 3244.633
1456.390, 3224.098
1457.435, 3399.381
1458.479, 3525.475
1459.524, 4107.375
1460.568, 4371.076
1461.612, 4845.570
1462.656, 5136.854
1463.700, 5205.920
1464.744, 5001.770
1465.788, 5024.438
1466.831, 4620.963
1467.874, 4594.385
1468.918, 4341.723
1469.961, 3933.980
1471.003, 3803.168
1472.046, 4133.301
1473.089, 3950.381
1474.131, 3948.418
1475.173, 3924.418
1476.215, 3964.391
1477.257, 3947.342
1478.299, 4066.275
1479.341, 4058.209
1480.382, 4309.154
1481.424, 4442.121
1482.465, 4275.133
1483.506, 4557.199
1484.547, 4399.477
1485.587, 4363.213
1486.628, 4365.746
1487.668, 4268.828
1488.709, 4261.850
1489.749, 3843.008
1490.789, 3609.688
1491.828, 3254.812
1492.868, 3030.859
1493.908, 2918.012
1494.947, 3135.891
1495.986, 2739.332
1497.025, 2844.438
1498.064, 3085.504
1499.103, 2789.574
1500.141, 3073.586
1501.180, 2921.387
1502.218, 2890.465
1503.256, 3123.098
1504.294, 3162.121
1505.332, 3141.830
1506.370, 3276.035
1507.407, 3401.035
1508.445, 3358.398
1509.482, 3436.170
1510.519, 3409.275
1511.556, 3312.623
1512.593, 3465.123
1513.629, 3146.686
1514.666, 3163.201
1515.702, 2719.553
1516.738, 3060.621
1517.774, 2859.262
1518.810, 2566.316
1519.846, 2495.607
1520.882, 2074.941
1521.917, 1949.111
1522.952, 1962.877
1523.987, 1614.979
1525.022, 1298.164
1526.057, 1120.875
1527.092, 1184.805
1528.126, 877.8477
1529.161, 851.6250
1530.195, 761.6504
1531.229, 652.7422
1532.263, 653.1777
1533.297, 505.8477
1534.330, 470.2012
1535.364, 398.5449
1536.397, 566.8379
1537.430, 400.1895
1538.463, 418.7441
1539.496, 223.7051
1540.529, 185.3457
1541.561, 159.9746
1542.594, 346.2227
1543.626, 158.5879
1544.658, 536.9883
1545.690, 477.5449
1546.722, 206.1113
1547.753, 407.8105
1548.785, 536.4453
1549.816, 497.3770
1550.847, 561.0840
1551.878, 844.3340
1552.909, 715.3633
1553.940, 488.0234
1554.971, 671.5684
1556.001, 412.5820
1557.031, 391.2148
1558.062, 536.6934
1559.092, 446.1973
1560.121, 361.5703
1561.151, 16.30469
1562.181, 569.8711
1563.210, 153.7051
1564.239, 0.0000000E+00
##END=



