##NAMES=Fluorophlogopite
##RRUFFID=R040075
##IDEAL CHEMISTRY=KMg_3_(Si_3_Al)O_10_F_2_
##LOCALITY=unknown
##OWNER=RRUFF
##SOURCE=University of Arizona Mineral Museum
##DESCRIPTION=Green hexagonal tablet
##STATUS=The identification of this mineral has been confirmed by X-ray diffraction and chemical analysis
##URL=rruff.info/R040075
##MEASURED CHEMISTRY=(K_0.93_[box]_0.04_Na_0.03_)(Mg_0.66_Fe_0.30_Ti_0.02_)_3_(Si_0.75_Al_0.25_)_4_O_10_(F_0.90_(OH)_0.06_Cl_0.04_)
##PIN_ID=L00309
##ORIENTATION=Laser parallel to -b* (0 -1 0). Fiducial mark perpendicular to laser is parallel to -c [0 0 -1]
137.307, 0.000
138.695, 7.987
140.082, 25.063
141.469, 7.159
142.856, 68.438
144.242, 58.652
145.628, 140.489
147.014, 77.086
148.400, 4.009
149.786, 111.852
151.171, 68.274
152.556, 44.835
153.941, 112.044
155.325, 18.919
156.710, 106.086
158.094, 121.452
159.478, 143.174
160.862, 238.831
162.245, 198.002
163.629, 204.094
165.012, 256.449
166.395, 249.811
167.777, 280.878
169.160, 254.111
170.542, 403.409
171.924, 451.543
173.306, 423.854
174.687, 604.424
176.068, 577.298
177.449, 699.779
178.830, 694.104
180.211, 877.397
181.591, 894.850
182.972, 995.097
184.351, 1171.085
185.731, 1267.010
187.111, 1182.331
188.490, 1277.467
189.869, 1160.107
191.248, 1136.229
192.626, 1010.982
194.005, 952.558
195.383, 951.971
196.761, 849.498
198.139, 796.027
199.516, 747.501
200.893, 674.852
202.271, 598.692
203.647, 570.102
205.024, 479.749
206.400, 479.060
207.777, 390.995
209.152, 359.895
210.528, 331.938
211.904, 322.776
213.279, 298.576
214.654, 363.668
216.029, 301.466
217.403, 214.622
218.778, 277.731
220.152, 117.500
221.526, 141.746
222.900, 209.907
224.273, 64.140
225.646, 189.463
227.019, 106.438
228.392, 195.770
229.765, 135.016
231.137, 65.972
232.509, 34.165
233.881, 2.947
235.253, 147.633
236.625, 10.635
237.996, 5.539
239.367, 85.068
240.738, 10.599
242.108, 62.776
243.479, 20.392
244.849, 72.519
246.219, 3.003
247.589, 68.332
248.958, 16.516
250.328, 45.623
251.697, 53.657
253.065, 68.976
254.434, 109.455
255.803, 15.381
257.171, 12.454
258.539, 132.648
259.906, 96.984
261.274, 46.920
262.641, 10.876
264.008, 107.924
265.375, 83.746
266.742, 3.667
268.108, 73.719
269.475, 12.929
270.840, 108.934
272.206, 105.860
273.572, 112.121
274.937, 171.721
276.302, 112.895
277.667, 144.177
279.032, 83.357
280.396, 137.039
281.760, 84.438
283.125, 49.789
284.488, 154.808
285.852, 13.562
287.215, 171.950
288.578, 67.171
289.941, 25.950
291.304, 99.948
292.666, 13.679
294.029, 103.360
295.391, 47.827
296.753, 7.230
298.114, 17.675
299.476, 6.645
300.837, 25.220
302.198, 0.986
303.558, 188.773
304.919, 137.837
306.279, 155.866
307.639, 169.726
308.999, 126.079
310.359, 232.274
311.718, 167.108
313.077, 278.218
314.436, 269.889
315.795, 222.737
317.154, 387.032
318.512, 189.333
319.870, 339.821
321.228, 245.316
322.586, 369.679
323.943, 250.746
325.300, 366.403
326.657, 353.999
328.014, 391.304
329.371, 389.202
330.727, 297.847
332.083, 331.241
333.439, 349.322
334.795, 228.219
336.150, 384.854
337.506, 190.228
338.861, 359.337
340.215, 252.196
341.570, 402.798
342.924, 369.132
344.279, 313.206
345.633, 281.009
346.986, 254.568
348.340, 398.875
349.693, 374.883
351.046, 397.644
352.399, 284.153
353.752, 372.401
355.104, 358.398
356.457, 400.087
357.809, 370.546
359.160, 496.746
360.512, 356.768
361.863, 428.621
363.214, 341.225
364.565, 429.655
365.916, 491.713
367.267, 357.481
368.617, 443.750
369.967, 359.908
371.317, 430.589
372.666, 423.033
374.016, 376.244
375.365, 414.271
376.714, 422.105
378.063, 484.106
379.411, 371.716
380.760, 465.547
382.108, 392.729
383.456, 485.237
384.803, 519.005
386.151, 468.393
387.498, 353.817
388.845, 448.925
390.192, 464.061
391.539, 496.123
392.885, 492.855
394.231, 506.486
395.577, 477.290
396.923, 469.338
398.269, 476.369
399.614, 447.190
400.959, 468.330
402.304, 445.803
403.649, 409.923
404.993, 469.935
406.337, 292.407
407.681, 490.545
409.025, 371.451
410.369, 466.875
411.712, 434.545
413.055, 411.042
414.398, 389.700
415.741, 362.058
417.084, 354.529
418.426, 273.010
419.768, 288.355
421.110, 226.003
422.452, 244.592
423.793, 252.008
425.134, 215.008
426.475, 236.307
427.816, 261.287
429.157, 213.942
430.497, 202.845
431.837, 90.247
433.177, 147.164
434.517, 128.360
435.857, 86.602
437.196, 212.379
438.535, 72.591
439.874, 65.758
441.213, 93.637
442.551, 181.112
443.889, 115.139
445.227, 33.565
446.565, 63.155
447.903, 19.752
449.240, 63.849
450.577, 6.511
451.914, 59.499
453.251, 50.459
454.588, 49.871
455.924, 50.079
457.260, 18.436
458.596, 5.940
459.932, 8.981
461.267, 86.387
462.602, 62.615
463.938, 9.413
465.272, 110.695
466.607, 51.564
467.941, 35.495
469.276, 75.454
470.610, 101.024
471.943, 62.983
473.277, 26.362
474.610, 5.319
475.944, 96.613
477.276, 131.278
478.609, 122.565
479.942, 141.959
481.274, 158.922
482.606, 130.428
483.938, 147.394
485.270, 222.803
486.601, 156.641
487.932, 160.370
489.263, 263.201
490.594, 259.972
491.925, 300.994
493.255, 311.739
494.585, 332.197
495.915, 338.103
497.245, 302.618
498.575, 390.276
499.904, 259.601
501.233, 410.438
502.562, 413.867
503.891, 276.117
505.219, 352.101
506.548, 339.917
507.876, 383.600
509.203, 330.855
510.531, 400.982
511.859, 490.195
513.186, 328.908
514.513, 506.974
515.840, 321.959
517.166, 400.098
518.493, 491.117
519.819, 372.644
521.145, 577.589
522.470, 452.829
523.796, 453.686
525.121, 399.937
526.446, 415.448
527.771, 513.387
529.096, 437.708
530.421, 582.667
531.745, 481.929
533.069, 439.166
534.393, 548.231
535.716, 450.494
537.040, 516.794
538.363, 523.351
539.686, 540.438
541.009, 539.921
542.331, 550.994
543.654, 588.678
544.976, 595.294
546.298, 515.827
547.620, 591.897
548.941, 437.394
550.263, 625.966
551.584, 498.591
552.905, 534.221
554.225, 492.852
555.546, 469.486
556.866, 464.131
558.186, 541.772
559.506, 485.420
560.826, 461.082
562.145, 341.746
563.465, 371.329
564.784, 321.009
566.103, 287.165
567.421, 343.863
568.740, 212.401
570.058, 294.142
571.376, 208.897
572.694, 352.657
574.011, 250.420
575.329, 154.144
576.646, 291.850
577.963, 133.243
579.279, 171.729
580.596, 155.965
581.912, 189.363
583.228, 115.812
584.544, 137.147
585.860, 118.583
587.175, 10.140
588.491, 35.532
589.806, 124.893
591.121, 24.189
592.435, 117.972
593.750, 47.068
595.064, 33.003
596.378, 151.473
597.692, 57.629
599.006, 129.230
600.319, 19.222
601.632, 8.590
602.945, 59.696
604.258, 16.479
605.571, 97.396
606.883, 59.609
608.195, 43.574
609.507, 161.162
610.819, 142.145
612.131, 18.896
613.442, 113.345
614.753, 119.345
616.064, 46.229
617.375, 180.959
618.685, 87.872
619.995, 4.626
621.306, 119.813
622.615, 227.807
623.925, 192.236
625.235, 314.430
626.544, 186.498
627.853, 193.816
629.162, 162.031
630.471, 253.324
631.779, 233.777
633.087, 287.721
634.395, 297.193
635.703, 239.824
637.011, 338.430
638.318, 448.132
639.625, 245.917
640.932, 394.598
642.239, 333.361
643.546, 338.380
644.852, 456.210
646.158, 307.069
647.464, 420.097
648.770, 432.126
650.076, 548.161
651.381, 617.200
652.686, 424.242
653.991, 652.291
655.296, 719.343
656.600, 530.403
657.905, 741.912
659.209, 693.983
660.513, 792.058
661.817, 895.038
663.120, 981.269
664.423, 1088.087
665.726, 1200.527
667.029, 1179.833
668.332, 1446.601
669.635, 1544.013
670.937, 1681.522
672.239, 1674.222
673.541, 1876.537
674.842, 1888.120
676.144, 2022.381
677.445, 2283.891
678.746, 2166.423
680.047, 2165.571
681.348, 2104.750
682.648, 1921.949
683.948, 1824.557
685.248, 1902.699
686.548, 1559.863
687.848, 1639.954
689.147, 1506.077
690.447, 1475.239
691.746, 1432.392
693.044, 1431.335
694.343, 1265.682
695.641, 1356.709
696.940, 1319.053
698.238, 1281.508
699.535, 1399.845
700.833, 1364.049
702.130, 1542.804
703.427, 1576.002
704.724, 1523.383
706.021, 1744.566
707.318, 1763.226
708.614, 1612.192
709.910, 1924.372
711.206, 1788.552
712.502, 1992.730
713.798, 1816.908
715.093, 1990.553
716.388, 2016.729
717.683, 1920.154
718.978, 2101.326
720.272, 2023.498
721.567, 2014.786
722.861, 2022.957
724.155, 1888.126
725.448, 1809.321
726.742, 1819.488
728.035, 1671.652
729.328, 1793.815
730.621, 1632.977
731.914, 1655.135
733.206, 1528.293
734.499, 1369.450
735.791, 1571.606
737.083, 1329.762
738.374, 1253.918
739.666, 1450.073
740.957, 1298.228
742.248, 1351.381
743.539, 1229.348
744.830, 1293.425
746.120, 1275.577
747.410, 1145.055
748.701, 1324.208
749.990, 1148.353
751.280, 1046.444
752.570, 1274.598
753.859, 1133.045
755.148, 1316.202
756.437, 1084.255
757.725, 1353.268
759.014, 1456.425
760.302, 1126.480
761.590, 1385.640
762.878, 1249.803
764.166, 1243.968
765.453, 1214.135
766.740, 1229.303
768.027, 1313.992
769.314, 1193.169
770.601, 1241.346
771.887, 1249.525
773.174, 1111.705
774.460, 1164.886
775.745, 1046.990
777.031, 1035.185
778.316, 1047.380
779.602, 895.575
780.887, 972.769
782.172, 911.966
783.456, 862.164
784.741, 785.377
786.025, 617.589
787.309, 708.805
788.593, 584.021
789.876, 454.236
791.160, 568.447
792.443, 375.656
793.726, 413.862
795.009, 475.064
796.291, 353.265
797.574, 442.460
798.856, 346.653
800.138, 298.841
801.420, 267.025
802.702, 275.206
803.983, 117.381
805.264, 90.552
806.545, 136.718
807.826, 182.879
809.107, 132.036
810.387, 160.188
811.667, 10.334
812.947, 136.471
814.227, 119.604
815.507, 0.731
816.786, 57.843
818.065, 31.050
819.344, 27.027
820.623, 30.096
821.902, 61.843
823.180, 23.172
824.459, 23.821
825.737, 10.179
827.014, 51.167
828.292, 72.852
829.569, 67.077
830.847, 71.000
832.124, 22.130
833.401, 105.712
834.677, 128.450
835.954, 32.685
837.230, 17.049
838.506, 95.229
839.782, 140.428
841.057, 29.920
842.333, 30.301
843.608, 94.713
844.883, 142.192
846.158, 9.763
847.433, 58.644
848.707, 7.044
849.981, 59.437
851.255, 32.821
852.529, 61.218
853.803, 3.609
855.076, 6.018
856.350, 94.343
857.623, 65.302
858.895, 126.002
860.168, 18.306
861.441, 9.401
862.713, 152.873
863.985, 388.141
865.257, 268.404
866.528, 126.666
867.800, 18.921
869.071, 195.167
870.342, 37.406
871.613, 234.638
872.884, 163.865
874.154, 69.085
875.425, 232.298
876.695, 191.508
877.965, 90.711
879.234, 242.910
880.504, 134.103
881.773, 141.290
883.042, 118.476
884.311, 177.656
885.580, 252.831
886.848, 128.000
888.117, 286.163
889.385, 144.320
890.653, 177.475
891.920, 346.623
893.188, 465.786
894.455, 599.943
895.722, 379.096
896.989, 281.243
898.256, 347.385
899.523, 299.522
900.789, 387.658
902.055, 561.787
903.321, 447.912
904.587, 446.031
905.852, 276.146
907.118, 386.262
908.383, 410.373
909.648, 304.479
910.913, 411.579
912.177, 296.673
913.442, 256.762
914.706, 438.845
915.970, 450.922
917.233, 430.993
918.497, 324.058
919.760, 421.118
921.024, 316.173
922.287, 373.224
923.550, 392.267
924.812, 429.304
926.075, 412.466
927.337, 463.360
928.599, 352.379
929.861, 436.392
931.122, 404.399
932.384, 289.399
933.645, 421.394
934.906, 278.381
936.167, 294.363
937.428, 373.347
938.688, 228.325
939.948, 409.296
941.208, 310.261
942.468, 287.220
943.728, 398.173
944.987, 298.118
946.247, 336.058
947.506, 399.993
948.765, 335.921
950.023, 360.845
951.282, 242.763
952.540, 371.674
953.798, 355.580
955.056, 311.479
956.314, 349.371
957.572, 428.256
958.829, 237.136
960.086, 433.009
961.343, 195.877
962.600, 369.739
963.856, 262.149
965.113, 154.000
966.369, 369.844
967.625, 254.782
968.881, 297.469
970.136, 302.567
971.392, 148.110
972.647, 260.658
973.902, 253.805
975.157, 156.310
976.411, 260.397
977.666, 253.621
978.920, 176.227
980.174, 279.791
981.428, 128.465
982.682, 396.887
983.935, 271.288
985.188, 233.070
986.441, 295.610
987.694, 195.341
988.947, 227.660
990.199, 199.601
991.452, 192.376
992.704, 218.294
993.956, 144.215
995.207, 269.989
996.459, 232.771
997.710, 294.763
998.961, 369.374
1000.212, 129.735
1001.463, 146.333
1002.714, 234.625
1003.964, 164.227
1005.214, 204.972
1006.464, 218.862
1007.714, 221.619
1008.964, 231.769
1010.213, 165.272
1011.462, 222.563
1012.711, 205.097
1013.960, 168.067
1015.209, 196.166
1016.457, 199.231
1017.705, 215.484
1018.954, 237.799
1020.201, 284.674
1021.449, 285.211
1022.697, 318.136
1023.944, 239.920
1025.191, 351.585
1026.438, 224.723
1027.685, 308.501
1028.931, 296.478
1030.177, 166.327
1031.423, 349.101
1032.669, 263.951
1033.915, 268.719
1035.161, 299.488
1036.406, 245.388
1037.651, 413.150
1038.896, 316.913
1040.141, 330.174
1041.386, 361.932
1042.630, 207.327
1043.874, 328.363
1045.118, 356.132
1046.362, 301.979
1047.606, 513.742
1048.849, 303.818
1050.092, 300.812
1051.336, 415.566
1052.578, 396.577
1053.821, 361.326
1055.064, 371.175
1056.306, 301.270
1057.548, 448.014
1058.790, 244.885
1060.032, 306.633
1061.273, 466.366
1062.515, 314.130
1063.756, 446.855
1064.997, 449.577
1066.237, 449.295
1067.478, 521.009
1068.718, 276.963
1069.959, 487.759
1071.199, 378.464
1072.438, 269.169
1073.678, 528.870
1074.918, 435.568
1076.157, 413.279
1077.396, 546.988
1078.635, 291.693
1079.873, 469.503
1081.112, 498.203
1082.350, 328.920
1083.588, 562.633
1084.826, 354.344
1086.064, 410.098
1087.301, 530.802
1088.539, 381.502
1089.776, 561.198
1091.013, 405.890
1092.250, 349.596
1093.486, 541.279
1094.723, 309.958
1095.959, 296.204
1097.195, 393.876
1098.431, 245.729
1099.666, 401.651
1100.902, 200.312
1102.137, 288.139
1103.372, 429.792
1104.607, 159.440
1105.842, 237.084
1107.076, 157.725
1108.311, 117.360
1109.545, 260.359
1110.779, 67.989
1112.012, 124.613
1113.246, 251.601
1114.479, 155.221
1115.712, 166.051
1116.945, 115.668
1118.178, 133.281
1119.411, 277.991
1120.643, 100.609
1121.875, 83.438
1123.108, 180.342
1124.339, 82.031
1125.571, 221.090
1126.802, 82.682
1128.034, 2.504
1129.265, 239.547
1130.496, 94.146
1131.727, 99.802
1132.957, 273.645
1134.187, 49.737
1135.418, 167.116
1136.648, 68.752
1137.877, 24.534
1139.107, 283.263
1140.336, 22.915
1141.566, 223.691
1142.795, 388.356
1144.023, 307.044
1145.252, 238.159
1146.480, 61.888
1147.709, 25.389
1148.937, 146.915
1150.165, 78.378
1151.392, 183.572
1152.620, 132.219
1153.847, 27.130
1155.074, 223.234
1156.301, 131.052
1157.528, 19.301
1158.755, 220.918
1159.981, 5.173
1161.207, 30.444
1162.433, 10.528
1163.659, 8.873
1164.885, 88.116
1166.110, 98.171
1167.336, 63.741
1168.561, 150.703
1169.786, 56.726
1171.010, 196.306
1172.235, 108.086
1173.459, 5.614
1174.683, 121.371
1175.907, 38.088
1177.131, 74.587
1178.355, 131.660
1179.578, 10.473
1180.801, 275.990
1182.024, 101.073
1183.247, 63.519
1184.470, 263.953
1185.692, 123.029
1186.915, 0.446
1188.137, 240.291
1189.359, 66.315
1190.580, 31.028
1191.802, 120.221
1193.023, 84.543
1194.244, 159.854
1195.465, 29.735
1196.686, 49.025
1197.907, 210.304
1199.127, 44.789
1200.347, 147.047
1201.567, 82.723
1202.787, 24.259
1204.007, 107.515
1205.226, 77.260
1206.446, 106.462
1207.665, 179.724
1208.884, 101.992
1210.102, 186.352
1211.321, 112.340
1212.539, 165.539
1213.758, 293.693
1214.976, 55.285
1216.193, 92.419
1217.411, 309.650
1218.628, 114.400
1219.846, 288.503
1221.063, 165.066
1222.280, 123.091
1223.496, 244.161
1224.713, 156.519
1225.929, 94.979
1227.145, 244.017
1228.361, 167.299
1229.577, 136.312
1230.793, 300.320
1232.008, 15.045
1233.223, 361.932
1234.438, 150.899
1235.653, 147.862
1236.868, 213.814
1238.082, 125.759
1239.297, 215.694
1240.511, 261.624
1241.725, 12.609
1242.938, 328.521
1244.152, 88.424
1245.365, 71.813
1246.578, 255.698
1247.791, 93.649
1249.004, 159.517
1250.217, 239.462
1251.429, 136.143
1252.642, 326.118
1253.854, 180.927
1255.066, 50.263
1256.277, 348.053
1257.489, 180.817
1258.700, 52.006
1259.911, 280.753
1261.122, 88.645
1262.333, 276.660
1263.544, 166.361
1264.754, 120.386
1265.964, 254.036
1267.174, 91.675
1268.384, 77.408
1269.594, 183.011
1270.803, 5.100
1272.013, 216.731
1273.222, 84.258
1274.431, 35.281
1275.640, 426.348
1276.848, 132.821
1278.057, 89.283
1279.265, 262.730
1280.473, 86.378
1281.681, 193.248
1282.888, 105.657
1284.096, 30.132
1285.303, 153.554
1286.510, 113.707
1287.717, 171.021
1288.924, 227.322
1290.131, 50.607
1291.337, 212.306
1292.543, 221.545
1293.749, 22.664
1294.955, 239.568
1296.161, 70.973
1297.366, 30.834
1298.571, 189.301
1299.777, 27.278
1300.981, 95.936
1302.186, 176.130
1303.391, 11.834
1304.595, 72.011
1305.799, 235.448
1307.003, 23.785
1308.207, 156.864
1309.411, 7.000
1310.614, 24.091
1311.818, 250.793
1313.021, 26.435
1314.224, 83.408
1315.426, 133.093
1316.629, 83.895
1317.831, 285.681
1319.033, 85.091
1320.235, 92.841
1321.437, 144.618
1322.639, 15.261
1323.840, 50.961
1325.042, 151.564
1326.243, 10.230
1327.444, 208.881
1328.644, 234.393
1329.845, 9.006
1331.045, 299.604
1332.245, 37.685
1333.445, 147.247
1334.645, 222.139
1335.845, 64.628
1337.044, 151.855
1338.244, 275.241
1339.443, 13.693
1340.642, 179.750
1341.840, 163.213
1343.039, 89.483
1344.237, 255.870
1345.435, 39.262
1346.633, 70.540
1347.831, 134.648
1349.029, 20.998
1350.226, 164.209
1351.424, 126.531
1352.621, 122.474
1353.818, 441.145
1355.014, 153.150
1356.211, 137.461
1357.407, 227.885
1358.604, 39.237
1359.800, 211.292
1360.995, 120.497
1362.191, 12.793
1363.387, 227.092
1364.582, 35.247
1365.777, 48.657
1366.972, 311.394
1368.167, 78.035
1369.361, 51.009
1370.556, 226.855
1371.750, 69.030
1372.944, 177.130
1374.138, 227.312
1375.331, 14.393
1376.525, 245.521
1377.718, 170.615
1378.911, 170.711
1380.104, 236.190
1381.297, 216.777
1382.490, 215.628
1383.682, 361.644
1384.874, 137.642
1386.066, 298.220
1387.258, 164.176
1388.450, 36.704
1389.641, 368.373
1390.833, 137.162
1392.024, 246.790
1393.215, 300.323
1394.406, 135.403
1395.596, 280.882
1396.787, 323.625
1397.977, 31.129
1399.167, 227.634
1400.357, 169.406
1401.547, 47.962
1402.736, 365.653
1403.925, 114.831
1405.115, 78.140
1406.304, 364.396
1407.492, 65.092
1408.681, 253.810
1409.870, 412.572
1411.058, 121.732
1412.246, 317.856
1413.434, 171.932
1414.622, 68.647
1415.809, 260.623
1416.997, 98.632
1418.184, 106.324
1419.371, 300.789
1420.558, 208.524
1421.744, 358.871
1422.931, 363.154
1424.117, 33.727
1425.303, 273.010
1426.489, 171.525
1427.675, 52.785
1428.861, 289.970
1430.046, 157.785
1431.231, 180.719
1432.416, 324.898
1433.601, 35.904
1434.786, 241.868
1435.970, 422.869
1437.155, 9.897
1438.339, 319.930
1439.523, 151.746
1440.707, 174.295
1441.890, 383.561
1443.074, 104.571
1444.257, 86.818
1445.440, 375.108
1446.623, 82.655
1447.806, 293.150
1448.989, 359.602
1450.171, 126.856
1451.353, 419.193
1452.535, 218.347
1453.717, 181.376
1454.899, 316.338
1456.080, 205.532
1457.262, 242.346
1458.443, 317.382
1459.624, 160.018
1460.805, 301.268
1461.985, 400.427
1463.166, 59.211
1464.346, 384.358
1465.526, 329.763
1466.706, 246.033
1467.886, 434.180
1469.065, 159.308
1470.245, 121.967
1471.424, 401.045
1472.603, 126.188
1473.782, 273.324
1474.960, 398.897
1476.139, 226.186
1477.317, 331.029
1478.495, 293.107
1479.673, 174.209
1480.851, 258.871
1482.029, 211.236
1483.206, 115.599
1484.383, 195.954
1485.560, 75.440
1486.737, 183.969
1487.914, 289.590
1489.091, 114.809
1490.267, 275.536
1491.443, 399.373
1492.619, 197.212
1493.795, 367.312
1494.971, 311.560
1496.146, 33.746
1497.322, 361.185
1498.497, 129.412
1499.672, 149.294
1500.846, 454.525
1502.021, 219.360
1503.196, 305.624
1504.370, 432.352
1505.544, 146.734
1506.718, 185.838
1507.892, 304.213
1509.065, 33.612
1510.238, 295.801
1511.412, 195.884
1512.585, 0.829
1513.758, 0.000
##END=



