##NAMES=Fluorapatite
##RRUFFID=R050369
##IDEAL CHEMISTRY=Ca_5_(PO_4_)_3_F
##LOCALITY=Russia
##OWNER=RRUFF
##SOURCE=Eugene Schlepp
##DESCRIPTION=Blueish-green hexagonal prismatic crystal
##STATUS=The identification of this mineral has been confirmed by X-ray diffraction and chemical analysis
##URL=rruff.info/R050369
##MEASURED CHEMISTRY=(Ca_0.99_Na_0.01_)_5_((P_0.98_S_0.02_)O_4_)_3_F_1.00_
##PIN_ID=L01431
##ORIENTATION=Laser parallel to -c* (0 0 -1). Fiducial mark perpendicular to laser is parallel to b [0 1 0]
107.0470, 0.0000000E+00
108.2800, 46.94336
109.5120, 110.5359
110.7440, 44.34180
111.9760, 4.009033
113.2080, 6.957520
114.4400, 63.98706
115.6710, 64.88721
116.9030, 58.34717
118.1340, 97.75562
119.3650, 47.52783
120.5960, 9.757568
121.8270, 66.38501
123.0580, 10.36157
124.2880, 71.64941
125.5190, 90.21997
126.7490, 96.04761
127.9790, 124.1101
129.2090, 204.3882
130.4390, 240.8574
131.6680, 309.4995
132.8980, 362.2969
134.1270, 453.2351
135.3560, 505.3008
136.5850, 736.4834
137.8140, 934.7786
139.0430, 1113.188
140.2710, 1405.702
141.5000, 1360.321
142.7280, 1261.048
143.9560, 963.8767
145.1840, 793.7986
146.4120, 599.8049
147.6390, 482.8872
148.8670, 378.0374
150.0940, 319.8965
151.3210, 348.5579
152.5490, 312.8696
153.7750, 407.2251
155.0020, 486.6191
156.2290, 544.0486
157.4550, 612.5090
158.6810, 726.9980
159.9080, 822.5122
161.1340, 783.0491
162.3590, 724.6062
163.5850, 678.1831
164.8110, 561.7949
166.0360, 541.4409
167.2610, 483.1453
168.4860, 487.9607
169.7110, 522.8574
170.9360, 539.7734
172.1610, 407.7085
173.3850, 378.6880
174.6100, 309.7068
175.8340, 327.8826
177.0580, 171.1831
178.2820, 198.4978
179.5050, 211.8269
180.7290, 98.15918
181.9520, 133.4744
183.1760, 175.8386
184.3990, 121.1812
185.6220, 140.5146
186.8450, 76.83325
188.0670, 46.13843
189.2900, 77.43506
190.5120, 64.72021
191.7340, 2.011719
192.9560, 23.24121
194.1780, 7.082764
195.4000, 44.70190
196.6220, 30.91138
197.8430, 86.10742
199.0640, 126.2905
200.2860, 102.4614
201.5070, 106.6199
202.7270, 48.76611
203.9480, 86.90063
205.1690, 83.02344
206.3890, 170.1343
207.6090, 68.23340
208.8290, 149.3213
210.0490, 84.39746
211.2690, 149.4619
212.4890, 198.5146
213.7080, 185.5559
214.9280, 204.5850
216.1470, 183.6025
217.3660, 180.5515
218.5850, 158.5999
219.8030, 155.7366
221.0220, 123.8884
222.2400, 99.99414
223.4590, 163.9758
224.6770, 131.4756
225.8950, 180.0154
227.1120, 134.5190
228.3300, 178.8926
229.5480, 277.1924
230.7650, 319.4753
231.9820, 320.9495
233.1990, 361.3555
234.4160, 362.7698
235.6330, 494.2227
236.8490, 380.5896
238.0660, 387.2112
239.2820, 395.9814
240.4980, 304.5735
241.7140, 336.7241
242.9300, 263.1340
244.1460, 181.5254
245.3610, 213.6482
246.5770, 196.6052
247.7920, 230.9055
249.0070, 230.0635
250.2220, 92.70337
251.4370, 70.97266
252.6510, 149.1499
253.8660, 202.2424
255.0800, 237.1689
256.2940, 306.1560
257.5080, 351.6621
258.7220, 420.2119
259.9360, 454.9070
261.1490, 504.5903
262.3630, 573.4631
263.5760, 771.3562
264.7890, 794.3215
266.0020, 932.0249
267.2150, 944.9385
268.4270, 1031.166
269.6400, 951.1621
270.8520, 1027.031
272.0640, 736.1243
273.2760, 641.8291
274.4880, 598.5542
275.7000, 580.2705
276.9120, 429.0425
278.1230, 504.7644
279.3340, 281.4885
280.5450, 265.2134
281.7560, 224.9385
282.9670, 261.6626
284.1780, 221.3862
285.3880, 221.1077
286.5980, 196.8267
287.8090, 233.5430
289.0190, 206.2561
290.2290, 174.9648
291.4380, 197.6689
292.6480, 175.3679
293.8570, 268.0620
295.0670, 226.7500
296.2760, 225.4314
297.4850, 192.1062
298.6930, 304.7744
299.9020, 245.4353
301.1110, 313.0889
302.3190, 407.7349
303.5270, 397.3730
304.7350, 400.0032
305.9430, 479.6245
307.1510, 485.2378
308.3580, 542.8420
309.5660, 503.4377
310.7730, 578.0239
311.9800, 567.6011
313.1870, 524.1682
314.3940, 483.7251
315.6010, 469.2712
316.8070, 481.8062
318.0130, 388.3303
319.2200, 284.8428
320.4260, 326.3435
321.6310, 286.8320
322.8370, 230.3071
324.0430, 278.7690
325.2480, 178.2178
326.4540, 187.6528
327.6590, 174.0747
328.8640, 138.4827
330.0680, 70.87671
331.2730, 65.25684
332.4780, 77.71533
333.6820, 56.06714
334.8860, 83.40479
336.0900, 10.27173
337.2940, 83.18042
338.4980, 81.61353
339.7010, 85.89014
340.9050, 0.8471680
342.1080, 44.90503
343.3110, 12.61255
344.5140, 10.12305
345.7170, 12.71045
346.9200, 43.46802
348.1220, 37.11206
349.3240, 124.3574
350.5270, 2.482178
351.7290, 36.87964
352.9310, 53.70410
354.1320, 15.18506
355.3340, 38.64990
356.5350, 25.08350
357.7370, 45.39990
358.9380, 55.85645
360.1390, 12.35107
361.3400, 40.67578
362.5400, 18.17627
363.7410, 18.65479
364.9410, 58.55615
366.1410, 12.18457
367.3410, 14.75586
368.5410, 13.48682
369.7410, 9.707031
370.9400, 8.844727
372.1400, 25.12842
373.3390, 31.37744
374.5380, 89.59180
375.7370, 52.19727
376.9360, 15.12793
378.1350, 59.58643
379.3330, 48.28125
380.5310, 42.72803
381.7300, 37.20068
382.9280, 56.96289
384.1260, 77.05371
385.3230, 56.81494
386.5210, 10.03711
387.7180, 37.80225
388.9160, 53.95996
390.1130, 3.718262
391.3100, 32.54248
392.5060, 5.800781
393.7030, 23.94385
394.9000, 55.67822
396.0960, 35.21631
397.2920, 36.68115
398.4880, 42.35645
399.6840, 68.74414
400.8800, 62.83252
402.0750, 158.6392
403.2710, 78.70654
404.4660, 0.3061520
405.6610, 65.76562
406.8560, 67.15625
408.0510, 55.58545
409.2450, 122.8779
410.4400, 77.31299
411.6340, 19.39014
412.8280, 64.65869
414.0220, 97.73096
415.2160, 46.82568
416.4100, 191.1040
417.6030, 139.2173
418.7970, 176.1968
419.9900, 131.0815
421.1830, 303.8809
422.3760, 265.6626
423.5690, 344.4258
424.7610, 386.1714
425.9540, 361.8984
427.1460, 461.6069
428.3380, 541.2959
429.5300, 546.9648
430.7220, 619.6152
431.9140, 636.2466
433.1050, 808.8594
434.2970, 895.4536
435.4880, 959.0488
436.6790, 998.6260
437.8700, 1195.184
439.0610, 1262.726
440.2510, 1544.250
441.4420, 1530.753
442.6320, 1835.237
443.8220, 2008.702
445.0120, 2016.146
446.2020, 2135.570
447.3910, 2109.974
448.5810, 2089.356
449.7700, 1954.718
450.9600, 1911.064
452.1490, 1735.390
453.3370, 1507.695
454.5260, 1451.985
455.7150, 1129.255
456.9030, 1076.504
458.0910, 928.7319
459.2800, 765.9395
460.4670, 696.1313
461.6550, 631.3042
462.8430, 525.4551
464.0300, 483.5972
465.2180, 426.7178
466.4050, 453.8188
467.5920, 386.8984
468.7790, 311.9565
469.9650, 217.9927
471.1520, 325.0073
472.3380, 260.0054
473.5250, 295.9355
474.7110, 139.8179
475.8970, 224.7261
477.0820, 193.5186
478.2680, 210.4019
479.4540, 124.3687
480.6390, 129.2021
481.8240, 201.0005
483.0090, 243.7930
484.1940, 43.13379
485.3780, 50.71826
486.5630, 153.1382
487.7470, 113.1455
488.9320, 175.6997
490.1160, 103.3936
491.3000, 83.32812
492.4830, 204.2847
493.6670, 4.329590
494.8500, 41.86377
496.0340, 63.76904
497.2170, 64.40723
498.4000, 3.145508
499.5820, 93.02490
500.7650, 56.54834
501.9480, 44.44824
503.1300, 81.59326
504.3120, 36.92920
505.4940, 73.13525
506.6760, 1.452637
507.8580, 16.82080
509.0390, 21.03516
510.2210, 6.895996
511.4020, 1.361816
512.5830, 73.70361
513.7640, 49.45361
514.9450, 50.52246
516.1250, 54.86914
517.3060, 48.94434
518.4860, 22.00977
519.6660, 24.61182
520.8460, 14.30273
522.0260, 57.50000
523.2060, 38.59473
524.3850, 13.33203
525.5650, 21.51221
526.7440, 91.20801
527.9230, 14.17383
529.1020, 57.15674
530.2810, 48.15381
531.4590, 56.28223
532.6380, 35.42432
533.8160, 69.88965
534.9940, 11.75684
536.1720, 39.41748
537.3500, 57.05469
538.5270, 93.39453
539.7050, 39.08545
540.8820, 103.7153
542.0590, 91.24658
543.2360, 61.45801
544.4130, 6.267578
545.5900, 24.05371
546.7660, 50.60986
547.9430, 62.67188
549.1190, 48.89111
550.2950, 76.59033
551.4710, 38.16553
552.6470, 119.1724
553.8220, 67.82910
554.9980, 109.7061
556.1730, 99.70215
557.3480, 51.02441
558.5230, 86.24805
559.6980, 119.6855
560.8730, 137.8965
562.0470, 169.0317
563.2220, 192.8687
564.3960, 217.3340
565.5700, 244.4907
566.7440, 264.9468
567.9170, 294.2744
569.0910, 314.4062
570.2640, 361.3672
571.4380, 600.5977
572.6110, 533.7871
573.7840, 885.0342
574.9570, 979.3711
576.1290, 1122.195
577.3020, 1621.655
578.4740, 2167.810
579.6460, 2688.640
580.8180, 3135.830
581.9900, 3091.816
583.1620, 2773.884
584.3330, 2169.771
585.5040, 1601.663
586.6760, 1093.463
587.8470, 839.2197
589.0180, 907.9238
590.1880, 806.6626
591.3590, 810.3633
592.5290, 842.0220
593.7000, 715.8130
594.8700, 680.8442
596.0400, 628.3291
597.2090, 611.2666
598.3790, 603.5825
599.5490, 676.3657
600.7180, 707.1494
601.8870, 841.9131
603.0560, 1105.474
604.2250, 1336.560
605.3940, 1746.121
606.5620, 2044.798
607.7300, 2211.289
608.8990, 2064.583
610.0670, 1662.904
611.2350, 1406.156
612.4020, 1163.555
613.5700, 1022.964
614.7370, 1035.421
615.9050, 927.4468
617.0720, 1034.840
618.2390, 811.0737
619.4060, 763.6313
620.5720, 537.8672
621.7390, 478.6289
622.9050, 325.9282
624.0710, 261.2261
625.2370, 303.8516
626.4030, 177.2153
627.5690, 106.3574
628.7340, 167.3325
629.9000, 118.1133
631.0650, 195.1758
632.2300, 99.68604
633.3950, 131.8237
634.5600, 86.19141
635.7240, 48.36963
636.8890, 67.02441
638.0530, 131.8389
639.2170, 230.3228
640.3810, 106.5015
641.5450, 28.47168
642.7080, 150.8662
643.8720, 147.1025
645.0350, 108.2314
646.1980, 95.36426
647.3610, 113.9160
648.5240, 93.85059
649.6870, 200.7212
650.8490, 173.5762
652.0120, 139.0244
653.1740, 164.4116
654.3360, 105.4565
655.4980, 97.20898
656.6600, 95.12646
657.8210, 253.4004
658.9830, 221.8970
660.1440, 135.6802
661.3050, 185.2842
662.4660, 67.58838
663.6270, 119.1938
664.7870, 126.9922
665.9480, 224.8936
667.1080, 167.9233
668.2680, 230.6885
669.4280, 115.2251
670.5880, 218.6147
671.7480, 131.1865
672.9070, 131.1001
674.0670, 165.5688
675.2260, 197.2939
676.3850, 116.2720
677.5440, 92.96338
678.7030, 30.79492
679.8610, 44.22119
681.0200, 88.06250
682.1780, 105.8125
683.3360, 65.11914
684.4940, 126.7227
685.6520, 88.74805
686.8090, 162.0742
687.9670, 119.2671
689.1240, 141.5317
690.2810, 161.6353
691.4380, 164.4556
692.5950, 184.0981
693.7520, 197.3823
694.9080, 198.3228
696.0650, 36.41895
697.2210, 148.5830
698.3770, 39.22363
699.5330, 140.4258
700.6880, 49.74023
701.8440, 30.35156
702.9990, 135.1162
704.1550, 33.49561
705.3100, 125.7061
706.4650, 79.91309
707.6190, 121.0854
708.7740, 156.5679
709.9290, 86.57568
711.0830, 90.71240
712.2370, 74.78125
713.3910, 47.88916
714.5450, 59.61084
715.6980, 35.63281
716.8520, 94.31787
718.0050, 4.097168
719.1580, 73.71240
720.3110, 116.2939
721.4640, 90.84521
722.6170, 130.8960
723.7700, 124.0522
724.9220, 139.9995
726.0740, 144.5015
727.2260, 151.0059
728.3780, 136.4102
729.5300, 1.749512
730.6810, 143.1826
731.8330, 105.5728
732.9840, 4.708984
734.1350, 166.4819
735.2860, 65.64404
736.4370, 234.7725
737.5880, 76.10156
738.7380, 2.822266
739.8880, 68.20215
741.0390, 110.1953
742.1890, 24.84375
743.3380, 97.13477
744.4880, 63.24902
745.6380, 101.6504
746.7870, 142.8564
747.9360, 130.0273
749.0850, 140.0557
750.2340, 0.8994140
751.3830, 89.87891
752.5310, 71.97559
753.6800, 146.7725
754.8280, 74.63867
755.9760, 106.5342
757.1240, 39.30078
758.2720, 71.16602
759.4190, 188.8477
760.5670, 81.38281
761.7140, 46.66406
762.8610, 122.9688
764.0080, 196.6816
765.1550, 98.12109
766.3020, 98.38867
767.4480, 201.5801
768.5950, 55.77832
769.7410, 20.30762
770.8870, 89.60156
772.0330, 12.48047
773.1780, 297.7588
774.3240, 90.28613
775.4690, 3.875000
776.6140, 120.6172
777.7590, 1.241211
778.9040, 25.32227
780.0490, 94.70605
781.1940, 162.3887
782.3380, 135.1240
783.4820, 163.7549
784.6260, 120.1494
785.7700, 117.5996
786.9140, 133.9033
788.0580, 82.51953
789.2010, 81.10059
790.3450, 62.51367
791.4880, 113.0000
792.6310, 176.2100
793.7730, 133.3594
794.9160, 43.47070
796.0590, 189.8848
797.2010, 110.2754
798.3430, 136.4707
799.4850, 39.80469
800.6270, 5.344727
801.7690, 87.67188
802.9100, 65.70117
804.0520, 101.9043
805.1930, 61.04395
806.3340, 14.19336
807.4750, 112.0557
808.6160, 149.1553
809.7560, 44.05566
810.8970, 195.9238
812.0370, 78.91016
813.1770, 28.90234
814.3170, 110.6299
815.4570, 82.26270
816.5960, 116.6045
817.7360, 73.97559
818.8750, 75.50000
820.0140, 153.0703
821.1530, 198.4443
822.2920, 189.2598
823.4310, 115.4795
824.5690, 152.1855
825.7070, 94.68652
826.8460, 21.25098
827.9840, 8.130859
829.1220, 71.45117
830.2590, 99.02832
831.3970, 4.421875
832.5340, 172.0879
833.6710, 88.00586
834.8080, 108.3672
835.9450, 25.45117
837.0820, 103.7236
838.2190, 40.59961
839.3550, 18.35156
840.4910, 79.56445
841.6270, 111.3291
842.7630, 104.4561
843.8990, 104.3945
845.0350, 28.48145
846.1700, 128.6865
847.3060, 89.57617
848.4410, 14.54395
849.5760, 80.21875
850.7100, 150.1572
851.8450, 22.88574
852.9800, 171.2412
854.1140, 110.8545
855.2480, 151.7422
856.3820, 141.2217
857.5160, 147.8564
858.6500, 10.63770
859.7830, 31.99219
860.9170, 21.56836
862.0500, 117.1826
863.1830, 108.4463
864.3160, 124.4121
865.4480, 131.9453
866.5810, 98.46875
867.7130, 100.9863
868.8460, 17.32324
869.9780, 219.3711
871.1100, 207.9180
872.2410, 147.0215
873.3730, 70.58594
874.5050, 122.6895
875.6360, 205.7471
876.7670, 188.7783
877.8980, 163.9658
879.0290, 101.5801
880.1590, 60.67285
881.2900, 3.601563
882.4200, 21.66602
883.5500, 21.87988
884.6800, 48.01953
885.8100, 35.75000
886.9400, 88.14648
888.0690, 6.055664
889.1990, 66.86914
890.3280, 41.97559
891.4570, 26.75977
892.5860, 73.34375
893.7140, 43.83691
894.8430, 51.77246
895.9710, 78.83008
897.1000, 15.55469
898.2280, 92.98926
899.3560, 15.32910
900.4830, 56.57422
901.6110, 45.91992
902.7380, 102.5332
903.8660, 35.35547
904.9930, 22.40527
906.1200, 58.26855
907.2460, 92.60254
908.3730, 21.86523
909.5000, 71.84473
910.6260, 67.12305
911.7520, 165.1992
912.8780, 22.58008
914.0040, 108.3242
915.1290, 26.07910
916.2550, 78.31348
917.3800, 51.81934
918.5050, 30.19727
919.6300, 65.68262
920.7550, 63.93652
921.8800, 99.25000
923.0040, 90.58008
924.1290, 123.6836
925.2530, 93.76953
926.3770, 97.76953
927.5010, 80.96973
928.6250, 73.83594
929.7480, 90.52344
930.8720, 75.53711
931.9950, 120.9844
933.1180, 153.1270
934.2410, 160.8994
935.3640, 149.1504
936.4860, 192.5107
937.6090, 137.5254
938.7310, 231.4395
939.8530, 214.4971
940.9750, 375.3750
942.0970, 582.7158
943.2180, 652.7930
944.3400, 653.0156
945.4610, 822.7744
946.5820, 1079.085
947.7030, 1360.994
948.8240, 1545.602
949.9450, 1662.629
951.0650, 1913.532
952.1860, 2606.574
953.3060, 3062.433
954.4260, 4012.294
955.5460, 5191.475
956.6650, 7388.711
957.7850, 10061.94
958.9040, 13763.95
960.0230, 18592.10
961.1420, 24963.01
962.2610, 33244.48
963.3800, 42898.64
964.4990, 49697.44
965.6170, 50930.34
966.7350, 44473.75
967.8530, 33349.90
968.9710, 23089.76
970.0890, 15524.26
971.2070, 10350.82
972.3240, 7092.889
973.4410, 5128.556
974.5580, 3503.679
975.6750, 2512.678
976.7920, 1797.634
977.9090, 1287.959
979.0250, 1166.881
980.1410, 854.4580
981.2580, 675.8516
982.3740, 422.7031
983.4890, 488.5869
984.6050, 347.3955
985.7200, 339.7754
986.8360, 244.3555
987.9510, 226.4580
989.0660, 245.4307
990.1810, 106.5303
991.2950, 193.6270
992.4100, 40.71973
993.5240, 76.04883
994.6390, 151.6973
995.7530, 78.29004
996.8660, 67.29492
997.9800, 186.2637
999.0940, 35.30078
1000.207, 156.3691
1001.320, 86.30469
1002.433, 151.2529
1003.546, 368.8379
1004.659, 257.9111
1005.772, 555.9814
1006.884, 693.0518
1007.996, 1002.891
1009.108, 966.9482
1010.220, 1101.020
1011.332, 987.0889
1012.444, 1104.159
1013.555, 846.1680
1014.666, 848.0088
1015.777, 458.5312
1016.888, 426.2178
1017.999, 306.9082
1019.110, 257.7119
1020.220, 285.4658
1021.331, 346.4512
1022.441, 326.0879
1023.551, 421.1875
1024.661, 394.8252
1025.770, 607.5859
1026.880, 688.4434
1027.989, 834.1689
1029.098, 1024.051
1030.207, 1228.051
1031.316, 1322.601
1032.425, 1680.425
1033.533, 1808.142
1034.642, 1642.113
1035.750, 1477.966
1036.858, 1287.122
1037.966, 1053.036
1039.073, 786.4443
1040.181, 601.5107
1041.288, 416.7461
1042.396, 461.3848
1043.503, 463.6172
1044.610, 286.8379
1045.716, 377.1396
1046.823, 372.2021
1047.929, 383.5215
1049.036, 424.6426
1050.142, 293.0234
1051.248, 389.3086
1052.353, 428.5244
1053.459, 560.8965
1054.564, 759.2988
1055.670, 796.7412
1056.775, 981.1885
1057.880, 1372.641
1058.985, 1368.098
1060.089, 1465.561
1061.194, 1529.029
1062.298, 1257.502
1063.402, 888.9795
1064.506, 633.4619
1065.610, 594.9492
1066.713, 416.4424
1067.817, 480.9404
1068.920, 476.4443
1070.023, 443.7715
1071.126, 347.4854
1072.229, 463.0146
1073.332, 422.5508
1074.435, 424.0928
1075.537, 533.6436
1076.639, 748.1992
1077.741, 733.7617
1078.843, 783.3301
1079.945, 877.9033
1081.046, 847.4834
1082.148, 756.0703
1083.249, 654.6631
1084.350, 564.2637
1085.451, 477.6787
1086.551, 384.4805
1087.652, 282.0996
1088.752, 205.7236
1089.853, 49.35352
1090.953, 289.9873
1092.053, 119.6279
1093.152, 255.2734
1094.252, 43.92676
1095.351, 131.5879
1096.451, 23.26172
1097.550, 44.94434
1098.649, 52.63379
1099.748, 38.33496
1100.846, 67.04395
1101.945, 24.24219
1103.043, 78.47266
1104.141, 60.80371
1105.239, 148.9062
1106.337, 183.3760
1107.434, 39.73242
1108.532, 91.90625
1109.629, 147.4482
1110.726, 4.139648
1111.823, 112.7344
1112.920, 17.66113
1114.017, 114.9453
1115.113, 128.5576
1116.210, 93.18652
1117.306, 111.8232
1118.402, 101.5098
1119.498, 81.20508
1120.593, 157.9062
1121.689, 52.61328
1122.784, 117.3262
1123.879, 209.0449
1124.974, 258.7705
1126.069, 215.5088
1127.164, 121.2549
1128.259, 50.00977
1129.353, 36.77051
1130.447, 219.5381
1131.541, 202.3115
1132.635, 182.0918
1133.729, 157.8789
1134.822, 178.6699
1135.916, 84.47168
1137.009, 154.2783
1138.102, 214.0908
1139.195, 182.9102
1140.288, 97.73633
1141.380, 19.56738
1142.473, 168.4062
1143.565, 269.2500
1144.657, 337.1006
1145.749, 217.9561
1146.841, 169.8203
1147.932, 127.8418
1149.024, 188.7217
1150.115, 133.6104
1151.206, 95.50586
1152.297, 142.4082
1153.388, 115.3174
1154.479, 213.3330
1155.569, 129.2559
1156.659, 219.1865
1157.750, 315.1240
1158.839, 185.0908
1159.929, 354.0762
1161.019, 219.0693
1162.108, 278.0693
1163.198, 126.0879
1164.287, 186.2031
1165.376, 310.7305
1166.465, 171.1396
1167.553, 106.2422
1168.642, 169.3496
1169.730, 113.4160
1170.818, 200.1621
1171.906, 175.3242
1172.994, 221.9043
1174.082, 309.1357
1175.170, 176.2900
1176.257, 240.4473
1177.344, 203.6084
1178.431, 150.9902
1179.518, 193.7480
1180.605, 319.7891
1181.691, 139.9648
1182.778, 197.8145
1183.864, 51.99805
1184.950, 96.41016
1186.036, 306.1387
1187.122, 188.3320
1188.207, 193.5254
1189.292, 264.7227
1190.378, 91.92383
1191.463, 60.12500
1192.548, 28.32812
1193.632, 202.5352
1194.717, 232.7422
1195.801, 190.9531
1196.886, 182.1660
1197.970, 326.3809
1199.054, 313.5977
1200.137, 220.8164
1201.221, 118.0391
1202.305, 74.26172
1203.388, 312.4863
1204.471, 62.71289
1205.554, 197.9414
1206.637, 212.1738
1207.719, 130.4082
1208.802, 262.6445
1209.884, 189.8828
1210.966, 266.1230
1212.048, 446.3652
1213.130, 259.6113
1214.212, 416.8594
1215.293, 251.1074
1216.374, 252.3594
1217.456, 398.6113
1218.536, 261.8652
1219.617, 237.1191
1220.698, 270.3750
1221.778, 364.6328
1222.859, 173.8926
1223.939, 377.1543
1225.019, 414.4141
1226.099, 297.6777
1227.178, 152.9434
1228.258, 401.2070
1229.337, 152.4746
1230.417, 218.7402
1231.496, 311.0098
1232.574, 245.7031
1233.653, 436.9727
1234.732, 311.1074
1235.810, 223.3789
1236.888, 302.0039
1237.966, 297.1035
1239.044, 265.3770
1240.122, 101.2539
1241.199, 256.5312
1242.277, 193.1641
1243.354, 178.0723
1244.431, 229.3555
1245.508, 311.6387
1246.585, 348.9238
1247.661, 253.2109
1248.738, 238.5000
1249.814, 214.7871
1250.890, 279.0781
1251.966, 188.3672
1253.042, 248.6602
1254.117, 201.9512
1255.193, 343.2461
1256.268, 153.5410
1257.343, 261.8340
1258.418, 357.1309
1259.493, 208.4258
1260.567, 270.7246
1261.642, 190.0234
1262.716, 409.3242
1263.790, 240.6250
1264.864, 189.9258
1265.938, 311.2285
1267.011, 72.52930
1268.085, 45.83789
1269.158, 201.1445
1270.231, 106.4512
1271.304, 97.75977
1272.377, 176.0684
1273.450, 259.3750
1274.522, 309.6855
1275.594, 277.9980
1276.666, 7.308594
1277.738, 333.6211
1278.810, 167.9316
1279.882, 180.2441
1280.953, 298.5566
1282.025, 67.87109
1283.096, 39.81836
1284.167, 165.4668
1285.238, 44.75000
1286.308, 160.0332
1287.379, 97.31836
1288.449, 222.6016
1289.519, 65.88477
1290.589, 184.1680
1291.659, 166.7871
1292.729, 17.86133
1293.798, 9.857422
1294.868, 23.59180
1295.937, 67.65039
1297.006, 31.89258
1298.075, 42.86719
1299.143, 74.34180
1300.212, 129.4512
1301.280, 40.32031
1302.348, 82.22461
1303.416, 56.82422
1304.484, 38.42969
1305.552, 60.91602
1306.620, 14.95898
1307.687, 25.99805
1308.754, 125.9785
1309.821, 170.9648
1310.888, 27.08984
1311.955, 224.8281
1313.021, 92.25391
1314.088, 193.6035
1315.154, 115.4609
1316.220, 228.3184
1317.286, 44.17383
1318.352, 209.0273
1319.417, 263.8809
1320.483, 219.7324
1321.548, 406.5840
1322.613, 260.4336
1323.678, 456.2812
1324.743, 325.1289
1325.807, 337.9766
1326.872, 349.8203
1327.936, 185.6641
1329.000, 223.5039
1330.064, 392.3418
1331.128, 326.1797
1332.191, 223.0176
1333.255, 295.8516
1334.318, 259.1387
1335.381, 103.9707
1336.444, 316.8008
1337.507, 172.6289
1338.569, 97.45508
1339.632, 387.2812
1340.694, 174.8047
1341.756, 263.6250
1342.818, 335.4473
1343.880, 276.2656
1344.941, 151.0801
1346.003, 212.8926
1347.064, 248.7012
1348.125, 249.5098
1349.186, 300.3164
1350.247, 290.0000
1351.308, 343.9219
1352.368, 283.7227
1353.428, 245.5195
1354.489, 247.0273
1355.549, 193.1094
1356.608, 240.9004
1357.668, 262.6875
1358.727, 240.4746
1359.787, 293.2871
1360.846, 256.0527
1361.905, 303.8242
1362.964, 218.6133
1364.022, 100.4004
1365.081, 105.2285
1366.139, 259.0566
1367.197, 369.8848
1368.255, 115.7402
1369.313, 13.59180
1370.371, 247.4414
1371.428, 216.2773
1372.486, 224.0957
1373.543, 319.9082
1374.600, 302.7188
1375.657, 242.5234
1376.713, 98.32812
1377.770, 280.1309
1378.826, 144.9297
1379.882, 273.7305
1380.938, 183.5293
1381.994, 337.3281
1383.050, 300.1230
1384.106, 306.9219
1385.161, 249.7188
1386.216, 278.5156
1387.271, 255.7598
1388.326, 236.5566
1389.381, 274.3535
1390.435, 232.1484
1391.490, 264.9434
1392.544, 276.7344
1393.598, 82.52344
1394.652, 345.3496
1395.705, 35.12891
1396.759, 149.9121
1397.812, 153.6934
1398.866, 56.47461
1399.919, 124.2559
1400.972, 79.03711
1402.024, 241.8184
1403.077, 85.59961
1404.129, 243.0098
1405.181, 348.7930
1406.233, 241.5762
1407.285, 206.3594
1408.337, 253.1406
1409.389, 142.9258
1410.440, 301.6152
1411.491, 291.4023
1412.542, 372.1914
1413.593, 386.2559
1414.644, 129.7832
1415.695, 275.5840
1416.745, 260.3848
1417.795, 4.806641
1418.845, 28.01172
1419.895, 212.7246
1420.945, 231.0645
1421.995, 236.5312
1423.044, 227.3086
1424.093, 267.0938
1425.142, 271.3086
1426.191, 291.1016
1427.240, 283.6719
1428.289, 282.8223
1429.337, 237.8281
1430.385, 280.6270
1431.433, 209.4316
1432.481, 221.2441
1433.529, 135.8457
1434.577, 357.9238
1435.624, 235.8926
1436.672, 176.7402
1437.719, 352.9277
1438.766, 144.7988
1439.812, 308.8691
1440.859, 435.7148
1441.905, 123.5723
1442.952, 195.3730
1443.998, 192.1758
1445.044, 247.9746
1446.090, 95.77344
1447.135, 108.5840
1448.181, 135.4238
1449.226, 191.3320
1450.271, 224.1270
1451.316, 188.9199
1452.361, 122.7090
1453.405, 290.4961
1454.450, 117.2812
1455.494, 110.0586
1456.538, 215.8320
1457.582, 373.6016
1458.626, 211.3633
1459.670, 9.878906
1460.713, 164.8750
1461.757, 118.6250
1462.800, 55.37500
1463.843, 194.1191
1464.886, 151.8613
1465.928, 14.39844
1466.971, 216.3359
1468.013, 169.0684
1469.055, 265.7988
1470.097, 162.5254
1471.139, 64.24609
1472.181, 103.5273
1473.222, 104.5234
1474.263, 109.9375
1475.305, 165.6328
1476.346, 317.3242
1477.386, 202.0098
1478.427, 266.6934
1479.468, 393.3711
1480.508, 213.0391
1481.548, 393.6992
1482.588, 175.3516
1483.628, 18.00000
1484.668, 251.6328
1485.707, 63.25195
1486.747, 166.8672
1487.786, 47.47656
1488.825, 254.0723
1489.864, 262.6582
1490.902, 252.2344
1491.941, 256.8008
1492.979, 176.4023
1494.017, 197.9980
1495.055, 254.5801
1496.093, 297.0098
1497.131, 398.0020
1498.168, 329.5059
1499.206, 274.0176
1500.243, 193.5684
1501.280, 305.2676
1502.317, 266.0645
1503.354, 190.8574
1504.390, 244.6641
1505.426, 136.6191
1506.463, 286.6152
1507.499, 235.7207
1508.535, 443.8281
1509.570, 253.9434
1510.606, 318.0605
1511.641, 12.81641
1512.676, 219.3066
1513.711, 323.4414
1514.746, 165.5820
1515.781, 223.7285
1516.816, 182.8945
1517.850, 227.0410
1518.884, 22.80273
1519.918, 363.7461
1520.952, 240.8926
1521.986, 3.050781
1523.019, 330.2246
1524.053, 170.4219
1525.086, 215.6309
1526.119, 92.85547
1527.152, 271.0996
1528.185, 17.63672
1529.217, 177.6504
1530.250, 146.9609
1531.282, 146.2969
1532.314, 161.6641
1533.346, 241.0645
1534.377, 149.5000
1535.409, 43.10352
1536.440, 222.8301
1537.472, 199.6094
1538.503, 108.4395
1539.534, 112.3203
1540.564, 145.2461
1541.595, 18.20898
1542.625, 185.3926
1543.656, 325.3828
1544.686, 181.4219
1545.716, 190.5586
1546.745, 295.9434
1547.775, 167.0879
1548.804, 119.3008
1549.834, 180.5820
1550.863, 217.6133
1551.892, 173.0293
1552.920, 15.86328
1553.949, 145.5020
1554.977, 58.92773
1556.006, 105.3945
1557.034, 217.9043
1558.062, 11.47656
1559.089, 83.26562
1560.117, 63.26758
1561.144, 367.5820
1562.172, 154.2559
1563.199, 270.7305
1564.226, 325.8379
1565.252, 284.0137
1566.279, 172.8047
1567.305, 129.1191
1568.332, 51.05859
1569.358, 151.4531
1570.384, 9.421875
1571.409, 217.6035
1572.435, 0.0000000E+00
##END=



