##NAMES=Fluorapatite
##RRUFFID=R050194
##IDEAL CHEMISTRY=Ca_5_(PO_4_)_3_F
##LOCALITY=Siglo XX mine, Llallagua, Bolivia
##OWNER=RRUFF
##SOURCE=Dave Bunk Minerals
##DESCRIPTION=Purple crystal fragments
##STATUS=The identification of this mineral has been confirmed by X-ray diffraction and chemical analysis
##URL=rruff.info/R050194
##MEASURED CHEMISTRY=Ca_5.00_(P_1.00_O_4_)_3_F_1.00_
##PIN_ID=L01106
##ORIENTATION=Laser parallel to -c* (0 0 -1). Fiducial mark perpendicular to laser is parallel to -a [-1 0 0]
134.1270, 0.0000000E+00
135.3560, 0.3774410
136.5850, 130.0200
137.8140, 68.86816
139.0430, 69.24756
140.2710, 120.7085
141.5000, 57.36719
142.7280, 175.8843
143.9560, 172.8320
145.1840, 113.6558
146.4120, 39.85449
147.6390, 89.25732
148.8670, 43.79199
150.0940, 3.594238
151.3210, 9.068848
152.5490, 46.65039
153.7750, 19.64502
155.0020, 50.81982
156.2290, 92.96240
157.4550, 84.11133
158.6810, 135.4258
159.9080, 99.42285
161.1340, 78.11914
162.3590, 108.2388
163.5850, 65.70264
164.8110, 54.93701
166.0360, 49.73291
167.2610, 34.23584
168.4860, 58.73047
169.7110, 40.28857
170.9360, 158.2139
172.1610, 29.99170
173.3850, 167.4238
174.6100, 84.95947
175.8340, 165.8716
177.0580, 54.08691
178.2820, 121.5923
179.5050, 19.37842
180.7290, 47.26660
181.9520, 2.277344
183.1760, 53.56006
184.3990, 145.1089
185.6220, 51.46777
186.8450, 102.4678
188.0670, 18.94336
189.2900, 44.15625
190.5120, 109.2793
191.7340, 52.31934
192.9560, 40.86963
194.1780, 64.86572
195.4000, 41.08154
196.6220, 56.84766
197.8430, 83.65576
199.0640, 77.94287
200.2860, 95.52979
201.5070, 109.0947
202.7270, 71.37988
203.9480, 65.51807
205.1690, 77.96094
206.3890, 57.33252
207.6090, 67.41162
208.8290, 93.86963
210.0490, 54.25684
211.2690, 0.8188480
212.4890, 1.220703
213.7080, 88.86865
214.9280, 33.36768
216.1470, 149.9150
217.3660, 112.4121
218.5850, 7.234863
219.8030, 162.5557
221.0220, 21.40039
222.2400, 78.11133
223.4590, 59.36182
224.6770, 85.00977
225.8950, 117.4565
227.1120, 119.8340
228.3300, 140.8281
229.5480, 136.3408
230.7650, 142.1304
231.9820, 99.01221
233.1990, 75.06641
234.4160, 127.8110
235.6330, 82.47705
236.8490, 155.6226
238.0660, 204.9849
239.2820, 107.0249
240.4980, 93.72314
241.7140, 91.03564
242.9300, 77.74463
244.1460, 35.87695
245.3610, 5.223633
246.5770, 137.2988
247.7920, 116.4722
249.0070, 87.62402
250.2220, 99.58887
251.4370, 49.54883
252.6510, 45.74658
253.8660, 60.39551
255.0800, 97.35107
256.2940, 80.86230
257.5080, 120.8945
258.7220, 123.4844
259.9360, 55.43896
261.1490, 122.4951
262.3630, 82.12305
263.5760, 63.56543
264.7890, 146.4971
266.0020, 69.17236
267.2150, 106.2690
268.4270, 117.9766
269.6400, 124.5142
270.8520, 137.2041
272.0640, 100.7266
273.2760, 54.14746
274.4880, 122.3857
275.7000, 101.3975
276.9120, 53.91943
278.1230, 50.70264
279.3340, 121.0469
280.5450, 0.5600590
281.7560, 75.02002
282.9670, 121.9678
284.1780, 78.92041
285.3880, 16.81348
286.5980, 84.61230
287.8090, 1.571289
289.0190, 97.26465
290.2290, 66.68555
291.4380, 95.32812
292.6480, 130.3423
293.8570, 1.879883
295.0670, 134.0645
296.2760, 138.2905
297.4850, 50.10645
298.6930, 144.2632
299.9020, 23.35010
301.1110, 33.61523
302.3190, 72.77246
303.5270, 52.17676
304.7350, 72.86328
305.9430, 109.8511
307.1510, 14.14600
308.3580, 78.53906
309.5660, 144.3701
310.7730, 137.1831
311.9800, 149.0723
313.1870, 126.0371
314.3940, 98.89307
315.6010, 83.80273
316.8070, 27.75146
318.0130, 21.65576
319.2200, 105.9419
320.4260, 28.29736
321.6310, 49.42871
322.8370, 30.70605
324.0430, 89.25732
325.2480, 83.59521
326.4540, 28.60498
327.6590, 43.33203
328.8640, 92.94922
330.0680, 1.082031
331.2730, 80.13623
332.4780, 70.45361
333.6820, 70.20557
334.8860, 117.1133
336.0900, 194.8564
337.2940, 169.8657
338.4980, 56.64648
339.7010, 119.3271
340.9050, 63.11377
342.1080, 110.6929
343.3110, 119.5283
344.5140, 24.05029
345.7170, 102.1230
346.9200, 23.06641
348.1220, 13.44580
349.3240, 58.52588
350.5270, 32.92529
351.7290, 116.1572
352.9310, 58.35840
354.1320, 151.2417
355.3340, 157.5415
356.5350, 88.75684
357.7370, 76.24609
358.9380, 48.07227
360.1390, 83.88232
361.3400, 58.74854
362.5400, 62.12256
363.7410, 119.7725
364.9410, 33.70117
366.1410, 99.29980
367.3410, 39.31641
368.5410, 180.5576
369.7410, 25.60449
370.9400, 118.4375
372.1400, 50.83496
373.3390, 3.696289
374.5380, 60.48926
375.7370, 75.81055
376.9360, 95.95703
378.1350, 11.85938
379.3330, 72.99805
380.5310, 52.78223
381.7300, 77.66797
382.9280, 143.6787
384.1260, 105.1533
385.3230, 168.7432
386.5210, 47.06641
387.7180, 8.664063
388.9160, 109.3975
390.1130, 132.3096
391.3100, 192.4805
392.5060, 117.8545
393.7030, 97.76855
394.9000, 82.61426
396.0960, 174.4824
397.2920, 56.44824
398.4880, 15.10645
399.6840, 81.41797
400.8800, 31.19336
402.0750, 80.35840
403.2710, 5.380859
404.4660, 87.29199
405.6610, 109.0283
406.8560, 125.7080
408.0510, 93.77246
409.2450, 149.6143
410.4400, 78.85840
411.6340, 183.3418
412.8280, 72.89941
414.0220, 17.18652
415.2160, 75.96094
416.4100, 91.40332
417.6030, 69.35938
418.7970, 67.07129
419.9900, 31.02051
421.1830, 69.25586
422.3760, 97.87109
423.5690, 75.17383
424.7610, 83.18750
425.9540, 87.00781
427.1460, 81.15430
428.3380, 88.54199
429.5300, 103.6553
430.7220, 57.99219
431.9140, 108.7324
433.1050, 166.5791
434.2970, 105.8818
435.4880, 121.0703
436.6790, 183.5244
437.8700, 245.4590
439.0610, 130.2217
440.2510, 24.67871
441.4420, 166.2480
442.6320, 167.0146
443.8220, 120.4268
445.0120, 135.2285
446.2020, 149.7578
447.3910, 133.3115
448.5810, 135.3994
449.7700, 121.0078
450.9600, 183.8223
452.1490, 137.9102
453.3370, 132.0420
454.5260, 103.7949
455.7150, 73.95996
456.9030, 91.70703
458.0910, 68.75781
459.2800, 48.90527
460.4670, 153.4189
461.6550, 68.04688
462.8430, 147.6279
464.0300, 157.1709
465.2180, 171.5186
466.4050, 9.744141
467.5920, 65.05957
468.7790, 15.77246
469.9650, 115.2881
471.1520, 14.62695
472.3380, 142.8086
473.5250, 62.58789
474.7110, 37.25195
475.8970, 117.7051
477.0820, 92.40820
478.2680, 138.2393
479.4540, 50.83887
480.6390, 81.71973
481.8240, 115.7520
483.0090, 54.77637
484.1940, 108.5508
485.3780, 49.25977
486.5630, 113.2451
487.7470, 209.2100
488.9320, 230.2432
490.1160, 111.6152
491.3000, 167.3135
492.4830, 121.0215
493.6670, 68.81445
494.8500, 101.0918
496.0340, 178.6133
497.2170, 39.38086
498.4000, 215.2100
499.5820, 133.9688
500.7650, 145.5010
501.9480, 54.45898
503.1300, 111.0625
504.3120, 174.7812
505.4940, 94.97070
506.6760, 53.38086
507.8580, 42.98438
509.0390, 13.46680
510.2210, 142.3770
511.4020, 26.21094
512.5830, 205.2021
513.7640, 108.5059
514.9450, 72.89551
516.1250, 126.6162
517.3060, 78.40918
518.4860, 89.50781
519.6660, 109.4189
520.8460, 84.52051
522.0260, 119.7393
523.2060, 122.0215
524.3850, 80.08301
525.5650, 181.6895
526.7440, 128.0654
527.9230, 175.3330
529.1020, 83.82324
530.2810, 234.8721
531.4590, 128.2334
532.6380, 51.75977
533.8160, 128.2217
534.9940, 196.5537
536.1720, 211.9258
537.3500, 143.0713
538.5270, 10.43750
539.7050, 224.3574
540.8820, 184.4707
542.0590, 57.29199
543.2360, 56.15137
544.4130, 79.98242
545.5900, 28.11133
546.7660, 120.7725
547.9430, 80.49512
549.1190, 197.4121
550.2950, 75.93164
551.4710, 134.9902
552.6470, 98.58203
553.8220, 67.10742
554.9980, 124.8613
556.1730, 19.58691
557.3480, 38.05762
558.5230, 95.72070
559.6980, 209.9814
560.8730, 119.5576
562.0470, 229.6055
563.2220, 122.6025
564.3960, 23.67871
565.5700, 48.33496
566.7440, 56.77344
567.9170, 55.92383
569.0910, 89.57910
570.2640, 105.0156
571.4380, 122.6348
572.6110, 83.40039
573.7840, 7.396484
574.9570, 68.03125
576.1290, 109.4629
577.3020, 65.34473
578.4740, 149.2021
579.6460, 212.0850
580.8180, 328.8408
581.9900, 143.2910
583.1620, 175.5068
584.3330, 111.5654
585.5040, 262.3584
586.6760, 115.9639
587.8470, 84.46289
589.0180, 190.6416
590.1880, 87.97754
591.3590, 67.17969
592.5290, 218.2520
593.7000, 39.11523
594.8700, 107.6230
596.0400, 167.6836
597.2090, 228.4229
598.3790, 113.0869
599.5490, 59.27539
600.7180, 136.7676
601.8870, 82.17480
603.0560, 180.0586
604.2250, 85.09375
605.3940, 198.4453
606.5620, 253.6426
607.7300, 335.3760
608.8990, 177.8320
610.0670, 260.8096
611.2350, 61.31348
612.4020, 26.72656
613.5700, 216.8213
614.7370, 7.218750
615.9050, 238.9678
617.0720, 165.1055
618.2390, 170.9551
619.4060, 297.3848
620.5720, 184.0312
621.7390, 258.1855
622.9050, 69.38867
624.0710, 56.97949
625.2370, 104.5518
626.4030, 37.59570
627.5690, 147.2510
628.7340, 8.965820
629.9000, 35.35449
631.0650, 23.79785
632.2300, 8.449219
633.3950, 137.5244
634.5600, 99.77734
635.7240, 207.0303
636.8890, 17.21582
638.0530, 202.0967
639.2170, 135.5703
640.3810, 162.6475
641.5450, 256.8359
642.7080, 126.0400
643.8720, 57.11133
645.0350, 171.6123
646.1980, 161.2861
647.3610, 33.29688
648.5240, 91.86816
649.6870, 148.7471
650.8490, 295.9570
652.0120, 286.3457
653.1740, 91.45020
654.3360, 231.1992
655.4980, 162.0391
656.6600, 113.1016
657.8210, 158.4580
658.9830, 186.3105
660.1440, 173.1934
661.3050, 199.6250
662.4660, 150.5869
663.6270, 211.8691
664.7870, 141.4824
665.9480, 143.2207
667.1080, 217.0312
668.2680, 42.18750
669.4280, 280.9463
670.5880, 89.70312
671.7480, 4.910156
672.9070, 17.82227
674.0670, 283.9219
675.2260, 238.6152
676.3850, 263.1367
677.5440, 257.0527
678.7030, 286.1055
679.8610, 276.9727
681.0200, 193.8008
682.1780, 268.3066
683.3360, 224.9902
684.4940, 237.6367
685.6520, 239.0723
686.8090, 229.8965
687.9670, 183.4277
689.1240, 231.4785
690.2810, 142.4922
691.4380, 167.9883
692.5950, 272.3262
693.7520, 90.99023
694.9080, 234.3047
696.0650, 128.4121
697.2210, 82.05078
698.3770, 140.7148
699.5330, 52.85547
700.6880, 105.8125
701.8440, 157.2500
702.9990, 151.4766
704.1550, 133.1777
705.3100, 86.09180
706.4650, 64.27539
707.6190, 160.0352
708.7740, 204.1074
709.9290, 159.4785
711.0830, 63.73828
712.2370, 283.6113
713.3910, 171.7051
714.5450, 145.6797
715.6980, 276.0176
716.8520, 88.96875
718.0050, 38.78516
719.1580, 269.1582
720.3110, 198.7773
721.4640, 164.6191
722.6170, 186.5371
723.7700, 187.9805
724.9220, 232.9883
726.0740, 258.1367
727.2260, 333.9766
728.3780, 258.9023
729.5300, 260.0742
730.6810, 101.4297
731.8330, 90.17969
732.9840, 152.3535
734.1350, 63.67383
735.2860, 248.1465
736.4370, 269.7930
737.5880, 107.1992
738.7380, 61.83398
739.8880, 107.1816
741.0390, 130.6094
742.1890, 157.3848
743.3380, 77.40234
744.4880, 120.1758
745.6380, 124.0430
746.7870, 181.4961
747.9360, 185.7305
749.0850, 194.5684
750.2340, 184.4043
751.3830, 174.6973
752.5310, 116.0547
753.6800, 32.42773
754.8280, 23.57031
755.9760, 25.91797
757.1240, 1.845703
758.2720, 25.72852
759.4190, 98.49023
760.5670, 106.3594
761.7140, 175.2285
762.8610, 217.3125
764.0080, 268.2969
765.1550, 14.88867
766.3020, 235.9961
767.4480, 35.03320
768.5950, 76.26758
769.7410, 44.91406
770.8870, 231.8262
772.0330, 121.3535
773.1780, 144.1484
774.3240, 223.6289
775.4690, 138.6953
776.6140, 157.0156
777.7590, 153.9707
778.9040, 122.5352
780.0490, 251.6309
781.1940, 327.0078
782.3380, 267.1855
783.4820, 129.5723
784.6260, 133.1191
785.7700, 157.6738
786.9140, 153.5605
788.0580, 212.6211
789.2010, 54.24023
790.3450, 59.39648
791.4880, 21.49805
792.6310, 174.5469
793.7730, 160.3145
794.9160, 263.8125
796.0590, 146.0234
797.2010, 130.7266
798.3430, 166.6934
799.4850, 19.91797
800.6270, 251.9727
801.7690, 60.33398
802.9100, 170.7793
804.0520, 86.08398
805.1930, 271.9023
806.3340, 258.7969
807.4750, 168.2227
808.6160, 175.8105
809.7560, 299.6660
810.8970, 164.8223
812.0370, 314.0723
813.1770, 116.3574
814.3170, 176.9199
815.4570, 350.8750
816.5960, 134.9062
817.7360, 298.3848
818.8750, 245.9102
820.0140, 433.9238
821.1530, 381.4961
822.2920, 429.4043
823.4310, 411.6094
824.5690, 420.0195
825.7070, 295.1973
826.8460, 166.5215
827.9840, 94.41406
829.1220, 340.3516
830.2590, 192.6699
831.3970, 353.1719
832.5340, 234.2422
833.6710, 120.8145
834.8080, 155.1328
835.9450, 139.6445
837.0820, 341.7031
838.2190, 292.9512
839.3550, 220.4336
840.4910, 270.7617
841.6270, 167.4785
842.7630, 115.8164
843.8990, 199.6562
845.0350, 141.8398
846.1700, 426.5898
847.3060, 100.6621
848.4410, 137.2734
849.5760, 207.7441
850.7100, 13.69727
851.8450, 242.4688
852.9800, 275.8008
854.1140, 272.2305
855.2480, 139.7812
856.3820, 265.2031
857.5160, 329.9258
858.6500, 301.4551
859.7830, 96.31055
860.9170, 320.8926
862.0500, 55.54688
863.1830, 95.47852
864.3160, 238.3379
865.4480, 390.2617
866.5810, 219.8320
867.7130, 260.0215
868.8460, 201.7598
869.9780, 78.72656
871.1100, 23.90039
872.2410, 43.71484
873.3730, 30.00391
874.5050, 180.5312
875.6360, 214.1582
876.7670, 388.0137
877.8980, 294.7285
879.0290, 27.96680
880.1590, 431.1113
881.2900, 134.6152
882.4200, 173.6211
883.5500, 198.9160
884.6800, 167.1797
885.8100, 312.6875
886.9400, 8.845703
888.0690, 353.9082
889.1990, 262.7090
890.3280, 89.93359
891.4570, 144.9902
892.5860, 227.2422
893.7140, 46.86133
894.8430, 325.7812
895.9710, 81.93555
897.1000, 105.3418
898.2280, 61.98438
899.3560, 85.75391
900.4830, 87.90625
901.6110, 74.59180
902.7380, 141.8496
903.8660, 20.84375
904.9930, 111.7598
906.1200, 3.615234
907.2460, 91.85547
908.3730, 25.15430
909.5000, 34.06250
910.6260, 249.1406
911.7520, 147.9941
912.8780, 150.8730
914.0040, 255.7188
915.1290, 220.1152
916.2550, 246.2832
917.3800, 220.0059
918.5050, 368.1562
919.6300, 203.6875
920.7550, 331.1934
921.8800, 347.4414
923.0040, 314.9707
924.1290, 326.7031
925.2530, 112.6133
926.3770, 151.5195
927.5010, 74.25977
928.6250, 262.6523
929.7480, 308.9727
930.8720, 8.316406
931.9950, 252.8242
933.1180, 160.8594
934.2410, 110.0039
935.3640, 88.06836
936.4860, 57.25000
937.6090, 338.2754
938.7310, 49.26172
939.8530, 120.8438
940.9750, 137.1641
942.0970, 64.49023
943.2180, 319.2383
944.3400, 62.96289
945.4610, 210.1680
946.5820, 451.7734
947.7030, 166.9668
948.8240, 108.2949
949.9450, 231.8340
951.0650, 391.3672
952.1860, 99.66016
953.3060, 334.7598
954.4260, 178.4395
955.5460, 476.3984
956.6650, 491.3184
957.7850, 564.2051
958.9040, 591.0547
960.0230, 662.8691
961.1420, 951.5488
962.2610, 1235.846
963.3800, 1596.621
964.4990, 2042.297
965.6170, 2219.414
966.7350, 2052.129
967.8530, 1635.357
968.9710, 956.0840
970.0890, 694.8672
971.2070, 590.6094
972.3240, 313.0547
973.4410, 189.3789
974.5580, 308.4023
975.6750, 79.57617
976.7920, 123.0176
977.9090, 371.4746
979.0250, 289.2559
980.1410, 38.76367
981.2580, 375.9375
982.3740, 343.2012
983.4890, 212.5898
984.6050, 411.2402
985.7200, 295.2715
986.8360, 174.0156
987.9510, 305.8652
989.0660, 202.6777
990.1810, 100.9316
991.2950, 322.6758
992.4100, 206.5566
993.5240, 110.4004
994.6390, 45.35742
995.7530, 207.1406
996.8660, 119.9883
997.9800, 208.6074
999.0940, 93.04102
1000.207, 164.7090
1001.320, 83.01367
1002.433, 251.4590
1003.546, 361.5996
1004.659, 234.1738
1005.772, 358.0215
1006.884, 9.791016
1007.996, 249.0469
1009.108, 61.01758
1010.220, 55.86523
1011.332, 96.49414
1012.444, 54.83008
1013.555, 284.4297
1014.666, 223.7109
1015.777, 104.9355
1016.888, 221.6797
1017.999, 316.5098
1019.110, 68.18750
1020.220, 162.3496
1021.331, 283.2773
1022.441, 374.3594
1023.551, 237.3672
1024.661, 373.3340
1025.770, 92.10938
1026.880, 357.9434
1027.989, 299.7012
1029.098, 43.72461
1030.207, 230.8652
1031.316, 137.1250
1032.425, 348.0352
1033.533, 177.1582
1034.642, 389.2871
1035.750, 477.2930
1036.858, 156.6289
1037.966, 420.7324
1039.073, 219.9414
1040.181, 281.0391
1041.288, 26.86133
1042.396, 244.7168
1043.503, 63.96875
1044.610, 78.63672
1045.716, 225.8711
1046.823, 98.41016
1047.929, 85.92578
1049.036, 197.4766
1050.142, 48.02344
1051.248, 281.2891
1052.353, 175.7930
1053.459, 311.0156
1054.564, 55.50000
1055.670, 234.9141
1056.775, 92.31641
1057.880, 146.7031
1058.985, 173.4297
1060.089, 157.3086
1061.194, 257.7422
1062.298, 230.3633
1063.402, 274.0859
1064.506, 251.4570
1065.610, 328.7383
1066.713, 425.6328
1067.817, 474.3047
1068.920, 435.7305
1070.023, 445.4375
1071.126, 276.2266
1072.229, 323.2344
1073.332, 196.9688
1074.435, 50.75781
1075.537, 195.0078
1076.639, 201.2227
1077.741, 168.4844
1078.843, 208.5586
1079.945, 118.7383
1081.046, 295.6211
1082.148, 362.2539
1083.249, 3.406250
1084.350, 177.5352
1085.451, 41.10547
1086.551, 232.2109
1087.652, 247.1016
1088.752, 121.1875
1089.853, 151.2617
1090.953, 214.3281
1092.053, 108.7812
1093.152, 307.4297
1094.252, 36.46484
1095.351, 55.49219
1096.451, 121.5234
1097.550, 188.5352
1098.649, 66.45312
1099.748, 98.50000
1100.846, 149.4453
1101.945, 9.394531
1103.043, 209.3242
1104.141, 144.2539
1105.239, 274.1719
1106.337, 42.01172
1107.434, 226.9180
1108.532, 64.69531
1109.629, 140.8086
1110.726, 263.6602
1111.823, 140.5156
1112.920, 78.92188
1114.017, 233.7617
1115.113, 148.6094
1116.210, 130.4492
1117.306, 206.2852
1118.402, 248.1289
1119.498, 124.9023
1120.593, 175.7383
1121.689, 425.5703
1122.784, 139.0508
1123.879, 282.8828
1124.974, 140.7109
1126.069, 170.2461
1127.164, 376.0078
1128.259, 1.167969
1129.353, 377.4180
1130.447, 75.85156
1131.541, 54.33984
1132.635, 345.1328
1133.729, 511.5977
1134.822, 77.58594
1135.916, 155.1836
1137.009, 199.9609
1138.102, 268.7461
1139.195, 256.9492
1140.288, 336.0469
1141.380, 396.2422
1142.473, 178.4766
1143.565, 113.0430
1144.657, 309.1523
1145.749, 108.9609
1146.841, 68.10547
1147.932, 151.8438
1149.024, 129.7109
1150.115, 257.5859
1151.206, 278.2031
1152.297, 213.8750
1153.388, 121.2070
1154.479, 201.6484
1155.569, 113.5078
1156.659, 320.3750
1157.750, 448.1133
1158.839, 157.9961
1159.929, 258.8828
1161.019, 137.0469
1162.108, 407.9492
1163.198, 136.8555
1164.287, 182.7734
1165.376, 326.6992
1166.465, 379.6328
1167.553, 237.5820
1168.642, 134.5352
1169.730, 118.1875
1170.818, 59.60547
1171.906, 225.1602
1172.994, 167.1367
1174.082, 226.1680
1175.170, 561.1289
1176.257, 152.1758
1177.344, 100.7656
1178.431, 22.26172
1179.518, 154.5703
1180.605, 242.6133
1181.691, 205.3633
1182.778, 513.4258
1183.864, 258.1562
1184.950, 455.2383
1186.036, 450.6758
1187.122, 318.7812
1188.207, 132.9023
1189.292, 337.0312
1190.378, 372.1797
1191.463, 202.3320
1192.548, 111.4961
1193.632, 348.6445
1194.717, 144.4961
1195.801, 84.67578
1196.886, 298.8672
1197.970, 225.0742
1199.054, 336.2969
1200.137, 216.5312
1201.221, 117.7852
1202.305, 389.0508
1203.388, 42.33984
1204.471, 241.6406
1205.554, 554.0156
1206.637, 155.3750
1207.719, 110.7539
1208.802, 94.14844
1209.884, 138.5547
1210.966, 172.5273
1212.048, 260.4180
1213.130, 279.8750
1214.212, 381.9297
1215.293, 358.4180
1216.374, 561.7617
1217.456, 190.2930
1218.536, 238.8320
1219.617, 153.3867
1220.698, 401.9609
1221.778, 208.5469
1222.859, 32.15625
1223.939, 238.7773
1225.019, 17.22266
1226.099, 259.8789
1227.178, 186.6250
1228.258, 130.3203
1229.337, 180.9258
1230.417, 376.6523
1231.496, 399.3945
1232.574, 303.2148
1233.653, 214.9961
1234.732, 223.0000
1235.810, 268.6172
1236.888, 230.4180
1237.966, 134.2773
1239.044, 209.4219
1240.122, 149.3203
1241.199, 198.2422
1242.277, 125.1875
1243.354, 201.1484
1244.431, 179.8984
1245.508, 231.1445
1246.585, 214.1719
1247.661, 222.2227
1248.738, 314.2930
1249.814, 392.3828
1250.890, 307.4961
1251.966, 253.6328
1253.042, 389.7891
1254.117, 409.9688
1255.193, 207.1680
1256.268, 192.3945
1257.343, 289.6445
1258.418, 25.82812
1259.493, 51.87109
1260.567, 413.4375
1261.642, 107.7656
1262.716, 295.1211
1263.790, 306.5000
1264.864, 361.9375
1265.938, 298.3633
1267.011, 91.81641
1268.085, 253.2891
1269.158, 46.19922
1270.231, 291.3281
1271.304, 62.95703
1272.377, 182.2969
1273.450, 320.0430
1274.522, 356.0117
1275.594, 14.51953
1276.666, 139.9219
1277.738, 84.00391
1278.810, 19.92578
1279.882, 248.3086
1280.953, 63.01562
1282.025, 165.1289
1283.096, 168.3438
1284.167, 276.2930
1285.238, 172.6016
1286.308, 134.2734
1287.379, 307.7578
1288.449, 363.9688
1289.519, 235.9688
1290.589, 350.2500
1291.659, 31.73828
1292.729, 93.05469
1293.798, 318.2305
1294.868, 201.0234
1295.937, 319.2578
1297.006, 347.8477
1298.075, 31.12109
1299.143, 298.7148
1300.212, 322.0781
1301.280, 30.67969
1302.348, 336.3281
1303.416, 88.39453
1304.484, 38.09766
1305.552, 136.5352
1306.620, 74.68359
1307.687, 262.5195
1308.754, 214.9609
1309.821, 146.4102
1310.888, 169.7031
1311.955, 67.12109
1313.021, 179.5078
1314.088, 95.69922
1315.154, 138.6328
1316.220, 422.4844
1317.286, 70.37109
1318.352, 306.2891
1319.417, 338.2461
1320.483, 325.2305
1321.548, 73.96094
1322.613, 36.99609
1323.678, 83.06250
1324.743, 28.33203
1325.807, 98.58594
1326.872, 149.4102
1327.936, 285.5781
1329.000, 254.7773
1330.064, 412.9961
1331.128, 349.3086
1332.191, 205.5820
1333.255, 13.11328
1334.318, 212.2109
1335.381, 368.5664
1336.444, 121.9492
1337.507, 463.3594
1338.569, 348.7930
1339.632, 126.2578
1340.694, 288.7461
1341.756, 288.0664
1342.818, 311.6172
1343.880, 388.1992
1344.941, 267.8125
1346.003, 449.4531
1347.064, 285.1250
1348.125, 607.8242
1349.186, 348.5547
1350.247, 750.3125
1351.308, 307.0977
1352.368, 437.9141
1353.428, 519.7617
1354.489, 6.363281
1355.549, 537.5430
1356.608, 27.48438
1357.668, 681.4727
1358.727, 517.4961
1359.787, 372.5508
1360.846, 366.6367
1361.905, 290.1641
1362.964, 350.9062
1364.022, 307.0898
1365.081, 199.3047
1366.139, 278.5195
1367.197, 122.7891
1368.255, 175.0898
1369.313, 338.4219
1370.371, 393.7852
1371.428, 355.1836
1372.486, 133.6172
1373.543, 420.0820
1374.600, 147.5781
1375.657, 468.1055
1376.713, 65.66797
1377.770, 448.2656
1378.826, 188.8945
1379.882, 200.5625
1380.938, 413.2578
1381.994, 177.9805
1383.050, 326.7344
1384.106, 183.5234
1385.161, 165.3477
1386.216, 71.20703
1387.271, 348.4883
1388.326, 570.4180
1389.381, 232.3789
1390.435, 67.37500
1391.490, 306.4062
1392.544, 181.4922
1393.598, 408.6172
1394.652, 406.7734
1395.705, 234.9648
1396.759, 296.8867
1397.812, 224.9102
1398.866, 259.5781
1399.919, 187.9102
1400.972, 171.2812
1402.024, 203.6914
1403.077, 9.812500
1404.129, 300.2969
1405.181, 33.17969
1406.233, 525.3867
1407.285, 143.9922
1408.337, 162.1602
1409.389, 241.5078
1410.440, 47.25000
1411.491, 285.0312
1412.542, 419.8594
1413.593, 425.7266
1414.644, 112.6406
1415.695, 192.6016
1416.745, 133.6094
1417.795, 93.39453
1418.845, 183.7656
1419.895, 160.9180
1420.945, 227.1172
1421.995, 305.3711
1423.044, 420.6758
1424.093, 205.0352
1425.142, 490.7695
1426.191, 167.5039
1427.240, 494.0586
1428.289, 336.6523
1429.337, 180.3047
1430.385, 350.0273
1431.433, 172.8086
1432.481, 102.6641
1433.529, 241.6133
1434.577, 335.6367
1435.624, 577.7383
1436.672, 157.9258
1437.719, 284.1797
1438.766, 54.13672
1439.812, 19.50000
1440.859, 364.4062
1441.905, 89.83203
1442.952, 450.5898
1443.998, 317.4727
1445.044, 332.4141
1446.090, 411.5078
1447.135, 159.5156
1448.181, 342.2070
1449.226, 309.3672
1450.271, 227.2734
1451.316, 509.2344
1452.361, 5.238281
1453.405, 462.2930
1454.450, 128.2070
1455.494, 465.3555
1456.538, 8.445313
1457.582, 512.8008
1458.626, 499.0898
1459.670, 236.4297
1460.713, 213.8203
1461.757, 430.2578
1462.800, 91.74609
1463.843, 383.2852
1464.886, 303.7969
1465.928, 200.4336
1466.971, 52.87109
1468.013, 456.8711
1469.055, 169.6641
1470.097, 305.5117
1471.139, 296.4102
1472.181, 73.35938
1473.222, 244.3594
1474.263, 568.4141
1475.305, 669.5234
1476.346, 205.6797
1477.386, 538.8906
1478.427, 271.1602
1479.468, 587.4727
1480.508, 405.8477
1481.548, 382.2930
1482.588, 134.7891
1483.628, 308.3359
1484.668, 469.9414
1485.707, 412.6094
1486.747, 497.3281
1487.786, 360.1758
1488.825, 450.0391
1489.864, 463.3164
1490.902, 376.6680
1491.941, 358.6289
1492.979, 329.6445
1494.017, 445.7109
1495.055, 446.8242
1496.093, 256.9922
1497.131, 418.2070
1498.168, 347.4766
1499.206, 541.7969
1500.243, 344.1602
1501.280, 503.5703
1502.317, 205.0234
1503.354, 386.5117
1504.390, 460.0352
1505.426, 433.5938
1506.463, 211.6445
1507.499, 367.2070
1508.535, 109.7422
1509.570, 635.2930
1510.606, 395.8828
1511.641, 542.5781
1512.676, 346.3594
1513.711, 445.2344
1514.746, 511.4258
1515.781, 157.1133
1516.816, 657.2617
1517.850, 429.5078
1518.884, 382.8477
1519.918, 282.3945
1520.952, 676.8906
1521.986, 215.4844
1523.019, 398.1836
1524.053, 149.9766
1525.086, 463.8750
1526.119, 456.8750
1527.152, 424.9805
1528.185, 280.1914
1529.217, 643.5195
1530.250, 593.9492
1531.282, 517.5039
1532.314, 375.3594
1533.346, 496.3438
1534.377, 483.4609
1535.409, 291.7266
1536.440, 534.1367
1537.472, 522.7031
1538.503, 164.4297
1539.534, 350.3555
1540.564, 356.5000
1541.595, 371.8516
1542.625, 250.4375
1543.656, 241.2617
1544.686, 79.33203
1545.716, 193.6641
1546.745, 392.3555
1547.775, 251.3516
1548.804, 224.6680
1549.834, 48.33594
1550.863, 115.3672
1551.892, 251.8047
1552.920, 189.1914
1553.949, 239.0078
1554.977, 228.8438
1556.006, 251.2344
1557.034, 236.2305
1558.062, 245.9453
1559.089, 291.3203
1560.117, 278.5586
1561.144, 486.7266
1562.172, 567.2812
1563.199, 152.2344
1564.226, 376.4414
1565.252, 20.92969
1566.279, 431.3164
1567.305, 425.1445
1568.332, 455.1406
1569.358, 372.4219
1570.384, 11.54688
1571.409, 0.0000000E+00
##END=



