##NAMES=Fluorapatite
##RRUFFID=R050401
##IDEAL CHEMISTRY=Ca_5_(PO_4_)_3_F
##LOCALITY=Urbano mine, Golconda District, Minas Gerais, Brazil
##OWNER=RRUFF
##SOURCE=Bob Downs
##DESCRIPTION=Pale purple hexagonal prism associated with albite R050402
##STATUS=The identification of this mineral has been confirmed by X-ray diffraction and chemical analysis
##URL=rruff.info/R050401
##MEASURED CHEMISTRY=(Ca_0.99_Mn_0.01_)_5_(P_1.00_O_4_)_3_F_1.00_
##PIN_ID=L00654
##ORIENTATION=Laser parallel to c* (0 0 1). Fiducial mark perpendicular to laser is parallel to a [1 0 0]
136.5850, 0.0000000E+00
137.8140, 0.1264650
139.0430, 6.1035000E-02
140.2710, 112.3022
141.5000, 31.55957
142.7280, 64.41455
143.9560, 60.95898
145.1840, 82.07666
146.4120, 7.569824
147.6390, 11.57471
148.8670, 72.25244
150.0940, 145.1470
151.3210, 115.6782
152.5490, 65.22510
153.7750, 68.80518
155.0020, 63.79102
156.2290, 23.88672
157.4550, 201.8486
158.6810, 72.49707
159.9080, 53.85791
161.1340, 90.11572
162.3590, 5.678223
163.5850, 62.52490
164.8110, 36.90771
166.0360, 50.70850
167.2610, 72.86816
168.4860, 169.0024
169.7110, 26.17676
170.9360, 151.6182
172.1610, 13.61133
173.3850, 5.563477
174.6100, 77.40088
175.8340, 31.07959
177.0580, 45.82031
178.2820, 51.17871
179.5050, 50.20410
180.7290, 70.45801
181.9520, 112.9082
183.1760, 86.69971
184.3990, 81.54053
185.6220, 73.61621
186.8450, 121.3442
188.0670, 73.54883
189.2900, 131.8032
190.5120, 127.5293
191.7340, 38.82812
192.9560, 64.35645
194.1780, 53.32373
195.4000, 88.06055
196.6220, 124.0244
197.8430, 112.9072
199.0640, 177.5942
200.2860, 122.8770
201.5070, 82.74121
202.7270, 134.1812
203.9480, 66.69971
205.1690, 129.0859
206.3890, 89.22803
207.6090, 140.4727
208.8290, 154.5723
210.0490, 196.8267
211.2690, 83.65137
212.4890, 103.3647
213.7080, 62.76855
214.9280, 7.088867
216.1470, 120.7451
217.3660, 82.88135
218.5850, 133.7793
219.8030, 173.5640
221.0220, 0.7294920
222.2400, 181.2480
223.4590, 12.85986
224.6770, 86.31201
225.8950, 79.70654
227.1120, 34.93750
228.3300, 48.22656
229.5480, 117.4722
230.7650, 124.1187
231.9820, 132.8970
233.1990, 25.68701
234.4160, 123.2964
235.6330, 101.6909
236.8490, 74.16846
238.0660, 186.4526
239.2820, 117.0825
240.4980, 53.43848
241.7140, 106.8086
242.9300, 37.12842
244.1460, 10.02051
245.3610, 102.3862
246.5770, 128.1289
247.7920, 50.44531
249.0070, 5.592773
250.2220, 41.04395
251.4370, 21.37695
252.6510, 18.30566
253.8660, 54.94775
255.0800, 117.8608
256.2940, 106.8286
257.5080, 49.09668
258.7220, 76.46729
259.9360, 48.84668
261.1490, 85.79834
262.3630, 8.626953
263.5760, 74.87793
264.7890, 134.9512
266.0020, 63.19922
267.2150, 68.43994
268.4270, 65.68408
269.6400, 54.64990
270.8520, 56.70215
272.0640, 47.89795
273.2760, 62.38574
274.4880, 46.26074
275.7000, 76.68604
276.9120, 103.4497
278.1230, 110.4907
279.3340, 75.52686
280.5450, 145.3979
281.7560, 46.18408
282.9670, 30.40576
284.1780, 133.8887
285.3880, 9.719727
286.5980, 107.2949
287.8090, 145.6636
289.0190, 82.33740
290.2290, 81.76074
291.4380, 7.165039
292.6480, 85.51514
293.8570, 149.5747
295.0670, 78.01904
296.2760, 78.29443
297.4850, 106.3115
298.6930, 100.3364
299.9020, 111.4287
301.1110, 9.832031
302.3190, 101.2295
303.5270, 31.61670
304.7350, 135.2959
305.9430, 58.71631
307.1510, 47.22607
308.3580, 18.43994
309.5660, 115.7676
310.7730, 59.95361
311.9800, 74.69775
313.1870, 211.8623
314.3940, 47.09033
315.6010, 139.3423
316.8070, 120.6646
318.0130, 20.77686
319.2200, 89.51270
320.4260, 145.4194
321.6310, 98.03906
322.8370, 79.69434
324.0430, 94.46875
325.2480, 44.37744
326.4540, 76.79443
327.6590, 24.18506
328.8640, 117.3813
330.0680, 44.97998
331.2730, 20.52881
332.4780, 83.77490
333.6820, 81.06006
334.8860, 46.88818
336.0900, 95.99121
337.2940, 101.8223
338.4980, 94.34033
339.7010, 100.2163
340.9050, 7.017090
342.1080, 133.8042
343.3110, 8.356445
344.5140, 126.2393
345.7170, 141.1748
346.9200, 4.178223
348.1220, 49.28418
349.3240, 10.29883
350.5270, 18.05957
351.7290, 105.3984
352.9310, 4.196289
354.1320, 53.58203
355.3340, 114.1699
356.5350, 7.763672
357.7370, 76.23145
358.9380, 183.3516
360.1390, 68.54004
361.3400, 59.53613
362.5400, 124.4023
363.7410, 44.09961
364.9410, 71.73145
366.1410, 58.52930
367.3410, 116.9395
368.5410, 114.4990
369.7410, 28.66895
370.9400, 229.1201
372.1400, 5.542969
373.3390, 17.40234
374.5380, 43.78320
375.7370, 142.6699
376.9360, 29.60645
378.1350, 246.8027
379.3330, 2.584961
380.5310, 49.71777
381.7300, 58.51172
382.9280, 106.1240
384.1260, 75.00977
385.3230, 70.78027
386.5210, 120.7188
387.7180, 85.80859
388.9160, 211.8662
390.1130, 18.99512
391.3100, 116.1846
392.5060, 11.16602
393.7030, 77.46484
394.9000, 200.3965
396.0960, 21.08203
397.2920, 151.8643
398.4880, 75.98242
399.6840, 161.8438
400.8800, 111.4766
402.0750, 140.5898
403.2710, 1.166016
404.4660, 239.8906
405.6610, 88.48828
406.8560, 149.3633
408.0510, 200.6895
409.2450, 49.13965
410.4400, 183.1562
411.6340, 18.93457
412.8280, 98.57227
414.0220, 175.1543
415.2160, 49.76855
416.4100, 39.47266
417.6030, 108.1641
418.7970, 4.740234
419.9900, 159.8291
421.1830, 81.78125
422.3760, 62.86328
423.5690, 60.12598
424.7610, 86.12988
425.9540, 71.38184
427.1460, 111.6377
428.3380, 40.06152
429.5300, 114.0293
430.7220, 148.8906
431.9140, 62.57812
433.1050, 109.7852
434.2970, 101.4297
435.4880, 78.47070
436.6790, 137.9082
437.8700, 52.20996
439.0610, 74.63574
440.2510, 124.1338
441.4420, 110.6133
442.6320, 81.44727
443.8220, 229.2939
445.0120, 4.681641
446.2020, 208.9668
447.3910, 126.9775
448.5810, 177.2451
449.7700, 144.0742
450.9600, 48.29492
452.1490, 1.209961
453.3370, 170.5537
454.5260, 41.33496
455.7150, 162.4219
456.9030, 135.8193
458.0910, 91.11523
459.2800, 88.95215
460.4670, 98.45020
461.6550, 89.45801
462.8430, 164.7070
464.0300, 162.7549
465.2180, 205.2656
466.4050, 143.5762
467.5920, 95.85938
468.7790, 209.2998
469.9650, 293.4668
471.1520, 146.1621
472.3380, 126.8154
473.5250, 139.6133
474.7110, 168.5000
475.8970, 160.2842
477.0820, 33.53320
478.2680, 175.9805
479.4540, 104.0234
480.6390, 105.0859
481.8240, 147.1113
483.0090, 178.3096
484.1940, 169.4375
485.3780, 143.3369
486.5630, 186.3232
487.7470, 90.75000
488.9320, 141.2930
490.1160, 1.6602000E-02
491.3000, 254.5645
492.4830, 86.55957
493.6670, 37.23535
494.8500, 290.1055
496.0340, 136.4854
497.2170, 74.84082
498.4000, 284.7090
499.5820, 77.65918
500.7650, 110.2637
501.9480, 131.4990
503.1300, 150.0898
504.3120, 148.4561
505.4940, 1.912109
506.6760, 52.04980
507.8580, 34.43262
509.0390, 18.61914
510.2210, 75.82227
511.4020, 16.73438
512.5830, 136.4268
513.7640, 105.9863
514.9450, 196.0391
516.1250, 144.6699
517.3060, 249.5527
518.4860, 16.36621
519.6660, 50.10938
520.8460, 271.1680
522.0260, 68.64746
523.2060, 4.857422
524.3850, 219.4238
525.5650, 120.4443
526.7440, 67.95605
527.9230, 345.5000
529.1020, 0.3564450
530.2810, 126.3662
531.4590, 210.7109
532.6380, 207.3857
533.8160, 250.0225
534.9940, 153.7920
536.1720, 142.6602
537.3500, 197.3193
538.5270, 71.72949
539.7050, 67.30176
540.8820, 175.2070
542.0590, 203.8330
543.2360, 256.1729
544.4130, 156.8809
545.5900, 77.87695
546.7660, 131.7861
547.9430, 188.6836
549.1190, 157.7852
550.2950, 173.9121
551.4710, 22.56543
552.6470, 233.9258
553.8220, 250.5742
554.9980, 25.95215
556.1730, 219.3936
557.3480, 175.6484
558.5230, 179.0215
559.6980, 175.9844
560.8730, 68.59668
562.0470, 113.3828
563.2220, 75.44434
564.3960, 221.5068
565.5700, 99.94727
566.7440, 165.9102
567.9170, 127.8389
569.0910, 39.68359
570.2640, 121.7715
571.4380, 33.33496
572.6110, 77.30176
573.7840, 111.4297
574.9570, 228.1826
576.1290, 252.2930
577.3020, 247.8389
578.4740, 89.00488
579.6460, 210.7256
580.8180, 176.1396
581.9900, 191.4180
583.1620, 324.4941
584.3330, 74.58398
585.5040, 48.46484
586.6760, 166.5420
587.8470, 142.4736
589.0180, 171.5703
590.1880, 183.2012
591.3590, 61.42383
592.5290, 190.5508
593.7000, 64.98633
594.8700, 126.6025
596.0400, 289.5371
597.2090, 78.12305
598.3790, 177.6602
599.5490, 123.5166
600.7180, 104.6553
601.8870, 153.2217
603.0560, 163.8906
604.2250, 250.6084
605.3940, 314.7549
606.5620, 420.8672
607.7300, 92.45703
608.8990, 226.2090
610.0670, 13.79688
611.2350, 128.1709
612.4020, 197.9141
613.5700, 73.67578
614.7370, 85.12598
615.9050, 104.5762
617.0720, 163.9062
618.2390, 87.76562
619.4060, 215.9580
620.5720, 170.6924
621.7390, 182.4385
622.9050, 138.4551
624.0710, 38.23145
625.2370, 208.4160
626.4030, 86.31738
627.5690, 284.4414
628.7340, 253.9971
629.9000, 71.23438
631.0650, 115.6484
632.2300, 172.1836
633.3950, 119.1270
634.5600, 166.4043
635.7240, 250.0527
636.8890, 89.01562
638.0530, 247.5410
639.2170, 77.69043
640.3810, 243.9238
641.5450, 182.6074
642.7080, 205.8555
643.8720, 233.2773
645.0350, 258.9395
646.1980, 259.1465
647.3610, 148.6953
648.5240, 335.1211
649.6870, 89.51562
650.8490, 285.0977
652.0120, 217.8047
653.1740, 208.6152
654.3360, 154.3223
655.4980, 158.9023
656.6600, 141.5059
657.8210, 239.9043
658.9830, 110.9375
660.1440, 13.82617
661.3050, 245.4180
662.4660, 152.0762
663.6270, 191.8691
664.7870, 284.7422
665.9480, 118.4980
667.1080, 327.1523
668.2680, 217.4199
669.4280, 53.73438
670.5880, 223.4043
671.7480, 147.8086
672.9070, 44.34375
674.0670, 338.4395
675.2260, 134.8867
676.3850, 68.41797
677.5440, 230.6738
678.7030, 39.18555
679.8610, 298.3027
681.0200, 193.8672
682.1780, 194.2832
683.3360, 410.3398
684.4940, 310.7637
685.6520, 137.8145
686.8090, 210.3184
687.9670, 205.3770
689.1240, 234.5879
690.2810, 209.1426
691.4380, 87.91211
692.5950, 87.33008
693.7520, 238.0625
694.9080, 65.58594
696.0650, 181.5781
697.2210, 438.1035
698.3770, 277.1484
699.5330, 200.4414
700.6880, 337.6055
701.8440, 175.2109
702.9990, 136.9492
704.1550, 264.8047
705.3100, 148.1445
706.4650, 373.4121
707.6190, 253.6621
708.7740, 151.3828
709.9290, 188.6445
711.0830, 107.1934
712.2370, 203.1172
713.3910, 321.4004
714.5450, 209.9199
715.6980, 72.50977
716.8520, 216.6953
718.0050, 32.27539
719.1580, 281.4180
720.3110, 345.0762
721.4640, 123.2227
722.6170, 312.5254
723.7700, 54.84180
724.9220, 18.75195
726.0740, 182.6211
727.2260, 282.1348
728.3780, 186.7930
729.5300, 233.4492
730.6810, 140.9785
731.8330, 195.2676
732.9840, 352.6680
734.1350, 123.9336
735.2860, 316.7305
736.4370, 281.9785
737.5880, 142.9805
738.7380, 128.2754
739.8880, 88.68750
741.0390, 103.9863
742.1890, 160.7324
743.3380, 277.3086
744.4880, 86.08008
745.6380, 375.4238
746.7870, 253.1230
747.9360, 292.4609
749.0850, 121.8379
750.2340, 252.4746
751.3830, 211.2148
752.5310, 280.2598
753.6800, 293.7324
754.8280, 295.4141
755.9760, 247.4199
757.1240, 310.5977
758.2720, 331.5762
759.4190, 325.3105
760.5670, 52.43359
761.7140, 356.2344
762.8610, 230.7422
764.0080, 22.12891
765.1550, 227.0586
766.3020, 249.3770
767.4480, 230.5371
768.5950, 212.7070
769.7410, 107.1758
770.8870, 301.7520
772.0330, 288.6523
773.1780, 82.90234
774.3240, 295.0527
775.4690, 319.8750
776.6140, 30.61914
777.7590, 116.3047
778.9040, 262.7891
780.0490, 130.0879
781.1940, 98.10352
782.3380, 251.1152
783.4820, 114.2324
784.6260, 328.0078
785.7700, 20.88281
786.9140, 95.86133
788.0580, 351.6230
789.2010, 209.4648
790.3450, 93.73438
791.4880, 293.1211
792.6310, 30.04688
793.7730, 46.91602
794.9160, 237.5410
796.0590, 80.07812
797.2010, 78.65625
798.3430, 242.1680
799.4850, 162.1719
800.6270, 190.7168
801.7690, 241.8926
802.9100, 152.8672
804.0520, 360.3457
805.1930, 194.5527
806.3340, 282.0488
807.4750, 357.8340
808.6160, 251.5820
809.7560, 376.7988
810.8970, 150.2324
812.0370, 126.0312
813.1770, 100.7949
814.3170, 51.25781
815.4570, 62.15430
816.5960, 85.10156
817.7360, 257.2539
818.8750, 301.9062
820.0140, 182.5000
821.1530, 217.4668
822.2920, 11.43555
823.4310, 135.5762
824.5690, 280.9531
825.7070, 59.25000
826.8460, 390.5918
827.9840, 292.7695
829.1220, 5.390625
830.2590, 323.9141
831.3970, 374.0176
832.5340, 191.2754
833.6710, 18.05469
834.8080, 449.5078
835.9450, 81.54883
837.0820, 53.19922
838.2190, 325.3516
839.3550, 236.7695
840.4910, 341.9902
841.6270, 106.0605
842.7630, 144.2090
843.8990, 357.1973
845.0350, 251.6719
846.1700, 285.7480
847.3060, 421.9238
848.4410, 89.70898
849.5760, 213.8301
850.7100, 256.3887
851.8450, 82.72461
852.9800, 551.0254
854.1140, 95.96484
855.2480, 84.98828
856.3820, 497.0684
857.5160, 206.9863
858.6500, 281.3105
859.7830, 251.3691
860.9170, 294.1211
862.0500, 169.4297
863.1830, 210.7832
864.3160, 187.4961
865.4480, 187.0195
866.5810, 567.4160
867.7130, 81.44336
868.8460, 375.5684
869.9780, 151.3027
871.1100, 169.3945
872.2410, 365.8613
873.3730, 211.1348
874.5050, 405.7734
875.6360, 385.3047
876.7670, 520.0723
877.8980, 46.57227
879.0290, 319.9219
880.1590, 477.8496
881.2900, 66.86523
882.4200, 339.0137
883.5500, 93.67383
884.6800, 112.0879
885.8100, 608.0898
886.9400, 113.5898
888.0690, 124.8613
889.1990, 243.3691
890.3280, 201.8848
891.4570, 152.3574
892.5860, 40.57617
893.7140, 70.99219
894.8430, 178.8457
895.9710, 427.2090
897.1000, 54.35742
898.2280, 255.2871
899.3560, 346.1055
900.4830, 138.8750
901.6110, 362.8008
902.7380, 277.6016
903.8660, 172.2891
904.9930, 268.9727
906.1200, 557.0898
907.2460, 67.97461
908.3730, 374.9551
909.5000, 195.7363
910.6260, 100.4414
911.7520, 383.2012
912.8780, 205.0918
914.0040, 218.9121
915.1290, 184.3027
916.2550, 293.0938
917.3800, 92.66797
918.5050, 258.7520
919.6300, 110.3398
920.7550, 175.7715
921.8800, 498.3203
923.0040, 145.6250
924.1290, 403.0098
925.2530, 96.77930
926.3770, 274.9512
927.5010, 92.00586
928.6250, 387.4492
929.7480, 114.4570
930.8720, 140.1152
931.9950, 423.8320
933.1180, 16.50000
934.2410, 289.9375
935.3640, 479.0039
936.4860, 97.84766
937.6090, 539.4863
938.7310, 77.69531
939.8530, 162.8574
940.9750, 602.6777
942.0970, 163.8281
943.2180, 21.26367
944.3400, 148.1934
945.4610, 409.5566
946.5820, 163.0215
947.7030, 674.3203
948.8240, 206.3730
949.9450, 197.8164
951.0650, 439.3809
952.1860, 220.2090
953.3060, 186.9297
954.4260, 382.8086
955.5460, 71.15820
956.6650, 160.6113
957.7850, 577.0371
958.9040, 364.1230
960.0230, 281.7852
961.1420, 671.0547
962.2610, 424.9414
963.3800, 1068.568
964.4990, 1473.625
965.6170, 1507.328
966.7350, 1600.180
967.8530, 957.2773
968.9710, 637.5527
970.0890, 272.2188
971.2070, 542.5254
972.3240, 131.4082
973.4410, 388.9297
974.5580, 463.2422
975.6750, 83.76172
976.7920, 444.1836
977.9090, 307.1289
979.0250, 236.5508
980.1410, 368.6816
981.2580, 375.8730
982.3740, 308.2207
983.4890, 330.3535
984.6050, 446.1719
985.7200, 27.85742
986.8360, 370.0176
987.9510, 319.1797
989.0660, 94.17578
990.1810, 660.0156
991.2950, 74.47461
992.4100, 217.0332
993.5240, 337.8809
994.6390, 224.5840
995.7530, 301.4473
996.8660, 343.7754
997.9800, 113.2598
999.0940, 1.621094
1000.207, 123.5664
1001.320, 98.74609
1002.433, 265.2500
1003.546, 227.0234
1004.659, 76.10156
1005.772, 382.2305
1006.884, 380.9258
1007.996, 304.1953
1009.108, 250.8438
1010.220, 53.51953
1011.332, 1.035156
1012.444, 183.0820
1013.555, 711.5703
1014.666, 100.0352
1015.777, 316.8945
1016.888, 383.3164
1017.999, 53.57422
1019.110, 551.0352
1020.220, 227.3984
1021.331, 511.8594
1022.441, 214.4102
1023.551, 329.4844
1024.661, 217.3828
1025.770, 497.0547
1026.880, 320.1797
1027.989, 58.96094
1029.098, 497.7070
1030.207, 254.8906
1031.316, 52.63672
1032.425, 432.3633
1033.533, 99.71094
1034.642, 36.68359
1035.750, 286.6875
1036.858, 325.1719
1037.966, 87.67578
1039.073, 376.5742
1040.181, 312.5156
1041.288, 75.82812
1042.396, 494.7383
1043.503, 101.3516
1044.610, 204.3438
1045.716, 378.2422
1046.823, 241.9102
1047.929, 691.6289
1049.036, 239.2070
1050.142, 303.0781
1051.248, 25.01172
1052.353, 320.8047
1053.459, 227.8945
1054.564, 256.3711
1055.670, 431.1680
1056.775, 189.5938
1057.880, 437.4023
1058.985, 586.4297
1060.089, 167.6289
1061.194, 568.5859
1062.298, 417.3633
1063.402, 303.5391
1064.506, 252.9805
1065.610, 383.7617
1066.713, 292.0977
1067.817, 243.8711
1068.920, 572.6445
1070.023, 22.61328
1071.126, 469.3633
1072.229, 303.8438
1073.332, 144.4023
1074.435, 390.1367
1075.537, 272.7148
1076.639, 238.0977
1077.741, 576.6211
1078.843, 398.3438
1079.945, 112.9453
1081.046, 242.6680
1082.148, 377.3906
1083.249, 74.12109
1084.350, 676.8516
1085.451, 486.5820
1086.551, 321.3164
1087.652, 576.0469
1088.752, 248.0234
1089.853, 259.5117
1090.953, 385.2539
1092.053, 649.0039
1093.152, 352.7539
1094.252, 423.5039
1095.351, 500.2578
1096.451, 145.0117
1097.550, 658.7812
1098.649, 102.4492
1099.748, 312.2578
1100.846, 267.9688
1101.945, 284.6914
1103.043, 243.4141
1104.141, 310.1484
1105.239, 486.8906
1106.337, 71.36328
1107.434, 393.3398
1108.532, 266.6758
1109.629, 35.39062
1110.726, 588.1133
1111.823, 253.1641
1112.920, 72.78125
1114.017, 441.3867
1115.113, 145.0000
1116.210, 102.6211
1117.306, 231.2461
1118.402, 217.5859
1119.498, 388.2344
1120.593, 410.8906
1121.689, 339.3516
1122.784, 42.96484
1123.879, 445.0820
1124.974, 228.7500
1126.069, 329.4336
1127.164, 558.1172
1128.259, 86.81641
1129.353, 416.5234
1130.447, 110.2461
1131.541, 244.7148
1132.635, 122.4609
1133.729, 169.1562
1134.822, 341.9336
1135.916, 114.7188
1137.009, 630.1445
1138.102, 279.9609
1139.195, 383.7812
1140.288, 600.6250
1141.380, 75.48047
1142.473, 382.9141
1143.565, 390.8242
1144.657, 371.7461
1145.749, 376.6836
1146.841, 420.6328
1147.932, 441.6094
1149.024, 219.5977
1150.115, 824.9570
1151.206, 74.98828
1152.297, 532.0352
1153.388, 585.1133
1154.479, 253.2109
1155.569, 737.3242
1156.659, 452.4609
1157.750, 411.6211
1158.839, 502.7969
1159.929, 688.5977
1161.019, 223.8242
1162.108, 305.0703
1163.198, 812.7969
1164.287, 236.9062
1165.376, 398.4531
1166.465, 471.5195
1167.553, 52.22266
1168.642, 576.0352
1169.730, 657.2305
1170.818, 162.5312
1171.906, 554.8594
1172.994, 515.0039
1174.082, 318.3789
1175.170, 240.7812
1176.257, 746.2109
1177.344, 215.6719
1178.431, 129.1523
1179.518, 630.6602
1180.605, 170.1875
1181.691, 457.7461
1182.778, 406.4453
1183.864, 111.0586
1184.950, 358.6953
1186.036, 437.7695
1187.122, 46.46484
1188.207, 48.18359
1189.292, 438.9336
1190.378, 125.2852
1191.463, 422.4727
1192.548, 672.2656
1193.632, 163.1094
1194.717, 708.0352
1195.801, 505.9883
1196.886, 155.9727
1197.970, 506.0000
1199.054, 348.0586
1200.137, 92.85547
1201.221, 180.1719
1202.305, 778.3281
1203.388, 282.5508
1204.471, 532.8047
1205.554, 696.0859
1206.637, 154.4023
1207.719, 233.7695
1208.802, 508.1719
1209.884, 187.6016
1210.966, 351.0625
1212.048, 143.5586
1213.130, 524.0859
1214.212, 115.6484
1215.293, 886.2383
1216.374, 314.8633
1217.456, 146.5195
1218.536, 607.2109
1219.617, 192.0664
1220.698, 126.6445
1221.778, 294.3984
1222.859, 289.1797
1223.939, 471.9961
1225.019, 449.8477
1226.099, 440.7383
1227.178, 187.6602
1228.258, 406.6172
1229.337, 270.5195
1230.417, 375.5469
1231.496, 565.6133
1232.574, 227.7148
1233.653, 287.8516
1234.732, 574.0273
1235.810, 191.2383
1236.888, 519.3008
1237.966, 524.5898
1239.044, 136.9141
1240.122, 172.9922
1241.199, 579.3945
1242.277, 82.16797
1243.354, 336.2891
1244.431, 560.7891
1245.508, 287.3242
1246.585, 325.9023
1247.661, 509.5234
1248.738, 259.2109
1249.814, 654.9336
1250.890, 387.6992
1251.966, 317.5078
1253.042, 191.9766
1254.117, 413.8711
1255.193, 532.8867
1256.268, 273.8633
1257.343, 651.8867
1258.418, 555.7188
1259.493, 194.0586
1260.567, 675.2070
1261.642, 367.4141
1262.716, 507.6641
1263.790, 803.9570
1264.864, 40.56250
1265.938, 472.5352
1267.011, 713.5898
1268.085, 774.0938
1269.158, 112.8711
1270.231, 383.6484
1271.304, 280.9727
1272.377, 163.0742
1273.450, 565.1836
1274.522, 9.160156
1275.594, 403.0586
1276.666, 417.8438
1277.738, 606.2070
1278.810, 418.8359
1279.882, 347.5781
1280.953, 652.2188
1282.025, 750.6523
1283.096, 520.1484
1284.167, 719.7812
1285.238, 151.0508
1286.308, 256.5977
1287.379, 653.1719
1288.449, 441.7578
1289.519, 648.4453
1290.589, 695.9648
1291.659, 19.95312
1292.729, 602.3789
1293.798, 628.7969
1294.868, 108.3789
1295.937, 647.8359
1297.006, 201.9648
1298.075, 109.4961
1299.143, 281.0352
1300.212, 177.4609
1301.280, 507.8008
1302.348, 420.1719
1303.416, 295.2383
1304.484, 333.3516
1305.552, 90.33984
1306.620, 342.8398
1307.687, 190.7344
1308.754, 544.1211
1309.821, 642.5664
1310.888, 400.0664
1311.955, 347.6445
1313.021, 713.2695
1314.088, 71.04688
1315.154, 648.6992
1316.220, 596.4961
1317.286, 257.3516
1318.352, 300.2656
1319.417, 544.8320
1320.483, 252.8555
1321.548, 204.9844
1322.613, 746.1094
1323.678, 323.2812
1324.743, 484.4961
1325.807, 968.7539
1326.872, 327.0586
1327.936, 810.4102
1329.000, 852.0742
1330.064, 339.5156
1331.128, 682.0078
1332.191, 604.5430
1333.255, 414.1211
1334.318, 111.7500
1335.381, 588.5508
1336.444, 655.2734
1337.507, 286.0391
1338.569, 936.8477
1339.632, 760.7070
1340.694, 204.6133
1341.756, 879.5703
1342.818, 187.5742
1343.880, 735.6250
1344.941, 462.7188
1346.003, 260.8633
1347.064, 27.05859
1348.125, 23.75000
1349.186, 744.2383
1350.247, 118.5781
1351.308, 671.6562
1352.368, 805.0977
1353.428, 176.5898
1354.489, 885.1328
1355.549, 768.7227
1356.608, 338.3633
1357.668, 921.0859
1358.727, 158.8633
1359.787, 273.6914
1360.846, 490.5664
1361.905, 769.4961
1362.964, 137.4805
1364.022, 230.5117
1365.081, 651.6211
1366.139, 216.7695
1367.197, 458.9688
1368.255, 401.2227
1369.313, 5.464844
1370.371, 493.6133
1371.428, 295.0898
1372.486, 538.6211
1373.543, 325.2070
1374.600, 676.0547
1375.657, 338.7461
1376.713, 268.4922
1377.770, 918.2969
1378.826, 263.1523
1379.882, 229.0625
1380.938, 853.0391
1381.994, 6.921875
1383.050, 386.1641
1384.106, 721.3086
1385.161, 225.5078
1386.216, 287.6953
1387.271, 517.9375
1388.326, 270.2422
1389.381, 181.5938
1390.435, 660.0000
1391.490, 613.4609
1392.544, 211.9609
1393.598, 846.5117
1394.652, 364.1211
1395.705, 174.7852
1396.759, 782.5078
1397.812, 303.2891
1398.866, 372.0781
1399.919, 310.9258
1400.972, 434.8164
1402.024, 501.7695
1403.077, 52.77734
1404.129, 929.6797
1405.181, 113.8125
1406.233, 710.9961
1407.285, 694.2422
1408.337, 88.45312
1409.389, 773.9023
1410.440, 330.3281
1411.491, 83.80859
1412.542, 731.3477
1413.593, 615.9492
1414.644, 439.6133
1415.695, 284.3398
1416.745, 777.1328
1417.795, 328.9922
1418.845, 40.91797
1419.895, 1000.914
1420.945, 50.02734
1421.995, 404.2148
1423.044, 655.4766
1424.093, 282.8203
1425.142, 450.2461
1426.191, 383.7461
1427.240, 429.2812
1428.289, 553.8945
1429.337, 492.5938
1430.385, 421.7305
1431.433, 313.6016
1432.481, 603.5586
1433.529, 369.6133
1434.577, 158.7656
1435.624, 718.0195
1436.672, 291.3750
1437.719, 266.1797
1438.766, 633.7617
1439.812, 364.4531
1440.859, 719.2617
1441.905, 353.2148
1442.952, 855.3203
1443.998, 301.0703
1445.044, 483.8203
1446.090, 532.5508
1447.135, 227.8555
1448.181, 522.8555
1449.226, 921.5352
1450.271, 304.2891
1451.316, 570.1250
1452.361, 236.0664
1453.405, 449.0820
1454.450, 174.1836
1455.494, 590.3359
1456.538, 190.5664
1457.582, 240.8672
1458.626, 591.2500
1459.670, 227.7070
1460.713, 93.75781
1461.757, 882.8906
1462.800, 346.6172
1463.843, 330.4141
1464.886, 468.2930
1465.928, 336.2539
1466.971, 179.2930
1468.013, 235.4180
1469.055, 680.6133
1470.097, 246.8906
1471.139, 301.2539
1472.181, 799.6211
1473.222, 154.8320
1474.263, 412.7891
1475.305, 669.4844
1476.346, 38.73828
1477.386, 514.1250
1478.427, 254.9570
1479.468, 32.97266
1480.508, 499.0664
1481.548, 520.2344
1482.588, 457.4844
1483.628, 342.8203
1484.668, 900.2344
1485.707, 748.7305
1486.747, 400.3008
1487.786, 825.9570
1488.825, 656.6836
1489.864, 257.4805
1490.902, 840.5703
1491.941, 600.4961
1492.979, 664.5000
1494.017, 483.5859
1495.055, 870.7422
1496.093, 225.9883
1497.131, 868.3047
1498.168, 1108.703
1499.206, 12.83594
1500.243, 743.7031
1501.280, 1023.316
1502.317, 230.9883
1503.354, 617.7578
1504.390, 751.5938
1505.426, 600.4844
1506.463, 959.4219
1507.499, 580.3672
1508.535, 888.3438
1509.570, 565.3633
1510.606, 715.2812
1511.641, 473.2500
1512.676, 217.3398
1513.711, 1058.566
1514.746, 158.9180
1515.781, 333.4023
1516.816, 1014.270
1517.850, 419.9297
1518.884, 526.7188
1519.918, 488.6445
1520.952, 852.6992
1521.986, 592.8906
1523.019, 645.1016
1524.053, 1221.320
1525.086, 231.8711
1526.119, 538.3125
1527.152, 984.8789
1528.185, 74.42578
1529.217, 743.3945
1530.250, 749.3359
1531.282, 360.4141
1532.314, 1013.699
1533.346, 552.1211
1534.377, 698.6875
1535.409, 393.3867
1536.440, 512.5234
1537.472, 522.5000
1538.503, 169.6289
1539.534, 654.9141
1540.564, 490.3633
1541.595, 544.2383
1542.625, 787.5898
1543.656, 161.1797
1544.686, 435.1133
1545.716, 808.4141
1546.745, 427.0000
1547.775, 196.1211
1548.804, 286.8984
1549.834, 518.1328
1550.863, 650.1094
1551.892, 474.7188
1552.920, 802.7969
1553.949, 90.37500
1554.977, 287.5742
1556.006, 404.4023
1557.034, 298.9336
1558.062, 368.1914
1559.089, 312.9805
1560.117, 328.1641
1561.144, 215.9570
1562.172, 476.9258
1563.199, 493.4141
1564.226, 26.15234
1565.252, 594.0742
1566.279, 615.4258
1567.305, 329.2031
1568.332, 566.3867
1569.358, 391.6367
1570.384, 0.1054690
1571.409, 0.0000000E+00
##END=



