##NAMES=Fluorite
##RRUFFID=R050045
##IDEAL CHEMISTRY=CaF_2_
##LOCALITY=Hunan Province, China
##OWNER=RRUFF
##SOURCE=Eugene Schlepp
##DESCRIPTION=Pale green colored cubes
##STATUS=The identification of this mineral has been confirmed by X-ray diffraction and chemical analysis
##URL=rruff.info/R050045
##MEASURED CHEMISTRY=Ca_1.000_ F_2.000_
##PIN_ID=L00437
##ORIENTATION=Laser parallel to a* (1 0 0). Fiducial mark perpendicular to laser is parallel to -b [0 -1 0]
133.821, 0.000
135.210, 1.243
136.599, 243.436
137.987, 82.883
139.376, 65.529
140.764, 280.365
142.152, 47.097
143.539, 145.145
144.927, 74.087
146.314, 263.817
147.701, 54.196
149.088, 116.460
150.474, 288.764
151.861, 71.114
153.247, 173.522
154.633, 45.999
156.018, 338.551
157.404, 91.975
158.789, 95.463
160.174, 249.063
161.559, 242.731
162.943, 332.021
164.327, 286.455
165.711, 157.873
167.095, 160.870
168.479, 173.916
169.862, 167.019
171.246, 140.181
172.628, 183.417
174.011, 116.734
175.394, 420.127
176.776, 263.587
178.158, 237.110
179.540, 212.658
180.922, 88.650
182.303, 261.934
183.684, 106.359
185.065, 299.753
186.446, 167.605
187.826, 111.012
189.207, 264.482
190.587, 61.986
191.967, 311.601
193.346, 185.239
194.726, 178.931
196.105, 152.669
197.484, 96.455
198.862, 150.056
200.241, 54.160
201.619, 228.076
202.997, 212.033
204.375, 216.079
205.753, 80.188
207.130, 34.334
208.507, 258.597
209.884, 323.076
211.261, 147.695
212.638, 12.331
214.014, 176.986
215.390, 281.656
216.766, 206.345
218.141, 241.021
219.517, 15.699
220.892, 200.383
222.267, 25.076
223.642, 80.222
225.016, 174.491
226.391, 30.782
227.765, 203.953
229.139, 138.704
230.512, 163.468
231.886, 218.242
233.259, 16.970
234.632, 247.829
236.005, 2.639
237.377, 377.462
238.749, 47.698
240.122, 267.152
241.493, 332.014
242.865, 36.885
244.237, 251.779
245.608, 76.646
246.979, 291.525
248.350, 156.418
249.720, 231.322
251.090, 246.236
252.461, 141.164
253.830, 266.105
255.200, 161.059
256.570, 216.025
257.939, 171.006
259.308, 175.998
260.677, 271.002
262.045, 35.980
263.414, 340.963
264.782, 26.016
266.150, 191.076
267.517, 366.148
268.885, 121.227
270.252, 156.312
271.619, 21.414
272.986, 367.742
274.353, 104.961
275.719, 200.205
277.085, 135.463
278.451, 170.742
279.817, 316.029
281.182, 181.326
282.548, 224.846
283.913, 440.154
285.278, 147.318
286.642, 372.785
288.007, 188.041
289.371, 423.305
290.735, 368.580
292.099, 333.863
293.462, 489.152
294.826, 364.447
296.189, 559.752
297.552, 585.084
298.914, 860.512
300.277, 534.465
301.639, 879.318
303.001, 1064.248
304.363, 1129.242
305.724, 1574.287
307.086, 1549.377
308.447, 2254.504
309.808, 2699.664
311.168, 3484.852
312.529, 4700.064
313.889, 6245.295
315.249, 8560.543
316.609, 11485.809
317.969, 14371.090
319.328, 16866.385
320.687, 18621.697
322.046, 17967.014
323.405, 15132.350
324.764, 12727.691
326.122, 9663.045
327.480, 7538.340
328.838, 5793.646
330.196, 4408.965
331.553, 3874.309
332.910, 2879.654
334.267, 2745.012
335.624, 2330.379
336.981, 1895.758
338.337, 1841.148
339.693, 1506.646
341.049, 1462.059
342.405, 1257.568
343.760, 1162.947
345.116, 1268.326
346.471, 863.715
347.826, 1109.109
349.180, 724.514
350.535, 859.910
351.889, 776.109
353.243, 671.523
354.597, 904.129
355.950, 629.564
357.304, 735.008
358.657, 460.488
360.010, 685.973
361.362, 571.469
362.715, 316.971
364.067, 592.480
365.419, 358.008
366.771, 533.543
368.123, 389.086
369.474, 474.637
370.825, 360.195
372.176, 225.879
373.527, 391.465
374.877, 267.072
376.228, 392.684
377.578, 328.299
378.928, 253.920
380.277, 439.545
381.627, 295.174
382.976, 300.807
384.325, 366.441
385.674, 112.100
387.023, 504.406
388.371, 280.072
389.719, 364.963
391.067, 210.635
392.415, 421.643
393.762, 377.363
395.110, 133.088
396.457, 388.488
397.804, 164.217
399.150, 219.977
400.497, 45.738
401.843, 150.137
403.189, 325.955
404.535, 252.207
405.881, 418.047
407.226, 163.891
408.571, 29.975
409.916, 205.865
411.261, 35.156
412.605, 320.686
413.950, 46.529
415.294, 92.371
416.638, 278.215
417.981, 5.713
419.325, 361.559
420.668, 37.406
422.011, 303.258
423.354, 79.109
424.697, 114.965
426.039, 420.838
427.381, 123.287
428.723, 375.959
430.065, 41.803
431.406, 84.809
432.748, 260.650
434.089, 173.510
435.430, 322.277
436.770, 1.945
438.111, 293.828
439.451, 359.615
440.791, 165.400
442.131, 371.184
443.471, 126.963
444.810, 173.357
446.149, 209.100
447.488, 274.789
448.827, 279.414
450.166, 86.160
451.504, 251.840
452.842, 197.520
454.180, 83.195
455.518, 290.230
456.855, 195.904
458.193, 364.689
459.530, 130.371
460.867, 326.053
462.203, 51.738
463.540, 187.422
464.876, 253.105
466.212, 98.787
467.548, 394.467
468.883, 420.146
470.219, 285.820
471.554, 331.496
472.889, 117.168
474.224, 492.836
475.558, 118.502
476.892, 274.166
478.227, 389.826
479.561, 75.482
480.894, 431.139
482.228, 136.789
483.561, 32.445
484.894, 458.094
486.227, 113.742
487.559, 359.387
488.892, 175.027
490.224, 330.701
491.556, 26.371
492.888, 242.039
494.220, 117.701
495.551, 33.361
496.882, 329.033
498.213, 184.699
499.544, 20.363
500.874, 286.020
502.205, 21.674
503.535, 317.346
504.865, 233.014
506.194, 328.676
507.524, 434.336
508.853, 69.990
510.182, 345.639
511.511, 1.285
512.840, 406.914
514.168, 312.543
515.496, 208.178
516.824, 493.807
518.152, 84.828
519.480, 460.447
520.807, 426.061
522.134, 171.672
523.461, 297.275
524.788, 234.922
526.114, 360.514
527.441, 216.176
528.767, 251.756
530.093, 557.332
531.418, 36.631
532.744, 572.193
534.069, 231.531
535.394, 227.080
536.719, 282.623
538.044, 388.428
539.368, 523.957
540.693, 149.479
542.017, 184.994
543.340, 510.504
544.664, 130.000
545.987, 225.494
547.311, 341.000
548.634, 456.502
549.956, 291.994
551.279, 53.053
552.601, 402.377
553.923, 127.799
555.245, 453.215
556.567, 188.623
557.889, 199.773
559.210, 225.164
560.531, 132.639
561.852, 418.020
563.173, 53.393
564.493, 152.504
565.813, 457.854
567.133, 63.193
568.453, 267.496
569.773, 167.188
571.092, 277.076
572.412, 352.262
573.731, 87.439
575.049, 502.605
576.368, 17.764
577.686, 362.896
579.005, 388.020
580.323, 183.990
581.640, 379.094
582.958, 94.189
584.275, 313.881
585.593, 318.955
586.909, 13.424
588.226, 481.600
589.543, 73.383
590.859, 151.561
592.175, 256.494
593.491, 150.490
594.807, 595.406
596.122, 120.107
597.438, 228.166
598.753, 323.053
600.068, 397.932
601.382, 532.801
602.697, 37.660
604.011, 362.504
605.325, 337.340
606.639, 142.166
607.952, 616.982
609.266, 81.791
610.579, 436.590
611.892, 171.381
613.205, 16.164
614.518, 640.924
615.830, 14.324
617.142, 574.084
618.454, 518.791
619.766, 243.486
621.078, 688.176
622.389, 282.857
623.700, 827.527
625.011, 612.191
626.322, 526.844
627.632, 871.492
628.943, 486.127
630.253, 740.756
631.563, 375.375
632.872, 169.986
634.182, 704.590
635.491, 79.184
636.800, 703.770
638.109, 348.348
639.418, 452.916
640.726, 478.787
642.035, 333.340
643.343, 737.885
644.651, 282.422
645.958, 496.951
647.266, 800.117
648.573, 354.629
649.880, 739.119
651.187, 663.615
652.494, 498.102
653.800, 866.172
655.106, 240.641
656.412, 725.104
657.718, 139.461
659.024, 473.904
660.329, 233.836
661.634, 158.266
662.939, 452.686
664.244, 107.098
665.549, 321.502
666.853, 395.898
668.157, 130.287
669.461, 463.883
670.765, 88.264
672.069, 342.637
673.372, 517.004
674.675, 48.637
675.978, 485.695
677.281, 90.020
678.583, 214.338
679.886, 398.648
681.188, 2.951
682.490, 487.248
683.792, 61.535
685.093, 85.818
686.394, 440.102
687.696, 25.619
688.997, 728.512
690.297, 27.258
691.598, 356.934
692.898, 291.119
694.198, 45.301
695.498, 489.471
696.798, 233.637
698.097, 217.795
699.397, 311.947
700.696, 33.904
701.995, 610.201
703.293, 104.309
704.592, 58.412
705.890, 202.512
707.188, 123.396
708.486, 535.318
709.784, 59.318
711.081, 283.314
712.378, 117.307
713.675, 68.707
714.972, 565.225
716.269, 170.848
717.565, 322.971
718.862, 256.785
720.158, 39.834
721.453, 383.938
722.749, 187.707
724.045, 371.180
725.340, 434.947
726.635, 5.578
727.930, 479.338
729.224, 133.098
730.519, 406.854
731.813, 350.609
733.107, 352.709
734.401, 536.463
735.694, 0.215
736.988, 383.955
738.281, 467.695
739.574, 68.566
740.867, 625.133
742.160, 378.828
743.452, 189.162
744.744, 662.900
746.036, 109.475
747.328, 603.213
748.620, 286.951
749.911, 260.742
751.202, 754.531
752.493, 51.674
753.784, 492.092
755.075, 445.859
756.365, 209.633
757.655, 513.408
758.945, 146.531
760.235, 350.311
761.525, 344.092
762.814, 247.881
764.103, 381.670
765.392, 95.463
766.681, 519.258
767.969, 113.059
769.258, 265.500
770.546, 579.309
771.834, 69.992
773.122, 613.791
774.409, 277.580
775.697, 151.375
776.984, 575.172
778.271, 78.975
779.558, 472.785
780.844, 436.600
782.131, 70.420
783.417, 634.246
784.703, 178.078
785.989, 441.918
787.274, 655.762
788.560, 109.613
789.845, 643.471
791.130, 227.336
792.415, 431.207
793.699, 635.088
794.983, 31.027
796.268, 822.854
797.552, 116.740
798.835, 90.637
800.119, 604.539
801.402, 171.549
802.686, 832.295
803.969, 186.148
805.251, 180.008
806.534, 703.879
807.816, 82.244
809.098, 661.611
810.380, 255.475
811.662, 309.348
812.944, 1023.230
814.225, 122.836
815.506, 721.059
816.787, 774.961
818.068, 498.902
819.349, 732.852
820.629, 36.812
821.909, 630.785
823.189, 606.484
824.469, 330.504
825.749, 784.537
827.028, 98.578
828.307, 622.631
829.586, 537.596
830.865, 51.672
832.144, 885.762
833.422, 359.859
834.700, 743.977
835.978, 830.312
837.256, 464.455
838.534, 1188.533
839.811, 1054.922
841.088, 919.100
842.365, 1409.561
843.642, 933.766
844.919, 1554.199
846.195, 758.602
847.472, 972.846
848.748, 1026.834
850.023, 431.109
851.299, 1255.395
852.575, 849.697
853.850, 774.012
855.125, 974.348
856.400, 610.398
857.674, 994.758
858.949, 1089.125
860.223, 773.516
861.497, 1178.453
862.771, 442.898
864.045, 1027.359
865.318, 681.836
866.591, 176.332
867.864, 1085.094
869.137, 509.621
870.410, 522.074
871.682, 756.641
872.955, 261.219
874.227, 652.070
875.499, 786.695
876.770, 401.336
878.042, 765.996
879.313, 450.676
880.584, 744.676
881.855, 519.484
883.126, 154.301
884.396, 1089.145
885.667, 274.070
886.937, 609.023
888.207, 573.996
889.476, 348.133
890.746, 576.016
892.015, 368.180
893.284, 568.637
894.553, 773.715
895.822, 490.234
897.090, 1175.402
898.359, 490.594
899.627, 775.891
900.895, 891.207
902.163, 266.605
903.430, 1052.023
904.698, 457.461
905.965, 429.762
907.232, 835.246
908.499, 360.750
909.765, 926.281
911.032, 611.836
912.298, 757.414
913.564, 1303.020
914.830, 658.648
916.095, 754.301
917.361, 759.977
918.626, 445.680
919.891, 1121.402
921.156, 767.148
922.420, 362.930
923.685, 1118.730
924.949, 50.871
926.213, 1136.738
927.477, 452.629
928.740, 718.539
930.004, 984.477
931.267, 330.441
932.530, 646.434
933.793, 1022.445
935.056, 138.480
936.318, 994.551
937.581, 420.641
938.843, 426.754
940.104, 962.898
941.366, 259.066
942.628, 725.262
943.889, 611.477
945.150, 357.727
946.411, 1103.996
947.672, 168.984
948.932, 1025.305
950.193, 401.656
951.453, 408.031
952.713, 1024.434
953.973, 402.215
955.232, 728.668
956.491, 805.152
957.751, 21.656
959.010, 1038.191
960.268, 271.164
961.527, 527.754
962.785, 614.371
964.044, 191.012
965.302, 426.855
966.559, 317.969
967.817, 304.691
969.075, 547.273
970.332, 184.047
971.589, 430.848
972.846, 397.672
974.102, 75.477
975.359, 476.410
976.615, 123.297
977.871, 400.211
979.127, 447.152
980.383, 185.883
981.638, 851.074
982.893, 78.062
984.149, 335.074
985.404, 573.191
986.658, 139.750
987.913, 657.312
989.167, 294.395
990.421, 88.484
991.675, 668.645
992.929, 65.797
994.183, 362.992
995.436, 410.215
996.689, 12.516
997.942, 614.781
999.195, 402.102
1000.448, 509.469
1001.700, 1356.859
1002.952, 544.270
1004.204, 661.711
1005.456, 589.184
1006.708, 73.301
1007.959, 944.227
1009.210, 201.777
1010.461, 419.355
1011.712, 777.055
1012.963, 44.719
1014.213, 792.422
1015.464, 660.148
1016.714, 107.906
1017.964, 1235.688
1019.214, 273.520
1020.463, 841.379
1021.712, 1029.445
1022.962, 457.402
1024.210, 1235.398
1025.459, 453.434
1026.708, 541.488
1027.956, 999.570
1029.204, 77.676
1030.452, 825.805
1031.700, 790.277
1032.948, 598.461
1034.195, 996.742
1035.442, 129.031
1036.689, 697.355
1037.936, 975.773
1039.183, 84.219
1040.429, 1302.684
1041.676, 511.629
1042.922, 510.137
1044.168, 908.699
1045.413, 55.797
1046.659, 1242.785
1047.904, 761.820
1049.149, 411.820
1050.394, 1280.488
1051.639, 562.383
1052.884, 601.102
1054.128, 1199.852
1055.372, 488.609
1056.616, 1267.398
1057.860, 426.258
1059.104, 585.133
1060.347, 1164.020
1061.590, 293.812
1062.833, 1042.793
1064.076, 741.785
1065.319, 491.324
1066.561, 950.371
1067.803, 269.477
1069.046, 578.594
1070.287, 1207.723
1071.529, 256.867
1072.771, 1016.027
1074.012, 825.195
1075.253, 504.520
1076.494, 1413.801
1077.735, 473.109
1078.975, 982.758
1080.216, 1072.105
1081.456, 401.574
1082.696, 1081.051
1083.936, 790.543
1085.175, 340.242
1086.415, 1329.855
1087.654, 659.477
1088.893, 1029.129
1090.132, 838.793
1091.371, 338.465
1092.609, 1658.145
1093.847, 617.832
1095.085, 447.535
1096.323, 1017.250
1097.561, 266.969
1098.799, 676.703
1100.036, 546.441
1101.273, 166.188
1102.510, 825.949
1103.747, 205.758
1104.983, 685.570
1106.220, 1035.391
1107.456, 85.215
1108.692, 1165.344
1109.928, 525.207
1111.163, 255.078
1112.399, 904.961
1113.634, 185.152
1114.869, 344.660
1116.104, 464.500
1117.339, 125.660
1118.573, 954.145
1119.808, 53.953
1121.042, 213.762
1122.276, 883.586
1123.509, 108.309
1124.743, 731.594
1125.976, 481.383
1127.210, 241.168
1128.443, 910.957
1129.675, 434.449
1130.908, 324.238
1132.141, 724.305
1133.373, 25.898
1134.605, 833.883
1135.837, 439.422
1137.068, 319.219
1138.300, 991.820
1139.531, 419.398
1140.762, 589.191
1141.993, 769.910
1143.224, 449.707
1144.455, 630.766
1145.685, 950.383
1146.915, 330.160
1148.145, 964.922
1149.375, 424.699
1150.605, 744.469
1151.834, 845.035
1153.063, 114.793
1154.292, 865.617
1155.521, 684.422
1156.750, 164.152
1157.978, 1104.492
1159.207, 54.207
1160.435, 763.910
1161.663, 616.496
1162.891, 216.172
1164.118, 868.320
1165.345, 637.973
1166.573, 137.613
1167.800, 918.555
1169.026, 78.168
1170.253, 777.766
1171.480, 399.965
1172.706, 179.531
1173.932, 989.082
1175.158, 170.098
1176.383, 349.609
1177.609, 1080.387
1178.834, 100.133
1180.059, 499.270
1181.284, 628.320
1182.509, 212.316
1183.734, 766.906
1184.958, 264.414
1186.182, 303.594
1187.406, 1283.004
1188.630, 93.391
1189.854, 822.496
1191.077, 524.246
1192.301, 86.090
1193.524, 961.496
1194.747, 127.039
1195.969, 154.043
1197.192, 1305.262
1198.414, 181.410
1199.636, 767.211
1200.858, 739.215
1202.080, 657.781
1203.302, 1156.320
1204.523, 417.598
1205.744, 636.074
1206.966, 1284.531
1208.186, 87.293
1209.407, 845.680
1210.628, 924.031
1211.848, 179.574
1213.068, 1177.863
1214.288, 586.340
1215.508, 554.562
1216.727, 1652.754
1217.947, 402.426
1219.166, 1060.555
1220.385, 1178.672
1221.604, 333.887
1222.822, 1501.938
1224.041, 913.477
1225.259, 286.129
1226.477, 1574.078
1227.695, 548.211
1228.913, 946.555
1230.130, 1194.867
1231.348, 397.562
1232.565, 1675.316
1233.782, 913.141
1234.999, 536.078
1236.215, 1613.781
1237.432, 922.391
1238.648, 1020.055
1239.864, 1617.695
1241.080, 776.969
1242.296, 1484.574
1243.511, 1002.152
1244.726, 590.371
1245.942, 1737.910
1247.156, 485.426
1248.371, 1025.766
1249.586, 1903.242
1250.800, 591.137
1252.014, 1418.566
1253.228, 1225.977
1254.442, 416.039
1255.656, 1973.398
1256.869, 920.738
1258.083, 850.246
1259.296, 1527.527
1260.509, 1025.820
1261.722, 1533.219
1262.934, 920.410
1264.147, 594.152
1265.359, 1651.262
1266.571, 788.340
1267.783, 738.414
1268.994, 1725.434
1270.206, 477.391
1271.417, 1455.184
1272.628, 1412.098
1273.839, 588.973
1275.050, 1435.906
1276.260, 1282.750
1277.471, 460.562
1278.681, 1377.328
1279.891, 792.855
1281.101, 872.176
1282.310, 1218.629
1283.520, 95.047
1284.729, 1473.117
1285.938, 809.445
1287.147, 325.703
1288.356, 1301.891
1289.564, 248.023
1290.773, 785.055
1291.981, 1601.027
1293.189, 36.867
1294.397, 1072.996
1295.604, 1068.691
1296.812, 374.270
1298.019, 1639.941
1299.226, 315.438
1300.433, 390.762
1301.640, 1545.980
1302.846, 430.949
1304.053, 926.184
1305.259, 950.750
1306.465, 115.316
1307.671, 1619.812
1308.876, 144.266
1310.082, 708.637
1311.287, 1362.957
1312.492, 277.223
1313.697, 991.402
1314.902, 1005.391
1316.106, 139.430
1317.310, 1653.395
1318.515, 767.277
1319.719, 261.094
1320.922, 1664.812
1322.126, 298.473
1323.329, 762.023
1324.533, 1209.176
1325.736, 197.422
1326.939, 1245.820
1328.141, 754.992
1329.344, 181.953
1330.546, 1540.945
1331.748, 533.750
1332.950, 296.473
1334.152, 1168.648
1335.354, 131.203
1336.555, 453.664
1337.757, 1049.449
1338.958, 1.762
1340.159, 643.570
1341.359, 464.363
1342.560, 36.445
1343.760, 1265.254
1344.960, 67.195
1346.160, 689.059
1347.360, 1230.855
1348.560, 107.398
1349.759, 1074.227
1350.959, 915.797
1352.158, 132.688
1353.357, 1247.883
1354.555, 619.238
1355.754, 19.453
1356.952, 1311.512
1358.151, 67.301
1359.349, 933.809
1360.546, 884.883
1361.744, 235.934
1362.941, 1106.961
1364.139, 802.828
1365.336, 176.176
1366.533, 1524.695
1367.730, 67.102
1368.926, 28.020
1370.123, 868.641
1371.319, 320.191
1372.515, 479.797
1373.711, 482.312
1374.906, 298.512
1376.102, 617.137
1377.297, 572.270
1378.492, 17.305
1379.687, 1492.281
1380.882, 377.207
1382.077, 892.074
1383.271, 1636.883
1384.465, 241.621
1385.659, 1486.297
1386.853, 1390.914
1388.047, 455.148
1389.240, 1579.621
1390.434, 724.070
1391.627, 128.508
1392.820, 1712.922
1394.013, 517.266
1395.205, 911.426
1396.398, 1835.695
1397.590, 149.906
1398.782, 1413.730
1399.974, 1177.824
1401.166, 201.832
1402.357, 1352.336
1403.549, 585.039
1404.740, 597.234
1405.931, 2000.941
1407.122, 178.223
1408.313, 1130.711
1409.503, 1412.777
1410.693, 135.172
1411.883, 1277.707
1413.073, 1037.102
1414.263, 446.945
1415.453, 1540.105
1416.642, 941.398
1417.831, 630.773
1419.020, 1663.785
1420.209, 414.629
1421.398, 835.695
1422.587, 1509.488
1423.775, 152.184
1424.963, 1477.090
1426.151, 1207.164
1427.339, 245.363
1428.526, 1426.758
1429.714, 618.566
1430.901, 612.727
1432.088, 2099.594
1433.275, 392.016
1434.462, 1192.812
1435.648, 1500.293
1436.835, 502.090
1438.021, 1571.113
1439.207, 1074.383
1440.393, 532.965
1441.579, 2384.234
1442.764, 1213.219
1443.949, 868.262
1445.135, 2407.742
1446.320, 415.461
1447.504, 1504.992
1448.689, 2292.680
1449.873, 798.852
1451.058, 2076.676
1452.242, 1650.676
1453.426, 1066.461
1454.609, 2483.387
1455.793, 1543.543
1456.976, 1058.699
1458.159, 2598.207
1459.342, 1103.574
1460.525, 1493.188
1461.708, 2136.781
1462.890, 774.781
1464.073, 2178.605
1465.255, 1873.891
1466.437, 604.469
1467.619, 2186.887
1468.800, 1388.605
1469.982, 977.113
1471.163, 2260.449
1472.344, 922.023
1473.525, 1267.691
1474.706, 2328.457
1475.886, 715.699
1477.066, 1266.293
1478.247, 2125.547
1479.427, 265.602
1480.607, 2076.012
1481.786, 1077.648
1482.966, 479.199
1484.145, 2102.898
1485.324, 416.371
1486.503, 839.660
1487.682, 1902.934
1488.860, 446.262
1490.039, 1159.668
1491.217, 1423.262
1492.395, 447.285
1493.573, 1341.480
1494.751, 956.273
1495.928, 401.750
1497.106, 1927.965
1498.283, 274.941
1499.460, 650.234
1500.637, 1708.672
1501.814, 437.781
1502.990, 797.676
1504.166, 1568.539
1505.342, 49.426
1506.518, 1543.980
1507.694, 738.922
1508.870, 101.961
1510.045, 1740.371
1511.221, 471.055
1512.396, 185.383
1513.571, 1824.578
1514.745, 0.953
1515.920, 349.590
1517.094, 0.000
##END=



