##NAMES=Fluorapophyllite-(K)
##RRUFFID=R050021
##IDEAL CHEMISTRY=KCa_4_Si_8_O_20_F&#183;8H_2_O
##LOCALITY=Poona, Maharashtra State, India
##OWNER=RRUFF
##SOURCE=Eugene Schlepp
##DESCRIPTION=Colorless tetragonal prisms
##STATUS=The identification of this mineral has been confirmed by X-ray diffraction and chemical analysis
##URL=rruff.info/R050021
##MEASURED CHEMISTRY=(K_0.98_Na_0.02_)_Σ=1_Ca_4.00_Si_8.00_O_20_(F_0.84_(OH)_0.16_)_Σ=1_·8H_2_O
##PIN_ID=L00208
##ORIENTATION=Laser parallel to -c* (0 0 -1). Fiducial mark perpendicular to laser is parallel to a [1 0 0]
102.428, 0.000
103.820, 1185.107
105.212, 3765.410
106.604, 9088.242
107.995, 15617.705
109.387, 21930.322
110.777, 18911.793
112.168, 11267.234
113.559, 6577.834
114.949, 3311.569
116.339, 2032.104
117.729, 1034.880
119.119, 735.981
120.508, 153.936
121.897, 4.469
123.286, 204.113
124.675, 242.203
126.063, 48.670
127.452, 52.898
128.840, 307.646
130.228, 242.888
131.615, 315.099
133.003, 357.877
134.390, 419.910
135.777, 860.955
137.164, 1482.857
138.550, 2480.461
139.937, 3724.409
141.323, 4985.330
142.709, 5000.483
144.094, 3505.942
145.480, 2609.979
146.865, 1672.932
148.250, 1426.770
149.635, 913.479
151.019, 739.142
152.403, 720.492
153.788, 740.598
155.171, 822.580
156.555, 638.546
157.939, 804.586
159.322, 859.783
160.705, 1436.210
162.088, 2263.930
163.470, 3230.999
164.853, 4937.465
166.235, 6733.369
167.617, 9078.751
168.998, 9743.878
170.380, 8368.873
171.761, 6373.516
173.142, 4027.730
174.523, 2909.338
175.904, 1922.825
177.284, 1459.413
178.664, 1228.201
180.044, 1081.264
181.424, 891.710
182.803, 673.866
184.183, 807.159
185.562, 641.323
186.940, 874.476
188.319, 766.743
189.698, 764.660
191.076, 753.410
192.454, 975.148
193.831, 1190.109
195.209, 1250.530
196.586, 1559.559
197.963, 1610.337
199.340, 1743.978
200.717, 1844.585
202.093, 1755.422
203.470, 2006.479
204.846, 1997.747
206.221, 1879.213
207.597, 1620.865
208.972, 1313.690
210.347, 1238.677
211.722, 940.815
213.097, 893.095
214.472, 729.508
215.846, 756.045
217.220, 714.699
218.594, 549.465
219.967, 720.333
221.341, 591.300
222.714, 683.345
224.087, 785.443
225.460, 870.577
226.832, 1227.736
228.204, 1500.921
229.577, 1914.128
230.948, 1867.352
232.320, 2200.584
233.692, 1988.374
235.063, 1591.575
236.434, 1401.809
237.805, 895.673
239.175, 628.585
240.545, 376.883
241.916, 300.186
243.286, 240.154
244.655, 32.132
246.025, 137.883
247.394, 259.888
248.763, 103.883
250.132, 222.868
251.501, 265.845
252.869, 236.812
254.237, 308.771
255.605, 259.719
256.973, 276.787
258.340, 161.193
259.708, 196.936
261.075, 141.067
262.442, 77.588
263.808, 46.972
265.175, 96.566
266.541, 118.450
267.907, 268.780
269.273, 454.598
270.639, 361.192
272.004, 513.876
273.369, 342.220
274.734, 275.015
276.099, 92.216
277.463, 95.726
278.828, 155.627
280.192, 60.195
281.556, 64.750
282.919, 191.091
284.283, 83.287
285.646, 191.348
287.009, 105.574
288.372, 57.927
289.734, 151.536
291.097, 70.488
292.459, 63.315
293.821, 104.879
295.183, 165.096
296.544, 224.330
297.905, 468.577
299.266, 319.832
300.627, 575.088
301.988, 513.342
303.348, 581.586
304.709, 709.788
306.069, 657.921
307.428, 945.964
308.788, 993.914
310.147, 1321.778
311.507, 1339.562
312.865, 1437.258
314.224, 1634.860
315.583, 1582.365
316.941, 1889.782
318.299, 1927.116
319.657, 2134.371
321.015, 2261.551
322.372, 2198.660
323.729, 2455.701
325.086, 2312.682
326.443, 2339.600
327.800, 1986.462
329.156, 1833.270
330.512, 1670.026
331.868, 1456.731
333.224, 1463.389
334.579, 1429.997
335.935, 1266.559
337.290, 1463.077
338.645, 1359.330
339.999, 1635.186
341.354, 1500.589
342.708, 1555.526
344.062, 1270.026
345.416, 1184.202
346.769, 1018.146
348.123, 811.994
349.476, 815.842
350.829, 509.698
352.182, 583.564
353.534, 467.420
354.887, 371.259
356.239, 444.941
357.591, 258.400
358.942, 301.629
360.294, 344.681
361.645, 137.654
362.996, 70.621
364.347, 36.408
365.698, 146.546
367.048, 0.488
368.398, 132.468
369.748, 105.434
371.098, 58.409
372.448, 171.386
373.797, 114.371
375.146, 177.362
376.495, 270.362
377.844, 173.387
379.192, 406.419
380.540, 249.471
381.889, 462.529
383.236, 365.619
384.584, 548.718
385.932, 661.823
387.279, 844.947
388.626, 1178.080
389.973, 1181.241
391.319, 1514.422
392.666, 1837.611
394.012, 2250.811
395.358, 2594.019
396.704, 2847.212
398.049, 3510.429
399.394, 3353.617
400.740, 3696.813
402.084, 3910.045
403.429, 3643.290
404.774, 3806.595
406.118, 3259.907
407.462, 3077.758
408.806, 2575.635
410.150, 2285.975
411.493, 2096.249
412.836, 1739.156
414.179, 1719.484
415.522, 1361.745
416.865, 1309.590
418.207, 1340.660
419.549, 1220.766
420.891, 1438.268
422.233, 1363.663
423.575, 1642.703
424.916, 1975.875
426.257, 2591.000
427.598, 3203.227
428.939, 3996.105
430.279, 5230.021
431.619, 5773.955
432.959, 6297.900
434.299, 6261.867
435.639, 5225.855
436.978, 4319.855
438.318, 2962.000
439.657, 2364.192
440.996, 1807.756
442.334, 1272.314
443.673, 1036.568
445.011, 702.863
446.349, 575.875
447.687, 592.077
449.024, 303.626
450.361, 418.426
451.699, 207.683
453.036, 269.346
454.372, 144.095
455.709, 256.671
457.045, 390.429
458.381, 224.548
459.717, 428.661
461.053, 542.770
462.388, 516.873
463.724, 800.971
465.059, 505.066
466.394, 849.157
467.728, 673.243
469.063, 737.325
470.397, 841.402
471.731, 955.476
473.065, 1259.547
474.398, 1393.614
475.732, 1947.680
477.065, 2451.744
478.398, 3185.806
479.731, 4459.867
481.063, 5983.928
482.396, 8737.987
483.728, 10862.048
485.060, 14786.107
486.391, 16560.170
487.723, 16304.232
489.054, 15458.292
490.385, 11792.354
491.716, 9576.421
493.047, 7260.484
494.377, 5314.554
495.708, 4528.627
497.038, 3492.699
498.368, 3186.775
499.697, 2770.855
501.027, 2494.942
502.356, 2519.037
503.685, 2223.166
505.014, 2337.304
506.342, 2131.456
507.671, 1955.621
508.999, 2049.821
510.327, 1734.035
511.655, 1908.264
512.982, 1772.512
514.310, 1856.774
515.637, 2081.057
516.964, 1845.354
518.291, 2229.668
519.617, 2204.000
520.944, 2478.350
522.270, 2611.594
523.596, 2783.461
524.921, 3222.772
526.247, 3574.211
527.572, 4243.867
528.897, 4787.299
530.222, 5560.986
531.547, 6482.958
532.871, 6917.090
534.196, 8160.430
535.520, 9004.709
536.844, 9802.133
538.167, 11126.445
539.491, 10872.539
540.814, 11857.178
542.137, 11036.350
543.460, 11191.023
544.783, 10775.718
546.105, 9512.601
547.427, 9717.330
548.749, 8726.668
550.071, 8323.784
551.393, 7908.582
552.714, 7253.951
554.035, 7468.765
555.356, 6803.828
556.677, 6793.064
557.998, 6847.928
559.318, 6558.342
560.638, 6900.938
561.958, 6607.555
563.278, 7043.891
564.597, 7308.828
565.917, 7491.379
567.236, 8298.617
568.555, 8398.115
569.874, 9273.645
571.192, 10098.916
572.511, 11158.317
573.829, 12915.626
575.147, 13951.215
576.464, 16588.152
577.782, 18623.975
579.099, 21026.107
580.416, 24894.242
581.733, 26920.350
583.050, 31198.068
584.366, 32145.496
585.683, 33955.805
586.999, 33303.293
588.315, 30289.615
589.630, 28486.422
590.946, 23612.838
592.261, 20612.918
593.576, 17713.332
594.891, 14152.834
596.206, 12369.816
597.520, 10016.199
598.834, 8491.135
600.148, 7517.575
601.462, 6144.033
602.776, 5524.446
604.089, 4571.041
605.402, 4222.904
606.715, 3799.816
608.028, 3156.609
609.341, 3014.741
610.653, 2611.653
611.965, 2308.582
613.277, 2149.102
614.589, 1936.088
615.901, 1854.299
617.212, 1571.525
618.523, 1608.523
619.834, 1535.635
621.145, 1322.650
622.456, 1300.174
623.766, 1197.210
625.076, 1184.247
626.386, 1081.289
627.696, 1138.330
629.006, 1205.375
630.315, 982.421
631.624, 1099.469
632.933, 886.520
634.242, 893.570
635.551, 1110.624
636.859, 837.678
638.167, 914.732
639.475, 981.789
640.783, 848.846
642.090, 1045.904
643.398, 932.964
644.705, 850.022
646.012, 897.082
647.318, 1004.143
648.625, 1041.204
649.931, 748.266
651.237, 1115.328
652.543, 842.616
653.849, 929.678
655.155, 1126.738
656.460, 934.010
657.765, 1061.080
659.070, 1108.149
660.375, 920.611
661.679, 1287.680
662.984, 1054.746
664.288, 1111.830
665.592, 1023.249
666.895, 930.331
668.199, 1067.409
669.502, 725.182
670.805, 872.254
672.108, 670.491
673.411, 647.559
674.713, 544.636
676.016, 411.708
677.318, 518.777
678.620, 365.865
679.921, 173.021
681.223, 290.127
682.524, 58.433
683.825, 195.597
685.126, 112.840
686.427, 30.006
687.727, 137.141
689.028, 4.297
690.328, 21.447
691.628, 38.603
692.927, 64.021
694.227, 133.096
695.526, 39.618
696.825, 57.471
698.124, 85.449
699.423, 21.673
700.721, 98.696
702.020, 44.287
703.318, 82.698
704.616, 80.323
705.913, 43.396
707.211, 26.559
708.508, 9.614
709.805, 67.256
711.102, 4.117
712.399, 229.034
713.695, 107.681
714.992, 85.613
716.288, 118.969
717.584, 22.400
718.879, 175.861
720.175, 110.569
721.470, 113.011
722.765, 26.669
724.060, 60.360
725.355, 153.312
726.649, 162.843
727.944, 51.014
729.238, 14.921
730.532, 561.139
731.825, 162.814
733.119, 143.121
734.412, 80.960
735.705, 15.111
736.998, 110.700
738.291, 163.506
739.584, 2.172
740.876, 42.181
742.168, 4.401
743.460, 99.963
744.752, 25.507
746.043, 71.029
747.334, 33.469
748.626, 38.019
749.916, 22.624
751.207, 22.723
752.498, 138.044
753.788, 106.652
755.078, 88.558
756.368, 143.748
757.658, 31.080
758.947, 124.354
760.237, 50.550
761.526, 64.481
762.815, 151.130
764.104, 14.480
765.392, 299.435
766.680, 114.368
767.969, 20.721
769.257, 254.138
770.544, 18.974
771.832, 63.776
773.119, 208.555
774.406, 83.312
775.693, 220.790
776.980, 45.502
778.267, 353.748
779.553, 158.411
780.839, 163.051
782.125, 447.670
783.411, 242.266
784.697, 436.851
785.982, 411.401
787.267, 435.931
788.552, 610.438
789.837, 454.923
791.122, 819.386
792.406, 873.826
793.690, 788.243
794.974, 952.638
796.258, 727.011
797.542, 681.361
798.825, 555.690
800.108, 379.995
801.391, 304.279
802.674, 268.539
803.957, 332.776
805.239, 216.993
806.522, 81.187
807.804, 205.354
809.085, 189.499
810.367, 83.623
811.649, 239.789
812.930, 183.865
814.211, 32.080
815.492, 221.902
816.772, 325.862
818.053, 254.396
819.333, 11.688
820.613, 212.165
821.893, 145.995
823.173, 59.803
824.452, 243.580
825.732, 47.334
827.011, 141.056
828.290, 207.515
829.568, 171.190
830.847, 284.843
832.125, 203.324
833.403, 126.930
834.681, 152.281
835.959, 55.842
837.236, 137.416
838.514, 122.868
839.791, 236.346
841.068, 259.141
842.345, 182.571
843.621, 405.964
844.898, 410.045
846.174, 93.407
847.450, 393.904
848.726, 97.217
850.001, 189.034
851.277, 382.299
852.552, 111.031
853.827, 414.252
855.102, 207.449
856.376, 338.455
857.651, 281.610
858.925, 380.151
860.199, 460.911
861.473, 263.980
862.746, 396.479
864.020, 479.526
865.293, 272.321
866.566, 380.937
867.839, 293.923
869.112, 271.354
870.384, 316.604
871.656, 167.822
872.928, 399.324
874.200, 142.219
875.472, 277.496
876.744, 278.113
878.015, 16.533
879.286, 479.018
880.557, 101.820
881.828, 180.572
883.098, 331.518
884.369, 154.277
885.639, 245.795
886.909, 228.523
888.178, 165.043
889.448, 185.629
890.717, 148.316
891.987, 239.461
893.256, 190.941
894.524, 10.418
895.793, 301.041
897.061, 143.668
898.330, 155.814
899.598, 308.348
900.865, 27.211
902.133, 215.734
903.401, 265.172
904.668, 147.133
905.935, 169.697
907.202, 63.721
908.468, 396.236
909.735, 128.779
911.001, 2.572
912.267, 339.973
913.533, 77.295
914.799, 319.648
916.064, 222.172
917.330, 53.400
918.595, 415.908
919.860, 68.414
921.124, 257.371
922.389, 89.865
923.653, 211.135
924.918, 283.385
926.182, 205.863
927.445, 61.775
928.709, 250.668
929.972, 77.400
931.236, 265.002
932.499, 237.398
933.761, 239.793
935.024, 222.197
936.286, 4.596
937.549, 216.994
938.811, 249.387
940.073, 101.777
941.334, 324.166
942.596, 36.551
943.857, 178.934
945.118, 221.314
946.379, 193.691
947.640, 276.066
948.900, 118.441
950.161, 60.814
951.421, 273.188
952.681, 215.559
953.940, 357.926
955.200, 230.297
956.459, 282.662
957.719, 275.029
958.978, 37.168
960.236, 39.535
961.495, 311.900
962.753, 55.945
964.012, 346.400
965.270, 28.748
966.527, 85.699
967.785, 388.047
969.043, 109.604
970.300, 352.707
971.557, 100.680
972.814, 12.994
974.071, 65.307
975.327, 166.926
976.583, 169.248
977.840, 60.400
979.095, 77.277
980.351, 165.023
981.607, 157.328
982.862, 120.363
984.117, 301.904
985.372, 55.865
986.627, 286.418
987.882, 237.537
989.136, 139.797
990.390, 362.006
991.644, 34.307
992.898, 156.615
994.152, 248.930
995.405, 28.748
996.659, 393.570
997.912, 105.668
999.165, 218.014
1000.417, 490.189
1001.670, 292.557
1002.922, 594.930
1004.174, 417.240
1005.426, 569.650
1006.678, 752.066
1007.930, 504.500
1009.181, 796.941
1010.432, 789.410
1011.683, 531.904
1012.934, 804.416
1014.185, 526.938
1015.435, 519.471
1016.685, 522.014
1017.935, 404.629
1019.185, 717.287
1020.435, 440.148
1021.684, 542.883
1022.934, 765.637
1024.183, 798.453
1025.432, 771.275
1026.680, 724.141
1027.929, 737.029
1029.177, 829.152
1030.425, 672.127
1031.673, 735.107
1032.921, 1118.148
1034.169, 801.207
1035.416, 1024.275
1036.663, 927.404
1037.911, 1140.543
1039.157, 1303.721
1040.404, 1406.920
1041.650, 1940.131
1042.897, 2033.461
1044.143, 2077.111
1045.389, 2639.498
1046.634, 2903.895
1047.880, 3517.301
1049.125, 4300.727
1050.371, 4914.176
1051.615, 6737.652
1052.860, 7731.178
1054.105, 10076.814
1055.349, 13500.385
1056.593, 17063.975
1057.837, 22827.613
1059.081, 29661.262
1060.325, 35750.246
1061.568, 42343.621
1062.812, 40377.328
1064.055, 38421.074
1065.298, 33504.828
1066.540, 25588.596
1067.783, 22352.383
1069.025, 17376.176
1070.267, 14009.988
1071.509, 11943.828
1072.751, 9137.682
1073.993, 8221.555
1075.234, 7145.438
1076.475, 5729.332
1077.716, 5620.498
1078.957, 4654.418
1080.198, 3844.818
1081.438, 4028.793
1082.679, 3202.777
1083.919, 3260.025
1085.159, 3224.043
1086.398, 2788.066
1087.638, 3042.117
1088.877, 2526.178
1090.116, 2640.391
1091.355, 2824.486
1092.594, 2498.596
1093.833, 2592.713
1095.071, 2016.842
1096.309, 1730.982
1097.547, 1925.137
1098.785, 1339.301
1100.023, 1293.797
1101.260, 1457.984
1102.498, 762.182
1103.735, 1336.387
1104.972, 1020.604
1106.208, 964.832
1107.445, 1129.068
1108.681, 753.318
1109.918, 867.576
1111.154, 901.848
1112.389, 704.059
1113.625, 828.348
1114.860, 652.646
1116.096, 626.980
1117.331, 891.602
1118.566, 601.354
1119.800, 565.711
1121.035, 680.096
1122.269, 494.490
1123.503, 918.891
1124.737, 563.303
1125.971, 537.721
1127.205, 822.158
1128.438, 263.840
1129.671, 518.467
1130.904, 462.928
1132.137, 182.547
1133.370, 523.367
1134.602, 416.080
1135.834, 290.564
1137.066, 735.057
1138.298, 159.549
1139.530, 554.289
1140.762, 358.816
1141.993, 43.357
1143.224, 638.314
1144.455, 112.193
1145.686, 606.783
1146.917, 621.941
1148.147, 6.566
1149.377, 451.865
1150.607, 276.527
1151.837, 311.203
1153.067, 466.271
1154.296, 190.982
1155.526, 246.053
1156.755, 451.045
1157.984, 85.805
1159.213, 291.793
1160.441, 358.641
1161.670, 143.449
1162.898, 418.537
1164.126, 93.855
1165.354, 358.705
1166.581, 292.270
1167.809, 12.854
1169.036, 272.035
1170.263, 317.605
1171.490, 12.508
1172.717, 397.428
1173.943, 52.652
1175.170, 157.566
1176.396, 392.875
1177.622, 97.820
1178.848, 282.777
1180.073, 254.689
1181.299, 199.672
1182.524, 394.668
1183.749, 69.855
1184.974, 204.854
1186.199, 340.379
1187.423, 115.398
1188.648, 290.430
1189.872, 209.031
1191.096, 15.916
1192.320, 429.539
1193.543, 34.768
1194.767, 240.314
1195.990, 146.764
1197.213, 63.957
1198.436, 249.070
1199.659, 159.193
1200.881, 55.672
1202.104, 479.459
1203.326, 17.078
1204.548, 252.234
1205.770, 457.398
1206.991, 107.420
1208.213, 417.742
1209.434, 33.428
1210.655, 118.561
1211.876, 363.707
1213.096, 108.861
1214.317, 104.021
1215.537, 489.197
1216.757, 264.508
1217.977, 449.691
1219.197, 175.205
1220.417, 190.402
1221.636, 425.607
1222.855, 60.805
1224.074, 265.986
1225.293, 321.188
1226.512, 141.939
1227.731, 457.068
1228.949, 132.281
1230.167, 61.238
1231.385, 633.891
1232.603, 280.660
1233.820, 195.715
1235.038, 530.770
1236.255, 38.451
1237.472, 623.330
1238.689, 198.201
1239.906, 233.062
1241.122, 817.867
1242.338, 262.594
1243.555, 247.311
1244.771, 441.977
1245.986, 7.178
1247.202, 431.809
1248.417, 236.426
1249.633, 321.025
1250.848, 505.605
1252.063, 260.162
1253.277, 314.691
1254.492, 529.201
1255.706, 203.562
1256.920, 607.895
1258.134, 302.162
1259.348, 156.971
1260.562, 591.062
1261.775, 345.117
1262.988, 39.480
1264.201, 653.455
1265.414, 137.393
1266.627, 221.557
1267.839, 475.402
1269.052, 149.195
1270.264, 592.938
1271.476, 256.631
1272.688, 301.502
1273.899, 545.059
1275.111, 78.580
1276.322, 513.482
1277.533, 286.885
1278.744, 89.881
1279.955, 663.443
1281.165, 266.170
1282.376, 188.543
1283.586, 350.594
1284.796, 76.445
1286.006, 332.314
1287.215, 338.203
1288.425, 44.115
1289.634, 310.039
1290.843, 395.982
1292.052, 31.941
1293.261, 417.912
1294.469, 23.896
1295.678, 279.873
1296.886, 625.859
1298.094, 71.824
1299.302, 287.574
1300.509, 83.521
1301.717, 109.484
1302.924, 375.459
1304.131, 11.447
1305.338, 2.615
1306.545, 463.332
1307.752, 119.295
1308.958, 75.266
1310.164, 580.736
1311.370, 104.654
1312.576, 391.182
1313.782, 466.996
1314.987, 60.102
1316.193, 485.840
1317.398, 241.572
1318.603, 120.291
1319.807, 515.953
1321.012, 111.621
1322.216, 367.295
1323.421, 492.975
1324.625, 71.344
1325.829, 424.342
1327.032, 220.037
1328.236, 175.668
1329.439, 496.537
1330.642, 102.094
1331.845, 237.643
1333.048, 272.967
1334.251, 171.500
1335.453, 494.043
1336.656, 139.604
1337.858, 104.658
1339.060, 600.238
1340.261, 45.838
1341.463, 21.461
1342.664, 467.111
1343.866, 27.211
1345.067, 268.500
1346.267, 423.750
1347.468, 19.535
1348.669, 445.367
1349.869, 281.256
1351.069, 267.186
1352.269, 582.838
1353.469, 136.547
1354.668, 602.473
1355.868, 438.504
1357.067, 284.094
1358.266, 479.312
1359.465, 325.338
1360.664, 250.180
1361.862, 784.730
1363.061, 209.842
1364.259, 464.975
1365.457, 680.289
1366.655, 288.408
1367.852, 603.455
1369.050, 337.930
1370.247, 28.318
1371.444, 675.123
1372.641, 270.264
1373.838, 84.662
1375.035, 558.828
1376.231, 54.457
1377.427, 409.094
1378.623, 543.189
1379.819, 26.248
1381.015, 618.684
1382.211, 520.750
1383.406, 351.881
1384.601, 813.211
1385.796, 488.320
1386.991, 480.016
1388.185, 892.352
1389.380, 113.172
1390.574, 591.658
1391.768, 582.098
1392.962, 242.148
1394.156, 781.197
1395.350, 428.916
1396.543, 417.543
1397.736, 735.832
1398.929, 315.432
1400.122, 521.938
1401.315, 830.623
1402.507, 66.463
1403.700, 444.836
1404.892, 319.713
1406.084, 84.094
1407.276, 588.900
1408.467, 329.215
1409.659, 92.695
1410.850, 655.168
1412.041, 166.645
1413.232, 408.129
1414.423, 820.254
1415.614, 3.789
1416.804, 604.670
1417.994, 527.184
1419.184, 5.379
1420.374, 626.104
1421.564, 234.477
1422.753, 57.697
1423.943, 375.590
1425.132, 115.164
1426.321, 0.000
##END=



