##NAMES=Fluorapatite
##RRUFFID=R060421
##IDEAL CHEMISTRY=Ca_5_(PO_4_)_3_F
##LOCALITY=Levant mine, St. Just, Cornwall, England
##OWNER=RRUFF
##SOURCE=Michael Scott
##DESCRIPTION=Brown hexagonal prisms
##STATUS=The identification of this mineral has been confirmed by X-ray diffraction and chemical analysis
##URL=rruff.info/R060421
##MEASURED CHEMISTRY=(Ca_4.93_[box]_0.07_)_Σ=5_((PO_4_)_2.86_(CO_3_)_0.14_)_Σ=3_F_1.00_ ; C not measured but estimated by difference and charge balance
##PIN_ID=M00074
##ORIENTATION=Laser parallel to a* (1 0 0). Fiducial mark perpendicular to laser is parallel to -c [0 0 -1]
124.2880, 0.0000000E+00
125.5190, 0.3110350
126.7490, 37.26855
127.9790, 46.21118
129.2090, 67.03564
130.4390, 25.14404
131.6680, 36.69458
132.8980, 33.91797
134.1270, 29.85449
135.3560, 37.73779
136.5850, 44.71118
137.8140, 52.20435
139.0430, 96.52075
140.2710, 97.81421
141.5000, 159.0996
142.7280, 43.30225
143.9560, 117.4392
145.1840, 71.57129
146.4120, 66.67798
147.6390, 54.02686
148.8670, 53.16406
150.0940, 8.312500
151.3210, 92.25317
152.5490, 4.824707
153.7750, 113.2744
155.0020, 57.46509
156.2290, 99.34839
157.4550, 96.34717
158.6810, 52.96436
159.9080, 110.7651
161.1340, 54.65332
162.3590, 62.19775
163.5850, 117.3391
164.8110, 140.5942
166.0360, 111.8096
167.2610, 98.69751
168.4860, 92.73975
169.7110, 86.99829
170.9360, 28.73047
172.1610, 79.57788
173.3850, 28.72412
174.6100, 95.82300
175.8340, 63.66724
177.0580, 87.26953
178.2820, 49.64893
179.5050, 82.63916
180.7290, 65.19727
181.9520, 22.57617
183.1760, 36.92285
184.3990, 21.18359
185.6220, 83.89819
186.8450, 79.69336
188.0670, 42.57837
189.2900, 36.82739
190.5120, 10.71973
191.7340, 86.37524
192.9560, 73.64087
194.1780, 53.63696
195.4000, 110.9910
196.6220, 50.68188
197.8430, 120.3586
199.0640, 72.95337
200.2860, 100.6462
201.5070, 36.18091
202.7270, 103.1658
203.9480, 91.12085
205.1690, 29.45068
206.3890, 28.69458
207.6090, 99.31592
208.8290, 47.52856
210.0490, 120.4421
211.2690, 57.82251
212.4890, 63.41748
213.7080, 96.17041
214.9280, 116.6941
216.1470, 98.30542
217.3660, 54.21851
218.5850, 89.98291
219.8030, 48.56641
221.0220, 23.31250
222.2400, 46.76709
223.4590, 90.49072
224.6770, 69.78027
225.8950, 84.24438
227.1120, 51.56348
228.3300, 13.52637
229.5480, 54.97852
230.7650, 107.5994
231.9820, 76.54443
233.1990, 67.09619
234.4160, 61.88477
235.6330, 61.76904
236.8490, 102.9993
238.0660, 81.56689
239.2820, 97.77905
240.4980, 105.5806
241.7140, 74.51904
242.9300, 60.92944
244.1460, 26.32861
245.3610, 29.54883
246.5770, 19.85913
247.7920, 15.18677
249.0070, 14.03711
250.2220, 69.60205
251.4370, 64.74146
252.6510, 84.03540
253.8660, 7.892822
255.0800, 27.23364
256.2940, 88.14478
257.5080, 10.28418
258.7220, 121.6216
259.9360, 51.91968
261.1490, 6.563965
262.3630, 102.6309
263.5760, 88.82227
264.7890, 75.32471
266.0020, 66.70923
267.2150, 3.865479
268.4270, 154.9988
269.6400, 14.45142
270.8520, 71.87378
272.0640, 117.7988
273.2760, 96.74731
274.4880, 49.32202
275.7000, 25.97949
276.9120, 9.901611
278.1230, 82.15869
279.3340, 0.7453610
280.5450, 61.61597
281.7560, 78.20947
282.9670, 76.56885
284.1780, 30.55225
285.3880, 68.80371
286.5980, 33.76489
287.8090, 69.66675
289.0190, 120.6184
290.2290, 60.27197
291.4380, 121.8040
292.6480, 109.7708
293.8570, 105.3127
295.0670, 22.97876
296.2760, 114.8425
297.4850, 79.31128
298.6930, 66.26953
299.9020, 89.39844
301.1110, 44.50586
302.3190, 79.91846
303.5270, 75.80322
304.7350, 73.80176
305.9430, 51.12842
307.1510, 77.35840
308.3580, 45.14502
309.5660, 27.68066
310.7730, 38.24805
311.9800, 46.05078
313.1870, 17.70801
314.3940, 85.14160
315.6010, 26.45752
316.8070, 40.94434
318.0130, 64.03271
319.2200, 34.76611
320.4260, 110.1875
321.6310, 93.68359
322.8370, 22.25879
324.0430, 79.95557
325.2480, 71.18652
326.4540, 6.178223
327.6590, 21.27197
328.8640, 53.72852
330.0680, 50.09912
331.2730, 74.71387
332.4780, 8.771973
333.6820, 34.63867
334.8860, 28.18652
336.0900, 25.81104
337.2940, 54.24658
338.4980, 10.46924
339.7010, 58.00684
340.9050, 91.40674
342.1080, 35.79932
343.3110, 59.59668
344.5140, 92.85596
345.7170, 64.07422
346.9200, 26.94971
348.1220, 60.34766
349.3240, 23.63477
350.5270, 80.19385
351.7290, 93.71777
352.9310, 27.43604
354.1320, 26.26611
355.3340, 75.92822
356.5350, 144.6743
357.7370, 66.09717
358.9380, 29.32568
360.1390, 89.65674
361.3400, 42.42676
362.5400, 50.74463
363.7410, 40.67969
364.9410, 5.666992
366.1410, 133.8765
367.3410, 44.08057
368.5410, 175.4307
369.7410, 162.4287
370.9400, 42.52344
372.1400, 83.35596
373.3390, 191.6987
374.5380, 67.89844
375.7370, 65.67334
376.9360, 2.722168
378.1350, 78.76221
379.3330, 90.51611
380.5310, 87.30664
381.7300, 108.5327
382.9280, 13.22168
384.1260, 5.770996
385.3230, 94.82373
386.5210, 93.22607
387.7180, 193.2451
388.9160, 145.4375
390.1130, 9.621094
391.3100, 70.70068
392.5060, 42.50977
393.7030, 43.07324
394.9000, 123.4531
396.0960, 67.99756
397.2920, 48.38818
398.4880, 40.97803
399.6840, 46.19629
400.8800, 31.31104
402.0750, 89.88574
403.2710, 84.20117
404.4660, 106.5220
405.6610, 93.94287
406.8560, 41.46436
408.0510, 148.5898
409.2450, 54.12109
410.4400, 30.73486
411.6340, 94.14746
412.8280, 38.91895
414.0220, 35.87793
415.2160, 107.3921
416.4100, 96.99951
417.6030, 175.1455
418.7970, 143.7788
419.9900, 69.11133
421.1830, 22.04736
422.3760, 34.22852
423.5690, 159.0601
424.7610, 89.92920
425.9540, 131.4746
427.1460, 198.4067
428.3380, 124.0503
429.5300, 178.8066
430.7220, 178.3472
431.9140, 152.0942
433.1050, 208.4800
434.2970, 223.0596
435.4880, 104.1514
436.6790, 190.7725
437.8700, 135.6172
439.0610, 145.0161
440.2510, 153.0728
441.4420, 237.6577
442.6320, 203.0283
443.8220, 192.2114
445.0120, 103.0464
446.2020, 212.4058
447.3910, 105.3486
448.5810, 138.7070
449.7700, 81.32324
450.9600, 171.3765
452.1490, 214.3901
453.3370, 198.6021
454.5260, 106.8120
455.7150, 133.5308
456.9030, 168.9116
458.0910, 10.32812
459.2800, 109.3472
460.4670, 198.2344
461.6550, 88.63428
462.8430, 81.93311
464.0300, 147.2554
465.2180, 145.9492
466.4050, 19.34668
467.5920, 65.71387
468.7790, 92.26855
469.9650, 49.52148
471.1520, 167.4922
472.3380, 3.980957
473.5250, 105.3501
474.7110, 29.11572
475.8970, 34.61182
477.0820, 126.7129
478.2680, 118.3516
479.4540, 61.32324
480.6390, 69.12549
481.8240, 28.15576
483.0090, 34.46484
484.1940, 16.04590
485.3780, 93.56787
486.5630, 21.32275
487.7470, 14.65332
488.9320, 27.65479
490.1160, 107.7344
491.3000, 114.3057
492.4830, 28.84424
493.6670, 46.54688
494.8500, 14.04883
496.0340, 104.6006
497.2170, 97.60645
498.4000, 90.13672
499.5820, 1.883301
500.7650, 15.66846
501.9480, 154.5781
503.1300, 54.29004
504.3120, 77.77148
505.4940, 53.04932
506.6760, 43.98926
507.8580, 35.59473
509.0390, 36.34961
510.2210, 29.21094
511.4020, 49.31445
512.5830, 33.01660
513.7640, 36.28809
514.9450, 63.92285
516.1250, 65.41113
517.3060, 50.91504
518.4860, 94.55273
519.6660, 68.79102
520.8460, 101.2910
522.0260, 72.02148
523.2060, 28.34570
524.3850, 69.78613
525.5650, 88.68848
526.7440, 13.33008
527.9230, 63.58984
529.1020, 104.6191
530.2810, 37.25977
531.4590, 64.62793
532.6380, 26.87012
533.8160, 38.45508
534.9940, 50.99219
536.1720, 97.69141
537.3500, 51.80176
538.5270, 67.47168
539.7050, 56.70605
540.8820, 71.19922
542.0590, 66.31836
543.2360, 78.45996
544.4130, 30.60645
545.5900, 110.2578
546.7660, 53.57715
547.9430, 78.91016
549.1190, 5.052734
550.2950, 36.27246
551.4710, 9.033203
552.6470, 74.88281
553.8220, 27.35840
554.9980, 21.27441
556.1730, 10.01953
557.3480, 97.42383
558.5230, 159.1602
559.6980, 21.67480
560.8730, 32.08594
562.0470, 56.63281
563.2220, 115.9766
564.3960, 107.5889
565.5700, 47.97363
566.7440, 85.53418
567.9170, 202.4053
569.0910, 46.33008
570.2640, 180.9873
571.4380, 170.1875
572.6110, 128.7256
573.7840, 238.7266
574.9570, 104.2246
576.1290, 254.5117
577.3020, 87.84180
578.4740, 240.7344
579.6460, 236.6338
580.8180, 144.9639
581.9900, 193.7842
583.1620, 204.9492
584.3330, 244.4443
585.5040, 254.8369
586.6760, 136.4092
587.8470, 203.9521
589.0180, 313.0068
590.1880, 199.6816
591.3590, 92.01562
592.5290, 280.6338
593.7000, 187.6396
594.8700, 170.8369
596.0400, 266.8975
597.2090, 289.5156
598.3790, 320.8789
599.5490, 326.3213
600.7180, 343.0371
601.8870, 215.0352
603.0560, 423.3613
604.2250, 224.8906
605.3940, 329.8809
606.5620, 300.2842
607.7300, 334.2725
608.8990, 251.5078
610.0670, 214.8564
611.2350, 281.5732
612.4020, 401.2412
613.5700, 155.4570
614.7370, 295.1318
615.9050, 250.1748
617.0720, 114.8867
618.2390, 249.8271
619.4060, 319.1494
620.5720, 358.0547
621.7390, 387.1006
622.9050, 336.7080
624.0710, 349.8770
625.2370, 277.2891
626.4030, 217.1807
627.5690, 155.7295
628.7340, 263.2910
629.9000, 250.4238
631.0650, 137.9072
632.2300, 314.3418
633.3950, 328.1230
634.5600, 303.6777
635.7240, 212.2861
636.8890, 124.1514
638.0530, 375.3760
639.2170, 175.6963
640.3810, 376.7188
641.5450, 105.3574
642.7080, 274.1973
643.8720, 253.3301
645.0350, 281.5000
646.1980, 344.5000
647.3610, 302.6396
648.5240, 298.4395
649.6870, 339.8760
650.8490, 320.0029
652.0120, 354.1484
653.1740, 201.0186
654.3360, 338.8906
655.4980, 346.8906
656.6600, 256.0205
657.8210, 367.0312
658.9830, 318.3047
660.1440, 357.9492
661.3050, 287.3418
662.4660, 352.7266
663.6270, 317.3369
664.7870, 290.8613
665.9480, 310.4854
667.1080, 262.2715
668.2680, 287.9121
669.4280, 338.3887
670.5880, 371.0879
671.7480, 452.4629
672.9070, 295.4268
674.0670, 448.1250
675.2260, 342.9932
676.3850, 304.4883
677.5440, 326.6562
678.7030, 377.3652
679.8610, 370.1719
681.0200, 385.2227
682.1780, 335.3369
683.3360, 309.9199
684.4940, 277.9307
685.6520, 322.3662
686.8090, 418.2832
687.9670, 367.3340
689.1240, 403.7031
690.2810, 420.0488
691.4380, 306.2471
692.5950, 415.8477
693.7520, 315.4434
694.9080, 263.3779
696.0650, 427.4883
697.2210, 296.9668
698.3770, 496.6094
699.5330, 368.7646
700.6880, 235.4326
701.8440, 481.0977
702.9990, 338.9541
704.1550, 289.0000
705.3100, 390.0713
706.4650, 333.5801
707.6190, 286.4609
708.7740, 474.0029
709.9290, 224.9131
711.0830, 356.7725
712.2370, 194.4014
713.3910, 348.2842
714.5450, 393.0127
715.6980, 242.2520
716.8520, 430.4531
718.0050, 337.3916
719.1580, 223.2812
720.3110, 330.6221
721.4640, 308.5020
722.6170, 409.0645
723.7700, 398.6367
724.9220, 241.5156
726.0740, 331.8945
727.2260, 317.3730
728.3780, 479.2617
729.5300, 483.5801
730.6810, 178.1953
731.8330, 343.1562
732.9840, 260.3633
734.1350, 421.2227
735.2860, 291.4473
736.4370, 374.9375
737.5880, 344.0547
738.7380, 426.7070
739.8880, 572.2793
741.0390, 216.5723
742.1890, 379.3906
743.3380, 313.2168
744.4880, 541.7266
745.6380, 321.6484
746.7870, 336.7344
747.9360, 330.6152
749.0850, 392.7500
750.2340, 292.4336
751.3830, 364.3301
752.5310, 424.3496
753.6800, 187.2520
754.8280, 254.9102
755.9760, 312.5566
757.1240, 194.9336
758.2720, 531.3594
759.4190, 407.2520
760.5670, 399.0820
761.7140, 268.8926
762.8610, 389.7676
764.0080, 177.1133
765.1550, 346.0723
766.3020, 314.0527
767.4480, 194.6680
768.5950, 463.6895
769.7410, 511.7578
770.8870, 548.5469
772.0330, 243.8066
773.1780, 433.2949
774.3240, 265.9062
775.4690, 451.7031
776.6140, 338.5059
777.7590, 211.5488
778.9040, 339.3027
780.0490, 508.5938
781.1940, 253.2871
782.3380, 270.2598
783.4820, 244.3555
784.6260, 421.9004
785.7700, 491.9746
786.9140, 322.4863
788.0580, 378.9785
789.2010, 391.8809
790.3450, 413.1289
791.4880, 403.0078
792.6310, 405.5195
793.7730, 355.3164
794.9160, 345.9902
796.0590, 342.3027
797.2010, 227.0273
798.3430, 288.3789
799.4850, 474.4180
800.6270, 320.0176
801.7690, 400.9062
802.9100, 382.9805
804.0520, 223.0996
805.1930, 308.7441
806.3340, 391.4102
807.4750, 435.0254
808.6160, 323.7520
809.7560, 150.3730
810.8970, 393.4766
812.0370, 367.6855
813.1770, 502.1855
814.3170, 258.0781
815.4570, 368.9629
816.5960, 302.9707
817.7360, 217.8516
818.8750, 237.7285
820.0140, 180.3301
821.1530, 355.7227
822.2920, 112.8887
823.4310, 380.1836
824.5690, 374.7188
825.7070, 332.0176
826.8460, 147.3711
827.9840, 321.6230
829.1220, 209.3828
830.2590, 251.4453
831.3970, 403.0547
832.5340, 249.3613
833.6710, 110.1562
834.8080, 192.4004
835.9450, 264.9863
837.0820, 115.3359
838.2190, 124.0195
839.3550, 220.3027
840.4910, 345.2148
841.6270, 243.9688
842.7630, 129.5977
843.8990, 28.66016
845.0350, 85.92578
846.1700, 355.5957
847.3060, 333.4121
848.4410, 324.6875
849.5760, 112.1934
850.7100, 36.23047
851.8450, 83.51367
852.9800, 10.40234
854.1140, 42.46289
855.2480, 87.81836
856.3820, 92.45703
857.5160, 211.0371
858.6500, 242.0605
859.7830, 248.4102
860.9170, 398.1406
862.0500, 375.6055
863.1830, 215.6445
864.3160, 210.0918
865.4480, 216.3320
866.5810, 153.3086
867.7130, 321.9355
868.8460, 143.2480
869.9780, 56.10156
871.1100, 223.4961
872.2410, 1.576172
873.3730, 250.4004
874.5050, 134.6582
875.6360, 144.6777
876.7670, 283.9141
877.8980, 224.1094
879.0290, 173.8086
880.1590, 311.8516
881.2900, 241.2891
882.4200, 121.6758
883.5500, 111.4941
884.6800, 91.16211
885.8100, 168.8672
886.9400, 178.1289
888.0690, 345.5801
889.1990, 273.1895
890.3280, 268.3105
891.4570, 321.3926
892.5860, 196.8906
893.7140, 288.1621
894.8430, 245.3574
895.9710, 94.33203
897.1000, 84.13672
898.2280, 399.2676
899.3560, 87.75000
900.4830, 226.3848
901.6110, 104.4160
902.7380, 34.08203
903.8660, 150.9980
904.9930, 31.08789
906.1200, 162.0469
907.2460, 277.9062
908.3730, 223.6602
909.5000, 279.6660
910.6260, 206.1699
911.7520, 203.6230
912.8780, 139.5137
914.0040, 42.76562
915.1290, 25.64648
916.2550, 214.7012
917.3800, 181.7598
918.5050, 90.79883
919.6300, 113.6152
920.7550, 4.929688
921.8800, 46.40820
923.0040, 45.83984
924.1290, 218.9883
925.2530, 19.68359
926.3770, 58.32617
927.5010, 248.0781
928.6250, 198.4961
929.7480, 160.6270
930.8720, 11.36328
931.9950, 27.47461
933.1180, 125.6230
934.2410, 176.0156
935.3640, 22.11523
936.4860, 267.4395
937.6090, 99.03125
938.7310, 38.46094
939.8530, 66.08789
940.9750, 16.00586
942.0970, 156.0996
943.2180, 93.31836
944.3400, 100.4531
945.4610, 320.7617
946.5820, 67.57617
947.7030, 77.19141
948.8240, 409.2852
949.9450, 201.2578
951.0650, 382.6660
952.1860, 615.7344
953.3060, 648.1816
954.4260, 586.7324
955.5460, 864.7422
956.6650, 1054.783
957.7850, 1423.842
958.9040, 1425.869
960.0230, 1712.814
961.1420, 1885.521
962.2610, 1820.775
963.3800, 1742.322
964.4990, 1692.117
965.6170, 1381.209
966.7350, 1338.934
967.8530, 986.9082
968.9710, 655.3477
970.0890, 641.7441
971.2070, 590.6816
972.3240, 433.0547
973.4410, 356.4922
974.5580, 308.9316
975.6750, 82.01172
976.7920, 34.44141
977.9090, 5.482422
979.0250, 114.9746
980.1410, 97.34961
981.2580, 125.1523
982.3740, 138.8203
983.4890, 114.8750
984.6050, 100.7227
985.7200, 62.18750
986.8360, 41.28516
987.9510, 3.591797
989.0660, 4.662109
990.1810, 32.89062
991.2950, 6.392578
992.4100, 75.12109
993.5240, 76.86523
994.6390, 12.36328
995.7530, 75.00977
996.8660, 85.74414
997.9800, 20.53125
999.0940, 52.27734
1000.207, 69.12891
1001.320, 194.8750
1002.433, 121.6445
1003.546, 83.41016
1004.659, 97.32227
1005.772, 113.8418
1006.884, 6.666016
1007.996, 66.44336
1009.108, 98.19727
1010.220, 105.9473
1011.332, 199.0977
1012.444, 181.0664
1013.555, 123.9648
1014.666, 222.6387
1015.777, 55.33789
1016.888, 172.5391
1017.999, 108.1641
1019.110, 127.7305
1020.220, 158.9688
1021.331, 208.8438
1022.441, 160.4648
1023.551, 22.31250
1024.661, 113.8555
1025.770, 210.3594
1026.880, 63.59375
1027.989, 95.96094
1029.098, 112.9258
1030.207, 74.96875
1031.316, 28.73828
1032.425, 0.6015630
1033.533, 10.69531
1034.642, 35.60547
1035.750, 12.56641
1036.858, 171.5938
1037.966, 145.1953
1039.073, 211.1836
1040.181, 138.1016
1041.288, 51.50781
1042.396, 125.4883
1043.503, 221.8945
1044.610, 145.6367
1045.716, 33.38281
1046.823, 265.9609
1047.929, 36.41406
1049.036, 210.4492
1050.142, 103.5273
1051.248, 291.1484
1052.353, 280.6758
1053.459, 360.9297
1054.564, 49.39844
1055.670, 8.328125
1056.775, 142.3711
1057.880, 342.8359
1058.985, 31.01953
1060.089, 12.04297
1061.194, 80.44141
1062.298, 132.9062
1063.402, 296.9336
1064.506, 387.7070
1065.610, 67.78125
1066.713, 288.3164
1067.817, 152.7930
1068.920, 71.90625
1070.023, 103.5078
1071.126, 224.7383
1072.229, 7.062500
1073.332, 7.332031
1074.435, 222.7383
1075.537, 53.33203
1076.639, 27.09375
1077.741, 333.7266
1078.843, 327.5000
1079.945, 138.6016
1081.046, 148.0703
1082.148, 127.8516
1083.249, 203.8086
1084.350, 183.7188
1085.451, 101.6680
1086.551, 181.6484
1087.652, 158.6641
1088.752, 80.71484
1089.853, 24.79297
1090.953, 321.9219
1092.053, 186.0859
1093.152, 81.27734
1094.252, 355.5117
1095.351, 233.7891
1096.451, 354.1016
1097.550, 242.4609
1098.649, 240.8633
1099.748, 175.3086
1100.846, 297.7891
1101.945, 463.3203
1103.043, 513.9062
1104.141, 222.5273
1105.239, 107.2031
1106.337, 190.9375
1107.434, 353.7148
1108.532, 439.4023
1109.629, 460.1211
1110.726, 452.0586
1111.823, 451.0547
1112.920, 337.1172
1114.017, 284.2227
1115.113, 397.3867
1116.210, 377.5977
1117.306, 416.8750
1118.402, 625.0352
1119.498, 521.8008
1120.593, 475.2852
1121.689, 285.9297
1122.784, 394.7930
1123.879, 745.1211
1124.974, 346.8789
1126.069, 600.6914
1127.164, 432.0508
1128.259, 732.9922
1129.353, 311.7109
1130.447, 588.9297
1131.541, 656.7422
1132.635, 712.7930
1133.729, 414.1562
1134.822, 625.5039
1135.916, 593.9219
1137.009, 465.4336
1138.102, 636.8477
1139.195, 604.5000
1140.288, 507.7148
1141.380, 465.4844
1142.473, 730.0117
1143.565, 318.6719
1144.657, 597.4961
1145.749, 658.6602
1146.841, 510.9062
1147.932, 681.7344
1149.024, 697.1562
1150.115, 525.6719
1151.206, 663.3750
1152.297, 548.0781
1153.388, 350.8750
1154.479, 920.3008
1155.569, 795.6680
1156.659, 935.7188
1157.750, 893.8594
1158.839, 924.0938
1159.929, 602.4180
1161.019, 878.8281
1162.108, 910.3438
1163.198, 504.9648
1164.287, 796.2422
1165.376, 792.3828
1166.465, 520.3320
1167.553, 908.6602
1168.642, 739.8477
1169.730, 717.1406
1170.818, 1052.551
1171.906, 896.0586
1172.994, 717.6641
1174.082, 874.2539
1175.170, 834.0508
1176.257, 671.9492
1177.344, 494.9492
1178.431, 874.0586
1179.518, 786.0859
1180.605, 828.4648
1181.691, 1070.949
1182.778, 516.5391
1183.864, 857.2422
1184.950, 652.0586
1186.036, 826.0039
1187.122, 818.0977
1188.207, 920.3320
1189.292, 1002.672
1190.378, 867.1367
1191.463, 867.4570
1192.548, 795.1523
1193.632, 793.9531
1194.717, 680.8594
1195.801, 820.9102
1196.886, 807.0859
1197.970, 762.3672
1199.054, 710.7695
1200.137, 829.2930
1201.221, 942.9297
1202.305, 810.6758
1203.388, 1177.438
1204.471, 715.4336
1205.554, 1035.570
1206.637, 851.8164
1207.719, 870.7148
1208.802, 830.1992
1209.884, 859.7930
1210.966, 816.5156
1212.048, 1061.352
1213.130, 1131.305
1214.212, 1035.367
1215.293, 662.5430
1216.374, 868.8398
1217.456, 733.2539
1218.536, 921.7812
1219.617, 745.4258
1220.698, 742.1797
1221.778, 1105.055
1222.859, 994.0469
1223.939, 862.1562
1225.019, 704.3828
1226.099, 906.7266
1227.178, 740.1914
1228.258, 776.7773
1229.337, 1033.480
1230.417, 668.3047
1231.496, 974.2461
1232.574, 825.3125
1233.653, 944.4961
1234.732, 825.7969
1235.810, 804.2227
1236.888, 670.7734
1237.966, 775.4414
1239.044, 574.2344
1240.122, 769.1680
1241.199, 814.2383
1242.277, 798.4297
1243.354, 700.7422
1244.431, 765.1875
1245.508, 1105.754
1246.585, 637.4414
1247.661, 669.2539
1248.738, 990.1914
1249.814, 732.2617
1250.890, 696.4648
1251.966, 336.7969
1253.042, 717.2617
1254.117, 471.8633
1255.193, 584.5938
1256.268, 285.4609
1257.343, 100.4727
1258.418, 342.6172
1259.493, 210.9141
1260.567, 358.3438
1261.642, 710.9180
1262.716, 757.6367
1263.790, 589.5391
1264.864, 628.5664
1265.938, 885.7227
1267.011, 807.1836
1268.085, 352.8438
1269.158, 608.4219
1270.231, 245.1484
1271.304, 410.1250
1272.377, 651.1641
1273.450, 281.3789
1274.522, 229.7656
1275.594, 335.2930
1276.666, 418.9414
1277.738, 483.7422
1278.810, 506.6680
1279.882, 313.7266
1280.953, 85.94531
1282.025, 482.2930
1283.096, 189.2266
1284.167, 440.3555
1285.238, 439.0859
1286.308, 292.9375
1287.379, 458.3477
1288.449, 588.4805
1289.519, 329.7461
1290.589, 737.1406
1291.659, 370.6719
1292.729, 281.3242
1293.798, 529.1406
1294.868, 486.0859
1295.937, 445.1641
1297.006, 592.3750
1298.075, 555.7188
1299.143, 365.1914
1300.212, 743.7969
1301.280, 188.5352
1302.348, 463.4297
1303.416, 235.4766
1304.484, 464.6562
1305.552, 281.9727
1306.620, 373.4258
1307.687, 424.3555
1308.754, 371.0742
1309.821, 476.9219
1310.888, 316.8984
1311.955, 632.0078
1313.021, 307.2500
1314.088, 552.6172
1315.154, 343.1094
1316.220, 444.7266
1317.286, 564.4805
1318.352, 712.3555
1319.417, 640.9570
1320.483, 323.4844
1321.548, 517.7461
1322.613, 369.1211
1323.678, 376.6094
1324.743, 279.2109
1325.807, 566.9297
1326.872, 96.75781
1327.936, 312.7031
1329.000, 454.8594
1330.064, 249.0352
1331.128, 234.3242
1332.191, 227.7305
1333.255, 427.2461
1334.318, 331.8789
1335.381, 301.6250
1336.444, 467.4922
1337.507, 477.4688
1338.569, 499.5625
1339.632, 412.7695
1340.694, 288.0977
1341.756, 357.5352
1342.818, 321.5195
1343.880, 311.7656
1344.941, 354.5586
1346.003, 497.4609
1347.064, 446.4844
1348.125, 350.6172
1349.186, 332.8711
1350.247, 539.2461
1351.308, 29.73047
1352.368, 505.3398
1353.428, 420.0586
1354.489, 244.8984
1355.549, 458.8555
1356.608, 496.9258
1357.668, 395.1133
1358.727, 430.4141
1359.787, 671.8281
1360.846, 611.3594
1361.905, 53.00781
1362.964, 365.7695
1364.022, 192.6484
1365.081, 435.6523
1366.139, 231.7695
1367.197, 354.0000
1368.255, 265.3516
1369.313, 528.8164
1370.371, 465.3984
1371.428, 585.0938
1372.486, 147.9102
1373.543, 449.8398
1374.600, 405.8867
1375.657, 288.0547
1376.713, 602.3320
1377.770, 573.7266
1378.826, 244.4492
1379.882, 403.0156
1380.938, 132.6953
1381.994, 347.4883
1383.050, 367.9453
1384.106, 401.9648
1385.161, 294.8867
1386.216, 534.1367
1387.271, 283.4961
1388.326, 341.9688
1389.381, 336.5547
1390.435, 99.25781
1391.490, 265.0742
1392.544, 366.0078
1393.598, 95.94922
1394.652, 28.78906
1395.705, 268.4844
1396.759, 14.87109
1397.812, 14.62500
1398.866, 282.9922
1399.919, 291.7227
1400.972, 216.5703
1402.024, 124.0742
1403.077, 197.1602
1404.129, 119.7305
1405.181, 412.6758
1406.233, 80.89062
1407.285, 250.4453
1408.337, 247.1133
1409.389, 55.90625
1410.440, 190.2656
1411.491, 274.2969
1412.542, 432.4453
1413.593, 42.92188
1414.644, 151.4609
1415.695, 239.9727
1416.745, 70.52734
1417.795, 313.1875
1418.845, 320.9727
1419.895, 342.2461
1420.945, 256.2773
1421.995, 277.4375
1423.044, 259.0469
1424.093, 232.1836
1425.142, 250.6641
1426.191, 268.3086
1427.240, 267.0898
1428.289, 420.1406
1429.337, 167.1523
1430.385, 268.2891
1431.433, 233.9648
1432.481, 53.21875
1433.529, 295.3984
1434.577, 462.9102
1435.624, 173.3281
1436.672, 486.8555
1437.719, 140.4883
1438.766, 168.8906
1439.812, 406.3477
1440.859, 497.7461
1441.905, 362.1719
1442.952, 307.6016
1443.998, 222.0234
1445.044, 232.6523
1446.090, 174.8203
1447.135, 27.05859
1448.181, 151.9492
1449.226, 388.0938
1450.271, 475.3867
1451.316, 121.8359
1452.361, 468.4414
1453.405, 78.19141
1454.450, 11.90234
1455.494, 117.1523
1456.538, 330.3633
1457.582, 138.7227
1458.626, 179.2344
1459.670, 127.8945
1460.713, 295.7031
1461.757, 185.6602
1462.800, 166.7695
1463.843, 126.0312
1464.886, 65.43750
1465.928, 102.9883
1466.971, 286.6914
1468.013, 476.5352
1469.055, 460.5312
1470.097, 216.6680
1471.139, 209.9453
1472.181, 281.3789
1473.222, 448.9492
1474.263, 4.664063
1475.305, 483.5117
1476.346, 166.5039
1477.386, 298.6328
1478.427, 386.8750
1479.468, 539.2305
1480.508, 455.7109
1481.548, 513.5234
1482.588, 286.0938
1483.628, 460.3477
1484.668, 150.0547
1485.707, 75.05078
1486.747, 616.3125
1487.786, 11.69922
1488.825, 378.2109
1489.864, 589.8438
1490.902, 309.5977
1491.941, 345.4922
1492.979, 264.5234
1494.017, 367.9844
1495.055, 45.18359
1496.093, 102.5000
1497.131, 159.8672
1498.168, 37.33984
1499.206, 180.9180
1500.243, 108.5977
1501.280, 181.2930
1502.317, 341.0664
1503.354, 13.28516
1504.390, 455.4570
1505.426, 47.29297
1506.463, 199.2227
1507.499, 133.7500
1508.535, 240.3789
1509.570, 28.39062
1510.606, 58.94141
1511.641, 283.4570
1512.676, 194.1875
1513.711, 130.9062
1514.746, 512.0273
1515.781, 271.3516
1516.816, 229.8789
1517.850, 191.5977
1518.884, 192.5234
1519.918, 92.63281
1520.952, 266.9414
1521.986, 158.4453
1523.019, 225.1445
1524.053, 178.0312
1525.086, 113.1094
1526.119, 0.6210940
1527.152, 350.8438
1528.185, 334.5312
1529.217, 340.4453
1530.250, 0.5664060
1531.282, 77.87891
1532.314, 87.39844
1533.346, 113.1328
1534.377, 288.0938
1535.409, 328.2734
1536.440, 328.3906
1537.472, 53.69141
1538.503, 222.6289
1539.534, 255.2070
1540.564, 59.28125
1541.595, 328.7148
1542.625, 181.5273
1543.656, 42.35547
1544.686, 346.0586
1545.716, 171.7656
1546.745, 319.7812
1547.775, 148.0977
1548.804, 195.7227
1549.834, 126.6758
1550.863, 357.7773
1551.892, 29.60547
1552.920, 181.8359
1553.949, 221.5625
1554.977, 61.95312
1556.006, 142.1797
1557.034, 293.6992
1558.062, 341.7773
1559.089, 358.6758
1560.117, 424.8633
1561.144, 343.5625
1562.172, 298.3516
1563.199, 256.0742
1564.226, 230.1016
1565.252, 168.6758
1566.279, 206.9844
1567.305, 161.9219
1568.332, 90.39453
1569.358, 66.24609
1570.384, 0.3125000
1571.409, 0.0000000E+00
##END=



