##NAMES=Fluorapatite
##RRUFFID=R060070
##IDEAL CHEMISTRY=Ca_5_(PO_4_)_3_F
##LOCALITY=Panasqueira, Portugal
##OWNER=RRUFF
##SOURCE=Dave Bunk
##DESCRIPTION=Green hexagonal tablet
##STATUS=The identification of this mineral has been confirmed by X-ray diffraction and chemical analysis
##URL=rruff.info/R060070
##MEASURED CHEMISTRY=(Ca_0.99_Mn_0.01_)_5_(P_1.00_O_4_)_3_F_1.00_
##PIN_ID=L01695
##ORIENTATION=Laser parallel to -a* (-1 0 0). Fiducial mark perpendicular to laser is parallel to -c [0 0 -1]
118.1340, 0.0000000E+00
119.3650, 69.53882
120.5960, 0.5869140
121.8270, 87.43848
123.0580, 128.3789
124.2880, 62.91846
125.5190, 38.79956
126.7490, 82.96460
127.9790, 44.82935
129.2090, 25.38867
130.4390, 134.1787
131.6680, 50.12598
132.8980, 70.28564
134.1270, 111.4365
135.3560, 39.81226
136.5850, 58.39795
137.8140, 2.911377
139.0430, 76.85767
140.2710, 80.27490
141.5000, 42.06421
142.7280, 50.82910
143.9560, 39.55200
145.1840, 32.05444
146.4120, 20.34229
147.6390, 36.94531
148.8670, 77.58276
150.0940, 103.2388
151.3210, 106.1091
152.5490, 95.39844
153.7750, 108.4768
155.0020, 123.2412
156.2290, 127.6902
157.4550, 98.14917
158.6810, 174.6152
159.9080, 123.0100
161.1340, 159.2744
162.3590, 23.38745
163.5850, 145.3250
164.8110, 157.0850
166.0360, 84.68188
167.2610, 116.1501
168.4860, 104.5103
169.7110, 97.86182
170.9360, 35.14526
172.1610, 99.35547
173.3850, 64.50244
174.6100, 66.41260
175.8340, 109.8083
177.0580, 88.81885
178.2820, 133.3979
179.5050, 113.6899
180.7290, 67.83740
181.9520, 19.83276
183.1760, 31.93213
184.3990, 126.0549
185.6220, 36.82056
186.8450, 103.7041
188.0670, 73.71069
189.2900, 164.8242
190.5120, 121.3179
191.7340, 88.65503
192.9560, 168.2163
194.1780, 132.0681
195.4000, 141.2600
196.6220, 159.5459
197.8430, 150.9688
199.0640, 219.1428
200.2860, 276.8811
201.5070, 369.2554
202.7270, 318.4749
203.9480, 417.2729
205.1690, 463.9175
206.3890, 455.1387
207.6090, 561.9229
208.8290, 621.6780
210.0490, 664.2278
211.2690, 697.7400
212.4890, 700.2131
213.7080, 610.1836
214.9280, 549.2402
216.1470, 534.3516
217.3660, 419.3672
218.5850, 399.4299
219.8030, 279.8337
221.0220, 273.7451
222.2400, 274.6335
223.4590, 189.6736
224.6770, 176.3499
225.8950, 144.8098
227.1120, 189.8013
228.3300, 137.9888
229.5480, 125.2441
230.7650, 75.96045
231.9820, 99.74097
233.1990, 172.6958
234.4160, 127.1279
235.6330, 156.3076
236.8490, 44.38110
238.0660, 63.41724
239.2820, 60.36182
240.4980, 61.58594
241.7140, 94.20459
242.9300, 30.41528
244.1460, 26.16211
245.3610, 15.65479
246.5770, 47.17603
247.7920, 29.32178
249.0070, 25.39526
250.2220, 9.870605
251.4370, 15.24878
252.6510, 47.34717
253.8660, 35.13477
255.0800, 1.850098
256.2940, 13.99854
257.5080, 12.09961
258.7220, 64.78101
259.9360, 68.38647
261.1490, 72.30371
262.3630, 26.98633
263.5760, 36.91919
264.7890, 67.03516
266.0020, 33.89673
267.2150, 40.07251
268.4270, 50.04346
269.6400, 11.07837
270.8520, 16.95215
272.0640, 11.95581
273.2760, 15.08398
274.4880, 43.84985
275.7000, 15.62622
276.9120, 4.248291
278.1230, 24.84717
279.3340, 68.51587
280.5450, 0.1137700
281.7560, 121.2349
282.9670, 48.65552
284.1780, 125.7700
285.3880, 37.62158
286.5980, 154.7551
287.8090, 108.5532
289.0190, 136.6484
290.2290, 173.2810
291.4380, 89.90112
292.6480, 180.4331
293.8570, 140.0034
295.0670, 224.4558
296.2760, 179.8579
297.4850, 206.2092
298.6930, 180.5068
299.9020, 238.7512
301.1110, 240.1011
302.3190, 302.0862
303.5270, 270.1775
304.7350, 238.2178
305.9430, 234.2068
307.1510, 209.8611
308.3580, 131.9395
309.5660, 179.7759
310.7730, 143.5618
311.9800, 118.2976
313.1870, 190.9827
314.3940, 143.6184
315.6010, 175.2041
316.8070, 54.65259
318.0130, 85.13721
319.2200, 12.42969
320.4260, 66.94092
321.6310, 73.77881
322.8370, 66.76929
324.0430, 62.70752
325.2480, 73.29712
326.4540, 58.05591
327.6590, 43.71069
328.8640, 69.34180
330.0680, 85.38428
331.2730, 74.95630
332.4780, 109.7229
333.6820, 28.23633
334.8860, 69.57471
336.0900, 84.28687
337.2940, 131.6562
338.4980, 49.76904
339.7010, 145.1355
340.9050, 126.2395
342.1080, 13.14307
343.3110, 128.0425
344.5140, 135.0386
345.7170, 133.2095
346.9200, 89.02490
348.1220, 116.3604
349.3240, 194.7822
350.5270, 134.6558
351.7290, 216.8647
352.9310, 164.1812
354.1320, 199.6641
355.3340, 210.7866
356.5350, 151.8999
357.7370, 209.3701
358.9380, 164.0303
360.1390, 153.7080
361.3400, 155.1289
362.5400, 59.00293
363.7410, 160.2974
364.9410, 180.5835
366.1410, 111.4614
367.3410, 56.53857
368.5410, 114.5088
369.7410, 113.5786
370.9400, 98.79199
372.1400, 97.91943
373.3390, 102.3960
374.5380, 122.0889
375.7370, 74.72803
376.9360, 104.7036
378.1350, 40.25049
379.3330, 60.63818
380.5310, 63.61963
381.7300, 14.88574
382.9280, 66.32471
384.1260, 38.86182
385.3230, 41.71533
386.5210, 52.89502
387.7180, 168.7651
388.9160, 80.48633
390.1130, 121.0776
391.3100, 153.6582
392.5060, 9.207520
393.7030, 120.4238
394.9000, 78.68018
396.0960, 46.41455
397.2920, 21.36768
398.4880, 36.01660
399.6840, 21.25684
400.8800, 70.38867
402.0750, 15.38672
403.2710, 42.74463
404.4660, 17.86914
405.6610, 8.074707
406.8560, 127.0391
408.0510, 147.0815
409.2450, 154.3354
410.4400, 35.09912
411.6340, 121.9214
412.8280, 101.5195
414.0220, 133.7559
415.2160, 100.1611
416.4100, 103.3911
417.6030, 98.35938
418.7970, 130.8750
419.9900, 159.9727
421.1830, 156.4482
422.3760, 131.1235
423.5690, 193.6934
424.7610, 189.0288
425.9540, 163.2070
427.1460, 203.0347
428.3380, 281.0571
429.5300, 203.7256
430.7220, 274.6934
431.9140, 194.2900
433.1050, 316.7510
434.2970, 288.1880
435.4880, 325.8979
436.6790, 279.8350
437.8700, 368.2754
439.0610, 328.9126
440.2510, 420.3921
441.4420, 429.9062
442.6320, 370.2544
443.8220, 398.6455
445.0120, 545.9727
446.2020, 483.2378
447.3910, 560.4409
448.5810, 603.5820
449.7700, 652.6606
450.9600, 568.6655
452.1490, 587.2769
453.3370, 590.0186
454.5260, 682.5400
455.7150, 499.8892
456.9030, 520.4741
458.0910, 459.7935
459.2800, 306.1782
460.4670, 402.9912
461.6550, 345.8647
462.8430, 318.9385
464.0300, 183.6006
465.2180, 135.2188
466.4050, 134.2017
467.5920, 204.1631
468.7790, 149.5635
469.9650, 110.8252
471.1520, 97.94775
472.3380, 39.10742
473.5250, 68.51562
474.7110, 54.97949
475.8970, 73.17334
477.0820, 129.5088
478.2680, 33.22998
479.4540, 83.27930
480.6390, 147.2012
481.8240, 73.47656
483.0090, 123.2061
484.1940, 155.8369
485.3780, 143.1221
486.5630, 107.7158
487.7470, 53.05664
488.9320, 126.5537
490.1160, 229.6978
491.3000, 198.1792
492.4830, 79.77197
493.6670, 227.6807
494.8500, 192.1401
496.0340, 142.0186
497.2170, 218.1587
498.4000, 210.0757
499.5820, 115.0835
500.7650, 58.83057
501.9480, 282.7842
503.1300, 94.43652
504.3120, 213.9902
505.4940, 100.9277
506.6760, 87.98584
507.8580, 173.1631
509.0390, 112.9756
510.2210, 126.1567
511.4020, 89.89111
512.5830, 46.47266
513.7640, 54.40186
514.9450, 29.93848
516.1250, 119.6138
517.3060, 69.21191
518.4860, 17.24316
519.6660, 130.9775
520.8460, 2.190430
522.0260, 18.94336
523.2060, 20.69482
524.3850, 77.77393
525.5650, 8.514648
526.7440, 67.11816
527.9230, 76.27100
529.1020, 87.36328
530.2810, 87.25830
531.4590, 83.05762
532.6380, 117.0996
533.8160, 122.9434
534.9940, 47.07861
536.1720, 5.857422
537.3500, 133.9175
538.5270, 63.40625
539.7050, 73.69678
540.8820, 40.23242
542.0590, 96.45508
543.2360, 49.84375
544.4130, 23.73975
545.5900, 57.14209
546.7660, 11.88135
547.9430, 0.9995120
549.1190, 10.46191
550.2950, 1.292480
551.4710, 27.25635
552.6470, 16.24316
553.8220, 62.31836
554.9980, 65.42480
556.1730, 28.68604
557.3480, 38.18604
558.5230, 11.94922
559.6980, 14.82080
560.8730, 31.72754
562.0470, 105.9180
563.2220, 120.5986
564.3960, 186.8154
565.5700, 34.43652
566.7440, 62.71631
567.9170, 57.63525
569.0910, 77.61182
570.2640, 56.83936
571.4380, 88.33008
572.6110, 115.4458
573.7840, 159.1855
574.9570, 185.9478
576.1290, 261.0327
577.3020, 282.0942
578.4740, 416.0942
579.6460, 388.5059
580.8180, 546.4678
581.9900, 627.9189
583.1620, 747.2524
584.3330, 984.8706
585.5040, 1099.835
586.6760, 1250.219
587.8470, 1546.432
589.0180, 1786.662
590.1880, 1912.726
591.3590, 1972.741
592.5290, 1826.331
593.7000, 1601.694
594.8700, 1299.067
596.0400, 987.7842
597.2090, 865.2495
598.3790, 893.6855
599.5490, 794.3105
600.7180, 807.8262
601.8870, 794.1562
603.0560, 840.3872
604.2250, 901.5249
605.3940, 1082.157
606.5620, 1243.006
607.7300, 1024.074
608.8990, 1185.914
610.0670, 830.5967
611.2350, 503.4160
612.4020, 357.2695
613.5700, 292.5107
614.7370, 250.5420
615.9050, 93.14355
617.0720, 181.8076
618.2390, 130.0205
619.4060, 48.02930
620.5720, 107.5146
621.7390, 161.7871
622.9050, 130.6162
624.0710, 117.3066
625.2370, 30.23633
626.4030, 93.00781
627.5690, 142.5498
628.7340, 84.53516
629.9000, 105.9834
631.0650, 35.68359
632.2300, 70.72656
633.3950, 155.3252
634.5600, 88.79395
635.7240, 158.9756
636.8890, 113.7891
638.0530, 160.5693
639.2170, 62.51953
640.3810, 163.9648
641.5450, 49.56055
642.7080, 94.87402
643.8720, 101.3955
645.0350, 134.3945
646.1980, 188.7646
647.3610, 161.5977
648.5240, 161.7188
649.6870, 10.92090
650.8490, 146.8770
652.0120, 23.15723
653.1740, 46.70898
654.3360, 90.77539
655.4980, 92.37402
656.6600, 82.20996
657.8210, 151.3262
658.9830, 233.7627
660.1440, 120.9268
661.3050, 53.54590
662.4660, 128.4414
663.6270, 75.49902
664.7870, 95.12988
665.9480, 128.2314
667.1080, 87.26953
668.2680, 93.37109
669.4280, 105.8594
670.5880, 195.1729
671.7480, 158.3789
672.9070, 218.8818
674.0670, 130.8789
675.2260, 98.71777
676.3850, 106.9727
677.5440, 120.6768
678.7030, 108.1523
679.8610, 72.08203
681.0200, 113.0264
682.1780, 111.6250
683.3360, 123.2627
684.4940, 39.13379
685.6520, 71.35449
686.8090, 60.37012
687.9670, 47.95410
689.1240, 64.54980
690.2810, 47.23047
691.4380, 23.07129
692.5950, 51.20605
693.7520, 38.44043
694.9080, 70.75195
696.0650, 13.48340
697.2210, 49.62207
698.3770, 99.90723
699.5330, 58.31641
700.6880, 153.3535
701.8440, 13.74512
702.9990, 80.58301
704.1550, 28.97168
705.3100, 86.72852
706.4650, 126.1455
707.6190, 46.78516
708.7740, 128.0371
709.9290, 83.97070
711.0830, 113.7520
712.2370, 208.5352
713.3910, 169.3740
714.5450, 63.88574
715.6980, 57.66895
716.8520, 34.75098
718.0050, 8.016602
719.1580, 21.82324
720.3110, 123.8350
721.4640, 124.9590
722.6170, 51.00684
723.7700, 180.2959
724.9220, 60.48047
726.0740, 81.71777
727.2260, 58.23340
728.3780, 78.89551
729.5300, 71.03320
730.6810, 152.7324
731.8330, 187.9268
732.9840, 165.8623
734.1350, 64.03711
735.2860, 105.0840
736.4370, 93.09473
737.5880, 28.77441
738.7380, 34.22363
739.8880, 60.56738
741.0390, 64.71582
742.1890, 69.81836
743.3380, 46.52539
744.4880, 8.534180
745.6380, 92.30859
746.7870, 4.151367
747.9360, 167.3115
749.0850, 76.49902
750.2340, 35.42285
751.3830, 102.7617
752.5310, 162.1719
753.6800, 6.779297
754.8280, 214.0244
755.9760, 123.7891
757.1240, 50.12207
758.2720, 207.7539
759.4190, 300.6230
760.5670, 72.59863
761.7140, 133.8115
762.8610, 87.58398
764.0080, 91.23730
765.1550, 88.20801
766.3020, 144.4033
767.4480, 322.8174
768.5950, 104.2900
769.7410, 0.5410160
770.8870, 170.8682
772.0330, 88.83301
773.1780, 10.49609
774.3240, 148.9023
775.4690, 210.2783
776.6140, 142.6768
777.7590, 156.5010
778.9040, 280.4902
780.0490, 73.93848
781.1940, 51.54004
782.3380, 272.1953
783.4820, 49.54297
784.6260, 142.1113
785.7700, 135.4502
786.9140, 43.46875
788.0580, 83.13672
789.2010, 48.43066
790.3450, 227.2031
791.4880, 165.9150
792.6310, 157.9277
793.7730, 238.8877
794.9160, 97.25391
796.0590, 6.415039
797.2010, 101.9209
798.3430, 218.6025
799.4850, 26.83105
800.6270, 173.4463
801.7690, 86.02930
802.9100, 334.0635
804.0520, 238.0947
805.1930, 139.2607
806.3340, 258.8027
807.4750, 56.82031
808.6160, 288.6641
809.7560, 227.1357
810.8970, 90.74512
812.0370, 269.8652
813.1770, 20.73730
814.3170, 338.5273
815.4570, 109.2617
816.5960, 124.8252
817.7360, 118.1201
818.8750, 236.4678
820.0140, 154.6943
821.1530, 55.85352
822.2920, 211.5400
823.4310, 33.25000
824.5690, 234.7988
825.7070, 226.1875
826.8460, 143.5352
827.9840, 178.6992
829.1220, 90.54688
830.2590, 141.5117
831.3970, 23.16211
832.5340, 51.96387
833.6710, 168.4248
834.8080, 304.9268
835.9450, 111.5342
837.0820, 35.86426
838.2190, 71.47656
839.3550, 13.43750
840.4910, 0.4570310
841.6270, 71.18164
842.7630, 154.0352
843.8990, 205.9385
845.0350, 248.2598
846.1700, 174.0645
847.3060, 215.8232
848.4410, 215.6758
849.5760, 221.2471
850.7100, 299.7588
851.8450, 283.7949
852.9800, 447.0137
854.1140, 522.7061
855.2480, 273.3242
856.3820, 469.4141
857.5160, 393.4590
858.6500, 386.6055
859.7830, 302.6328
860.9170, 304.6348
862.0500, 265.4824
863.1830, 172.7285
864.3160, 111.2109
865.4480, 209.5625
866.5810, 296.8809
867.7130, 152.4961
868.8460, 282.3027
869.9780, 252.3828
871.1100, 110.1602
872.2410, 92.06641
873.3730, 145.4785
874.5050, 173.0586
875.6360, 171.7969
876.7670, 190.8555
877.8980, 175.5586
879.0290, 242.3164
880.1590, 159.9727
881.2900, 162.0117
882.4200, 208.2402
883.5500, 37.06445
884.6800, 37.13086
885.8100, 277.6895
886.9400, 152.2363
888.0690, 59.79102
889.1990, 171.6895
890.3280, 2.736328
891.4570, 32.32422
892.5860, 57.92969
893.7140, 100.7793
894.8430, 78.04102
895.9710, 82.03906
897.1000, 26.07617
898.2280, 53.79883
899.3560, 21.11523
900.4830, 145.9102
901.6110, 114.6875
902.7380, 216.6230
903.8660, 198.2344
904.9930, 171.6660
906.1200, 119.2188
907.2460, 59.03711
908.3730, 63.60156
909.5000, 184.3262
910.6260, 63.85352
911.7520, 12.79688
912.8780, 75.86328
914.0040, 110.9629
915.1290, 10.80273
916.2550, 77.44141
917.3800, 280.5684
918.5050, 120.5215
919.6300, 5.433594
920.7550, 91.62109
921.8800, 11.67578
923.0040, 52.19922
924.1290, 113.1309
925.2530, 112.1445
926.3770, 2.871094
927.5010, 163.7363
928.6250, 154.2539
929.7480, 258.0098
930.8720, 108.0996
931.9950, 77.37891
933.1180, 132.2832
934.2410, 12.57422
935.3640, 99.34375
936.4860, 265.2402
937.6090, 148.0488
938.7310, 155.4258
939.8530, 302.3027
940.9750, 189.6738
942.0970, 311.4492
943.2180, 173.2656
944.3400, 532.9805
945.4610, 493.3496
946.5820, 690.0586
947.7030, 828.4297
948.8240, 723.4863
949.9450, 931.9766
951.0650, 1331.422
952.1860, 1378.850
953.3060, 1608.164
954.4260, 2116.889
955.5460, 2842.189
956.6650, 4137.951
957.7850, 5939.928
958.9040, 8531.691
960.0230, 10900.48
961.1420, 13165.27
962.2610, 15609.73
963.3800, 18501.58
964.4990, 20423.97
965.6170, 20529.66
966.7350, 18449.48
967.8530, 14308.46
968.9710, 10050.91
970.0890, 6497.705
971.2070, 4164.438
972.3240, 2723.660
973.4410, 1768.734
974.5580, 1231.535
975.6750, 862.2051
976.7920, 598.5078
977.9090, 642.2480
979.0250, 296.6426
980.1410, 390.2402
981.2580, 330.1484
982.3740, 354.0059
983.4890, 241.6914
984.6050, 318.5703
985.7200, 137.7832
986.8360, 299.4473
987.9510, 137.7598
989.0660, 43.92773
990.1810, 23.28906
991.2950, 62.28320
992.4100, 35.97070
993.5240, 179.5430
994.6390, 0.7148440
995.7530, 176.9355
996.8660, 76.12500
997.9800, 207.0176
999.0940, 230.8438
1000.207, 52.62695
1001.320, 188.8086
1002.433, 150.6758
1003.546, 46.05078
1004.659, 218.6348
1005.772, 199.2910
1006.884, 47.26758
1007.996, 154.3320
1009.108, 94.94141
1010.220, 255.6387
1011.332, 82.08398
1012.444, 276.7598
1013.555, 254.4297
1014.666, 32.01172
1015.777, 108.0000
1016.888, 73.44531
1017.999, 6.910156
1019.110, 152.9805
1020.220, 88.76758
1021.331, 125.3145
1022.441, 75.22461
1023.551, 79.98242
1024.661, 14.73438
1025.770, 92.18359
1026.880, 86.86523
1027.989, 119.4434
1029.098, 28.70703
1030.207, 19.35938
1031.316, 90.86719
1032.425, 114.4473
1033.533, 214.0039
1034.642, 188.6367
1035.750, 180.0684
1036.858, 441.8613
1037.966, 449.5098
1039.073, 530.9902
1040.181, 468.1934
1041.288, 578.0332
1042.396, 534.1230
1043.503, 623.8652
1044.610, 780.1719
1045.716, 1050.871
1046.823, 1581.648
1047.929, 1613.469
1049.036, 2156.408
1050.142, 2973.824
1051.248, 3271.648
1052.353, 3869.127
1053.459, 4332.754
1054.564, 3830.209
1055.670, 3382.469
1056.775, 2589.207
1057.880, 1777.143
1058.985, 1227.324
1060.089, 990.0605
1061.194, 744.5410
1062.298, 623.8945
1063.402, 526.9258
1064.506, 674.1953
1065.610, 548.0703
1066.713, 588.4570
1067.817, 229.0898
1068.920, 466.9004
1070.023, 264.3809
1071.126, 413.2891
1072.229, 366.2969
1073.332, 499.7461
1074.435, 632.1230
1075.537, 1066.510
1076.639, 1047.881
1077.741, 1193.695
1078.843, 1677.457
1079.945, 1879.777
1081.046, 1921.900
1082.148, 2042.512
1083.249, 1903.193
1084.350, 1587.703
1085.451, 1241.162
1086.551, 1104.684
1087.652, 905.0449
1088.752, 384.3574
1089.853, 189.6309
1090.953, 248.1738
1092.053, 216.6387
1093.152, 188.0664
1094.252, 162.2910
1095.351, 82.29297
1096.451, 91.23633
1097.550, 290.1289
1098.649, 418.9727
1099.748, 342.8457
1100.846, 81.59961
1101.945, 113.3008
1103.043, 154.1738
1104.141, 154.2871
1105.239, 230.8320
1106.337, 157.4453
1107.434, 424.8965
1108.532, 116.3105
1109.629, 373.6738
1110.726, 189.9922
1111.823, 167.7676
1112.920, 238.8867
1114.017, 32.70898
1115.113, 53.58008
1116.210, 230.9316
1117.306, 208.5625
1118.402, 302.3887
1119.498, 288.8535
1120.593, 325.5938
1121.689, 408.8320
1122.784, 316.8125
1123.879, 344.1133
1124.974, 309.4766
1126.069, 287.1836
1127.164, 271.6270
1128.259, 219.4727
1129.353, 176.6250
1130.447, 110.2832
1131.541, 28.00000
1132.635, 91.56055
1133.729, 63.00781
1134.822, 554.5527
1135.916, 188.2793
1137.009, 247.8320
1138.102, 133.1719
1139.195, 54.19727
1140.288, 53.82031
1141.380, 190.8418
1142.473, 304.5234
1143.565, 192.1270
1144.657, 241.5098
1145.749, 166.7656
1146.841, 267.9883
1147.932, 190.5625
1149.024, 156.9570
1150.115, 374.5508
1151.206, 116.2500
1152.297, 405.6445
1153.388, 56.35938
1154.479, 301.6367
1155.569, 126.9023
1156.659, 197.0547
1157.750, 364.3477
1158.839, 84.58984
1159.929, 132.5820
1161.019, 311.4414
1162.108, 162.3125
1163.198, 192.4609
1164.287, 93.68359
1165.376, 268.2969
1166.465, 356.7773
1167.553, 404.1992
1168.642, 346.4453
1169.730, 352.7734
1170.818, 296.9180
1171.906, 245.0312
1172.994, 145.2344
1174.082, 78.31250
1175.170, 59.54688
1176.257, 318.4766
1177.344, 13.01562
1178.431, 265.9688
1179.518, 195.9258
1180.605, 275.5820
1181.691, 158.1602
1182.778, 64.87109
1183.864, 225.5781
1184.950, 256.3281
1186.036, 91.95703
1187.122, 145.7617
1188.207, 31.72266
1189.292, 47.20703
1190.378, 400.6602
1191.463, 121.9062
1192.548, 408.4219
1193.632, 47.28125
1194.717, 188.9453
1195.801, 298.1445
1196.886, 158.3242
1197.970, 98.47656
1199.054, 353.0703
1200.137, 226.1797
1201.221, 328.8867
1202.305, 199.9414
1203.388, 459.9805
1204.471, 117.9844
1205.554, 277.9688
1206.637, 75.92578
1207.719, 269.8594
1208.802, 460.7656
1209.884, 70.64844
1210.966, 104.4961
1212.048, 329.3164
1213.130, 182.1094
1214.212, 419.8750
1215.293, 368.7383
1216.374, 180.3320
1217.456, 270.0234
1218.536, 362.6914
1219.617, 199.3320
1220.698, 120.3438
1221.778, 126.5781
1222.859, 119.6562
1223.939, 154.5977
1225.019, 296.4102
1226.099, 312.8711
1227.178, 261.3516
1228.258, 336.6406
1229.337, 169.0703
1230.417, 202.4688
1231.496, 376.8398
1232.574, 126.3242
1233.653, 55.96484
1234.732, 499.5820
1235.810, 148.5078
1236.888, 239.1094
1237.966, 539.3594
1239.044, 316.7539
1240.122, 248.9688
1241.199, 271.4297
1242.277, 282.0039
1243.354, 266.8555
1244.431, 277.8398
1245.508, 404.8906
1246.585, 414.6836
1247.661, 480.3633
1248.738, 340.4297
1249.814, 408.2344
1250.890, 173.4844
1251.966, 318.5195
1253.042, 353.5508
1254.117, 73.57422
1255.193, 338.5820
1256.268, 157.4570
1257.343, 315.3164
1258.418, 240.8633
1259.493, 224.2266
1260.567, 330.3047
1261.642, 310.0039
1262.716, 403.0312
1263.790, 62.92969
1264.864, 509.7812
1265.938, 107.1953
1267.011, 418.8594
1268.085, 515.0391
1269.158, 121.2656
1270.231, 30.89453
1271.304, 41.49609
1272.377, 323.2578
1273.450, 270.6484
1274.522, 172.2305
1275.594, 378.5078
1276.666, 240.2305
1277.738, 332.6250
1278.810, 250.8906
1279.882, 404.6328
1280.953, 253.7305
1282.025, 53.46094
1283.096, 297.3086
1284.167, 328.0312
1285.238, 145.1758
1286.308, 280.6367
1287.379, 189.3555
1288.449, 129.6445
1289.519, 126.4570
1290.589, 53.10547
1291.659, 457.3438
1292.729, 90.71094
1293.798, 404.6680
1294.868, 127.3086
1295.937, 171.9531
1297.006, 65.58594
1298.075, 95.21094
1299.143, 34.83594
1300.212, 130.4570
1301.280, 43.05469
1302.348, 96.24219
1303.416, 59.15234
1304.484, 371.1484
1305.552, 218.2539
1306.620, 128.1953
1307.687, 151.6836
1308.754, 190.0547
1309.821, 279.5273
1310.888, 383.5078
1311.955, 24.10156
1313.021, 7.378906
1314.088, 90.76172
1315.154, 67.50000
1316.220, 301.2461
1317.286, 211.6211
1318.352, 445.1758
1319.417, 598.5742
1320.483, 207.9453
1321.548, 442.3477
1322.613, 301.4492
1323.678, 490.6289
1324.743, 85.01953
1325.807, 423.0820
1326.872, 141.8945
1327.936, 479.2812
1329.000, 479.6445
1330.064, 302.0312
1331.128, 416.2969
1332.191, 286.6797
1333.255, 561.6133
1334.318, 343.9961
1335.381, 406.7617
1336.444, 456.1445
1337.507, 252.5234
1338.569, 635.2969
1339.632, 224.2148
1340.694, 478.5977
1341.756, 435.8555
1342.818, 210.2422
1343.880, 523.6211
1344.941, 411.9023
1346.003, 276.2812
1347.064, 499.6602
1348.125, 157.0352
1349.186, 346.0898
1350.247, 508.1836
1351.308, 190.2539
1352.368, 466.4883
1353.428, 380.8945
1354.489, 558.3125
1355.549, 386.7344
1356.608, 492.1641
1357.668, 646.5273
1358.727, 596.9688
1359.787, 562.4570
1360.846, 583.6484
1361.905, 350.5977
1362.964, 359.0703
1364.022, 315.4414
1365.081, 321.9375
1366.139, 437.4336
1367.197, 347.9453
1368.255, 76.53906
1369.313, 703.9805
1370.371, 463.5078
1371.428, 324.0508
1372.486, 757.6016
1373.543, 210.1641
1374.600, 421.7422
1375.657, 586.3281
1376.713, 565.9219
1377.770, 275.5273
1378.826, 148.1406
1379.882, 308.7695
1380.938, 566.4062
1381.994, 305.7383
1383.050, 706.4023
1384.106, 441.5195
1385.161, 334.2070
1386.216, 109.9102
1387.271, 245.6211
1388.326, 277.3477
1389.381, 347.0977
1390.435, 336.9414
1391.490, 298.3477
1392.544, 293.1484
1393.598, 309.8672
1394.652, 353.7031
1395.705, 312.5508
1396.759, 472.4414
1397.812, 448.9492
1398.866, 578.6719
1399.919, 497.6172
1400.972, 334.5859
1402.024, 330.5703
1403.077, 279.5781
1404.129, 531.6094
1405.181, 416.6562
1406.233, 427.7305
1407.285, 436.8242
1408.337, 374.9453
1409.389, 553.8867
1410.440, 271.0508
1411.491, 240.2461
1412.542, 434.4688
1413.593, 220.7109
1414.644, 610.9844
1415.695, 245.6445
1416.745, 400.9805
1417.795, 373.1953
1418.845, 423.5898
1419.895, 538.1992
1420.945, 452.7500
1421.995, 679.2461
1423.044, 556.7695
1424.093, 481.2852
1425.142, 263.8867
1426.191, 686.3516
1427.240, 214.1719
1428.289, 722.7734
1429.337, 524.5391
1430.385, 602.3164
1431.433, 677.1992
1432.481, 269.6328
1433.529, 321.6328
1434.577, 744.6758
1435.624, 478.2188
1436.672, 623.4648
1437.719, 398.7734
1438.766, 586.1172
1439.812, 602.6133
1440.859, 490.2539
1441.905, 513.1797
1442.952, 534.6445
1443.998, 545.2031
1445.044, 554.9727
1446.090, 501.2031
1447.135, 358.9180
1448.181, 554.0898
1449.226, 610.3555
1450.271, 943.6406
1451.316, 764.9492
1452.361, 749.2695
1453.405, 666.6094
1454.450, 355.9688
1455.494, 692.3555
1456.538, 753.7617
1457.582, 398.1914
1458.626, 410.6445
1459.670, 552.1211
1460.713, 475.6094
1461.757, 581.1289
1462.800, 527.6719
1463.843, 662.2461
1464.886, 349.8359
1465.928, 810.4492
1466.971, 583.0898
1468.013, 780.7539
1469.055, 823.4453
1470.097, 451.1641
1471.139, 447.7148
1472.181, 648.4609
1473.222, 511.2305
1474.263, 430.0234
1475.305, 302.8438
1476.346, 607.6875
1477.386, 703.5547
1478.427, 503.4492
1479.468, 536.4922
1480.508, 344.5664
1481.548, 141.6758
1482.588, 518.8047
1483.628, 689.9727
1484.668, 346.1680
1485.707, 923.4062
1486.747, 609.6914
1487.786, 278.0156
1488.825, 378.3672
1489.864, 415.7422
1490.902, 564.1523
1491.941, 517.5938
1492.979, 430.0664
1494.017, 459.6289
1495.055, 571.1914
1496.093, 449.8633
1497.131, 382.5547
1498.168, 529.2773
1499.206, 215.0273
1500.243, 273.8047
1501.280, 276.6016
1502.317, 78.42578
1503.354, 511.4648
1504.390, 432.6055
1505.426, 350.8516
1506.463, 924.1211
1507.499, 363.4102
1508.535, 274.6719
1509.570, 621.9375
1510.606, 381.2422
1511.641, 429.6094
1512.676, 165.0469
1513.711, 358.5586
1514.746, 642.1445
1515.781, 235.7891
1516.816, 368.5117
1517.850, 573.3203
1518.884, 513.2031
1519.918, 558.1719
1520.952, 462.2227
1521.986, 610.3828
1523.019, 373.6562
1524.053, 591.0352
1525.086, 433.5117
1526.119, 410.0938
1527.152, 283.7812
1528.185, 285.3398
1529.217, 498.4883
1530.250, 286.5039
1531.282, 426.6445
1532.314, 391.9062
1533.346, 309.3008
1534.377, 316.8359
1535.409, 300.5156
1536.440, 502.3359
1537.472, 554.3164
1538.503, 27.45703
1539.534, 117.7617
1540.564, 374.2344
1541.595, 71.90234
1542.625, 372.7734
1543.656, 18.14453
1544.686, 193.1602
1545.716, 435.7109
1546.745, 367.5117
1547.775, 307.5742
1548.804, 53.92578
1549.834, 350.5742
1550.863, 21.53906
1551.892, 289.8477
1552.920, 460.5273
1553.949, 410.6055
1554.977, 309.1094
1556.006, 357.0859
1557.034, 712.5703
1558.062, 580.1719
1559.089, 531.3633
1560.117, 435.7578
1561.144, 219.5859
1562.172, 193.4297
1563.199, 140.7227
1564.226, 2.726563
1565.252, 470.3867
1566.279, 13.69141
1567.305, 108.9258
1568.332, 463.4844
1569.358, 207.8477
1570.384, 3.816406
1571.409, 0.0000000E+00
##END=



