##NAMES=Fluorapatite
##RRUFFID=R060333
##IDEAL CHEMISTRY=Ca_5_(PO_4_)_3_F
##LOCALITY=Lovozero Massif, Kola Peninsula, U.S.S.R.
##OWNER=RRUFF
##SOURCE=Michael Scott
##DESCRIPTION=Colorless fragment associated with red villiaumite
##STATUS=The identification of this mineral has been confirmed by X-ray diffraction and chemical analysis
##URL=rruff.info/R060333
##MEASURED CHEMISTRY=(Ca_4.29_Sr_0.47_Na_0.12_Ce_0.07_La_0.06_)_Σ=5_((P_0.99_Si_0.01_)_Σ=1_O_4_)_3_F_1.00_
##PIN_ID=L00852
##ORIENTATION=Laser parallel to c* (0 0 1). Fiducial mark perpendicular to laser is parallel to -a [-1 0 0]
164.2210, 0.0000000E+00
165.4520, 0.2763670
166.6830, 118.6523
167.9140, 50.53271
169.1450, 151.6499
170.3760, 145.6382
171.6060, 31.15918
172.8360, 3.559082
174.0660, 73.64355
175.2960, 16.92578
176.5260, 103.3452
177.7550, 66.65674
178.9840, 93.38232
180.2130, 62.89014
181.4420, 36.86426
182.6710, 64.14551
183.9000, 88.80664
185.1280, 37.65869
186.3560, 0.1650390
187.5840, 56.83545
188.8120, 61.43750
190.0400, 9.434570
191.2670, 26.60791
192.4950, 107.4194
193.7220, 45.24805
194.9490, 24.13428
196.1750, 12.91602
197.4020, 5.053223
198.6280, 107.0161
199.8540, 70.95410
201.0800, 116.8516
202.3060, 36.72559
203.5320, 46.61865
204.7570, 45.52783
205.9830, 186.6362
207.2080, 109.9385
208.4330, 134.3481
209.6570, 238.8774
210.8820, 56.41309
212.1060, 93.96924
213.3310, 66.62500
214.5550, 164.4131
215.7780, 84.14551
217.0020, 119.8159
218.2260, 92.41895
219.4490, 147.9639
220.6720, 107.5244
221.8950, 202.1938
223.1180, 135.8521
224.3400, 147.4873
225.5630, 144.2842
226.7850, 230.2397
228.0070, 213.9072
229.2290, 226.1689
230.4500, 216.3105
231.6720, 252.3062
232.8930, 169.1562
234.1140, 242.8647
235.3350, 213.4346
236.5560, 342.8677
237.7770, 282.1973
238.9970, 277.5205
240.2170, 336.0698
241.4370, 244.4194
242.6570, 262.3608
243.8770, 187.4941
245.0960, 208.4346
246.3160, 308.6255
247.5350, 263.9102
248.7540, 259.4028
249.9730, 245.6558
251.1910, 363.0586
252.4100, 411.3652
253.6280, 490.8359
254.8460, 457.5112
256.0640, 621.1338
257.2810, 558.2568
258.4990, 540.3540
259.7160, 646.2559
260.9330, 478.7246
262.1500, 599.4077
263.3670, 541.8271
264.5840, 608.8877
265.8000, 477.5415
267.0170, 483.0386
268.2330, 313.5117
269.4490, 414.1108
270.6640, 359.3931
271.8800, 395.2656
273.0950, 353.8667
274.3100, 262.4038
275.5260, 256.8037
276.7400, 265.1431
277.9550, 237.0283
279.1690, 227.3921
280.3840, 316.4897
281.5980, 244.7500
282.8120, 259.5239
284.0260, 223.3633
285.2390, 186.2900
286.4530, 199.1968
287.6660, 181.8823
288.8790, 181.9365
290.0920, 177.3540
291.3040, 222.1875
292.5170, 244.9688
293.7290, 272.7002
294.9410, 301.3472
296.1530, 288.9937
297.3650, 329.7861
298.5770, 262.8633
299.7880, 232.8735
301.0000, 228.8135
302.2110, 226.8184
303.4220, 259.4937
304.6320, 264.2334
305.8430, 266.9062
307.0530, 263.5127
308.2630, 267.0527
309.4730, 241.5269
310.6830, 285.5371
311.8930, 331.2954
313.1030, 220.4712
314.3120, 176.4590
315.5210, 113.3774
316.7300, 190.1963
317.9390, 117.7871
319.1470, 209.1021
320.3560, 143.6899
321.5640, 211.9580
322.7720, 109.3965
323.9800, 99.78369
325.1880, 107.0762
326.3950, 43.48145
327.6030, 126.6006
328.8100, 108.7485
330.0170, 73.70508
331.2240, 97.15283
332.4300, 16.10352
333.6370, 42.93066
334.8430, 65.51221
336.0490, 114.3447
337.2550, 92.92383
338.4610, 47.57373
339.6660, 31.33301
340.8720, 18.82715
342.0770, 44.11377
343.2820, 54.36572
344.4870, 69.81885
345.6920, 54.23389
346.8960, 68.43359
348.1010, 56.04541
349.3050, 16.58838
350.5090, 26.86426
351.7130, 41.49951
352.9160, 10.51709
354.1200, 85.59766
355.3230, 50.90039
356.5260, 57.83545
357.7290, 71.26270
358.9320, 3.666992
360.1350, 84.06250
361.3370, 15.57764
362.5390, 59.28223
363.7410, 73.52930
364.9430, 104.9951
366.1450, 95.60205
367.3470, 125.1499
368.5480, 94.72363
369.7490, 120.1143
370.9500, 97.04150
372.1510, 105.2778
373.3520, 81.70996
374.5520, 90.18604
375.7530, 144.3301
376.9530, 106.0986
378.1530, 218.6953
379.3520, 63.47607
380.5520, 128.2188
381.7510, 61.50830
382.9510, 134.5518
384.1500, 85.56885
385.3490, 118.4150
386.5480, 16.21191
387.7460, 21.71191
388.9440, 79.09277
390.1430, 36.23730
391.3410, 75.15820
392.5390, 110.8691
393.7360, 11.49121
394.9340, 120.8740
396.1310, 22.52832
397.3280, 6.798828
398.5250, 51.41504
399.7220, 67.37109
400.9190, 135.3389
402.1150, 111.8633
403.3120, 83.83105
404.5080, 132.6240
405.7040, 80.53516
406.8990, 125.1973
408.0950, 60.81250
409.2900, 192.3086
410.4860, 210.3320
411.6810, 139.0439
412.8760, 173.3975
414.0700, 88.63281
415.2650, 210.6465
416.4590, 159.0088
417.6540, 256.2705
418.8480, 112.1533
420.0420, 261.3271
421.2350, 315.9531
422.4290, 195.3701
423.6220, 156.3350
424.8150, 390.0898
426.0080, 425.7705
427.2010, 359.4287
428.3940, 448.9971
429.5860, 474.4385
430.7790, 593.8760
431.9710, 575.1846
433.1630, 680.4375
434.3540, 738.6143
435.5460, 658.8672
436.7370, 819.0664
437.9290, 1035.219
439.1200, 1042.320
440.3110, 1155.375
441.5010, 1336.383
442.6920, 1366.344
443.8820, 1532.263
445.0730, 1486.135
446.2630, 1526.961
447.4530, 1488.742
448.6420, 1420.479
449.8320, 1443.174
451.0210, 1360.837
452.2100, 1250.473
453.3990, 1207.065
454.5880, 955.6162
455.7770, 892.1123
456.9660, 703.5322
458.1540, 743.7061
459.3420, 631.5557
460.5300, 669.6641
461.7180, 583.4111
462.9050, 553.4824
464.0930, 481.2207
465.2800, 513.1846
466.4670, 332.6572
467.6540, 378.0303
468.8410, 287.3730
470.0280, 317.3506
471.2140, 328.6494
472.4000, 238.8066
473.5870, 339.4053
474.7720, 254.3877
475.9580, 106.8184
477.1440, 159.4170
478.3290, 157.0830
479.5140, 104.8887
480.6990, 170.5371
481.8840, 45.45996
483.0690, 85.22656
484.2540, 197.9600
485.4380, 97.08496
486.6220, 128.3623
487.8060, 110.8008
488.9900, 170.9531
490.1740, 241.2373
491.3570, 53.12793
492.5410, 77.52344
493.7240, 50.49316
494.9070, 164.7559
496.0900, 138.5635
497.2720, 74.40723
498.4550, 109.9355
499.6370, 143.4619
500.8190, 87.57422
502.0010, 33.66992
503.1830, 22.20410
504.3650, 100.5723
505.5460, 73.38770
506.7280, 170.8818
507.9090, 123.4121
509.0900, 127.4863
510.2710, 1.249023
511.4510, 140.5039
512.6320, 78.29102
513.8120, 73.91699
514.9920, 92.50586
516.1720, 69.92188
517.3520, 0.4365230
518.5310, 90.03418
519.7110, 36.18262
520.8900, 187.7959
522.0690, 10.67480
523.2480, 54.76074
524.4270, 88.58887
525.6050, 82.55566
526.7840, 110.2412
527.9620, 19.36133
529.1400, 162.8164
530.3180, 53.35645
531.4960, 90.98926
532.6730, 50.32129
533.8510, 49.59180
535.0280, 53.02051
536.2050, 69.84375
537.3820, 34.16113
538.5590, 20.90918
539.7350, 72.20312
540.9120, 119.3027
542.0880, 102.3516
543.2640, 194.2734
544.4400, 80.40723
545.6150, 107.6904
546.7910, 71.66895
547.9660, 347.7295
549.1410, 104.3145
550.3170, 119.3760
551.4910, 218.5605
552.6660, 52.95996
553.8410, 115.0215
555.0150, 130.7529
556.1890, 170.7715
557.3630, 74.87305
558.5370, 85.87988
559.7110, 163.1025
560.8840, 318.7344
562.0570, 192.6504
563.2310, 225.2871
564.4040, 326.4346
565.5760, 123.1377
566.7490, 435.3643
567.9220, 359.4004
569.0940, 516.2236
570.2660, 543.5312
571.4380, 718.6875
572.6100, 978.5869
573.7820, 1099.125
574.9530, 1299.852
576.1240, 1408.165
577.2960, 1544.496
578.4670, 1552.716
579.6370, 1543.049
580.8080, 1531.649
581.9790, 1396.406
583.1490, 1336.088
584.3190, 1103.752
585.4890, 999.4199
586.6590, 902.3340
587.8280, 785.3398
588.9980, 705.4580
590.1670, 533.9922
591.3360, 699.7715
592.5050, 739.3203
593.6740, 792.8457
594.8430, 658.3740
596.0110, 716.9297
597.1790, 737.2441
598.3480, 913.6543
599.5160, 855.9834
600.6830, 966.2246
601.8510, 1133.472
603.0180, 1301.016
604.1860, 1364.198
605.3530, 1518.613
606.5200, 1613.845
607.6870, 1507.099
608.8530, 1407.713
610.0200, 1118.625
611.1860, 945.1914
612.3520, 873.6904
613.5180, 754.5078
614.6840, 818.5693
615.8500, 608.8193
617.0150, 625.1006
618.1800, 641.6201
619.3450, 433.9707
620.5100, 412.9014
621.6750, 351.4951
622.8400, 236.2109
624.0040, 201.9648
625.1690, 145.9072
626.3330, 111.4834
627.4970, 76.86914
628.6610, 112.3408
629.8240, 79.80859
630.9880, 145.8838
632.1510, 169.9512
633.3140, 274.8594
634.4770, 215.8350
635.6400, 241.0391
636.8020, 339.7656
637.9650, 119.9043
639.1270, 113.8965
640.2890, 165.6426
641.4510, 302.7344
642.6130, 324.5586
643.7750, 169.5439
644.9360, 414.4521
646.0980, 305.5215
647.2590, 258.3281
648.4200, 340.9180
649.5810, 308.0586
650.7410, 452.4775
651.9020, 452.7451
653.0620, 535.3682
654.2220, 485.6953
655.3820, 414.3799
656.5420, 350.5508
657.7020, 478.8330
658.8610, 426.6621
660.0200, 545.5137
661.1800, 609.7988
662.3390, 595.5322
663.4970, 345.9902
664.6560, 630.7637
665.8150, 549.6113
666.9730, 286.7764
668.1310, 438.9609
669.2890, 185.7061
670.4470, 362.2988
671.6050, 167.4814
672.7620, 172.6377
673.9200, 306.3262
675.0770, 170.1709
676.2340, 445.1494
677.3910, 241.9951
678.5470, 281.1221
679.7040, 190.3789
680.8600, 128.6182
682.0160, 158.5576
683.1720, 47.91699
684.3280, 146.0986
685.4840, 40.27441
686.6390, 113.8975
687.7950, 77.54395
688.9500, 102.7705
690.1050, 205.6221
691.2600, 1.439453
692.4150, 147.9102
693.5690, 33.80078
694.7240, 73.38867
695.8780, 158.2344
697.0320, 110.8086
698.1860, 138.1953
699.3400, 117.4102
700.4930, 8.480469
701.6470, 55.18945
702.8000, 40.16211
703.9530, 76.97461
705.1060, 18.60547
706.2590, 139.6172
707.4110, 174.8418
708.5640, 53.20117
709.7160, 64.25000
710.8680, 110.1289
712.0200, 181.0918
713.1720, 120.1191
714.3230, 180.1211
715.4750, 207.8027
716.6260, 194.8496
717.7770, 153.0352
718.9280, 150.2051
720.0790, 290.6445
721.2300, 154.4277
722.3800, 36.79492
723.5300, 234.0605
724.6810, 159.4668
725.8300, 121.2793
726.9800, 78.06250
728.1300, 14.84375
729.2790, 32.74023
730.4290, 46.09766
731.5780, 2.093750
732.7270, 47.88867
733.8760, 114.6797
735.0240, 156.0410
736.1730, 116.1191
737.3210, 118.9453
738.4700, 123.8945
739.6180, 105.7852
740.7650, 39.49219
741.9130, 88.45312
743.0610, 38.46289
744.2080, 283.6914
745.3550, 31.34961
746.5020, 159.9062
747.6490, 243.9844
748.7960, 100.9883
749.9430, 350.3984
751.0890, 167.4922
752.2350, 206.7812
753.3810, 60.38477
754.5270, 31.98242
755.6730, 106.5605
756.8190, 127.1992
757.9640, 158.5840
759.1090, 287.5723
760.2540, 95.96680
761.3990, 122.1289
762.5440, 15.63672
763.6890, 161.3340
764.8330, 25.10352
765.9780, 164.7285
767.1220, 17.87109
768.2660, 119.6738
769.4100, 133.9590
770.5530, 197.6348
771.6970, 128.2266
772.8400, 201.5488
773.9830, 52.94922
775.1260, 331.9512
776.2690, 144.7402
777.4120, 229.0527
778.5540, 320.8242
779.6970, 70.37500
780.8390, 35.87109
781.9810, 111.5977
783.1230, 175.4043
784.2650, 170.6016
785.4060, 157.1230
786.5480, 251.0332
787.6890, 148.6660
788.8300, 273.2656
789.9710, 1.105469
791.1120, 85.86914
792.2520, 241.7207
793.3930, 11.57422
794.5330, 109.2324
795.6730, 278.2207
796.8130, 63.80664
797.9530, 107.8867
799.0930, 219.7578
800.2320, 125.5625
801.3710, 80.09961
802.5110, 277.6855
803.6500, 212.2070
804.7880, 289.2871
805.9270, 333.9648
807.0660, 266.4297
808.2040, 377.4473
809.3420, 165.8086
810.4800, 160.1504
811.6180, 111.9824
812.7560, 104.1797
813.8930, 59.15234
815.0310, 168.5449
816.1680, 215.0371
817.3050, 248.0840
818.4420, 284.8066
819.5790, 217.5898
820.7150, 48.44531
821.8520, 295.0918
822.9880, 87.74609
824.1240, 241.4512
825.2600, 78.43164
826.3960, 164.4492
827.5320, 41.83203
828.6670, 137.9355
829.8020, 89.94531
830.9380, 158.2891
832.0730, 116.8535
833.2080, 305.7051
834.3420, 357.3047
835.4770, 201.9609
836.6110, 133.4688
837.7450, 311.2188
838.8790, 382.3438
840.0130, 290.3379
841.1470, 238.4844
842.2810, 263.7090
843.4140, 235.5488
844.5470, 192.3691
845.6800, 246.1309
846.8130, 266.9160
847.9460, 225.8320
849.0790, 191.9824
850.2110, 178.1855
851.3440, 234.8359
852.4760, 129.4766
853.6080, 80.73438
854.7400, 73.81250
855.8710, 229.8594
857.0030, 128.3027
858.1340, 208.0352
859.2650, 212.4297
860.3960, 160.5996
861.5270, 282.9980
862.6580, 270.1836
863.7890, 250.3379
864.9190, 427.1738
866.0490, 282.2734
867.1790, 146.4141
868.3090, 214.3125
869.4390, 175.5039
870.5690, 205.5410
871.6980, 253.5020
872.8270, 294.1543
873.9570, 244.7637
875.0860, 239.3379
876.2140, 263.9141
877.3430, 181.9414
878.4720, 179.3691
879.6000, 49.66016
880.7280, 196.6445
881.8560, 199.3965
882.9840, 399.7559
884.1120, 333.4160
885.2390, 177.4277
886.3670, 235.8184
887.4940, 6.853516
888.6210, 76.41992
889.7480, 328.0273
890.8750, 282.8672
892.0020, 241.5703
893.1280, 302.8477
894.2540, 121.1348
895.3810, 214.4473
896.5070, 136.9141
897.6320, 3.560547
898.7580, 11.75781
899.8840, 97.79883
901.0090, 6.449219
902.1340, 153.0137
903.2590, 40.39258
904.3840, 112.7480
905.5090, 264.9062
906.6340, 91.70703
907.7580, 60.74219
908.8820, 108.4238
910.0060, 42.84570
911.1300, 96.46484
912.2540, 72.74023
913.3780, 109.2969
914.5010, 130.3242
915.6250, 58.79492
916.7480, 17.46289
917.8710, 243.7695
918.9940, 344.2305
920.1160, 209.6328
921.2390, 129.9414
922.3610, 145.5996
923.4840, 207.7910
924.6060, 132.4648
925.7280, 0.7910160
926.8490, 86.58398
927.9710, 68.99023
929.0930, 62.70312
930.2140, 235.4688
931.3350, 81.90625
932.4560, 184.3301
933.5770, 214.9785
934.6980, 213.0586
935.8180, 303.7070
936.9380, 429.1309
938.0590, 407.3496
939.1790, 556.2617
940.2990, 523.4648
941.4180, 494.8203
942.5380, 879.8652
943.6570, 1244.287
944.7770, 1165.850
945.8960, 1388.359
947.0150, 1703.635
948.1340, 2181.852
949.2520, 2468.770
950.3710, 3561.191
951.4890, 4538.781
952.6070, 6093.482
953.7260, 7944.309
954.8430, 10279.83
955.9610, 13034.36
957.0790, 16009.25
958.1960, 19319.22
959.3130, 22345.03
960.4310, 25028.90
961.5480, 26749.10
962.6640, 26917.65
963.7810, 25717.83
964.8970, 23119.66
966.0140, 19700.76
967.1300, 16004.67
968.2460, 13036.57
969.3620, 10108.46
970.4780, 7747.652
971.5930, 6133.656
972.7090, 4828.297
973.8240, 3267.047
974.9390, 2612.561
976.0540, 2021.838
977.1690, 1481.215
978.2830, 1173.455
979.3980, 710.4961
980.5120, 346.7422
981.6260, 578.0586
982.7400, 543.1855
983.8540, 203.1465
984.9680, 399.0371
986.0820, 35.14258
987.1950, 23.20898
988.3080, 59.06641
989.4210, 243.2305
990.5340, 110.1680
991.6470, 126.6562
992.7600, 49.46094
993.8720, 70.27539
994.9850, 176.8398
996.0970, 200.9004
997.2090, 110.8945
998.3210, 55.78711
999.4320, 142.9473
1000.544, 204.9688
1001.655, 32.56445
1002.767, 6.859375
1003.878, 128.6875
1004.989, 87.34766
1006.100, 152.1895
1007.210, 236.1914
1008.321, 219.6309
1009.431, 115.7148
1010.541, 277.5488
1011.651, 51.20898
1012.761, 116.6641
1013.871, 214.5684
1014.980, 220.0723
1016.090, 239.5781
1017.199, 386.4746
1018.308, 217.3516
1019.417, 43.73047
1020.526, 101.3398
1021.635, 511.6621
1022.743, 468.5781
1023.852, 559.3750
1024.960, 268.1602
1026.068, 654.8301
1027.176, 508.7188
1028.283, 654.9551
1029.391, 937.6758
1030.498, 916.1582
1031.606, 842.0957
1032.713, 973.5195
1033.820, 1039.850
1034.927, 858.6621
1036.033, 559.2285
1037.140, 573.9102
1038.246, 524.2988
1039.353, 353.3203
1040.459, 437.7793
1041.564, 292.1836
1042.670, 655.5332
1043.776, 432.6074
1044.881, 705.8984
1045.987, 436.5625
1047.092, 235.9004
1048.197, 526.9570
1049.302, 527.0762
1050.406, 544.2422
1051.511, 549.1406
1052.615, 681.0742
1053.720, 781.8262
1054.824, 613.2441
1055.928, 719.7246
1057.031, 557.4688
1058.135, 744.8945
1059.238, 584.3047
1060.342, 579.5547
1061.445, 531.7305
1062.548, 642.8867
1063.651, 567.7695
1064.754, 430.0078
1065.856, 339.6797
1066.959, 525.4844
1068.061, 420.2773
1069.163, 449.1445
1070.265, 237.0078
1071.367, 331.8672
1072.469, 535.7266
1073.570, 390.5742
1074.671, 470.4180
1075.773, 389.2578
1076.874, 362.0664
1077.975, 548.9141
1079.075, 321.7422
1080.176, 438.5625
1081.276, 452.3828
1082.377, 524.2070
1083.477, 281.0234
1084.577, 375.8438
1085.677, 264.6523
1086.777, 283.4609
1087.876, 19.26562
1088.975, 28.08984
1090.075, 36.09375
1091.174, 0.2656250
1092.273, 66.55859
1093.372, 184.3789
1094.470, 160.1992
1095.569, 19.97656
1096.667, 182.8359
1097.765, 163.6406
1098.863, 321.4531
1099.961, 0.7382810
1101.059, 16.06250
1102.157, 57.85938
1103.254, 137.3477
1104.351, 27.38281
1105.449, 71.89844
1106.546, 387.7852
1107.642, 381.4609
1108.739, 206.1406
1109.836, 237.8125
1110.932, 76.48828
1112.028, 185.1562
1113.124, 270.8242
1114.220, 230.4922
1115.316, 189.1602
1116.412, 58.82812
1117.507, 258.4961
1118.603, 240.5664
1119.698, 99.92188
1120.793, 339.9766
1121.888, 119.7500
1122.983, 173.1172
1124.077, 73.57031
1125.172, 14.69922
1126.266, 153.9180
1127.360, 227.5430
1128.454, 124.1641
1129.548, 349.5703
1130.642, 134.7617
1131.735, 109.3203
1132.829, 163.9414
1133.922, 203.6992
1135.015, 176.0352
1136.108, 239.5586
1137.201, 135.9180
1138.294, 28.54688
1139.386, 314.1680
1140.478, 218.7969
1141.571, 279.2969
1142.663, 61.07812
1143.755, 389.1250
1144.846, 125.6094
1145.938, 124.2148
1147.030, 312.8281
1148.121, 228.4414
1149.212, 43.05469
1150.303, 184.6719
1151.394, 147.8984
1152.485, 194.3750
1153.575, 238.0000
1154.666, 167.6328
1155.756, 89.26953
1156.846, 177.6875
1157.936, 300.7266
1159.026, 143.6914
1160.116, 162.1133
1161.205, 380.7891
1162.295, 401.7305
1163.384, 335.3750
1164.473, 430.0312
1165.562, 378.6797
1166.651, 367.3438
1167.739, 314.0000
1168.828, 280.6797
1169.916, 564.3516
1171.005, 341.0234
1172.093, 492.7227
1173.181, 549.4492
1174.268, 292.1719
1175.356, 386.8984
1176.443, 194.6211
1177.531, 468.3711
1178.618, 155.1250
1179.705, 581.9141
1180.792, 242.7109
1181.879, 246.5117
1182.965, 424.3125
1184.052, 458.1094
1185.138, 372.9062
1186.224, 526.7070
1187.310, 339.5078
1188.396, 588.3047
1189.482, 463.1055
1190.567, 226.9062
1191.653, 545.7070
1192.738, 530.5117
1193.823, 547.3203
1194.908, 597.1250
1195.993, 485.9336
1197.077, 424.7383
1198.162, 559.5469
1199.246, 433.3477
1200.331, 454.1484
1201.415, 411.9492
1202.499, 227.7500
1203.582, 230.5469
1204.666, 102.3438
1205.750, 121.7383
1206.833, 332.9297
1207.916, 184.7227
1208.999, 467.5156
1210.082, 503.3047
1211.165, 445.0938
1212.248, 413.8828
1213.330, 476.6719
1214.412, 345.4531
1215.495, 369.2422
1216.577, 382.0234
1217.658, 364.5938
1218.740, 410.9453
1219.822, 423.2031
1220.903, 439.0039
1221.985, 486.5547
1223.066, 413.3281
1224.147, 399.1055
1225.228, 526.8828
1226.308, 448.5312
1227.389, 764.3047
1228.469, 406.0781
1229.550, 326.8594
1230.630, 566.3984
1231.710, 340.0898
1232.790, 410.8633
1233.869, 423.5195
1234.949, 624.2656
1236.028, 410.9922
1237.108, 264.7695
1238.187, 123.5430
1239.266, 437.3164
1240.344, 168.0938
1241.423, 707.8711
1242.502, 310.6445
1243.580, 434.4219
1244.658, 161.2031
1245.736, 105.9805
1246.814, 56.75781
1247.892, 6.539063
1248.970, 3.277344
1250.047, 238.3477
1251.125, 24.14453
1252.202, 306.9375
1253.279, 382.7383
1254.356, 408.5352
1255.433, 218.3281
1256.509, 368.1328
1257.586, 340.9453
1258.662, 517.7539
1259.738, 428.5625
1260.814, 298.3789
1261.890, 495.1953
1262.966, 338.0156
1264.042, 532.8516
1265.117, 650.6953
1266.193, 272.5430
1267.268, 755.3906
1268.343, 253.2422
1269.418, 444.0977
1270.492, 377.9570
1271.567, 302.8203
1272.642, 285.5039
1273.716, 335.3750
1274.790, 382.2422
1275.864, 322.1172
1276.938, 326.9961
1278.012, 640.8750
1279.085, 463.7578
1280.159, 154.6484
1281.232, 432.5430
1282.305, 92.43750
1283.378, 98.33984
1284.451, 65.24609
1285.524, 225.8438
1286.597, 188.0547
1287.669, 123.3711
1288.741, 385.7539
1289.813, 342.3438
1290.885, 92.12109
1291.957, 45.05859
1293.029, 37.24609
1294.101, 171.4375
1295.172, 364.6367
1296.243, 231.8398
1297.315, 51.04688
1298.386, 402.2617
1299.456, 331.4844
1300.527, 123.7148
1301.598, 212.9492
1302.668, 221.1914
1303.738, 399.4414
1304.809, 282.6992
1305.879, 220.9648
1306.948, 525.2344
1308.018, 655.5156
1309.088, 655.8047
1310.157, 856.1055
1311.226, 808.7812
1312.296, 764.7305
1313.365, 676.0547
1314.433, 700.3789
1315.502, 450.6992
1316.571, 437.0273
1317.639, 390.3516
1318.707, 587.6797
1319.776, 975.0156
1320.844, 720.3438
1321.911, 775.6836
1322.979, 733.0234
1324.047, 544.1211
1325.114, 774.6992
1326.181, 427.0391
1327.249, 422.3828
1328.316, 779.7344
1329.382, 459.0820
1330.449, 802.4375
1331.516, 521.7891
1332.582, 759.1484
1333.648, 637.5039
1334.715, 800.8672
1335.781, 642.2266
1336.846, 766.5977
1337.912, 767.9648
1338.978, 557.3359
1340.043, 736.7109
1341.108, 540.0938
1342.174, 703.4727
1343.239, 481.8594
1344.303, 544.2461
1345.368, 630.6367
1346.433, 874.0273
1347.497, 681.4219
1348.561, 551.8242
1349.626, 617.2383
1350.690, 583.6602
1351.753, 762.0820
1352.817, 812.5117
1353.881, 764.0898
1354.944, 843.3828
1356.007, 686.8242
1357.071, 433.2734
1358.134, 442.7227
1359.196, 335.1836
1360.259, 566.6445
1361.322, 658.1094
1362.384, 855.6133
1363.447, 831.6133
1364.509, 519.6562
1365.571, 679.1953
1366.633, 550.7422
1367.694, 338.2969
1368.756, 643.8633
1369.817, 546.4375
1370.879, 772.0234
1371.940, 419.6172
1373.001, 507.2227
1374.062, 576.8359
1375.122, 449.4570
1376.183, 742.1172
1377.244, 545.6172
1378.304, 641.2969
1379.364, 563.8398
1380.424, 623.5352
1381.484, 602.2500
1382.544, 800.9688
1383.603, 747.7031
1384.663, 497.4531
1385.722, 313.2148
1386.781, 535.0312
1387.840, 666.8164
1388.899, 504.6133
1389.958, 467.4219
1391.017, 363.2461
1392.075, 525.0820
1393.134, 641.9336
1394.192, 479.8008
1395.250, 449.6875
1396.308, 402.5859
1397.365, 195.5039
1398.423, 571.4375
1399.481, 507.3828
1400.538, 282.3711
1401.595, 616.3750
1402.652, 621.3984
1403.709, 912.4414
1404.766, 697.5078
1405.823, 816.5977
1406.879, 466.7070
1407.936, 741.8398
1408.992, 700.9961
1410.048, 321.1797
1411.104, 239.3867
1412.160, 550.6211
1413.215, 259.1055
1414.271, 467.9961
1415.326, 586.9844
1416.382, 432.5586
1417.437, 573.9102
1418.492, 275.7930
1419.546, 712.2617
1420.601, 339.7695
1421.656, 431.3203
1422.710, 208.9141
1423.764, 449.5586
1424.819, 618.2461
1425.873, 599.9883
1426.926, 406.7812
1427.980, 473.6328
1429.034, 296.5469
1430.087, 396.4688
1431.140, 497.4102
1432.194, 493.9648
1433.247, 497.1094
1434.299, 506.3711
1435.352, 682.5625
1436.405, 586.8398
1437.457, 638.0898
1438.510, 308.2852
1439.562, 572.5234
1440.614, 402.3867
1441.666, 255.2617
1442.717, 493.1523
1443.769, 199.0469
1444.821, 432.9453
1445.872, 775.8594
1446.923, 596.7812
1447.974, 293.7148
1449.025, 455.6602
1450.076, 873.6133
1451.127, 436.5703
1452.177, 410.5430
1453.227, 199.5234
1454.278, 754.5195
1455.328, 294.5273
1456.378, 487.5430
1457.428, 572.5664
1458.477, 486.6016
1459.527, 537.6484
1460.576, 392.7109
1461.625, 701.7852
1462.675, 296.8633
1463.724, 442.9492
1464.772, 582.0547
1465.821, 337.1680
1466.870, 480.2930
1467.918, 212.4219
1468.966, 769.5625
1470.015, 468.7109
1471.063, 76.87891
1472.110, 402.0820
1473.158, 232.3008
1474.206, 488.5156
1475.253, 462.7422
1476.301, 27.97656
1477.348, 508.2227
1478.395, 193.4766
1479.442, 469.7266
1480.488, 802.9883
1481.535, 252.2578
1482.582, 358.5312
1483.628, 253.7969
1484.674, 343.0703
1485.720, 565.3477
1486.766, 212.6172
1487.812, 413.8906
1488.858, 133.1562
1489.903, 297.7148
1490.949, 37.66797
1491.994, 543.1758
1493.039, 448.7383
1494.084, 300.3242
1495.129, 188.9297
1496.173, 214.5508
1497.218, 438.1875
1498.262, 27.83594
1499.307, 357.4844
1500.351, 6.136719
1501.395, 151.7930
1502.439, 279.4297
1503.483, 260.1211
1504.526, 90.87891
1505.570, 183.6875
1506.613, 380.5625
1507.656, 136.4961
1508.699, 237.5000
1509.742, 425.5703
1510.785, 106.7109
1511.827, 7.074219
1512.870, 289.2188
1513.912, 63.59375
1514.955, 284.0547
1515.997, 73.60547
1517.039, 277.2461
1518.080, 286.9922
1519.122, 400.8438
1520.164, 94.80078
1521.205, 556.8750
1522.246, 576.0781
1523.288, 214.4102
1524.329, 274.8789
1525.369, 194.5039
1526.410, 243.3008
1527.451, 306.2617
1528.491, 460.3750
1529.531, 322.0156
1530.572, 317.0078
1531.612, 182.5352
1532.652, 36.22656
1533.691, 203.1016
1534.731, 152.1602
1535.770, 339.4297
1536.810, 195.9180
1537.849, 111.6367
1538.888, 253.3594
1539.927, 397.5742
1540.966, 127.0664
1542.005, 339.8672
1543.043, 58.03125
1544.082, 134.4180
1545.120, 67.22266
1546.158, 142.4219
1547.196, 59.02344
1548.234, 139.7812
1549.272, 104.6367
1550.309, 209.7461
1551.347, 312.4570
1552.384, 198.8711
1553.421, 115.0352
1554.458, 92.67188
1555.495, 189.3125
1556.532, 7.128906
1557.568, 117.2383
1558.605, 115.3320
1559.641, 402.1445
1560.678, 158.2734
1561.714, 193.5625
1562.750, 0.9453130
1563.785, 0.0000000E+00
##END=



