##NAMES=Fluorapatite
##RRUFFID=R050192
##IDEAL CHEMISTRY=Ca_5_(PO_4_)_3_F
##LOCALITY=Fulford, Eagle County, Colorado, USA
##OWNER=RRUFF
##SOURCE=Dave Bunk Minerals
##DESCRIPTION=Pale green hexagonal prism
##STATUS=The identification of this mineral has been confirmed by X-ray diffraction and chemical analysis
##URL=rruff.info/R050192
##MEASURED CHEMISTRY=Ca_5.00_(P_1.00_O_4_)_3_(F_0.86_Cl_0.13_)
##PIN_ID=L00428
##ORIENTATION=Laser parallel to a* (1 0 0). Fiducial mark perpendicular to laser is parallel to -c [0 0 -1]
132.8980, 0.0000000E+00
134.1270, 25.72070
135.3560, 29.86426
136.5850, 76.63330
137.8140, 81.00977
139.0430, 132.1045
140.2710, 218.3762
141.5000, 205.5127
142.7280, 187.0283
143.9560, 124.4463
145.1840, 122.2969
146.4120, 101.3308
147.6390, 135.4822
148.8670, 58.45312
150.0940, 58.33350
151.3210, 90.10742
152.5490, 137.9216
153.7750, 160.8728
155.0020, 180.8330
156.2290, 224.4602
157.4550, 156.5337
158.6810, 101.2261
159.9080, 34.25000
161.1340, 154.6580
162.3590, 52.77759
163.5850, 5.750732
164.8110, 84.47485
166.0360, 30.86670
167.2610, 87.89453
168.4860, 5.743408
169.7110, 33.31689
170.9360, 43.94897
172.1610, 57.43311
173.3850, 60.85059
174.6100, 12.72949
175.8340, 44.12598
177.0580, 3.505615
178.2820, 4.007324
179.5050, 43.30518
180.7290, 45.58740
181.9520, 60.01685
183.1760, 21.97729
184.3990, 37.84985
185.6220, 58.69702
186.8450, 0.5554200
188.0670, 29.14111
189.2900, 16.98389
190.5120, 56.47632
191.7340, 5.324219
192.9560, 55.26196
194.1780, 27.10425
195.4000, 31.09009
196.6220, 77.05835
197.8430, 14.98193
199.0640, 63.85156
200.2860, 27.68262
201.5070, 68.47607
202.7270, 31.21533
203.9480, 84.91187
205.1690, 45.62866
206.3890, 4.387207
207.6090, 15.44824
208.8290, 18.26685
210.0490, 4.596924
211.2690, 28.61572
212.4890, 30.71973
213.7080, 41.22998
214.9280, 34.16235
216.1470, 12.81689
217.3660, 30.35620
218.5850, 14.24902
219.8030, 5.289795
221.0220, 20.79932
222.2400, 10.43286
223.4590, 36.34985
224.6770, 54.79175
225.8950, 6.803223
227.1120, 7.311768
228.3300, 56.22168
229.5480, 43.96729
230.7650, 48.31104
231.9820, 138.5674
233.1990, 50.41040
234.4160, 71.78955
235.6330, 92.33472
236.8490, 77.90869
238.0660, 92.79272
239.2820, 87.75024
240.4980, 93.63086
241.7140, 99.20459
242.9300, 96.64062
244.1460, 86.93530
245.3610, 26.72681
246.5770, 68.12158
247.7920, 33.63892
249.0070, 44.45435
250.2220, 51.25781
251.4370, 98.67163
252.6510, 110.5125
253.8660, 138.7644
255.0800, 150.2002
256.2940, 165.2217
257.5080, 174.7344
258.7220, 211.5986
259.9360, 278.4836
261.1490, 204.4021
262.3630, 304.9082
263.5760, 205.3274
264.7890, 216.9338
266.0020, 311.6311
267.2150, 273.8989
268.4270, 239.5547
269.6400, 228.1577
270.8520, 241.4319
272.0640, 189.3174
273.2760, 182.9771
274.4880, 136.1707
275.7000, 127.0889
276.9120, 153.2397
278.1230, 114.2971
279.3340, 164.9197
280.5450, 130.6252
281.7560, 86.35132
282.9670, 201.0813
284.1780, 102.7991
285.3880, 73.49683
286.5980, 160.1663
287.8090, 129.8042
289.0190, 50.40796
290.2290, 142.9717
291.4380, 121.4954
292.6480, 127.9766
293.8570, 98.41528
295.0670, 76.80664
296.2760, 150.1550
297.4850, 167.4619
298.6930, 105.7268
299.9020, 174.9265
301.1110, 118.0789
302.3190, 144.1753
303.5270, 152.2278
304.7350, 115.2334
305.9430, 159.1853
307.1510, 137.0913
308.3580, 80.95215
309.5660, 107.6667
310.7730, 58.44141
311.9800, 121.1738
313.1870, 85.86377
314.3940, 105.5120
315.6010, 168.1162
316.8070, 68.67773
318.0130, 114.3459
319.2200, 39.77661
320.4260, 60.47559
321.6310, 86.17773
322.8370, 96.61426
324.0430, 85.87402
325.2480, 105.1025
326.4540, 43.52344
327.6590, 66.23730
328.8640, 40.77295
330.0680, 66.44336
331.2730, 87.30420
332.4780, 79.35645
333.6820, 106.9297
334.8860, 15.09717
336.0900, 35.81006
337.2940, 24.15430
338.4980, 45.51953
339.7010, 16.94629
340.9050, 135.4834
342.1080, 86.81152
343.3110, 64.00537
344.5140, 152.6274
345.7170, 137.6304
346.9200, 14.08301
348.1220, 154.0693
349.3240, 30.60449
350.5270, 25.53857
351.7290, 25.26709
352.9310, 81.09375
354.1320, 99.03369
355.3340, 100.7798
356.5350, 3.105469
357.7370, 70.72559
358.9380, 90.51562
360.1390, 18.28174
361.3400, 147.3062
362.5400, 0.9013670
363.7410, 41.89746
364.9410, 7.418457
366.1410, 55.21729
367.3410, 44.20215
368.5410, 48.30176
369.7410, 28.78223
370.9400, 29.44678
372.1400, 93.75537
373.3390, 88.97363
374.5380, 22.29932
375.7370, 19.01807
376.9360, 60.70312
378.1350, 29.28564
379.3330, 55.29883
380.5310, 17.74268
381.7300, 78.98633
382.9280, 56.74756
384.1260, 20.57617
385.3230, 126.2817
386.5210, 25.18848
387.7180, 96.96826
388.9160, 132.6577
390.1130, 49.05762
391.3100, 53.53027
392.5060, 136.9360
393.7030, 59.25537
394.9000, 80.63916
396.0960, 54.14111
397.2920, 55.59326
398.4880, 8.009277
399.6840, 49.33447
400.8800, 33.48438
402.0750, 69.53223
403.2710, 76.44873
404.4660, 29.25342
405.6610, 81.94238
406.8560, 73.06934
408.0510, 129.8262
409.2450, 105.8672
410.4400, 94.89404
411.6340, 36.88721
412.8280, 62.99756
414.0220, 23.39160
415.2160, 109.1304
416.4100, 96.96582
417.6030, 141.9712
418.7970, 276.5674
419.9900, 185.0024
421.1830, 206.4624
422.3760, 314.5210
423.5690, 236.5454
424.7610, 284.8828
425.9540, 349.1411
427.1460, 341.6992
428.3380, 321.3184
429.5300, 452.3120
430.7220, 451.5620
431.9140, 344.6885
433.1050, 429.4321
434.2970, 398.5137
435.4880, 523.4521
436.6790, 493.3657
437.8700, 493.1035
439.0610, 504.6997
440.2510, 564.5493
441.4420, 571.3774
442.6320, 598.9380
443.8220, 593.6729
445.0120, 621.1841
446.2020, 694.7573
447.3910, 643.3115
448.5810, 695.6592
449.7700, 617.1602
450.9600, 530.4922
452.1490, 558.5376
453.3370, 520.6421
454.5260, 424.6709
455.7150, 381.7275
456.9030, 424.6626
458.0910, 288.7617
459.2800, 333.0801
460.4670, 212.7163
461.6550, 320.5771
462.8430, 388.9829
464.0300, 162.4375
465.2180, 182.9473
466.4050, 166.4458
467.5920, 220.8472
468.7790, 185.2793
469.9650, 96.39941
471.1520, 108.5566
472.3380, 83.02051
473.5250, 35.58838
474.7110, 116.5610
475.8970, 69.96875
477.0820, 144.6885
478.2680, 35.25928
479.4540, 68.59131
480.6390, 100.0347
481.8240, 51.97949
483.0090, 25.54980
484.1940, 83.03467
485.3780, 66.35596
486.5630, 13.64160
487.7470, 106.2827
488.9320, 25.91748
490.1160, 3.174805
491.3000, 10.62891
492.4830, 103.2783
493.6670, 94.57227
494.8500, 78.28857
496.0340, 43.93555
497.2170, 47.06299
498.4000, 74.40771
499.5820, 34.02197
500.7650, 60.47998
501.9480, 49.01172
503.1300, 2.372559
504.3120, 64.83594
505.4940, 134.5391
506.6760, 27.02930
507.8580, 59.29590
509.0390, 13.17432
510.2210, 26.75293
511.4020, 48.79688
512.5830, 31.92285
513.7640, 13.86279
514.9450, 66.89160
516.1250, 112.1934
517.3060, 12.55322
518.4860, 42.27637
519.6660, 55.35400
520.8460, 58.74854
522.0260, 76.58154
523.2060, 103.2803
524.3850, 98.41650
525.5650, 67.39355
526.7440, 89.93311
527.9230, 31.89600
529.1020, 50.17871
530.2810, 51.31250
531.4590, 52.20020
532.6380, 65.09814
533.8160, 34.91211
534.9940, 53.14355
536.1720, 31.78955
537.3500, 30.84570
538.5270, 35.99072
539.7050, 37.09521
540.8820, 44.25928
542.0590, 69.59326
543.2360, 80.82080
544.4130, 102.5039
545.5900, 118.5781
546.7660, 135.4434
547.9430, 20.89795
549.1190, 12.30811
550.2950, 20.92432
551.4710, 14.03662
552.6470, 10.72559
553.8220, 19.78223
554.9980, 12.05273
556.1730, 17.15430
557.3480, 6.400391
558.5230, 4.917969
559.6980, 41.58057
560.8730, 60.91406
562.0470, 57.07471
563.2220, 118.3022
564.3960, 143.5684
565.5700, 47.36084
566.7440, 10.00586
567.9170, 223.0781
569.0910, 155.8115
570.2640, 362.1919
571.4380, 288.9038
572.6110, 436.2275
573.7840, 360.9609
574.9570, 264.4805
576.1290, 508.9546
577.3020, 553.1138
578.4740, 693.2642
579.6460, 803.5547
580.8180, 862.4316
581.9900, 808.4902
583.1620, 698.6108
584.3330, 516.8359
585.5040, 451.9854
586.6760, 314.8999
587.8470, 408.2793
589.0180, 401.0850
590.1880, 264.3018
591.3590, 389.5181
592.5290, 400.9033
593.7000, 409.1270
594.8700, 227.4023
596.0400, 274.7217
597.2090, 253.4878
598.3790, 222.0088
599.5490, 220.7119
600.7180, 292.2144
601.8870, 252.5933
603.0560, 345.1758
604.2250, 344.2427
605.3940, 519.1333
606.5620, 593.5430
607.7300, 524.9346
608.8990, 693.1240
610.0670, 437.5791
611.2350, 466.1807
612.4020, 452.0479
613.5700, 365.7168
614.7370, 386.1152
615.9050, 292.3252
617.0720, 314.0293
618.2390, 234.0010
619.4060, 104.9570
620.5720, 289.9014
621.7390, 185.9717
622.9050, 190.2275
624.0710, 119.5391
625.2370, 96.58789
626.4030, 68.53809
627.5690, 57.73145
628.7340, 31.07520
629.9000, 9.125000
631.0650, 38.46094
632.2300, 35.14551
633.3950, 159.2324
634.5600, 44.33301
635.7240, 124.1934
636.8890, 54.93262
638.0530, 146.6064
639.2170, 96.82422
640.3810, 108.1631
641.5450, 96.29395
642.7080, 255.5508
643.8720, 140.4863
645.0350, 230.1602
646.1980, 242.6953
647.3610, 153.4512
648.5240, 138.3291
649.6870, 148.0908
650.8490, 76.52344
652.0120, 145.4785
653.1740, 178.4258
654.3360, 113.2188
655.4980, 203.0488
656.6600, 53.16602
657.8210, 218.2480
658.9830, 233.5811
660.1440, 57.69238
661.3050, 244.8848
662.4660, 184.6211
663.6270, 142.0332
664.7870, 144.4766
665.9480, 173.8291
667.1080, 190.0537
668.2680, 218.6689
669.4280, 91.72070
670.5880, 46.55664
671.7480, 70.88379
672.9070, 81.68652
674.0670, 50.68359
675.2260, 99.00195
676.3850, 128.0469
677.5440, 113.8984
678.7030, 131.0488
679.8610, 19.68848
681.0200, 90.64648
682.1780, 77.52246
683.3360, 0.2324220
684.4940, 137.1777
685.6520, 113.7686
686.8090, 23.67871
687.9670, 158.2715
689.1240, 93.38672
690.2810, 83.91211
691.4380, 158.9268
692.5950, 128.8516
693.7520, 52.77051
694.9080, 148.9746
696.0650, 2.684570
697.2210, 81.75391
698.3770, 162.2070
699.5330, 46.50293
700.6880, 21.86133
701.8440, 251.4307
702.9990, 21.90332
704.1550, 117.9287
705.3100, 140.3232
706.4650, 22.61621
707.6190, 90.58105
708.7740, 169.2051
709.9290, 83.25977
711.0830, 162.8018
712.2370, 55.28809
713.3910, 93.90723
714.5450, 91.34863
715.6980, 153.1621
716.8520, 149.0303
718.0050, 102.2383
719.1580, 188.3066
720.3110, 130.4072
721.4640, 101.7305
722.6170, 63.20215
723.7700, 67.71680
724.9220, 10.63867
726.0740, 225.0020
727.2260, 108.9180
728.3780, 235.8877
729.5300, 221.8438
730.6810, 167.9355
731.8330, 192.7354
732.9840, 166.2812
734.1350, 141.8418
735.2860, 21.49316
736.4370, 65.99219
737.5880, 10.55176
738.7380, 41.55176
739.8880, 18.96289
741.0390, 4.092773
742.1890, 104.3271
743.3380, 42.49512
744.4880, 165.5889
745.6380, 138.4170
746.7870, 2.454102
747.9360, 115.4434
749.0850, 216.3936
750.2340, 151.5029
751.3830, 159.3066
752.5310, 160.6719
753.6800, 36.79785
754.8280, 95.31152
755.9760, 91.48145
757.1240, 0.5634770
758.2720, 230.6191
759.4190, 217.9180
760.5670, 110.0986
761.7140, 49.73438
762.8610, 34.81934
764.0080, 153.6377
765.1550, 129.3535
766.3020, 65.69629
767.4480, 34.27441
768.5950, 23.55664
769.7410, 121.7539
770.8870, 18.37500
772.0330, 31.32422
773.1780, 56.09375
774.3240, 275.5322
775.4690, 38.24805
776.6140, 158.4766
777.7590, 74.42676
778.9040, 134.3340
780.0490, 75.96094
781.1940, 44.59668
782.3380, 200.3916
783.4820, 50.21484
784.6260, 114.0771
785.7700, 101.0264
786.9140, 54.02246
788.0580, 151.1182
789.2010, 158.1318
790.3450, 15.49707
791.4880, 16.28320
792.6310, 38.95020
793.7730, 14.02441
794.9160, 132.7822
796.0590, 92.03809
797.2010, 156.7646
798.3430, 123.2959
799.4850, 12.15234
800.6270, 86.09961
801.7690, 57.88281
802.9100, 31.64844
804.0520, 67.94336
805.1930, 138.1543
806.3340, 274.2334
807.4750, 96.68359
808.6160, 135.9766
809.7560, 43.83105
810.8970, 187.5488
812.0370, 109.0400
813.1770, 134.6328
814.3170, 161.2490
815.4570, 68.70996
816.5960, 188.1426
817.7360, 93.01660
818.8750, 119.0957
820.0140, 151.0254
821.1530, 96.53223
822.2920, 178.5244
823.4310, 100.3223
824.5690, 41.64648
825.7070, 5.436523
826.8460, 27.32031
827.9840, 115.1660
829.1220, 114.6895
830.2590, 82.99121
831.3970, 105.8867
832.5340, 30.90527
833.6710, 148.5146
834.8080, 56.76562
835.9450, 33.85254
837.0820, 162.4502
838.2190, 87.55371
839.3550, 106.5166
840.4910, 67.41016
841.6270, 54.87988
842.7630, 260.8486
843.8990, 53.53223
845.0350, 58.60547
846.1700, 43.60938
847.3060, 134.7148
848.4410, 21.14648
849.5760, 75.94922
850.7100, 98.54492
851.8450, 229.4473
852.9800, 48.24512
854.1140, 96.30664
855.2480, 111.4121
856.3820, 336.4941
857.5160, 241.5225
858.6500, 199.1484
859.7830, 168.5986
860.9170, 117.1885
862.0500, 95.70801
863.1830, 249.2393
864.3160, 216.4980
865.4480, 195.5488
866.5810, 149.0752
867.7130, 199.2344
868.8460, 240.5566
869.9780, 173.1748
871.1100, 175.2910
872.2410, 171.8271
873.3730, 154.5771
874.5050, 165.7998
875.6360, 148.7637
876.7670, 174.4648
877.8980, 148.1797
879.0290, 142.7627
880.1590, 3.032227
881.2900, 182.8955
882.4200, 4.831055
883.5500, 103.0098
884.6800, 91.40234
885.8100, 42.96680
886.9400, 87.71191
888.0690, 76.32422
889.1990, 66.17969
890.3280, 95.28320
891.4570, 156.2617
892.5860, 142.1348
893.7140, 174.1660
894.8430, 59.92188
895.9710, 213.6504
897.1000, 86.83008
898.2280, 125.6758
899.3560, 143.3574
900.4830, 3.562500
901.6110, 0.9062500
902.7380, 69.79297
903.8660, 96.05664
904.9930, 124.6348
906.1200, 1.554688
907.2460, 79.29883
908.3730, 163.4688
909.5000, 7.248047
910.6260, 144.1523
911.7520, 90.66211
912.8780, 86.80469
914.0040, 86.12695
915.1290, 119.3379
916.2550, 37.12305
917.3800, 78.23438
918.5050, 139.1309
919.6300, 119.0605
920.7550, 225.4785
921.8800, 176.0469
923.0040, 139.0840
924.1290, 68.04883
925.2530, 7.855469
926.3770, 4.880859
927.5010, 24.40625
928.6250, 4.523438
929.7480, 27.34766
930.8720, 39.37891
931.9950, 33.27734
933.1180, 221.2578
934.2410, 307.6680
935.3640, 201.4980
936.4860, 3.435547
937.6090, 157.1621
938.7310, 274.3203
939.8530, 286.9355
940.9750, 323.8164
942.0970, 325.7109
943.2180, 455.0977
944.3400, 400.6836
945.4610, 423.2891
946.5820, 497.7188
947.7030, 664.4219
948.8240, 639.4180
949.9450, 820.0957
951.0650, 1002.873
952.1860, 1366.475
953.3060, 1857.178
954.4260, 2323.924
955.5460, 3360.533
956.6650, 4118.762
957.7850, 5549.762
958.9040, 6764.002
960.0230, 8207.900
961.1420, 10147.34
962.2610, 12198.42
963.3800, 14237.05
964.4990, 14091.86
965.6170, 12725.98
966.7350, 9927.412
967.8530, 7683.055
968.9710, 5561.217
970.0890, 4537.246
971.2070, 3378.408
972.3240, 2450.916
973.4410, 2088.273
974.5580, 1694.361
975.6750, 1245.924
976.7920, 876.1074
977.9090, 463.7324
979.0250, 614.2598
980.1410, 449.1309
981.2580, 270.0566
982.3740, 353.0020
983.4890, 224.9473
984.6050, 118.9883
985.7200, 257.1738
986.8360, 199.8867
987.9510, 99.56641
989.0660, 2.833984
990.1810, 24.09375
991.2950, 3.414063
992.4100, 16.10742
993.5240, 159.8477
994.6390, 106.5605
995.7530, 141.2246
996.8660, 228.6855
997.9800, 153.9609
999.0940, 78.06445
1000.207, 156.8887
1001.320, 183.5156
1002.433, 155.4551
1003.546, 273.5781
1004.659, 105.0566
1005.772, 337.9590
1006.884, 303.1484
1007.996, 53.18164
1009.108, 77.54883
1010.220, 199.6992
1011.332, 147.9883
1012.444, 264.0508
1013.555, 267.6660
1014.666, 189.0762
1015.777, 77.83984
1016.888, 220.2910
1017.999, 188.4043
1019.110, 42.16602
1020.220, 327.2188
1021.331, 235.8770
1022.441, 126.0254
1023.551, 290.6992
1024.661, 353.6074
1025.770, 349.9668
1026.880, 541.9336
1027.989, 461.2539
1029.098, 444.9512
1030.207, 609.8281
1031.316, 485.6855
1032.425, 629.1562
1033.533, 462.8223
1034.642, 299.0703
1035.750, 347.2461
1036.858, 445.1992
1037.966, 330.3379
1039.073, 323.6172
1040.181, 210.3652
1041.288, 367.0820
1042.396, 342.1387
1043.503, 267.2559
1044.610, 219.3086
1045.716, 163.8828
1046.823, 251.1035
1047.929, 314.1992
1049.036, 333.9473
1050.142, 445.2285
1051.248, 381.9570
1052.353, 526.3242
1053.459, 360.3086
1054.564, 516.5312
1055.670, 440.6289
1056.775, 457.2695
1057.880, 388.5527
1058.985, 409.1016
1060.089, 596.8535
1061.194, 481.8223
1062.298, 415.6895
1063.402, 245.1621
1064.506, 341.5508
1065.610, 325.4316
1066.713, 299.8418
1067.817, 286.1855
1068.920, 328.5938
1070.023, 323.8340
1071.126, 409.5781
1072.229, 312.9531
1073.332, 298.1270
1074.435, 168.9863
1075.537, 328.8203
1076.639, 304.3320
1077.741, 428.2832
1078.843, 349.2285
1079.945, 485.0352
1081.046, 355.9355
1082.148, 198.5137
1083.249, 299.0586
1084.350, 200.1602
1085.451, 8.550781
1086.551, 83.86719
1087.652, 105.1113
1088.752, 17.28320
1089.853, 224.3809
1090.953, 91.39258
1092.053, 92.68945
1093.152, 103.7695
1094.252, 47.46289
1095.351, 140.1602
1096.451, 96.69531
1097.550, 186.1523
1098.649, 114.5254
1099.748, 29.56250
1100.846, 34.99219
1101.945, 115.0723
1103.043, 30.32227
1104.141, 282.2441
1105.239, 222.0840
1106.337, 282.8691
1107.434, 17.52344
1108.532, 65.92188
1109.629, 108.4961
1110.726, 277.8105
1111.823, 65.95898
1112.920, 116.1680
1114.017, 191.5391
1115.113, 161.1719
1116.210, 302.1836
1117.306, 265.0840
1118.402, 60.66406
1119.498, 197.3320
1120.593, 171.5176
1121.689, 28.76367
1122.784, 109.2129
1123.879, 286.2988
1124.974, 138.4629
1126.069, 245.3809
1127.164, 181.3594
1128.259, 185.1211
1129.353, 122.2930
1130.447, 15.92578
1131.541, 366.1172
1132.635, 118.4023
1133.729, 57.96094
1134.822, 265.2480
1135.916, 328.8750
1137.009, 204.7266
1138.102, 110.4785
1139.195, 109.0137
1140.288, 62.23438
1141.380, 261.7441
1142.473, 231.5879
1143.565, 235.0957
1144.657, 313.0195
1145.749, 336.8926
1146.841, 270.3750
1147.932, 255.6934
1149.024, 303.1738
1150.115, 351.4414
1151.206, 199.7930
1152.297, 323.5312
1153.388, 32.47852
1154.479, 249.7812
1155.569, 199.5410
1156.659, 129.3848
1157.750, 39.49219
1158.839, 124.8867
1159.929, 143.1875
1161.019, 237.3906
1162.108, 53.50391
1163.198, 213.0762
1164.287, 167.5117
1165.376, 51.60938
1166.465, 281.6250
1167.553, 210.2168
1168.642, 175.7734
1169.730, 155.0469
1170.818, 5.847656
1171.906, 48.63477
1172.994, 44.63477
1174.082, 90.73828
1175.170, 147.8516
1176.257, 191.6387
1177.344, 253.5898
1178.431, 71.40625
1179.518, 125.7676
1180.605, 116.4297
1181.691, 294.4199
1182.778, 186.5176
1183.864, 241.7188
1184.950, 76.81250
1186.036, 237.4570
1187.122, 83.58008
1188.207, 80.06641
1189.292, 168.2148
1190.378, 32.49609
1191.463, 208.8398
1192.548, 369.3828
1193.632, 294.4746
1194.717, 321.5117
1195.801, 297.3203
1196.886, 59.80859
1197.970, 502.5586
1199.054, 359.4961
1200.137, 148.0312
1201.221, 254.8105
1202.305, 147.8906
1203.388, 29.55859
1204.471, 338.4023
1205.554, 266.1719
1206.637, 178.8477
1207.719, 348.3359
1208.802, 290.1016
1209.884, 314.8828
1210.966, 200.9961
1212.048, 48.07422
1213.130, 361.7734
1214.212, 92.82812
1215.293, 282.2812
1216.374, 295.1172
1217.456, 239.9648
1218.536, 261.7969
1219.617, 379.6016
1220.698, 318.5898
1221.778, 5.742188
1222.859, 175.5547
1223.939, 240.6445
1225.019, 307.3125
1226.099, 436.6797
1227.178, 225.8438
1228.258, 345.2969
1229.337, 41.25000
1230.417, 140.9766
1231.496, 382.3398
1232.574, 139.7852
1233.653, 389.4609
1234.732, 238.2695
1235.810, 182.5664
1236.888, 205.6289
1237.966, 394.5898
1239.044, 336.2188
1240.122, 422.4531
1241.199, 345.6055
1242.277, 326.0039
1243.354, 231.8164
1244.431, 332.1328
1245.508, 340.9492
1246.585, 367.3828
1247.661, 395.2305
1248.738, 325.5039
1249.814, 383.1367
1250.890, 385.5742
1251.966, 337.9766
1253.042, 203.0664
1254.117, 265.4297
1255.193, 3.019531
1256.268, 71.68750
1257.343, 160.2109
1258.418, 8.898438
1259.493, 159.4570
1260.567, 203.9766
1261.642, 421.3477
1262.716, 138.1367
1263.790, 294.9141
1264.864, 235.7695
1265.938, 290.7148
1267.011, 254.7422
1268.085, 500.7734
1269.158, 173.9531
1270.231, 86.30078
1271.304, 125.3203
1272.377, 403.5547
1273.450, 158.1367
1274.522, 247.6797
1275.594, 181.0938
1276.666, 16.71484
1277.738, 319.1289
1278.810, 314.3164
1279.882, 346.3594
1280.953, 255.8086
1282.025, 170.9648
1283.096, 65.37109
1284.167, 150.4453
1285.238, 0.0000000E+00
##END=



