##NAMES=Fluorapatite
##RRUFFID=R050192
##IDEAL CHEMISTRY=Ca_5_(PO_4_)_3_F
##LOCALITY=Fulford, Eagle County, Colorado, USA
##OWNER=RRUFF
##SOURCE=Dave Bunk Minerals
##DESCRIPTION=Pale green hexagonal prism
##STATUS=The identification of this mineral has been confirmed by X-ray diffraction and chemical analysis
##URL=rruff.info/R050192
##MEASURED CHEMISTRY=Ca_5.00_(P_1.00_O_4_)_3_(F_0.86_Cl_0.13_)
##PIN_ID=L00428
##ORIENTATION=Laser parallel to a* (1 0 0). Fiducial mark perpendicular to laser is parallel to -c [0 0 -1]
103.3490, 0.0000000E+00
104.5820, 0.7487790
105.8150, 41.88379
107.0470, 44.22095
108.2800, 100.2917
109.5120, 38.91211
110.7440, 106.7756
111.9760, 147.0654
113.2080, 93.60132
114.4400, 68.87329
115.6710, 101.7676
116.9030, 87.19263
118.1340, 49.07422
119.3650, 111.3523
120.5960, 9.020020
121.8270, 69.92358
123.0580, 80.15503
124.2880, 72.64697
125.5190, 92.37305
126.7490, 45.30908
127.9790, 45.43359
129.2090, 27.72729
130.4390, 81.17163
131.6680, 95.75171
132.8980, 80.45679
134.1270, 152.2815
135.3560, 88.21826
136.5850, 90.26514
137.8140, 173.4253
139.0430, 97.70581
140.2710, 49.10156
141.5000, 108.6008
142.7280, 88.19092
143.9560, 75.86035
145.1840, 67.59937
146.4120, 78.40015
147.6390, 61.25488
148.8670, 128.1570
150.0940, 134.1008
151.3210, 111.0813
152.5490, 93.09326
153.7750, 145.1331
155.0020, 162.1968
156.2290, 150.2812
157.4550, 177.3826
158.6810, 225.4985
159.9080, 232.6450
161.1340, 191.8223
162.3590, 229.0510
163.5850, 110.3503
164.8110, 118.6746
166.0360, 112.0259
167.2610, 99.44458
168.4860, 76.93335
169.7110, 108.4995
170.9360, 95.53052
172.1610, 104.0044
173.3850, 107.9902
174.6100, 109.9885
175.8340, 121.0347
177.0580, 177.1001
178.2820, 121.1313
179.5050, 114.1348
180.7290, 168.1128
181.9520, 192.0630
183.1760, 168.9846
184.3990, 132.8809
185.6220, 186.7593
186.8450, 213.6223
188.0670, 160.4604
189.2900, 177.2744
190.5120, 172.0657
191.7340, 237.8345
192.9560, 161.5818
194.1780, 284.3081
195.4000, 301.0134
196.6220, 296.6985
197.8430, 363.3630
199.0640, 341.0076
200.2860, 422.6318
201.5070, 467.2361
202.7270, 515.8198
203.9480, 606.3835
205.1690, 658.9265
206.3890, 670.4497
207.6090, 728.9519
208.8290, 804.4331
210.0490, 844.8936
211.2690, 806.3325
212.4890, 837.7500
213.7080, 810.1455
214.9280, 739.1199
216.1470, 541.0415
217.3660, 534.7349
218.5850, 457.8469
219.8030, 321.3491
221.0220, 373.7466
222.2400, 307.2493
223.4590, 295.3796
224.6770, 259.2410
225.8950, 225.9995
227.1120, 214.0432
228.3300, 196.2310
229.5480, 240.0300
230.7650, 256.1953
231.9820, 334.4316
233.1990, 285.5923
234.4160, 292.8252
235.6330, 266.2112
236.8490, 224.0266
238.0660, 269.3176
239.2820, 298.6909
240.4980, 165.2410
241.7140, 198.4250
242.9300, 197.5935
244.1460, 169.6416
245.3610, 146.6052
246.5770, 120.7283
247.7920, 93.48901
249.0070, 196.0376
250.2220, 99.41846
251.4370, 52.30078
252.6510, 131.5051
253.8660, 84.73315
255.0800, 68.96387
256.2940, 96.22510
257.5080, 106.4014
258.7220, 90.80908
259.9360, 106.7837
261.1490, 107.5410
262.3630, 113.5908
263.5760, 123.6279
264.7890, 135.9727
266.0020, 153.8755
267.2150, 99.67139
268.4270, 156.1030
269.6400, 120.1421
270.8520, 82.12744
272.0640, 172.1145
273.2760, 128.1006
274.4880, 140.0842
275.7000, 199.0642
276.9120, 180.0405
278.1230, 205.3762
279.3340, 197.9797
280.5450, 215.9397
281.7560, 244.8923
282.9670, 240.8364
284.1780, 292.7712
285.3880, 217.6973
286.5980, 268.6113
287.8090, 293.5132
289.0190, 248.4021
290.2290, 297.2776
291.4380, 254.1389
292.6480, 349.9858
293.8570, 347.8179
295.0670, 330.6350
296.2760, 404.4363
297.4850, 347.2217
298.6930, 377.3779
299.9020, 361.7437
301.1110, 388.4795
302.3190, 420.1980
303.5270, 423.8994
304.7350, 417.1904
305.9430, 420.2498
307.1510, 379.8979
308.3580, 386.5273
309.5660, 377.1379
310.7730, 274.7290
311.9800, 331.3008
313.1870, 264.8525
314.3940, 189.3835
315.6010, 307.8938
316.8070, 260.3823
318.0130, 162.8481
319.2200, 138.2910
320.4260, 267.7102
321.6310, 133.1050
322.8370, 126.4761
324.0430, 150.8228
325.2480, 5.236572
326.4540, 102.5327
327.6590, 25.06250
328.8640, 72.57007
330.0680, 97.00928
331.2730, 33.45117
332.4780, 56.87549
333.6820, 10.18921
334.8860, 3.605713
336.0900, 1.630615
337.2940, 51.25952
338.4980, 15.55347
339.7010, 37.20996
340.9050, 42.84253
342.1080, 32.14844
343.3110, 67.93872
344.5140, 59.03979
345.7170, 80.03564
346.9200, 67.94775
348.1220, 42.32104
349.3240, 47.83618
350.5270, 38.01318
351.7290, 23.57935
352.9310, 14.56616
354.1320, 3.204346
355.3340, 1.717773
356.5350, 17.17383
357.7370, 30.19727
358.9380, 12.98340
360.1390, 32.57080
361.3400, 21.06738
362.5400, 13.33252
363.7410, 43.35693
364.9410, 20.86035
366.1410, 6.132324
367.3410, 23.89844
368.5410, 27.01514
369.7410, 20.92334
370.9400, 36.15820
372.1400, 10.50586
373.3390, 76.01660
374.5380, 22.02979
375.7370, 67.38574
376.9360, 33.62695
378.1350, 21.83350
379.3330, 14.87256
380.5310, 15.63135
381.7300, 27.37451
382.9280, 16.38037
384.1260, 17.31152
385.3230, 2.916992
386.5210, 6.503418
387.7180, 0.1455080
388.9160, 6.289551
390.1130, 1.670898
391.3100, 1.018555
392.5060, 30.97900
393.7030, 42.24756
394.9000, 56.40771
396.0960, 62.45996
397.2920, 71.89453
398.4880, 82.67969
399.6840, 84.54492
400.8800, 118.2769
402.0750, 127.1558
403.2710, 172.6855
404.4660, 156.7856
405.6610, 193.5454
406.8560, 176.2974
408.0510, 105.9951
409.2450, 148.7729
410.4400, 49.27539
411.6340, 93.97656
412.8280, 189.8867
414.0220, 312.7515
415.2160, 246.4155
416.4100, 338.6870
417.6030, 302.0098
418.7970, 537.9756
419.9900, 436.2881
421.1830, 605.6055
422.3760, 743.6396
423.5690, 822.6201
424.7610, 952.3726
425.9540, 967.3633
427.1460, 1117.082
428.3380, 1206.953
429.5300, 1228.382
430.7220, 1358.800
431.9140, 1302.111
433.1050, 1298.389
434.2970, 1064.630
435.4880, 1084.847
436.6790, 863.0273
437.8700, 824.1714
439.0610, 802.2793
440.2510, 766.3516
441.4420, 740.3877
442.6320, 744.4844
443.8220, 820.3501
445.0120, 768.2773
446.2020, 812.1680
447.3910, 843.0205
448.5810, 812.8379
449.7700, 830.6216
450.9600, 797.3682
452.1490, 820.0776
453.3370, 898.7500
454.5260, 833.3843
455.7150, 805.9819
456.9030, 672.5405
458.0910, 594.0610
459.2800, 563.5469
460.4670, 555.9932
461.6550, 509.4014
462.8430, 501.7700
464.0300, 447.1006
465.2180, 333.3931
466.4050, 234.6465
467.5920, 211.5664
468.7790, 236.5776
469.9650, 172.6562
471.1520, 172.3633
472.3380, 183.2222
473.5250, 177.1362
474.7110, 175.5757
475.8970, 196.3911
477.0820, 165.8311
478.2680, 178.1665
479.4540, 178.5615
480.6390, 203.1074
481.8240, 57.57324
483.0090, 82.88135
484.1940, 155.4824
485.3780, 33.69922
486.5630, 143.8120
487.7470, 26.55566
488.9320, 16.29639
490.1160, 111.9448
491.3000, 72.51025
492.4830, 7.301758
493.6670, 30.91895
494.8500, 12.50684
496.0340, 119.0679
497.2170, 50.70947
498.4000, 30.50342
499.5820, 63.31396
500.7650, 7.395996
501.9480, 36.62646
503.1300, 46.42578
504.3120, 19.57666
505.4940, 110.0264
506.6760, 10.87549
507.8580, 43.35693
509.0390, 79.06299
510.2210, 57.94238
511.4020, 44.72803
512.5830, 36.38574
513.7640, 40.87744
514.9450, 79.54053
516.1250, 41.09375
517.3060, 101.4053
518.4860, 56.61914
519.6660, 33.15137
520.8460, 42.11035
522.0260, 17.64209
523.2060, 55.87744
524.3850, 5.498047
525.5650, 89.34326
526.7440, 63.93848
527.9230, 36.53271
529.1020, 12.72314
530.2810, 9.970215
531.4590, 42.32910
532.6380, 15.51514
533.8160, 96.12695
534.9940, 13.95801
536.1720, 32.44092
537.3500, 50.84766
538.5270, 2.767090
539.7050, 40.64404
540.8820, 133.3926
542.0590, 42.20996
543.2360, 55.70898
544.4130, 82.57715
545.5900, 37.89160
546.7660, 62.22314
547.9430, 56.67871
549.1190, 62.33105
550.2950, 35.35889
551.4710, 11.23682
552.6470, 37.79248
553.8220, 1.220215
554.9980, 0.9711910
556.1730, 23.17871
557.3480, 109.7920
558.5230, 90.07275
559.6980, 168.8950
560.8730, 80.13281
562.0470, 71.34277
563.2220, 131.3833
564.3960, 136.2168
565.5700, 138.5703
566.7440, 162.8237
567.9170, 175.1411
569.0910, 130.2236
570.2640, 228.0986
571.4380, 222.7666
572.6110, 270.6235
573.7840, 441.3857
574.9570, 276.7271
576.1290, 349.7124
577.3020, 652.8984
578.4740, 580.2075
579.6460, 699.5562
580.8180, 964.6987
581.9900, 1129.022
583.1620, 1261.140
584.3330, 1488.126
585.5040, 1747.459
586.6760, 2135.506
587.8470, 2366.342
589.0180, 2895.408
590.1880, 3074.274
591.3590, 3290.185
592.5290, 3060.835
593.7000, 2771.710
594.8700, 2072.252
596.0400, 1352.145
597.2090, 1086.578
598.3790, 955.9775
599.5490, 751.1685
600.7180, 814.3066
601.8870, 684.7900
603.0560, 778.8662
604.2250, 671.4268
605.3940, 856.6782
606.5620, 935.8066
607.7300, 1007.125
608.8990, 945.1421
610.0670, 939.2754
611.2350, 764.7046
612.4020, 555.3276
613.5700, 472.8252
614.7370, 391.3535
615.9050, 348.0078
617.0720, 246.5757
618.2390, 276.6001
619.4060, 204.2832
620.5720, 229.3770
621.7390, 199.7744
622.9050, 249.6572
624.0710, 173.2197
625.2370, 243.5054
626.4030, 52.81396
627.5690, 120.8101
628.7340, 130.1504
629.9000, 126.8828
631.0650, 109.2427
632.2300, 48.97998
633.3950, 66.22803
634.5600, 46.75537
635.7240, 30.27490
636.8890, 143.5879
638.0530, 115.2539
639.2170, 103.1211
640.3810, 63.07617
641.5450, 152.4702
642.7080, 80.01611
643.8720, 138.7178
645.0350, 135.3843
646.1980, 35.35742
647.3610, 181.3691
648.5240, 139.4912
649.6870, 251.1060
650.8490, 187.4927
652.0120, 55.58594
653.1740, 113.8140
654.3360, 147.2046
655.4980, 80.55176
656.6600, 64.12256
657.8210, 110.3862
658.9830, 48.36572
660.1440, 109.4419
661.3050, 173.5532
662.4660, 36.39893
663.6270, 169.7119
664.7870, 84.95264
665.9480, 134.9897
667.1080, 155.8643
668.2680, 28.60645
669.4280, 137.8682
670.5880, 111.9727
671.7480, 16.38623
672.9070, 139.3364
674.0670, 10.02734
675.2260, 92.28564
676.3850, 111.9062
677.5440, 111.1533
678.7030, 101.0835
679.8610, 18.55566
681.0200, 92.32812
682.1780, 4.702148
683.3360, 2.917969
684.4940, 153.2666
685.6520, 120.8076
686.8090, 115.4521
687.9670, 38.78125
689.1240, 105.1719
690.2810, 45.60156
691.4380, 20.32617
692.5950, 62.80273
693.7520, 82.98926
694.9080, 107.9121
696.0650, 3.464844
697.2210, 52.64062
698.3770, 14.41113
699.5330, 26.08594
700.6880, 34.74512
701.8440, 63.36133
702.9990, 101.1602
704.1550, 7.005859
705.3100, 216.7754
706.4650, 60.32520
707.6190, 124.7500
708.7740, 33.86328
709.9290, 83.70703
711.0830, 26.93555
712.2370, 38.05273
713.3910, 127.9268
714.5450, 48.90430
715.6980, 143.0967
716.8520, 102.5850
718.0050, 81.39648
719.1580, 118.9229
720.3110, 63.93652
721.4640, 101.6934
722.6170, 120.7090
723.7700, 26.22559
724.9220, 82.37695
726.0740, 120.9668
727.2260, 54.43555
728.3780, 19.92090
729.5300, 68.20020
730.6810, 118.3652
731.8330, 52.48730
732.9840, 120.7148
734.1350, 24.74023
735.2860, 123.1064
736.4370, 119.1992
737.5880, 12.66016
738.7380, 158.0166
739.8880, 70.55566
741.0390, 161.4893
742.1890, 34.92773
743.3380, 102.8525
744.4880, 121.1338
745.6380, 64.14648
746.7870, 102.7773
747.9360, 85.33105
749.0850, 179.5518
750.2340, 120.9961
751.3830, 149.1992
752.5310, 123.5303
753.6800, 90.21777
754.8280, 119.1553
755.9760, 205.7090
757.1240, 48.65820
758.2720, 177.3447
759.4190, 117.2686
760.5670, 87.75293
761.7140, 177.7500
762.8610, 71.78027
764.0080, 173.5850
765.1550, 105.0361
766.3020, 130.0029
767.4480, 226.5312
768.5950, 185.9658
769.7410, 41.94141
770.8870, 219.7031
772.0330, 22.03516
773.1780, 180.3838
774.3240, 151.6729
775.4690, 2.967773
776.6140, 145.5430
777.7590, 146.7588
778.9040, 160.9033
780.0490, 151.5723
781.1940, 153.8369
782.3380, 132.6504
783.4820, 127.7588
784.6260, 155.0449
785.7700, 120.4150
786.9140, 146.6621
788.0580, 167.4980
789.2010, 215.5977
790.3450, 164.1699
791.4880, 116.2285
792.6310, 153.6748
793.7730, 46.87402
794.9160, 169.5127
796.0590, 187.5850
797.2010, 130.6914
798.3430, 119.8643
799.4850, 144.4961
800.6270, 54.96094
801.7690, 133.1953
802.9100, 124.2217
804.0520, 129.7246
805.1930, 158.0176
806.3340, 149.4844
807.4750, 204.3271
808.6160, 148.9658
809.7560, 4.107422
810.8970, 105.6592
812.0370, 109.5684
813.1770, 263.7236
814.3170, 115.8662
815.4570, 74.90625
816.5960, 256.8066
817.7360, 260.2656
818.8750, 159.9385
820.0140, 144.0557
821.1530, 57.11133
822.2920, 148.7607
823.4310, 131.1768
824.5690, 183.4717
825.7070, 156.3477
826.8460, 102.4053
827.9840, 72.11523
829.1220, 57.62891
830.2590, 51.22266
831.3970, 98.80566
832.5340, 193.4062
833.6710, 145.4004
834.8080, 144.5850
835.9450, 113.0830
837.0820, 120.0732
838.2190, 143.8438
839.3550, 141.6934
840.4910, 119.6055
841.6270, 114.8545
842.7630, 177.0674
843.8990, 200.5303
845.0350, 8.169922
846.1700, 84.67285
847.3060, 238.5234
848.4410, 263.5605
849.5760, 63.38574
850.7100, 214.0820
851.8450, 17.75293
852.9800, 95.67969
854.1140, 238.8525
855.2480, 289.6143
856.3820, 154.8955
857.5160, 198.7627
858.6500, 358.3135
859.7830, 221.2568
860.9170, 291.2734
862.0500, 168.3174
863.1830, 179.8252
864.3160, 120.0186
865.4480, 223.1709
866.5810, 204.1494
867.7130, 195.7939
868.8460, 152.3027
869.9780, 183.4863
871.1100, 83.07422
872.2410, 130.0479
873.3730, 100.3623
874.5050, 190.1475
875.6360, 44.27539
876.7670, 35.81738
877.8980, 6.733398
879.0290, 37.93359
880.1590, 6.635742
881.2900, 29.53906
882.4200, 70.03809
883.5500, 69.66309
884.6800, 129.7637
885.8100, 60.77832
886.9400, 96.92969
888.0690, 56.20996
889.1990, 76.45410
890.3280, 102.7861
891.4570, 168.1240
892.5860, 63.87988
893.7140, 59.92285
894.8430, 34.42090
895.9710, 20.64062
897.1000, 15.45801
898.2280, 49.58594
899.3560, 10.81543
900.4830, 72.43555
901.6110, 8.289063
902.7380, 88.97168
903.8660, 88.53320
904.9930, 159.8213
906.1200, 128.4111
907.2460, 31.64648
908.3730, 10.95410
909.5000, 140.1836
910.6260, 6.650391
911.7520, 133.0811
912.8780, 12.37207
914.0040, 140.5674
915.1290, 85.72266
916.2550, 39.22266
917.3800, 95.70020
918.5050, 147.4648
919.6300, 30.11035
920.7550, 89.76367
921.8800, 70.16895
923.0040, 44.57812
924.1290, 100.9756
925.2530, 76.46973
926.3770, 36.64746
927.5010, 150.5186
928.6250, 120.4443
929.7480, 214.8242
930.8720, 134.6221
931.9950, 281.3955
933.1180, 303.8369
934.2410, 235.1416
935.3640, 354.4512
936.4860, 280.2979
937.6090, 223.3721
938.7310, 136.3115
939.8530, 423.1719
940.9750, 437.0615
942.0970, 519.8340
943.2180, 532.7441
944.3400, 721.0352
945.4610, 984.1201
946.5820, 1132.351
947.7030, 1346.513
948.8240, 1586.229
949.9450, 1688.235
951.0650, 2390.980
952.1860, 3025.395
953.3060, 4061.736
954.4260, 5330.568
955.5460, 7446.246
956.6650, 9841.477
957.7850, 12749.45
958.9040, 15749.15
960.0230, 19005.88
961.1420, 23220.54
962.2610, 28214.33
963.3800, 32514.21
964.4990, 33124.00
965.6170, 29771.79
966.7350, 23838.62
967.8530, 17803.04
968.9710, 12976.46
970.0890, 9954.070
971.2070, 7696.834
972.3240, 5916.047
973.4410, 4514.016
974.5580, 3413.145
975.6750, 2369.885
976.7920, 1883.389
977.9090, 1325.480
979.0250, 920.2754
980.1410, 738.2617
981.2580, 574.1016
982.3740, 443.1191
983.4890, 510.0996
984.6050, 340.8789
985.7200, 167.3652
986.8360, 262.0020
987.9510, 379.1230
989.0660, 207.5938
990.1810, 337.1367
991.2950, 119.1895
992.4100, 209.5625
993.5240, 113.7539
994.6390, 45.87500
995.7530, 244.7383
996.8660, 150.5527
997.9800, 136.6699
999.0940, 397.9766
1000.207, 52.05469
1001.320, 271.0898
1002.433, 217.0703
1003.546, 109.9102
1004.659, 122.3516
1005.772, 342.4453
1006.884, 232.5547
1007.996, 372.6816
1009.108, 160.4043
1010.220, 303.3125
1011.332, 107.8711
1012.444, 210.2832
1013.555, 359.4180
1014.666, 292.8301
1015.777, 155.5820
1016.888, 138.8047
1017.999, 222.5859
1019.110, 313.2402
1020.220, 197.5645
1021.331, 169.4727
1022.441, 344.0234
1023.551, 287.0820
1024.661, 267.5645
1025.770, 468.3457
1026.880, 456.0332
1027.989, 450.3418
1029.098, 653.7109
1030.207, 396.7500
1031.316, 656.4219
1032.425, 576.2266
1033.533, 693.5977
1034.642, 774.9922
1035.750, 702.5488
1036.858, 877.0977
1037.966, 1237.582
1039.073, 1465.029
1040.181, 1563.248
1041.288, 2041.236
1042.396, 2203.080
1043.503, 2448.102
1044.610, 2920.043
1045.716, 3403.527
1046.823, 3791.656
1047.929, 4446.270
1049.036, 4873.211
1050.142, 5110.281
1051.248, 5054.684
1052.353, 4406.980
1053.459, 3451.660
1054.564, 2803.910
1055.670, 2266.893
1056.775, 1833.977
1057.880, 1370.602
1058.985, 1143.803
1060.089, 1005.510
1061.194, 1124.580
1062.298, 794.7227
1063.402, 780.1426
1064.506, 949.0859
1065.610, 726.6328
1066.713, 798.4766
1067.817, 566.6113
1068.920, 892.3457
1070.023, 938.9590
1071.126, 944.2832
1072.229, 932.9707
1073.332, 1227.643
1074.435, 1520.645
1075.537, 1564.438
1076.639, 1745.471
1077.741, 2202.096
1078.843, 2089.059
1079.945, 2333.086
1081.046, 2012.434
1082.148, 1674.748
1083.249, 1412.938
1084.350, 1177.352
1085.451, 1037.916
1086.551, 806.7832
1087.652, 652.1094
1088.752, 534.7383
1089.853, 375.0879
1090.953, 397.6328
1092.053, 424.1035
1093.152, 389.4961
1094.252, 285.1406
1095.351, 208.3555
1096.451, 196.4844
1097.550, 166.5254
1098.649, 1.462891
1099.748, 129.2754
1100.846, 92.99414
1101.945, 217.5977
1103.043, 135.0020
1104.141, 244.2246
1105.239, 19.51953
1106.337, 241.5234
1107.434, 97.43359
1108.532, 4.759766
1109.629, 218.9336
1110.726, 97.51562
1111.823, 68.98438
1112.920, 149.3496
1114.017, 11.94922
1115.113, 219.0625
1116.210, 94.16797
1117.306, 41.44727
1118.402, 200.0684
1119.498, 45.89062
1120.593, 75.90039
1121.689, 208.7285
1122.784, 167.8105
1123.879, 126.5703
1124.974, 95.59961
1126.069, 142.1250
1127.164, 244.7520
1128.259, 30.62109
1129.353, 89.15820
1130.447, 143.3672
1131.541, 35.42578
1132.635, 56.67578
1133.729, 5.130859
1134.822, 166.2441
1135.916, 265.7793
1137.009, 222.3242
1138.102, 241.3535
1139.195, 181.5195
1140.288, 124.8359
1141.380, 97.14648
1142.473, 70.21875
1143.565, 113.1035
1144.657, 248.8652
1145.749, 19.37305
1146.841, 231.4746
1147.932, 166.8242
1149.024, 73.99023
1150.115, 106.3887
1151.206, 97.14062
1152.297, 163.9805
1153.388, 172.6562
1154.479, 160.3965
1155.569, 199.5469
1156.659, 176.1660
1157.750, 312.8145
1158.839, 141.1816
1159.929, 295.9434
1161.019, 173.6406
1162.108, 44.27344
1163.198, 238.8242
1164.287, 190.2988
1165.376, 93.77734
1166.465, 150.1895
1167.553, 229.4785
1168.642, 227.6504
1169.730, 100.7148
1170.818, 104.7227
1171.906, 63.65234
1172.994, 174.5234
1174.082, 2.330078
1175.170, 187.0703
1176.257, 163.7324
1177.344, 26.31836
1178.431, 130.8379
1179.518, 100.7031
1180.605, 109.6797
1181.691, 77.01367
1182.778, 142.2129
1183.864, 336.3691
1184.950, 292.4570
1186.036, 312.4805
1187.122, 20.43750
1188.207, 483.2480
1189.292, 224.2207
1190.378, 244.2734
1191.463, 296.4570
1192.548, 225.3145
1193.632, 233.6016
1194.717, 249.4258
1195.801, 229.2852
1196.886, 157.4102
1197.970, 236.1934
1199.054, 192.0449
1200.137, 358.9570
1201.221, 337.6074
1202.305, 384.8125
1203.388, 154.5625
1204.471, 308.4219
1205.554, 471.5781
1206.637, 289.1328
1207.719, 449.8418
1208.802, 251.5352
1209.884, 211.0000
1210.966, 384.7480
1212.048, 343.9766
1213.130, 559.1250
1214.212, 386.0742
1215.293, 540.0410
1216.374, 415.5547
1217.456, 201.4277
1218.536, 461.3594
1219.617, 172.2305
1220.698, 524.2754
1221.778, 441.6992
1222.859, 457.9922
1223.939, 242.1328
1225.019, 345.5957
1226.099, 350.0410
1227.178, 464.1816
1228.258, 383.4062
1229.337, 529.7988
1230.417, 344.2070
1231.496, 393.6914
1232.574, 582.5527
1233.653, 457.3203
1234.732, 224.7891
1235.810, 425.3711
1236.888, 266.7852
1237.966, 351.7520
1239.044, 423.4492
1240.122, 295.9590
1241.199, 529.1113
1242.277, 445.9336
1243.354, 140.0586
1244.431, 438.9473
1245.508, 223.1895
1246.585, 488.8086
1247.661, 341.6582
1248.738, 360.0742
1249.814, 539.9238
1250.890, 145.3418
1251.966, 136.8555
1253.042, 305.5078
1254.117, 231.2363
1255.193, 423.0469
1256.268, 48.53711
1257.343, 222.9531
1258.418, 54.24414
1259.493, 290.8867
1260.567, 387.9414
1261.642, 268.9863
1262.716, 285.1953
1263.790, 384.9102
1264.864, 354.9727
1265.938, 483.2852
1267.011, 410.5840
1268.085, 353.0645
1269.158, 394.3906
1270.231, 291.5723
1271.304, 36.07031
1272.377, 339.2949
1273.450, 281.4062
1274.522, 422.2656
1275.594, 189.0195
1276.666, 2.621094
1277.738, 556.5703
1278.810, 289.3984
1279.882, 250.6992
1280.953, 27.83203
1282.025, 0.1250000
1283.096, 0.0000000E+00
##END=



