##NAMES=Fluorapatite
##RRUFFID=R060421
##IDEAL CHEMISTRY=Ca_5_(PO_4_)_3_F
##LOCALITY=Levant mine, St. Just, Cornwall, England
##OWNER=RRUFF
##SOURCE=Michael Scott
##DESCRIPTION=Brown hexagonal prisms
##STATUS=The identification of this mineral has been confirmed by X-ray diffraction and chemical analysis
##URL=rruff.info/R060421
##MEASURED CHEMISTRY=(Ca_4.93_[box]_0.07_)_Σ=5_((PO_4_)_2.86_(CO_3_)_0.14_)_Σ=3_F_1.00_ ; C not measured but estimated by difference and charge balance
##PIN_ID=M00175
##ORIENTATION=Laser parallel to c* (0 0 1). Fiducial mark perpendicular to laser is parallel to a [1 0 0]
124.2880, 0.0000000E+00
125.5190, 1.431885
126.7490, 135.5210
127.9790, 136.5762
129.2090, 138.4993
130.4390, 123.0947
131.6680, 175.6294
132.8980, 312.6587
134.1270, 377.8965
135.3560, 402.0859
136.5850, 502.9858
137.8140, 525.4290
139.0430, 517.7942
140.2710, 393.4204
141.5000, 404.2703
142.7280, 282.9580
143.9560, 202.8489
145.1840, 209.9099
146.4120, 181.0408
147.6390, 84.18042
148.8670, 128.3831
150.0940, 39.62793
151.3210, 118.8645
152.5490, 196.1458
153.7750, 136.2197
155.0020, 153.5342
156.2290, 166.8733
157.4550, 154.2910
158.6810, 199.7563
159.9080, 268.8376
161.1340, 221.1648
162.3590, 115.4446
163.5850, 165.0859
164.8110, 168.0930
166.0360, 169.8762
167.2610, 202.8193
168.4860, 206.3044
169.7110, 104.5222
170.9360, 76.93481
172.1610, 32.77563
173.3850, 41.22144
174.6100, 36.90820
175.8340, 70.06152
177.0580, 67.30908
178.2820, 107.6250
179.5050, 131.1523
180.7290, 35.17041
181.9520, 89.77051
183.1760, 46.70850
184.3990, 1.000977
185.6220, 57.51025
186.8450, 20.90283
188.0670, 35.96777
189.2900, 32.71191
190.5120, 15.92920
191.7340, 16.09033
192.9560, 24.53613
194.1780, 50.18262
195.4000, 65.53174
196.6220, 15.83398
197.8430, 26.72559
199.0640, 37.22852
200.2860, 15.68018
201.5070, 64.07422
202.7270, 17.45020
203.9480, 3.278809
205.1690, 22.97656
206.3890, 1.122559
207.6090, 37.42139
208.8290, 25.24121
210.0490, 5.749023
211.2690, 31.64258
212.4890, 42.04248
213.7080, 77.24854
214.9280, 72.74219
216.1470, 71.25928
217.3660, 38.81445
218.5850, 81.09180
219.8030, 5.606445
221.0220, 9.424805
222.2400, 11.92236
223.4590, 38.51562
224.6770, 52.49854
225.8950, 111.3999
227.1120, 127.0752
228.3300, 145.4839
229.5480, 161.2666
230.7650, 158.3374
231.9820, 137.5952
233.1990, 125.6938
234.4160, 124.3472
235.6330, 107.2017
236.8490, 199.2485
238.0660, 105.3516
239.2820, 138.4014
240.4980, 168.8018
241.7140, 25.53027
242.9300, 115.1899
244.1460, 8.794922
245.3610, 41.81006
246.5770, 67.96289
247.7920, 87.19531
249.0070, 155.9102
250.2220, 173.9487
251.4370, 147.6675
252.6510, 167.7368
253.8660, 83.50439
255.0800, 136.9443
256.2940, 204.0503
257.5080, 141.7622
258.7220, 296.1064
259.9360, 160.5649
261.1490, 318.3052
262.3630, 373.7900
263.5760, 394.0312
264.7890, 363.9463
266.0020, 477.1611
267.2150, 414.7642
268.4270, 445.8530
269.6400, 391.1338
270.8520, 407.1660
272.0640, 371.9336
273.2760, 298.9897
274.4880, 255.8564
275.7000, 216.0098
276.9120, 250.4321
278.1230, 229.1250
279.3340, 198.4175
280.5450, 196.4990
281.7560, 192.4658
282.9670, 110.4019
284.1780, 117.3013
285.3880, 170.1597
286.5980, 209.9746
287.8090, 120.7437
289.0190, 174.9604
290.2290, 64.12793
291.4380, 174.7393
292.6480, 142.2954
293.8570, 121.7969
295.0670, 126.2422
296.2760, 139.6299
297.4850, 172.9604
298.6930, 189.2075
299.9020, 189.3970
301.1110, 175.5283
302.3190, 227.6011
303.5270, 251.6143
304.7350, 328.5693
305.9430, 305.4268
307.1510, 244.2148
308.3580, 275.9434
309.5660, 231.6011
310.7730, 352.1953
311.9800, 328.7285
313.1870, 221.1992
314.3940, 316.0615
315.6010, 230.4106
316.8070, 210.6968
318.0130, 126.5698
319.2200, 201.4600
320.4260, 163.7686
321.6310, 143.5981
322.8370, 121.7012
324.0430, 116.0557
325.2480, 171.7500
326.4540, 69.68896
327.6590, 114.0957
328.8640, 14.08545
330.0680, 61.82520
331.2730, 77.67578
332.4780, 45.00342
333.6820, 57.31641
334.8860, 61.11719
336.0900, 10.69678
337.2940, 43.33838
338.4980, 92.28516
339.7010, 36.37012
340.9050, 62.87158
342.1080, 60.28857
343.3110, 2.417480
344.5140, 2.944824
345.7170, 20.87109
346.9200, 52.62891
348.1220, 26.47949
349.3240, 118.1616
350.5270, 28.40186
351.7290, 58.53711
352.9310, 0.1264650
354.1320, 95.32959
355.3340, 7.561035
356.5350, 10.25732
357.7370, 62.45459
358.9380, 43.16260
360.1390, 70.82471
361.3400, 70.53027
362.5400, 7.526367
363.7410, 43.47754
364.9410, 25.28271
366.1410, 10.82520
367.3410, 98.71875
368.5410, 141.0728
369.7410, 41.46240
370.9400, 130.3193
372.1400, 14.44531
373.3390, 19.91357
374.5380, 26.97607
375.7370, 138.9458
376.9360, 70.76221
378.1350, 122.3511
379.3330, 17.92139
380.5310, 79.61523
381.7300, 124.9380
382.9280, 64.66016
384.1260, 51.02832
385.3230, 102.9873
386.5210, 43.65527
387.7180, 54.95947
388.9160, 146.7334
390.1130, 92.03467
391.3100, 161.7915
392.5060, 206.8965
393.7030, 213.6572
394.9000, 114.2681
396.0960, 230.6572
397.2920, 124.0386
398.4880, 74.48486
399.6840, 75.88232
400.8800, 159.9956
402.0750, 90.92627
403.2710, 181.6802
404.4660, 143.4292
405.6610, 262.5347
406.8560, 134.7197
408.0510, 166.9702
409.2450, 185.9116
410.4400, 214.6646
411.6340, 189.3955
412.8280, 147.1240
414.0220, 189.3804
415.2160, 237.6099
416.4100, 206.6367
417.6030, 262.0332
418.7970, 199.6343
419.9900, 376.8335
421.1830, 311.9629
422.3760, 405.9062
423.5690, 452.4971
424.7610, 567.2017
425.9540, 567.1870
427.1460, 647.3193
428.3380, 593.1816
429.5300, 677.2432
430.7220, 654.8535
431.9140, 772.9731
433.1050, 855.2148
434.2970, 791.8872
435.4880, 793.9146
436.6790, 840.6987
437.8700, 940.2900
439.0610, 838.7915
440.2510, 966.2451
441.4420, 988.7295
442.6320, 1040.176
443.8220, 1105.516
445.0120, 1042.689
446.2020, 1100.974
447.3910, 1029.250
448.5810, 836.4268
449.7700, 927.5044
450.9600, 723.4243
452.1490, 838.3052
453.3370, 637.2222
454.5260, 513.5293
455.7150, 561.6460
456.9030, 390.5840
458.0910, 521.2339
459.2800, 514.6865
460.4670, 344.6016
461.6550, 324.0518
462.8430, 208.7002
464.0300, 308.0737
465.2180, 227.2500
466.4050, 151.2197
467.5920, 293.0430
468.7790, 173.9824
469.9650, 328.3838
471.1520, 211.8574
472.3380, 164.0537
473.5250, 163.0684
474.7110, 72.02832
475.8970, 64.72168
477.0820, 120.6631
478.2680, 155.6094
479.4540, 121.8906
480.6390, 71.75879
481.8240, 191.2949
483.0090, 76.53516
484.1940, 67.73047
485.3780, 107.3682
486.5630, 75.38379
487.7470, 173.8916
488.9320, 52.54492
490.1160, 11.97656
491.3000, 101.2881
492.4830, 179.4932
493.6670, 51.53906
494.8500, 169.4873
496.0340, 105.0293
497.2170, 11.79102
498.4000, 101.1992
499.5820, 39.67285
500.7650, 36.44531
501.9480, 41.61328
503.1300, 6.937500
504.3120, 52.68848
505.4940, 80.48438
506.6760, 66.36328
507.8580, 52.05762
509.0390, 34.94629
510.2210, 35.10645
511.4020, 92.21191
512.5830, 34.41797
513.7640, 101.2549
514.9450, 11.98828
516.1250, 1.813477
517.3060, 24.96387
518.4860, 95.67090
519.6660, 119.3926
520.8460, 73.40039
522.0260, 28.19531
523.2060, 90.85059
524.3850, 24.58398
525.5650, 59.50195
526.7440, 5.812500
527.9230, 67.27734
529.1020, 23.10156
530.2810, 22.17773
531.4590, 95.16699
532.6380, 23.40234
533.8160, 119.1025
534.9940, 32.92188
536.1720, 20.45508
537.3500, 18.41797
538.5270, 37.97754
539.7050, 79.29980
540.8820, 160.9541
542.0590, 32.83789
543.2360, 29.44727
544.4130, 51.64355
545.5900, 22.68555
546.7660, 64.94824
547.9430, 11.95801
549.1190, 64.30859
550.2950, 11.16113
551.4710, 129.6855
552.6470, 36.46777
553.8220, 89.04004
554.9980, 21.39258
556.1730, 125.8330
557.3480, 185.7578
558.5230, 73.30176
559.6980, 33.68652
560.8730, 71.90723
562.0470, 65.54688
563.2220, 85.83887
564.3960, 139.3906
565.5700, 85.00977
566.7440, 227.2686
567.9170, 323.1982
569.0910, 368.7568
570.2640, 347.8486
571.4380, 470.0840
572.6110, 704.8213
573.7840, 633.0605
574.9570, 793.9346
576.1290, 1081.191
577.3020, 1245.463
578.4740, 1331.808
579.6460, 1370.057
580.8180, 1315.659
581.9900, 1138.829
583.1620, 965.2090
584.3330, 746.9648
585.5040, 616.7148
586.6760, 592.6943
587.8470, 638.1094
589.0180, 555.4922
590.1880, 465.7393
591.3590, 586.1660
592.5290, 495.5840
593.7000, 399.6660
594.8700, 314.2725
596.0400, 335.5615
597.2090, 306.3604
598.3790, 398.4092
599.5490, 378.4600
600.7180, 465.9424
601.8870, 574.9727
603.0560, 733.7080
604.2250, 751.2607
605.3940, 877.6436
606.5620, 754.3096
607.7300, 778.8652
608.8990, 647.9248
610.0670, 523.4121
611.2350, 641.6660
612.4020, 564.2402
613.5700, 595.5625
614.7370, 466.9092
615.9050, 451.0781
617.0720, 377.3281
618.2390, 350.0918
619.4060, 353.9170
620.5720, 283.6074
621.7390, 150.8672
622.9050, 364.7432
624.0710, 381.6836
625.2370, 250.0693
626.4030, 317.8535
627.5690, 160.7549
628.7340, 324.8604
629.9000, 328.5088
631.0650, 356.6396
632.2300, 20.96973
633.3950, 219.3330
634.5600, 177.6709
635.7240, 224.9043
636.8890, 340.6533
638.0530, 172.7100
639.2170, 69.54688
640.3810, 217.1055
641.5450, 190.4316
642.7080, 259.6816
643.8720, 238.4043
645.0350, 213.0293
646.1980, 307.5332
647.3610, 313.7021
648.5240, 296.7090
649.6870, 269.1465
650.8490, 183.3369
652.0120, 287.3477
653.1740, 230.3789
654.3360, 302.8516
655.4980, 323.2754
656.6600, 263.6514
657.8210, 163.3906
658.9830, 225.1387
660.1440, 264.5352
661.3050, 308.5488
662.4660, 258.5918
663.6270, 241.9521
664.7870, 248.7422
665.9480, 249.2393
667.1080, 218.2451
668.2680, 145.0020
669.4280, 164.1787
670.5880, 195.9277
671.7480, 189.0332
672.9070, 208.6719
674.0670, 198.9863
675.2260, 225.2021
676.3850, 235.4395
677.5440, 238.0547
678.7030, 266.4355
679.8610, 253.1230
681.0200, 321.0312
682.1780, 235.7656
683.3360, 222.7627
684.4940, 191.0830
685.6520, 345.0107
686.8090, 124.6602
687.9670, 381.0615
689.1240, 324.1904
690.2810, 239.2637
691.4380, 242.9697
692.5950, 266.5254
693.7520, 235.3477
694.9080, 230.5537
696.0650, 137.8447
697.2210, 175.8711
698.3770, 243.5352
699.5330, 193.5977
700.6880, 245.1045
701.8440, 237.7051
702.9990, 244.2178
704.1550, 249.5908
705.3100, 332.9102
706.4650, 388.5000
707.6190, 407.8867
708.7740, 358.9844
709.9290, 250.6973
711.0830, 349.5469
712.2370, 208.7637
713.3910, 275.6133
714.5450, 441.5820
715.6980, 379.7754
716.8520, 342.3125
718.0050, 344.0586
719.1580, 240.8926
720.3110, 324.0039
721.4640, 254.6523
722.6170, 383.6777
723.7700, 367.0605
724.9220, 293.8828
726.0740, 410.4590
727.2260, 396.9004
728.3780, 409.5156
729.5300, 346.0195
730.6810, 329.5898
731.8330, 389.6250
732.9840, 246.1250
734.1350, 300.4023
735.2860, 251.0195
736.4370, 364.1309
737.5880, 301.4512
738.7380, 500.6484
739.8880, 349.7090
741.0390, 380.0918
742.1890, 257.0078
743.3380, 204.5430
744.4880, 249.1895
745.6380, 420.9551
746.7870, 428.4316
747.9360, 488.1250
749.0850, 380.7598
750.2340, 413.9043
751.3830, 413.5039
752.5310, 392.3750
753.6800, 345.5781
754.8280, 412.7441
755.9760, 448.3594
757.1240, 489.4629
758.2720, 420.0508
759.4190, 418.2949
760.5670, 418.2910
761.7140, 242.4531
762.8610, 355.1855
764.0080, 323.0938
765.1550, 479.8281
766.3020, 282.6465
767.4480, 200.5059
768.5950, 457.4766
769.7410, 355.0625
770.8870, 402.5508
772.0330, 460.1602
773.1780, 393.8711
774.3240, 427.9922
775.4690, 396.9512
776.6140, 400.6992
777.7590, 340.5703
778.9040, 366.5293
780.0490, 368.3184
781.1940, 281.1309
782.3380, 287.7461
783.4820, 368.3105
784.6260, 406.1660
785.7700, 482.6387
786.9140, 516.5762
788.0580, 457.3672
789.2010, 473.3340
790.3450, 356.2500
791.4880, 355.6152
792.6310, 261.3320
793.7730, 390.5664
794.9160, 263.8203
796.0590, 496.9590
797.2010, 165.3984
798.3430, 381.0918
799.4850, 386.6953
800.6270, 313.8906
801.7690, 324.4258
802.9100, 447.4688
804.0520, 307.0312
805.1930, 433.3184
806.3340, 392.1602
807.4750, 239.9980
808.6160, 478.8535
809.7560, 324.6211
810.8970, 616.3652
812.0370, 379.9668
813.1770, 229.5742
814.3170, 123.1191
815.4570, 234.5605
816.5960, 196.5000
817.7360, 165.3223
818.8750, 297.7988
820.0140, 233.8105
821.1530, 207.6562
822.2920, 434.2520
823.4310, 384.3984
824.5690, 200.5449
825.7070, 385.6543
826.8460, 225.4199
827.9840, 278.7188
829.1220, 275.9238
830.2590, 408.1309
831.3970, 238.0977
832.5340, 259.9375
833.6710, 116.2754
834.8080, 344.6426
835.9450, 395.1855
837.0820, 338.4160
838.2190, 282.7539
839.3550, 311.9512
840.4910, 372.0645
841.6270, 308.0957
842.7630, 364.3633
843.8990, 254.7559
845.0350, 341.0938
846.1700, 206.1348
847.3060, 239.8926
848.4410, 351.6562
849.5760, 232.6660
850.7100, 216.4336
851.8450, 356.6934
852.9800, 274.2109
854.1140, 427.2070
855.2480, 218.2363
856.3820, 316.4922
857.5160, 237.1094
858.6500, 300.3867
859.7830, 180.5859
860.9170, 226.1836
862.0500, 398.4629
863.1830, 252.8828
864.3160, 356.9766
865.4480, 370.5469
866.5810, 250.9902
867.7130, 490.2266
868.8460, 237.9531
869.9780, 473.9375
871.1100, 145.0312
872.2410, 306.4766
873.3730, 325.2637
874.5050, 501.9805
875.6360, 371.2988
876.7670, 319.9473
877.8980, 267.9648
879.0290, 413.9629
880.1590, 127.5547
881.2900, 275.3984
882.4200, 289.6523
883.5500, 204.7852
884.6800, 260.7773
885.8100, 130.4395
886.9400, 249.0723
888.0690, 174.5645
889.1990, 258.8145
890.3280, 331.7324
891.4570, 202.8535
892.5860, 391.8867
893.7140, 242.8027
894.8430, 141.5078
895.9710, 91.04688
897.1000, 79.41406
898.2280, 211.8652
899.3560, 170.6465
900.4830, 313.1504
901.6110, 148.0840
902.7380, 219.1465
903.8660, 382.7324
904.9930, 99.28125
906.1200, 352.2344
907.2460, 182.2773
908.3730, 211.4277
909.5000, 250.1699
910.6260, 45.06836
911.7520, 15.31641
912.8780, 186.5137
914.0040, 174.3281
915.1290, 42.12109
916.2550, 308.7363
917.3800, 69.87891
918.5050, 39.88281
919.6300, 124.0410
920.7550, 23.21289
921.8800, 5.486328
923.0040, 8.720703
924.1290, 34.50781
925.2530, 60.81641
926.3770, 229.1191
927.5010, 91.94141
928.6250, 23.77930
929.7480, 403.8242
930.8720, 9.796875
931.9950, 234.5566
933.1180, 45.41211
934.2410, 21.53320
935.3640, 229.3262
936.4860, 100.2852
937.6090, 161.8809
938.7310, 255.4512
939.8530, 257.3359
940.9750, 423.6562
942.0970, 243.7168
943.2180, 325.9863
944.3400, 657.2266
945.4610, 476.7324
946.5820, 644.1523
947.7030, 829.7090
948.8240, 829.4355
949.9450, 1047.039
951.0650, 1308.627
952.1860, 1597.811
953.3060, 1893.641
954.4260, 2399.336
955.5460, 3402.568
956.6650, 4297.496
957.7850, 6031.512
958.9040, 8280.230
960.0230, 10965.86
961.1420, 14112.42
962.2610, 17452.08
963.3800, 19998.04
964.4990, 19455.91
965.6170, 16661.25
966.7350, 13460.71
967.8530, 9859.270
968.9710, 7373.324
970.0890, 5034.105
971.2070, 3493.023
972.3240, 2369.633
973.4410, 1644.939
974.5580, 1329.295
975.6750, 891.8320
976.7920, 552.0352
977.9090, 443.4023
979.0250, 393.2168
980.1410, 203.3496
981.2580, 88.62305
982.3740, 120.1094
983.4890, 115.9180
984.6050, 59.50391
985.7200, 242.9590
986.8360, 19.40625
987.9510, 23.26367
989.0660, 192.7480
990.1810, 158.0137
991.2950, 16.74023
992.4100, 38.79297
993.5240, 226.6934
994.6390, 77.75781
995.7530, 130.4434
996.8660, 81.92578
997.9800, 84.72266
999.0940, 59.72266
1000.207, 191.7891
1001.320, 228.1270
1002.433, 63.85938
1003.546, 75.97070
1004.659, 107.7988
1005.772, 168.7734
1006.884, 97.14844
1007.996, 28.52148
1009.108, 35.00977
1010.220, 268.8242
1011.332, 26.19531
1012.444, 276.8945
1013.555, 224.1641
1014.666, 61.53516
1015.777, 96.82422
1016.888, 144.3359
1017.999, 110.5000
1019.110, 180.5898
1020.220, 59.03906
1021.331, 87.89844
1022.441, 60.36328
1023.551, 168.3633
1024.661, 21.26562
1025.770, 265.2852
1026.880, 327.5820
1027.989, 149.2852
1029.098, 433.9180
1030.207, 388.1250
1031.316, 582.9414
1032.425, 865.1328
1033.533, 737.4844
1034.642, 736.1719
1035.750, 615.0000
1036.858, 546.3555
1037.966, 353.4961
1039.073, 396.0312
1040.181, 464.0391
1041.288, 312.7422
1042.396, 176.0703
1043.503, 193.0625
1044.610, 118.1719
1045.716, 58.87109
1046.823, 158.8086
1047.929, 146.5273
1049.036, 242.1953
1050.142, 276.0547
1051.248, 110.9219
1052.353, 306.6250
1053.459, 228.3281
1054.564, 415.3359
1055.670, 678.7383
1056.775, 720.0664
1057.880, 649.7891
1058.985, 653.6562
1060.089, 337.1992
1061.194, 432.3672
1062.298, 422.0000
1063.402, 306.2734
1064.506, 376.1602
1065.610, 455.9023
1066.713, 275.5156
1067.817, 205.3086
1068.920, 261.2148
1070.023, 261.5508
1071.126, 543.5391
1072.229, 478.8008
1073.332, 585.1250
1074.435, 718.4883
1075.537, 688.8516
1076.639, 542.2461
1077.741, 484.6602
1078.843, 667.0977
1079.945, 447.5391
1081.046, 477.0117
1082.148, 314.5000
1083.249, 129.0195
1084.350, 42.56641
1085.451, 197.1367
1086.551, 231.7422
1087.652, 290.9648
1088.752, 323.0312
1089.853, 315.7227
1090.953, 324.3711
1092.053, 274.3867
1093.152, 243.9727
1094.252, 184.7852
1095.351, 45.62891
1096.451, 70.51172
1097.550, 192.4297
1098.649, 513.3789
1099.748, 161.3711
1100.846, 158.4023
1101.945, 296.4766
1103.043, 692.5898
1104.141, 153.7422
1105.239, 461.9336
1106.337, 267.1758
1107.434, 499.4531
1108.532, 404.7812
1109.629, 246.1523
1110.726, 433.5625
1111.823, 502.0273
1112.920, 346.5391
1114.017, 209.8047
1115.113, 514.4219
1116.210, 566.1328
1117.306, 558.3047
1118.402, 386.4531
1119.498, 516.1758
1120.593, 191.2109
1121.689, 427.1523
1122.784, 370.3750
1123.879, 429.5273
1124.974, 675.6641
1126.069, 618.3711
1127.164, 872.8945
1128.259, 578.6484
1129.353, 530.0508
1130.447, 710.6797
1131.541, 564.8281
1132.635, 886.8008
1133.729, 367.8516
1134.822, 581.6172
1135.916, 712.4688
1137.009, 815.3945
1138.102, 613.6992
1139.195, 522.0859
1140.288, 673.2383
1141.380, 427.2266
1142.473, 622.5703
1143.565, 512.6250
1144.657, 659.1328
1145.749, 466.7930
1146.841, 603.3242
1147.932, 716.1172
1149.024, 696.0039
1150.115, 820.9922
1151.206, 636.0703
1152.297, 819.2617
1153.388, 749.5469
1154.479, 422.9375
1155.569, 711.4297
1156.659, 645.9609
1157.750, 894.6484
1158.839, 1000.434
1159.929, 915.3203
1161.019, 962.3164
1162.108, 923.4336
1163.198, 804.6680
1164.287, 901.0117
1165.376, 885.4688
1166.465, 970.0312
1167.553, 1018.707
1168.642, 964.4883
1169.730, 1324.391
1170.818, 1077.414
1171.906, 862.5391
1172.994, 936.7812
1174.082, 1243.137
1175.170, 829.6016
1176.257, 951.2188
1177.344, 1228.980
1178.431, 792.8633
1179.518, 1071.859
1180.605, 970.9961
1181.691, 1016.242
1182.778, 1127.621
1183.864, 1147.145
1184.950, 950.7891
1186.036, 958.5742
1187.122, 1098.508
1188.207, 920.6172
1189.292, 1049.840
1190.378, 1037.293
1191.463, 862.7461
1192.548, 1082.395
1193.632, 1130.199
1194.717, 1183.121
1195.801, 1002.188
1196.886, 1014.379
1197.970, 1083.734
1199.054, 791.2305
1200.137, 703.8555
1201.221, 876.6562
1202.305, 1147.586
1203.388, 1092.633
1204.471, 1227.805
1205.554, 1022.098
1206.637, 1134.516
1207.719, 1025.051
1208.802, 1119.715
1209.884, 1136.500
1210.966, 1111.410
1212.048, 1071.441
1213.130, 1006.602
1214.212, 1053.887
1215.293, 1107.508
1216.374, 1065.836
1217.456, 1285.496
1218.536, 1149.289
1219.617, 1163.199
1220.698, 844.2461
1221.778, 948.4180
1222.859, 792.7266
1223.939, 1101.160
1225.019, 1021.719
1226.099, 859.4141
1227.178, 906.2344
1228.258, 866.1914
1229.337, 912.2734
1230.417, 936.4922
1231.496, 731.8438
1232.574, 998.4062
1233.653, 767.0234
1234.732, 964.7734
1235.810, 1088.656
1236.888, 1329.672
1237.966, 1029.824
1239.044, 991.1094
1240.122, 1107.531
1241.199, 954.0898
1242.277, 1124.793
1243.354, 1011.637
1244.431, 867.6367
1245.508, 903.7812
1246.585, 796.1094
1247.661, 821.6094
1248.738, 843.3203
1249.814, 600.1797
1250.890, 651.1914
1251.966, 538.3359
1253.042, 726.6758
1254.117, 768.1641
1255.193, 452.7969
1256.268, 642.6367
1257.343, 433.6484
1258.418, 893.8398
1259.493, 514.1758
1260.567, 540.6797
1261.642, 693.5078
1262.716, 709.3906
1263.790, 651.4766
1264.864, 745.8086
1265.938, 511.1836
1267.011, 446.7500
1268.085, 710.4531
1269.158, 503.3750
1270.231, 517.4102
1271.304, 263.6094
1272.377, 525.9453
1273.450, 501.4258
1274.522, 489.0547
1275.594, 293.8828
1276.666, 398.8789
1277.738, 266.8945
1278.810, 360.1719
1279.882, 434.6055
1280.953, 249.1758
1282.025, 344.8906
1283.096, 273.7461
1284.167, 186.7539
1285.238, 332.9062
1286.308, 102.2031
1287.379, 114.2305
1288.449, 157.2305
1289.519, 92.96094
1290.589, 295.8711
1291.659, 547.9297
1292.729, 432.1406
1293.798, 523.1953
1294.868, 305.6953
1295.937, 394.3477
1297.006, 332.1484
1298.075, 461.1172
1299.143, 453.2109
1300.212, 248.4492
1301.280, 158.8320
1302.348, 384.3633
1303.416, 506.0391
1304.484, 244.8594
1305.552, 16.82422
1306.620, 100.9375
1307.687, 130.1953
1308.754, 276.5977
1309.821, 296.1406
1310.888, 444.8320
1311.955, 263.6641
1313.021, 476.6445
1314.088, 540.7578
1315.154, 250.0234
1316.220, 0.4296880
1317.286, 316.9766
1318.352, 273.6719
1319.417, 268.5117
1320.483, 426.4961
1321.548, 93.62891
1322.613, 275.8828
1323.678, 213.2695
1324.743, 215.7773
1325.807, 554.4102
1326.872, 198.1719
1327.936, 573.0547
1329.000, 279.1836
1330.064, 218.3281
1331.128, 293.5938
1332.191, 44.98438
1333.255, 23.50781
1334.318, 60.56641
1335.381, 95.93359
1336.444, 174.8359
1337.507, 147.8672
1338.569, 232.0273
1339.632, 202.7734
1340.694, 234.7266
1341.756, 186.2734
1342.818, 161.9453
1343.880, 219.7422
1344.941, 293.6719
1346.003, 247.7344
1347.064, 50.92188
1348.125, 299.2383
1349.186, 59.68750
1350.247, 211.2617
1351.308, 308.9648
1352.368, 239.7969
1353.428, 317.7578
1354.489, 420.8516
1355.549, 135.0742
1356.608, 210.4141
1357.668, 155.8828
1358.727, 129.4766
1359.787, 13.79688
1360.846, 290.0547
1361.905, 380.0391
1362.964, 267.1562
1364.022, 291.3945
1365.081, 181.7578
1366.139, 211.2539
1367.197, 174.8789
1368.255, 134.7734
1369.313, 324.4531
1370.371, 143.7578
1371.428, 289.5000
1372.486, 204.7656
1373.543, 417.7070
1374.600, 322.9531
1375.657, 387.9336
1376.713, 238.5820
1377.770, 314.4570
1378.826, 367.4648
1379.882, 38.59375
1380.938, 66.85156
1381.994, 47.23438
1383.050, 27.74219
1384.106, 215.3750
1385.161, 47.13281
1386.216, 77.01172
1387.271, 93.01562
1388.326, 144.8477
1389.381, 332.6133
1390.435, 31.98047
1391.490, 14.53125
1392.544, 475.0859
1393.598, 7.171875
1394.652, 187.6953
1395.705, 6.304688
1396.759, 126.8086
1397.812, 3.058594
1398.866, 264.4297
1399.919, 264.9297
1400.972, 58.55469
1402.024, 414.9375
1403.077, 266.8594
1404.129, 73.13281
1405.181, 286.0000
1406.233, 282.2656
1407.285, 286.6602
1408.337, 298.1836
1409.389, 216.6211
1410.440, 137.4922
1411.491, 23.26953
1412.542, 131.1719
1413.593, 10.20703
1414.644, 98.36719
1415.695, 346.7969
1416.745, 296.1719
1417.795, 120.4219
1418.845, 440.1094
1419.895, 57.14062
1420.945, 291.7422
1421.995, 80.65234
1423.044, 306.7969
1424.093, 158.9297
1425.142, 400.4688
1426.191, 442.9766
1427.240, 181.6133
1428.289, 275.3828
1429.337, 110.2852
1430.385, 146.3242
1431.433, 349.5078
1432.481, 166.8203
1433.529, 308.7852
1434.577, 202.1680
1435.624, 355.3945
1436.672, 322.7266
1437.719, 237.3047
1438.766, 342.8320
1439.812, 187.4375
1440.859, 248.1016
1441.905, 443.1172
1442.952, 115.5781
1443.998, 283.5312
1445.044, 385.0664
1446.090, 108.3984
1447.135, 443.6211
1448.181, 126.5117
1449.226, 295.5547
1450.271, 385.7734
1451.316, 480.1523
1452.361, 313.6992
1453.405, 198.4141
1454.450, 10.70312
1455.494, 502.3477
1456.538, 354.5625
1457.582, 566.9453
1458.626, 311.4961
1459.670, 170.2070
1460.713, 542.0859
1461.757, 61.12891
1462.800, 263.3359
1463.843, 136.7031
1464.886, 287.2344
1465.928, 408.9219
1466.971, 361.6797
1468.013, 231.6914
1469.055, 362.8633
1470.097, 151.1875
1471.139, 248.6758
1472.181, 324.2969
1473.222, 311.0117
1474.263, 527.8594
1475.305, 359.8672
1476.346, 232.0195
1477.386, 500.3281
1478.427, 199.7812
1479.468, 333.3867
1480.508, 388.1406
1481.548, 223.0742
1482.588, 185.9180
1483.628, 387.9688
1484.668, 136.1680
1485.707, 207.5586
1486.747, 329.1016
1487.786, 271.7773
1488.825, 158.2812
1489.864, 380.2070
1490.902, 414.2539
1491.941, 245.4453
1492.979, 0.2382810
1494.017, 25.78906
1495.055, 71.67188
1496.093, 133.2148
1497.131, 45.80859
1498.168, 46.44531
1499.206, 100.2891
1500.243, 346.1797
1501.280, 163.1797
1502.317, 210.2852
1503.354, 243.4844
1504.390, 85.79297
1505.426, 358.2070
1506.463, 441.7227
1507.499, 205.3398
1508.535, 103.0547
1509.570, 302.8320
1510.606, 69.72656
1511.641, 190.8398
1512.676, 24.17578
1513.711, 70.51953
1514.746, 66.24219
1515.781, 220.2188
1516.816, 37.42188
1517.850, 266.8320
1518.884, 297.4570
1519.918, 207.2930
1520.952, 269.3516
1521.986, 204.6211
1523.019, 202.0977
1524.053, 447.7891
1525.086, 66.69141
1526.119, 21.80859
1527.152, 53.17578
1528.185, 350.8047
1529.217, 412.6523
1530.250, 360.7344
1531.282, 192.0820
1532.314, 238.4297
1533.346, 328.4922
1534.377, 174.9102
1535.409, 134.3359
1536.440, 128.2031
1537.472, 175.3086
1538.503, 249.6680
1539.534, 63.27734
1540.564, 110.8438
1541.595, 14.32031
1542.625, 167.7500
1543.656, 135.5195
1544.686, 180.4883
1545.716, 7.222656
1546.745, 202.7617
1547.775, 106.9648
1548.804, 257.3906
1549.834, 137.3242
1550.863, 494.9453
1551.892, 435.7148
1552.920, 426.6719
1553.949, 191.3320
1554.977, 414.4648
1556.006, 144.8906
1557.034, 362.0391
1558.062, 268.6758
1559.089, 240.6641
1560.117, 305.5703
1561.144, 92.78516
1562.172, 311.6875
1563.199, 291.0273
1564.226, 344.3906
1565.252, 113.7305
1566.279, 61.78516
1567.305, 206.6133
1568.332, 11.37109
1569.358, 159.3477
1570.384, 0.2304690
1571.409, 0.0000000E+00
##END=



