##NAMES=Fluorophlogopite
##RRUFFID=R040039
##IDEAL CHEMISTRY=KMg_3_(Si_3_Al)O_10_F_2_
##LOCALITY=Franklin, Sussex County, New Jersey, USA
##OWNER=RRUFF
##SOURCE=University of Arizona Mineral Museum
##DESCRIPTION=Brown hexagonal sheets
##STATUS=The identification of this mineral has been confirmed by X-ray diffraction and chemical analysis
##URL=rruff.info/R040039
##MEASURED CHEMISTRY=(K_0.92_Na_0.06_[box]_0.02_)_Σ=1_(Mg_2.94_Fe_0.04_Ti_0.02_)_Σ=3_(Si_2.98_Al_1.02_)O_10_(F_1.24_(OH)_0.76_)_Σ=2_; OH estimated by charge balance
##PIN_ID=M00049
##ORIENTATION=Laser parallel to a [1 0 0]. Fiducial mark perpendicular to laser is parallel to b* (0 1 0)
87.213, 0.000
88.608, 93.782
90.003, 911.760
91.398, 2310.551
92.793, 4585.416
94.188, 7058.586
95.582, 10818.015
96.976, 14673.209
98.370, 20676.084
99.764, 27055.584
101.157, 33629.367
102.550, 38089.723
103.943, 39214.570
105.336, 37488.805
106.729, 30630.938
108.121, 23256.053
109.513, 16255.902
110.905, 11531.427
112.297, 10173.258
113.688, 6795.830
115.079, 4965.955
116.470, 3626.708
117.861, 3340.168
119.251, 2303.539
120.642, 2009.861
122.032, 1644.992
123.422, 1386.743
124.811, 1086.645
126.201, 1002.322
127.590, 646.171
128.979, 524.709
130.367, 575.990
131.756, 467.236
133.144, 228.042
134.532, 288.507
135.920, 68.702
137.307, 108.677
138.695, 81.538
140.082, 31.916
141.469, 222.439
142.856, 203.102
144.242, 143.917
145.628, 454.908
147.014, 308.940
148.400, 302.383
149.786, 238.805
151.171, 140.373
152.556, 92.061
153.941, 63.860
155.325, 55.765
156.710, 67.769
158.094, 82.463
159.478, 82.043
160.862, 106.089
162.245, 57.496
163.629, 29.383
165.012, 46.413
166.395, 367.929
167.777, 388.309
169.160, 654.629
170.542, 861.607
171.924, 979.340
173.306, 1175.014
174.687, 1338.840
176.068, 1871.361
177.449, 2114.510
178.830, 2418.172
180.211, 3302.255
181.591, 3746.690
182.972, 4931.421
184.351, 6306.398
185.731, 8021.558
187.111, 10356.845
188.490, 13422.233
189.869, 17707.709
191.248, 22723.252
192.626, 28678.865
194.005, 35184.539
195.383, 39830.273
196.761, 43315.969
198.139, 41881.418
199.516, 38366.527
200.893, 31281.207
202.271, 24635.660
203.647, 18190.189
205.024, 13524.838
206.400, 10069.441
207.777, 7663.980
209.152, 6048.584
210.528, 4913.266
211.904, 4207.975
213.279, 3332.686
214.654, 2927.396
216.029, 2542.100
217.403, 2226.804
218.778, 2071.506
220.152, 1586.208
221.526, 1430.903
222.900, 1215.596
224.273, 800.291
225.646, 784.982
227.019, 459.674
228.392, 504.477
229.765, 339.303
231.137, 324.154
232.509, 148.995
233.881, 103.828
235.253, 98.767
236.625, 103.705
237.996, 31.376
239.367, 43.562
240.738, 48.984
242.108, 196.164
243.479, 140.886
244.849, 14.105
246.219, 319.949
247.589, 44.881
248.958, 270.192
250.328, 4.227
251.697, 189.090
253.065, 108.364
254.434, 2.921
255.803, 147.361
257.171, 45.202
258.539, 150.318
259.906, 307.914
261.274, 203.929
262.641, 339.994
264.008, 626.120
265.375, 651.824
266.742, 1116.536
268.108, 1171.291
269.475, 2108.256
270.840, 3092.328
272.206, 4049.361
273.572, 5572.391
274.937, 6925.418
276.302, 8798.229
277.667, 10700.278
279.032, 11022.128
280.396, 11273.150
281.760, 9932.905
283.125, 8521.799
284.488, 6610.052
285.852, 5478.019
287.215, 4115.749
288.578, 3393.215
289.941, 3260.428
291.304, 2567.581
292.666, 2514.715
294.029, 2211.807
295.391, 2018.842
296.753, 2075.820
298.114, 1912.746
299.476, 2219.617
300.837, 2006.438
302.198, 2303.205
303.558, 2384.312
304.919, 2907.796
306.279, 3271.316
307.639, 3865.795
308.999, 4753.440
310.359, 4883.534
311.718, 5782.627
313.077, 6632.531
314.436, 6686.551
315.795, 7209.320
317.154, 7389.668
318.512, 7724.529
319.870, 8017.965
321.228, 7893.277
322.586, 8244.508
323.943, 7466.468
325.300, 7526.634
326.657, 6801.154
328.014, 6116.697
329.371, 5549.270
330.727, 4624.486
332.083, 4219.928
333.439, 3455.153
334.795, 3129.295
336.150, 2803.238
337.506, 2467.017
338.861, 2190.766
340.215, 1864.490
341.570, 1628.188
342.924, 1211.858
344.279, 1435.500
345.633, 1139.652
346.986, 1213.528
348.340, 1047.065
349.693, 1091.137
351.046, 1144.635
352.399, 988.059
353.752, 1062.208
355.104, 1275.617
356.457, 1069.538
357.809, 1493.099
359.160, 1438.132
360.512, 1651.583
361.863, 1894.726
363.214, 1599.329
364.565, 2132.396
365.916, 1947.987
367.267, 2291.131
368.617, 2404.332
369.967, 2415.296
371.317, 2540.309
372.666, 2612.107
374.016, 2425.576
375.365, 2039.316
376.714, 1662.815
378.063, 1536.765
379.411, 1122.493
380.760, 1185.106
382.108, 970.115
383.456, 813.570
384.803, 856.486
386.151, 829.708
387.498, 712.702
388.845, 476.086
390.192, 939.184
391.539, 382.378
392.885, 615.377
394.231, 657.587
395.577, 389.919
396.923, 589.585
398.269, 431.189
399.614, 501.698
400.959, 434.670
402.304, 308.575
403.649, 496.220
404.993, 338.744
406.337, 497.844
407.681, 333.932
409.025, 331.172
410.369, 193.057
411.712, 241.354
413.055, 245.736
414.398, 189.166
415.741, 7.227
417.084, 222.238
418.426, 92.752
419.768, 38.188
421.110, 7.785
422.452, 72.320
423.793, 82.193
425.134, 109.631
426.475, 120.943
427.816, 88.139
429.157, 172.664
430.497, 32.867
431.837, 184.932
433.177, 15.084
434.517, 265.346
435.857, 219.186
437.196, 218.902
438.535, 418.932
439.874, 288.490
441.213, 287.971
442.551, 587.379
443.889, 336.721
445.227, 696.000
446.565, 665.221
447.903, 674.383
449.240, 823.488
450.577, 912.537
451.914, 1091.533
453.251, 1070.477
454.588, 1129.363
455.924, 1125.537
457.260, 766.979
458.596, 1085.705
459.932, 784.379
461.267, 822.998
462.602, 711.562
463.938, 510.076
465.272, 688.564
466.607, 497.018
467.941, 375.477
469.276, 333.939
470.610, 332.393
471.943, 190.906
473.277, 119.373
474.610, 58.000
475.944, 33.449
477.276, 114.959
478.609, 6.580
479.942, 138.266
481.274, 20.080
482.606, 128.037
483.938, 56.125
485.270, 84.174
486.601, 7.805
487.932, 190.154
489.263, 81.934
490.594, 315.863
491.925, 173.611
493.255, 151.309
494.585, 608.953
495.915, 326.557
497.245, 764.117
498.575, 391.637
499.904, 389.113
501.233, 596.549
502.562, 443.939
503.891, 571.293
505.219, 198.602
506.548, 255.867
507.876, 443.086
509.203, 190.264
510.531, 317.398
511.859, 344.486
513.186, 141.533
514.513, 308.537
515.840, 175.496
517.166, 251.316
518.493, 19.354
519.819, 256.203
521.145, 353.012
522.470, 39.779
523.796, 366.498
525.121, 176.824
526.446, 279.707
527.771, 256.201
529.096, 107.346
530.421, 219.064
531.745, 145.430
533.069, 151.750
534.393, 88.111
535.716, 124.428
537.040, 50.701
538.363, 193.051
539.686, 343.043
541.009, 20.822
542.331, 85.248
543.654, 201.277
544.976, 117.303
546.298, 160.748
547.620, 69.322
548.941, 115.277
550.263, 81.223
551.584, 116.672
552.905, 342.580
554.225, 18.492
555.546, 353.914
556.866, 20.236
558.186, 75.338
559.506, 411.131
560.826, 103.275
562.145, 241.359
563.465, 307.074
564.784, 47.727
566.103, 178.100
567.421, 36.520
568.740, 369.039
570.058, 143.297
571.376, 448.559
572.694, 123.904
574.011, 218.859
575.329, 149.547
576.646, 215.059
577.963, 160.102
579.279, 193.023
580.596, 65.326
581.912, 418.375
583.228, 127.725
584.544, 276.203
585.860, 140.584
587.175, 115.867
588.491, 340.852
589.806, 36.697
591.121, 198.311
592.435, 140.031
593.750, 84.531
595.064, 460.627
596.378, 135.758
597.692, 501.420
599.006, 356.789
600.319, 302.125
601.632, 697.705
602.945, 453.193
604.258, 698.717
605.571, 414.215
606.883, 849.688
608.195, 935.133
609.507, 730.553
610.819, 855.945
612.131, 1091.316
613.442, 1046.660
614.753, 1451.977
616.064, 1237.270
617.375, 1562.537
618.685, 1657.777
619.995, 1812.994
621.306, 1938.186
622.615, 2083.355
623.925, 2338.498
625.235, 2903.621
626.544, 3128.717
627.853, 3543.746
629.162, 3880.188
630.471, 4219.303
631.779, 4436.959
633.087, 4940.029
634.395, 5109.602
635.703, 5434.078
637.011, 5855.383
638.318, 5858.445
639.625, 6118.951
640.932, 6002.732
642.239, 6024.270
643.546, 6259.074
644.852, 5890.451
646.158, 5814.559
647.464, 5741.330
648.770, 5655.926
650.076, 5772.613
651.381, 5723.766
652.686, 5948.379
653.991, 6113.562
655.296, 5998.133
656.600, 6532.701
657.905, 6537.229
659.209, 6581.734
660.513, 7286.586
661.817, 7461.049
663.120, 8144.998
664.423, 8289.115
665.726, 9093.514
667.029, 9777.516
668.332, 10071.838
669.635, 11976.176
670.937, 12120.271
672.239, 13974.504
673.541, 15966.215
674.842, 17200.174
676.144, 20542.596
677.445, 22147.088
678.746, 24441.312
680.047, 26895.125
681.348, 27589.756
682.648, 29031.326
683.948, 28376.381
685.248, 27420.896
686.548, 26882.613
687.848, 24036.551
689.147, 22839.900
690.447, 20183.650
691.746, 18237.100
693.044, 16321.094
694.343, 13619.465
695.641, 12210.334
696.940, 10332.293
698.238, 8973.766
699.535, 7617.895
700.833, 6480.955
702.130, 5984.037
703.427, 4949.916
704.724, 4633.523
706.021, 3876.549
707.318, 3531.787
708.614, 3524.791
709.910, 2887.623
711.206, 2701.215
712.502, 3085.381
713.798, 2380.816
715.093, 2343.652
716.388, 1898.156
717.683, 2075.795
718.978, 1909.643
720.272, 1576.879
721.567, 1817.602
722.861, 1540.533
724.155, 1601.455
725.448, 1625.660
726.742, 988.904
728.035, 1612.363
729.328, 1605.965
730.621, 1143.057
731.914, 1425.965
733.206, 929.793
734.499, 1632.770
735.791, 756.770
737.083, 1157.281
738.374, 1210.676
739.666, 807.303
740.957, 1280.711
742.248, 733.656
743.539, 1266.918
744.830, 1000.312
746.120, 871.721
747.410, 1224.988
748.701, 707.965
749.990, 847.604
751.280, 850.920
752.570, 763.820
753.859, 997.096
755.148, 630.348
756.437, 743.775
757.725, 896.984
759.014, 630.170
760.302, 703.854
761.590, 666.994
762.878, 870.111
764.166, 683.209
765.453, 576.279
766.740, 780.127
768.027, 693.154
769.314, 926.160
770.601, 1019.143
771.887, 943.223
773.174, 785.041
774.460, 847.957
775.745, 630.850
777.031, 624.580
778.316, 657.432
779.602, 630.652
780.887, 833.457
782.172, 496.238
783.456, 989.000
784.741, 581.738
786.025, 1024.510
787.309, 647.213
788.593, 779.900
789.876, 842.594
791.160, 585.311
792.443, 1108.023
793.726, 680.766
795.009, 593.508
796.291, 1096.232
797.574, 568.943
798.856, 791.639
800.138, 984.328
801.420, 587.002
802.702, 809.688
803.983, 322.352
805.264, 464.998
806.545, 667.631
807.826, 140.236
809.107, 532.820
810.387, 285.381
811.667, 367.922
812.947, 500.441
814.227, 202.938
815.507, 565.410
816.786, 277.863
818.065, 390.295
819.344, 562.709
820.623, 245.102
821.902, 527.473
823.180, 429.824
824.459, 162.154
825.737, 564.463
827.014, 93.250
828.292, 498.947
829.569, 451.125
830.847, 163.289
832.124, 285.430
833.401, 37.551
834.677, 179.691
835.954, 351.805
837.230, 43.955
838.506, 136.086
839.782, 211.811
841.057, 230.172
842.333, 382.133
843.608, 285.924
844.883, 195.863
846.158, 107.631
847.433, 50.613
848.707, 331.070
849.981, 247.203
851.255, 294.398
852.529, 35.992
853.803, 112.441
855.076, 319.051
856.350, 319.473
857.623, 101.789
858.895, 343.031
860.168, 155.744
861.441, 445.355
862.713, 103.561
863.985, 27.422
865.257, 178.387
866.528, 20.676
867.800, 270.268
869.071, 81.193
870.342, 122.092
871.613, 183.031
872.884, 176.049
874.154, 214.732
875.425, 274.459
876.695, 316.166
877.965, 116.787
879.234, 282.604
880.504, 457.814
881.773, 88.217
883.042, 21.404
884.311, 278.918
885.580, 119.227
886.848, 329.514
888.117, 69.781
889.385, 120.027
890.653, 530.270
891.920, 120.506
893.188, 280.752
894.455, 310.982
895.722, 191.234
896.989, 501.467
898.256, 311.682
899.523, 261.891
900.789, 382.080
902.055, 192.256
903.321, 382.430
904.587, 302.584
905.852, 362.748
907.118, 462.898
908.383, 223.031
909.648, 453.145
910.913, 503.242
912.177, 143.324
913.442, 733.387
914.706, 403.432
915.970, 353.461
917.233, 723.477
918.497, 73.475
919.760, 533.445
921.024, 313.406
922.287, 343.350
923.550, 573.275
924.812, 353.188
926.075, 473.082
927.337, 542.959
928.599, 52.822
929.861, 982.662
931.122, 162.484
932.384, 902.287
933.645, 622.076
934.906, 471.848
936.167, 781.604
937.428, 241.342
938.688, 851.062
939.948, 590.770
941.208, 570.457
942.468, 910.129
943.728, 389.785
944.987, 749.424
946.247, 739.045
947.506, 578.648
948.765, 788.238
950.023, 767.807
951.282, 437.357
952.540, 806.893
953.798, 606.410
955.056, 715.912
956.314, 905.393
957.572, 524.855
958.829, 784.303
960.086, 743.107
961.343, 812.518
962.600, 1041.895
963.856, 731.270
965.113, 710.627
966.369, 859.604
967.625, 768.928
968.881, 1138.180
970.136, 387.471
971.392, 1296.744
972.647, 1315.807
973.902, 825.047
975.157, 1814.270
976.411, 1112.932
977.666, 1152.121
978.920, 1953.248
980.174, 1042.406
981.428, 1551.549
982.682, 1560.137
983.935, 1389.219
985.188, 1837.508
986.441, 1496.117
987.694, 1595.191
988.947, 1704.584
990.199, 1362.969
991.452, 2026.320
992.704, 1425.074
993.956, 1964.092
995.207, 2021.082
996.459, 1609.680
997.710, 2349.578
998.961, 1982.896
1000.212, 2271.867
1001.463, 2935.277
1002.714, 2114.230
1003.964, 2932.016
1005.214, 2767.723
1006.464, 2736.660
1007.714, 3232.957
1008.964, 3041.076
1010.213, 3029.994
1011.462, 3396.539
1012.711, 3175.449
1013.960, 3385.252
1015.209, 3153.785
1016.457, 3312.211
1017.705, 3258.430
1018.954, 3367.242
1020.201, 3405.262
1021.449, 3611.631
1022.697, 3480.076
1023.944, 4325.305
1025.191, 4342.160
1026.438, 5501.207
1027.685, 6021.102
1028.931, 7121.641
1030.177, 8540.186
1031.423, 9479.195
1032.669, 10607.266
1033.915, 12252.230
1035.161, 11371.152
1036.406, 11809.369
1037.651, 11258.414
1038.896, 9966.535
1040.141, 9004.770
1041.386, 7726.725
1042.630, 6634.973
1043.874, 5813.887
1045.118, 5211.510
1046.362, 4520.072
1047.606, 4449.180
1048.849, 3728.107
1050.092, 3606.990
1051.336, 3245.930
1052.578, 3464.533
1053.821, 2973.484
1055.064, 2648.084
1056.306, 2727.049
1057.548, 2286.018
1058.790, 2314.801
1060.032, 2633.783
1061.273, 2083.176
1062.515, 2011.658
1063.756, 2130.666
1064.997, 1799.686
1066.237, 2338.631
1067.478, 1687.584
1068.718, 1805.738
1069.959, 2104.697
1071.199, 1573.594
1072.438, 2052.480
1073.678, 1471.379
1074.918, 1580.172
1076.157, 2178.914
1077.396, 1677.662
1078.635, 2015.559
1079.873, 2214.320
1081.112, 1942.686
1082.350, 2731.342
1083.588, 3180.004
1084.826, 4418.586
1086.064, 6447.082
1087.301, 6735.516
1088.539, 5663.973
1089.776, 4392.428
1091.013, 2590.889
1092.250, 2859.344
1093.486, 2477.801
1094.723, 2156.219
1095.959, 2604.521
1097.195, 1812.818
1098.431, 2611.111
1099.666, 1939.398
1100.902, 2267.596
1102.137, 2465.785
1103.372, 1653.963
1104.607, 2202.123
1105.842, 2180.268
1107.076, 1328.402
1108.311, 1946.521
1109.545, 1524.633
1110.779, 1392.732
1112.012, 1510.822
1113.246, 848.900
1114.479, 1336.969
1115.712, 1135.033
1116.945, 583.094
1118.178, 1461.156
1119.411, 799.215
1120.643, 617.275
1121.875, 1125.342
1123.108, 573.416
1124.339, 801.504
1125.571, 629.611
1126.802, 167.736
1128.034, 515.926
1129.265, 144.145
1130.496, 442.396
1131.727, 590.695
1132.957, 180.957
1134.187, 667.898
1135.418, 346.334
1136.648, 25.150
1137.877, 493.461
1139.107, 202.186
1140.336, 261.061
1141.566, 800.717
1142.795, 150.076
1144.023, 302.328
1145.252, 31.391
1146.480, 187.701
1147.709, 516.846
1148.937, 213.980
1150.165, 545.230
1151.392, 314.652
1152.620, 115.859
1153.847, 613.736
1155.074, 313.393
1156.301, 243.000
1157.528, 682.586
1158.755, 92.217
1159.981, 221.941
1161.207, 421.754
1162.433, 8.230
1163.659, 621.834
1164.885, 188.059
1166.110, 152.074
1167.336, 592.223
1168.561, 137.621
1169.786, 292.469
1171.010, 412.582
1172.235, 137.293
1173.459, 752.863
1174.683, 7.027
1175.907, 36.898
1177.131, 573.254
1178.355, 83.426
1179.578, 543.625
1180.801, 313.840
1182.024, 104.090
1183.247, 984.363
1184.470, 84.668
1185.692, 95.008
1186.915, 1495.383
1188.137, 44.199
1189.359, 336.246
1190.580, 556.742
1191.802, 132.719
1193.023, 427.871
1194.244, 88.504
1195.465, 179.188
1196.686, 539.930
1197.907, 370.734
1199.127, 561.602
1200.347, 732.535
1201.567, 76.461
1202.787, 954.617
1204.007, 485.770
1205.226, 467.000
1206.446, 898.312
1207.665, 59.715
1208.884, 831.207
1210.102, 682.789
1211.321, 434.465
1212.539, 997.113
1213.758, 708.668
1214.976, 507.602
1216.193, 919.281
1217.411, 544.480
1218.628, 362.582
1219.846, 804.109
1221.063, 659.777
1222.280, 887.484
1223.496, 878.496
1224.713, 559.539
1225.929, 700.613
1227.145, 699.707
1228.361, 994.770
1229.577, 875.379
1230.793, 586.250
1232.008, 576.070
1233.223, 963.305
1234.438, 666.910
1235.653, 936.098
1236.868, 695.402
1238.082, 674.387
1239.297, 753.383
1240.511, 323.824
1241.725, 787.047
1242.938, 624.648
1244.152, 422.613
1245.365, 1010.398
1246.578, 649.504
1247.791, 356.336
1249.004, 1122.871
1250.217, 357.652
1251.429, 1123.453
1252.642, 539.473
1253.854, 455.191
1255.066, 1021.121
1256.277, 697.160
1257.489, 653.785
1258.700, 830.035
1259.911, 346.480
1261.122, 1213.500
1262.333, 1011.629
1263.544, 159.949
1264.754, 1028.133
1265.964, 716.422
1267.174, 596.242
1268.384, 996.215
1269.594, 727.551
1270.803, 749.449
1272.013, 832.094
1273.222, 645.605
1274.431, 910.121
1275.640, 375.836
1276.848, 1172.918
1278.057, 751.516
1279.265, 7.996
1280.473, 1124.617
1281.681, 929.707
1282.888, 177.844
1284.096, 879.770
1285.303, 573.496
1286.510, 82.828
1287.717, 1267.902
1288.924, 3.215
1290.131, 0.000
##END=



