##NAMES=Fluorapatite
##RRUFFID=R050401
##IDEAL CHEMISTRY=Ca_5_(PO_4_)_3_F
##LOCALITY=Urbano mine, Golconda District, Minas Gerais, Brazil
##OWNER=RRUFF
##SOURCE=Bob Downs
##DESCRIPTION=Pale purple hexagonal prism associated with albite R050402
##STATUS=The identification of this mineral has been confirmed by X-ray diffraction and chemical analysis
##URL=rruff.info/R050401
##MEASURED CHEMISTRY=(Ca_0.99_Mn_0.01_)_5_(P_1.00_O_4_)_3_F_1.00_
##PIN_ID=L00654
##ORIENTATION=Laser parallel to c* (0 0 1). Fiducial mark perpendicular to laser is parallel to a [1 0 0]
134.1270, 0.0000000E+00
135.3560, 0.2744140
136.5850, 19.76172
137.8140, 14.86768
139.0430, 5.447266
140.2710, 17.89893
141.5000, 6.483887
142.7280, 28.00049
143.9560, 48.63770
145.1840, 49.50781
146.4120, 78.91650
147.6390, 42.78467
148.8670, 121.1396
150.0940, 64.54980
151.3210, 66.93848
152.5490, 79.86719
153.7750, 80.19775
155.0020, 77.62158
156.2290, 104.0308
157.4550, 60.79199
158.6810, 77.72998
159.9080, 89.68262
161.1340, 127.1602
162.3590, 12.16650
163.5850, 45.92041
164.8110, 27.38428
166.0360, 89.47119
167.2610, 119.4937
168.4860, 71.52979
169.7110, 9.568848
170.9360, 62.06689
172.1610, 219.8379
173.3850, 42.31055
174.6100, 133.6670
175.8340, 147.8936
177.0580, 42.15625
178.2820, 64.13135
179.5050, 57.92822
180.7290, 83.01221
181.9520, 93.81494
183.1760, 52.48975
184.3990, 115.7979
185.6220, 51.68457
186.8450, 78.43066
188.0670, 76.34570
189.2900, 50.26953
190.5120, 147.5327
191.7340, 20.45215
192.9560, 79.59814
194.1780, 71.92773
195.4000, 182.3970
196.6220, 145.6802
197.8430, 200.1108
199.0640, 139.1108
200.2860, 101.7544
201.5070, 101.2979
202.7270, 126.7607
203.9480, 54.68896
205.1690, 86.83154
206.3890, 72.48242
207.6090, 185.3867
208.8290, 82.14990
210.0490, 82.54834
211.2690, 120.7295
212.4890, 53.51074
213.7080, 111.8345
214.9280, 130.2554
216.1470, 97.20947
217.3660, 41.43311
218.5850, 85.18701
219.8030, 181.2871
221.0220, 126.4233
222.2400, 104.3682
223.4590, 132.2021
224.6770, 39.55957
225.8950, 18.32227
227.1120, 137.1187
228.3300, 103.0322
229.5480, 155.0918
230.7650, 19.25684
231.9820, 63.01953
233.1990, 130.8701
234.4160, 50.77295
235.6330, 79.04785
236.8490, 178.6187
238.0660, 97.80420
239.2820, 183.1431
240.4980, 202.0713
241.7140, 20.38281
242.9300, 68.94971
244.1460, 21.71631
245.3610, 66.15283
246.5770, 92.36865
247.7920, 110.0063
249.0070, 103.1802
250.2220, 189.9082
251.4370, 129.6289
252.6510, 161.3765
253.8660, 20.64258
255.0800, 101.8340
256.2940, 65.59619
257.5080, 36.79785
258.7220, 208.7144
259.9360, 164.7231
261.1490, 111.0068
262.3630, 140.4634
263.5760, 189.3789
264.7890, 61.98682
266.0020, 192.1914
267.2150, 71.06006
268.4270, 52.78271
269.6400, 135.3896
270.8520, 12.93066
272.0640, 62.53613
273.2760, 98.52393
274.4880, 84.54639
275.7000, 154.7729
276.9120, 31.71582
278.1230, 35.14209
279.3340, 54.23584
280.5450, 5.030273
281.7560, 15.32666
282.9670, 32.31543
284.1780, 68.16504
285.3880, 102.0469
286.5980, 91.76367
287.8090, 101.7148
289.0190, 27.24854
290.2290, 2.680664
291.4380, 13.69434
292.6480, 46.19971
293.8570, 53.88184
295.0670, 85.45166
296.2760, 123.1401
297.4850, 71.35254
298.6930, 119.3257
299.9020, 37.21484
301.1110, 205.6743
302.3190, 24.66992
303.5270, 86.78418
304.7350, 63.16650
305.9430, 36.27979
307.1510, 107.7085
308.3580, 151.3330
309.5660, 22.94385
310.7730, 95.93506
311.9800, 63.94434
313.1870, 59.20459
314.3940, 163.9331
315.6010, 20.53906
316.8070, 26.22559
318.0130, 50.58301
319.2200, 81.18164
320.4260, 117.4106
321.6310, 135.0835
322.8370, 60.75391
324.0430, 162.8247
325.2480, 42.66895
326.4540, 19.86816
327.6590, 61.80371
328.8640, 36.03418
330.0680, 110.7705
331.2730, 119.3281
332.4780, 127.9062
333.6820, 94.81738
334.8860, 51.00293
336.0900, 104.9629
337.2940, 82.16016
338.4980, 28.90234
339.7010, 14.68359
340.9050, 117.4062
342.1080, 56.26660
343.3110, 174.9639
344.5140, 114.5283
345.7170, 26.42676
346.9200, 187.1816
348.1220, 59.52734
349.3240, 54.03320
350.5270, 136.1094
351.7290, 45.04102
352.9310, 99.03906
354.1320, 49.68164
355.3340, 140.4434
356.5350, 120.5928
357.7370, 99.21191
358.9380, 111.6758
360.1390, 33.61328
361.3400, 40.57910
362.5400, 170.5381
363.7410, 90.75293
364.9410, 186.3037
366.1410, 94.73340
367.3410, 13.73633
368.5410, 207.5400
369.7410, 50.74609
370.9400, 136.8066
372.1400, 6.966797
373.3390, 23.63965
374.5380, 8.505859
375.7370, 1.562500
376.9360, 82.05176
378.1350, 29.15723
379.3330, 216.5527
380.5310, 33.03906
381.7300, 124.1055
382.9280, 193.4307
384.1260, 117.7158
385.3230, 166.2080
386.5210, 74.83008
387.7180, 54.93164
388.9160, 139.5371
390.1130, 32.82715
391.3100, 72.19727
392.5060, 91.34180
393.7030, 51.52539
394.9000, 124.3086
396.0960, 87.54492
397.2920, 113.0967
398.4880, 158.6045
399.6840, 125.5303
400.8800, 161.7324
402.0750, 228.2607
403.2710, 67.35938
404.4660, 135.5820
405.6610, 160.8799
406.8560, 100.9131
408.0510, 167.2227
409.2450, 83.60742
410.4400, 79.38086
411.6340, 118.7148
412.8280, 35.71289
414.0220, 154.4980
415.2160, 144.1260
416.4100, 14.27246
417.6030, 139.0527
418.7970, 164.6592
419.9900, 51.72461
421.1830, 155.2861
422.3760, 116.4307
423.5690, 107.1543
424.7610, 145.8926
425.9540, 24.89746
427.1460, 250.4766
428.3380, 219.2070
429.5300, 35.46387
430.7220, 170.4912
431.9140, 43.34180
433.1050, 126.3584
434.2970, 156.6064
435.4880, 106.8320
436.6790, 170.3848
437.8700, 179.1680
439.0610, 135.5684
440.2510, 235.8389
441.4420, 276.9736
442.6320, 260.3984
443.8220, 112.3984
445.0120, 211.1631
446.2020, 166.1934
447.3910, 94.22266
448.5810, 146.6152
449.7700, 303.8027
450.9600, 167.8047
452.1490, 208.1895
453.3370, 85.61426
454.5260, 110.9482
455.7150, 47.08594
456.9030, 154.7363
458.0910, 94.86914
459.2800, 130.6367
460.4670, 206.2090
461.6550, 75.78223
462.8430, 211.6875
464.0300, 118.3896
465.2180, 38.12988
466.4050, 198.7725
467.5920, 233.4658
468.7790, 153.8623
469.9650, 203.8467
471.1520, 90.22461
472.3380, 19.88086
473.5250, 19.28906
474.7110, 14.17090
475.8970, 20.68457
477.0820, 40.42188
478.2680, 101.0312
479.4540, 201.7168
480.6390, 117.5791
481.8240, 173.4121
483.0090, 33.58398
484.1940, 182.3691
485.3780, 183.9541
486.5630, 92.29883
487.7470, 203.1025
488.9320, 50.27148
490.1160, 99.25098
491.3000, 251.9746
492.4830, 132.8193
493.6670, 138.3867
494.8500, 137.4287
496.0340, 183.3281
497.2170, 140.3457
498.4000, 59.55371
499.5820, 112.3486
500.7650, 3.791016
501.9480, 64.94043
503.1300, 266.0527
504.3120, 196.6865
505.4940, 164.2900
506.6760, 100.4023
507.8580, 114.8975
509.0390, 188.3896
510.2210, 32.47559
511.4020, 50.31250
512.5830, 274.1074
513.7640, 92.50098
514.9450, 42.68164
516.1250, 80.00195
517.3060, 20.23730
518.4860, 160.5557
519.6660, 91.02441
520.8460, 36.27637
522.0260, 91.99707
523.2060, 17.71387
524.3850, 113.1641
525.5650, 140.1807
526.7440, 74.14941
527.9230, 131.9199
529.1020, 64.46289
530.2810, 46.43848
531.4590, 224.9619
532.6380, 215.5703
533.8160, 35.75293
534.9940, 240.7520
536.1720, 128.7090
537.3500, 22.50098
538.5270, 155.0947
539.7050, 25.28711
540.8820, 213.6113
542.0590, 82.38867
543.2360, 187.7520
544.4130, 176.8662
545.5900, 126.7939
546.7660, 18.02344
547.9430, 119.8389
549.1190, 68.74219
550.2950, 164.7412
551.4710, 167.6836
552.6470, 155.1572
553.8220, 201.8213
554.9980, 80.86426
556.1730, 187.9658
557.3480, 132.3135
558.5230, 24.88379
559.6980, 252.2305
560.8730, 197.9824
562.0470, 168.4824
563.2220, 34.78809
564.3960, 132.5469
565.5700, 26.91602
566.7440, 202.9736
567.9170, 81.27930
569.0910, 73.70312
570.2640, 205.3555
571.4380, 231.7305
572.6110, 38.59961
573.7840, 138.7158
574.9570, 137.1133
576.1290, 265.4922
577.3020, 232.8223
578.4740, 167.4326
579.6460, 273.5527
580.8180, 324.2998
581.9900, 287.6162
583.1620, 250.4756
584.3330, 246.2363
585.5040, 215.7998
586.6760, 178.1230
587.8470, 242.5293
589.0180, 113.7764
590.1880, 109.8457
591.3590, 217.7021
592.5290, 152.6270
593.7000, 214.9727
594.8700, 74.37207
596.0400, 70.90137
597.2090, 163.8389
598.3790, 134.8027
599.5490, 49.57422
600.7180, 75.84473
601.8870, 101.4971
603.0560, 280.0361
604.2250, 108.2676
605.3940, 97.76465
606.5620, 267.9014
607.7300, 100.2861
608.8990, 272.1416
610.0670, 306.7158
611.2350, 261.1221
612.4020, 141.9795
613.5700, 263.8877
614.7370, 192.2031
615.9050, 246.7568
617.0720, 250.8496
618.2390, 306.3574
619.4060, 322.9277
620.5720, 33.43945
621.7390, 158.8770
622.9050, 214.1738
624.0710, 33.24805
625.2370, 172.4492
626.4030, 126.4609
627.5690, 177.8750
628.7340, 9.421875
629.9000, 171.7207
631.0650, 95.43359
632.2300, 272.8027
633.3950, 1.216797
634.5600, 179.5820
635.7240, 250.6602
636.8890, 41.91602
638.0530, 83.37695
639.2170, 241.0879
640.3810, 58.83594
641.5450, 108.8379
642.7080, 245.7012
643.8720, 118.1797
645.0350, 243.8223
646.1980, 272.2402
647.3610, 257.3867
648.5240, 147.5898
649.6870, 102.2871
650.8490, 145.7793
652.0120, 207.0156
653.1740, 132.3242
654.3360, 316.1230
655.4980, 251.6602
656.6600, 402.2676
657.8210, 221.0391
658.9830, 231.5918
660.1440, 39.31055
661.3050, 340.0996
662.4660, 252.7109
663.6270, 170.2520
664.7870, 84.88867
665.9480, 40.89648
667.1080, 79.60938
668.2680, 52.05078
669.4280, 328.8926
670.5880, 76.30078
671.7480, 389.2012
672.9070, 143.8652
674.0670, 176.9121
675.2260, 246.4961
676.3850, 104.5879
677.5440, 329.0762
678.7030, 193.4141
679.8610, 187.9785
681.0200, 54.91602
682.1780, 144.0039
683.3360, 47.68750
684.4940, 361.0020
685.6520, 104.0488
686.8090, 16.35156
687.9670, 334.1797
689.1240, 120.0059
690.2810, 270.1953
691.4380, 120.6836
692.5950, 189.0117
693.7520, 274.1680
694.9080, 241.3848
696.0650, 11.44141
697.2210, 153.0039
698.3770, 113.7109
699.5330, 263.9473
700.6880, 189.3691
701.8440, 325.0625
702.9990, 160.3398
704.1550, 228.8398
705.3100, 89.75586
706.4650, 96.90039
707.6190, 305.9863
708.7740, 30.19922
709.9290, 70.91797
711.0830, 301.2031
712.2370, 169.7148
713.3910, 104.1855
714.5450, 121.4785
715.6980, 84.93945
716.8520, 283.2109
718.0050, 150.0273
719.1580, 177.9766
720.3110, 338.3672
721.4640, 73.07422
722.6170, 247.3477
723.7700, 440.3652
724.9220, 273.1367
726.0740, 189.4512
727.2260, 381.1543
728.3780, 211.0488
729.5300, 154.9746
730.6810, 227.1387
731.8330, 147.6680
732.9840, 233.6777
734.1350, 207.5312
735.2860, 256.9961
736.4370, 347.0449
737.5880, 312.8672
738.7380, 209.0059
739.8880, 173.2715
741.0390, 82.71094
742.1890, 240.6660
743.3380, 303.1543
744.4880, 74.46484
745.6380, 474.8867
746.7870, 272.4980
747.9360, 244.9766
749.0850, 90.34766
750.2340, 329.4414
751.3830, 177.9316
752.5310, 300.2617
753.6800, 232.3262
754.8280, 226.5176
755.9760, 252.3320
757.1240, 295.4707
758.2720, 153.7461
759.4190, 307.3184
760.5670, 137.5410
761.7140, 70.79492
762.8610, 371.2832
764.0080, 168.3164
765.1550, 54.62891
766.3020, 266.4355
767.4480, 155.1250
768.5950, 293.5586
769.7410, 309.6680
770.8870, 27.48633
772.0330, 435.0117
773.1780, 192.8184
774.3240, 177.3086
775.4690, 302.7910
776.6140, 152.8867
777.7590, 178.1172
778.9040, 175.4629
780.0490, 302.6094
781.1940, 120.6484
782.3380, 211.4590
783.4820, 48.66797
784.6260, 194.1895
785.7700, 176.0645
786.9140, 35.29883
788.0580, 187.4355
789.2010, 278.9004
790.3450, 231.3438
791.4880, 47.45898
792.6310, 397.0781
793.7730, 152.2969
794.9160, 220.8750
796.0590, 75.24805
797.2010, 3.835938
798.3430, 236.5254
799.4850, 126.7383
800.6270, 16.51758
801.7690, 315.2461
802.9100, 235.2031
804.0520, 216.7422
805.1930, 318.4863
806.3340, 441.9297
807.4750, 262.5840
808.6160, 240.1230
809.7560, 93.77148
810.8970, 213.4512
812.0370, 277.3672
813.1770, 265.0625
814.3170, 253.1934
815.4570, 203.1172
816.5960, 216.6797
817.7360, 317.1484
818.8750, 393.8809
820.0140, 310.0332
821.1530, 386.5684
822.2920, 360.4727
823.4310, 73.25781
824.5690, 444.3105
825.7070, 106.9258
826.8460, 281.5684
827.9840, 193.7715
829.1220, 199.2773
830.2590, 1.988281
831.3970, 28.00000
832.5340, 88.73242
833.6710, 102.0371
834.8080, 125.2559
835.9450, 195.2402
837.0820, 117.8359
838.2190, 200.9453
839.3550, 58.60547
840.4910, 17.49805
841.6270, 162.5859
842.7630, 39.00391
843.8990, 157.3906
845.0350, 378.5840
846.1700, 325.2793
847.3060, 195.2559
848.4410, 34.24414
849.5760, 45.53320
850.7100, 233.4238
851.8450, 104.3887
852.9800, 291.0566
854.1140, 490.5742
855.2480, 137.4785
856.3820, 292.7129
857.5160, 163.8926
858.6500, 21.14844
859.7830, 34.90430
860.9170, 254.5664
862.0500, 378.5508
863.1830, 256.1270
864.3160, 376.4219
865.4480, 269.6270
866.5810, 457.2617
867.7130, 134.8281
868.8460, 101.0020
869.9780, 167.4688
871.1100, 235.8047
872.2410, 170.2949
873.3730, 176.1035
874.5050, 220.7109
875.6360, 212.2656
876.7670, 176.0645
877.8980, 209.5332
879.0290, 134.6191
880.1590, 140.9121
881.2900, 266.5625
882.4200, 365.8867
883.5500, 27.89062
884.6800, 263.8281
885.8100, 261.8242
886.9400, 473.8867
888.0690, 67.26367
889.1990, 143.7227
890.3280, 410.2051
891.4570, 70.25391
892.5860, 201.6758
893.7140, 71.17383
894.8430, 87.01562
895.9710, 212.4434
897.1000, 239.1113
898.2280, 186.2148
899.3560, 80.76367
900.4830, 5.597656
901.6110, 84.10742
902.7380, 267.0352
903.8660, 94.42578
904.9930, 295.1465
906.1200, 300.1309
907.2460, 45.68750
908.3730, 34.59766
909.5000, 287.6250
910.6260, 213.7363
911.7520, 49.66016
912.8780, 411.7266
914.0040, 224.0156
915.1290, 51.97852
916.2550, 526.3145
917.3800, 60.75195
918.5050, 278.6035
919.6300, 269.4160
920.7550, 164.1172
921.8800, 206.6367
923.0040, 159.9023
924.1290, 61.44727
925.2530, 155.3184
926.3770, 137.9492
927.5010, 177.2031
928.6250, 226.3477
929.7480, 261.5195
930.8720, 48.06445
931.9950, 394.2480
933.1180, 17.02734
934.2410, 244.2871
935.3640, 227.5781
936.4860, 102.7520
937.6090, 66.22266
938.7310, 149.3223
939.8530, 325.3105
940.9750, 270.2500
942.0970, 199.2617
943.2180, 290.3379
944.3400, 208.2910
945.4610, 245.3320
946.5820, 21.10547
947.7030, 71.80664
948.8240, 27.02734
949.9450, 68.71680
951.0650, 199.2070
952.1860, 222.7246
953.3060, 316.6289
954.4260, 176.7188
955.5460, 114.5332
956.6650, 140.5547
957.7850, 373.5215
958.9040, 379.7578
960.0230, 164.6758
961.1420, 728.2754
962.2610, 575.7988
963.3800, 674.9219
964.4990, 1399.062
965.6170, 1642.441
966.7350, 1440.145
967.8530, 939.6094
968.9710, 901.9648
970.0890, 189.5195
971.2070, 665.7344
972.3240, 211.1797
973.4410, 121.1172
974.5580, 165.7461
975.6750, 141.5117
976.7920, 229.2188
977.9090, 259.4180
979.0250, 232.0547
980.1410, 179.4297
981.2580, 117.7383
982.3740, 123.4961
983.4890, 67.50391
984.6050, 387.9609
985.7200, 279.9062
986.8360, 169.1211
987.9510, 319.0234
989.0660, 92.26172
990.1810, 58.70703
991.2950, 9.085938
992.4100, 121.6172
993.5240, 28.32031
994.6390, 207.7109
995.7530, 254.5586
996.8660, 124.6055
997.9800, 233.4297
999.0940, 151.8281
1000.207, 334.6758
1001.320, 322.0078
1002.433, 273.5391
1003.546, 349.4336
1004.659, 225.5234
1005.772, 209.1641
1006.884, 429.5234
1007.996, 176.8867
1009.108, 24.42578
1010.220, 198.8945
1011.332, 234.2070
1012.444, 252.6445
1013.555, 264.7422
1014.666, 19.87109
1015.777, 40.50391
1016.888, 164.1484
1017.999, 5.546875
1019.110, 184.0977
1020.220, 222.6328
1021.331, 241.1914
1022.441, 45.33203
1023.551, 121.3398
1024.661, 71.40234
1025.770, 94.27344
1026.880, 130.8633
1027.989, 155.2969
1029.098, 344.5430
1030.207, 340.7461
1031.316, 408.8828
1032.425, 311.0547
1033.533, 364.2031
1034.642, 343.7930
1035.750, 70.01172
1036.858, 514.3125
1037.966, 3.703125
1039.073, 80.96875
1040.181, 350.2227
1041.288, 196.2266
1042.396, 357.9297
1043.503, 313.1602
1044.610, 167.5977
1045.716, 3.363281
1046.823, 37.55469
1047.929, 12.74219
1049.036, 119.2969
1050.142, 288.4648
1051.248, 99.23438
1052.353, 242.3906
1053.459, 341.5000
1054.564, 151.4844
1055.670, 236.5859
1056.775, 285.4883
1057.880, 81.17578
1058.985, 298.0742
1060.089, 428.9062
1061.194, 236.9180
1062.298, 262.9922
1063.402, 331.0703
1064.506, 141.7266
1065.610, 248.8047
1066.713, 247.3750
1067.817, 5.535156
1068.920, 387.5391
1070.023, 379.2422
1071.126, 147.3086
1072.229, 319.3477
1073.332, 195.4414
1074.435, 203.5312
1075.537, 177.6211
1076.639, 302.2188
1077.741, 179.3203
1078.843, 317.4219
1079.945, 240.3828
1081.046, 259.7852
1082.148, 605.0938
1083.249, 277.4922
1084.350, 296.6250
1085.451, 46.75781
1086.551, 265.8984
1087.652, 222.0430
1088.752, 255.1875
1089.853, 196.3438
1090.953, 305.5000
1092.053, 567.6719
1093.152, 78.85156
1094.252, 236.0469
1095.351, 361.2422
1096.451, 22.54688
1097.550, 156.8750
1098.649, 225.0938
1099.748, 28.65234
1100.846, 151.5078
1101.945, 237.7695
1103.043, 20.04297
1104.141, 98.32422
1105.239, 205.6250
1106.337, 73.93359
1107.434, 90.26172
1108.532, 225.6133
1109.629, 109.9727
1110.726, 422.3594
1111.823, 166.7617
1112.920, 82.17969
1114.017, 251.7344
1115.113, 256.1758
1116.210, 252.4297
1117.306, 263.9336
1118.402, 361.4531
1119.498, 1.992188
1120.593, 278.5352
1121.689, 356.0898
1122.784, 14.38281
1123.879, 233.6758
1124.974, 43.27734
1126.069, 62.00391
1127.164, 137.6328
1128.259, 42.28516
1129.353, 29.95703
1130.447, 38.35156
1131.541, 60.33203
1132.635, 204.9648
1133.729, 428.6641
1134.822, 373.3086
1135.916, 150.0156
1137.009, 304.6133
1138.102, 303.2539
1139.195, 40.92969
1140.288, 94.61328
1141.380, 513.8906
1142.473, 148.6250
1143.565, 411.3789
1144.657, 334.1797
1145.749, 104.0039
1146.841, 568.3125
1147.932, 468.3320
1149.024, 299.2227
1150.115, 610.0273
1151.206, 72.97266
1152.297, 289.9453
1153.388, 316.9414
1154.479, 273.3281
1155.569, 329.3828
1156.659, 188.3281
1157.750, 258.9062
1158.839, 4.929688
1159.929, 354.2578
1161.019, 402.4766
1162.108, 102.7266
1163.198, 269.0000
1164.287, 473.3203
1165.376, 271.6680
1166.465, 176.0625
1167.553, 269.4609
1168.642, 300.9180
1169.730, 157.6055
1170.818, 421.1211
1171.906, 47.66797
1172.994, 314.2734
1174.082, 493.9336
1175.170, 57.37891
1176.257, 201.3203
1177.344, 375.5508
1178.431, 166.9688
1179.518, 583.6875
1180.605, 146.5469
1181.691, 202.4375
1182.778, 98.36719
1183.864, 52.66797
1184.950, 192.3086
1186.036, 323.3828
1187.122, 403.4336
1188.207, 119.5195
1189.292, 792.6445
1190.378, 312.8008
1191.463, 203.0000
1192.548, 426.2344
1193.632, 311.5039
1194.717, 232.8125
1195.801, 198.1836
1196.886, 701.5898
1197.970, 75.04688
1199.054, 350.8984
1200.137, 534.4258
1201.221, 64.00391
1202.305, 459.5898
1203.388, 121.2188
1204.471, 52.88672
1205.554, 495.5977
1206.637, 51.66016
1207.719, 383.1133
1208.802, 239.9258
1209.884, 422.7734
1210.966, 426.5273
1212.048, 162.6172
1213.130, 381.6211
1214.212, 227.6680
1215.293, 312.7578
1216.374, 327.8867
1217.456, 374.0547
1218.536, 537.2578
1219.617, 544.3633
1220.698, 382.8047
1221.778, 599.1367
1222.859, 179.5117
1223.939, 44.93359
1225.019, 206.3906
1226.099, 445.8906
1227.178, 11.58203
1228.258, 174.0039
1229.337, 425.6328
1230.417, 98.96094
1231.496, 698.7305
1232.574, 209.4648
1233.653, 576.9883
1234.732, 167.8086
1235.810, 334.6758
1236.888, 190.5859
1237.966, 128.5352
1239.044, 276.5391
1240.122, 316.5820
1241.199, 110.7930
1242.277, 652.9297
1243.354, 134.8906
1244.431, 634.2969
1245.508, 251.5312
1246.585, 121.8164
1247.661, 384.1406
1248.738, 437.5234
1249.814, 235.1953
1250.890, 576.6602
1251.966, 422.1797
1253.042, 19.41406
1254.117, 351.2031
1255.193, 658.8672
1256.268, 218.0117
1257.343, 617.7734
1258.418, 505.5820
1259.493, 399.9727
1260.567, 623.4805
1261.642, 417.4336
1262.716, 558.7578
1263.790, 385.8125
1264.864, 356.9180
1265.938, 440.3945
1267.011, 434.6016
1268.085, 573.8594
1269.158, 131.1641
1270.231, 576.5234
1271.304, 324.9375
1272.377, 95.40625
1273.450, 436.4688
1274.522, 11.04297
1275.594, 700.6680
1276.666, 278.1562
1277.738, 700.0781
1278.810, 938.6953
1279.882, 1003.891
1280.953, 375.9609
1282.025, 643.1562
1283.096, 551.6641
1284.167, 445.5234
1285.238, 838.8047
1286.308, 311.8945
1287.379, 697.3945
1288.449, 718.2734
1289.519, 906.3398
1290.589, 733.5430
1291.659, 672.2891
1292.729, 975.3906
1293.798, 1075.297
1294.868, 861.1914
1295.937, 1060.113
1297.006, 521.1250
1298.075, 629.7773
1299.143, 1017.824
1300.212, 822.1016
1301.280, 1027.852
1302.348, 1080.758
1303.416, 438.8047
1304.484, 1003.168
1305.552, 1047.199
1306.620, 554.6602
1307.687, 1080.016
1308.754, 661.5156
1309.821, 580.0234
1310.888, 752.1250
1311.955, 659.9766
1313.021, 982.6367
1314.088, 905.8711
1315.154, 793.2891
1316.220, 837.3008
1317.286, 437.8125
1318.352, 861.2852
1319.417, 722.6328
1320.483, 863.5391
1321.548, 1067.754
1322.613, 787.1016
1323.678, 1019.891
1324.743, 456.5703
1325.807, 559.4180
1326.872, 590.6289
1327.936, 1047.652
1329.000, 488.3594
1330.064, 570.8750
1331.128, 408.2969
1332.191, 236.0078
1333.255, 783.7656
1334.318, 466.5742
1335.381, 488.9297
1336.444, 627.8398
1337.507, 383.8008
1338.569, 950.8125
1339.632, 530.8789
1340.694, 191.9922
1341.756, 654.1602
1342.818, 689.3828
1343.880, 601.6562
1344.941, 409.9766
1346.003, 459.3477
1347.064, 719.7734
1348.125, 304.2461
1349.186, 663.7773
1350.247, 234.3594
1351.308, 506.9961
1352.368, 758.6836
1353.428, 141.4258
1354.489, 429.2266
1355.549, 847.8672
1356.608, 168.7852
1357.668, 351.7539
1358.727, 277.8750
1359.787, 362.9648
1360.846, 369.1133
1361.905, 607.2812
1362.964, 383.5000
1364.022, 237.7773
1365.081, 736.1133
1366.139, 446.5039
1367.197, 251.9531
1368.255, 71.53906
1369.313, 590.0156
1370.371, 270.6289
1371.428, 244.1484
1372.486, 334.8477
1373.543, 72.60938
1374.600, 516.4219
1375.657, 563.2930
1376.713, 30.22266
1377.770, 593.2188
1378.826, 389.2656
1379.882, 14.62891
1380.938, 182.2188
1381.994, 352.4375
1383.050, 407.7148
1384.106, 560.0664
1385.161, 576.4688
1386.216, 44.06250
1387.271, 150.4531
1388.326, 536.0352
1389.381, 348.6797
1390.435, 891.4258
1391.490, 412.2344
1392.544, 4.898438
1393.598, 475.0586
1394.652, 415.0742
1395.705, 454.1523
1396.759, 303.2891
1397.812, 348.4844
1398.866, 666.7461
1399.919, 212.9336
1400.972, 625.4258
1402.024, 527.8477
1403.077, 178.3320
1404.129, 875.8828
1405.181, 392.4922
1406.233, 157.1719
1407.285, 501.9141
1408.337, 118.7227
1409.389, 241.6016
1410.440, 420.5469
1411.491, 625.5586
1412.542, 227.6406
1413.593, 590.7891
1414.644, 571.0156
1415.695, 57.30859
1416.745, 298.6797
1417.795, 460.1211
1418.845, 147.8359
1419.895, 357.7461
1420.945, 267.3984
1421.995, 290.1328
1423.044, 304.9531
1424.093, 338.8477
1425.142, 93.94141
1426.191, 271.0039
1427.240, 181.1602
1428.289, 706.4023
1429.337, 244.7305
1430.385, 350.1523
1431.433, 472.6875
1432.481, 328.3125
1433.529, 421.0469
1434.577, 522.8594
1435.624, 614.4727
1436.672, 437.5039
1437.719, 490.6406
1438.766, 465.8906
1439.812, 601.2695
1440.859, 661.7773
1441.905, 383.1211
1442.952, 508.4648
1443.998, 481.8672
1445.044, 295.2773
1446.090, 841.5312
1447.135, 536.7227
1448.181, 290.9102
1449.226, 755.9688
1450.271, 495.1055
1451.316, 349.3242
1452.361, 408.6328
1453.405, 593.0273
1454.450, 29.50391
1455.494, 464.0781
1456.538, 398.7305
1457.582, 68.46484
1458.626, 601.2773
1459.670, 500.1758
1460.713, 74.15625
1461.757, 514.2148
1462.800, 572.3594
1463.843, 84.58594
1464.886, 131.8906
1465.928, 311.2812
1466.971, 310.7852
1468.013, 340.3750
1469.055, 730.0469
1470.097, 352.8008
1471.139, 238.2656
1472.181, 592.1758
1473.222, 431.2148
1474.263, 221.3398
1475.305, 537.5469
1476.346, 290.8398
1477.386, 534.0625
1478.427, 625.5352
1479.468, 614.0898
1480.508, 548.0156
1481.548, 517.7344
1482.588, 748.5391
1483.628, 290.3633
1484.668, 579.3359
1485.707, 987.3906
1486.747, 177.5039
1487.786, 656.6250
1488.825, 781.8281
1489.864, 585.1133
1490.902, 149.4688
1491.941, 404.9023
1492.979, 184.4219
1494.017, 557.0156
1495.055, 550.6797
1496.093, 263.0703
1497.131, 269.8047
1498.168, 466.6094
1499.206, 600.4844
1500.243, 556.4180
1501.280, 563.4141
1502.317, 771.4727
1503.354, 637.5820
1504.390, 714.7109
1505.426, 686.8438
1506.463, 463.0234
1507.499, 514.2188
1508.535, 932.4492
1509.570, 377.7148
1510.606, 775.0273
1511.641, 1033.449
1512.676, 580.9961
1513.711, 519.6797
1514.746, 388.4883
1515.781, 693.4297
1516.816, 424.5078
1517.850, 633.7148
1518.884, 934.0547
1519.918, 327.5352
1520.952, 799.1445
1521.986, 793.9023
1523.019, 118.8164
1524.053, 993.8633
1525.086, 507.0547
1526.119, 110.3789
1527.152, 559.8672
1528.185, 674.4961
1529.217, 665.2695
1530.250, 471.3984
1531.282, 621.6875
1532.314, 674.1406
1533.346, 373.7578
1534.377, 669.6367
1535.409, 264.7812
1536.440, 323.1328
1537.472, 882.6914
1538.503, 267.4688
1539.534, 534.4922
1540.564, 562.7812
1541.595, 206.3477
1542.625, 24.78516
1543.656, 447.4023
1544.686, 347.9062
1545.716, 87.76172
1546.745, 593.9805
1547.775, 333.5781
1548.804, 4.417969
1549.834, 569.0156
1550.863, 583.9102
1551.892, 223.2891
1552.920, 326.1797
1553.949, 266.6250
1554.977, 204.6523
1556.006, 373.3242
1557.034, 313.6914
1558.062, 248.1641
1559.089, 58.26562
1560.117, 459.1406
1561.144, 129.1641
1562.172, 292.3281
1563.199, 423.5352
1564.226, 437.8633
1565.252, 69.79297
1566.279, 110.6172
1567.305, 91.13672
1568.332, 232.2227
1569.358, 137.3438
1570.384, 61.97656
1571.409, 0.0000000E+00
##END=



