##NAMES=Fluorapophyllite-(K)
##RRUFFID=R050021
##IDEAL CHEMISTRY=KCa_4_Si_8_O_20_F&#183;8H_2_O
##LOCALITY=Poona, Maharashtra State, India
##OWNER=RRUFF
##SOURCE=Eugene Schlepp
##DESCRIPTION=Colorless tetragonal prisms
##STATUS=The identification of this mineral has been confirmed by X-ray diffraction and chemical analysis
##URL=rruff.info/R050021
##MEASURED CHEMISTRY=(K_0.98_Na_0.02_)_Σ=1_Ca_4.00_Si_8.00_O_20_(F_0.84_(OH)_0.16_)_Σ=1_·8H_2_O
##PIN_ID=L00208
##ORIENTATION=Laser parallel to -c* (0 0 -1). Fiducial mark perpendicular to laser is parallel to a [1 0 0]
103.820, 0.000
105.212, 2148.110
106.604, 7069.481
107.995, 12997.116
109.387, 18858.830
110.777, 16158.485
112.168, 9436.489
113.559, 5388.025
114.949, 2521.395
116.339, 1592.430
117.729, 747.033
119.119, 483.768
120.508, 0.550
121.897, 178.729
123.286, 105.396
124.675, 147.477
126.063, 125.982
127.452, 51.392
128.840, 431.302
130.228, 300.095
131.615, 439.291
133.003, 521.533
134.390, 620.555
135.777, 1278.151
137.164, 1806.172
138.550, 3074.608
139.937, 4416.078
141.323, 5803.477
142.709, 6036.295
144.094, 4331.184
145.480, 3234.642
146.865, 2216.648
148.250, 1897.836
149.635, 1230.061
151.019, 1102.998
152.403, 1045.420
153.788, 896.566
155.171, 976.555
156.555, 805.493
157.939, 1033.478
159.322, 1010.589
160.705, 1396.903
162.088, 2292.487
163.470, 3167.398
164.853, 4581.689
166.235, 5985.402
167.617, 8068.577
168.998, 8441.256
170.380, 7313.721
171.761, 5755.960
173.142, 3451.117
174.523, 2657.356
175.904, 1712.300
177.284, 1381.057
178.664, 1233.971
180.044, 1016.637
181.424, 931.290
182.803, 687.076
184.183, 919.207
185.562, 850.205
186.940, 1041.102
188.319, 1012.133
189.698, 913.341
191.076, 906.854
192.454, 961.881
193.831, 1064.823
195.209, 1254.172
196.586, 1391.896
197.963, 1591.967
199.340, 1772.784
200.717, 1912.583
202.093, 1982.215
203.470, 2382.020
204.846, 2381.991
206.221, 2182.120
207.597, 2032.397
208.972, 1742.812
210.347, 1763.353
211.722, 1444.013
213.097, 1454.783
214.472, 1235.657
215.846, 1166.626
217.220, 1077.687
218.594, 808.832
219.967, 950.059
221.341, 651.359
222.714, 932.727
224.087, 694.140
225.460, 895.582
226.832, 1107.037
228.204, 1288.503
229.577, 1889.981
230.948, 1741.472
232.320, 2022.968
233.692, 1715.000
235.063, 1493.746
236.434, 1370.723
237.805, 873.535
239.175, 595.966
240.545, 272.445
241.916, 204.616
243.286, 93.225
244.655, 69.311
246.025, 31.871
247.394, 250.939
248.763, 125.739
250.132, 222.530
251.501, 303.310
252.869, 180.078
254.237, 273.833
255.605, 169.588
256.973, 175.426
258.340, 165.468
259.708, 169.832
261.075, 78.579
262.442, 89.336
263.808, 78.984
265.175, 288.404
266.541, 267.798
267.907, 477.233
269.273, 610.983
270.639, 516.835
272.004, 763.409
273.369, 380.248
274.734, 456.939
276.099, 323.583
277.463, 110.141
278.828, 105.658
280.192, 109.088
281.556, 86.334
282.919, 228.069
284.283, 82.405
285.646, 157.462
287.009, 151.436
288.372, 39.256
289.734, 201.881
291.097, 73.957
292.459, 50.183
293.821, 245.666
295.183, 201.521
296.544, 327.379
297.905, 653.233
299.266, 429.078
300.627, 734.913
301.988, 720.734
303.348, 766.538
304.709, 952.312
306.069, 738.029
307.428, 1223.665
308.788, 1199.211
310.147, 1564.670
311.507, 1670.052
312.865, 1635.357
314.224, 2040.584
315.583, 1955.725
316.941, 2280.783
318.299, 2125.767
319.657, 2460.678
321.015, 2665.521
322.372, 2700.303
323.729, 2975.025
325.086, 2689.693
326.443, 2834.308
327.800, 2388.873
329.156, 2143.392
330.512, 2117.866
331.868, 1642.300
333.224, 1756.693
334.579, 1531.048
335.935, 1555.363
337.290, 1709.626
338.645, 1683.694
339.999, 1977.444
341.354, 1700.822
342.708, 1963.764
344.062, 1546.316
345.416, 1418.556
346.769, 1310.548
348.123, 842.509
349.476, 1194.483
350.829, 756.471
352.182, 618.469
353.534, 630.480
354.887, 452.490
356.239, 594.402
357.591, 266.162
358.942, 327.740
360.294, 279.208
361.645, 90.560
362.996, 41.874
364.347, 76.796
365.698, 45.472
367.048, 14.145
368.398, 47.192
369.748, 38.545
371.098, 150.089
372.448, 301.253
373.797, 77.377
375.146, 193.988
376.495, 205.367
377.844, 156.761
379.192, 348.169
380.540, 59.641
381.889, 401.125
383.236, 82.661
384.584, 404.225
385.932, 385.801
387.279, 537.430
388.626, 819.070
389.973, 840.725
391.319, 1252.430
392.666, 1474.148
394.012, 1725.896
395.358, 2237.660
396.704, 2319.449
398.049, 3001.281
399.394, 2753.095
400.740, 2974.918
402.084, 3226.705
403.429, 2868.130
404.774, 3188.986
406.118, 2617.661
407.462, 2557.812
408.806, 2104.348
410.150, 1803.417
411.493, 1740.523
412.836, 1351.712
414.179, 1538.017
415.522, 1172.211
416.865, 1220.674
418.207, 1265.879
419.549, 1050.872
420.891, 1356.674
422.233, 1312.369
423.575, 1713.971
424.916, 2064.434
426.257, 2624.789
427.598, 3687.226
428.939, 4249.656
430.279, 5752.148
431.619, 6494.654
432.959, 6897.164
434.299, 6959.711
435.639, 5632.254
436.978, 4744.796
438.318, 3167.333
439.657, 2718.734
440.996, 2040.139
442.334, 1231.211
443.673, 1262.342
445.011, 566.096
446.349, 629.046
447.687, 517.404
449.024, 186.568
450.361, 427.278
451.699, 43.881
453.036, 355.478
454.372, 51.684
455.709, 134.479
457.045, 427.091
458.381, 109.914
459.717, 412.738
461.053, 375.564
462.388, 578.396
463.724, 631.228
465.059, 434.076
466.394, 666.929
467.728, 469.786
469.063, 682.646
470.397, 655.509
471.731, 688.380
473.065, 1141.254
474.398, 1004.133
475.732, 1637.017
477.065, 2239.904
478.398, 2682.798
479.731, 3915.695
481.063, 5038.600
482.396, 7461.510
483.728, 9084.427
485.060, 12627.351
486.391, 14300.279
487.723, 14033.215
489.054, 13556.160
490.385, 9999.113
491.716, 8352.069
493.047, 6325.036
494.377, 4528.012
495.708, 4020.993
497.038, 2863.984
498.368, 2906.987
499.697, 2349.999
501.027, 2203.021
502.356, 2466.057
503.685, 1959.106
505.014, 2232.172
506.342, 2015.256
507.671, 1828.358
508.999, 1891.489
510.327, 1494.639
511.655, 1827.844
512.982, 1421.067
514.310, 1594.312
515.637, 1657.574
516.964, 1570.857
518.291, 1854.158
519.617, 1837.481
520.944, 2230.824
522.270, 2163.768
523.596, 2306.428
524.921, 3034.764
526.247, 2825.193
527.572, 3657.150
528.897, 3920.325
530.222, 4513.201
531.547, 5367.570
532.871, 5783.730
534.196, 6822.914
535.520, 7546.655
536.844, 8210.260
538.167, 9313.884
539.491, 9028.827
540.814, 9972.123
542.137, 9394.690
543.460, 9321.113
544.783, 9154.943
546.105, 8027.406
547.427, 8411.169
548.749, 7155.143
550.071, 7077.513
551.393, 6581.498
552.714, 6009.001
554.035, 6323.162
555.356, 5640.197
556.677, 5689.553
557.998, 5753.453
559.318, 5277.710
560.638, 5881.641
561.958, 5496.280
563.278, 5886.973
564.597, 6020.957
565.917, 6194.990
567.236, 6939.078
568.555, 6913.540
569.874, 7943.295
571.192, 8447.613
572.511, 9378.981
573.829, 10973.818
575.147, 11758.453
576.464, 14053.878
577.782, 15828.718
579.099, 17808.857
580.416, 21143.863
581.733, 22789.260
583.050, 26725.809
584.366, 27591.014
585.683, 29052.797
586.999, 28418.004
588.315, 25793.219
589.630, 24528.717
590.946, 20133.949
592.261, 17588.525
593.576, 15283.773
594.891, 12069.380
596.206, 10654.812
597.520, 8270.079
598.834, 7428.115
600.148, 6393.419
601.462, 5068.781
602.776, 4831.881
604.089, 3887.342
605.402, 3701.471
606.715, 3107.057
608.028, 2632.863
609.341, 2601.561
610.653, 2037.300
611.965, 1903.340
613.277, 1829.122
614.589, 1534.908
615.901, 1652.013
617.212, 1197.805
618.523, 1503.629
619.834, 1259.693
621.145, 1015.490
622.456, 1304.521
623.766, 940.329
625.076, 1156.873
626.386, 882.683
627.696, 998.494
629.006, 1045.132
630.315, 710.944
631.624, 1106.758
632.933, 772.571
634.242, 908.385
635.551, 964.199
636.859, 740.021
638.167, 965.842
639.475, 741.663
640.783, 677.483
642.090, 953.304
643.398, 649.121
644.705, 1024.940
646.012, 800.756
647.318, 956.571
648.625, 1042.386
649.931, 658.198
651.237, 1164.009
652.543, 589.817
653.849, 875.625
655.155, 1022.155
656.460, 917.957
657.765, 1123.756
659.070, 879.553
660.375, 935.375
661.679, 1311.314
662.984, 817.130
664.288, 1272.949
665.592, 951.076
666.895, 966.902
668.199, 1051.268
669.502, 707.083
670.805, 903.010
672.108, 609.181
673.411, 594.998
674.713, 570.881
676.016, 176.687
677.318, 572.486
678.620, 298.834
679.921, 194.622
681.223, 460.433
682.524, 46.235
683.825, 262.047
685.126, 2.055
686.427, 173.749
687.727, 179.548
689.028, 54.309
690.328, 211.488
691.628, 17.299
692.927, 83.100
694.227, 168.894
695.526, 185.177
696.825, 360.500
698.124, 143.833
699.423, 48.255
700.721, 47.285
702.020, 137.187
703.318, 238.253
704.616, 33.683
705.913, 130.900
707.211, 44.428
708.508, 50.256
709.805, 15.014
711.102, 39.731
712.399, 234.520
713.695, 160.546
714.992, 15.600
716.288, 110.636
717.584, 5.660
718.879, 89.338
720.175, 245.590
721.470, 298.552
722.765, 276.178
724.060, 30.895
725.355, 64.406
726.649, 130.227
727.944, 85.154
729.238, 49.387
730.532, 133.910
731.825, 141.584
733.119, 232.811
734.412, 52.812
735.705, 131.499
736.998, 55.793
738.291, 147.313
739.584, 126.841
740.876, 69.025
742.168, 155.029
743.460, 149.063
744.752, 73.079
746.043, 197.072
747.334, 108.954
748.626, 234.916
749.916, 58.769
751.207, 102.597
752.498, 226.403
753.788, 159.811
755.078, 156.464
756.368, 190.099
757.658, 76.288
758.947, 317.236
760.237, 89.262
761.526, 235.435
762.815, 118.818
764.104, 2.176
765.392, 445.482
766.680, 88.766
767.969, 242.023
769.257, 345.258
770.544, 38.470
771.832, 241.643
773.119, 154.793
774.406, 97.920
775.693, 251.020
776.980, 4.098
778.267, 408.646
779.553, 61.645
780.839, 204.611
782.125, 367.553
783.411, 60.471
784.697, 533.359
785.982, 276.219
787.267, 469.059
788.552, 561.871
789.837, 424.664
791.122, 909.082
792.406, 691.822
793.690, 804.539
794.974, 957.232
796.258, 589.900
797.542, 852.545
798.825, 305.166
800.108, 417.760
801.391, 310.332
802.674, 252.879
803.957, 375.400
805.239, 177.896
806.522, 190.371
807.804, 302.820
809.085, 75.244
810.367, 307.637
811.649, 200.004
812.930, 212.348
814.211, 301.111
815.492, 153.404
816.772, 425.672
818.053, 319.312
819.333, 41.529
820.613, 306.561
821.893, 61.293
823.173, 220.754
824.452, 166.906
825.732, 108.900
827.011, 290.865
828.290, 172.809
829.568, 294.721
830.847, 216.615
832.125, 98.479
833.403, 310.312
834.681, 182.121
835.959, 263.904
837.236, 285.664
838.514, 167.396
839.791, 518.828
841.068, 250.510
842.345, 112.166
843.621, 411.225
844.898, 232.830
846.174, 324.285
847.450, 386.166
848.726, 147.730
850.001, 387.975
851.277, 209.488
852.552, 422.100
853.827, 480.602
855.102, 161.938
856.376, 404.643
857.651, 206.041
858.925, 597.225
860.199, 590.008
861.473, 241.174
862.746, 558.814
864.020, 379.797
865.293, 227.895
866.566, 433.678
867.839, 214.910
869.112, 445.781
870.384, 196.973
871.656, 177.455
872.928, 531.883
874.200, 33.018
875.472, 564.113
876.744, 155.227
878.015, 405.988
879.286, 701.555
880.557, 82.615
881.828, 346.715
883.098, 287.457
884.369, 158.469
885.639, 348.795
886.909, 79.824
888.178, 205.623
889.448, 436.623
890.717, 22.693
891.987, 406.863
893.256, 57.771
894.524, 112.111
895.793, 503.016
897.061, 83.967
898.330, 264.629
899.598, 265.553
900.865, 287.129
902.133, 438.033
903.401, 178.570
904.668, 269.277
905.935, 220.145
907.202, 41.758
908.468, 369.064
909.735, 79.877
911.001, 172.953
912.267, 323.744
913.533, 24.088
914.799, 596.672
916.064, 167.270
917.330, 94.979
918.595, 445.715
919.860, 36.152
921.124, 406.873
922.389, 57.586
923.653, 136.979
924.918, 357.678
926.182, 68.340
927.445, 348.756
928.709, 439.434
929.972, 33.125
931.236, 437.525
932.499, 157.436
933.761, 358.072
935.024, 298.705
936.286, 138.508
937.549, 419.129
938.811, 119.746
940.073, 320.359
941.334, 480.969
942.596, 38.428
943.857, 342.154
945.118, 132.734
946.379, 163.309
947.640, 503.879
948.900, 144.447
950.161, 355.012
951.421, 345.574
952.681, 16.135
953.940, 536.688
955.200, 147.240
956.459, 267.791
957.719, 348.338
958.978, 48.883
960.236, 379.426
961.495, 199.242
962.753, 89.781
964.012, 470.318
965.270, 129.145
966.527, 231.332
967.785, 351.689
969.043, 37.834
970.300, 582.627
971.557, 69.225
972.814, 311.207
974.071, 243.096
975.327, 96.471
976.583, 423.830
977.840, 203.881
979.095, 114.281
980.351, 304.613
981.607, 5.025
982.862, 245.441
984.117, 175.303
985.372, 115.723
986.627, 306.117
987.882, 86.541
989.136, 266.969
990.390, 147.312
991.644, 47.748
992.898, 148.186
994.152, 1.686
995.405, 28.803
996.659, 367.221
997.912, 12.283
999.165, 328.211
1000.417, 328.562
1001.670, 419.127
1002.922, 729.693
1004.174, 510.303
1005.426, 720.945
1006.678, 741.594
1007.930, 512.291
1009.181, 982.990
1010.432, 833.699
1011.683, 714.449
1012.934, 915.209
1014.185, 405.986
1015.435, 786.775
1016.685, 548.408
1017.935, 399.289
1019.185, 770.180
1020.435, 421.076
1021.684, 711.982
1022.934, 802.896
1024.183, 483.850
1025.432, 923.863
1026.680, 470.314
1027.929, 621.371
1029.177, 942.439
1030.425, 413.539
1031.673, 884.646
1032.921, 975.791
1034.169, 566.945
1035.416, 1078.107
1036.663, 710.377
1037.911, 1191.604
1039.157, 1292.861
1040.404, 1224.127
1041.650, 1952.783
1042.897, 1844.119
1044.143, 1945.463
1045.389, 2416.844
1046.634, 2471.105
1047.880, 3322.504
1049.125, 3883.934
1050.371, 4386.043
1051.615, 6097.531
1052.860, 6679.023
1054.105, 8800.523
1055.349, 12032.039
1056.593, 14753.559
1057.837, 20352.525
1059.081, 25784.115
1060.325, 31165.744
1061.568, 37107.391
1062.812, 35449.055
1064.055, 34239.465
1065.298, 29551.168
1066.540, 22592.889
1067.783, 19894.637
1069.025, 15246.389
1070.267, 12278.152
1071.509, 10779.926
1072.751, 8031.709
1073.993, 7393.508
1075.234, 6455.314
1076.475, 5057.129
1077.716, 5108.957
1078.957, 3920.787
1080.198, 3641.121
1081.438, 3722.990
1082.679, 2854.873
1083.919, 3296.766
1085.159, 2678.668
1086.398, 2620.598
1087.638, 3122.523
1088.877, 2384.461
1090.116, 2736.502
1091.355, 2758.465
1092.594, 2398.783
1093.833, 2730.770
1095.071, 2052.768
1096.309, 1594.926
1097.547, 1876.953
1098.785, 1098.990
1100.023, 1401.127
1101.260, 1363.191
1102.498, 865.271
1103.735, 1367.361
1104.972, 949.469
1106.208, 1171.588
1107.445, 1243.725
1108.681, 725.875
1109.918, 838.041
1111.154, 790.223
1112.389, 662.422
1113.625, 984.637
1114.860, 550.420
1116.096, 572.666
1117.331, 914.881
1118.566, 485.719
1119.800, 957.965
1121.035, 537.377
1122.269, 559.668
1123.503, 1092.010
1124.737, 620.236
1125.971, 632.611
1127.205, 814.998
1128.438, 227.400
1129.671, 792.059
1130.904, 344.494
1132.137, 166.910
1133.370, 609.350
1134.602, 241.799
1135.834, 494.268
1137.066, 606.684
1138.298, 119.111
1139.530, 801.842
1140.762, 194.303
1141.993, 246.693
1143.224, 796.773
1144.455, 160.812
1145.686, 701.580
1146.917, 423.695
1148.147, 26.119
1149.377, 671.000
1150.607, 213.449
1151.837, 295.916
1153.067, 611.482
1154.296, 13.977
1155.526, 517.654
1156.755, 490.180
1157.984, 292.719
1159.213, 445.729
1160.441, 308.295
1161.670, 220.877
1162.898, 463.873
1164.126, 23.516
1165.354, 559.102
1166.581, 281.732
1167.809, 74.379
1169.036, 397.039
1170.263, 149.713
1171.490, 132.398
1172.717, 645.104
1173.943, 112.178
1175.170, 390.533
1176.396, 263.434
1177.622, 86.172
1178.848, 598.924
1180.073, 51.689
1181.299, 174.471
1182.524, 347.355
1183.749, 199.865
1184.974, 492.879
1186.199, 256.287
1187.423, 119.059
1188.648, 551.848
1189.872, 155.123
1191.096, 77.850
1192.320, 320.701
1193.543, 226.580
1194.767, 196.045
1195.990, 14.096
1197.213, 13.283
1198.436, 299.350
1199.659, 41.984
1200.881, 124.631
1202.104, 587.289
1203.326, 169.957
1204.548, 452.637
1205.770, 495.334
1206.991, 18.045
1208.213, 470.762
1209.434, 104.520
1210.655, 317.236
1211.876, 549.986
1213.096, 122.914
1214.317, 615.654
1215.537, 448.230
1216.757, 360.812
1217.977, 933.402
1219.197, 1056.227
1220.417, 388.828
1221.636, 491.436
1222.855, 183.990
1224.074, 596.531
1225.293, 179.076
1226.512, 301.975
1227.731, 664.543
1228.949, 107.467
1230.167, 350.426
1231.385, 723.059
1232.603, 298.650
1233.820, 577.873
1235.038, 581.156
1236.255, 44.459
1237.472, 907.803
1238.689, 91.168
1239.906, 244.553
1241.122, 627.959
1242.338, 41.387
1243.555, 484.834
1244.771, 418.307
1245.986, 61.801
1247.202, 675.314
1248.417, 248.916
1249.633, 452.547
1250.848, 576.227
1252.063, 199.945
1253.277, 573.730
1254.492, 467.543
1255.706, 171.355
1256.920, 785.193
1258.134, 339.053
1259.348, 452.939
1260.562, 796.852
1261.775, 180.750
1262.988, 204.719
1264.201, 578.535
1265.414, 192.348
1266.627, 586.170
1267.839, 289.992
1269.052, 283.832
1270.264, 737.691
1271.476, 181.574
1272.688, 594.357
1273.899, 548.277
1275.111, 27.779
1276.322, 856.189
1277.533, 192.459
1278.744, 176.385
1279.955, 840.334
1281.165, 204.307
1282.376, 201.691
1283.586, 515.498
1284.796, 59.320
1286.006, 473.164
1287.215, 146.660
1288.425, 130.875
1289.634, 412.678
1290.843, 136.246
1292.052, 299.836
1293.261, 633.387
1294.469, 42.994
1295.678, 490.639
1296.886, 534.287
1298.094, 52.041
1299.302, 531.656
1300.509, 14.623
1301.717, 249.125
1302.924, 632.902
1304.131, 36.703
1305.338, 200.521
1306.545, 474.348
1307.752, 58.031
1308.958, 381.910
1310.164, 545.799
1311.370, 169.381
1312.576, 563.088
1313.782, 246.986
1314.987, 270.883
1316.193, 574.775
1317.398, 278.662
1318.603, 482.537
1319.807, 476.402
1321.012, 140.359
1322.216, 534.424
1323.421, 308.486
1324.625, 242.543
1325.829, 466.609
1327.032, 164.387
1328.236, 318.398
1329.439, 292.496
1330.642, 46.805
1331.845, 570.453
1333.048, 225.264
1334.251, 55.129
1335.453, 689.670
1336.656, 155.783
1337.858, 280.143
1339.060, 573.172
1340.261, 87.229
1341.463, 504.854
1342.664, 618.656
1343.866, 230.752
1345.067, 674.438
1346.267, 458.094
1347.468, 361.699
1348.669, 775.252
1349.869, 347.834
1351.069, 501.191
1352.269, 434.441
1353.469, 17.223
1354.668, 606.568
1355.868, 229.527
1357.067, 189.828
1358.266, 653.129
1359.465, 396.471
1360.664, 499.197
1361.862, 651.818
1363.061, 174.184
1364.259, 566.285
1365.457, 638.076
1366.655, 376.646
1367.852, 683.570
1369.050, 264.980
1370.247, 178.854
1371.444, 677.949
1372.641, 202.832
1373.838, 222.039
1375.035, 339.275
1376.231, 2.301
1377.427, 0.000
##END=



