##NAMES=Fluorapatite
##RRUFFID=R050369
##IDEAL CHEMISTRY=Ca_5_(PO_4_)_3_F
##LOCALITY=Russia
##OWNER=RRUFF
##SOURCE=Eugene Schlepp
##DESCRIPTION=Blueish-green hexagonal prismatic crystal
##STATUS=The identification of this mineral has been confirmed by X-ray diffraction and chemical analysis
##URL=rruff.info/R050369
##MEASURED CHEMISTRY=(Ca_0.99_Na_0.01_)_5_((P_0.98_S_0.02_)O_4_)_3_F_1.00_
##PIN_ID=L01224
##ORIENTATION=Laser parallel to a* (1 0 0). Fiducial mark perpendicular to laser is parallel to c [0 0 1]
53.91000, 0.0000000E+00
55.14900, 22.93771
56.38700, 9.025635
57.62600, 21.49841
58.86400, 42.03189
60.10300, 22.01593
61.34100, 38.88046
62.57900, 13.66071
63.81700, 12.23560
65.05400, 18.55399
66.29200, 3.441711
67.52900, 9.808014
68.76700, 19.59705
70.00400, 22.14441
71.24100, 20.37476
72.47700, 48.05713
73.71400, 56.15820
74.95100, 97.64600
76.18700, 140.4915
77.42300, 167.6689
78.65900, 207.1555
79.89500, 238.9309
81.13100, 258.9774
82.36700, 283.2790
83.60200, 337.8210
84.83700, 381.5907
86.07200, 437.5764
87.30800, 413.7677
88.54200, 456.1547
89.77700, 496.7285
91.01200, 579.4813
92.24600, 595.4016
93.48000, 648.4764
94.71400, 662.6934
95.94800, 655.0448
97.18200, 684.5276
98.41600, 703.1365
99.64900, 723.8660
100.8830, 739.7107
102.1160, 758.6662
103.3490, 695.7295
104.5820, 700.8972
105.8150, 777.1660
107.0470, 719.5328
108.2800, 801.9945
109.5120, 798.5488
110.7440, 730.1932
111.9760, 671.9255
113.2080, 724.7434
114.4400, 754.6449
115.6710, 771.6279
116.9030, 812.6912
118.1340, 828.8320
119.3650, 836.2246
120.5960, 745.3419
121.8270, 814.7075
123.0580, 812.1447
124.2880, 746.6523
125.5190, 816.2288
126.7490, 898.8728
127.9790, 925.5710
129.2090, 981.2942
130.4390, 1132.040
131.6680, 1184.800
132.8980, 1280.566
134.1270, 1405.345
135.3560, 1604.136
136.5850, 1763.975
137.8140, 1897.888
139.0430, 1895.869
140.2710, 1675.899
141.5000, 1456.974
142.7280, 1404.079
143.9560, 1241.215
145.1840, 1146.393
146.4120, 1119.604
147.6390, 1045.849
148.8670, 1051.128
150.0940, 1071.445
151.3210, 1050.825
152.5490, 1106.241
153.7750, 1166.695
155.0020, 1281.185
156.2290, 1263.711
157.4550, 1370.275
158.6810, 1319.875
159.9080, 1286.512
161.1340, 1081.186
162.3590, 1152.897
163.5850, 1127.643
164.8110, 1150.427
166.0360, 1081.246
167.2610, 1087.100
168.4860, 1028.990
169.7110, 938.9143
170.9360, 901.8737
172.1610, 838.3806
173.3850, 800.4214
174.6100, 745.9575
175.8340, 744.0529
177.0580, 723.1814
178.2820, 704.3430
179.5050, 648.5369
180.7290, 602.7629
181.9520, 640.0210
183.1760, 540.3105
184.3990, 593.6313
185.6220, 614.9829
186.8450, 554.3651
188.0670, 546.7773
189.2900, 556.2195
190.5120, 521.6913
191.7340, 522.1917
192.9560, 521.7214
194.1780, 492.2793
195.4000, 504.8654
196.6220, 514.4792
197.8430, 512.1201
199.0640, 506.7883
200.2860, 535.4832
201.5070, 560.0327
202.7270, 590.5149
203.9480, 579.8463
205.1690, 528.2272
206.3890, 518.7981
207.6090, 565.0713
208.8290, 638.5881
210.0490, 571.5748
211.2690, 589.8522
212.4890, 567.3547
213.7080, 539.7886
214.9280, 556.0540
216.1470, 477.6350
217.3660, 480.3197
218.5850, 552.3665
219.8030, 514.8457
221.0220, 505.4731
222.2400, 563.9673
223.4590, 525.6260
224.6770, 524.7985
225.8950, 596.9038
227.1120, 632.1887
228.3300, 641.3923
229.5480, 699.6343
230.7650, 732.9170
231.9820, 783.2673
233.1990, 776.6602
234.4160, 726.7559
235.6330, 781.2251
236.8490, 694.7268
238.0660, 687.2607
239.2820, 658.8384
240.4980, 524.4468
241.7140, 516.1011
242.9300, 459.7847
244.1460, 421.5042
245.3610, 433.5076
246.5770, 456.0496
247.7920, 392.9795
249.0070, 456.8374
250.2220, 426.7280
251.4370, 461.6514
252.6510, 438.5994
253.8660, 538.5718
255.0800, 573.5679
256.2940, 598.6006
257.5080, 768.6565
258.7220, 819.7488
259.9360, 943.8635
261.1490, 999.0122
262.3630, 1059.184
263.5760, 1176.376
264.7890, 1184.589
266.0020, 1206.822
267.2150, 1135.076
268.4270, 1101.349
269.6400, 1057.642
270.8520, 953.9585
272.0640, 864.2935
273.2760, 794.6470
274.4880, 695.0186
275.7000, 608.4082
276.9120, 598.8159
278.1230, 583.2417
279.3340, 546.6853
280.5450, 441.1470
281.7560, 457.6262
282.9670, 448.1233
284.1780, 394.6372
285.3880, 408.1685
286.5980, 394.7161
287.8090, 378.2803
289.0190, 334.8611
290.2290, 303.4580
291.4380, 412.0706
292.6480, 362.6995
293.8570, 360.3435
295.0670, 413.0034
296.2760, 392.6787
297.4850, 414.3691
298.6930, 497.0742
299.9020, 472.7939
301.1110, 458.5283
302.3190, 562.2773
303.5270, 536.0400
304.7350, 579.8171
305.9430, 627.6074
307.1510, 655.4119
308.3580, 651.2295
309.5660, 663.0605
310.7730, 630.9045
311.9800, 605.7615
313.1870, 519.6311
314.3940, 505.5132
315.6010, 437.4077
316.8070, 427.3147
318.0130, 457.2336
319.2200, 332.1643
320.4260, 315.1064
321.6310, 334.0605
322.8370, 229.0259
324.0430, 198.0022
325.2480, 164.9895
326.4540, 200.9878
327.6590, 171.9968
328.8640, 159.0164
330.0680, 164.0459
331.2730, 143.0859
332.4780, 154.1357
333.6820, 154.1956
334.8860, 95.26489
336.0900, 152.3440
337.2940, 36.43237
338.4980, 34.53003
339.7010, 81.63672
340.9050, 80.75244
342.1080, 53.87720
343.3110, 16.01050
344.5140, 12.15283
345.7170, 57.35815
346.9200, 39.52295
348.1220, 37.29761
349.3240, 38.88770
350.5270, 13.91162
351.7290, 26.30151
352.9310, 15.46973
354.1320, 30.77197
355.3340, 41.02954
356.5350, 2.303223
357.7370, 12.40820
358.9380, 7.621826
360.1390, 29.69287
361.3400, 35.11719
362.5400, 43.05469
363.7410, 52.15186
364.9410, 53.02612
366.1410, 48.09351
367.3410, 24.77148
368.5410, 37.44434
369.7410, 9.883057
370.9400, 37.77954
372.1400, 6.486084
373.3390, 60.83325
374.5380, 25.72827
375.7370, 46.42749
376.9360, 59.69189
378.1350, 21.31006
379.3330, 74.86084
380.5310, 13.25366
381.7300, 17.70752
382.9280, 22.99878
384.1260, 5.416016
385.3230, 40.58911
386.5210, 16.13379
387.7180, 52.01953
388.9160, 6.276855
390.1130, 41.42114
391.3100, 0.7216800
392.5060, 4.548828
393.7030, 72.53613
394.9000, 7.610596
396.0960, 70.07080
397.2920, 20.53589
398.4880, 49.00708
399.6840, 46.46680
400.8800, 17.94873
402.0750, 86.63477
403.2710, 82.12744
404.4660, 14.49341
405.6610, 54.08447
406.8560, 75.58911
408.0510, 189.1040
409.2450, 64.61475
410.4400, 92.17822
411.6340, 172.7502
412.8280, 122.2761
414.0220, 177.7063
415.2160, 210.2368
416.4100, 293.7698
417.6030, 276.3044
418.7970, 254.8445
419.9900, 270.3867
421.1830, 394.9314
422.3760, 469.4771
423.5690, 439.0237
424.7610, 622.5713
425.9540, 669.1213
427.1460, 825.6719
428.3380, 866.2236
429.5300, 928.7754
430.7220, 1032.328
431.9140, 983.8799
433.1050, 1079.432
434.2970, 1153.986
435.4880, 1332.540
436.6790, 1388.098
437.8700, 1557.658
439.0610, 1694.218
440.2510, 1691.779
441.4420, 1894.339
442.6320, 1940.899
443.8220, 2098.458
445.0120, 2093.015
446.2020, 2012.571
447.3910, 2015.128
448.5810, 1958.683
449.7700, 1723.236
450.9600, 1562.789
452.1490, 1424.338
453.3370, 1257.888
454.5260, 1118.010
455.7150, 979.9795
456.9030, 854.5220
458.0910, 739.1333
459.2800, 640.7256
460.4670, 545.1648
461.6550, 491.7070
462.8430, 443.2458
464.0300, 425.7812
465.2180, 374.3127
466.4050, 347.5344
467.5920, 279.3660
468.7790, 278.8875
469.9650, 242.4048
471.1520, 189.9180
472.3380, 173.4290
473.5250, 143.6025
474.7110, 131.2036
475.8970, 118.9351
477.0820, 116.4292
478.2680, 114.2319
479.4540, 117.4062
480.6390, 124.5935
481.8240, 125.3992
483.0090, 140.8982
484.1940, 121.3970
485.3780, 162.8904
486.5630, 100.3833
487.7470, 26.88452
488.9320, 55.36621
490.1160, 99.84424
491.3000, 168.3960
492.4830, 84.03979
493.6670, 87.26685
494.8500, 44.81665
496.0340, 87.07373
497.2170, 42.52075
498.4000, 61.10913
499.5820, 61.88037
500.7650, 29.08618
501.9480, 104.4302
503.1300, 8.168213
504.3120, 61.62817
505.4940, 32.78101
506.6760, 35.29443
507.8580, 1.651123
509.0390, 53.15894
510.2210, 49.84302
511.4020, 62.04980
512.5830, 96.35889
513.7640, 43.47754
514.9450, 69.78320
516.1250, 14.03589
517.3060, 96.72046
518.4860, 3.545166
519.6660, 68.60889
520.8460, 7.912598
522.0260, 67.21216
523.2060, 38.34180
524.3850, 24.52954
525.5650, 56.92358
526.7440, 37.74341
527.9230, 34.39575
529.1020, 0.5556640
530.2810, 2.807373
531.4590, 31.43213
532.6380, 1.895020
533.8160, 10.85864
534.9940, 2.145996
536.1720, 3.233154
537.3500, 75.78638
538.5270, 74.77026
539.7050, 96.01978
540.8820, 24.12207
542.0590, 117.3396
543.2360, 27.03735
544.4130, 72.76880
545.5900, 21.46729
546.7660, 49.58057
547.9430, 79.60010
549.1190, 71.51172
550.2950, 149.2617
551.4710, 62.96973
552.6470, 65.38965
553.8220, 143.2422
554.9980, 15.07129
556.1730, 159.7104
557.3480, 109.5688
558.5230, 180.2188
559.6980, 111.8140
560.8730, 191.6250
562.0470, 187.4365
563.2220, 163.1274
564.3960, 195.6968
565.5700, 219.3223
566.7440, 271.2915
567.9170, 351.8291
569.0910, 426.5767
570.2640, 585.1367
571.4380, 759.6455
572.6110, 1027.142
573.7840, 1249.755
574.9570, 1535.560
576.1290, 1873.165
577.3020, 2402.846
578.4740, 2900.941
579.6460, 2922.363
580.8180, 2719.213
581.9900, 2261.896
583.1620, 1776.277
584.3330, 1410.808
585.5040, 1250.239
586.6760, 1119.578
587.8470, 1060.565
589.0180, 1016.875
590.1880, 1028.170
591.3590, 880.8105
592.5290, 873.0771
593.7000, 767.6377
594.8700, 659.0439
596.0400, 641.3076
597.2090, 698.6333
598.3790, 896.3218
599.5490, 1065.499
600.7180, 1202.931
601.8870, 1480.130
603.0560, 1696.270
604.2250, 2114.393
605.3940, 2121.502
606.5620, 2080.765
607.7300, 1690.853
608.8990, 1541.057
610.0670, 1147.115
611.2350, 1070.157
612.4020, 996.6826
613.5700, 1083.697
614.7370, 854.6953
615.9050, 814.6846
617.0720, 762.0439
618.2390, 545.3447
619.4060, 445.3687
620.5720, 354.0576
621.7390, 321.6201
622.9050, 303.6514
624.0710, 206.7041
625.2370, 194.2520
626.4030, 196.6753
627.5690, 127.7349
628.7340, 161.5356
629.9000, 138.9326
631.0650, 176.4287
632.2300, 91.24561
633.3950, 216.5415
634.5600, 112.5459
635.7240, 113.3164
636.8890, 163.1050
638.0530, 99.92627
639.2170, 70.83252
640.3810, 155.5288
641.5450, 125.1665
642.7080, 120.8286
643.8720, 244.8999
645.0350, 173.5254
646.1980, 100.2075
647.3610, 168.4707
648.5240, 134.6841
649.6870, 166.3418
650.8490, 207.9160
652.0120, 199.5337
653.1740, 185.3203
654.3360, 138.0874
655.4980, 149.5635
656.6600, 141.0811
657.8210, 156.3594
658.9830, 147.5884
660.1440, 173.3306
661.3050, 186.6646
662.4660, 182.2183
663.6270, 150.5513
664.7870, 62.83301
665.9480, 76.87891
667.1080, 108.6274
668.2680, 172.8320
669.4280, 62.19336
670.5880, 140.2148
671.7480, 100.5859
672.9070, 96.57861
674.0670, 109.3911
675.2260, 173.0874
676.3850, 89.66699
677.5440, 95.84717
678.7030, 50.11426
679.8610, 130.2871
681.0200, 29.55176
682.1780, 20.65332
683.3360, 108.8789
684.4940, 127.9487
685.6520, 51.65820
686.8090, 53.83887
687.9670, 67.84131
689.1240, 103.8179
690.2810, 112.5303
691.4380, 6.369629
692.5950, 72.49805
693.7520, 75.54785
694.9080, 162.5718
696.0650, 61.43359
697.2210, 107.2773
698.3770, 9.103516
699.5330, 67.30469
700.6880, 65.93555
701.8440, 91.84131
702.9990, 119.5854
704.1550, 101.3125
705.3100, 42.09131
706.4650, 135.9712
707.6190, 66.36523
708.7740, 110.2749
709.9290, 128.0298
711.0830, 209.8159
712.2370, 88.41504
713.3910, 51.99658
714.5450, 83.55811
715.6980, 3.206055
716.8520, 26.72021
718.0050, 125.2109
719.1580, 41.68506
720.3110, 57.13818
721.4640, 138.5703
722.6170, 78.98584
723.7700, 99.38232
724.9220, 121.7612
726.0740, 25.12256
727.2260, 118.4609
728.3780, 196.7817
729.5300, 47.11572
730.6810, 135.3989
731.8330, 52.66504
732.9840, 75.91113
734.1350, 106.1392
735.2860, 87.34961
736.4370, 19.45801
737.5880, 142.6958
738.7380, 55.83154
739.8880, 101.9492
741.0390, 191.7090
742.1890, 156.7915
743.3380, 180.8569
744.4880, 73.90479
745.6380, 156.0469
746.7870, 84.32275
747.9360, 115.3179
749.0850, 133.8345
750.2340, 33.25684
751.3830, 160.8892
752.5310, 140.8120
753.6800, 134.3628
754.8280, 45.62500
755.9760, 51.54883
757.1240, 104.0146
758.2720, 3.550293
759.4190, 49.73682
760.5670, 100.0913
761.7140, 9.814453
762.8610, 110.5107
764.0080, 9.189453
765.1550, 74.84082
766.3020, 128.4609
767.4480, 34.07812
768.5950, 26.67236
769.7410, 135.1577
770.8870, 38.53760
772.0330, 67.48193
773.1780, 188.9067
774.3240, 109.3154
775.4690, 96.79541
776.6140, 71.11084
777.7590, 150.2168
778.9040, 96.64453
780.0490, 148.0088
781.1940, 44.33740
782.3380, 8.284180
783.4820, 88.06055
784.6260, 63.22803
785.7700, 194.5542
786.9140, 93.86914
788.0580, 136.1675
789.2010, 95.45020
790.3450, 54.71533
791.4880, 67.96240
792.6310, 90.20898
793.7730, 5.439453
794.9160, 27.64648
796.0590, 47.86426
797.2010, 44.07129
798.3430, 17.25977
799.4850, 29.56592
800.6270, 11.43408
801.7690, 24.33545
802.9100, 15.39014
804.0520, 60.20850
805.1930, 186.1782
806.3340, 4.786621
807.4750, 123.8955
808.6160, 21.89941
809.7560, 175.7983
810.8970, 27.67529
812.0370, 88.59229
813.1770, 105.5596
814.3170, 158.3887
815.4570, 65.22803
816.5960, 81.77686
817.7360, 58.69141
818.8750, 142.9639
820.0140, 27.05078
821.1530, 82.91357
822.2920, 8.205078
823.4310, 33.34668
824.5690, 96.90039
825.7070, 160.5376
826.8460, 4.310059
827.9840, 36.09717
829.1220, 94.16602
830.2590, 40.78809
831.3970, 65.40967
832.5340, 99.19287
833.6710, 137.7334
834.8080, 103.4585
835.9450, 24.78711
837.0820, 0.2836910
838.2190, 36.19043
839.3550, 133.7588
840.4910, 85.42822
841.6270, 51.01660
842.7630, 6.764648
843.8990, 0.5019530
845.0350, 8.238770
846.1700, 34.77832
847.3060, 25.34375
848.4410, 77.89551
849.5760, 110.3066
850.7100, 63.50049
851.8450, 7.130371
852.9800, 104.1333
854.1140, 63.95654
855.2480, 166.4307
856.3820, 54.45166
857.5160, 144.6133
858.6500, 125.0547
859.7830, 110.3198
860.9170, 145.6606
862.0500, 118.0703
863.1830, 124.8052
864.3160, 64.19482
865.4480, 37.57373
866.5810, 89.58301
867.7130, 145.9424
868.8460, 87.98340
869.9780, 123.1543
871.1100, 76.44434
872.2410, 146.6470
873.3730, 103.4634
874.5050, 98.76660
875.6360, 141.7930
876.7670, 21.97363
877.8980, 86.28857
879.0290, 37.54199
880.1590, 73.78955
881.2900, 30.14014
882.4200, 0.9277340
883.5500, 64.14209
884.6800, 63.33545
885.8100, 120.5200
886.9400, 8.802734
888.0690, 86.35938
889.1990, 24.48584
890.3280, 36.35254
891.4570, 15.62402
892.5860, 24.86426
893.7140, 40.85840
894.8430, 8.447754
895.9710, 51.14209
897.1000, 70.76270
898.2280, 95.62256
899.3560, 121.5640
900.4830, 31.41064
901.6110, 57.19629
902.7380, 5.163574
903.8660, 71.56689
904.9930, 35.15088
906.1200, 122.7842
907.2460, 27.78369
908.3730, 108.9136
909.5000, 122.8228
910.6260, 160.6914
911.7520, 57.50635
912.8780, 31.21338
914.0040, 167.1099
915.1290, 72.92432
916.2550, 134.8135
917.3800, 68.31494
918.5050, 109.2056
919.6300, 105.9819
920.7550, 60.65527
921.8800, 126.5278
923.0040, 41.32861
924.1290, 112.1943
925.2530, 74.00244
926.3770, 108.6206
927.5010, 172.3140
928.6250, 135.1006
929.7480, 133.8901
930.8720, 117.2163
931.9950, 213.7920
933.1180, 254.3384
934.2410, 265.4907
935.3640, 179.1899
936.4860, 399.0386
937.6090, 301.0884
938.7310, 441.2363
939.8530, 514.9136
940.9750, 690.7520
942.0970, 593.0791
943.2180, 948.9175
944.3400, 992.2402
945.4610, 1265.078
946.5820, 1443.510
947.7030, 1784.329
948.8240, 1881.166
949.9450, 2313.003
951.0650, 2623.734
952.1860, 3483.541
953.3060, 4578.256
954.4260, 6102.098
955.5460, 8569.599
956.6650, 12132.43
957.7850, 17273.75
958.9040, 23414.35
960.0230, 30461.20
961.1420, 39509.05
962.2610, 48300.16
963.3800, 52237.11
964.4990, 48586.88
965.6170, 39668.59
966.7350, 29619.78
967.8530, 21531.95
968.9710, 14715.92
970.0890, 10109.79
971.2070, 6923.270
972.3240, 4773.301
973.4410, 3547.042
974.5580, 2388.816
975.6750, 1938.721
976.7920, 1384.559
977.9090, 1050.279
979.0250, 855.4707
980.1410, 637.1299
981.2580, 558.9297
982.3740, 492.6836
983.4890, 362.6084
984.6050, 335.5391
985.7200, 362.4717
986.8360, 310.3262
987.9510, 336.2939
989.0660, 194.2686
990.1810, 200.2461
991.2950, 172.2305
992.4100, 53.21875
993.5240, 200.2109
994.6390, 118.2080
995.7530, 124.2100
996.8660, 73.22363
997.9800, 105.6592
999.0940, 178.2715
1000.207, 212.2803
1001.320, 255.3271
1002.433, 348.3770
1003.546, 422.4385
1004.659, 615.5039
1005.772, 861.5752
1006.884, 794.6514
1007.996, 948.7441
1009.108, 1039.843
1010.220, 1035.946
1011.332, 842.4033
1012.444, 589.5244
1013.555, 626.1299
1014.666, 431.2637
1015.777, 513.2920
1016.888, 602.1768
1017.999, 433.3301
1019.110, 495.4893
1020.220, 394.6621
1021.331, 303.1504
1022.441, 370.3379
1023.551, 485.8975
1024.661, 470.7363
1025.770, 592.9014
1026.880, 801.5488
1027.989, 891.2168
1029.098, 1143.488
1030.207, 1463.718
1031.316, 1548.059
1032.425, 1655.411
1033.533, 1590.773
1034.642, 1405.148
1035.750, 1209.531
1036.858, 1037.924
1037.966, 949.3262
1039.073, 893.8262
1040.181, 819.2773
1041.288, 714.2715
1042.396, 719.7139
1043.503, 700.1650
1044.610, 579.6260
1045.716, 493.0957
1046.823, 507.9492
1047.929, 461.9893
1049.036, 518.9365
1050.142, 512.4434
1051.248, 532.9619
1052.353, 633.4980
1053.459, 639.0430
1054.564, 728.5986
1055.670, 957.1631
1056.775, 1126.738
1057.880, 1174.323
1058.985, 1208.917
1060.089, 1183.521
1061.194, 1017.137
1062.298, 692.7598
1063.402, 596.3994
1064.506, 413.0518
1065.610, 441.7139
1066.713, 248.3887
1067.817, 336.0752
1068.920, 424.7852
1070.023, 354.5146
1071.126, 375.2666
1072.229, 446.0312
1073.332, 411.8066
1074.435, 463.5918
1075.537, 662.3945
1076.639, 716.2080
1077.741, 828.0322
1078.843, 834.6172
1079.945, 854.7148
1081.046, 730.5723
1082.148, 636.4414
1083.249, 468.3203
1084.350, 320.2129
1085.451, 263.1152
1086.551, 227.0283
1087.652, 217.9531
1088.752, 212.8887
1089.853, 193.8359
1090.953, 63.80078
1092.053, 134.7773
1093.152, 190.7637
1094.252, 2.761719
1095.351, 103.2266
1096.451, 76.24023
1097.550, 28.72949
1098.649, 17.28809
1099.748, 15.29785
1100.846, 6.300781
1101.945, 67.70605
1103.043, 53.72266
1104.141, 137.7617
1105.239, 56.81641
1106.337, 32.11719
1107.434, 54.88281
1108.532, 6.962891
1109.629, 86.05273
1110.726, 18.15918
1111.823, 116.2803
1112.920, 65.41699
1114.017, 213.5654
1115.113, 91.72559
1116.210, 40.89746
1117.306, 86.07910
1118.402, 34.22168
1119.498, 128.4316
1120.593, 132.6514
1121.689, 215.8809
1122.784, 211.8115
1123.879, 154.3730
1124.974, 218.6406
1126.069, 154.9199
1127.164, 193.2100
1128.259, 100.4033
1129.353, 150.7129
1130.447, 89.03516
1131.541, 197.5479
1132.635, 33.89941
1133.729, 162.2617
1134.822, 208.3779
1135.916, 41.76074
1137.009, 118.1553
1138.102, 114.5596
1139.195, 131.9756
1140.288, 164.4004
1141.380, 35.83691
1142.473, 155.6650
1143.565, 130.1299
1144.657, 14.39355
1145.749, 117.0898
1146.841, 72.76172
1147.932, 60.27441
1149.024, 200.7988
1150.115, 161.3340
1151.206, 187.3096
1152.297, 62.86523
1153.388, 163.4346
1154.479, 143.4521
1155.569, 244.0557
1156.659, 103.6797
1157.750, 54.62207
1158.839, 103.2793
1159.929, 157.9561
1161.019, 94.64258
1162.108, 96.42383
1163.198, 191.1426
1164.287, 124.8711
1165.376, 152.6416
1166.465, 309.3906
1167.553, 185.1484
1168.642, 198.9160
1169.730, 164.6934
1170.818, 143.4873
1171.906, 150.6807
1172.994, 154.1104
1174.082, 157.9385
1175.170, 100.7744
1176.257, 109.6211
1177.344, 3.523438
1178.431, 184.3369
1179.518, 81.20508
1180.605, 28.08301
1181.691, 171.9707
1182.778, 138.8652
1183.864, 134.7705
1184.950, 41.68359
1186.036, 225.6045
1187.122, 87.53613
1188.207, 134.4756
1189.292, 59.42480
1190.378, 151.3809
1191.463, 63.34766
1192.548, 65.32227
1193.632, 166.3047
1194.717, 74.29590
1195.801, 169.2979
1196.886, 126.3076
1197.970, 151.3896
1199.054, 140.4053
1200.137, 174.4404
1201.221, 174.4844
1202.305, 115.5352
1203.388, 148.5947
1204.471, 175.6631
1205.554, 107.7373
1206.637, 117.8223
1207.719, 134.1152
1208.802, 96.01562
1209.884, 178.1230
1210.966, 171.2393
1212.048, 181.3633
1213.130, 208.4961
1214.212, 100.0293
1215.293, 123.1777
1216.374, 18.33301
1217.456, 166.4961
1218.536, 113.6670
1219.617, 207.8467
1220.698, 105.0332
1221.778, 193.2275
1222.859, 152.4287
1223.939, 116.6387
1225.019, 96.85547
1226.099, 25.77246
1227.178, 126.1025
1228.258, 228.3418
1229.337, 206.2285
1230.417, 264.7305
1231.496, 238.3477
1232.574, 225.6172
1233.653, 193.8955
1234.732, 57.18066
1235.810, 229.4746
1236.888, 70.11230
1237.966, 177.1621
1239.044, 269.4434
1240.122, 120.7324
1241.199, 173.0293
1242.277, 135.3330
1243.354, 77.64453
1244.431, 85.96191
1245.508, 117.2881
1246.585, 59.62109
1247.661, 87.03809
1248.738, 50.26758
1249.814, 57.57910
1250.890, 159.8994
1251.966, 29.22754
1253.042, 103.5605
1254.117, 36.21387
1255.193, 56.56250
1256.268, 130.9170
1257.343, 29.72266
1258.418, 79.62891
1259.493, 49.98730
1260.567, 33.53516
1261.642, 118.8164
1262.716, 60.17383
1263.790, 5.459961
1264.864, 96.90430
1265.938, 57.27539
1267.011, 117.6523
1268.085, 34.03711
1269.158, 92.42676
1270.231, 108.8242
1271.304, 17.77246
1272.377, 49.62793
1273.450, 96.58594
1274.522, 23.52051
1275.594, 7.939453
1276.666, 182.3633
1277.738, 68.79199
1278.810, 157.2275
1279.882, 18.33008
1280.953, 153.1055
1282.025, 66.54688
1283.096, 37.00586
1284.167, 125.8428
1285.238, 137.2812
1286.308, 136.2754
1287.379, 68.10352
1288.449, 47.48926
1289.519, 54.88086
1290.589, 65.72363
1291.659, 68.64258
1292.729, 198.0166
1293.798, 15.39453
1294.868, 56.32715
1295.937, 100.7178
1297.006, 164.1133
1298.075, 43.51367
1299.143, 114.9219
1300.212, 96.33496
1301.280, 109.7529
1302.348, 85.17773
1303.416, 121.6084
1304.484, 58.07031
1305.552, 141.5127
1306.620, 77.58789
1307.687, 22.04395
1308.754, 79.50781
1309.821, 91.97559
1310.888, 128.4502
1311.955, 152.9609
1313.021, 144.4180
1314.088, 206.9121
1315.154, 124.4111
1316.220, 172.9180
1317.286, 56.43164
1318.352, 136.9590
1319.417, 217.4951
1320.483, 72.03613
1321.548, 169.5820
1322.613, 75.13477
1323.678, 172.6875
1324.743, 104.2432
1325.807, 12.80273
1326.872, 41.36719
1327.936, 184.9346
1329.000, 134.5088
1330.064, 135.0859
1331.128, 131.6670
1332.191, 58.25195
1333.255, 125.8398
1334.318, 242.4316
1335.381, 228.0283
1336.444, 264.8477
1337.507, 230.2314
1338.569, 229.8408
1339.632, 164.4541
1340.694, 90.07031
1341.756, 1.691406
1342.818, 95.31445
1343.880, 96.94141
1344.941, 94.57324
1346.003, 125.2090
1347.064, 152.8486
1348.125, 159.4932
1349.186, 121.1416
1350.247, 243.7939
1351.308, 109.4512
1352.368, 143.1123
1353.428, 146.7715
1354.489, 231.4512
1355.549, 102.1494
1356.608, 183.8398
1357.668, 94.53613
1358.727, 170.2393
1359.787, 110.9473
1360.846, 98.66016
1361.905, 198.3760
1362.964, 261.0928
1364.022, 144.8135
1365.081, 233.6123
1366.139, 110.3467
1367.197, 65.08594
1368.255, 44.81934
1369.313, 41.62012
1370.371, 174.3643
1371.428, 274.1143
1372.486, 107.8691
1373.543, 74.62500
1374.600, 55.38574
1375.657, 228.2021
1376.713, 228.3672
1377.770, 94.14453
1378.826, 159.9277
1379.882, 48.71680
1380.938, 22.48926
1381.994, 188.3047
1383.050, 84.10352
1384.106, 133.9072
1385.161, 110.8252
1386.216, 133.6396
1387.271, 38.54102
1388.326, 38.10449
1389.381, 177.9268
1390.435, 26.75586
1391.490, 142.8477
1392.544, 34.68750
1393.598, 64.53320
1394.652, 136.3857
1395.705, 163.2422
1396.759, 45.10645
1397.812, 130.9766
1398.866, 178.9170
1399.919, 11.20020
1400.972, 194.6855
1402.024, 205.5811
1403.077, 110.3037
1404.129, 75.21191
1405.181, 189.1289
1406.233, 18.05273
1407.285, 357.5547
1408.337, 108.4951
1409.389, 46.44238
1410.440, 31.04102
1411.491, 216.9160
1412.542, 106.8799
1413.593, 100.5459
1414.644, 164.5225
1415.695, 109.5098
1416.745, 173.5078
1417.795, 141.4443
1418.845, 75.46094
1419.895, 141.4883
1420.945, 18.50098
1421.995, 185.5449
1423.044, 156.6035
1424.093, 118.6738
1425.142, 243.7461
1426.191, 211.8311
1427.240, 5.928711
1428.289, 185.0723
1429.337, 183.1963
1430.385, 1.666992
1431.433, 104.4854
1432.481, 20.79688
1433.529, 193.3721
1434.577, 234.5742
1435.624, 60.79199
1436.672, 83.02832
1437.719, 16.28418
1438.766, 156.5605
1439.812, 13.85938
1440.859, 85.18066
1441.905, 232.7266
1442.952, 315.3936
1443.998, 151.4668
1445.044, 77.84863
1446.090, 1.222656
1447.135, 180.2109
1448.181, 112.7402
1449.226, 105.4004
1450.271, 77.37305
1451.316, 136.2939
1452.361, 226.2754
1453.405, 142.2617
1454.450, 85.25391
1455.494, 221.2510
1456.538, 81.25391
1457.582, 190.2607
1458.626, 193.8486
1459.670, 157.8633
1460.713, 146.8848
1461.757, 133.9980
1462.800, 153.9385
1463.843, 124.9746
1464.886, 132.0146
1465.928, 170.0596
1466.971, 234.1084
1468.013, 179.1631
1469.055, 43.22070
1470.097, 156.3057
1471.139, 94.41406
1472.181, 144.5264
1473.222, 68.64648
1474.263, 145.7705
1475.305, 156.9268
1476.346, 199.1113
1477.386, 34.30371
1478.427, 8.787109
1479.468, 100.9707
1480.508, 47.18359
1481.548, 85.45312
1482.588, 118.7822
1483.628, 117.0195
1484.668, 154.2617
1485.707, 156.5107
1486.747, 115.7715
1487.786, 75.24512
1488.825, 261.5176
1489.864, 163.7959
1490.902, 136.0918
1491.941, 178.4023
1492.979, 77.56641
1494.017, 5.049805
1495.055, 203.3975
1496.093, 129.8818
1497.131, 1.405273
1498.168, 106.0342
1499.206, 168.5645
1500.243, 63.10449
1501.280, 17.34766
1502.317, 135.1641
1503.354, 119.7256
1504.390, 78.28809
1505.426, 131.8555
1506.463, 52.42773
1507.499, 138.0059
1508.535, 249.5781
1509.570, 133.1230
1510.606, 106.6670
1511.641, 34.22852
1512.676, 116.8164
1513.711, 102.4238
1514.746, 162.0469
1515.781, 148.3975
1516.816, 135.3574
1517.850, 109.0459
1518.884, 156.7529
1519.918, 137.4814
1520.952, 67.23145
1521.986, 162.0039
1523.019, 15.20215
1524.053, 82.61523
1525.086, 124.4541
1526.119, 135.3369
1527.152, 148.2637
1528.185, 176.2861
1529.217, 113.3359
1530.250, 194.4180
1531.282, 170.5576
1532.314, 179.7305
1533.346, 104.9707
1534.377, 205.0850
1535.409, 84.42383
1536.440, 60.82812
1537.472, 264.9131
1538.503, 153.3633
1539.534, 177.8564
1540.564, 62.39844
1541.595, 181.9912
1542.625, 194.6455
1543.656, 150.3623
1544.686, 71.14551
1545.716, 113.9990
1546.745, 120.9277
1547.775, 124.9375
1548.804, 82.76855
1549.834, 244.8584
1550.863, 145.0381
1551.892, 81.30566
1552.920, 267.6660
1553.949, 241.1299
1554.977, 101.7070
1556.006, 67.48340
1557.034, 22.38281
1558.062, 162.4365
1559.089, 248.6201
1560.117, 234.9990
1561.144, 180.6689
1562.172, 283.6895
1563.199, 207.5830
1564.226, 171.1992
1565.252, 85.65430
1566.279, 67.81055
1567.305, 5.938477
1568.332, 257.2080
1569.358, 183.9609
1570.384, 126.7861
1571.409, 0.5664060
1572.435, 0.0000000E+00
##END=



