##NAMES=Fluorapatite
##RRUFFID=R050194
##IDEAL CHEMISTRY=Ca_5_(PO_4_)_3_F
##LOCALITY=Siglo XX mine, Llallagua, Bolivia
##OWNER=RRUFF
##SOURCE=Dave Bunk Minerals
##DESCRIPTION=Purple crystal fragments
##STATUS=The identification of this mineral has been confirmed by X-ray diffraction and chemical analysis
##URL=rruff.info/R050194
##MEASURED CHEMISTRY=Ca_5.00_(P_1.00_O_4_)_3_F_1.00_
##PIN_ID=L01106
##ORIENTATION=Laser parallel to -c* (0 0 -1). Fiducial mark perpendicular to laser is parallel to -a [-1 0 0]
137.8140, 0.0000000E+00
139.0430, 81.21289
140.2710, 177.2993
141.5000, 3.347656
142.7280, 110.6040
143.9560, 150.4082
145.1840, 37.01465
146.4120, 125.0713
147.6390, 82.48779
148.8670, 155.2231
150.0940, 10.78955
151.3210, 92.42773
152.5490, 89.81494
153.7750, 129.4180
155.0020, 126.9683
156.2290, 115.9497
157.4550, 90.89355
158.6810, 86.99170
159.9080, 88.38818
161.1340, 122.4600
162.3590, 107.6025
163.5850, 147.1523
164.8110, 82.03369
166.0360, 101.3052
167.2610, 47.58691
168.4860, 55.79541
169.7110, 56.95898
170.9360, 129.3223
172.1610, 192.6509
173.3850, 93.04199
174.6100, 76.15771
175.8340, 69.83350
177.0580, 28.54736
178.2820, 34.65234
179.5050, 27.65674
180.7290, 20.67188
181.9520, 71.42432
183.1760, 40.41357
184.3990, 79.98975
185.6220, 28.28906
186.8450, 152.2861
188.0670, 64.71436
189.2900, 36.91113
190.5120, 74.38330
191.7340, 15.96582
192.9560, 101.6914
194.1780, 96.09912
195.4000, 104.6479
196.6220, 89.03906
197.8430, 19.55859
199.0640, 57.86914
200.2860, 25.36475
201.5070, 115.6729
202.7270, 127.1021
203.9480, 148.2461
205.1690, 147.7754
206.3890, 82.41992
207.6090, 108.6841
208.8290, 66.46875
210.0490, 68.67383
211.2690, 26.12891
212.4890, 55.77881
213.7080, 65.47363
214.9280, 119.5190
216.1470, 145.2388
217.3660, 183.6992
218.5850, 107.7437
219.8030, 92.02490
221.0220, 2.109863
222.2400, 84.40039
223.4590, 89.87744
224.6770, 113.5850
225.8950, 4.096191
227.1120, 95.50439
228.3300, 108.2246
229.5480, 50.51758
230.7650, 133.9180
231.9820, 34.53027
233.1990, 68.11133
234.4160, 163.0532
235.6330, 139.3335
236.8490, 222.1426
238.0660, 78.44238
239.2820, 131.3286
240.4980, 158.5381
241.7140, 104.4795
242.9300, 134.3843
244.1460, 21.06689
245.3610, 33.50928
246.5770, 122.5879
247.7920, 12.92188
249.0070, 162.8647
250.2220, 95.35254
251.4370, 149.0557
252.6510, 78.48682
253.8660, 114.0918
255.0800, 112.4277
256.2940, 1.803223
257.5080, 100.5308
258.7220, 119.5137
259.9360, 6.047852
261.1490, 31.27930
262.3630, 69.01465
263.5760, 201.0649
264.7890, 203.2729
266.0020, 144.5635
267.2150, 141.9038
268.4270, 161.6909
269.6400, 215.9839
270.8520, 87.36035
272.0640, 75.17480
273.2760, 159.6792
274.4880, 66.99854
275.7000, 50.06494
276.9120, 107.0908
278.1230, 70.74365
279.3340, 133.3799
280.5450, 183.4463
281.7560, 96.73633
282.9670, 46.45947
284.1780, 57.18896
285.3880, 62.00977
286.5980, 156.4224
287.8090, 168.0874
289.0190, 119.4565
290.2290, 146.1372
291.4380, 118.0928
292.6480, 94.50391
293.8570, 79.52783
295.0670, 34.51611
296.2760, 45.72900
297.4850, 38.78271
298.6930, 80.48877
299.9020, 20.00928
301.1110, 78.63379
302.3190, 121.5723
303.5270, 137.1177
304.7350, 106.1450
305.9430, 58.92188
307.1510, 18.03955
308.3580, 173.5962
309.5660, 29.85352
310.7730, 112.9419
311.9800, 34.92725
313.1870, 152.8179
314.3940, 26.72217
315.6010, 61.10645
316.8070, 176.3452
318.0130, 66.66895
319.2200, 45.27393
320.4260, 8.303223
321.6310, 78.86523
322.8370, 47.34814
324.0430, 78.51172
325.2480, 27.35645
326.4540, 50.43359
327.6590, 182.8604
328.8640, 55.31934
330.0680, 118.6855
331.2730, 1.475586
332.4780, 113.6055
333.6820, 112.5361
334.8860, 64.65039
336.0900, 69.47559
337.2940, 22.17090
338.4980, 10.58008
339.7010, 16.46387
340.9050, 44.12793
342.1080, 78.26855
343.3110, 79.93457
344.5140, 177.5283
345.7170, 157.7734
346.9200, 99.19922
348.1220, 41.31152
349.3240, 92.62695
350.5270, 136.8740
351.7290, 191.8555
352.9310, 82.58789
354.1320, 5.298828
355.3340, 163.8770
356.5350, 22.35449
357.7370, 20.71484
358.9380, 125.9912
360.1390, 104.8428
361.3400, 24.54785
362.5400, 83.21094
363.7410, 5.023438
364.9410, 147.3789
366.1410, 121.8652
367.3410, 141.0322
368.5410, 85.44238
369.7410, 27.66992
370.9400, 76.41016
372.1400, 122.2119
373.3390, 126.8076
374.5380, 182.3604
375.7370, 30.20312
376.9360, 60.24512
378.1350, 59.64160
379.3330, 68.71191
380.5310, 145.7656
381.7300, 24.14062
382.9280, 141.1484
384.1260, 44.50586
385.3230, 93.38379
386.5210, 220.3115
387.7180, 233.1318
388.9160, 79.82129
390.1130, 120.4053
391.3100, 109.5215
392.5060, 59.63672
393.7030, 57.97949
394.9000, 88.30078
396.0960, 59.89453
397.2920, 187.0674
398.4880, 91.62500
399.6840, 44.96289
400.8800, 142.8320
402.0750, 159.0156
403.2710, 89.95117
404.4660, 100.2324
405.6610, 173.3779
406.8560, 68.20312
408.0510, 108.3623
409.2450, 162.8545
410.4400, 18.26367
411.6340, 128.3154
412.8280, 57.35449
414.0220, 276.3301
415.2160, 156.3535
416.4100, 5.177734
417.6030, 320.6074
418.7970, 110.9375
419.9900, 182.7402
421.1830, 80.20117
422.3760, 116.9209
423.5690, 80.79102
424.7610, 15.54395
425.9540, 114.9893
427.1460, 151.1348
428.3380, 123.1406
429.5300, 210.6729
430.7220, 134.9766
431.9140, 197.7871
433.1050, 202.0117
434.2970, 159.9404
435.4880, 149.5166
436.6790, 234.7852
437.8700, 29.08496
439.0610, 160.8594
440.2510, 268.0684
441.4420, 288.9033
442.6320, 74.05273
443.8220, 309.4541
445.0120, 194.4648
446.2020, 305.9912
447.3910, 155.7061
448.5810, 205.6650
449.7700, 121.4219
450.9600, 35.11230
452.1490, 68.30371
453.3370, 98.43848
454.5260, 113.1445
455.7150, 124.9297
456.9030, 216.9375
458.0910, 112.9824
459.2800, 243.7393
460.4670, 213.1943
461.6550, 135.5801
462.8430, 262.2998
464.0300, 122.6387
465.2180, 129.6357
466.4050, 195.9648
467.5920, 38.72266
468.7790, 148.2354
469.9650, 32.93457
471.1520, 71.98145
472.3380, 82.12891
473.5250, 185.2461
474.7110, 125.7852
475.8970, 150.4355
477.0820, 87.88477
478.2680, 151.9561
479.4540, 18.89355
480.6390, 153.5234
481.8240, 57.88184
483.0090, 145.2246
484.1940, 130.2031
485.3780, 163.6689
486.5630, 91.63867
487.7470, 128.0684
488.9320, 110.2402
490.1160, 18.25391
491.3000, 114.8574
492.4830, 117.8252
493.6670, 169.5146
494.8500, 13.15430
496.0340, 108.7549
497.2170, 80.44434
498.4000, 1.631836
499.5820, 99.50391
500.7650, 145.4355
501.9480, 110.6338
503.1300, 133.5576
504.3120, 128.6279
505.4940, 91.37012
506.6760, 162.4375
507.8580, 34.33105
509.0390, 193.1650
510.2210, 123.7529
511.4020, 154.6348
512.5830, 127.6826
513.7640, 16.01172
514.9450, 34.33301
516.1250, 50.18652
517.3060, 178.8330
518.4860, 53.43555
519.6660, 216.5781
520.8460, 80.53516
522.0260, 69.86914
523.2060, 47.94336
524.3850, 182.9160
525.5650, 192.0137
526.7440, 320.4941
527.9230, 236.6172
529.1020, 273.9941
530.2810, 169.7656
531.4590, 207.2617
532.6380, 154.4434
533.8160, 25.35156
534.9940, 86.64355
536.1720, 40.52637
537.3500, 216.6484
538.5270, 284.3262
539.7050, 192.9248
540.8820, 229.6357
542.0590, 123.4619
543.2360, 227.7715
544.4130, 56.26660
545.5900, 111.5928
546.7660, 118.6777
547.9430, 18.61914
549.1190, 13.97168
550.2950, 131.4746
551.4710, 38.85645
552.6470, 198.0498
553.8220, 201.1543
554.9980, 202.4600
556.1730, 109.6279
557.3480, 12.83008
558.5230, 207.7246
559.6980, 212.7754
560.8730, 68.31250
562.0470, 193.9688
563.2220, 10.80566
564.3960, 93.65039
565.5700, 138.7861
566.7440, 130.4639
567.9170, 138.2441
569.0910, 170.9111
570.2640, 40.85352
571.4380, 168.4658
572.6110, 45.46973
573.7840, 119.2549
574.9570, 203.5488
576.1290, 244.8115
577.3020, 279.0215
578.4740, 242.0049
579.6460, 332.3984
580.8180, 198.9170
581.9900, 262.0879
583.1620, 219.7998
584.3330, 350.3320
585.5040, 219.0615
586.6760, 123.9424
587.8470, 80.56641
589.0180, 214.1670
590.1880, 51.60059
591.3590, 130.7002
592.5290, 176.1904
593.7000, 30.10547
594.8700, 197.0918
596.0400, 263.2646
597.2090, 179.4668
598.3790, 150.0996
599.5490, 67.56641
600.7180, 239.3711
601.8870, 131.8164
603.0560, 29.53516
604.2250, 240.8008
605.3940, 188.7842
606.5620, 326.4648
607.7300, 212.9590
608.8990, 181.5479
610.0670, 157.4717
611.2350, 12.19531
612.4020, 257.6641
613.5700, 72.29980
614.7370, 152.2559
615.9050, 147.0996
617.0720, 178.2295
618.2390, 205.3203
619.4060, 226.2549
620.5720, 215.0576
621.7390, 197.3477
622.9050, 95.29102
624.0710, 113.2949
625.2370, 60.91699
626.4030, 8.132813
627.5690, 98.59473
628.7340, 124.7256
629.9000, 7.449219
631.0650, 208.6426
632.2300, 305.3730
633.3950, 154.3535
634.5600, 205.1973
635.7240, 86.43164
636.8890, 214.0488
638.0530, 21.05859
639.2170, 114.6211
640.3810, 113.0273
641.5450, 142.3027
642.7080, 170.7168
643.8720, 245.9531
645.0350, 159.8359
646.1980, 234.5781
647.3610, 154.4844
648.5240, 126.8145
649.6870, 188.7578
650.8490, 47.51758
652.0120, 142.0586
653.1740, 137.4512
654.3360, 167.6621
655.4980, 116.8711
656.6600, 30.50000
657.8210, 4.806641
658.9830, 69.24023
660.1440, 97.06250
661.3050, 238.9160
662.4660, 122.6367
663.6270, 176.8281
664.7870, 61.37500
665.9480, 99.47852
667.1080, 236.8477
668.2680, 180.5684
669.4280, 344.4297
670.5880, 88.09766
671.7480, 1.373047
672.9070, 18.34570
674.0670, 29.98242
675.2260, 144.3379
676.3850, 102.5625
677.5440, 163.4648
678.7030, 295.6914
679.8610, 157.6973
681.0200, 52.41406
682.1780, 43.06641
683.3360, 18.41406
684.4940, 187.7031
685.6520, 33.63672
686.8090, 93.95898
687.9670, 112.0391
689.1240, 27.13086
690.2810, 96.21484
691.4380, 58.55859
692.5950, 153.2949
693.7520, 252.3965
694.9080, 241.9668
696.0650, 108.0977
697.2210, 260.7363
698.3770, 223.5137
699.5330, 174.8828
700.6880, 201.0430
701.8440, 187.2480
702.9990, 148.8828
704.1550, 172.2949
705.3100, 153.2949
706.4650, 40.42188
707.6190, 28.17188
708.7740, 201.1895
709.9290, 110.9707
711.0830, 164.5020
712.2370, 261.6035
713.3910, 5.800781
714.5450, 76.82812
715.6980, 118.5273
716.8520, 140.1055
718.0050, 82.27539
719.1580, 201.0723
720.3110, 137.8105
721.4640, 31.62695
722.6170, 415.9668
723.7700, 206.4707
724.9220, 69.58203
726.0740, 13.22461
727.2260, 336.1797
728.3780, 186.0645
729.5300, 293.9844
730.6810, 118.6035
731.8330, 326.1406
732.9840, 295.9336
734.1350, 249.4414
735.2860, 239.0801
736.4370, 211.9766
737.5880, 135.7344
738.7380, 168.4609
739.8880, 16.30273
741.0390, 54.76562
742.1890, 265.0527
743.3380, 177.2344
744.4880, 240.1660
745.6380, 96.53711
746.7870, 116.4629
747.9360, 152.7441
749.0850, 164.6719
750.2340, 157.9648
751.3830, 112.6895
752.5310, 121.7793
753.6800, 75.01953
754.8280, 39.69336
755.9760, 11.00195
757.1240, 48.70898
758.2720, 115.4531
759.4190, 279.7148
760.5670, 254.1621
761.7140, 194.5996
762.8610, 257.1699
764.0080, 205.5547
765.1550, 167.2031
766.3020, 89.80078
767.4480, 152.3828
768.5950, 86.41992
769.7410, 51.69141
770.8870, 288.6094
772.0330, 117.7441
773.1780, 305.2402
774.3240, 80.65820
775.4690, 184.4746
776.6140, 145.3340
777.7590, 74.41797
778.9040, 140.1387
780.0490, 63.07031
781.1940, 104.3340
782.3380, 168.5820
783.4820, 152.4375
784.6260, 170.8145
785.7700, 160.9609
786.9140, 167.3770
788.0580, 125.6465
789.2010, 191.6016
790.3450, 183.8926
791.4880, 73.54883
792.6310, 117.4434
793.7730, 192.8809
794.9160, 126.3965
796.0590, 138.7734
797.2010, 99.72070
798.3430, 185.9473
799.4850, 192.1875
800.6270, 66.94141
801.7690, 258.7988
802.9100, 41.84570
804.0520, 27.25000
805.1930, 59.15625
806.3340, 254.5781
807.4750, 180.6191
808.6160, 295.0000
809.7560, 296.4707
810.8970, 137.5254
812.0370, 168.0820
813.1770, 298.2090
814.3170, 461.6152
815.4570, 63.72070
816.5960, 221.3086
817.7360, 81.58984
818.8750, 203.0391
820.0140, 10.35938
821.1530, 42.43555
822.2920, 133.2598
823.4310, 130.2500
824.5690, 107.5645
825.7070, 141.8965
826.8460, 144.1172
827.9840, 126.2734
829.1220, 87.23438
830.2590, 222.5332
831.3970, 309.1895
832.5340, 137.7539
833.6710, 6.703125
834.8080, 51.22461
835.9450, 92.52344
837.0820, 220.5625
838.2190, 10.65625
839.3550, 88.62500
840.4910, 142.4102
841.6270, 28.78125
842.7630, 215.8594
843.8990, 138.9102
845.0350, 158.1035
846.1700, 143.7793
847.3060, 87.02930
848.4410, 321.4434
849.5760, 46.22266
850.7100, 292.3770
851.8450, 70.28125
852.9800, 39.71289
854.1140, 138.2754
855.2480, 266.2520
856.3820, 31.38867
857.5160, 193.1992
858.6500, 246.7344
859.7830, 292.5703
860.9170, 396.5117
862.0500, 425.8340
863.1830, 27.65039
864.3160, 272.8418
865.4480, 232.6777
866.5810, 47.76172
867.7130, 293.0547
868.8460, 296.0586
869.9780, 360.0000
871.1100, 74.50586
872.2410, 132.1055
873.3730, 119.5469
874.5050, 306.6172
875.6360, 155.8730
876.7670, 120.1465
877.8980, 309.7012
879.0290, 328.1328
880.1590, 292.5547
881.2900, 258.9805
882.4200, 298.1016
883.5500, 138.7246
884.6800, 183.4453
885.8100, 340.1699
886.9400, 183.8242
888.0690, 263.2637
889.1990, 132.6758
890.3280, 94.84180
891.4570, 391.7871
892.5860, 49.31445
893.7140, 174.1465
894.8430, 291.2812
895.9710, 111.0586
897.1000, 144.6875
898.2280, 25.01367
899.3560, 342.0664
900.4830, 247.3359
901.6110, 214.5371
902.7380, 228.2441
903.8660, 186.1973
904.9930, 208.7773
906.1200, 170.4863
907.2460, 77.84961
908.3730, 62.50391
909.5000, 37.79883
910.6260, 138.1387
911.7520, 142.5645
912.8780, 194.0898
914.0040, 72.27734
915.1290, 224.6934
916.2550, 280.7129
917.3800, 133.8984
918.5050, 19.30664
919.6300, 145.5879
920.7550, 25.09766
921.8800, 370.0820
923.0040, 88.25391
924.1290, 260.2070
925.2530, 434.3984
926.3770, 124.5234
927.5010, 169.8672
928.6250, 9.736328
929.7480, 70.59180
930.8720, 40.12500
931.9950, 152.7988
933.1180, 24.29883
934.2410, 233.3164
935.3640, 205.9199
936.4860, 217.8535
937.6090, 80.66602
938.7310, 268.3926
939.8530, 381.8105
940.9750, 68.32617
942.0970, 325.0000
943.2180, 140.3301
944.3400, 329.9941
945.4610, 92.74414
946.5820, 73.79883
947.7030, 421.2637
948.8240, 90.39648
949.9450, 274.0508
951.0650, 280.5762
952.1860, 121.8281
953.3060, 268.4180
954.4260, 313.5312
955.5460, 332.2754
956.6650, 541.1758
957.7850, 490.9180
958.9040, 573.6328
960.0230, 708.2266
961.1420, 914.9336
962.2610, 1119.639
963.3800, 1548.240
964.4990, 2060.641
965.6170, 2423.588
966.7350, 1979.859
967.8530, 1648.393
968.9710, 1000.580
970.0890, 672.5059
971.2070, 497.7676
972.3240, 251.5352
973.4410, 358.6855
974.5580, 2.076172
975.6750, 288.2480
976.7920, 400.0566
977.9090, 203.6367
979.0250, 238.8711
980.1410, 242.1797
981.2580, 405.4004
982.3740, 282.3418
983.4890, 143.0918
984.6050, 242.5781
985.7200, 136.2773
986.8360, 277.9883
987.9510, 191.8750
989.0660, 70.91602
990.1810, 241.4688
991.2950, 149.5840
992.4100, 63.78906
993.5240, 14.80078
994.6390, 139.6641
995.7530, 159.1055
996.8660, 157.5254
997.9800, 122.3535
999.0940, 68.72461
1000.207, 334.9082
1001.320, 146.0234
1002.433, 335.3281
1003.546, 140.6016
1004.659, 8.144531
1005.772, 254.1523
1006.884, 203.3516
1007.996, 102.8906
1009.108, 67.02734
1010.220, 284.6797
1011.332, 178.1719
1012.444, 89.92578
1013.555, 83.01953
1014.666, 55.95703
1015.777, 38.12891
1016.888, 153.7617
1017.999, 276.0898
1019.110, 309.5859
1020.220, 316.9648
1021.331, 32.10547
1022.441, 203.6328
1023.551, 85.81250
1024.661, 52.77734
1025.770, 128.4961
1026.880, 240.8359
1027.989, 250.1484
1029.098, 75.82031
1030.207, 57.84375
1031.316, 155.9922
1032.425, 2.710938
1033.533, 413.3086
1034.642, 43.84375
1035.750, 339.2266
1036.858, 252.6641
1037.966, 353.9141
1039.073, 311.2461
1040.181, 326.8164
1041.288, 47.16406
1042.396, 265.6484
1043.503, 159.6406
1044.610, 69.29297
1045.716, 201.7266
1046.823, 168.9531
1047.929, 118.4648
1049.036, 69.80859
1050.142, 120.2227
1051.248, 108.1797
1052.353, 136.4727
1053.459, 105.4414
1054.564, 187.3711
1055.670, 188.7344
1056.775, 169.6758
1057.880, 206.2930
1058.985, 91.14844
1060.089, 194.0391
1061.194, 290.7539
1062.298, 242.6445
1063.402, 142.1211
1064.506, 8.011719
1065.610, 11.01953
1066.713, 191.7383
1067.817, 202.0078
1068.920, 281.2070
1070.023, 77.46484
1071.126, 22.05859
1072.229, 428.3047
1073.332, 0.4492190
1074.435, 48.97266
1075.537, 234.2031
1076.639, 41.85156
1077.741, 67.34375
1078.843, 97.05469
1079.945, 50.46875
1081.046, 5.191406
1082.148, 184.8359
1083.249, 23.96875
1084.350, 370.1055
1085.451, 178.9141
1086.551, 110.0469
1087.652, 5.824219
1088.752, 199.3008
1089.853, 312.4297
1090.953, 206.5547
1092.053, 124.6836
1093.152, 103.8086
1094.252, 135.9336
1095.351, 192.0625
1096.451, 189.1875
1097.550, 137.3125
1098.649, 11.56641
1099.748, 208.5469
1100.846, 153.6602
1101.945, 190.7852
1103.043, 309.9062
1104.141, 340.0312
1105.239, 53.15625
1106.337, 33.71094
1107.434, 197.3867
1108.532, 32.49219
1109.629, 144.6289
1110.726, 56.75781
1111.823, 45.88281
1112.920, 122.0078
1114.017, 89.12500
1115.113, 205.2812
1116.210, 160.4102
1117.306, 170.5625
1118.402, 262.6953
1119.498, 90.84766
1120.593, 164.0273
1121.689, 326.9258
1122.784, 379.1094
1123.879, 63.30469
1124.974, 299.1602
1126.069, 9.929688
1127.164, 253.1367
1128.259, 293.3516
1129.353, 63.57031
1130.447, 248.8008
1131.541, 310.8516
1132.635, 132.0898
1133.729, 79.33594
1134.822, 308.5938
1135.916, 103.8594
1137.009, 211.3203
1138.102, 10.40234
1139.195, 430.8750
1140.288, 117.1680
1141.380, 271.3672
1142.473, 253.6719
1143.565, 36.00781
1144.657, 278.2969
1145.749, 277.2109
1146.841, 176.3477
1147.932, 316.1406
1149.024, 216.6914
1150.115, 261.0430
1151.206, 107.4102
1152.297, 394.7891
1153.388, 77.15625
1154.479, 406.5508
1155.569, 257.9688
1156.659, 19.31641
1157.750, 162.7578
1158.839, 219.2188
1159.929, 11.68750
1161.019, 196.1719
1162.108, 170.6602
1163.198, 112.6641
1164.287, 364.6719
1165.376, 266.2109
1166.465, 22.64062
1167.553, 240.2070
1168.642, 148.7930
1169.730, 159.3906
1170.818, 289.6445
1171.906, 205.6992
1172.994, 414.2695
1174.082, 381.9336
1175.170, 342.3984
1176.257, 19.35156
1177.344, 38.06250
1178.431, 68.79688
1179.518, 125.5430
1180.605, 166.5195
1181.691, 288.2969
1182.778, 201.0938
1183.864, 262.9141
1184.950, 0.2460940
1186.036, 453.6250
1187.122, 353.6445
1188.207, 78.55078
1189.292, 426.4727
1190.378, 242.4102
1191.463, 99.37109
1192.548, 123.4023
1193.632, 175.4609
1194.717, 250.5391
1195.801, 259.3711
1196.886, 380.0703
1197.970, 210.2344
1199.054, 160.4102
1200.137, 472.6055
1201.221, 345.8164
1202.305, 61.97656
1203.388, 218.2305
1204.471, 222.7539
1205.554, 272.0469
1206.637, 323.3555
1207.719, 167.8047
1208.802, 343.1523
1209.884, 134.5273
1210.966, 43.38281
1212.048, 513.5664
1213.130, 552.9883
1214.212, 455.4219
1215.293, 357.8867
1216.374, 376.3789
1217.456, 106.8828
1218.536, 428.5000
1219.617, 469.0547
1220.698, 348.6211
1221.778, 148.2148
1222.859, 127.8281
1223.939, 331.4609
1225.019, 274.1172
1226.099, 282.7969
1227.178, 272.5000
1228.258, 263.5039
1229.337, 284.1680
1230.417, 264.6641
1231.496, 304.4531
1232.574, 297.2656
1233.653, 263.1016
1234.732, 285.9531
1235.810, 267.8359
1236.888, 488.6523
1237.966, 454.5898
1239.044, 146.5820
1240.122, 484.5625
1241.199, 221.5781
1242.277, 338.6094
1243.354, 233.6680
1244.431, 305.7500
1245.508, 204.8555
1246.585, 350.9883
1247.661, 313.1445
1248.738, 74.32422
1249.814, 397.5273
1250.890, 31.88672
1251.966, 284.9648
1253.042, 425.7461
1254.117, 460.2188
1255.193, 70.19922
1256.268, 228.4219
1257.343, 166.9688
1258.418, 96.50781
1259.493, 331.9922
1260.567, 3.761719
1261.642, 234.4336
1262.716, 242.0039
1263.790, 351.7031
1264.864, 240.3555
1265.938, 197.3125
1267.011, 375.4062
1268.085, 430.5391
1269.158, 293.8047
1270.231, 410.1094
1271.304, 74.39062
1272.377, 135.3828
1273.450, 365.8750
1274.522, 240.3477
1275.594, 360.8164
1276.666, 387.6445
1277.738, 11.15625
1278.810, 330.3750
1279.882, 351.7617
1280.953, 44.41016
1282.025, 360.6484
1283.096, 98.68359
1284.167, 44.00391
1285.238, 143.7930
1286.308, 81.64062
1287.379, 274.8633
1288.449, 222.1328
1289.519, 147.4492
1290.589, 168.6875
1291.659, 81.74609
1292.729, 171.8984
1293.798, 81.19531
1294.868, 161.7461
1295.937, 281.0547
1297.006, 103.3398
1298.075, 240.1562
1299.143, 110.7539
1300.212, 53.52734
1301.280, 40.28906
1302.348, 233.8086
1303.416, 114.6406
1304.484, 68.74219
1305.552, 145.1094
1306.620, 124.0391
1307.687, 201.1875
1308.754, 12.43359
1309.821, 47.15625
1310.888, 31.47266
1311.955, 276.0430
1313.021, 315.1719
1314.088, 106.5312
1315.154, 100.9688
1316.220, 626.4102
1317.286, 247.3906
1318.352, 483.4023
1319.417, 257.4570
1320.483, 585.5430
1321.548, 513.6641
1322.613, 419.8125
1323.678, 234.9883
1324.743, 245.1914
1325.807, 271.4297
1326.872, 325.6953
1327.936, 531.9883
1329.000, 301.3008
1330.064, 445.6445
1331.128, 313.0117
1332.191, 835.4102
1333.255, 205.8320
1334.318, 368.2852
1335.381, 660.7656
1336.444, 468.2773
1337.507, 371.8203
1338.569, 780.3906
1339.632, 335.5000
1340.694, 809.1406
1341.756, 429.8086
1342.818, 415.5078
1343.880, 431.2266
1344.941, 458.9805
1346.003, 346.7578
1347.064, 242.5703
1348.125, 321.4062
1349.186, 421.2734
1350.247, 305.1680
1351.308, 504.0898
1352.368, 284.0430
1353.428, 393.0234
1354.489, 263.0312
1355.549, 209.0703
1356.608, 252.1328
1357.668, 497.2305
1358.727, 257.3594
1359.787, 713.5156
1360.846, 198.6992
1361.905, 370.9102
1362.964, 635.1562
1364.022, 525.4219
1365.081, 456.7344
1366.139, 478.0742
1367.197, 243.4414
1368.255, 423.8438
1369.313, 356.2773
1370.371, 539.7344
1371.428, 148.2227
1372.486, 712.7383
1373.543, 204.2891
1374.600, 353.8672
1375.657, 138.4727
1376.713, 298.1133
1377.770, 285.3555
1378.826, 432.4844
1379.882, 381.2148
1380.938, 259.9805
1381.994, 371.7734
1383.050, 340.0469
1384.106, 606.4492
1385.161, 420.3359
1386.216, 451.2500
1387.271, 480.1953
1388.326, 78.17188
1389.381, 375.1758
1390.435, 345.2148
1391.490, 374.2812
1392.544, 713.3867
1393.598, 126.5234
1394.652, 425.6875
1395.705, 318.8906
1396.759, 377.1250
1397.812, 232.3945
1398.866, 413.6953
1399.919, 560.0312
1400.972, 374.4062
1402.024, 481.6367
1403.077, 111.2656
1404.129, 417.7422
1405.181, 331.0508
1406.233, 295.6016
1407.285, 432.1836
1408.337, 550.8086
1409.389, 221.4609
1410.440, 42.83984
1411.491, 321.8867
1412.542, 129.6523
1413.593, 310.4570
1414.644, 296.2969
1415.695, 462.1758
1416.745, 366.0977
1417.795, 518.0586
1418.845, 327.5703
1419.895, 386.6133
1420.945, 503.6953
1421.995, 247.8242
1423.044, 287.0000
1424.093, 480.5391
1425.142, 220.8047
1426.191, 330.4727
1427.240, 471.7969
1428.289, 486.2188
1429.337, 268.3945
1430.385, 497.1250
1431.433, 197.7344
1432.481, 204.3516
1433.529, 293.0195
1434.577, 140.7461
1435.624, 218.3164
1436.672, 186.1523
1437.719, 300.0469
1438.766, 71.02734
1439.812, 663.9805
1440.859, 126.0000
1441.905, 294.9453
1442.952, 614.0820
1443.998, 272.2773
1445.044, 448.5430
1446.090, 421.0508
1447.135, 438.4844
1448.181, 218.8555
1449.226, 305.5547
1450.271, 571.2852
1451.316, 246.0664
1452.361, 216.8828
1453.405, 440.7461
1454.450, 126.6445
1455.494, 222.5898
1456.538, 351.5781
1457.582, 67.61719
1458.626, 201.7070
1459.670, 496.8359
1460.713, 448.0000
1461.757, 177.2148
1462.800, 320.4688
1463.843, 184.7656
1464.886, 220.1055
1465.928, 672.4883
1466.971, 412.9062
1468.013, 547.3750
1469.055, 386.8828
1470.097, 82.43359
1471.139, 399.0234
1472.181, 328.6602
1473.222, 202.3359
1474.263, 545.0547
1475.305, 361.8164
1476.346, 311.6133
1477.386, 368.4609
1478.427, 306.3398
1479.468, 376.2656
1480.508, 266.2344
1481.548, 323.2461
1482.588, 330.2891
1483.628, 169.3828
1484.668, 160.5117
1485.707, 27.68359
1486.747, 307.8984
1487.786, 444.1445
1488.825, 520.4375
1489.864, 471.7617
1490.902, 527.9375
1491.941, 244.2070
1492.979, 432.6367
1494.017, 299.1016
1495.055, 94.59766
1496.093, 166.1523
1497.131, 528.7539
1498.168, 437.3867
1499.206, 395.0508
1500.243, 568.8047
1501.280, 161.6094
1502.317, 339.5078
1503.354, 363.4492
1504.390, 405.4180
1505.426, 436.4102
1506.463, 454.4297
1507.499, 302.4922
1508.535, 253.6016
1509.570, 346.7148
1510.606, 295.8359
1511.641, 352.0234
1512.676, 404.2891
1513.711, 212.6289
1514.746, 263.0469
1515.781, 298.5312
1516.816, 425.1055
1517.850, 312.7500
1518.884, 161.4766
1519.918, 298.2852
1520.952, 346.1719
1521.986, 100.1406
1523.019, 392.1992
1524.053, 117.3359
1525.086, 592.5586
1526.119, 350.8789
1527.152, 278.2852
1528.185, 322.7812
1529.217, 373.3750
1530.250, 334.0703
1531.282, 467.8594
1532.314, 390.7773
1533.346, 262.8242
1534.377, 173.9844
1535.409, 388.2656
1536.440, 488.6680
1537.472, 187.2031
1538.503, 464.8633
1539.534, 407.6641
1540.564, 243.6094
1541.595, 422.7148
1542.625, 459.9961
1543.656, 255.4492
1544.686, 413.0898
1545.716, 74.92188
1546.745, 44.95312
1547.775, 13.79688
1548.804, 20.66797
1549.834, 4.734375
1550.863, 13.59375
1551.892, 44.56641
1552.920, 19.91797
1553.949, 16.89453
1554.977, 58.04297
1556.006, 487.5391
1557.034, 116.4180
1558.062, 368.7148
1559.089, 78.45703
1560.117, 265.3477
1561.144, 146.8086
1562.172, 43.85547
1563.199, 258.7305
1564.226, 252.8281
1565.252, 183.9375
1566.279, 285.0664
1567.305, 111.4453
1568.332, 193.4375
1569.358, 0.2421880
1570.384, 261.7500
1571.409, 0.0000000E+00
##END=



