##NAMES=Fluorophlogopite
##RRUFFID=R040075
##IDEAL CHEMISTRY=KMg_3_(Si_3_Al)O_10_F_2_
##LOCALITY=unknown
##OWNER=RRUFF
##SOURCE=University of Arizona Mineral Museum
##DESCRIPTION=Green hexagonal tablet
##STATUS=The identification of this mineral has been confirmed by X-ray diffraction and chemical analysis
##URL=rruff.info/R040075
##MEASURED CHEMISTRY=(K_0.93_[box]_0.04_Na_0.03_)(Mg_0.66_Fe_0.30_Ti_0.02_)_3_(Si_0.75_Al_0.25_)_4_O_10_(F_0.90_(OH)_0.06_Cl_0.04_)
##PIN_ID=L00309
##ORIENTATION=Laser parallel to -b* (0 -1 0). Fiducial mark perpendicular to laser is parallel to -c [0 0 -1]
130.367, 0.000
131.756, 135.974
133.144, 0.305
134.532, 50.298
135.920, 63.556
137.307, 30.870
138.695, 179.941
140.082, 86.330
141.469, 22.541
142.856, 53.817
144.242, 26.933
145.628, 11.519
147.014, 42.709
148.400, 46.313
149.786, 172.184
151.171, 158.202
152.556, 461.268
153.941, 651.288
155.325, 648.174
156.710, 788.840
158.094, 968.211
159.478, 1192.215
160.862, 1382.790
162.245, 1687.884
163.629, 1976.458
165.012, 2338.482
166.395, 2835.948
167.777, 3343.854
169.160, 3787.190
170.542, 4640.934
171.924, 5555.075
173.306, 6609.583
174.687, 7894.422
176.068, 9279.563
177.449, 11094.977
178.830, 13000.630
180.211, 15626.494
181.591, 17982.551
182.972, 20998.771
184.351, 23885.135
185.731, 26511.627
187.111, 28128.230
188.490, 29684.930
189.869, 29861.711
191.248, 28478.570
192.626, 26205.564
194.005, 23682.674
195.383, 20619.926
196.761, 17717.287
198.139, 14654.810
199.516, 12572.533
200.893, 10260.575
202.271, 8448.835
203.647, 7067.453
205.024, 5986.347
206.400, 5095.406
207.777, 4174.515
209.152, 3665.815
210.528, 3115.351
211.904, 2605.063
213.279, 2315.891
214.654, 1937.716
216.029, 1735.531
217.403, 1533.329
218.778, 1366.127
220.152, 1208.700
221.526, 1055.689
222.900, 958.408
224.273, 845.062
225.646, 780.643
227.019, 680.150
228.392, 580.582
229.765, 492.939
231.137, 511.220
232.509, 477.426
233.881, 399.557
235.253, 422.609
236.625, 390.306
237.996, 371.485
239.367, 378.305
240.738, 371.049
242.108, 355.713
243.479, 325.300
244.849, 330.228
246.219, 333.396
247.589, 333.578
248.958, 379.845
250.328, 396.176
251.697, 453.703
253.065, 476.931
254.434, 530.290
255.803, 545.047
257.171, 558.261
258.539, 697.194
259.906, 708.206
261.274, 810.042
262.641, 895.354
264.008, 1072.999
265.375, 1201.177
266.742, 1407.513
268.108, 1584.774
269.475, 1857.204
270.840, 2060.397
272.206, 2338.614
273.572, 2607.677
274.937, 3008.935
276.302, 3099.065
277.667, 3267.620
279.032, 3158.692
280.396, 3285.470
281.760, 2972.545
283.125, 2679.091
284.488, 2535.044
285.852, 2145.993
287.215, 1985.044
288.578, 1717.577
289.941, 1609.369
291.304, 1443.475
292.666, 1284.503
294.029, 1270.938
295.391, 1131.706
296.753, 1116.399
298.114, 1102.382
299.476, 1176.802
300.837, 1308.661
302.198, 1351.268
303.558, 1437.110
304.919, 1414.546
306.279, 1596.509
307.639, 1691.352
308.999, 1721.594
310.359, 1952.457
311.718, 1938.958
313.077, 2030.337
314.436, 2079.967
315.795, 2213.263
317.154, 2232.562
318.512, 2217.693
319.870, 2210.585
321.228, 2153.800
322.586, 2093.365
323.943, 1988.086
325.300, 1901.684
326.657, 1765.303
328.014, 1628.870
329.371, 1500.266
330.727, 1420.718
332.083, 1377.055
333.439, 1221.386
334.795, 1082.545
336.150, 1046.743
337.506, 998.744
338.861, 1036.714
340.215, 812.747
341.570, 820.478
342.924, 715.206
344.279, 718.810
345.633, 706.497
346.986, 610.096
348.340, 562.701
349.693, 579.153
351.046, 527.459
352.399, 494.699
353.752, 506.148
355.104, 459.295
356.457, 445.419
357.809, 432.218
359.160, 412.974
360.512, 356.024
361.863, 399.810
363.214, 344.692
364.565, 333.412
365.916, 340.897
367.267, 265.449
368.617, 335.818
369.967, 229.331
371.317, 180.714
372.666, 146.988
374.016, 171.260
375.365, 192.424
376.714, 159.623
378.063, 168.669
379.411, 99.606
380.760, 118.482
382.108, 58.195
383.456, 109.047
384.803, 97.620
386.151, 79.442
387.498, 96.888
388.845, 86.252
390.192, 106.547
391.539, 70.772
392.885, 45.927
394.231, 64.125
395.577, 16.171
396.923, 14.887
398.269, 50.978
399.614, 8.772
400.959, 3.643
402.304, 29.552
403.649, 40.318
404.993, 32.186
406.337, 57.772
407.681, 31.664
409.025, 3.083
410.369, 1.189
411.712, 6.266
413.055, 39.775
414.398, 21.838
415.741, 48.987
417.084, 45.257
418.426, 39.538
419.768, 26.971
421.110, 34.495
422.452, 2.888
423.793, 60.813
425.134, 37.616
426.475, 18.517
427.816, 13.480
429.157, 4.387
430.497, 15.495
431.837, 14.842
433.177, 18.477
434.517, 8.022
435.857, 8.361
437.196, 25.377
438.535, 22.239
439.874, 26.211
441.213, 71.315
442.551, 15.535
443.889, 46.849
445.227, 38.264
446.565, 46.783
447.903, 22.423
449.240, 24.190
450.577, 64.074
451.914, 16.090
453.251, 33.216
454.588, 25.464
455.924, 8.825
457.260, 44.273
458.596, 21.826
459.932, 21.470
461.267, 27.145
462.602, 9.043
463.938, 26.966
465.272, 18.986
466.607, 26.100
467.941, 40.313
469.276, 28.623
470.610, 12.968
471.943, 15.522
473.277, 44.895
474.610, 28.237
475.944, 56.502
477.276, 57.693
478.609, 78.810
479.942, 107.854
481.274, 94.827
482.606, 128.729
483.938, 141.560
485.270, 168.322
486.601, 160.014
487.932, 168.638
489.263, 205.193
490.594, 186.680
491.925, 208.213
493.255, 203.449
494.585, 237.732
495.915, 220.949
497.245, 260.098
498.575, 259.182
499.904, 235.200
501.233, 298.152
502.562, 289.040
503.891, 308.864
505.219, 278.625
506.548, 289.322
507.876, 276.956
509.203, 302.525
510.531, 326.033
511.859, 330.481
513.186, 268.880
514.513, 329.227
515.840, 322.517
517.166, 426.751
518.493, 386.034
519.819, 303.047
521.145, 353.108
522.470, 317.110
523.796, 342.057
525.121, 401.954
526.446, 353.799
527.771, 382.479
529.096, 333.215
530.421, 348.615
531.745, 358.750
533.069, 342.684
534.393, 351.672
535.716, 326.660
537.040, 346.465
538.363, 355.248
539.686, 352.688
541.009, 390.145
542.331, 323.266
543.654, 378.571
544.976, 295.769
546.298, 367.843
547.620, 382.927
548.941, 368.914
550.263, 390.934
551.584, 378.226
552.905, 339.247
554.225, 357.858
555.546, 376.979
556.866, 362.809
558.186, 379.115
559.506, 323.942
560.826, 320.610
562.145, 282.177
563.465, 388.141
564.784, 359.367
566.103, 317.901
567.421, 380.604
568.740, 359.401
570.058, 387.235
571.376, 366.667
572.694, 397.915
574.011, 353.208
575.329, 317.717
576.646, 395.382
577.963, 383.328
579.279, 345.987
580.596, 377.098
581.912, 422.481
583.228, 401.794
584.544, 398.490
585.860, 463.314
587.175, 418.807
588.491, 463.927
589.806, 516.343
591.121, 516.687
592.435, 539.048
593.750, 598.130
595.064, 599.112
596.378, 692.982
597.692, 723.990
599.006, 800.692
600.319, 853.509
601.632, 919.773
602.945, 1041.020
604.258, 1043.755
605.571, 1209.906
606.883, 1312.538
608.195, 1352.015
609.507, 1473.944
610.819, 1585.844
612.131, 1748.629
613.442, 1884.864
614.753, 2066.107
616.064, 2152.091
617.375, 2406.450
618.685, 2642.798
619.995, 2712.759
621.306, 2892.826
622.615, 3066.740
623.925, 3175.125
625.235, 3415.038
626.544, 3471.033
627.853, 3567.737
629.162, 3596.842
630.471, 3651.323
631.779, 3657.930
633.087, 3591.290
634.395, 3571.976
635.703, 3562.650
637.011, 3430.477
638.318, 3552.524
639.625, 3428.440
640.932, 3549.548
642.239, 3472.687
643.546, 3570.915
644.852, 3580.086
646.158, 3614.274
647.464, 3635.592
648.770, 3762.812
650.076, 3842.103
651.381, 4110.352
652.686, 4169.728
653.991, 4397.013
655.296, 4722.441
656.600, 4716.849
657.905, 5229.280
659.209, 5486.814
660.513, 5892.316
661.817, 6264.108
663.120, 6804.545
664.423, 7451.156
665.726, 7923.576
667.029, 8994.393
668.332, 9845.291
669.635, 10878.894
670.937, 12241.656
672.239, 13163.380
673.541, 14704.966
674.842, 15736.325
676.144, 16667.174
677.445, 17718.354
678.746, 17579.145
680.047, 17550.787
681.348, 17093.424
682.648, 15905.512
683.948, 14696.545
685.248, 13218.424
686.548, 11489.409
687.848, 10161.462
689.147, 8584.061
690.447, 7565.986
691.746, 6437.682
693.044, 5548.051
694.343, 4804.063
695.641, 4193.505
696.940, 3745.752
698.238, 3201.302
699.535, 2969.885
700.833, 2577.781
702.130, 2461.111
703.427, 2244.751
704.724, 2056.586
706.021, 1977.490
707.318, 1888.333
708.614, 1659.899
709.910, 1695.145
711.206, 1684.184
712.502, 1545.671
713.798, 1524.427
715.093, 1490.973
716.388, 1473.389
717.683, 1382.274
718.978, 1398.377
720.272, 1428.896
721.567, 1290.413
722.861, 1342.729
724.155, 1253.208
725.448, 1238.598
726.742, 1184.989
728.035, 1138.490
729.328, 1140.896
730.621, 1048.309
731.914, 1017.708
733.206, 1023.151
734.499, 913.608
735.791, 973.074
737.083, 821.554
738.374, 817.036
739.666, 755.539
740.957, 752.056
742.248, 726.583
743.539, 684.112
744.830, 681.645
746.120, 606.180
747.410, 647.719
748.701, 625.259
749.990, 551.808
751.280, 602.362
752.570, 567.929
753.859, 540.510
755.148, 750.105
756.437, 667.409
757.725, 677.408
759.014, 688.015
760.302, 590.688
761.590, 635.381
762.878, 604.089
764.166, 527.813
765.453, 651.562
766.740, 612.326
768.027, 582.107
769.314, 602.906
770.601, 596.716
771.887, 607.547
773.174, 608.380
774.460, 618.258
775.745, 599.139
777.031, 576.033
778.316, 553.944
779.602, 533.871
780.887, 499.816
782.172, 472.782
783.456, 454.767
784.741, 440.759
786.025, 403.767
787.309, 422.780
788.593, 400.800
789.876, 338.825
791.160, 365.854
792.443, 318.888
793.726, 301.926
795.009, 264.967
796.291, 236.012
797.574, 233.060
798.856, 231.109
800.138, 211.162
801.420, 187.217
802.702, 177.275
803.983, 128.335
805.264, 134.397
806.545, 125.462
807.826, 87.528
809.107, 82.597
810.387, 85.667
811.667, 26.739
812.947, 98.811
814.227, 54.885
815.507, 1.960
816.786, 51.033
818.065, 16.108
819.344, 45.182
820.623, 2.742
821.902, 2.670
823.180, 53.600
824.459, 43.660
825.737, 20.535
827.014, 18.524
828.292, 8.522
829.569, 22.473
830.847, 12.533
832.124, 1.454
833.401, 20.561
834.677, 36.586
835.954, 23.631
837.230, 5.689
838.506, 19.995
839.782, 6.826
841.057, 25.906
842.333, 34.999
843.608, 24.111
844.883, 19.236
846.158, 33.364
847.433, 25.510
848.707, 49.669
849.981, 10.854
851.255, 33.045
852.529, 37.250
853.803, 21.473
855.076, 67.708
856.350, 3.022
857.623, 38.248
858.895, 39.531
860.168, 1.828
861.441, 9.872
862.713, 30.423
863.985, 6.729
865.257, 22.958
866.528, 0.343
867.800, 33.648
869.071, 4.030
870.342, 6.293
871.613, 39.379
872.884, 11.056
874.154, 12.732
875.425, 37.410
876.695, 24.098
877.965, 71.787
879.234, 53.480
880.504, 19.175
881.773, 62.870
883.042, 60.572
884.311, 79.275
885.580, 102.984
886.848, 78.697
888.117, 94.411
889.385, 105.127
890.653, 104.843
891.920, 122.560
893.188, 87.277
894.455, 119.998
895.722, 124.729
896.989, 140.461
898.256, 220.194
899.523, 179.928
900.789, 144.662
902.055, 224.397
903.321, 198.134
904.587, 214.871
905.852, 217.608
907.118, 214.346
908.383, 272.083
909.648, 201.830
910.913, 245.575
912.177, 195.320
913.442, 237.066
914.706, 229.812
915.970, 187.556
917.233, 247.301
918.497, 285.046
919.760, 266.791
921.024, 253.534
922.287, 244.277
923.550, 289.019
924.812, 311.762
926.075, 275.506
927.337, 318.248
928.599, 248.990
929.861, 312.729
931.122, 284.467
932.384, 333.202
933.645, 389.936
934.906, 327.668
936.167, 298.403
937.428, 347.136
938.688, 271.867
939.948, 385.596
941.208, 355.323
942.468, 364.048
943.728, 436.775
944.987, 409.499
946.247, 420.221
947.506, 373.941
948.765, 427.659
950.023, 510.375
951.282, 456.088
952.540, 470.798
953.798, 490.506
955.056, 498.212
956.314, 526.915
957.572, 583.616
958.829, 575.314
960.086, 590.009
961.343, 534.702
962.600, 597.392
963.856, 663.938
965.113, 607.623
966.369, 725.283
967.625, 665.715
968.881, 676.357
970.136, 751.851
971.392, 703.464
972.647, 793.771
973.902, 774.075
975.157, 749.673
976.411, 862.839
977.666, 788.279
978.920, 829.811
980.174, 859.827
981.428, 852.332
982.682, 930.134
983.935, 898.530
985.188, 930.896
986.441, 991.367
987.694, 1005.547
988.947, 1082.640
990.199, 1064.996
991.452, 1144.022
992.704, 1184.036
993.956, 1204.531
995.207, 1265.625
996.459, 1337.791
997.710, 1379.351
998.961, 1458.342
1000.212, 1506.928
1001.463, 1562.774
1002.714, 1670.702
1003.964, 1744.992
1005.214, 1865.196
1006.464, 1910.746
1007.714, 2006.298
1008.964, 2162.317
1010.213, 2220.162
1011.462, 2499.432
1012.711, 2682.054
1013.960, 2826.727
1015.209, 3182.746
1016.457, 3320.550
1017.705, 3709.786
1018.954, 4137.437
1020.201, 4469.853
1021.449, 4746.811
1022.697, 5225.713
1023.944, 5523.253
1025.191, 6016.905
1026.438, 6217.665
1027.685, 6514.295
1028.931, 6824.549
1030.177, 6563.265
1031.423, 6739.803
1032.669, 6440.742
1033.915, 5976.432
1035.161, 5907.899
1036.406, 5461.414
1037.651, 5226.014
1038.896, 4780.755
1040.141, 4400.442
1041.386, 4221.047
1042.630, 3946.695
1043.874, 3842.752
1045.118, 3615.868
1046.362, 3366.530
1047.606, 3369.219
1048.849, 3204.839
1050.092, 3085.507
1051.336, 3070.382
1052.578, 2945.103
1053.821, 2801.785
1055.064, 2830.405
1056.306, 2735.131
1057.548, 2781.698
1058.790, 2685.186
1060.032, 2638.749
1061.273, 2539.323
1062.515, 2386.149
1063.756, 2358.730
1064.997, 2267.296
1066.237, 2122.027
1067.478, 2121.630
1068.718, 1978.573
1069.959, 1874.168
1071.199, 1811.713
1072.438, 1731.262
1073.678, 1693.374
1074.918, 1567.323
1076.157, 1445.963
1077.396, 1404.500
1078.635, 1263.034
1079.873, 1326.566
1081.112, 1191.094
1082.350, 1095.629
1083.588, 1072.192
1084.826, 983.892
1086.064, 928.474
1087.301, 886.988
1088.539, 848.527
1089.776, 793.163
1091.013, 738.784
1092.250, 676.295
1093.486, 684.793
1094.723, 615.385
1095.959, 584.963
1097.195, 567.462
1098.431, 498.064
1099.666, 558.584
1100.902, 441.075
1102.137, 465.635
1103.372, 399.198
1104.607, 355.678
1105.842, 341.248
1107.076, 276.722
1108.311, 266.194
1109.545, 212.747
1110.779, 191.211
1112.012, 145.672
1113.246, 209.180
1114.479, 165.635
1115.712, 208.344
1116.945, 138.809
1118.178, 106.257
1119.411, 179.703
1120.643, 119.145
1121.875, 101.585
1123.108, 162.092
1124.339, 101.542
1125.571, 87.019
1126.802, 66.479
1128.034, 69.941
1129.265, 93.462
1130.496, 68.922
1131.727, 61.397
1132.957, 56.458
1134.187, 43.660
1135.418, 34.696
1136.648, 34.286
1137.877, 29.788
1139.107, 76.261
1140.336, 37.733
1141.566, 66.290
1142.795, 34.776
1144.023, 27.734
1145.252, 35.741
1146.480, 30.223
1147.709, 58.708
1148.937, 11.258
1150.165, 20.245
1151.392, 33.242
1152.620, 24.805
1153.847, 1.301
1155.074, 0.810
1156.301, 26.379
1157.528, 24.732
1158.755, 11.628
1159.981, 15.786
1161.207, 13.315
1162.433, 12.219
1163.659, 33.317
1164.885, 44.124
1166.110, 0.623
1167.336, 53.064
1168.561, 29.580
1169.786, 0.983
1171.010, 16.583
1172.235, 2.052
1173.459, 30.529
1174.683, 8.865
1175.907, 5.745
1177.131, 9.634
1178.355, 27.077
1179.578, 16.366
1180.801, 15.985
1182.024, 8.659
1183.247, 9.325
1184.470, 36.995
1185.692, 7.939
1186.915, 19.248
1188.137, 38.552
1189.359, 27.850
1190.580, 0.857
1191.802, 33.574
1193.023, 23.717
1194.244, 16.968
1195.465, 33.298
1196.686, 21.537
1197.907, 2.771
1199.127, 10.046
1200.347, 17.265
1201.567, 31.478
1202.787, 9.685
1204.007, 56.885
1205.226, 22.920
1206.446, 45.277
1207.665, 40.521
1208.884, 5.583
1210.102, 39.738
1211.321, 42.888
1212.539, 10.034
1213.758, 33.172
1214.976, 2.740
1216.193, 34.915
1217.411, 57.033
1218.628, 66.420
1219.846, 0.527
1221.063, 3.624
1222.280, 23.750
1223.496, 64.831
1224.713, 55.959
1225.929, 68.491
1227.145, 55.124
1228.361, 46.319
1229.577, 39.384
1230.793, 8.567
1232.008, 33.492
1233.223, 89.521
1234.438, 42.545
1235.653, 18.561
1236.868, 21.570
1238.082, 5.406
1239.297, 51.590
1240.511, 26.580
1241.725, 34.132
1242.938, 61.113
1244.152, 27.087
1245.365, 46.194
1246.578, 74.157
1247.791, 35.242
1249.004, 34.196
1250.217, 78.144
1251.429, 31.118
1252.642, 97.056
1253.854, 98.033
1255.066, 32.959
1256.277, 73.877
1257.489, 60.788
1258.700, 41.695
1259.911, 70.595
1261.122, 14.849
1262.333, 50.738
1263.544, 73.621
1264.754, 68.534
1265.964, 62.406
1267.174, 70.316
1268.384, 38.176
1269.594, 71.029
1270.803, 49.878
1272.013, 77.734
1273.222, 54.572
1274.431, 40.592
1275.640, 79.418
1276.848, 51.239
1278.057, 14.195
1279.265, 45.002
1280.473, 5.804
1281.681, 26.687
1282.888, 47.465
1284.096, 65.237
1285.303, 81.004
1286.510, 35.766
1287.717, 67.528
1288.924, 57.278
1290.131, 68.207
1291.337, 73.946
1292.543, 101.673
1293.749, 41.396
1294.955, 54.031
1296.161, 65.354
1297.366, 37.046
1298.571, 103.704
1299.777, 85.246
1300.981, 13.767
1302.186, 46.620
1303.391, 49.563
1304.595, 26.127
1305.799, 52.602
1307.003, 32.218
1308.207, 62.764
1309.411, 67.073
1310.614, 31.674
1311.818, 78.055
1313.021, 27.643
1314.224, 74.199
1315.426, 17.448
1316.629, 34.935
1317.831, 63.310
1319.033, 76.671
1320.235, 47.100
1321.437, 47.988
1322.639, 26.405
1323.840, 11.887
1325.042, 112.065
1326.243, 39.483
1327.444, 42.115
1328.644, 58.692
1329.845, 17.826
1331.045, 102.507
1332.245, 46.874
1333.445, 71.313
1334.645, 52.701
1335.845, 45.671
1337.044, 28.575
1338.244, 45.924
1339.443, 16.237
1340.642, 65.612
1341.840, 55.930
1343.039, 24.033
1344.237, 52.283
1345.435, 53.563
1346.633, 39.897
1347.831, 47.782
1349.029, 44.490
1350.226, 27.934
1351.424, 15.294
1352.621, 8.364
1353.818, 73.719
1355.014, 41.332
1356.211, 35.662
1357.407, 64.821
1358.604, 0.898
1359.800, 20.037
1360.995, 41.315
1362.191, 14.362
1363.387, 56.955
1364.582, 32.703
1365.777, 21.592
1366.972, 66.784
1368.167, 26.075
1369.361, 15.363
1370.556, 66.649
1371.750, 6.939
1372.944, 27.226
1374.138, 41.504
1375.331, 22.842
1376.525, 38.389
1377.718, 70.703
1378.911, 51.213
1380.104, 68.558
1381.297, 22.948
1382.490, 40.410
1383.682, 44.726
1384.874, 35.907
1386.066, 47.547
1387.258, 47.897
1388.450, 5.275
1389.641, 34.407
1390.833, 5.797
1392.024, 45.190
1393.215, 45.495
1394.406, 18.843
1395.596, 31.202
1396.787, 15.478
1397.977, 34.431
1399.167, 28.008
1400.357, 41.121
1401.547, 36.405
1402.736, 59.570
1403.925, 1.172
1405.115, 42.085
1406.304, 74.256
1407.492, 15.416
1408.681, 43.654
1409.870, 12.459
1411.058, 46.575
1412.246, 63.748
1413.434, 47.026
1414.622, 19.223
1415.809, 83.389
1416.997, 1.399
1418.184, 59.675
1419.371, 48.964
1420.558, 2.867
1421.744, 59.146
1422.931, 41.451
1424.117, 3.247
1425.303, 27.517
1426.489, 75.786
1427.675, 35.032
1428.861, 43.191
1430.046, 12.596
1431.231, 28.699
1432.416, 72.993
1433.601, 48.258
1434.786, 26.874
1435.970, 49.165
1437.155, 42.452
1438.339, 37.854
1439.523, 45.770
1440.707, 33.011
1441.890, 45.188
1443.074, 42.276
1444.257, 43.250
1445.440, 44.005
1446.623, 56.508
1447.806, 41.896
1448.989, 62.099
1450.171, 68.336
1451.353, 11.934
1452.535, 42.744
1453.717, 52.560
1454.899, 21.644
1456.080, 46.642
1457.262, 23.599
1458.443, 90.669
1459.624, 36.731
1460.805, 67.864
1461.985, 65.798
1463.166, 5.695
1464.346, 11.705
1465.526, 50.665
1466.706, 47.107
1467.886, 84.067
1469.065, 52.586
1470.245, 46.233
1471.424, 60.190
1472.603, 3.130
1473.782, 60.664
1474.960, 44.462
1476.139, 10.280
1477.317, 7.079
1478.495, 65.938
1479.673, 30.772
1480.851, 51.588
1482.029, 40.372
1483.206, 36.119
1484.383, 61.050
1485.560, 39.894
1486.737, 41.902
1487.914, 44.807
1489.091, 33.741
1490.267, 27.903
1491.443, 31.604
1492.619, 13.555
1493.795, 28.532
1494.971, 43.605
1496.146, 7.193
1497.322, 74.050
1498.497, 6.341
1499.672, 43.698
1500.846, 45.121
1502.021, 12.619
1503.196, 43.213
1504.370, 75.928
1505.544, 23.791
1506.718, 65.151
1507.892, 28.639
1509.065, 0.100
1510.238, 67.429
1511.412, 43.047
1512.585, 31.490
1513.758, 66.952
1514.930, 0.000
##END=



