##NAMES=Fluorapatite
##RRUFFID=R050401
##IDEAL CHEMISTRY=Ca_5_(PO_4_)_3_F
##LOCALITY=Urbano mine, Golconda District, Minas Gerais, Brazil
##OWNER=RRUFF
##SOURCE=Bob Downs
##DESCRIPTION=Pale purple hexagonal prism associated with albite R050402
##STATUS=The identification of this mineral has been confirmed by X-ray diffraction and chemical analysis
##URL=rruff.info/R050401
##MEASURED CHEMISTRY=(Ca_0.99_Mn_0.01_)_5_(P_1.00_O_4_)_3_F_1.00_
##PIN_ID=L00654
##ORIENTATION=Laser parallel to c* (0 0 1). Fiducial mark perpendicular to laser is parallel to a [1 0 0]
136.5850, 0.0000000E+00
137.8140, 38.43066
139.0430, 105.8408
140.2710, 142.8867
141.5000, 152.2456
142.7280, 9.527344
143.9560, 130.1309
145.1840, 90.82812
146.4120, 37.50586
147.6390, 132.6699
148.8670, 131.1245
150.0940, 88.95361
151.3210, 261.2720
152.5490, 71.92871
153.7750, 147.0557
155.0020, 124.9434
156.2290, 30.22754
157.4550, 153.8833
158.6810, 93.32178
159.9080, 154.9658
161.1340, 234.6562
162.3590, 37.58545
163.5850, 151.2588
164.8110, 86.14746
166.0360, 119.5020
167.2610, 141.5098
168.4860, 35.57178
169.7110, 24.56104
170.9360, 99.37402
172.1610, 7.987305
173.3850, 60.86865
174.6100, 77.78125
175.8340, 59.70557
177.0580, 120.3940
178.2820, 40.21875
179.5050, 145.4624
180.7290, 93.33008
181.9520, 122.3931
183.1760, 66.93262
184.3990, 69.66797
185.6220, 121.3008
186.8450, 143.4165
188.0670, 108.4854
189.2900, 203.0791
190.5120, 80.89502
191.7340, 91.91602
192.9560, 148.6812
194.1780, 184.1650
195.4000, 54.46436
196.6220, 138.0674
197.8430, 105.8726
199.0640, 71.61572
200.2860, 78.87646
201.5070, 81.38330
202.7270, 116.1426
203.9480, 54.59961
205.1690, 58.53760
206.3890, 71.86377
207.6090, 47.54199
208.8290, 122.3926
210.0490, 30.83545
211.2690, 94.40039
212.4890, 173.9375
213.7080, 149.1885
214.9280, 152.6353
216.1470, 126.9971
217.3660, 40.59766
218.5850, 161.2559
219.8030, 113.1938
221.0220, 65.62598
222.2400, 109.5669
223.4590, 106.8379
224.6770, 110.5425
225.8950, 267.6523
227.1120, 0.3256840
228.3300, 4.562012
229.5480, 157.2920
230.7650, 108.7622
231.9820, 199.9746
233.1990, 131.3657
234.4160, 114.5688
235.6330, 125.8110
236.8490, 6.891602
238.0660, 65.77393
239.2820, 130.5508
240.4980, 132.1123
241.7140, 27.92529
242.9300, 4.915527
244.1460, 59.64062
245.3610, 84.18994
246.5770, 101.9751
247.7920, 130.1587
249.0070, 94.96143
250.2220, 11.06836
251.4370, 134.8789
252.6510, 31.58350
253.8660, 120.5498
255.0800, 205.8804
256.2940, 77.79199
257.5080, 163.4756
258.7220, 54.27490
259.9360, 17.29053
261.1490, 88.41357
262.3630, 55.18701
263.5760, 91.64014
264.7890, 246.9204
266.0020, 67.15674
267.2150, 138.2231
268.4270, 158.0562
269.6400, 4.090820
270.8520, 161.4463
272.0640, 128.4438
273.2760, 121.4170
274.4880, 162.2114
275.7000, 163.3862
276.9120, 105.4058
278.1230, 39.92383
279.3340, 8.280273
280.5450, 92.44092
281.7560, 0.4633790
282.9670, 122.1113
284.1780, 188.9219
285.3880, 88.00195
286.5980, 61.42188
287.8090, 13.46826
289.0190, 75.15918
290.2290, 88.37207
291.4380, 29.74023
292.6480, 111.8579
293.8570, 86.07471
295.0670, 54.51855
296.2760, 175.4575
297.4850, 62.72510
298.6930, 25.17285
299.9020, 76.74414
301.1110, 47.86182
302.3190, 16.93311
303.5270, 46.48291
304.7350, 58.47266
305.9430, 146.4419
307.1510, 161.9092
308.3580, 81.06201
309.5660, 40.85742
310.7730, 15.31104
311.9800, 33.02002
313.1870, 125.1035
314.3940, 123.7148
315.6010, 81.13281
316.8070, 80.47607
318.0130, 19.90381
319.2200, 9.499512
320.4260, 3.872559
321.6310, 22.45361
322.8370, 84.45752
324.0430, 76.79785
325.2480, 60.75977
326.4540, 134.4199
327.6590, 55.23535
328.8640, 105.4146
330.0680, 41.77734
331.2730, 8.955566
332.4780, 119.6113
333.6820, 48.95312
334.8860, 138.5625
336.0900, 49.14893
337.2940, 66.11377
338.4980, 146.4966
339.7010, 59.79492
340.9050, 16.25439
342.1080, 101.7070
343.3110, 43.11035
344.5140, 56.14551
345.7170, 136.2041
346.9200, 117.3262
348.1220, 37.42139
349.3240, 54.82324
350.5270, 2.072754
351.7290, 57.26953
352.9310, 155.5938
354.1320, 30.17871
355.3340, 139.8677
356.5350, 63.71094
357.7370, 172.7051
358.9380, 85.72070
360.1390, 39.73633
361.3400, 230.8008
362.5400, 53.09619
363.7410, 71.91504
364.9410, 197.4399
366.1410, 41.04053
367.3410, 86.53760
368.5410, 29.56299
369.7410, 54.90527
370.9400, 63.21484
372.1400, 122.7979
373.3390, 11.17969
374.5380, 105.7656
375.7370, 5.667969
376.9360, 49.68457
378.1350, 154.4150
379.3330, 103.2734
380.5310, 229.2275
381.7300, 9.451172
382.9280, 151.8105
384.1260, 31.18945
385.3230, 20.05078
386.5210, 25.23535
387.7180, 101.0537
388.9160, 4.573242
390.1130, 158.4854
391.3100, 136.7041
392.5060, 22.30566
393.7030, 80.52051
394.9000, 43.29980
396.0960, 53.23926
397.2920, 245.6475
398.4880, 112.7266
399.6840, 16.43164
400.8800, 137.0684
402.0750, 39.25488
403.2710, 145.3086
404.4660, 303.3555
405.6610, 39.20020
406.8560, 156.7129
408.0510, 118.3545
409.2450, 106.0820
410.4400, 197.1846
411.6340, 60.35645
412.8280, 143.1729
414.0220, 103.2705
415.2160, 117.6670
416.4100, 97.97168
417.6030, 225.7656
418.7970, 111.5352
419.9900, 137.0576
421.1830, 3.876953
422.3760, 58.72461
423.5690, 189.1738
424.7610, 195.7227
425.9540, 131.0254
427.1460, 81.13574
428.3380, 30.01172
429.5300, 164.7227
430.7220, 30.26270
431.9140, 91.57910
433.1050, 177.4863
434.2970, 127.6035
435.4880, 173.6455
436.6790, 138.6230
437.8700, 72.97461
439.0610, 152.7959
440.2510, 66.87891
441.4420, 254.3057
442.6320, 214.6523
443.8220, 69.20508
445.0120, 63.56836
446.2020, 186.2295
447.3910, 72.72754
448.5810, 68.45020
449.7700, 179.8691
450.9600, 59.65820
452.1490, 253.5137
453.3370, 217.4023
454.5260, 77.35352
455.7150, 216.5449
456.9030, 74.36719
458.0910, 98.39551
459.2800, 124.2539
460.4670, 92.08398
461.6550, 185.0303
462.8430, 219.5996
464.0300, 31.77539
465.2180, 147.2148
466.4050, 47.49805
467.5920, 136.1865
468.7790, 197.3223
469.9650, 147.7061
471.1520, 47.87793
472.3380, 232.2998
473.5250, 35.12012
474.7110, 138.8252
475.8970, 208.5107
477.0820, 132.2148
478.2680, 124.4854
479.4540, 261.5615
480.6390, 150.8604
481.8240, 155.6982
483.0090, 108.3701
484.1940, 114.0518
485.3780, 167.4717
486.5630, 141.3477
487.7470, 178.4053
488.9320, 152.0449
490.1160, 148.3770
491.3000, 275.7129
492.4830, 65.32715
493.6670, 80.12598
494.8500, 251.1953
496.0340, 209.9072
497.2170, 115.5010
498.4000, 224.4873
499.5820, 202.3564
500.7650, 286.3105
501.9480, 274.2275
503.1300, 37.06934
504.3120, 137.5537
505.4940, 54.90234
506.6760, 112.2529
507.8580, 10.62402
509.0390, 39.61523
510.2210, 191.0566
511.4020, 101.8809
512.5830, 6.707031
513.7640, 89.94531
514.9450, 14.11133
516.1250, 142.6846
517.3060, 217.7871
518.4860, 37.59766
519.6660, 156.3652
520.8460, 112.2002
522.0260, 77.80273
523.2060, 112.4463
524.3850, 144.1895
525.5650, 179.3857
526.7440, 408.9600
527.9230, 184.8135
529.1020, 28.26758
530.2810, 256.5098
531.4590, 173.8408
532.6380, 105.3545
533.8160, 257.5000
534.9940, 61.87500
536.1720, 265.8643
537.3500, 141.8838
538.5270, 38.73730
539.7050, 331.8711
540.8820, 167.9404
542.0590, 108.0283
543.2360, 264.6504
544.4130, 196.1748
545.5900, 132.8477
546.7660, 254.6162
547.9430, 48.53320
549.1190, 271.2070
550.2950, 56.80859
551.4710, 109.7793
552.6470, 151.8076
553.8220, 237.6855
554.9980, 75.58301
556.1730, 314.4170
557.3480, 59.55273
558.5230, 162.1826
559.6980, 189.2051
560.8730, 16.60840
562.0470, 102.1357
563.2220, 37.73242
564.3960, 80.03125
565.5700, 113.5420
566.7440, 15.34570
567.9170, 221.4082
569.0910, 63.27051
570.2640, 251.5898
571.4380, 137.5576
572.6110, 266.4795
573.7840, 4.525391
574.9570, 84.54688
576.1290, 260.8096
577.3020, 111.0068
578.4740, 219.3447
579.6460, 298.7285
580.8180, 100.5947
581.9900, 131.2412
583.1620, 348.5156
584.3330, 86.44141
585.5040, 408.9668
586.6760, 187.5518
587.8470, 41.79492
589.0180, 207.3252
590.1880, 113.2402
591.3590, 263.5918
592.5290, 156.3799
593.7000, 78.89551
594.8700, 256.0625
596.0400, 227.6113
597.2090, 157.0781
598.3790, 328.5938
599.5490, 71.26660
600.7180, 63.84668
601.8870, 286.7715
603.0560, 235.7930
604.2250, 63.58887
605.3940, 260.5215
606.5620, 119.6973
607.7300, 236.5645
608.8990, 344.1348
610.0670, 97.94824
611.2350, 292.0225
612.4020, 266.4541
613.5700, 91.74414
614.7370, 281.1484
615.9050, 36.34961
617.0720, 318.2256
618.2390, 256.4707
619.4060, 197.5967
620.5720, 146.0840
621.7390, 321.1992
622.9050, 141.8887
624.0710, 80.18359
625.2370, 181.6133
626.4030, 87.85645
627.5690, 96.21191
628.7340, 268.4668
629.9000, 71.09277
631.0650, 208.4980
632.2300, 145.5439
633.3950, 32.28711
634.5600, 244.9141
635.7240, 177.3535
636.8890, 294.8145
638.0530, 303.4893
639.2170, 123.0146
640.3810, 312.7080
641.5450, 219.1436
642.7080, 50.25391
643.8720, 183.2393
645.0350, 272.9111
646.1980, 56.90332
647.3610, 199.0635
648.5240, 288.4141
649.6870, 147.0186
650.8490, 262.8203
652.0120, 144.6523
653.1740, 313.9326
654.3360, 288.0410
655.4980, 11.89844
656.6600, 194.4873
657.8210, 226.8008
658.9830, 184.9912
660.1440, 256.1064
661.3050, 243.4014
662.4660, 104.3545
663.6270, 287.1055
664.7870, 100.5254
665.9480, 98.89453
667.1080, 397.2656
668.2680, 113.9023
669.4280, 212.2988
670.5880, 275.5137
671.7480, 172.7734
672.9070, 221.7539
674.0670, 254.1094
675.2260, 170.7168
676.3850, 394.7168
677.5440, 259.1953
678.7030, 54.13672
679.8610, 405.6113
681.0200, 202.7012
682.1780, 24.80664
683.3360, 391.6934
684.4940, 172.0977
685.6520, 237.6035
686.8090, 207.8730
687.9670, 132.8477
689.1240, 335.8809
690.2810, 216.7832
691.4380, 62.08789
692.5950, 161.7266
693.7520, 223.1738
694.9080, 22.50586
696.0650, 356.1250
697.2210, 199.0234
698.3770, 216.3262
699.5330, 284.7227
700.6880, 154.1094
701.8440, 198.2852
702.9990, 182.3359
704.1550, 210.4941
705.3100, 129.3223
706.4650, 223.8828
707.6190, 29.65625
708.7740, 250.7012
709.9290, 229.2227
711.0830, 288.6621
712.2370, 120.3711
713.3910, 167.2227
714.5450, 72.36133
715.6980, 343.9277
716.8520, 258.0039
718.0050, 168.9023
719.1580, 428.5391
720.3110, 80.85938
721.4640, 95.16406
722.6170, 389.2773
723.7700, 75.37305
724.9220, 258.4004
726.0740, 206.7305
727.2260, 8.697266
728.3780, 131.7539
729.5300, 359.9297
730.6810, 118.2871
731.8330, 366.2793
732.9840, 155.7539
734.1350, 63.09961
735.2860, 289.4082
736.4370, 356.9434
737.5880, 328.7402
738.7380, 418.9492
739.8880, 228.0840
741.0390, 73.81836
742.1890, 457.4863
743.3380, 111.2246
744.4880, 165.4121
745.6380, 457.7188
746.7870, 63.99609
747.9360, 251.2559
749.0850, 452.8105
750.2340, 158.1211
751.3830, 391.8281
752.5310, 109.3906
753.6800, 181.4766
754.8280, 211.8984
755.9760, 198.3184
757.1240, 202.1406
758.2720, 236.7012
759.4190, 196.8945
760.5670, 234.3184
761.7140, 334.5078
762.8610, 48.24023
764.0080, 248.3945
765.1550, 299.1719
766.3020, 57.21680
767.4480, 154.1035
768.5950, 184.4121
769.7410, 141.2480
770.8870, 45.19141
772.0330, 269.0312
773.1780, 5.183594
774.3240, 165.1641
775.4690, 57.00391
776.6140, 130.8086
777.7590, 327.8516
778.9040, 217.5898
780.0490, 147.8672
781.1940, 460.3672
782.3380, 183.7188
783.4820, 66.03516
784.6260, 252.5352
785.7700, 127.0605
786.9140, 334.2500
788.0580, 491.4375
789.2010, 70.44727
790.3450, 362.9844
791.4880, 140.3477
792.6310, 336.2773
793.7730, 285.6680
794.9160, 170.1016
796.0590, 224.6016
797.2010, 389.0176
798.3430, 272.3945
799.4850, 97.78906
800.6270, 378.8887
801.7690, 224.2559
802.9100, 252.8711
804.0520, 401.2207
805.1930, 164.7598
806.3340, 265.2461
807.4750, 306.0879
808.6160, 196.1309
809.7560, 176.6816
810.8970, 221.3789
812.0370, 188.5039
813.1770, 280.5391
814.3170, 265.5918
815.4570, 213.1973
816.5960, 323.2266
817.7360, 318.1133
818.8750, 237.3262
820.0140, 187.5059
821.1530, 218.2188
822.2920, 122.1250
823.4310, 273.2402
824.5690, 398.1738
825.7070, 101.7422
826.8460, 428.0938
827.9840, 24.89453
829.1220, 232.8828
830.2590, 413.3223
831.3970, 27.03906
832.5340, 370.3652
833.6710, 246.4023
834.8080, 233.7344
835.9450, 221.0801
837.0820, 253.6582
838.2190, 130.6445
839.3550, 361.7734
840.4910, 403.7852
841.6270, 194.8633
842.7630, 479.5469
843.8990, 87.69531
845.0350, 275.5918
846.1700, 395.6211
847.3060, 68.51172
848.4410, 274.5859
849.5760, 381.9043
850.7100, 194.2988
851.8450, 4.853516
852.9800, 204.6426
854.1140, 1.296875
855.2480, 72.90430
856.3820, 540.8340
857.5160, 13.50586
858.6500, 431.1738
859.7830, 312.9453
860.9170, 102.3867
862.0500, 408.6230
863.1830, 376.5938
864.3160, 272.6797
865.4480, 226.2441
866.5810, 424.7148
867.7130, 289.9238
868.8460, 475.2969
869.9780, 353.7793
871.1100, 167.1816
872.2410, 406.1230
873.3730, 57.34961
874.5050, 87.39453
875.6360, 84.51172
876.7670, 109.0254
877.8980, 30.72461
879.0290, 361.6699
880.1590, 51.52734
881.2900, 192.5488
882.4200, 551.3418
883.5500, 147.6836
884.6800, 414.9219
885.8100, 425.5742
886.9400, 167.5918
888.0690, 250.1465
889.1990, 397.6094
890.3280, 9.275391
891.4570, 219.5059
892.5860, 283.1855
893.7140, 90.52344
894.8430, 300.2637
895.9710, 155.7988
897.1000, 132.1777
898.2280, 467.2676
899.3560, 268.9082
900.4830, 92.19922
901.6110, 359.0625
902.7380, 61.22266
903.8660, 299.4727
904.9930, 386.6504
906.1200, 168.6094
907.2460, 124.1270
908.3730, 514.1543
909.5000, 91.22461
910.6260, 331.1328
911.7520, 395.1738
912.8780, 204.2910
914.0040, 367.6660
915.1290, 408.3145
916.2550, 150.6309
917.3800, 177.8867
918.5050, 258.3008
919.6300, 14.05664
920.7550, 109.5254
921.8800, 388.5410
923.0040, 109.3867
924.1290, 589.3984
925.2530, 230.8223
926.3770, 188.6719
927.5010, 521.5859
928.6250, 39.28125
929.7480, 356.7129
930.8720, 484.6289
931.9950, 203.7363
933.1180, 70.61328
934.2410, 639.0566
935.3640, 149.2871
936.4860, 83.75781
937.6090, 467.2090
938.7310, 90.12695
939.8530, 228.4766
940.9750, 328.9531
942.0970, 387.8164
943.2180, 290.8184
944.3400, 278.3301
945.4610, 204.7266
946.5820, 225.2793
947.7030, 438.6641
948.8240, 347.4043
949.9450, 296.0488
951.0650, 536.4434
952.1860, 257.2988
953.3060, 273.1035
954.4260, 490.5449
955.5460, 192.7539
956.6650, 486.0605
957.7850, 408.8965
958.9040, 359.3770
960.0230, 430.1562
961.1420, 612.7422
962.2610, 478.4609
963.3800, 1134.902
964.4990, 1378.084
965.6170, 1333.717
966.7350, 1925.156
967.8530, 702.7363
968.9710, 708.8750
970.0890, 886.0078
971.2070, 304.9941
972.3240, 271.0898
973.4410, 329.7070
974.5580, 255.1309
975.6750, 255.5293
976.7920, 561.3008
977.9090, 115.6465
979.0250, 342.7266
980.1410, 825.7754
981.2580, 249.0449
982.3740, 251.8223
983.4890, 151.2559
984.6050, 48.46484
985.7200, 48.51953
986.8360, 29.47852
987.9510, 129.4707
989.0660, 4.591797
990.1810, 314.2051
991.2950, 140.2168
992.4100, 275.2754
993.5240, 515.6113
994.6390, 188.5059
995.7530, 466.3848
996.8660, 336.2910
997.9800, 150.1758
999.0940, 180.8516
1000.207, 366.3184
1001.320, 50.85352
1002.433, 350.7773
1003.546, 546.8887
1004.659, 107.6055
1005.772, 488.7148
1006.884, 224.3379
1007.996, 311.4043
1009.108, 614.9023
1010.220, 238.3496
1011.332, 165.0527
1012.444, 232.5215
1013.555, 530.0977
1014.666, 131.9805
1015.777, 514.0703
1016.888, 159.5938
1017.999, 223.4746
1019.110, 521.9688
1020.220, 42.55664
1021.331, 304.3047
1022.441, 519.5000
1023.551, 56.88281
1024.661, 165.3750
1025.770, 381.4102
1026.880, 11.70312
1027.989, 250.9258
1029.098, 600.2148
1030.207, 37.92773
1031.316, 234.5273
1032.425, 521.7637
1033.533, 10.45508
1034.642, 572.6191
1035.750, 400.8008
1036.858, 37.88281
1037.966, 242.0547
1039.073, 491.2188
1040.181, 123.9258
1041.288, 164.0117
1042.396, 443.1445
1043.503, 52.34375
1044.610, 630.4688
1045.716, 322.5859
1046.823, 74.89844
1047.929, 351.1484
1049.036, 186.1875
1050.142, 52.75391
1051.248, 399.4297
1052.353, 232.4453
1053.459, 176.2070
1054.564, 134.5586
1055.670, 487.5625
1056.775, 85.07031
1057.880, 526.8633
1058.985, 191.7070
1060.089, 73.83984
1061.194, 686.7617
1062.298, 234.7109
1063.402, 224.6172
1064.506, 503.5234
1065.610, 472.2773
1066.713, 21.29688
1067.817, 414.1836
1068.920, 532.7148
1070.023, 6.320313
1071.126, 647.5469
1072.229, 253.6055
1073.332, 172.4609
1074.435, 697.3164
1075.537, 94.17578
1076.639, 286.0273
1077.741, 655.8828
1078.843, 571.6914
1079.945, 154.5430
1081.046, 719.3984
1082.148, 259.2539
1083.249, 261.1094
1084.350, 563.9648
1085.451, 81.81641
1086.551, 238.3672
1087.652, 476.2188
1088.752, 108.0820
1089.853, 615.9453
1090.953, 709.8164
1092.053, 251.6875
1093.152, 89.56641
1094.252, 425.4453
1095.351, 211.3281
1096.451, 380.2188
1097.550, 692.1133
1098.649, 9.988281
1099.748, 499.9180
1100.846, 270.8281
1101.945, 27.73828
1103.043, 585.6562
1104.141, 130.5781
1105.239, 43.49609
1106.337, 47.24219
1107.434, 508.1523
1108.532, 258.0625
1109.629, 73.99219
1110.726, 435.8086
1111.823, 153.7461
1112.920, 273.6992
1114.017, 265.6484
1115.113, 9.617188
1116.210, 474.9375
1117.306, 279.9883
1118.402, 70.07031
1119.498, 407.6484
1120.593, 345.6641
1121.689, 341.2891
1122.784, 497.3320
1123.879, 448.5195
1124.974, 110.5312
1126.069, 444.5273
1127.164, 282.5898
1128.259, 154.6719
1129.353, 517.8398
1130.447, 255.9375
1131.541, 374.0391
1132.635, 588.1562
1133.729, 346.4883
1134.822, 37.37500
1135.916, 445.7539
1137.009, 616.8906
1138.102, 201.9492
1139.195, 612.1211
1140.288, 308.2148
1141.380, 57.32031
1142.473, 549.4648
1143.565, 133.6211
1144.657, 166.8047
1145.749, 643.0000
1146.841, 369.2109
1147.932, 73.44141
1149.024, 447.6836
1150.115, 704.9453
1151.206, 59.21875
1152.297, 526.2539
1153.388, 444.5625
1154.479, 24.88672
1155.569, 656.8359
1156.659, 364.2109
1157.750, 214.6055
1158.839, 573.3242
1159.929, 383.7500
1161.019, 116.1992
1162.108, 554.9219
1163.198, 518.4062
1164.287, 5.089844
1165.376, 532.7852
1166.465, 440.3320
1167.553, 145.8984
1168.642, 732.9102
1169.730, 628.5508
1170.818, 276.2148
1171.906, 485.9062
1172.994, 342.6562
1174.082, 198.4258
1175.170, 467.0742
1176.257, 420.8906
1177.344, 97.27344
1178.431, 842.8047
1179.518, 348.7109
1180.605, 30.63672
1181.691, 696.5547
1182.778, 76.53125
1183.864, 234.5312
1184.950, 604.6445
1186.036, 126.7109
1187.122, 284.7969
1188.207, 518.8359
1189.292, 555.9766
1190.378, 166.8594
1191.463, 204.2656
1192.548, 349.4141
1193.632, 49.59375
1194.717, 937.8008
1195.801, 242.0312
1196.886, 165.2852
1197.970, 529.0820
1199.054, 148.4688
1200.137, 48.83594
1201.221, 281.6133
1202.305, 611.0391
1203.388, 44.50391
1204.471, 576.9883
1205.554, 351.5078
1206.637, 294.0508
1207.719, 548.6211
1208.802, 484.2188
1209.884, 275.8398
1210.966, 730.4922
1212.048, 390.1758
1213.130, 413.8828
1214.212, 598.6211
1215.293, 634.3867
1216.374, 20.81641
1217.456, 506.9961
1218.536, 778.9102
1219.617, 124.7812
1220.698, 731.6836
1221.778, 388.6094
1222.859, 292.5703
1223.939, 805.5625
1225.019, 314.5820
1226.099, 51.62891
1227.178, 378.7109
1228.258, 350.8203
1229.337, 13.49219
1230.417, 541.6641
1231.496, 458.8633
1232.574, 102.0234
1233.653, 659.2852
1234.732, 525.5820
1235.810, 81.15234
1236.888, 600.1797
1237.966, 86.54297
1239.044, 350.1602
1240.122, 487.5859
1241.199, 616.0430
1242.277, 4.531250
1243.354, 735.0547
1244.431, 602.6133
1245.508, 95.25000
1246.585, 594.3438
1247.661, 456.9727
1248.738, 163.6406
1249.814, 711.3477
1250.890, 409.0859
1251.966, 173.8711
1253.042, 454.6914
1254.117, 661.5469
1255.193, 469.2344
1256.268, 735.1523
1257.343, 669.1055
1258.418, 1.906250
1259.493, 583.1172
1260.567, 559.1719
1261.642, 81.26172
1262.716, 676.3867
1263.790, 654.5742
1264.864, 315.4258
1265.938, 531.6797
1267.011, 850.9727
1268.085, 551.3828
1269.158, 495.7461
1270.231, 577.1484
1271.304, 183.2656
1272.377, 193.2070
1273.450, 606.0000
1274.522, 835.4414
1275.594, 891.4297
1276.666, 254.3203
1277.738, 512.2852
1278.810, 411.5977
1279.882, 296.2383
1280.953, 680.2461
1282.025, 144.9727
1283.096, 521.1445
1284.167, 533.2148
1285.238, 711.9766
1286.308, 529.8438
1287.379, 459.2539
1288.449, 749.6914
1289.519, 840.2734
1290.589, 616.7539
1291.659, 806.3125
1292.729, 257.9414
1293.798, 356.6055
1294.868, 737.0781
1295.937, 531.8633
1297.006, 728.2109
1298.075, 774.0312
1299.143, 122.5781
1300.212, 679.7539
1301.280, 714.2617
1302.348, 212.1641
1303.416, 728.0117
1304.484, 299.9688
1305.552, 208.9023
1306.620, 366.9609
1307.687, 265.1953
1308.754, 580.1914
1309.821, 493.7695
1310.888, 371.5273
1311.955, 405.8516
1313.021, 3.386719
1314.088, 410.3750
1315.154, 262.0234
1316.220, 393.1211
1317.286, 587.6328
1318.352, 297.2461
1319.417, 512.7891
1320.483, 343.5898
1321.548, 479.0664
1322.613, 916.5703
1323.678, 409.1094
1324.743, 806.6797
1325.807, 899.2930
1326.872, 2.058594
1327.936, 970.6211
1329.000, 586.3398
1330.064, 173.1016
1331.128, 517.1953
1332.191, 384.0273
1333.255, 372.9023
1334.318, 472.8516
1335.381, 846.7891
1336.444, 54.76562
1337.507, 511.7773
1338.569, 1044.836
1339.632, 236.9219
1340.694, 473.0508
1341.756, 993.2148
1342.818, 296.4219
1343.880, 1058.664
1344.941, 729.2500
1346.003, 47.43750
1347.064, 659.9102
1348.125, 636.2969
1349.186, 439.7148
1350.247, 558.1797
1351.308, 699.6836
1352.368, 548.2266
1353.428, 468.7773
1354.489, 946.3672
1355.549, 298.0039
1356.608, 480.6758
1357.668, 931.3984
1358.727, 281.1602
1359.787, 384.9609
1360.846, 601.7812
1361.905, 634.6406
1362.964, 375.5430
1364.022, 587.6719
1365.081, 423.6719
1366.139, 54.29688
1367.197, 829.7695
1368.255, 505.8828
1369.313, 217.0352
1370.371, 643.2305
1371.428, 362.4609
1372.486, 210.7227
1373.543, 767.6758
1374.600, 321.0039
1375.657, 270.3750
1376.713, 524.7891
1377.770, 810.2422
1378.826, 134.7422
1379.882, 595.2773
1380.938, 553.8594
1381.994, 165.5195
1383.050, 584.1523
1384.106, 507.8633
1385.161, 175.6172
1386.216, 697.3320
1387.271, 507.1680
1388.326, 419.0391
1389.381, 370.9570
1390.435, 644.9062
1391.490, 425.8945
1392.544, 364.9375
1393.598, 752.0234
1394.652, 6.152344
1395.705, 333.3711
1396.759, 805.6367
1397.812, 128.0547
1398.866, 440.2812
1399.919, 572.6602
1400.972, 321.0820
1402.024, 321.5547
1403.077, 401.0742
1404.129, 556.8320
1405.181, 297.4414
1406.233, 709.1016
1407.285, 521.8086
1408.337, 41.43750
1409.389, 746.3672
1410.440, 695.2148
1411.491, 345.1172
1412.542, 570.0703
1413.593, 281.0703
1414.644, 355.1289
1415.695, 453.2305
1416.745, 445.3984
1417.795, 250.6172
1418.845, 278.8828
1419.895, 690.2148
1420.945, 73.39453
1421.995, 628.0469
1423.044, 315.5508
1424.093, 89.88281
1425.142, 773.7305
1426.191, 681.4102
1427.240, 116.1484
1428.289, 438.9492
1429.337, 904.8281
1430.385, 229.8203
1431.433, 338.8398
1432.481, 865.9297
1433.529, 327.6914
1434.577, 232.9609
1435.624, 1022.312
1436.672, 79.80078
1437.719, 342.1797
1438.766, 793.6406
1439.812, 637.2891
1440.859, 449.3242
1441.905, 713.9688
1442.952, 348.6797
1443.998, 312.6328
1445.044, 822.2734
1446.090, 699.1562
1447.135, 97.16406
1448.181, 805.1289
1449.226, 885.2227
1450.271, 99.36719
1451.316, 1173.527
1452.361, 743.7930
1453.405, 93.10156
1454.450, 409.4727
1455.494, 537.8984
1456.538, 54.61328
1457.582, 285.9375
1458.626, 410.5469
1459.670, 1.773438
1460.713, 103.7695
1461.757, 781.5586
1462.800, 92.40625
1463.843, 402.3164
1464.886, 765.2891
1465.928, 161.3164
1466.971, 265.4062
1468.013, 568.5625
1469.055, 246.7969
1470.097, 44.62500
1471.139, 720.9844
1472.181, 454.4023
1473.222, 24.88672
1474.263, 743.4688
1475.305, 579.1211
1476.346, 249.8281
1477.386, 845.6094
1478.427, 259.6250
1479.468, 203.4531
1480.508, 880.3477
1481.548, 669.3047
1482.588, 266.3281
1483.628, 397.4180
1484.668, 789.5664
1485.707, 220.5117
1486.747, 511.7227
1487.786, 1004.996
1488.825, 394.3242
1489.864, 692.7109
1490.902, 800.9297
1491.941, 262.4258
1492.979, 585.9805
1494.017, 968.5859
1495.055, 508.2539
1496.093, 348.9805
1497.131, 830.8555
1498.168, 918.6250
1499.206, 250.4297
1500.243, 812.2266
1501.280, 859.0664
1502.317, 54.94141
1503.354, 761.8516
1504.390, 681.8008
1505.426, 590.7773
1506.463, 943.7852
1507.499, 542.8008
1508.535, 445.8320
1509.570, 628.8711
1510.606, 1007.930
1511.641, 653.0898
1512.676, 308.3438
1513.711, 967.6875
1514.746, 97.34375
1515.781, 754.8242
1516.816, 1106.324
1517.850, 363.0078
1518.884, 686.7773
1519.918, 969.6406
1520.952, 557.5977
1521.986, 474.6758
1523.019, 514.8477
1524.053, 911.1094
1525.086, 174.4570
1526.119, 987.0586
1527.152, 278.7617
1528.185, 14.42969
1529.217, 1059.539
1530.250, 745.6875
1531.282, 482.9492
1532.314, 690.3672
1533.346, 460.8984
1534.377, 502.5625
1535.409, 909.4375
1536.440, 798.5859
1537.472, 496.8867
1538.503, 449.3594
1539.534, 794.0156
1540.564, 461.8672
1541.595, 374.9375
1542.625, 958.2344
1543.656, 229.8203
1544.686, 316.7305
1545.716, 623.9141
1546.745, 73.60938
1547.775, 363.1758
1548.804, 508.3047
1549.834, 767.7773
1550.863, 254.4609
1551.892, 494.6406
1552.920, 628.2422
1553.949, 107.2969
1554.977, 855.8320
1556.006, 804.8945
1557.034, 21.52734
1558.062, 399.7891
1559.089, 405.7188
1560.117, 134.1719
1561.144, 471.6680
1562.172, 732.5898
1563.199, 177.0703
1564.226, 3.890625
1565.252, 408.1953
1566.279, 485.7500
1567.305, 54.92578
1568.332, 400.9727
1569.358, 267.2344
1570.384, 0.5976560
1571.409, 0.0000000E+00
##END=



