##NAMES=Fluorapatite
##RRUFFID=R060333
##IDEAL CHEMISTRY=Ca_5_(PO_4_)_3_F
##LOCALITY=Lovozero Massif, Kola Peninsula, U.S.S.R.
##OWNER=RRUFF
##SOURCE=Michael Scott
##DESCRIPTION=Colorless fragment associated with red villiaumite
##STATUS=The identification of this mineral has been confirmed by X-ray diffraction and chemical analysis
##URL=rruff.info/R060333
##MEASURED CHEMISTRY=(Ca_4.29_Sr_0.47_Na_0.12_Ce_0.07_La_0.06_)_Σ=5_((P_0.99_Si_0.01_)_Σ=1_O_4_)_3_F_1.00_
##PIN_ID=L00852
##ORIENTATION=Laser parallel to c* (0 0 1). Fiducial mark perpendicular to laser is parallel to -a [-1 0 0]
164.2210, 0.0000000E+00
165.4520, 32.09912
166.6830, 78.84180
167.9140, 128.5454
169.1450, 1.011719
170.3760, 77.17139
171.6060, 218.2197
172.8360, 54.82568
174.0660, 33.84863
175.2960, 25.47852
176.5260, 35.90039
177.7550, 98.04443
178.9840, 28.56445
180.2130, 124.8213
181.4420, 39.16260
182.6710, 75.03516
183.9000, 54.89795
185.1280, 75.73633
186.3560, 7.870605
187.5840, 14.02930
188.8120, 79.50830
190.0400, 1.036133
191.2670, 117.6011
192.4950, 37.40527
193.7220, 37.06885
194.9490, 54.83887
196.1750, 32.69141
197.4020, 68.56885
198.6280, 88.44824
199.8540, 84.30811
201.0800, 53.13379
202.3060, 162.9243
203.5320, 67.71143
204.7570, 127.5449
205.9830, 145.4746
207.2080, 69.50537
208.4330, 50.77686
209.6570, 52.08545
210.8820, 172.3916
212.1060, 153.6968
213.3310, 75.01123
214.5550, 102.3325
215.7780, 8.739258
217.0020, 146.1758
218.2260, 69.59131
219.4490, 64.99561
220.6720, 65.45654
221.8950, 169.0674
223.1180, 164.7583
224.3400, 223.8809
225.5630, 255.7188
226.7850, 193.3281
228.0070, 303.7505
229.2290, 269.0469
230.4500, 293.2002
231.6720, 311.1943
232.8930, 334.0308
234.1140, 300.7114
235.3350, 310.2402
236.5560, 268.6191
237.7770, 372.0566
238.9970, 249.3745
240.2170, 287.7646
241.4370, 240.8135
242.6570, 184.6299
243.8770, 292.8799
245.0960, 287.1978
246.3160, 320.1675
247.5350, 327.2363
248.7540, 431.8706
249.9730, 366.7876
251.1910, 435.3062
252.4100, 451.2061
253.6280, 565.5088
254.8460, 465.1328
256.0640, 543.6587
257.2810, 408.4668
258.4990, 505.9834
259.7160, 646.6694
260.9330, 554.1401
262.1500, 546.8047
263.3670, 570.7354
264.5840, 561.2739
265.8000, 544.6924
267.0170, 505.7437
268.2330, 475.1440
269.4490, 428.7812
270.6640, 335.1738
271.8800, 309.1504
273.0950, 259.2964
274.3100, 341.8369
275.5260, 278.0830
276.7400, 313.8218
277.9550, 299.4058
279.1690, 259.1880
280.3840, 214.9614
281.5980, 238.8721
282.8120, 300.0078
284.0260, 168.3345
285.2390, 231.0029
286.4530, 125.0278
287.6660, 180.6709
288.8790, 231.4175
290.0920, 222.4854
291.3040, 271.1870
292.5170, 269.1763
293.7290, 259.9478
294.9410, 282.5205
296.1530, 261.5371
297.3650, 349.3140
298.5770, 376.0117
299.7880, 381.7803
301.0000, 375.1714
302.2110, 388.6362
303.4220, 388.0244
304.6320, 366.3374
305.8430, 289.5737
307.0530, 413.7354
308.2630, 362.8203
309.4730, 330.8306
310.6830, 216.5811
311.8930, 349.9399
313.1030, 228.9297
314.3120, 299.7915
315.5210, 214.7705
316.7300, 204.3506
317.9390, 163.8232
319.1470, 223.1162
320.3560, 168.2402
321.5640, 143.2148
322.7720, 53.08691
323.9800, 166.1094
325.1880, 140.7900
326.3950, 98.82764
327.6030, 12.46582
328.8100, 45.40137
330.0170, 26.72021
331.2240, 38.60645
332.4300, 61.34229
333.6370, 17.35303
334.8430, 47.54834
336.0490, 145.5757
337.2550, 59.18896
338.4610, 86.08203
339.6660, 54.39746
340.8720, 18.97363
342.0770, 84.04492
343.2820, 160.3672
344.4870, 25.50000
345.6920, 74.73145
346.8960, 91.02832
348.1010, 182.6201
349.3050, 82.35840
350.5090, 57.04688
351.7130, 89.86133
352.9160, 36.42676
354.1200, 88.01660
355.3230, 65.68359
356.5260, 65.53613
357.7290, 82.29199
358.9320, 29.69629
360.1350, 69.16016
361.3370, 133.6162
362.5390, 83.64941
363.7410, 3.379883
364.9430, 124.1748
366.1450, 25.24805
367.3470, 78.87305
368.5480, 48.87305
369.7490, 216.3799
370.9500, 47.91016
372.1510, 67.18652
373.3520, 208.2949
374.5520, 8.108398
375.7530, 153.2598
376.9530, 89.48340
378.1530, 74.66211
379.3520, 103.1758
380.5520, 43.69629
381.7510, 129.9893
382.9510, 6.950195
384.1500, 4.257813
385.3490, 47.84863
386.5480, 13.72363
387.7460, 1.586914
388.9440, 6.734375
390.1430, 46.08008
391.3410, 39.02148
392.5390, 7.156250
393.7360, 48.39453
394.9340, 47.37305
396.1310, 120.8809
397.3280, 10.28418
398.5250, 98.35156
399.7220, 90.37012
400.9190, 17.04199
402.1150, 173.8115
403.3120, 11.56641
404.5080, 118.5410
405.7040, 3.954102
406.8990, 84.00098
408.0950, 106.8359
409.2900, 114.8057
410.4860, 199.7539
411.6810, 189.7734
412.8760, 137.9785
414.0700, 170.8486
415.2650, 158.6084
416.4590, 211.6992
417.6540, 229.0303
418.8480, 276.2236
420.0420, 285.7549
421.2350, 253.6514
422.4290, 266.0303
423.6220, 301.2949
424.8150, 318.6045
426.0080, 438.2383
427.2010, 412.0088
428.3940, 472.5146
429.5860, 611.1475
430.7790, 439.3262
431.9710, 559.6738
433.1630, 925.1221
434.3540, 824.5107
435.5460, 866.8447
436.7370, 1005.131
437.9290, 1077.363
439.1200, 1205.539
440.3110, 1300.665
441.5010, 1451.738
442.6920, 1394.761
443.8820, 1652.731
445.0730, 1568.650
446.2630, 1539.517
447.4530, 1661.331
448.6420, 1560.098
449.8320, 1516.816
451.0210, 1462.483
452.2100, 1324.102
453.3990, 1045.667
454.5880, 1108.082
455.7770, 922.5205
456.9660, 976.8496
458.1540, 827.1738
459.3420, 836.3438
460.5300, 637.3994
461.7180, 654.2227
462.9050, 434.2246
464.0930, 453.9297
465.2800, 448.4639
466.4670, 461.5547
467.6540, 425.0518
468.8410, 341.3760
470.0280, 431.4551
471.2140, 327.9619
472.4000, 204.7168
473.5870, 318.2451
474.7720, 254.8027
475.9580, 211.4355
477.1440, 210.6865
478.3290, 124.1152
479.5140, 186.8887
480.6990, 1.916016
481.8840, 81.57324
483.0690, 48.20605
484.2540, 113.4316
485.4380, 77.97754
486.6220, 132.1514
487.8060, 92.23145
488.9900, 52.40820
490.1740, 236.7549
491.3570, 160.8223
492.5410, 192.7764
493.7240, 151.4873
494.9070, 167.6875
496.0900, 129.5215
497.2720, 99.69629
498.4550, 95.56543
499.6370, 102.4268
500.8190, 150.2139
502.0010, 15.77539
503.1830, 50.59570
504.3650, 73.94238
505.5460, 10.99512
506.7280, 103.5127
507.9090, 129.1484
509.0900, 51.65625
510.2710, 107.9639
511.4510, 86.49805
512.6320, 36.22656
513.8120, 59.09180
514.9920, 78.02832
516.1720, 134.4727
517.3520, 52.71875
518.5310, 27.22852
519.7110, 11.55176
520.8900, 149.9648
522.0690, 134.5264
523.2480, 3.657227
524.4270, 75.83398
525.6050, 142.6475
526.7840, 62.45117
527.9620, 84.75488
529.1400, 136.5977
530.3180, 88.51465
531.4960, 77.26270
532.6730, 87.57422
533.8510, 62.25977
535.0280, 39.74902
536.2050, 31.80566
537.3820, 18.53906
538.5590, 2.762695
539.7350, 19.02539
540.9120, 16.87402
542.0880, 65.51660
543.2640, 18.62207
544.4400, 22.68262
545.6150, 161.1250
546.7910, 47.46582
547.9660, 111.2471
549.1410, 146.7510
550.3170, 97.69238
551.4910, 87.20605
552.6660, 50.74121
553.8410, 228.5293
555.0150, 54.79785
556.1890, 65.95605
557.3630, 210.1533
558.5370, 144.8203
559.7110, 147.2959
560.8840, 56.96094
562.0570, 189.7559
563.2310, 300.9365
564.4040, 312.5508
565.5760, 281.6504
566.7490, 189.1338
567.9220, 395.6377
569.0940, 610.0820
570.2660, 549.9150
571.4380, 782.3145
572.6100, 862.4033
573.7820, 988.7168
574.9530, 1264.194
576.1240, 1435.922
577.2960, 1575.136
578.4670, 1712.867
579.6370, 1808.263
580.8080, 1764.834
581.9790, 1855.373
583.1490, 1527.878
584.3190, 1412.049
585.4890, 1135.319
586.6590, 706.9922
587.8280, 776.3750
588.9980, 708.0449
590.1670, 855.5957
591.3360, 663.7256
592.5050, 668.8926
593.6740, 701.8066
594.8430, 623.0811
596.0110, 803.8711
597.1790, 862.7979
598.3480, 1018.280
599.5160, 1000.158
600.6830, 1159.205
601.8510, 1274.682
603.0180, 1249.432
604.1860, 1575.782
605.3530, 1611.840
606.5200, 1709.782
607.6870, 1666.021
608.8530, 1447.788
610.0200, 1255.582
611.1860, 1032.578
612.3520, 754.2695
613.5180, 883.5615
614.6840, 925.0352
615.8500, 874.9707
617.0150, 562.9102
618.1800, 638.4150
619.3450, 460.6631
620.5100, 399.0850
621.6750, 368.6182
622.8400, 284.4570
624.0040, 60.23438
625.1690, 299.4404
626.3330, 207.8057
627.4970, 291.0830
628.6610, 84.84766
629.8240, 52.82324
630.9880, 182.2178
632.1510, 200.0303
633.3140, 233.6367
634.4770, 241.1992
635.6400, 242.0938
636.8020, 208.9443
637.9650, 240.8057
639.1270, 223.2783
640.2890, 238.5635
641.4510, 330.1895
642.6130, 281.4229
643.7750, 304.6182
644.9360, 352.1484
646.0980, 220.5059
647.2590, 534.5723
648.4200, 272.1855
649.5810, 481.7422
650.7410, 338.9141
651.9020, 440.2031
653.0620, 532.1836
654.2220, 455.7207
655.3820, 443.7090
656.5420, 493.5801
657.7020, 500.7090
658.8610, 504.3125
660.0200, 534.1758
661.1800, 512.3242
662.3390, 447.9883
663.4970, 442.3242
664.6560, 405.2910
665.8150, 262.0859
666.9730, 267.2344
668.1310, 199.2852
669.2890, 344.7207
670.4470, 236.7383
671.6050, 261.2656
672.7620, 301.3223
673.9200, 245.9570
675.0770, 173.9004
676.2340, 341.6855
677.3910, 74.58203
678.5470, 100.5508
679.7040, 232.2598
680.8600, 253.0723
682.0160, 139.5215
683.1720, 165.2598
684.3280, 288.4375
685.4840, 45.14453
686.6390, 143.6953
687.7950, 157.6387
688.9500, 58.67383
690.1050, 148.1738
691.2600, 208.8008
692.4150, 119.1484
693.5690, 173.9023
694.7240, 17.72852
695.8780, 172.9570
697.0320, 95.65234
698.1860, 140.4043
699.3400, 126.1992
700.4930, 85.24609
701.6470, 68.23633
702.8000, 71.66992
703.9530, 17.86133
705.1060, 120.4219
706.2590, 132.3770
707.4110, 130.9434
708.5640, 260.0977
709.7160, 107.6895
710.8680, 165.9453
712.0200, 96.22266
713.1720, 278.7969
714.3230, 13.48633
715.4750, 10.49219
716.6260, 167.6777
717.7770, 230.5781
718.9280, 128.6836
720.0790, 204.9746
721.2300, 153.1543
722.3800, 216.9160
723.5300, 175.9160
724.6810, 301.6328
725.8300, 113.9805
726.9800, 46.76758
728.1300, 52.32812
729.2790, 122.7598
730.4290, 96.77344
731.5780, 139.8027
732.7270, 51.13477
733.8760, 133.9004
735.0240, 84.03320
736.1730, 34.57031
737.3210, 57.92383
738.4700, 241.8477
739.6180, 3.839844
740.7650, 277.6113
741.9130, 115.8027
743.0610, 167.9062
744.2080, 178.1641
745.3550, 90.10547
746.5020, 184.9609
747.6490, 127.1934
748.7960, 22.66406
749.9430, 149.5117
751.0890, 63.49219
752.2350, 111.2539
753.3810, 3.109375
754.5270, 96.61914
755.6730, 182.3262
756.8190, 140.0430
757.9640, 142.7773
759.1090, 46.65234
760.2540, 150.6191
761.3990, 92.10938
762.5440, 7.775391
763.6890, 24.34180
764.8330, 63.50000
765.9780, 115.1758
767.1220, 236.4395
768.2660, 81.90820
769.4100, 361.0371
770.5530, 184.2188
771.6970, 134.3594
772.8400, 68.78906
773.9830, 245.5020
775.1260, 195.0410
776.2690, 266.6621
777.4120, 155.7402
778.5540, 198.8340
779.6970, 102.8535
780.8390, 218.0957
781.9810, 74.82422
783.1230, 78.13477
784.2650, 189.6934
785.4060, 141.7227
786.5480, 280.1680
787.6890, 189.0449
788.8300, 17.19922
789.9710, 343.9863
791.1120, 238.9316
792.2520, 144.7012
793.3930, 210.4062
794.5330, 275.8184
795.6730, 167.1562
796.8130, 213.8203
797.9530, 93.65625
799.0930, 169.7754
800.2320, 65.82031
801.3710, 28.78320
802.5110, 96.68555
803.6500, 68.01172
804.7880, 177.1660
805.9270, 120.9824
807.0660, 156.3281
808.2040, 244.1465
809.3420, 115.9941
810.4800, 30.93164
811.6180, 277.5508
812.7560, 70.79883
813.8930, 207.6738
815.0310, 118.3652
816.1680, 225.0938
817.3050, 176.3047
818.4420, 331.5293
819.5790, 164.2188
820.7150, 285.9531
821.8520, 311.1465
822.9880, 208.1934
824.1240, 164.6445
825.2600, 159.0879
826.3960, 217.0332
827.5320, 155.6719
828.6670, 164.5410
829.8020, 106.7207
830.9380, 134.8633
832.0730, 147.0996
833.2080, 160.0957
834.3420, 79.69141
835.4770, 7.398438
836.6110, 239.9570
837.7450, 196.2773
838.8790, 316.9316
840.0130, 239.0566
841.1470, 96.70703
842.2810, 396.8965
843.4140, 77.07227
844.5470, 323.1797
845.6800, 344.7598
846.8130, 164.6367
847.9460, 138.6836
849.0790, 284.4902
850.2110, 238.1094
851.3440, 136.1055
852.4760, 314.4707
853.6080, 361.1836
854.7400, 289.0938
855.8710, 223.5117
857.0030, 229.1797
858.1340, 87.07617
859.2650, 257.7441
860.3960, 267.5371
861.5270, 355.5254
862.6580, 228.4746
863.7890, 261.2715
864.9190, 269.7754
866.0490, 117.8828
867.1790, 330.9238
868.3090, 238.0488
869.4390, 483.2754
870.5690, 242.8535
871.6980, 158.5273
872.8270, 322.5312
873.9570, 258.6035
875.0860, 439.3945
876.2140, 312.8242
877.3430, 493.6465
878.4720, 481.9902
879.6000, 297.3457
880.7280, 440.5898
881.8560, 422.4258
882.9840, 240.6113
884.1120, 242.1504
885.2390, 212.1934
886.3670, 197.4922
887.4940, 233.8945
888.6210, 191.4609
889.7480, 251.1660
890.8750, 182.5527
892.0020, 161.4355
893.1280, 136.6797
894.2540, 89.07422
895.3810, 58.91016
896.5070, 62.20898
897.6320, 0.4492190
898.7580, 16.90039
899.8840, 104.6973
901.0090, 2.763672
902.1340, 53.56836
903.2590, 134.4824
904.3840, 96.82227
905.5090, 87.29102
906.6340, 105.8418
907.7580, 263.3691
908.8820, 39.38086
910.0060, 37.14062
911.1300, 35.62695
912.2540, 164.6504
913.3780, 54.40039
914.5010, 90.57227
915.6250, 210.2910
916.7480, 252.5508
917.8710, 324.9551
918.9940, 238.3457
920.1160, 362.2344
921.2390, 296.8730
922.3610, 324.6191
923.4840, 29.79688
924.6060, 267.2402
925.7280, 210.5254
926.8490, 8.673828
927.9710, 228.6504
929.0930, 352.2012
930.2140, 315.9824
931.3350, 270.2637
932.4560, 376.6934
933.5770, 339.5527
934.6980, 361.9844
935.8180, 391.6660
936.9380, 432.3184
938.0590, 429.0293
939.1790, 570.9297
940.2990, 628.9121
941.4180, 798.6211
942.5380, 1035.439
943.6570, 1220.586
944.7770, 1708.156
945.8960, 1686.930
947.0150, 1901.104
948.1340, 2337.256
949.2520, 2952.062
950.3710, 3882.461
951.4890, 4925.275
952.6070, 6504.852
953.7260, 8438.822
954.8430, 10954.28
955.9610, 14537.52
957.0790, 17919.46
958.1960, 21790.00
959.3130, 24938.99
960.4310, 27628.26
961.5480, 29552.74
962.6640, 29224.93
963.7810, 27928.13
964.8970, 25208.11
966.0140, 21241.12
967.1300, 17422.16
968.2460, 14168.22
969.3620, 11256.83
970.4780, 8750.281
971.5930, 6508.609
972.7090, 5018.537
973.8240, 3755.152
974.9390, 2938.271
976.0540, 2092.910
977.1690, 1646.658
978.2830, 1120.283
979.3980, 1074.793
980.5120, 618.7305
981.6260, 658.5234
982.7400, 170.1797
983.8540, 140.4180
984.9680, 295.8594
986.0820, 221.4316
987.1950, 210.7402
988.3080, 370.2070
989.4210, 198.3594
990.5340, 281.2168
991.6470, 35.92969
992.7600, 162.2168
993.8720, 73.08984
994.9850, 134.9727
996.0970, 266.1953
997.2090, 110.8711
998.3210, 202.6641
999.4320, 34.53125
1000.544, 66.62500
1001.655, 73.59375
1002.767, 216.1445
1003.878, 262.1562
1004.989, 72.69531
1006.100, 85.14453
1007.210, 162.6133
1008.321, 179.4492
1009.431, 143.6914
1010.541, 155.8750
1011.651, 172.5977
1012.761, 69.26953
1013.871, 411.9258
1014.980, 184.7188
1016.090, 210.4961
1017.199, 45.66016
1018.308, 199.8086
1019.417, 323.8320
1020.526, 439.8555
1021.635, 297.1172
1022.743, 481.1094
1023.852, 657.4531
1024.960, 510.4922
1026.068, 629.4375
1027.176, 600.2734
1028.283, 585.8672
1029.391, 919.1484
1030.498, 1022.473
1031.606, 956.1250
1032.713, 1006.715
1033.820, 1013.781
1034.927, 913.9766
1036.033, 753.8281
1037.140, 718.6953
1038.246, 584.3047
1039.353, 471.8359
1040.459, 545.4570
1041.564, 483.7344
1042.670, 324.6250
1043.776, 557.4688
1044.881, 586.2734
1045.987, 387.4531
1047.092, 409.5898
1048.197, 440.7773
1049.302, 623.1055
1050.406, 546.2773
1051.511, 609.6719
1052.615, 611.2617
1053.720, 578.2109
1054.824, 715.5781
1055.928, 772.9375
1057.031, 724.6992
1058.135, 458.9688
1059.238, 840.9883
1060.342, 422.1055
1061.445, 425.1992
1062.548, 236.5000
1063.651, 376.7969
1064.754, 389.0547
1065.856, 304.3281
1066.959, 518.5977
1068.061, 197.8633
1069.163, 415.1250
1070.265, 395.3828
1071.367, 252.6367
1072.469, 459.9102
1073.570, 603.1719
1074.671, 583.4375
1075.773, 649.6914
1076.874, 601.9453
1077.975, 671.1914
1079.075, 681.4375
1080.176, 597.6758
1081.276, 356.9141
1082.377, 560.1445
1083.477, 605.3750
1084.577, 336.5977
1085.677, 17.17969
1086.777, 337.0195
1087.876, 26.78516
1088.975, 2.621094
1090.075, 222.5312
1091.174, 16.32031
1092.273, 181.8086
1093.372, 274.9414
1094.470, 180.0664
1095.569, 171.1875
1096.667, 22.31250
1097.765, 91.43359
1098.863, 45.55078
1099.961, 153.6719
1101.059, 262.7930
1102.157, 108.9141
1103.254, 225.0391
1104.351, 1.835938
1105.449, 269.2773
1106.546, 2.613281
1107.642, 127.4922
1108.739, 84.59766
1109.836, 47.30078
1110.932, 171.7734
1112.028, 6.843750
1113.124, 308.9102
1114.220, 162.9766
1115.316, 274.9219
1116.412, 14.84766
1117.507, 44.20703
1118.603, 89.92188
1119.698, 405.9805
1120.793, 394.0312
1121.888, 347.1172
1122.983, 397.1758
1124.077, 357.7227
1125.172, 447.6914
1126.266, 182.2969
1127.360, 280.1758
1128.454, 154.2422
1129.548, 153.0391
1130.642, 197.1094
1131.735, 12.85938
1132.829, 356.5078
1133.922, 314.1914
1135.015, 228.2734
1136.108, 123.3594
1137.201, 85.07422
1138.294, 186.7812
1139.386, 96.12109
1140.478, 158.9375
1141.571, 242.7969
1142.663, 105.8594
1143.755, 55.03906
1144.846, 40.26172
1145.938, 77.86719
1147.030, 39.31641
1148.121, 11.67188
1149.212, 249.0000
1150.303, 350.0000
1151.394, 205.0039
1152.485, 7.878906
1153.575, 150.8984
1154.666, 331.8633
1155.756, 317.8984
1156.846, 243.9727
1157.936, 312.0195
1159.026, 139.0742
1160.116, 180.1406
1161.205, 244.4297
1162.295, 151.5156
1163.384, 185.2539
1164.473, 185.3828
1165.562, 243.5586
1166.651, 198.7422
1167.739, 24.96484
1168.828, 331.1992
1169.916, 395.4414
1171.005, 73.69141
1172.093, 70.94922
1173.181, 154.2109
1174.268, 118.4922
1175.356, 238.7930
1176.443, 313.0977
1177.531, 313.4648
1178.618, 383.3320
1179.705, 53.24219
1180.792, 491.6484
1181.879, 201.0586
1182.965, 346.4844
1184.052, 431.9102
1185.138, 126.3516
1186.224, 298.7969
1187.310, 292.2539
1188.396, 188.7227
1189.482, 298.2031
1190.567, 305.6914
1191.653, 356.2070
1192.738, 270.7344
1193.823, 288.2695
1194.908, 321.8125
1195.993, 268.6250
1197.077, 292.9258
1198.162, 210.4961
1199.246, 420.0742
1200.331, 379.6680
1201.415, 389.2695
1202.499, 255.8828
1203.582, 371.5000
1204.666, 282.1367
1205.750, 255.7812
1206.833, 444.4336
1207.916, 569.0977
1208.999, 416.7734
1210.082, 434.4609
1211.165, 456.1562
1212.248, 224.8633
1213.330, 350.5820
1214.412, 419.3164
1215.495, 276.0586
1216.577, 485.0273
1217.658, 478.7930
1218.740, 295.2578
1219.822, 423.9375
1220.903, 270.9141
1221.985, 393.0703
1223.066, 423.8984
1224.147, 306.7383
1225.228, 561.5938
1226.308, 544.4609
1227.389, 343.2930
1228.469, 212.1914
1229.550, 282.1016
1230.630, 506.0234
1231.710, 414.9609
1232.790, 272.9102
1233.869, 471.8750
1234.949, 280.0195
1236.028, 634.0117
1237.108, 260.1602
1238.187, 508.1836
1239.266, 417.2188
1240.344, 280.0820
1241.423, 513.1484
1242.502, 272.8633
1243.580, 73.96094
1244.658, 301.0742
1245.736, 5.796875
1246.814, 35.92188
1247.892, 37.91797
1248.970, 86.23828
1250.047, 74.41406
1251.125, 5.609375
1252.202, 166.8164
1253.279, 245.0430
1254.356, 143.3086
1255.433, 130.5859
1256.509, 348.8867
1257.586, 305.2031
1258.662, 303.5391
1259.738, 75.89453
1260.814, 286.2656
1261.890, 213.6133
1262.966, 374.0430
1264.042, 152.4883
1265.117, 193.9531
1266.193, 236.3164
1267.268, 290.9414
1268.343, 311.5000
1269.418, 353.7500
1270.492, 356.3398
1271.567, 175.0039
1272.642, 77.30859
1273.716, 99.40625
1274.790, 413.9023
1275.864, 50.49219
1276.938, 311.1016
1278.012, 351.8555
1279.085, 258.6445
1280.159, 219.4492
1281.232, 163.7227
1282.305, 20.99219
1283.378, 459.1953
1284.451, 183.4375
1285.524, 85.90625
1286.597, 221.7383
1287.669, 195.4062
1288.741, 62.10156
1289.813, 113.1797
1290.885, 120.5195
1291.957, 143.7539
1293.029, 40.94922
1294.101, 235.6758
1295.172, 328.4297
1296.243, 245.2031
1297.315, 3.914063
1298.386, 179.7422
1299.456, 17.59375
1300.527, 197.4688
1301.598, 191.3711
1302.668, 168.3086
1303.738, 214.5312
1304.809, 228.1211
1305.879, 185.2773
1306.948, 387.3203
1308.018, 394.3945
1309.088, 648.4961
1310.157, 617.7930
1311.226, 631.7969
1312.296, 510.9883
1313.365, 533.1953
1314.433, 292.4219
1315.502, 431.6641
1316.571, 321.9297
1317.639, 706.2109
1318.707, 834.5117
1319.776, 478.8320
1320.844, 846.1719
1321.911, 481.5273
1322.979, 630.9062
1324.047, 561.3047
1325.114, 303.7266
1326.181, 270.1641
1327.249, 473.6250
1328.316, 580.1055
1329.382, 583.6055
1330.449, 410.1211
1331.516, 732.6641
1332.582, 589.2227
1333.648, 437.8047
1334.715, 522.4062
1335.781, 731.0273
1336.846, 781.6719
1337.912, 806.3359
1338.978, 607.0195
1340.043, 287.7266
1341.108, 603.4609
1342.174, 700.2148
1343.239, 467.9922
1344.303, 672.7891
1345.368, 742.6172
1346.433, 689.4688
1347.497, 549.3477
1348.561, 316.2578
1349.626, 511.1953
1350.690, 480.1641
1351.753, 666.1523
1352.817, 786.1680
1353.881, 735.2031
1354.944, 433.2617
1356.007, 770.3477
1357.071, 567.4570
1358.134, 621.5938
1359.196, 602.7500
1360.259, 566.9297
1361.322, 579.1367
1362.384, 153.3672
1363.447, 512.6289
1364.509, 686.9180
1365.571, 660.2422
1366.633, 276.5938
1367.694, 491.9688
1368.756, 356.3828
1369.817, 447.8359
1370.879, 162.3164
1371.940, 641.8203
1373.001, 339.3555
1374.062, 455.5078
1375.122, 532.1055
1376.183, 554.0742
1377.244, 586.7305
1378.304, 253.4141
1379.364, 278.0938
1380.424, 533.8359
1381.484, 820.6055
1382.544, 554.4023
1383.603, 248.2344
1384.663, 509.0938
1385.722, 463.9883
1386.781, 450.9102
1387.840, 474.8594
1388.899, 472.2227
1389.958, 441.9102
1391.017, 532.9219
1392.075, 433.0078
1393.134, 484.1328
1394.192, 616.2891
1395.250, 381.4805
1396.308, 603.6992
1397.365, 655.9883
1398.423, 735.3125
1399.481, 600.6680
1400.538, 623.0352
1401.595, 499.4844
1402.652, 422.9492
1403.709, 667.5312
1404.766, 404.1406
1405.823, 347.7852
1406.879, 691.4727
1407.936, 424.2031
1408.992, 244.1211
1410.048, 815.9414
1411.104, 414.8672
1412.160, 667.7812
1413.215, 434.7109
1414.271, 553.7305
1415.326, 594.7930
1416.382, 429.9141
1417.437, 464.8672
1418.492, 314.0977
1419.546, 138.7461
1420.601, 402.8086
1421.656, 695.2148
1422.710, 351.6836
1423.764, 566.2227
1424.819, 335.8203
1425.873, 442.5000
1426.926, 520.2461
1427.980, 398.9141
1429.034, 542.4766
1430.087, 428.4688
1431.140, 241.5000
1432.194, 511.6211
1433.247, 686.8320
1434.299, 659.1328
1435.352, 273.2891
1436.405, 566.0117
1437.457, 414.9180
1438.510, 581.4727
1439.562, 393.7031
1440.614, 531.1094
1441.666, 662.5391
1442.717, 539.0156
1443.769, 695.5273
1444.821, 618.0781
1445.872, 479.6602
1446.923, 520.2852
1447.974, 474.8125
1449.025, 336.6562
1450.076, 480.3945
1451.127, 629.1680
1452.177, 602.9844
1453.227, 391.8438
1454.278, 504.7422
1455.328, 610.6836
1456.378, 628.6562
1457.428, 806.6719
1458.477, 608.7344
1459.527, 357.8320
1460.576, 583.9688
1461.625, 727.1484
1462.675, 585.3711
1463.724, 755.6250
1464.772, 871.9297
1465.821, 783.2695
1466.870, 497.6484
1467.918, 798.0703
1468.966, 557.5273
1470.015, 594.0352
1471.063, 285.5898
1472.110, 680.1953
1473.158, 645.8477
1474.206, 424.5430
1475.253, 414.2734
1476.301, 192.0430
1477.348, 420.8516
1478.395, 496.6992
1479.442, 386.5820
1480.488, 610.5078
1481.535, 878.4727
1482.582, 649.4727
1483.628, 498.5508
1484.674, 312.6641
1485.720, 374.8086
1486.766, 125.9883
1487.812, 183.3516
1488.858, 432.9766
1489.903, 353.7383
1490.949, 315.5391
1491.994, 654.4375
1493.039, 407.4648
1494.084, 581.5156
1495.129, 405.6016
1496.173, 622.7266
1497.218, 407.8672
1498.262, 432.0117
1499.307, 623.1797
1500.351, 53.34766
1501.395, 253.4961
1502.439, 462.6836
1503.483, 362.9570
1504.526, 617.3203
1505.570, 585.7773
1506.613, 236.3203
1507.656, 473.9609
1508.699, 387.6953
1509.742, 318.5312
1510.785, 459.4648
1511.827, 474.5039
1512.870, 395.6484
1513.912, 331.9062
1514.955, 338.0273
1515.997, 376.7617
1517.039, 328.3633
1518.080, 354.0859
1519.122, 369.2656
1520.164, 427.9180
1521.205, 551.0312
1522.246, 446.2852
1523.288, 541.6875
1524.329, 507.2383
1525.369, 666.9531
1526.410, 532.1523
1527.451, 290.8711
1528.491, 283.0703
1529.531, 308.4297
1530.572, 171.9492
1531.612, 401.6523
1532.652, 162.5508
1533.691, 40.66797
1534.731, 368.0117
1535.770, 106.5977
1536.810, 251.4336
1537.849, 137.5352
1538.888, 153.4258
1539.927, 12.58984
1540.966, 171.5703
1542.005, 340.8828
1543.043, 231.5391
1544.082, 421.5703
1545.120, 29.01953
1546.158, 508.8203
1547.196, 579.1133
1548.234, 146.8906
1549.272, 225.2031
1550.309, 452.0977
1551.347, 252.6211
1552.384, 173.8359
1553.421, 13.19141
1554.458, 424.6133
1555.495, 198.2617
1556.532, 353.6836
1557.568, 210.8516
1558.605, 333.6680
1559.641, 0.8632810
1560.678, 90.84375
1561.714, 79.72656
1562.750, 370.0664
1563.785, 0.0000000E+00
##END=



