##NAMES=Fluorapatite
##RRUFFID=R060333
##IDEAL CHEMISTRY=Ca_5_(PO_4_)_3_F
##LOCALITY=Lovozero Massif, Kola Peninsula, U.S.S.R.
##OWNER=RRUFF
##SOURCE=Michael Scott
##DESCRIPTION=Colorless fragment associated with red villiaumite
##STATUS=The identification of this mineral has been confirmed by X-ray diffraction and chemical analysis
##URL=rruff.info/R060333
##MEASURED CHEMISTRY=(Ca_4.29_Sr_0.47_Na_0.12_Ce_0.07_La_0.06_)_Σ=5_((P_0.99_Si_0.01_)_Σ=1_O_4_)_3_F_1.00_
##PIN_ID=L01212
##ORIENTATION=Laser parallel to a* (1 0 0). Fiducial mark perpendicular to laser is parallel to -c [0 0 -1]
164.2210, 0.0000000E+00
165.4520, 59.78516
166.6830, 113.5542
167.9140, 56.18750
169.1450, 35.07666
170.3760, 77.01074
171.6060, 44.49707
172.8360, 122.1777
174.0660, 46.55762
175.2960, 26.00684
176.5260, 52.20215
177.7550, 10.85889
178.9840, 99.18408
180.2130, 62.22119
181.4420, 54.12695
182.6710, 63.55225
183.9000, 71.02295
185.1280, 124.4941
186.3560, 54.65771
187.5840, 95.58691
188.8120, 47.83057
190.0400, 18.67188
191.2670, 41.16553
192.4950, 34.11670
193.7220, 30.58301
194.9490, 89.36426
196.1750, 51.26514
197.4020, 146.0991
198.6280, 80.00195
199.8540, 32.90186
201.0800, 133.7822
202.3060, 101.6548
203.5320, 152.5405
204.7570, 53.50000
205.9830, 66.08789
207.2080, 94.59521
208.4330, 70.81006
209.6570, 16.20947
210.8820, 111.6792
212.1060, 28.21191
213.3310, 113.8853
214.5550, 124.6265
215.7780, 211.3613
217.0020, 111.0356
218.2260, 49.65381
219.4490, 102.2310
220.6720, 218.8931
221.8950, 193.6157
223.1180, 151.4058
224.3400, 136.2305
225.5630, 228.0576
226.7850, 173.7832
228.0070, 196.3911
229.2290, 325.8604
230.4500, 397.1875
231.6720, 370.3760
232.8930, 411.2188
234.1140, 394.9180
235.3350, 370.1455
236.5560, 326.8120
237.7770, 296.3770
238.9970, 288.9082
240.2170, 199.1250
241.4370, 289.9092
242.6570, 246.2568
243.8770, 265.9370
245.0960, 319.9619
246.3160, 397.6123
247.5350, 303.6719
248.7540, 400.8350
249.9730, 411.6509
251.1910, 524.6680
252.4100, 490.3472
253.6280, 469.8555
254.8460, 640.5869
256.0640, 583.8418
257.2810, 533.7549
258.4990, 595.5542
259.7160, 719.9771
260.9330, 612.8193
262.1500, 694.0029
263.3670, 441.3975
264.5840, 589.8872
265.8000, 449.9854
267.0170, 487.9585
268.2330, 409.0923
269.4490, 427.8198
270.6640, 461.5005
271.8800, 459.3901
273.0950, 429.8755
274.3100, 336.6875
275.5260, 339.5542
276.7400, 320.4434
277.9550, 274.9072
279.1690, 275.4858
280.3840, 265.4414
281.5980, 306.8057
282.8120, 285.9590
284.0260, 260.3091
285.2390, 308.3242
286.4530, 224.5737
287.6660, 293.0225
288.8790, 246.0396
290.0920, 300.8252
291.3040, 423.0967
292.5170, 326.9399
293.7290, 221.7212
294.9410, 328.4072
296.1530, 304.0356
297.3650, 251.6045
298.5770, 377.1133
299.7880, 347.5620
301.0000, 349.9507
302.2110, 291.2803
303.4220, 296.4795
304.6320, 285.7607
305.8430, 300.9126
307.0530, 294.0054
308.2630, 333.0391
309.4730, 270.0142
310.6830, 247.4775
311.8930, 290.5898
313.1030, 164.2793
314.3120, 202.8784
315.5210, 218.3809
316.7300, 191.7910
317.9390, 222.0703
319.1470, 210.8257
320.3560, 29.33496
321.5640, 177.2871
322.7720, 111.2349
323.9800, 26.71094
325.1880, 107.3413
326.3950, 167.8823
327.6030, 104.2832
328.8100, 115.8013
330.0170, 91.32227
331.2240, 64.74561
332.4300, 117.2881
333.6370, 71.15332
334.8430, 149.7866
336.0490, 56.41846
337.2550, 18.78760
338.4610, 11.54297
339.6660, 12.08154
340.8720, 10.19531
342.0770, 30.62646
343.2820, 13.81592
344.4870, 52.34326
345.6920, 35.48047
346.8960, 64.11475
348.1010, 3.841309
349.3050, 9.883301
350.5090, 83.59082
351.7130, 50.06689
352.9160, 92.38477
354.1200, 9.853027
355.3230, 21.77344
356.5260, 8.167480
357.7290, 80.86426
358.9320, 40.91846
360.1350, 30.43311
361.3370, 32.29199
362.5390, 60.31152
363.7410, 89.99023
364.9430, 127.7949
366.1450, 4.983398
367.3470, 217.4756
368.5480, 40.52637
369.7490, 168.6455
370.9500, 196.6826
372.1510, 86.71094
373.3520, 171.0479
374.5520, 96.28516
375.7530, 163.1992
376.9530, 260.0596
378.1530, 132.5225
379.3520, 129.1006
380.5520, 82.06250
381.7510, 92.39258
382.9510, 44.91797
384.1500, 2.881836
385.3490, 113.8818
386.5480, 43.58105
387.7460, 24.36133
388.9440, 8.248047
390.1430, 129.4131
391.3410, 208.8955
392.5390, 37.59180
393.7360, 35.46191
394.9340, 18.30957
396.1310, 72.27637
397.3280, 0.9697270
398.5250, 80.59473
399.7220, 167.4990
400.9190, 53.49414
402.1150, 18.21484
403.3120, 91.60645
404.5080, 142.6045
405.7040, 180.8076
406.8990, 194.0928
408.0950, 176.4473
409.2900, 148.6670
410.4860, 218.0615
411.6810, 184.8506
412.8760, 208.5791
414.0700, 231.1123
415.2650, 223.5352
416.4590, 361.0762
417.6540, 307.4492
418.8480, 309.5527
420.0420, 415.4863
421.2350, 306.7559
422.4290, 575.4707
423.6220, 502.2471
424.8150, 588.7930
426.0080, 612.2812
427.2010, 574.7227
428.3940, 769.0830
429.5860, 764.3965
430.7790, 780.6650
431.9710, 815.8896
433.1630, 868.8193
434.3540, 908.2070
435.5460, 1015.302
436.7370, 1075.844
437.9290, 1291.387
439.1200, 1278.373
440.3110, 1382.321
441.5010, 1560.229
442.6920, 1517.099
443.8820, 1742.927
445.0730, 1643.715
446.2630, 1665.463
447.4530, 1824.172
448.6420, 1603.840
449.8320, 1541.472
451.0210, 1544.062
452.2100, 1318.613
453.3990, 1127.129
454.5880, 1035.623
455.7770, 944.0635
456.9660, 874.2070
458.1540, 798.4580
459.3420, 736.7139
460.5300, 704.8047
461.7180, 540.9678
462.9050, 526.0273
464.0930, 452.1699
465.2800, 448.0029
466.4670, 321.5068
467.6540, 329.2744
468.8410, 315.8477
470.0280, 366.4287
471.2140, 306.7041
472.4000, 306.3223
473.5870, 380.0859
474.7720, 267.0381
475.9580, 211.1562
477.1440, 218.0273
478.3290, 231.1787
479.5140, 256.8887
480.6990, 226.9893
481.8840, 198.5195
483.0690, 168.1094
484.2540, 95.40430
485.4380, 62.88965
486.6220, 14.62793
487.8060, 31.17969
488.9900, 3.590820
490.1740, 62.72168
491.3570, 121.6094
492.5410, 76.08789
493.7240, 135.7031
494.9070, 13.44824
496.0900, 60.62598
497.2720, 35.94922
498.4550, 26.40332
499.6370, 144.0020
500.8190, 161.9736
502.0010, 83.80762
503.1830, 220.3770
504.3650, 32.31250
505.5460, 8.960938
506.7280, 12.30957
507.9090, 53.24902
509.0900, 39.19434
510.2710, 106.8311
511.4510, 78.55957
512.6320, 86.91699
513.8120, 77.78613
514.9920, 29.09375
516.1720, 35.22461
517.3520, 70.99316
518.5310, 72.97754
519.7110, 0.3056640
520.8900, 3.970703
522.0690, 40.66602
523.2480, 3.7108999E-02
524.4270, 98.38867
525.6050, 220.3740
526.7840, 12.79785
527.9620, 62.05859
529.1400, 116.0723
530.3180, 30.18750
531.4960, 97.23047
532.6730, 34.91992
533.8510, 18.34473
535.0280, 112.3066
536.2050, 135.3330
537.3820, 73.62207
538.5590, 121.4434
539.7350, 120.5840
540.9120, 48.45898
542.0880, 29.99023
543.2640, 153.1768
544.4400, 245.5918
545.6150, 188.3154
546.7910, 130.6943
547.9660, 93.97461
549.1410, 73.03418
550.3170, 92.90039
551.4910, 47.50684
552.6660, 170.8115
553.8410, 175.9766
555.0150, 210.4111
556.1890, 224.9688
557.3630, 186.4199
558.5370, 217.0547
559.7110, 269.2324
560.8840, 304.5098
562.0570, 204.8799
563.2310, 324.1367
564.4040, 298.8232
565.5760, 341.4258
566.7490, 670.6348
567.9220, 454.6689
569.0940, 425.8682
570.2660, 755.3291
571.4380, 820.2051
572.6100, 1140.961
573.7820, 1333.337
574.9530, 1390.894
576.1240, 1598.816
577.2960, 1871.565
578.4670, 2162.357
579.6370, 2133.133
580.8080, 1990.286
581.9790, 1734.479
583.1490, 1548.673
584.3190, 1166.372
585.4890, 1102.974
586.6590, 880.8027
587.8280, 1045.715
588.9980, 983.2334
590.1670, 877.2842
591.3360, 860.8457
592.5050, 754.4268
593.6740, 821.8711
594.8430, 797.4902
596.0110, 920.3506
597.1790, 827.8369
598.3480, 932.5420
599.5160, 966.4092
600.6830, 1206.079
601.8510, 1425.479
603.0180, 1615.438
604.1860, 1946.470
605.3530, 1971.008
606.5200, 1820.153
607.6870, 1544.696
608.8530, 1357.069
610.0200, 1192.591
611.1860, 1180.987
612.3520, 1090.540
613.5180, 1114.256
614.6840, 835.6260
615.8500, 882.4395
617.0150, 664.3496
618.1800, 601.1611
619.3450, 711.9551
620.5100, 383.0352
621.6750, 270.2158
622.8400, 378.8379
624.0040, 386.6035
625.1690, 292.0625
626.3330, 226.6348
627.4970, 332.5498
628.6610, 178.2051
629.8240, 132.2344
630.9880, 209.7012
632.1510, 148.5332
633.3140, 30.51172
634.4770, 143.1562
635.6400, 312.3086
636.8020, 180.0361
637.9650, 352.7148
639.1270, 385.8604
640.2890, 287.4951
641.4510, 156.3193
642.6130, 434.0156
643.7750, 299.7959
644.9360, 399.3613
646.0980, 435.9199
647.2590, 535.9004
648.4200, 569.9590
649.5810, 374.0605
650.7410, 647.8379
651.9020, 684.4170
653.0620, 516.8740
654.2220, 642.6797
655.3820, 492.5811
656.5420, 652.6914
657.7020, 558.3037
658.8610, 621.2666
660.0200, 635.1445
661.1800, 369.4893
662.3390, 531.3672
663.4970, 389.5264
664.6560, 565.7188
665.8150, 441.0557
666.9730, 501.4443
668.1310, 188.5205
669.2890, 288.3857
670.4470, 303.3799
671.6050, 188.4453
672.7620, 240.5146
673.9200, 271.2832
675.0770, 195.0361
676.2340, 281.7109
677.3910, 254.5195
678.5470, 192.6494
679.7040, 221.1582
680.8600, 135.1426
682.0160, 275.0801
683.1720, 257.5049
684.3280, 207.2520
685.4840, 35.42578
686.6390, 133.6309
687.7950, 57.33984
688.9500, 161.6035
690.1050, 202.3887
691.2600, 102.9824
692.4150, 3.205078
693.5690, 271.5586
694.7240, 219.7500
695.8780, 79.60938
697.0320, 0.6386720
698.1860, 161.3301
699.3400, 43.53906
700.4930, 94.69531
701.6470, 414.5039
702.8000, 35.35938
703.9530, 237.2637
705.1060, 318.0527
706.2590, 108.4082
707.4110, 67.08203
708.5640, 219.0566
709.7160, 107.1641
710.8680, 123.2344
712.0200, 200.6719
713.1720, 144.4434
714.3230, 282.7676
715.4750, 1.029297
716.6260, 63.60352
717.7770, 58.91406
718.9280, 177.0820
720.0790, 154.3574
721.2300, 140.7754
722.3800, 245.6953
723.5300, 255.5625
724.6810, 187.7090
725.8300, 154.4668
726.9800, 235.4707
728.1300, 94.11523
729.2790, 197.7012
730.4290, 179.2324
731.5780, 23.70703
732.7270, 81.84961
733.8760, 193.4531
735.0240, 146.8535
736.1730, 81.04492
737.3210, 267.1777
738.4700, 68.25977
739.6180, 112.2793
740.7650, 204.2598
741.9130, 55.81250
743.0610, 56.01758
744.2080, 118.9316
745.3550, 237.6992
746.5020, 53.36523
747.6490, 210.1816
748.7960, 19.26172
749.9430, 165.2148
751.0890, 111.6387
752.2350, 26.00781
753.3810, 46.55469
754.5270, 14.04297
755.6730, 7.417969
756.8190, 187.5586
757.9640, 6.630859
759.1090, 67.09375
760.2540, 157.1094
761.3990, 1.556641
762.5440, 70.40039
763.6890, 229.4668
764.8330, 51.62891
765.9780, 119.6035
767.1220, 191.5684
768.2660, 206.8066
769.4100, 172.0977
770.5530, 76.94531
771.6970, 23.39648
772.8400, 119.3535
773.9830, 75.14844
775.1260, 264.0566
776.2690, 120.4102
777.4120, 151.6289
778.5540, 111.3457
779.6970, 84.67383
780.8390, 158.0508
781.9810, 145.9297
783.1230, 148.9414
784.2650, 57.91016
785.4060, 152.8281
786.5480, 284.7188
787.6890, 19.31445
788.8300, 211.4629
789.9710, 235.5137
791.1120, 129.2695
792.2520, 246.9160
793.3930, 35.25391
794.5330, 130.2715
795.6730, 51.75391
796.8130, 125.1875
797.9530, 200.5781
799.0930, 195.9297
800.2320, 0.2402340
801.3710, 176.4941
802.5110, 250.7031
803.6500, 19.12891
804.7880, 126.9727
805.9270, 226.4180
807.0660, 59.76172
808.2040, 138.0332
809.3420, 307.3047
810.4800, 377.7598
811.6180, 185.3184
812.7560, 218.5156
813.8930, 112.0371
815.0310, 69.40234
816.1680, 204.4629
817.3050, 234.6074
818.4420, 194.3535
819.5790, 222.6484
820.7150, 228.3398
821.8520, 268.7637
822.9880, 237.1523
824.1240, 192.7012
825.2600, 159.6348
826.3960, 203.2266
827.5320, 178.9531
828.6670, 264.2266
829.8020, 282.4062
830.9380, 121.6836
832.0730, 270.8633
833.2080, 59.21289
834.3420, 246.5781
835.4770, 168.7109
836.6110, 148.6680
837.7450, 134.4609
838.8790, 262.2363
840.0130, 174.5254
841.1470, 326.8066
842.2810, 76.39258
843.4140, 319.0586
844.5470, 135.4707
845.6800, 88.55664
846.8130, 82.13672
847.9460, 354.7480
849.0790, 122.6836
850.2110, 414.3496
851.3440, 12.55859
852.4760, 121.8496
853.6080, 169.0078
854.7400, 6.091797
855.8710, 153.3750
857.0030, 103.8613
858.1340, 208.2539
859.2650, 235.0547
860.3960, 124.8652
861.5270, 238.3594
862.6580, 129.6836
863.7890, 264.3105
864.9190, 268.3164
866.0490, 458.7305
867.1790, 299.0312
868.3090, 187.3848
869.4390, 202.4414
870.5690, 150.5977
871.6980, 244.7695
872.8270, 221.5156
873.9570, 290.0137
875.0860, 393.6250
876.2140, 587.2637
877.3430, 507.4180
878.4720, 318.4570
879.6000, 142.6562
880.7280, 162.9531
881.8560, 235.5586
882.9840, 121.8652
884.1120, 331.9219
885.2390, 175.0957
886.3670, 441.9141
887.4940, 239.4863
888.6210, 105.4414
889.7480, 104.6055
890.8750, 240.3555
892.0020, 108.1504
893.1280, 299.9355
894.2540, 45.46094
895.3810, 59.67969
896.5070, 21.26562
897.6320, 205.5137
898.7580, 24.70312
899.8840, 1.468750
901.0090, 61.51367
902.1340, 51.16992
903.2590, 11.61914
904.3840, 66.95703
905.5090, 98.37109
906.6340, 21.37109
907.7580, 38.86523
908.8820, 60.99609
910.0060, 61.88281
911.1300, 111.5332
912.2540, 222.5664
913.3780, 1.291016
914.5010, 199.6543
915.6250, 58.47656
916.7480, 128.5840
917.8710, 352.6230
918.9940, 318.6602
920.1160, 145.2422
921.2390, 160.2578
922.3610, 88.81055
923.4840, 6.994141
924.6060, 36.20508
925.7280, 95.48438
926.8490, 125.3047
927.9710, 11.40039
929.0930, 284.6582
930.2140, 108.4180
931.3350, 128.7656
932.4560, 277.4766
933.5770, 170.4902
934.6980, 296.4688
935.8180, 304.6836
936.9380, 314.5898
938.0590, 494.7930
939.1790, 556.7949
940.2990, 607.4551
941.4180, 787.5195
942.5380, 849.9453
943.6570, 1159.617
944.7770, 1445.840
945.8960, 1772.047
947.0150, 2357.887
948.1340, 2889.857
949.2520, 3271.373
950.3710, 4202.703
951.4890, 5657.590
952.6070, 7379.596
953.7260, 9290.426
954.8430, 11835.37
955.9610, 15420.32
957.0790, 19116.39
958.1960, 23470.40
959.3130, 26991.21
960.4310, 29644.91
961.5480, 30403.79
962.6640, 29504.57
963.7810, 26689.62
964.8970, 23724.67
966.0140, 19933.38
967.1300, 16390.40
968.2460, 13071.03
969.3620, 10705.05
970.4780, 8156.238
971.5930, 6452.912
972.7090, 4862.527
973.8240, 3565.531
974.9390, 2643.344
976.0540, 1834.332
977.1690, 1385.693
978.2830, 1271.668
979.3980, 971.8984
980.5120, 577.3105
981.6260, 376.6914
982.7400, 407.2949
983.8540, 386.8438
984.9680, 211.7754
986.0820, 207.7324
987.1950, 221.3086
988.3080, 37.08008
989.4210, 59.06836
990.5340, 131.5938
991.6470, 131.0469
992.7600, 35.93945
993.8720, 62.82227
994.9850, 69.36133
996.0970, 150.2305
997.2090, 82.79102
998.3210, 196.6484
999.4320, 103.5039
1000.544, 288.3535
1001.655, 457.1973
1002.767, 5.990234
1003.878, 77.86914
1004.989, 13.57422
1006.100, 134.4336
1007.210, 136.2891
1008.321, 180.1426
1009.431, 64.00781
1010.541, 164.8066
1011.651, 1.615234
1012.761, 12.55859
1013.871, 293.1172
1014.980, 89.88281
1016.090, 195.6973
1017.199, 277.3184
1018.308, 95.12891
1019.417, 452.9473
1020.526, 362.7637
1021.635, 357.6016
1022.743, 321.9414
1023.852, 706.5410
1024.960, 509.3848
1026.068, 774.0273
1027.176, 768.8750
1028.283, 910.2852
1029.391, 563.7598
1030.498, 959.3848
1031.606, 1058.695
1032.713, 729.0469
1033.820, 814.9805
1034.927, 717.4961
1036.033, 909.3281
1037.140, 756.6523
1038.246, 657.2070
1039.353, 651.8945
1040.459, 729.2695
1041.564, 479.7266
1042.670, 364.0078
1043.776, 778.5762
1044.881, 368.3555
1045.987, 593.2227
1047.092, 374.2988
1048.197, 494.1680
1049.302, 619.7559
1050.406, 465.6289
1051.511, 706.5039
1052.615, 755.3809
1053.720, 927.2578
1054.824, 680.1641
1055.928, 929.9258
1057.031, 752.8223
1058.135, 539.3984
1059.238, 779.2305
1060.342, 529.1289
1061.445, 393.8008
1062.548, 473.7168
1063.651, 323.4492
1064.754, 282.6035
1065.856, 312.8887
1066.959, 411.8379
1068.061, 541.7891
1069.163, 463.5332
1070.265, 363.4980
1071.367, 479.4629
1072.469, 481.4434
1073.570, 538.4277
1074.671, 623.4141
1075.773, 628.4238
1076.874, 682.4414
1077.975, 560.4551
1079.075, 571.4746
1080.176, 414.4961
1081.276, 424.5195
1082.377, 578.5469
1083.477, 320.5801
1084.577, 173.6172
1085.677, 327.6543
1086.777, 321.6973
1087.876, 518.7422
1088.975, 137.7891
1090.075, 448.8379
1091.174, 164.8887
1092.273, 198.9453
1093.372, 357.0020
1094.470, 209.0645
1095.569, 76.24023
1096.667, 285.3086
1097.765, 207.3828
1098.863, 248.4922
1099.961, 250.6094
1101.059, 285.7539
1102.157, 53.10156
1103.254, 103.0156
1104.351, 156.1406
1105.449, 407.2695
1106.546, 18.39844
1107.642, 151.5312
1108.739, 88.94141
1109.836, 120.0859
1110.932, 106.7695
1112.028, 232.3281
1113.124, 360.4258
1114.220, 139.4688
1115.316, 483.5664
1116.412, 76.60547
1117.507, 329.6523
1118.603, 289.7070
1119.698, 268.7617
1120.793, 317.8242
1121.888, 397.2266
1122.983, 183.3008
1124.077, 182.3789
1125.172, 347.4688
1126.266, 633.5586
1127.360, 261.6523
1128.454, 59.75000
1129.548, 272.8594
1130.642, 257.9688
1131.735, 59.08203
1132.829, 298.2031
1133.922, 486.3281
1135.015, 247.9844
1136.108, 104.1211
1137.201, 435.8633
1138.294, 188.0078
1139.386, 184.1562
1140.478, 202.3125
1141.571, 355.6289
1142.663, 202.7969
1143.755, 254.9180
1144.846, 195.3047
1145.938, 349.4844
1147.030, 216.4023
1148.121, 149.3984
1149.212, 248.7266
1150.303, 66.85156
1151.394, 99.98828
1152.485, 259.6758
1153.575, 75.17578
1154.666, 169.9375
1155.756, 445.0586
1156.846, 92.17969
1157.936, 222.7969
1159.026, 68.92188
1160.116, 131.0703
1161.205, 9.777344
1162.295, 12.62109
1163.384, 355.5195
1164.473, 399.6758
1165.562, 142.8398
1166.651, 409.0156
1167.739, 355.2148
1168.828, 304.4258
1169.916, 150.6484
1171.005, 314.8750
1172.093, 170.1133
1173.181, 189.3594
1174.268, 83.63672
1175.356, 368.9180
1176.443, 221.2031
1177.531, 373.5039
1178.618, 120.8125
1179.705, 215.1250
1180.792, 301.4492
1181.879, 93.78125
1182.965, 310.1172
1184.052, 73.46484
1185.138, 19.81641
1186.224, 302.1758
1187.310, 381.5469
1188.396, 258.9258
1189.482, 57.31641
1190.567, 103.7148
1191.653, 167.1211
1192.738, 331.5430
1193.823, 156.1367
1194.908, 387.5742
1195.993, 9.015625
1197.077, 241.4688
1198.162, 300.9219
1199.246, 131.6133
1200.331, 393.7891
1201.415, 252.1992
1202.499, 314.6250
1203.582, 278.0508
1204.666, 262.4883
1205.750, 341.9336
1206.833, 99.38672
1207.916, 275.8477
1208.999, 332.3164
1210.082, 558.7930
1211.165, 196.2852
1212.248, 27.77734
1213.330, 262.2773
1214.412, 371.7891
1215.495, 484.3086
1216.577, 330.8359
1217.658, 444.3711
1218.740, 271.9219
1219.822, 102.4727
1220.903, 250.0391
1221.985, 226.6094
1223.066, 419.1914
1224.147, 209.7852
1225.228, 32.61719
1226.308, 292.9766
1227.389, 219.5742
1228.469, 322.1836
1229.550, 295.8008
1230.630, 396.4297
1231.710, 220.0664
1232.790, 209.2500
1233.869, 314.9062
1234.949, 169.5742
1236.028, 137.2461
1237.108, 347.8984
1238.187, 2.773438
1239.266, 229.4727
1240.344, 475.1836
1241.423, 320.2812
1242.502, 113.0117
1243.580, 134.7578
1244.658, 89.85547
1245.736, 18.61719
1246.814, 118.6094
1247.892, 142.1250
1248.970, 308.8711
1250.047, 189.6289
1251.125, 155.3984
1252.202, 67.19922
1253.279, 32.00391
1254.356, 396.8281
1255.433, 344.6562
1256.509, 220.5000
1257.586, 259.3555
1258.662, 136.2227
1259.738, 262.1016
1260.814, 70.99609
1261.890, 127.9023
1262.966, 125.5664
1264.042, 344.7461
1265.117, 195.6875
1266.193, 37.35938
1267.268, 94.59766
1268.343, 346.5625
1269.418, 172.5391
1270.492, 247.5352
1271.567, 127.5586
1272.642, 266.5938
1273.716, 10.64453
1274.790, 229.7148
1275.864, 19.20312
1276.938, 2.882813
1278.012, 170.9609
1279.085, 177.0742
1280.159, 115.1992
1281.232, 122.6562
1282.305, 211.5000
1283.378, 15.93359
1284.451, 86.12109
1285.524, 25.32031
1286.597, 18.01562
1287.669, 76.23047
1288.741, 22.98828
1289.813, 179.2188
1290.885, 383.1562
1291.957, 403.8164
1293.029, 395.1406
1294.101, 426.4414
1295.172, 302.7539
1296.243, 165.0820
1297.315, 298.4297
1298.386, 185.7891
1299.456, 349.1719
1300.527, 136.5625
1301.598, 228.9727
1302.668, 376.3945
1303.738, 398.8359
1304.809, 25.28906
1305.879, 268.7578
1306.948, 297.2461
1308.018, 75.74609
1309.088, 346.2656
1310.157, 415.7969
1311.226, 306.3477
1312.296, 518.9219
1313.365, 259.5039
1314.433, 272.0703
1315.502, 166.6797
1316.571, 246.3047
1317.639, 541.9375
1318.707, 438.5625
1319.776, 544.2070
1320.844, 497.8203
1321.911, 107.4727
1322.979, 314.1953
1324.047, 203.8672
1325.114, 123.2188
1326.181, 559.9258
1327.249, 389.6445
1328.316, 185.5938
1329.382, 354.3359
1330.449, 371.0977
1331.516, 644.8750
1332.582, 199.6680
1333.648, 149.4727
1334.715, 245.2891
1335.781, 367.1250
1336.846, 305.9766
1337.912, 436.8398
1338.978, 232.7227
1340.043, 368.6133
1341.108, 516.5273
1342.174, 330.4531
1343.239, 217.3945
1344.303, 100.3555
1345.368, 335.3281
1346.433, 278.3164
1347.497, 301.2891
1348.561, 492.3516
1349.626, 250.3906
1350.690, 324.4492
1351.753, 172.5273
1352.817, 340.6211
1353.881, 235.9688
1354.944, 371.0938
1356.007, 467.2422
1357.071, 159.4062
1358.134, 340.5898
1359.196, 322.7891
1360.259, 43.00391
1361.322, 222.2539
1362.384, 347.5234
1363.447, 364.8125
1364.509, 598.1211
1365.571, 13.55469
1366.633, 360.5195
1367.694, 363.8711
1368.756, 109.2461
1369.817, 455.6680
1370.879, 198.1055
1371.940, 53.56250
1373.001, 357.0781
1374.062, 364.6133
1375.122, 240.1641
1376.183, 423.7422
1377.244, 250.3320
1378.304, 204.9453
1379.364, 441.5820
1380.424, 181.2344
1381.484, 335.9102
1382.544, 204.6094
1383.603, 256.3242
1384.663, 285.0625
1385.722, 471.8242
1386.781, 215.6055
1387.840, 223.4141
1388.899, 393.2422
1389.958, 259.0938
1391.017, 170.9688
1392.075, 252.8672
1393.134, 290.7930
1394.192, 336.1406
1395.250, 438.1133
1396.308, 245.1094
1397.365, 323.1250
1398.423, 253.1719
1399.481, 623.2383
1400.538, 309.3320
1401.595, 57.45703
1402.652, 369.6094
1403.709, 91.06250
1404.766, 261.2656
1405.823, 381.5430
1406.879, 316.8516
1407.936, 350.1836
1408.992, 162.2344
1410.048, 42.62891
1411.104, 86.08203
1412.160, 187.5664
1413.215, 207.3398
1414.271, 374.4141
1415.326, 188.0195
1416.382, 301.6484
1417.437, 44.31641
1418.492, 234.0273
1419.546, 45.21094
1420.601, 82.08594
1421.656, 225.4336
1422.710, 270.3242
1423.764, 462.2617
1424.819, 560.8594
1425.873, 138.4805
1426.926, 73.10938
1427.980, 128.7539
1429.034, 253.4141
1430.087, 181.0781
1431.140, 554.7383
1432.194, 296.3828
1433.247, 155.0508
1434.299, 166.7461
1435.352, 376.4688
1436.405, 289.2383
1437.457, 439.3359
1438.510, 429.5078
1439.562, 164.0781
1440.614, 431.2383
1441.666, 256.4297
1442.717, 238.6445
1443.769, 582.8867
1444.821, 201.8086
1445.872, 413.0742
1446.923, 238.3594
1447.974, 198.7539
1449.025, 210.1719
1450.076, 370.6250
1451.127, 304.1055
1452.177, 479.6133
1453.227, 501.1523
1454.278, 240.7188
1455.328, 94.31641
1456.378, 206.9453
1457.428, 251.6016
1458.477, 305.2930
1459.527, 405.0195
1460.576, 403.5000
1461.625, 268.5859
1462.675, 412.4219
1463.724, 508.2891
1464.772, 489.4766
1465.821, 283.8906
1466.870, 322.8633
1467.918, 292.8633
1468.966, 111.8984
1470.015, 241.9570
1471.063, 131.1172
1472.110, 149.2812
1473.158, 208.5391
1474.206, 213.8047
1475.253, 413.1016
1476.301, 519.4336
1477.348, 400.7969
1478.395, 150.1953
1479.442, 23.36719
1480.488, 289.1250
1481.535, 624.6484
1482.582, 197.2070
1483.628, 231.7969
1484.674, 147.4297
1485.720, 41.09766
1486.766, 313.8047
1487.812, 211.4648
1488.858, 108.1562
1489.903, 90.87500
1490.949, 358.6680
1491.994, 81.49219
1493.039, 134.7891
1494.084, 450.6367
1495.129, 317.5078
1496.173, 289.4141
1497.218, 447.3477
1498.262, 288.3164
1499.307, 229.3164
1500.351, 241.3516
1501.395, 286.4141
1502.439, 442.4961
1503.483, 187.6406
1504.526, 248.8477
1505.570, 251.2031
1506.613, 96.62109
1507.656, 238.1055
1508.699, 24.66406
1509.742, 163.2930
1510.785, 254.9883
1511.827, 596.7617
1512.870, 180.6055
1513.912, 528.5273
1514.955, 112.5273
1515.997, 511.6133
1517.039, 510.7852
1518.080, 318.0352
1519.122, 426.3711
1520.164, 68.79688
1521.205, 412.3086
1522.246, 61.87891
1523.288, 308.5508
1524.329, 275.3242
1525.369, 312.1953
1526.410, 507.1641
1527.451, 79.25000
1528.491, 362.4531
1529.531, 432.8320
1530.572, 135.3398
1531.612, 92.99609
1532.652, 131.8047
1533.691, 175.2227
1534.731, 279.9336
1535.770, 259.2656
1536.810, 153.7852
1537.849, 22.50391
1538.888, 112.4297
1539.927, 237.5781
1540.966, 111.9648
1542.005, 242.6016
1543.043, 478.5078
1544.082, 321.7734
1545.120, 220.3633
1546.158, 403.3086
1547.196, 394.6367
1548.234, 410.3906
1549.272, 337.0625
1550.309, 353.3086
1551.347, 339.8672
1552.384, 387.2617
1553.421, 422.5391
1554.458, 408.6758
1555.495, 470.7227
1556.532, 331.7227
1557.568, 180.3906
1558.605, 104.3008
1559.641, 194.9141
1560.678, 291.0703
1561.714, 53.44141
1562.750, 1.453125
1563.785, 0.0000000E+00
##END=



