##NAMES=Fluorapatite
##RRUFFID=R060184
##IDEAL CHEMISTRY=Ca_5_(PO_4_)_3_F
##LOCALITY=Yates mine, Otter Lake, Quebec, Canada
##OWNER=RRUFF
##SOURCE=Lloyd Twaites
##DESCRIPTION=Green colored fragment of a hexagonal prism
##STATUS=The identification of this mineral has been confirmed by X-ray diffraction and chemical analysis
##URL=rruff.info/R060184
##MEASURED CHEMISTRY=(Ca_0.99_Ce_0.01_)_5.00_((P_0.98_Si_0.01_S_0.01_)O_4_)_3_F_1.00_
##PIN_ID=M00532
##ORIENTATION=Laser parallel to -a* (-1 0 0). Fiducial mark perpendicular to laser is parallel to -c [0 0 -1]
170.5590, 0.0000000E+00
171.7860, 13.86646
173.0130, 41.34180
174.2400, 83.26587
175.4670, 98.76904
176.6930, 99.26782
177.9200, 20.75049
179.1460, 58.30151
180.3720, 42.87036
181.5980, 30.08618
182.8230, 100.7280
184.0490, 105.1748
185.2740, 62.30005
186.5000, 55.05518
187.7250, 19.62744
188.9500, 14.23657
190.1740, 31.07642
191.3990, 10.70483
192.6230, 10.57178
193.8480, 54.52466
195.0720, 32.58301
196.2960, 26.76001
197.5200, 70.07690
198.7430, 81.52710
199.9670, 161.0940
201.1900, 93.75024
202.4130, 73.46509
203.6360, 102.2114
204.8590, 149.9668
206.0820, 73.71265
207.3050, 72.43481
208.5270, 126.1277
209.7490, 136.7908
210.9710, 175.4399
212.1930, 181.1123
213.4150, 167.8328
214.6370, 173.6013
215.8580, 169.4011
217.0790, 156.3887
218.3010, 188.5647
219.5210, 173.8301
220.7420, 219.2683
221.9630, 234.9058
223.1830, 292.7876
224.4040, 289.7612
225.6240, 359.7095
226.8440, 372.6821
228.0640, 368.6509
229.2840, 411.5491
230.5030, 401.3225
231.7230, 395.9731
232.9420, 489.4788
234.1610, 461.8374
235.3800, 433.0552
236.5990, 372.1360
237.8170, 382.0840
239.0360, 389.9031
240.2540, 289.5974
241.4720, 364.1699
242.6900, 306.6238
243.9080, 286.9888
245.1250, 358.3394
246.3430, 393.6646
247.5600, 292.9531
248.7770, 309.1948
249.9940, 382.7302
251.2110, 402.4792
252.4280, 408.8494
253.6450, 435.8806
254.8610, 455.0945
256.0770, 566.0693
257.2930, 554.1616
258.5090, 725.7200
259.7250, 838.1060
260.9400, 818.5654
262.1560, 927.6284
263.3710, 1003.684
264.5860, 1105.015
265.8010, 1086.890
267.0160, 1106.938
268.2310, 1065.117
269.4450, 1044.692
270.6600, 802.6082
271.8740, 926.3589
273.0880, 884.5703
274.3020, 688.2686
275.5150, 739.9941
276.7290, 676.7371
277.9420, 534.9788
279.1550, 540.7805
280.3680, 474.6985
281.5810, 523.9199
282.7940, 445.2705
284.0070, 482.2139
285.2190, 380.3806
286.4310, 424.6211
287.6430, 407.2117
288.8550, 408.9419
290.0670, 365.5269
291.2790, 391.5679
292.4900, 441.9658
293.7020, 423.8904
294.9130, 521.6860
296.1240, 509.4399
297.3350, 464.1506
298.5450, 538.8174
299.7560, 520.4399
300.9660, 575.0181
302.1760, 586.5515
303.3860, 551.0405
304.5960, 584.4846
305.8060, 684.8853
307.0150, 669.2419
308.2250, 668.5552
309.4340, 650.8252
310.6430, 630.8506
311.8520, 602.8037
313.0610, 578.9338
314.2700, 529.4822
315.4780, 518.5425
316.6860, 483.7419
317.8940, 446.7764
319.1020, 364.6267
320.3100, 366.2817
321.5180, 338.7422
322.7250, 339.0249
323.9330, 308.4214
325.1400, 280.7905
326.3470, 248.5413
327.5540, 209.8115
328.7600, 181.4526
329.9670, 139.2458
331.1730, 217.7920
332.3800, 142.2603
333.5860, 123.6536
334.7920, 206.9448
335.9970, 89.69751
337.2030, 55.85352
338.4080, 68.29614
339.6140, 138.8069
340.8190, 139.9421
342.0240, 58.58813
343.2290, 59.21167
344.4330, 90.77515
345.6380, 85.36963
346.8420, 114.2439
348.0460, 78.26221
349.2500, 87.69946
350.4540, 87.45264
351.6580, 13.97412
352.8610, 15.54590
354.0650, 47.67480
355.2680, 12.51343
356.4710, 0.4187010
357.6740, 21.38306
358.8760, 38.76636
360.0790, 51.80151
361.2810, 29.69897
362.4840, 41.97705
363.6860, 37.25879
364.8880, 46.32910
366.0900, 3.564209
367.2910, 27.89893
368.4930, 56.14429
369.6940, 26.31396
370.8950, 43.44556
372.0960, 22.55884
373.2970, 69.73511
374.4980, 19.88574
375.6980, 12.53516
376.8980, 9.457031
378.0990, 34.89966
379.2990, 32.05029
380.4980, 57.74536
381.6980, 12.26782
382.8980, 68.52197
384.0970, 5.138916
385.2960, 77.11963
386.4950, 31.75439
387.6940, 13.72437
388.8930, 60.76318
390.0920, 4.013672
391.2900, 3.427002
392.4880, 8.305664
393.6860, 48.14258
394.8840, 7.537598
396.0820, 69.62695
397.2800, 0.1062010
398.4770, 83.11914
399.6750, 114.1089
400.8720, 23.87158
402.0690, 44.63696
403.2660, 183.9807
404.4620, 163.8406
405.6590, 198.6055
406.8550, 224.3113
408.0510, 158.7341
409.2480, 151.8296
410.4430, 130.9900
411.6390, 157.3931
412.8350, 243.2500
414.0300, 234.5469
415.2250, 307.3989
416.4200, 320.5742
417.6150, 384.4458
418.8100, 342.1919
420.0050, 398.7944
421.1990, 453.3511
422.3940, 486.0864
423.5880, 527.3511
424.7820, 610.7876
425.9750, 759.1802
427.1690, 830.5283
428.3630, 890.8330
429.5560, 943.0986
430.7490, 1016.330
431.9420, 1121.530
433.1350, 1177.703
434.3280, 1280.412
435.5200, 1425.967
436.7130, 1475.058
437.9050, 1598.124
439.0970, 1708.164
440.2890, 1828.182
441.4810, 1918.175
442.6720, 2148.144
443.8640, 2047.091
445.0550, 2138.013
446.2460, 2182.916
447.4370, 2088.799
448.6280, 2034.663
449.8180, 1859.502
451.0090, 1739.319
452.1990, 1596.113
453.3890, 1480.884
454.5790, 1238.631
455.7690, 1170.353
456.9590, 985.0513
458.1480, 877.7422
459.3380, 851.4102
460.5270, 759.0400
461.7160, 651.6348
462.9050, 582.1934
464.0940, 485.7173
465.2820, 407.2090
466.4700, 434.6689
467.6590, 397.0952
468.8470, 363.4873
470.0350, 264.8491
471.2220, 288.1465
472.4100, 340.2905
473.5970, 176.2246
474.7850, 224.4526
475.9720, 174.3296
477.1590, 177.1108
478.3460, 214.2051
479.5320, 192.7949
480.7190, 121.1831
481.9050, 178.6162
483.0910, 237.3096
484.2770, 97.97656
485.4630, 147.2539
486.6490, 165.4990
487.8340, 168.8628
489.0200, 88.17188
490.2050, 37.57812
491.3900, 0.2041020
492.5750, 101.0083
493.7600, 120.1812
494.9440, 97.78271
496.1290, 70.36768
497.3130, 22.45312
498.4970, 6.854492
499.6810, 36.88379
500.8650, 121.3604
502.0480, 0.9462890
503.2320, 12.59814
504.4150, 121.0220
505.5980, 19.51709
506.7810, 36.97852
507.9640, 98.44629
509.1460, 64.35693
510.3290, 8.444824
511.5110, 21.68848
512.6930, 74.82129
513.8750, 69.06006
515.0570, 7.905762
516.2390, 102.2363
517.4210, 0.4941410
518.6020, 42.17920
519.7830, 15.07812
520.9640, 51.12158
522.1450, 49.47266
523.3260, 9.553711
524.5060, 44.91211
525.6870, 62.14600
526.8670, 2.415039
528.0470, 92.38721
529.2270, 57.19678
530.4070, 53.23535
531.5870, 101.0171
532.7660, 52.12939
533.9450, 77.18066
535.1240, 22.49219
536.3030, 44.16406
537.4820, 69.46484
538.6610, 35.42529
539.8390, 34.36963
541.0180, 80.02490
542.1960, 124.7744
543.3740, 113.0859
544.5520, 208.3818
545.7290, 70.53809
546.9070, 83.42480
548.0840, 86.63623
549.2620, 135.7178
550.4390, 218.5435
551.6160, 176.4253
552.7920, 155.2227
553.9690, 177.1577
555.1450, 108.4546
556.3220, 198.4722
557.4980, 111.7822
558.6740, 164.7412
559.8490, 183.2036
561.0250, 201.4961
562.2000, 350.3770
563.3760, 358.4937
564.5510, 443.5356
565.7260, 369.8213
566.9010, 450.6812
568.0750, 554.4199
569.2500, 580.1299
570.4240, 711.0854
571.5980, 980.0732
572.7720, 1226.100
573.9460, 1343.271
575.1200, 1600.401
576.2930, 1909.392
577.4670, 2174.502
578.6400, 2629.479
579.8130, 3041.126
580.9860, 3039.220
582.1590, 2744.934
583.3310, 2256.915
584.5040, 1784.312
585.6760, 1536.017
586.8480, 1447.445
588.0200, 1279.444
589.1920, 1268.087
590.3630, 1168.712
591.5350, 1281.449
592.7060, 1159.307
593.8770, 1121.788
595.0480, 1080.512
596.2190, 1048.561
597.3900, 1214.069
598.5600, 1245.224
599.7310, 1400.623
600.9010, 1638.804
602.0710, 1619.149
603.2410, 1932.483
604.4100, 2120.742
605.5800, 2283.491
606.7490, 2391.871
607.9190, 2065.021
609.0880, 1957.755
610.2570, 1675.947
611.4250, 1468.378
612.5940, 1329.112
613.7620, 1295.210
614.9310, 1173.252
616.0990, 1065.739
617.2670, 998.0063
618.4340, 780.2373
619.6020, 698.8193
620.7690, 526.5225
621.9370, 423.0107
623.1040, 411.5386
624.2710, 397.8989
625.4380, 341.8765
626.6040, 445.1138
627.7710, 374.7920
628.9370, 452.9277
630.1030, 503.6572
631.2690, 608.1333
632.4350, 509.6782
633.6010, 571.6201
634.7660, 610.3809
635.9320, 633.5928
637.0970, 633.3882
638.2620, 684.5107
639.4270, 759.3887
640.5920, 827.2104
641.7560, 820.5029
642.9210, 900.7974
644.0850, 880.0493
645.2490, 944.1562
646.4130, 962.8110
647.5770, 1012.311
648.7400, 1065.104
649.9040, 1020.193
651.0670, 1061.916
652.2300, 973.5381
653.3930, 1014.873
654.5560, 916.2471
655.7190, 918.2393
656.8810, 950.0522
658.0440, 909.3120
659.2060, 802.3643
660.3680, 810.9111
661.5300, 706.1504
662.6910, 680.8818
663.8530, 640.5527
665.0140, 490.0820
666.1750, 490.2095
667.3360, 437.4316
668.4970, 268.7300
669.6580, 539.2471
670.8190, 427.9883
671.9790, 360.0913
673.1390, 255.0210
674.2990, 279.5464
675.4590, 189.8823
676.6190, 283.1831
677.7790, 149.0254
678.9380, 163.6299
680.0970, 280.4058
681.2570, 296.1348
682.4160, 180.0205
683.5740, 233.8291
684.7330, 165.9863
685.8920, 201.5552
687.0500, 152.5869
688.2080, 201.8291
689.3660, 189.8701
690.5240, 168.3257
691.6820, 160.3252
692.8390, 150.6221
693.9960, 142.7290
695.1540, 193.8916
696.3110, 140.8911
697.4680, 239.5728
698.6240, 99.69238
699.7810, 135.9736
700.9370, 323.8340
702.0940, 163.4653
703.2500, 174.0581
704.4060, 108.6147
705.5610, 203.1958
706.7170, 257.0615
707.8720, 261.5078
709.0280, 158.9204
710.1830, 148.9146
711.3380, 132.2520
712.4920, 90.61084
713.6470, 93.12744
714.8020, 119.3472
715.9560, 83.52686
717.1100, 107.6680
718.2640, 178.7690
719.4180, 73.83350
720.5720, 147.8564
721.7250, 79.84277
722.8780, 30.78760
724.0320, 127.6904
725.1850, 23.55371
726.3380, 6.628906
727.4900, 5.140625
728.6430, 115.8604
729.7950, 82.54199
730.9470, 64.18457
732.1000, 126.7852
733.2510, 72.34863
734.4030, 217.8701
735.5550, 96.35840
736.7060, 45.19434
737.8570, 106.1826
739.0090, 150.5205
740.1600, 104.4199
741.3100, 98.68164
742.4610, 108.9062
743.6110, 38.09082
744.7620, 74.23242
745.9120, 110.5498
747.0620, 201.6123
748.2120, 84.64258
749.3610, 54.35938
750.5110, 183.7695
751.6600, 88.68066
752.8090, 67.27344
753.9580, 276.1221
755.1070, 36.07910
756.2560, 210.6504
757.4050, 157.3389
758.5530, 108.7305
759.7010, 90.35059
760.8490, 120.9336
761.9970, 45.47754
763.1450, 29.97949
764.2920, 143.6523
765.4400, 9.775391
766.5870, 37.58789
767.7340, 28.32812
768.8810, 45.92383
770.0280, 105.8857
771.1740, 149.0605
772.3210, 54.25977
773.4670, 90.35547
774.6130, 130.4131
775.7590, 49.43359
776.9050, 66.41797
778.0510, 92.60254
779.1960, 79.51074
780.3420, 123.3604
781.4870, 150.1943
782.6320, 30.99414
783.7770, 87.47852
784.9210, 39.19531
786.0660, 115.8828
787.2100, 69.52441
788.3540, 86.87305
789.4980, 84.62891
790.6420, 176.0938
791.7860, 9.523438
792.9300, 99.90137
794.0730, 28.75488
795.2160, 91.51758
796.3590, 185.7529
797.5020, 41.95410
798.6450, 43.11719
799.7880, 72.23633
800.9300, 58.31641
802.0720, 76.35840
803.2150, 9.370117
804.3560, 73.33008
805.4980, 89.25391
806.6400, 74.16406
807.7810, 51.96387
808.9230, 9.825195
810.0640, 140.5635
811.2050, 16.73242
812.3460, 178.9082
813.4860, 96.40527
814.6270, 8.980469
815.7670, 162.2168
816.9070, 112.4824
818.0470, 165.9443
819.1870, 185.7930
820.3270, 170.6133
821.4670, 183.9775
822.6060, 152.7480
823.7450, 23.33691
824.8840, 57.32324
826.0230, 83.47949
827.1620, 16.44922
828.3010, 103.4580
829.4390, 2.699219
830.5770, 76.04004
831.7150, 49.71289
832.8530, 13.43750
833.9910, 46.87695
835.1290, 56.95020
836.2660, 12.21289
837.4030, 78.57910
838.5410, 142.3008
839.6780, 141.7256
840.8140, 212.1641
841.9510, 96.30176
843.0870, 57.80371
844.2240, 127.3711
845.3600, 120.9092
846.4960, 7.858398
847.6320, 212.2793
848.7680, 81.31934
849.9030, 58.15723
851.0380, 300.9746
852.1740, 256.8750
853.3090, 305.5986
854.4440, 336.3975
855.5780, 235.4668
856.7130, 299.0342
857.8470, 282.9229
858.9820, 122.4893
860.1160, 185.5811
861.2500, 144.4307
862.3830, 212.2588
863.5170, 166.5791
864.6500, 224.2002
865.7840, 254.7822
866.9170, 227.1963
868.0500, 157.4336
869.1830, 200.2627
870.3150, 130.2529
871.4480, 232.1338
872.5800, 161.4980
873.7120, 162.1621
874.8440, 293.5264
875.9760, 17.05371
877.1080, 55.36035
878.2390, 105.6230
879.3710, 109.9072
880.5020, 128.5176
881.6330, 29.70508
882.7640, 92.93652
883.8940, 94.53027
885.0250, 8.385742
886.1550, 4.603516
887.2850, 92.81738
888.4160, 121.1758
889.5450, 41.49512
890.6750, 122.8740
891.8050, 69.21387
892.9340, 0.5507810
894.0630, 61.36133
895.1930, 58.44629
896.3220, 140.1201
897.4500, 66.95020
898.5790, 80.14453
899.7070, 55.91016
900.8360, 22.91797
901.9640, 146.3330
903.0920, 114.7402
904.2200, 53.17383
905.3470, 100.9658
906.4750, 115.4141
907.6020, 23.00488
908.7290, 60.80957
909.8560, 101.0293
910.9830, 132.5107
912.1100, 110.2041
913.2360, 10.13477
914.3630, 67.33594
915.4890, 110.5908
916.6150, 142.7207
917.7410, 104.1377
918.8670, 2.758789
919.9920, 37.22949
921.1180, 20.47168
922.2430, 69.69238
923.3680, 34.43945
924.4930, 110.8506
925.6180, 145.7803
926.7420, 206.2451
927.8670, 165.6064
928.9910, 121.6777
930.1150, 200.7051
931.2390, 223.7061
932.3630, 344.2119
933.4860, 403.4951
934.6100, 331.8037
935.7330, 382.5967
936.8560, 405.1836
937.9790, 571.0342
939.1020, 694.3857
940.2250, 937.2051
941.3470, 1050.223
942.4700, 1198.064
943.5920, 1440.643
944.7140, 1640.026
945.8360, 2120.348
946.9570, 2344.151
948.0790, 2929.604
949.2000, 3471.724
950.3220, 4245.097
951.4430, 5183.531
952.5640, 6664.763
953.6840, 8575.201
954.8050, 11155.23
955.9250, 14023.07
957.0460, 17981.50
958.1660, 22283.93
959.2860, 27317.91
960.4050, 32491.66
961.5250, 37973.79
962.6440, 42762.75
963.7640, 45864.02
964.8830, 45338.87
966.0020, 40016.99
967.1210, 33229.71
968.2390, 25725.26
969.3580, 19240.41
970.4760, 14007.29
971.5940, 10584.08
972.7120, 7857.393
973.8300, 5855.840
974.9480, 4218.291
976.0650, 3344.748
977.1830, 2687.146
978.3000, 1910.271
979.4170, 1582.741
980.5340, 1300.218
981.6500, 829.6113
982.7670, 820.1016
983.8830, 713.5381
985.0000, 657.7852
986.1160, 414.3027
987.2320, 236.8291
988.3470, 306.3652
989.4630, 327.9102
990.5780, 267.4609
991.6940, 143.0225
992.8090, 299.5928
993.9240, 212.1738
995.0380, 258.7676
996.1530, 208.3711
997.2680, 125.9863
998.3820, 193.6191
999.4960, 206.2676
1000.610, 286.9277
1001.724, 309.5986
1002.837, 380.2832
1003.951, 646.9785
1005.064, 504.6875
1006.177, 735.4072
1007.291, 895.1396
1008.403, 914.9111
1009.516, 882.7031
1010.629, 780.9082
1011.741, 557.7412
1012.853, 582.5879
1013.965, 376.4697
1015.077, 456.3496
1016.189, 478.0303
1017.300, 639.9414
1018.412, 517.8652
1019.523, 607.0781
1020.634, 622.5742
1021.745, 622.5469
1022.856, 679.8467
1023.966, 694.8711
1025.077, 851.9434
1026.187, 973.0566
1027.297, 1188.192
1028.407, 1011.606
1029.517, 1204.772
1030.627, 1248.957
1031.736, 1224.162
1032.845, 1412.389
1033.955, 1302.745
1035.064, 1436.544
1036.172, 1198.849
1037.281, 1206.410
1038.390, 1194.774
1039.498, 1001.419
1040.606, 983.8359
1041.714, 962.2158
1042.822, 805.6807
1043.930, 771.1699
1045.037, 604.6826
1046.145, 662.2207
1047.252, 634.5469
1048.359, 706.1348
1049.466, 561.7705
1050.573, 743.4092
1051.679, 872.0732
1052.786, 673.0352
1053.892, 837.7559
1054.998, 833.4980
1056.104, 907.2734
1057.210, 979.0771
1058.315, 1046.940
1059.421, 1057.251
1060.526, 1174.747
1061.631, 1073.698
1062.736, 1077.676
1063.841, 1119.699
1064.946, 1058.896
1066.050, 982.9736
1067.154, 987.0820
1068.258, 1144.222
1069.362, 1302.392
1070.466, 1429.592
1071.570, 1499.602
1072.674, 1517.147
1073.777, 1529.383
1074.880, 1436.861
1075.983, 1299.217
1077.086, 1196.624
1078.189, 1174.068
1079.291, 1086.541
1080.394, 753.0576
1081.496, 686.6016
1082.598, 621.1768
1083.700, 321.7881
1084.802, 673.4287
1085.903, 519.0996
1087.005, 344.7988
1088.106, 240.5283
1089.207, 195.2861
1090.308, 200.0723
1091.409, 206.8887
1092.509, 153.7412
1093.610, 202.6270
1094.710, 174.5430
1095.810, 106.5059
1096.910, 115.4990
1098.010, 85.53320
1099.110, 179.6006
1100.209, 20.29785
1101.309, 241.8467
1102.408, 42.95508
1103.507, 7.267578
1104.606, 45.46973
1105.704, 104.8145
1106.803, 59.12891
1107.901, 16.47656
1108.999, 152.8545
1110.097, 44.73438
1111.195, 64.83203
1112.293, 117.2988
1113.391, 57.68555
1114.488, 109.8438
1115.585, 283.4043
1116.682, 207.0000
1117.779, 316.8145
1118.876, 238.4766
1119.973, 262.1699
1121.069, 218.8984
1122.165, 200.6562
1123.261, 327.4512
1124.357, 136.2773
1125.453, 318.1367
1126.549, 266.0293
1127.644, 319.9570
1128.739, 223.9160
1129.835, 256.9102
1130.930, 188.9375
1132.024, 243.0000
1133.119, 242.0957
1134.214, 176.2246
1135.308, 19.38867
1136.402, 192.5859
1137.496, 277.8203
1138.590, 118.0957
1139.684, 122.6016
1140.777, 71.22656
1141.871, 203.5957
1142.964, 244.6719
1144.057, 64.11523
1145.150, 0.2636720
1146.243, 309.2461
1147.335, 107.7910
1148.428, 342.3711
1149.520, 141.9863
1150.612, 245.6348
1151.704, 160.3281
1152.796, 177.0625
1153.887, 216.0742
1154.979, 118.2871
1156.070, 69.86523
1157.161, 9.230469
1158.252, 180.1758
1159.343, 255.1582
1160.433, 139.4551
1161.524, 333.5273
1162.614, 48.63477
1163.704, 180.7793
1164.794, 329.9570
1165.884, 211.1895
1166.974, 111.1406
1168.063, 177.4414
1169.153, 90.81250
1170.242, 109.6797
1171.331, 126.1504
1172.420, 185.6523
1173.508, 159.1934
1174.597, 315.7676
1175.685, 147.3750
1176.774, 84.01758
1177.862, 47.69727
1178.950, 156.4102
1180.037, 161.3340
1181.125, 142.1484
1182.212, 124.9980
1183.300, 194.8789
1184.387, 165.8066
1185.474, 44.77539
1186.560, 276.7773
1187.647, 88.81641
1188.733, 88.89062
1189.820, 98.00000
1190.906, 311.1445
1191.992, 185.3223
1193.078, 19.53516
1194.163, 95.78711
1195.249, 99.92773
1196.334, 187.3555
1197.419, 92.67773
1198.504, 64.23047
1199.589, 154.6191
1200.674, 270.0430
1201.758, 31.50000
1202.843, 191.9922
1203.927, 17.51953
1205.011, 2.917969
1206.095, 145.6738
1207.179, 77.30078
1208.262, 271.9629
1209.345, 185.6602
1210.429, 121.3906
1211.512, 88.15234
1212.595, 258.9512
1213.677, 78.78320
1214.760, 191.6504
1215.842, 239.5488
1216.925, 45.48242
1218.007, 147.4492
1219.089, 111.2305
1220.171, 254.4863
1221.252, 120.5547
1222.334, 212.6582
1223.415, 189.7930
1224.496, 121.9629
1225.577, 81.16406
1226.658, 232.4023
1227.738, 310.6738
1228.819, 272.9785
1229.899, 298.3164
1230.979, 229.2148
1232.060, 188.1309
1233.139, 132.5957
1234.219, 49.06445
1235.299, 174.5098
1236.378, 50.04492
1237.457, 143.6152
1238.536, 95.21875
1239.615, 70.85352
1240.694, 0.5195310
1241.772, 249.1816
1242.851, 11.08594
1243.929, 216.1445
1245.007, 105.9395
1246.085, 108.7695
1247.163, 28.36719
1248.240, 44.51953
1249.318, 217.4355
1250.395, 78.39258
1251.472, 120.3750
1252.549, 114.3926
1253.626, 23.44141
1254.703, 204.5215
1255.779, 243.6348
1256.855, 161.7812
1257.931, 187.9590
1259.007, 64.17188
1260.083, 158.4141
1261.159, 156.6895
1262.234, 24.99805
1263.310, 439.3379
1264.385, 47.70898
1265.460, 140.2969
1266.535, 232.7324
1267.610, 6.203125
1268.684, 49.29688
1269.758, 27.78516
1270.833, 220.7480
1271.907, 80.68750
1272.981, 146.8789
1274.054, 1.474609
1275.128, 110.0840
1276.201, 129.7441
1277.275, 137.4316
1278.348, 157.1523
1279.421, 82.90430
1280.493, 139.6895
1281.566, 103.5039
1282.638, 152.6465
1283.711, 3.832031
1284.783, 79.98633
1285.855, 30.14258
1286.927, 125.7168
1287.998, 28.60742
1289.070, 0.4707030
1290.141, 249.4805
1291.212, 125.4629
1292.283, 42.47656
1293.354, 97.52148
1294.425, 271.5957
1295.495, 11.30078
1296.566, 176.8281
1297.636, 278.2129
1298.706, 29.59570
1299.776, 257.6133
1300.845, 197.8535
1301.915, 88.12305
1302.984, 166.4219
1304.054, 107.7539
1305.123, 120.1172
1306.191, 243.5098
1307.260, 265.9336
1308.329, 2.386719
1309.397, 238.8711
1310.465, 172.3945
1311.534, 275.9473
1312.602, 335.0957
1313.669, 354.7559
1314.737, 155.3984
1315.804, 109.0703
1316.872, 143.7676
1317.939, 91.53711
1319.006, 269.2852
1320.073, 83.05469
1321.139, 342.8516
1322.206, 220.3125
1323.272, 154.1602
1324.338, 33.24219
1325.404, 287.1387
1326.470, 2.060547
1327.536, 182.0078
1328.601, 308.9785
1329.667, 216.9766
1330.732, 273.9980
1331.797, 257.0449
1332.862, 277.1172
1333.926, 310.0625
1334.991, 211.1855
1336.055, 370.3359
1337.120, 180.5078
1338.184, 255.7051
1339.248, 194.9277
1340.311, 383.1738
1341.375, 161.4414
1342.438, 211.7383
1343.502, 317.0586
1344.565, 328.4043
1345.628, 179.7734
1346.691, 223.1699
1347.753, 186.5918
1348.816, 189.0352
1349.878, 224.5078
1350.940, 108.0020
1352.002, 277.5234
1353.064, 35.06836
1354.126, 187.6387
1355.187, 183.2324
1356.248, 169.8496
1357.310, 50.49023
1358.371, 1.843750
1359.431, 212.8477
1360.492, 13.56250
1361.553, 264.3105
1362.613, 259.0820
1363.673, 163.8828
1364.733, 115.7109
1365.793, 101.5605
1366.853, 200.4375
1367.912, 220.3398
1368.972, 174.1426
1370.031, 236.1035
1371.090, 178.5703
1372.149, 193.4805
1373.208, 188.4668
1374.267, 151.6230
1375.325, 147.5273
1376.383, 142.6270
1377.441, 9.785156
1378.499, 162.9297
1379.557, 203.0996
1380.615, 255.2910
1381.672, 81.50781
1382.730, 134.9551
1383.787, 148.0000
1384.844, 37.28125
1385.901, 188.5898
1386.957, 56.91992
1388.014, 155.2793
1389.070, 177.6602
1390.126, 95.06641
1391.182, 243.5000
1392.238, 1.957031
1393.294, 150.4414
1394.349, 49.94922
1395.405, 198.4727
1396.460, 156.8301
1397.515, 154.1250
1398.570, 219.7383
1399.625, 26.70898
1400.679, 172.3770
1401.734, 189.9238
1402.788, 200.6445
1403.842, 328.3945
1404.896, 177.1699
1405.950, 395.9746
1407.003, 39.80664
1408.057, 148.6484
1409.110, 177.5195
1410.163, 195.1777
1411.216, 403.7324
1412.269, 72.98438
1413.322, 18.51953
1414.374, 52.53711
1415.427, 133.5859
1416.479, 159.4121
1417.531, 183.2695
1418.583, 317.7148
1419.634, 215.8926
1420.686, 217.1016
1421.737, 251.3477
1422.788, 108.9414
1423.839, 7.744141
1424.890, 182.6055
1425.941, 450.5293
1426.992, 219.9551
1428.042, 211.4219
1429.092, 8.933594
1430.142, 70.48242
1431.192, 336.0742
1432.242, 141.7148
1433.291, 195.4043
1434.341, 239.1465
1435.390, 203.9199
1436.439, 232.7676
1437.488, 331.6797
1438.537, 17.08789
1439.586, 50.46484
1440.634, 137.8594
1441.682, 50.92969
1442.731, 194.7129
1443.779, 2.470703
1444.826, 315.3770
1445.874, 293.2480
1446.922, 300.1855
1447.969, 19.05664
1449.016, 189.9395
1450.063, 12.03516
1451.110, 3.025391
1452.157, 319.1172
1453.203, 26.23828
1454.250, 65.38867
1455.296, 298.5723
1456.342, 294.7852
1457.388, 157.0293
1458.433, 14.29883
1459.479, 181.6016
1460.524, 84.93359
1461.570, 251.2949
1462.615, 87.68555
1463.660, 215.6797
1464.705, 215.1250
1465.749, 171.5996
1466.794, 416.1016
1467.838, 209.6328
1468.882, 22.19336
1469.926, 101.7812
1470.970, 75.39453
1472.013, 31.04492
1473.057, 230.7188
1474.100, 130.4258
1475.143, 282.1621
1476.186, 23.92188
1477.229, 119.7090
1478.272, 117.5254
1479.314, 75.36328
1480.357, 195.9668
1481.399, 152.8555
1482.441, 169.8086
1483.483, 153.8184
1484.525, 51.88086
1485.566, 207.9688
1486.608, 21.08398
1487.649, 130.2246
1488.690, 140.4414
1489.731, 93.76562
1490.771, 31.16406
1491.812, 68.59375
1492.853, 61.05273
1493.893, 298.5391
1494.933, 141.0547
1495.973, 222.2109
1497.013, 25.20117
1498.052, 2.587891
1499.092, 134.0469
1500.131, 37.70117
1501.170, 53.37500
1502.209, 51.02734
1503.248, 32.54102
1504.287, 143.1445
1505.325, 11.69531
1506.363, 110.3965
1507.402, 20.79492
1508.440, 7.806641
1509.478, 84.73828
1510.515, 63.50000
1511.553, 211.4238
1512.590, 229.3984
1513.627, 287.4219
1514.664, 254.5000
1515.701, 271.6406
1516.738, 200.8398
1517.775, 206.0918
1518.811, 288.4004
1519.847, 259.8691
1520.883, 76.19531
1521.919, 216.6816
1522.955, 225.2324
1523.991, 19.85547
1525.026, 136.5430
1526.061, 219.2949
1527.096, 134.1133
1528.131, 176.9961
1529.166, 283.9375
1530.201, 165.9414
1531.235, 157.0176
1532.270, 96.73242
1533.304, 213.8418
1534.338, 20.01953
1535.372, 247.4551
1536.405, 257.9922
1537.439, 114.7012
1538.472, 255.5332
1539.505, 80.48438
1540.538, 170.5566
1541.571, 4.248047
1542.604, 370.0781
1543.637, 254.5469
1544.669, 237.1621
1545.701, 198.9336
1546.733, 183.3906
1547.765, 190.9844
1548.797, 220.2949
1549.829, 181.0605
1550.860, 233.1074
1551.891, 209.4453
1552.922, 197.0938
1553.953, 129.5996
1554.984, 211.9434
1556.015, 185.7305
1557.045, 195.0352
1558.076, 97.93945
1559.106, 59.49023
1560.136, 7.138672
1561.165, 159.2578
1562.195, 79.86133
1563.225, 84.26172
1564.254, 98.98828
1565.283, 0.0000000E+00
##END=



