##NAMES=Fluorapatite
##RRUFFID=R050274
##IDEAL CHEMISTRY=Ca_5_(PO_4_)_3_F
##LOCALITY=Minas Gerais, Brazil
##OWNER=RRUFF
##SOURCE=Marcus Origlieri
##DESCRIPTION=Aggregate of blue crystal fragments separated by veins of quartz
##STATUS=The identification of this mineral has been confirmed by X-ray diffraction and chemical analysis
##URL=rruff.info/R050274
##MEASURED CHEMISTRY=Ca_5.00_((P_0.97_Si_0.02_S_0.01_)O_4_)_3_(F_0.90_Cl_0.10_)
##PIN_ID=L01565
##ORIENTATION=Laser parallel to -a* (-1 0 0). Fiducial mark perpendicular to laser is parallel to -c [0 0 -1]
118.1340, 0.0000000E+00
119.3650, 31.49121
120.5960, 17.65332
121.8270, 2.643066
123.0580, 15.13086
124.2880, 3.173340
125.5190, 117.4526
126.7490, 229.3555
127.9790, 275.0942
129.2090, 269.3418
130.4390, 325.8467
131.6680, 275.4121
132.8980, 385.8882
134.1270, 338.1636
135.3560, 346.1553
136.5850, 341.7778
137.8140, 320.9629
139.0430, 421.6465
140.2710, 268.7725
141.5000, 249.2896
142.7280, 349.1548
143.9560, 296.3345
145.1840, 318.2759
146.4120, 280.5576
147.6390, 321.5864
148.8670, 278.8848
150.0940, 304.4331
151.3210, 297.2939
152.5490, 285.2881
153.7750, 282.4902
155.0020, 280.8760
156.2290, 284.4209
157.4550, 198.1016
158.6810, 251.8999
159.9080, 270.8008
161.1340, 229.7900
162.3590, 274.8584
163.5850, 260.5718
164.8110, 268.1895
166.0360, 256.4360
167.2610, 285.7466
168.4860, 273.1387
169.7110, 223.6045
170.9360, 241.2368
172.1610, 217.9482
173.3850, 326.7588
174.6100, 339.6924
175.8340, 173.9443
177.0580, 285.4180
178.2820, 223.9219
179.5050, 226.5166
180.7290, 338.1602
181.9520, 315.8369
183.1760, 275.5664
184.3990, 2.692383
185.6220, 140.2568
186.8450, 143.2979
188.0670, 85.34277
189.2900, 268.3818
190.5120, 209.3955
191.7340, 254.3564
192.9560, 175.2422
194.1780, 320.0635
195.4000, 244.8223
196.6220, 215.5254
197.8430, 203.1807
199.0640, 347.7910
200.2860, 330.3574
201.5070, 413.8838
202.7270, 398.3711
203.9480, 276.8223
205.1690, 292.2363
206.3890, 421.6162
207.6090, 312.9600
208.8290, 262.2695
210.0490, 215.5449
211.2690, 139.7852
212.4890, 218.9922
213.7080, 361.1641
214.9280, 157.0732
216.1470, 249.1699
217.3660, 88.59082
218.5850, 206.2744
219.8030, 267.6621
221.0220, 223.7812
222.2400, 382.8320
223.4590, 270.1719
224.6770, 193.3984
225.8950, 307.8545
227.1120, 176.9111
228.3300, 275.6875
229.5480, 158.0488
230.7650, 372.4395
231.9820, 264.3770
233.1990, 211.0684
234.4160, 240.7891
235.6330, 276.4434
236.8490, 220.6113
238.0660, 192.1660
239.2820, 242.2686
240.4980, 166.2441
241.7140, 80.79785
242.9300, 116.8545
244.1460, 166.7051
245.3610, 168.6143
246.5770, 160.6523
247.7920, 94.38184
249.0070, 208.2783
250.2220, 140.7471
251.4370, 196.9756
252.6510, 243.3232
253.8660, 210.2207
255.0800, 194.6064
256.2940, 138.5166
257.5080, 184.8398
258.7220, 214.9443
259.9360, 330.7295
261.1490, 321.4824
262.3630, 285.8594
263.5760, 279.1875
264.7890, 249.1318
266.0020, 281.7002
267.2150, 349.8135
268.4270, 395.7188
269.6400, 394.8965
270.8520, 429.1748
272.0640, 383.4639
273.2760, 399.5078
274.4880, 396.5918
275.7000, 381.2373
276.9120, 378.5371
278.1230, 343.0039
279.3340, 330.1758
280.5450, 253.3555
281.7560, 178.5400
282.9670, 231.7256
284.1780, 288.9092
285.3880, 348.0879
286.5980, 347.9082
287.8090, 364.4199
289.0190, 310.5693
290.2290, 349.7051
291.4380, 277.8271
292.6480, 210.9307
293.8570, 157.0166
295.0670, 229.0830
296.2760, 246.1289
297.4850, 215.1514
298.6930, 359.1484
299.9020, 279.1211
301.1110, 271.0684
302.3190, 214.9883
303.5270, 248.8789
304.7350, 151.7412
305.9430, 306.5732
307.1510, 179.3740
308.3580, 201.1445
309.5660, 69.88281
310.7730, 66.58691
311.9800, 222.5381
313.1870, 174.1748
314.3940, 206.7773
315.6010, 7.655273
316.8070, 240.8721
318.0130, 35.36133
319.2200, 82.81250
320.4260, 148.4365
321.6310, 53.74902
322.8370, 9.071289
324.0430, 34.75098
325.2480, 73.66406
326.4540, 60.82520
327.6590, 12.91504
328.8640, 68.33984
330.0680, 27.68848
331.2730, 124.4648
332.4780, 3.350586
333.6820, 92.39160
334.8860, 36.12012
336.0900, 118.7793
337.2940, 31.32715
338.4980, 49.38086
339.7010, 8.955078
340.9050, 68.86328
342.1080, 22.04297
343.3110, 32.75195
344.5140, 16.94824
345.7170, 58.39453
346.9200, 123.4873
348.1220, 6.645508
349.3240, 56.85254
350.5270, 156.8506
351.7290, 62.60938
352.9310, 77.81152
354.1320, 42.47656
355.3340, 74.85938
356.5350, 10.50781
357.7370, 20.22461
358.9380, 121.6875
360.1390, 68.16699
361.3400, 155.8242
362.5400, 238.7100
363.7410, 191.0488
364.9410, 71.53906
366.1410, 50.92578
367.3410, 43.53027
368.5410, 116.0469
369.7410, 9.7699999E-04
370.9400, 22.82910
372.1400, 7.986328
373.3390, 110.0430
374.5380, 130.6680
375.7370, 109.5859
376.9360, 124.8369
378.1350, 78.61426
379.3330, 33.89844
380.5310, 75.18652
381.7300, 46.73340
382.9280, 71.44043
384.1260, 68.14453
385.3230, 27.09277
386.5210, 69.21387
387.7180, 79.05273
388.9160, 133.2412
390.1130, 180.5576
391.3100, 110.5107
392.5060, 102.8135
393.7030, 147.6279
394.9000, 25.05273
396.0960, 228.9521
397.2920, 176.8164
398.4880, 219.1738
399.6840, 59.64453
400.8800, 221.2559
402.0750, 239.4346
403.2710, 119.2051
404.4660, 182.5684
405.6610, 165.6699
406.8560, 428.9346
408.0510, 222.3242
409.2450, 364.2236
410.4400, 268.8838
411.6340, 332.7119
412.8280, 537.0205
414.0220, 542.1846
415.2160, 801.8203
416.4100, 755.4961
417.6030, 891.9131
418.7970, 980.0879
419.9900, 1186.071
421.1830, 1298.697
422.3760, 1434.209
423.5690, 1497.459
424.7610, 1625.613
425.9540, 1768.693
427.1460, 1622.471
428.3380, 1736.179
429.5300, 1471.819
430.7220, 1643.394
431.9140, 1458.900
433.1050, 1301.341
434.2970, 1414.714
435.4880, 1137.020
436.6790, 1192.259
437.8700, 1042.431
439.0610, 987.5381
440.2510, 1080.574
441.4420, 947.5439
442.6320, 864.4443
443.8220, 975.2773
445.0120, 842.0410
446.2020, 847.7354
447.3910, 705.3623
448.5810, 776.9189
449.7700, 685.4082
450.9600, 652.8281
452.1490, 548.1797
453.3370, 460.2168
454.5260, 360.1602
455.7150, 472.3008
456.9030, 511.3730
458.0910, 484.3760
459.2800, 546.3096
460.4670, 527.2441
461.6550, 512.5723
462.8430, 383.0166
464.0300, 209.6533
465.2180, 231.8066
466.4050, 187.1895
467.5920, 151.0146
468.7790, 201.9834
469.9650, 208.8096
471.1520, 122.3457
472.3380, 124.0225
473.5250, 252.4385
474.7110, 144.1738
475.8970, 238.0156
477.0820, 230.4375
478.2680, 235.5479
479.4540, 169.9561
480.6390, 198.8828
481.8240, 197.7832
483.0090, 66.27148
484.1940, 29.88672
485.3780, 27.52441
486.5630, 52.50586
487.7470, 136.0840
488.9320, 87.26074
490.1160, 213.2207
491.3000, 183.4170
492.4830, 50.58398
493.6670, 68.94434
494.8500, 148.8418
496.0340, 68.10840
497.2170, 95.58105
498.4000, 246.0430
499.5820, 47.74707
500.7650, 67.46973
501.9480, 21.98047
503.1300, 103.5156
504.3120, 115.3945
505.4940, 233.4580
506.6760, 184.8623
507.8580, 194.2305
509.0390, 124.6787
510.2210, 131.3525
511.4020, 24.40820
512.5830, 71.87598
513.7640, 28.90137
514.9450, 62.50977
516.1250, 25.14746
517.3060, 4.006836
518.4860, 40.69922
519.6660, 38.63379
520.8460, 60.28516
522.0260, 51.73730
523.2060, 68.20117
524.3850, 232.0791
525.5650, 158.3662
526.7440, 212.0469
527.9230, 129.6777
529.1020, 67.69336
530.2810, 200.7051
531.4590, 68.20020
532.6380, 8.703125
533.8160, 192.6592
534.9940, 76.92578
536.1720, 66.39746
537.3500, 83.14941
538.5270, 69.80469
539.7050, 9.165039
540.8820, 124.6162
542.0590, 2.919922
543.2360, 157.3701
544.4130, 239.0527
545.5900, 3.759766
546.7660, 126.7715
547.9430, 71.13281
549.1190, 47.29688
550.2950, 128.6191
551.4710, 3.971680
552.6470, 115.0391
553.8220, 25.10449
554.9980, 243.2979
556.1730, 115.4277
557.3480, 7.508789
558.5230, 136.6523
559.6980, 178.5684
560.8730, 208.6963
562.0470, 278.5254
563.2220, 289.8467
564.3960, 336.4756
565.5700, 343.0938
566.7440, 344.6543
567.9170, 400.1553
569.0910, 442.7266
570.2640, 525.8945
571.4380, 612.6523
572.6110, 711.8789
573.7840, 845.1016
574.9570, 911.4629
576.1290, 1081.574
577.3020, 1048.631
578.4740, 1143.156
579.6460, 1158.324
580.8180, 1142.215
581.9900, 1014.049
583.1620, 1346.832
584.3330, 1170.559
585.5040, 1288.289
586.6760, 1260.902
587.8470, 1063.467
589.0180, 1039.973
590.1880, 1051.535
591.3590, 968.3125
592.5290, 878.6543
593.7000, 655.9434
594.8700, 710.3203
596.0400, 735.2246
597.2090, 445.5938
598.3790, 505.6699
599.5490, 597.6992
600.7180, 534.0918
601.8870, 589.0215
603.0560, 606.9043
604.2250, 502.5547
605.3940, 565.7598
606.5620, 715.6797
607.7300, 465.4004
608.8990, 639.9375
610.0670, 638.6348
611.2350, 439.3066
612.4020, 559.5469
613.5700, 484.7500
614.7370, 380.8105
615.9050, 571.0020
617.0720, 470.6387
618.2390, 369.0957
619.4060, 119.8613
620.5720, 330.3242
621.7390, 367.5059
622.9050, 361.9648
624.0710, 254.9102
625.2370, 305.5449
626.4030, 324.8516
627.5690, 237.5645
628.7340, 262.2363
629.9000, 264.6758
631.0650, 208.6973
632.2300, 292.5488
633.3950, 322.5137
634.5600, 315.8789
635.7240, 221.3906
636.8890, 235.4453
638.0530, 243.7188
639.2170, 180.1152
640.3810, 193.2031
641.5450, 334.1719
642.7080, 172.0625
643.8720, 234.5215
645.0350, 252.2695
646.1980, 469.9473
647.3610, 317.5000
648.5240, 281.7383
649.6870, 307.8301
650.8490, 224.8770
652.0120, 248.7344
653.1740, 124.9043
654.3360, 237.3926
655.4980, 283.5469
656.6600, 472.6055
657.8210, 144.8926
658.9830, 393.5020
660.1440, 322.9277
661.3050, 264.8496
662.4660, 409.7324
663.6270, 268.0957
664.7870, 376.6875
665.9480, 188.0137
667.1080, 323.9883
668.2680, 171.6035
669.4280, 295.9395
670.5880, 297.8125
671.7480, 181.6309
672.9070, 325.4805
674.0670, 231.1602
675.2260, 372.1055
676.3850, 325.0957
677.5440, 321.1152
678.7030, 420.1465
679.8610, 348.1934
681.0200, 331.1172
682.1780, 297.1289
683.3360, 186.3750
684.4940, 165.9043
685.6520, 125.2734
686.8090, 131.0156
687.9670, 129.0898
689.1240, 162.4199
690.2810, 278.7891
691.4380, 231.8535
692.5950, 365.7871
693.7520, 408.6562
694.9080, 280.8906
696.0650, 317.1914
697.2210, 234.5840
698.3770, 292.0117
699.5330, 210.3438
700.6880, 215.2188
701.8440, 233.5625
702.9990, 243.3281
704.1550, 296.8711
705.3100, 444.0488
706.4650, 303.3652
707.6190, 246.6484
708.7740, 381.0312
709.9290, 239.9043
711.0830, 414.4844
712.2370, 313.0254
713.3910, 229.5586
714.5450, 290.7090
715.6980, 340.8320
716.8520, 149.3086
718.0050, 221.4297
719.1580, 333.6191
720.3110, 384.5156
721.4640, 280.1758
722.6170, 463.5977
723.7700, 261.4023
724.9220, 495.7422
726.0740, 464.5117
727.2260, 437.6855
728.3780, 248.5742
729.5300, 183.4609
730.6810, 448.4492
731.8330, 320.7090
732.9840, 242.5820
734.1350, 331.7539
735.2860, 218.6699
736.4370, 289.9688
737.5880, 297.7617
738.7380, 176.5918
739.8880, 449.3242
741.0390, 354.2676
742.1890, 404.8555
743.3380, 202.9102
744.4880, 318.1836
745.6380, 406.9434
746.7870, 468.6250
747.9360, 474.7012
749.0850, 383.5977
750.2340, 367.2441
751.3830, 388.2461
752.5310, 204.0977
753.6800, 290.9980
754.8280, 268.3926
755.9760, 304.9902
757.1240, 211.1152
758.2720, 204.0371
759.4190, 342.3027
760.5670, 213.1934
761.7140, 276.4102
762.8610, 241.9648
764.0080, 297.0156
765.1550, 387.9102
766.3020, 311.0527
767.4480, 274.2344
768.5950, 365.9336
769.7410, 339.1602
770.8870, 316.8574
772.0330, 303.1504
773.1780, 272.2070
774.3240, 301.7812
775.4690, 343.2070
776.6140, 214.1309
777.7590, 244.6113
778.9040, 349.3848
780.0490, 162.1406
781.1940, 278.9629
782.3380, 210.0957
783.4820, 333.2246
784.6260, 304.2324
785.7700, 140.0566
786.9140, 97.01953
788.0580, 117.7246
789.2010, 276.5781
790.3450, 207.5957
791.4880, 267.3008
792.6310, 346.9531
793.7730, 205.8438
794.9160, 379.1738
796.0590, 246.9453
797.2010, 276.5215
798.3430, 196.8438
799.4850, 181.3203
800.6270, 90.38477
801.7690, 226.6016
802.9100, 207.7461
804.0520, 363.2891
805.1930, 416.3145
806.3340, 260.6953
807.4750, 283.5898
808.6160, 195.5547
809.7560, 268.9863
810.8970, 200.7051
812.0370, 156.5098
813.1770, 117.3281
814.3170, 133.0918
815.4570, 101.6621
816.5960, 172.3164
817.7360, 192.0625
818.8750, 329.6113
820.0140, 349.1191
821.1530, 423.1855
822.2920, 78.11719
823.4310, 71.83203
824.5690, 273.5137
825.7070, 37.86133
826.8460, 233.8262
827.9840, 100.9492
829.1220, 66.82422
830.2590, 182.8359
831.3970, 105.6855
832.5340, 191.6992
833.6710, 135.5469
834.8080, 164.1699
835.9450, 219.9121
837.0820, 111.3262
838.2190, 40.29688
839.3550, 199.0664
840.4910, 51.41602
841.6270, 135.8457
842.7630, 95.21484
843.8990, 150.5195
845.0350, 117.3320
846.1700, 230.1914
847.3060, 51.18359
848.4410, 51.26172
849.5760, 44.20898
850.7100, 385.4766
851.8450, 123.8457
852.9800, 270.3418
854.1140, 110.4961
855.2480, 84.84375
856.3820, 146.0703
857.5160, 9.093750
858.6500, 256.9883
859.7830, 174.4297
860.9170, 276.7344
862.0500, 167.4805
863.1830, 301.3203
864.3160, 121.7656
865.4480, 351.5078
866.5810, 318.4219
867.7130, 33.44531
868.8460, 87.40039
869.9780, 245.1504
871.1100, 297.3906
872.2410, 196.3066
873.3730, 68.97656
874.5050, 58.69531
875.6360, 65.50195
876.7670, 35.81641
877.8980, 98.79688
879.0290, 14.48242
880.1590, 1.279297
881.2900, 118.0801
882.4200, 47.76562
883.5500, 96.59570
884.6800, 255.6777
885.8100, 243.4512
886.9400, 149.2422
888.0690, 175.9258
889.1990, 154.1875
890.3280, 51.74219
891.4570, 207.1406
892.5860, 73.57422
893.7140, 97.61328
894.8430, 216.5625
895.9710, 95.81641
897.1000, 41.65430
898.2280, 69.58984
899.3560, 32.47266
900.4830, 58.40820
901.6110, 24.80469
902.7380, 24.13281
903.8660, 0.6425780
904.9930, 67.88281
906.1200, 73.34375
907.2460, 74.30078
908.3730, 171.9375
909.5000, 19.98047
910.6260, 176.9238
911.7520, 70.91992
912.8780, 133.5410
914.0040, 105.9238
915.1290, 27.84570
916.2550, 51.84766
917.3800, 231.2793
918.5050, 238.3730
919.6300, 106.9219
920.7550, 116.2930
921.8800, 4.919922
923.0040, 78.69922
924.1290, 5.343750
925.2530, 28.60742
926.3770, 149.2051
927.5010, 59.00195
928.6250, 54.05664
929.7480, 180.4766
930.8720, 369.4160
931.9950, 340.9434
933.1180, 415.8242
934.2410, 130.6562
935.3640, 346.7246
936.4860, 329.3262
937.6090, 144.0703
938.7310, 461.0879
939.8530, 509.5547
940.9750, 522.9551
942.0970, 693.8730
943.2180, 717.5859
944.3400, 594.1875
945.4610, 914.8594
946.5820, 986.1758
947.7030, 1200.252
948.8240, 1719.098
949.9450, 2207.941
951.0650, 2660.588
952.1860, 3600.457
953.3060, 4654.332
954.4260, 6041.709
955.5460, 7908.107
956.6650, 9636.469
957.7850, 11258.01
958.9040, 12346.18
960.0230, 12674.06
961.1420, 12617.59
962.2610, 11914.16
963.3800, 10592.12
964.4990, 9149.889
965.6170, 7736.352
966.7350, 6269.793
967.8530, 4584.914
968.9710, 3366.746
970.0890, 2810.727
971.2070, 2335.232
972.3240, 1856.801
973.4410, 1390.096
974.5580, 805.9238
975.6750, 731.5371
976.7920, 560.9902
977.9090, 392.6074
979.0250, 600.8652
980.1410, 283.0684
981.2580, 473.6816
982.3740, 385.4863
983.4890, 135.2363
984.6050, 234.9023
985.7200, 242.8613
986.8360, 34.75391
987.9510, 2.203125
989.0660, 149.9141
990.1810, 117.4688
991.2950, 95.77344
992.4100, 259.1367
993.5240, 110.8125
994.6390, 115.7695
995.7530, 10.71875
996.8660, 209.1445
997.9800, 74.07422
999.0940, 174.3086
1000.207, 76.34375
1001.320, 432.1914
1002.433, 396.5430
1003.546, 423.1953
1004.659, 239.4609
1005.772, 244.8945
1006.884, 104.8555
1007.996, 315.2305
1009.108, 177.4766
1010.220, 416.7305
1011.332, 144.6797
1012.444, 90.89062
1013.555, 106.5508
1014.666, 33.15625
1015.777, 112.9688
1016.888, 99.46094
1017.999, 261.5508
1019.110, 375.2852
1020.220, 407.8516
1021.331, 341.9414
1022.441, 630.1719
1023.551, 473.0664
1024.661, 612.8359
1025.770, 666.2031
1026.880, 579.0742
1027.989, 733.9180
1029.098, 669.0977
1030.207, 852.0859
1031.316, 748.2383
1032.425, 681.2773
1033.533, 805.4414
1034.642, 823.7031
1035.750, 989.0195
1036.858, 840.9102
1037.966, 1034.980
1039.073, 1119.785
1040.181, 860.4453
1041.288, 939.9180
1042.396, 1035.031
1043.503, 1151.129
1044.610, 1138.660
1045.716, 1051.160
1046.823, 941.3672
1047.929, 1030.758
1049.036, 979.3047
1050.142, 971.7773
1051.248, 1121.184
1052.353, 727.5195
1053.459, 949.8008
1054.564, 735.0273
1055.670, 829.1914
1056.775, 726.2773
1057.880, 819.3047
1058.985, 591.2852
1060.089, 650.2188
1061.194, 468.0977
1062.298, 327.9180
1063.402, 488.6875
1064.506, 212.3945
1065.610, 507.0859
1066.713, 443.7227
1067.817, 212.2773
1068.920, 323.2539
1070.023, 65.23828
1071.126, 203.0547
1072.229, 248.9922
1073.332, 523.2969
1074.435, 456.0156
1075.537, 354.7500
1076.639, 430.2422
1077.741, 409.2930
1078.843, 363.4492
1079.945, 469.6094
1081.046, 255.2852
1082.148, 402.4102
1083.249, 302.1602
1084.350, 342.8320
1085.451, 366.2461
1086.551, 455.8828
1087.652, 226.3281
1088.752, 285.0938
1089.853, 62.80469
1090.953, 125.4375
1092.053, 145.9609
1093.152, 89.46875
1094.252, 315.0391
1095.351, 305.7930
1096.451, 293.8594
1097.550, 76.88281
1098.649, 8.5937999E-02
1099.748, 295.3203
1100.846, 487.4883
1101.945, 115.5859
1103.043, 31.58984
1104.141, 241.4766
1105.239, 261.2617
1106.337, 299.9297
1107.434, 17.48047
1108.532, 230.9180
1109.629, 321.2305
1110.726, 86.71484
1111.823, 176.2500
1112.920, 433.2305
1114.017, 298.9922
1115.113, 228.1758
1116.210, 179.0742
1117.306, 242.1367
1118.402, 390.2422
1119.498, 352.4414
1120.593, 607.8477
1121.689, 231.4609
1122.784, 611.5781
1123.879, 370.7109
1124.974, 154.3750
1126.069, 422.1250
1127.164, 477.7305
1128.259, 409.3867
1129.353, 226.4648
1130.447, 86.08984
1131.541, 244.2109
1132.635, 269.8867
1133.729, 298.5234
1134.822, 350.8828
1135.916, 141.2266
1137.009, 309.4570
1138.102, 125.5156
1139.195, 95.37891
1140.288, 339.0586
1141.380, 379.5586
1142.473, 190.9141
1143.565, 377.8047
1144.657, 148.9766
1145.749, 19.82812
1146.841, 3.015625
1147.932, 41.69531
1149.024, 235.2422
1150.115, 305.6016
1151.206, 214.2617
1152.297, 277.9531
1153.388, 0.6875000
1154.479, 0.0000000E+00
##END=



