##NAMES=Fluorapophyllite-(K)
##RRUFFID=R050021
##IDEAL CHEMISTRY=KCa_4_Si_8_O_20_F&#183;8H_2_O
##LOCALITY=Poona, Maharashtra State, India
##OWNER=RRUFF
##SOURCE=Eugene Schlepp
##DESCRIPTION=Colorless tetragonal prisms
##STATUS=The identification of this mineral has been confirmed by X-ray diffraction and chemical analysis
##URL=rruff.info/R050021
##MEASURED CHEMISTRY=(K_0.98_Na_0.02_)_Σ=1_Ca_4.00_Si_8.00_O_20_(F_0.84_(OH)_0.16_)_Σ=1_·8H_2_O
##PIN_ID=L00290
##ORIENTATION=Laser parallel to a* (1 0 0). Fiducial mark perpendicular to laser is parallel to -c [0 0 -1]
114.949, 0.000
116.339, 239.305
117.729, 482.970
119.119, 429.175
120.508, 698.433
121.897, 1405.574
123.286, 2016.715
124.675, 2161.090
126.063, 2754.523
127.452, 2499.134
128.840, 2483.910
130.228, 2881.040
131.615, 3634.408
133.003, 3106.009
134.390, 2324.355
135.777, 1063.853
137.164, 704.388
138.550, 315.859
139.937, 168.167
141.323, 131.220
142.709, 65.066
144.094, 70.763
145.480, 118.664
146.865, 71.229
148.250, 28.084
149.635, 158.066
151.019, 345.039
152.403, 532.596
153.788, 1040.643
155.171, 1449.106
156.555, 2647.922
157.939, 3747.052
159.322, 5386.472
160.705, 7236.150
162.088, 8346.057
163.470, 8796.160
164.853, 6836.420
166.235, 5246.797
167.617, 3497.280
168.998, 2407.859
170.380, 1438.522
171.761, 649.263
173.142, 380.071
174.523, 60.941
175.904, 451.900
177.284, 493.179
178.664, 1185.010
180.044, 2167.031
181.424, 3519.191
182.803, 5412.287
184.183, 7177.963
185.562, 9106.566
186.940, 9132.672
188.319, 7817.660
189.698, 6122.545
191.076, 4027.303
192.454, 3611.885
193.831, 2566.277
195.209, 2430.488
196.586, 2174.529
197.963, 2398.453
199.340, 2992.430
200.717, 3296.450
202.093, 4610.492
203.470, 5844.528
204.846, 7838.535
206.221, 10332.468
207.597, 12846.309
208.972, 15920.063
210.347, 17213.717
211.722, 17417.195
213.097, 15510.317
214.472, 13253.146
215.846, 11275.872
217.220, 9198.560
218.594, 8321.215
219.967, 7403.830
221.341, 7026.412
222.714, 6798.965
224.087, 6631.484
225.460, 7383.975
226.832, 7306.436
228.204, 7938.855
229.577, 7481.246
230.948, 7173.611
232.320, 6455.947
233.692, 5158.256
235.063, 4440.928
236.434, 3275.326
237.805, 2723.057
239.175, 1904.461
240.545, 1619.141
241.916, 1361.730
243.286, 806.056
244.655, 950.047
246.025, 464.784
247.394, 472.513
248.763, 336.497
250.132, 410.694
251.501, 395.677
252.869, 248.768
254.237, 424.383
255.605, 118.571
256.973, 472.145
258.340, 299.312
259.708, 687.468
261.075, 900.562
262.442, 1032.354
263.808, 1604.364
265.175, 1646.207
266.541, 1986.636
267.907, 2136.777
269.273, 2046.164
270.639, 1695.533
272.004, 1204.884
273.369, 1284.218
274.734, 803.535
276.099, 792.835
277.463, 562.119
278.828, 531.386
280.192, 697.084
281.556, 523.070
282.919, 888.971
284.283, 914.619
285.646, 999.951
287.009, 1354.924
288.372, 1499.383
289.734, 2113.433
291.097, 2627.184
292.459, 3280.575
293.821, 4153.260
295.183, 4884.920
296.544, 5775.994
297.905, 5797.065
299.266, 6238.188
300.627, 5169.359
301.988, 4510.570
303.348, 3831.069
304.709, 2950.641
306.069, 2579.938
307.428, 1842.216
308.788, 1744.481
310.147, 1274.031
311.507, 1236.866
312.865, 992.778
314.224, 992.930
315.583, 924.399
316.941, 915.812
318.299, 997.229
319.657, 898.646
321.015, 1000.064
322.372, 851.482
323.729, 942.896
325.086, 1264.307
326.443, 1155.712
327.800, 1537.109
329.156, 1618.500
330.512, 1789.884
331.868, 2131.258
333.224, 2332.623
334.579, 2713.977
335.935, 2625.376
337.290, 2856.709
338.645, 3027.062
339.999, 2728.371
341.354, 2649.668
342.708, 2130.948
344.062, 1732.211
345.416, 1623.455
346.769, 1014.677
348.123, 1015.866
349.476, 717.008
350.829, 518.178
352.182, 299.697
353.534, 400.740
354.887, 442.166
356.239, 53.148
357.591, 204.095
358.942, 14.888
360.294, 235.982
361.645, 63.178
362.996, 72.396
364.347, 1.671
365.698, 80.988
367.048, 189.631
368.398, 60.219
369.748, 220.773
371.098, 201.296
372.448, 91.790
373.797, 202.251
375.146, 22.683
376.495, 163.082
377.844, 26.547
379.192, 176.219
380.540, 35.973
381.889, 155.771
383.236, 65.647
384.584, 245.577
385.932, 125.606
387.279, 85.704
388.626, 135.861
389.973, 36.090
391.319, 226.356
392.666, 3.282
394.012, 117.089
395.358, 32.474
396.704, 42.006
398.049, 38.408
399.394, 41.123
400.740, 199.395
402.084, 69.971
403.429, 79.251
404.774, 8.505
406.118, 277.717
407.462, 16.937
408.806, 156.114
410.150, 35.241
411.493, 54.211
412.836, 133.130
414.179, 111.921
415.522, 349.915
416.865, 228.438
418.207, 255.377
419.549, 523.923
420.891, 611.861
422.233, 1040.349
423.575, 1198.808
424.916, 1857.297
426.257, 2855.766
427.598, 4074.222
428.939, 6652.664
430.279, 9001.090
431.619, 11199.527
432.959, 12087.951
434.299, 9726.367
435.639, 7494.770
436.978, 4843.164
438.318, 3451.547
439.657, 2379.918
440.996, 1648.277
442.334, 1256.602
443.673, 864.886
445.011, 833.132
446.349, 611.340
447.687, 709.512
449.024, 467.648
450.361, 615.753
451.699, 573.825
453.036, 451.868
454.372, 529.883
455.709, 717.870
457.045, 855.839
458.381, 1063.787
459.717, 1071.717
461.053, 1459.628
462.388, 1427.519
463.724, 1445.391
465.059, 1423.245
466.394, 1251.088
467.728, 1228.919
469.063, 866.769
470.397, 834.638
471.731, 612.537
473.065, 240.453
474.398, 418.373
475.732, 176.276
477.065, 434.158
478.398, 322.019
479.731, 439.855
481.063, 607.673
482.396, 595.469
483.728, 773.243
485.060, 1050.996
486.391, 798.729
487.723, 976.438
489.054, 774.127
490.385, 751.797
491.716, 369.442
493.047, 497.068
494.377, 264.670
495.708, 222.254
497.038, 319.814
498.368, 137.354
499.697, 294.871
501.027, 252.371
502.356, 259.848
503.685, 327.305
505.014, 284.371
506.342, 282.152
507.671, 259.545
508.999, 226.916
510.327, 204.268
511.655, 111.596
512.982, 258.617
514.310, 115.902
515.637, 333.164
516.964, 268.818
518.291, 185.363
519.617, 459.100
520.944, 365.742
522.270, 466.402
523.596, 486.463
524.921, 680.945
526.247, 750.426
527.572, 686.795
528.897, 992.371
530.222, 1108.840
531.547, 1155.213
532.871, 1361.014
534.196, 1337.363
535.520, 1732.463
536.844, 1598.621
538.167, 1891.357
539.491, 1854.684
540.814, 1696.795
542.137, 1771.375
543.460, 1601.598
544.783, 1630.516
546.105, 1316.957
547.427, 1265.891
548.749, 1461.674
550.071, 1094.723
551.393, 1104.816
552.714, 1134.744
554.035, 1181.691
555.356, 1056.809
556.677, 1051.246
557.998, 1153.127
559.318, 999.523
560.638, 1183.684
561.958, 1359.137
563.278, 1195.465
564.597, 1560.219
565.917, 1675.357
567.236, 1800.258
568.555, 2316.188
569.874, 2101.248
571.192, 2746.555
572.511, 3054.592
573.829, 3550.859
575.147, 4307.479
576.464, 4645.312
577.782, 5831.646
579.099, 6517.109
580.416, 7532.781
581.733, 8629.363
583.050, 9277.959
584.366, 9904.520
585.683, 9773.229
586.999, 9009.771
588.315, 8506.305
589.630, 7407.199
590.946, 6453.711
592.261, 5370.215
593.576, 4666.711
594.891, 4043.195
596.206, 3279.668
597.520, 2876.135
598.834, 2512.588
600.148, 2319.033
601.462, 1885.471
602.776, 1811.898
604.089, 1588.316
605.402, 1564.725
606.715, 1531.127
608.028, 1377.520
609.341, 1203.904
610.653, 1270.301
611.965, 1066.688
613.277, 1123.068
614.589, 1169.441
615.901, 1195.809
617.212, 1222.168
618.523, 1378.518
619.834, 1344.863
621.145, 1451.199
622.456, 1567.531
623.766, 1753.867
625.076, 1820.195
626.386, 1696.520
627.696, 1852.836
629.006, 1939.146
630.315, 2035.453
631.624, 1711.668
632.933, 1677.961
634.242, 1743.910
635.551, 1700.188
636.859, 1806.457
638.167, 1872.725
639.475, 2088.984
640.783, 2165.305
642.090, 2251.482
643.398, 2437.727
644.705, 2433.961
646.012, 2630.191
647.318, 2956.418
648.625, 3242.639
649.931, 3288.854
651.237, 3585.062
652.543, 3751.270
653.849, 4197.416
655.155, 4253.611
656.460, 4819.406
657.765, 5105.594
659.070, 5621.777
660.375, 5597.975
661.679, 5984.164
662.984, 6140.352
664.288, 6086.535
665.592, 6072.717
666.895, 5888.891
668.199, 5355.004
669.502, 5050.730
670.805, 4366.902
672.108, 4012.656
673.411, 3738.820
674.713, 2904.992
676.016, 2631.061
677.318, 2257.244
678.620, 2043.432
679.921, 1699.646
681.223, 1545.896
682.524, 1202.156
683.825, 1168.453
685.126, 1094.746
686.427, 841.051
687.727, 807.355
689.028, 723.660
690.328, 539.973
691.628, 686.287
692.927, 282.609
694.227, 518.938
695.526, 305.285
696.825, 381.691
698.124, 308.123
699.423, 274.607
700.721, 341.123
702.020, 47.721
703.318, 224.361
704.616, 61.043
705.913, 2.227
707.211, 44.518
708.508, 78.664
709.805, 58.115
711.102, 234.945
712.399, 298.219
713.695, 48.463
714.992, 4.830
716.288, 28.125
717.584, 288.623
718.879, 164.623
720.175, 142.047
721.470, 131.271
722.765, 55.340
724.060, 201.965
725.355, 151.408
726.649, 165.145
727.944, 188.293
729.238, 8.168
730.532, 124.631
731.825, 338.904
733.119, 317.385
734.412, 136.322
735.705, 140.104
736.998, 76.039
738.291, 187.811
739.584, 78.238
740.876, 25.707
742.168, 40.332
743.460, 46.375
744.752, 67.574
746.043, 138.441
747.334, 24.463
748.626, 40.492
749.916, 46.525
751.207, 202.566
752.498, 178.613
753.788, 34.670
755.078, 210.730
756.368, 396.803
757.658, 302.877
758.947, 508.961
760.237, 485.057
761.526, 671.160
762.815, 977.268
764.104, 703.387
765.392, 1393.842
766.680, 1079.979
767.969, 896.121
769.257, 1222.273
770.544, 718.434
771.832, 714.605
773.119, 660.785
774.406, 306.973
775.693, 563.172
776.980, 99.381
778.267, 418.438
779.553, 284.666
780.839, 170.902
782.125, 457.148
783.411, 393.404
784.697, 509.855
785.982, 596.133
787.267, 742.420
788.552, 1028.719
789.837, 1045.027
791.122, 1371.352
792.406, 1407.682
793.690, 1304.023
794.974, 1110.379
796.258, 936.742
797.542, 823.119
798.825, 714.648
800.108, 628.176
801.391, 562.316
802.674, 528.740
803.957, 435.172
805.239, 431.619
806.522, 188.078
807.804, 364.547
809.085, 221.031
810.367, 287.527
811.649, 384.037
812.930, 400.559
814.211, 210.088
815.492, 426.635
816.772, 453.197
818.053, 639.768
819.333, 316.354
820.613, 552.955
821.893, 459.568
823.173, 416.195
824.452, 692.836
825.732, 319.492
827.011, 686.160
828.290, 732.844
829.568, 659.564
830.847, 876.301
832.125, 593.049
833.403, 799.809
834.681, 887.494
835.959, 644.285
837.236, 861.088
838.514, 557.904
839.791, 934.783
841.068, 801.672
842.345, 658.576
843.621, 955.494
844.898, 782.426
846.174, 749.441
847.450, 926.473
848.726, 393.518
850.001, 590.631
851.277, 667.756
852.552, 684.896
853.827, 782.053
855.102, 762.432
856.376, 796.445
857.651, 783.682
858.925, 750.934
860.199, 867.188
861.473, 554.467
862.746, 636.336
864.020, 683.645
865.293, 470.965
866.566, 529.137
867.839, 406.531
869.112, 302.760
870.384, 517.789
871.656, 45.229
872.928, 531.885
874.200, 19.354
875.472, 368.150
876.744, 305.652
878.015, 213.172
879.286, 540.783
880.557, 108.336
881.828, 243.691
883.098, 350.742
884.369, 288.350
885.639, 324.354
886.909, 302.027
888.178, 130.857
889.448, 359.494
890.717, 237.230
891.987, 452.969
893.256, 190.748
894.524, 86.396
895.793, 344.223
897.061, 122.115
898.330, 155.662
899.598, 323.625
900.865, 51.611
902.133, 419.619
903.401, 287.650
904.668, 145.709
905.935, 333.787
907.202, 81.904
908.468, 420.045
909.735, 208.209
911.001, 166.404
912.267, 354.627
913.533, 62.873
914.799, 551.143
916.064, 129.436
917.330, 142.238
918.595, 386.068
919.860, 24.398
921.124, 182.750
922.389, 81.127
923.653, 89.523
924.918, 277.943
926.182, 16.385
927.445, 144.848
928.709, 243.334
929.972, 108.160
931.236, 330.342
932.499, 178.865
933.761, 327.414
935.024, 185.982
936.286, 15.428
937.549, 293.182
938.811, 261.812
940.073, 200.465
941.334, 399.137
942.596, 267.631
943.857, 296.545
945.118, 255.277
946.379, 194.031
947.640, 392.805
948.900, 351.598
950.161, 160.412
951.421, 399.244
952.681, 198.094
953.940, 566.965
955.200, 235.854
956.459, 184.760
957.719, 473.707
958.978, 292.676
960.236, 421.660
961.495, 450.666
962.753, 139.686
964.012, 608.729
965.270, 112.215
966.527, 376.834
967.785, 835.900
969.043, 234.984
970.300, 1054.086
971.557, 573.203
972.814, 572.338
974.071, 671.490
975.327, 110.656
976.583, 449.842
977.840, 369.043
979.095, 178.260
980.351, 402.514
981.607, 121.768
982.862, 11.049
984.117, 450.348
985.372, 50.328
986.627, 349.020
987.882, 228.389
989.136, 287.785
990.390, 517.422
991.644, 489.486
992.898, 406.338
994.152, 645.832
995.405, 965.350
996.659, 1071.057
997.912, 260.621
999.165, 810.215
1000.417, 992.016
1001.670, 1141.654
1002.922, 1761.318
1004.174, 1391.008
1005.426, 1640.717
1006.678, 1699.766
1007.930, 1579.527
1009.181, 1929.312
1010.432, 1399.119
1011.683, 1098.961
1012.934, 1308.824
1014.185, 648.738
1015.435, 1028.676
1016.685, 808.566
1017.935, 868.637
1019.185, 968.729
1020.435, 678.850
1021.684, 989.008
1022.934, 1089.188
1024.183, 779.439
1025.432, 1159.717
1026.680, 810.055
1027.929, 1070.416
1029.177, 1090.801
1030.425, 841.254
1031.673, 1181.732
1032.921, 1062.287
1034.169, 922.875
1035.416, 1283.482
1036.663, 1020.936
1037.911, 1311.688
1039.157, 1362.504
1040.404, 1493.383
1041.650, 1964.287
1042.897, 1915.303
1044.143, 1886.311
1045.389, 2337.357
1046.634, 2498.742
1047.880, 3109.840
1049.125, 3556.678
1050.371, 3927.846
1051.615, 5039.043
1052.860, 5500.270
1054.105, 7331.521
1055.349, 9242.801
1056.593, 11797.145
1057.837, 14418.438
1059.081, 16789.752
1060.325, 17179.383
1061.568, 18284.875
1062.812, 16176.520
1064.055, 13857.701
1065.298, 10858.902
1066.540, 8412.297
1067.783, 6949.094
1069.025, 5200.143
1070.267, 4421.209
1071.509, 3802.291
1072.751, 2673.398
1073.993, 2764.406
1075.234, 2355.430
1076.475, 1656.475
1077.716, 2127.531
1078.957, 1448.602
1080.198, 1436.846
1081.438, 1787.945
1082.679, 1089.059
1083.919, 1470.088
1085.159, 1361.129
1086.398, 1141.992
1087.638, 1733.049
1088.877, 1053.953
1090.116, 1204.764
1091.355, 1175.572
1092.594, 1056.373
1093.833, 1337.109
1095.071, 817.836
1096.309, 818.500
1097.547, 1169.143
1098.785, 559.729
1100.023, 790.297
1101.260, 810.859
1102.498, 221.406
1103.735, 991.945
1104.972, 532.467
1106.208, 808.006
1107.445, 698.488
1108.681, 538.953
1109.918, 779.398
1111.154, 769.832
1112.389, 510.258
1113.625, 930.682
1114.860, 458.111
1116.096, 718.543
1117.331, 1108.986
1118.566, 419.164
1119.800, 709.332
1121.035, 479.488
1122.269, 659.633
1123.503, 749.758
1124.737, 199.877
1125.971, 390.031
1127.205, 480.250
1128.438, 79.398
1129.671, 621.213
1130.904, 63.475
1132.137, 24.861
1133.370, 477.213
1134.602, 39.564
1135.834, 281.918
1137.066, 404.318
1138.298, 153.379
1139.530, 648.910
1140.762, 131.188
1141.993, 43.510
1143.224, 495.785
1144.455, 241.896
1145.686, 790.463
1146.917, 242.865
1148.147, 174.787
1149.377, 827.600
1150.607, 180.025
1151.837, 302.488
1153.067, 664.988
1154.296, 122.475
1155.526, 800.098
1156.755, 272.705
1157.984, 185.273
1159.213, 527.873
1160.441, 260.502
1161.670, 383.160
1162.898, 845.729
1164.126, 121.742
1165.354, 700.809
1166.581, 413.381
1167.809, 225.939
1169.036, 668.500
1170.263, 401.066
1171.490, 213.652
1172.717, 576.264
1173.943, 98.934
1175.170, 611.629
1176.396, 394.359
1177.622, 407.123
1178.848, 709.939
1180.073, 322.811
1181.299, 465.721
1182.524, 778.670
1183.749, 48.334
1184.974, 734.711
1186.199, 367.803
1187.423, 270.959
1188.648, 764.170
1189.872, 127.449
1191.096, 380.797
1192.320, 614.137
1193.543, 92.445
1194.767, 411.047
1195.990, 15.354
1197.213, 198.355
1198.436, 662.162
1199.659, 196.072
1200.881, 380.090
1202.104, 574.219
1203.326, 38.379
1204.548, 762.520
1205.770, 486.721
1206.991, 60.969
1208.213, 653.270
1209.434, 137.227
1210.655, 415.127
1211.876, 598.488
1213.096, 23.584
1214.317, 696.424
1215.537, 396.783
1216.757, 369.143
1217.977, 741.475
1219.197, 153.773
1220.417, 619.951
1221.636, 701.594
1222.855, 283.168
1224.074, 874.672
1225.293, 326.098
1226.512, 447.434
1227.731, 1128.672
1228.949, 319.795
1230.167, 679.354
1231.385, 869.619
1232.603, 439.689
1233.820, 919.434
1235.038, 432.248
1236.255, 349.502
1237.472, 1306.639
1238.689, 153.291
1239.906, 557.096
1241.122, 982.537
1242.338, 66.855
1243.555, 930.471
1244.771, 475.404
1245.986, 241.082
1247.202, 936.625
1248.417, 202.105
1249.633, 667.570
1250.848, 662.379
1252.063, 83.547
1253.277, 830.293
1254.492, 523.953
1255.706, 357.941
1256.920, 1093.936
1258.134, 170.211
1259.348, 437.426
1260.562, 895.930
1261.775, 275.336
1262.988, 415.369
1264.201, 603.033
1265.414, 68.119
1266.627, 913.191
1267.839, 97.572
1269.052, 500.078
1270.264, 755.902
1271.476, 9.850
1272.688, 680.211
1273.899, 774.770
1275.111, 0.000
##END=



