##NAMES=Fluorapophyllite-(K)
##RRUFFID=R050021
##IDEAL CHEMISTRY=KCa_4_Si_8_O_20_F&#183;8H_2_O
##LOCALITY=Poona, Maharashtra State, India
##OWNER=RRUFF
##SOURCE=Eugene Schlepp
##DESCRIPTION=Colorless tetragonal prisms
##STATUS=The identification of this mineral has been confirmed by X-ray diffraction and chemical analysis
##URL=rruff.info/R050021
##MEASURED CHEMISTRY=(K_0.98_Na_0.02_)_Σ=1_Ca_4.00_Si_8.00_O_20_(F_0.84_(OH)_0.16_)_Σ=1_·8H_2_O
##PIN_ID=L00208
##ORIENTATION=Laser parallel to -c* (0 0 -1). Fiducial mark perpendicular to laser is parallel to a [1 0 0]
121.897, 0.000
123.286, 277.312
124.675, 1021.292
126.063, 1611.043
127.452, 1243.270
128.840, 1043.361
130.228, 681.281
131.615, 920.469
133.003, 1532.078
134.390, 2202.647
135.777, 2449.717
137.164, 3309.280
138.550, 3369.672
139.937, 3651.256
141.323, 3658.767
142.709, 3166.726
144.094, 2962.616
145.480, 2069.191
146.865, 1032.023
148.250, 780.654
149.635, 617.675
151.019, 443.012
152.403, 546.157
153.788, 432.523
155.171, 399.939
156.555, 307.957
157.939, 248.610
159.322, 238.189
160.705, 296.490
162.088, 753.778
163.470, 800.083
164.853, 1285.390
166.235, 1359.824
167.617, 1683.498
168.998, 1706.499
170.380, 1018.906
171.761, 770.785
173.142, 132.180
174.523, 13.130
175.904, 146.331
177.284, 186.179
178.664, 186.415
180.044, 227.033
181.424, 68.005
182.803, 38.918
184.183, 23.025
185.562, 215.065
186.940, 341.698
188.319, 809.472
189.698, 668.490
191.076, 885.534
192.454, 964.594
193.831, 1367.240
195.209, 1492.708
196.586, 1884.337
197.963, 2435.998
199.340, 3018.863
200.717, 3783.359
202.093, 4447.109
203.470, 5730.473
204.846, 6641.377
206.221, 8032.543
207.597, 9983.986
208.972, 12015.701
210.347, 14927.684
211.722, 15339.908
213.097, 15702.334
214.472, 13534.938
215.846, 10897.685
217.220, 8550.636
218.594, 6243.783
219.967, 5156.992
221.341, 3920.225
222.714, 3403.465
224.087, 2946.699
225.460, 2779.940
226.832, 3083.191
228.204, 3226.447
229.577, 3879.706
230.948, 3952.909
232.320, 4345.788
233.692, 4128.232
235.063, 3420.402
236.434, 3142.485
237.805, 2234.562
239.175, 1826.636
240.545, 1338.856
241.916, 951.879
243.286, 706.342
244.655, 400.800
246.025, 403.211
247.394, 15.121
248.763, 12.983
250.132, 28.900
251.501, 179.228
252.869, 87.367
254.237, 132.652
255.605, 97.226
256.973, 116.285
258.340, 98.632
259.708, 164.811
261.075, 235.556
262.442, 177.797
263.808, 78.873
265.175, 289.938
266.541, 260.998
267.907, 451.960
269.273, 602.759
270.639, 523.302
272.004, 673.604
273.369, 503.651
274.734, 503.425
276.099, 383.178
277.463, 252.939
278.828, 412.727
280.192, 222.541
281.556, 502.381
282.919, 262.235
284.283, 462.107
285.646, 591.998
287.009, 550.416
288.372, 1039.938
289.734, 1189.943
291.097, 1890.152
292.459, 2060.408
293.821, 2980.624
295.183, 3780.711
296.544, 4510.614
297.905, 5632.461
299.266, 5761.973
300.627, 6141.238
301.988, 5670.154
303.348, 4978.737
304.709, 4517.396
306.069, 3575.332
307.428, 3553.041
308.788, 2960.543
310.147, 2827.856
311.507, 2794.828
312.865, 2511.902
314.224, 2779.553
315.583, 2434.466
316.941, 2888.933
318.299, 2613.247
319.657, 2867.411
321.015, 3091.100
322.372, 2974.429
323.729, 3307.613
325.086, 3070.947
326.443, 3394.840
327.800, 3118.672
329.156, 3062.447
330.512, 3236.168
331.868, 2899.840
333.224, 3353.464
334.579, 3387.043
335.935, 3360.580
337.290, 3712.144
338.645, 3821.158
339.999, 4080.185
341.354, 3606.698
342.708, 3783.191
344.062, 3137.136
345.416, 2541.065
346.769, 2186.833
348.123, 1526.232
349.476, 1427.963
350.829, 1089.922
352.182, 862.396
353.534, 984.580
354.887, 586.438
356.239, 698.053
357.591, 369.621
358.942, 281.176
360.294, 332.731
361.645, 134.287
362.996, 205.837
364.347, 47.375
365.698, 318.898
367.048, 340.417
368.398, 321.939
369.748, 693.467
371.098, 774.998
372.448, 1336.531
373.797, 1368.066
375.146, 1769.601
376.495, 1851.135
377.844, 1392.669
379.192, 1244.199
380.540, 675.728
381.889, 517.253
383.236, 108.772
384.584, 40.284
385.932, 121.787
387.279, 146.720
388.626, 15.276
389.973, 203.847
391.319, 182.480
392.666, 38.827
394.012, 139.870
395.358, 61.388
396.704, 87.358
398.049, 113.959
399.394, 115.274
400.740, 36.610
402.084, 437.945
403.429, 299.280
404.774, 430.645
406.118, 412.000
407.462, 432.707
408.806, 573.440
410.150, 429.096
411.493, 643.201
412.836, 509.821
414.179, 703.711
415.522, 713.470
416.865, 730.475
418.207, 979.517
419.549, 966.913
420.891, 1395.118
422.233, 1518.943
423.575, 2058.240
424.916, 2647.512
426.257, 3595.295
427.598, 5165.579
428.939, 6775.705
430.279, 9886.717
431.619, 12348.229
432.959, 14869.627
434.299, 15721.222
435.639, 13182.669
436.978, 10654.145
438.318, 7315.180
439.657, 5515.705
440.996, 4256.956
442.334, 2697.396
443.673, 2159.088
445.011, 1519.854
446.349, 1141.488
447.687, 1063.330
449.024, 455.154
450.361, 766.952
451.699, 198.771
453.036, 290.558
454.372, 232.313
455.709, 154.041
457.045, 365.738
458.381, 72.581
459.717, 319.048
461.053, 310.650
462.388, 182.225
463.724, 443.772
465.059, 5.314
466.394, 246.828
467.728, 118.320
469.063, 149.794
470.397, 101.246
471.731, 227.320
473.065, 24.005
474.398, 64.688
475.732, 146.585
477.065, 267.851
478.398, 179.107
479.731, 590.358
481.063, 601.604
482.396, 1082.844
483.728, 1054.081
485.060, 1985.317
486.391, 2296.550
487.723, 2067.777
489.054, 2399.000
490.385, 1840.217
491.716, 1641.431
493.047, 1572.640
494.377, 873.844
495.708, 1135.046
497.038, 756.243
498.368, 847.445
499.697, 908.667
501.027, 849.946
502.356, 1191.299
503.685, 1042.721
505.014, 1334.223
506.342, 1325.763
507.671, 1137.333
508.999, 1418.922
510.327, 980.516
511.655, 1182.110
512.982, 1253.707
514.310, 1075.305
515.637, 1376.912
516.964, 928.521
518.291, 1170.020
519.617, 991.164
520.944, 1102.541
522.270, 983.104
523.596, 643.984
524.921, 1254.010
526.247, 805.395
527.572, 1076.887
528.897, 1128.317
530.222, 1059.969
531.547, 1541.623
532.871, 1363.281
534.196, 1664.942
535.520, 1966.607
536.844, 1858.275
538.167, 2449.947
539.491, 1961.622
540.814, 2353.300
542.137, 2224.981
543.460, 2055.688
544.783, 2326.042
546.105, 1636.831
547.427, 1948.318
548.749, 1597.794
550.071, 1436.373
551.393, 1465.812
552.714, 1147.050
554.035, 1409.414
555.356, 1220.171
556.677, 1117.349
557.998, 1618.246
559.318, 974.201
560.638, 1465.272
561.958, 1337.016
563.278, 1396.093
564.597, 1617.839
565.917, 1550.614
567.236, 2082.367
568.555, 1954.123
569.874, 2343.006
571.192, 2794.825
572.511, 2879.232
573.829, 3711.412
575.147, 3923.381
576.464, 4826.047
577.782, 5648.133
579.099, 6291.424
580.416, 7894.204
581.733, 8296.480
583.050, 9906.138
584.366, 10588.521
585.683, 11105.635
586.999, 11228.433
588.315, 10220.839
589.630, 9941.001
590.946, 8253.405
592.261, 7139.803
593.576, 6432.705
594.891, 5045.351
596.206, 4713.543
597.520, 3695.934
598.834, 3343.480
600.148, 3025.867
601.462, 2248.253
602.776, 2341.432
604.089, 1843.810
605.402, 1759.453
606.715, 1712.425
608.028, 1254.784
609.341, 1438.581
610.653, 1070.926
611.965, 993.272
613.277, 1196.214
614.589, 948.536
615.901, 1073.571
617.212, 793.741
618.523, 966.040
619.834, 968.542
621.145, 850.826
622.456, 1117.168
623.766, 759.027
625.076, 1031.290
626.386, 1113.998
627.696, 886.246
629.006, 1338.559
630.315, 1050.962
631.624, 1192.918
632.933, 1113.361
634.242, 1135.576
635.551, 1557.783
636.859, 1130.006
638.167, 1562.220
639.475, 1624.428
640.783, 1296.627
642.090, 1978.821
643.398, 1611.008
644.705, 2033.188
646.012, 2035.360
647.318, 2027.526
648.625, 2619.684
649.931, 2181.835
651.237, 2923.979
652.543, 3036.500
653.849, 3078.629
655.155, 3760.752
656.460, 3583.038
657.765, 4385.154
659.070, 4707.891
660.375, 4629.992
661.679, 5552.079
662.984, 5064.160
664.288, 5646.251
665.592, 5759.020
666.895, 5491.092
668.199, 5793.151
669.502, 4595.373
670.805, 4697.414
672.108, 4020.545
673.411, 3672.568
674.713, 3574.580
676.016, 2646.582
677.318, 2698.574
678.620, 2250.850
679.921, 1682.824
681.223, 2034.803
682.524, 1176.777
683.825, 1318.738
685.126, 1160.693
686.427, 902.639
687.727, 1054.570
689.028, 706.494
690.328, 828.404
691.628, 760.305
692.927, 402.193
694.227, 774.072
695.526, 175.938
696.825, 527.793
698.124, 389.635
699.423, 191.467
700.721, 463.291
702.020, 205.109
703.318, 426.918
704.616, 218.762
705.913, 50.604
707.211, 462.490
708.508, 24.416
709.805, 156.328
711.102, 158.270
712.399, 309.799
713.695, 241.965
714.992, 46.281
716.288, 75.416
717.584, 187.104
718.879, 81.225
720.175, 300.369
721.470, 298.049
722.765, 213.340
724.060, 214.717
725.355, 233.922
726.649, 377.281
727.944, 1.531
729.238, 129.617
730.532, 330.750
731.825, 288.131
733.119, 632.797
734.412, 136.291
735.705, 54.510
736.998, 335.289
738.291, 73.947
739.584, 256.736
740.876, 32.596
742.168, 99.352
743.460, 239.939
744.752, 79.490
746.043, 340.998
747.334, 178.533
748.626, 71.797
749.916, 132.109
751.207, 47.598
752.498, 312.627
753.788, 37.166
755.078, 202.979
756.368, 253.104
757.658, 126.783
758.947, 343.219
760.237, 6.797
761.526, 53.139
762.815, 453.055
764.104, 137.047
765.392, 572.736
766.680, 182.506
767.969, 52.256
769.257, 581.984
770.544, 1.699
771.832, 361.369
773.119, 181.031
774.406, 130.682
775.693, 550.314
776.980, 20.070
778.267, 469.492
779.553, 179.043
780.839, 68.578
782.125, 678.090
783.411, 157.590
784.697, 637.072
785.982, 506.584
787.267, 466.080
788.552, 915.572
789.837, 745.049
791.122, 1428.969
792.406, 1358.414
793.690, 1247.846
794.974, 1637.260
796.258, 976.662
797.542, 1106.049
798.825, 895.418
800.108, 644.777
801.391, 804.119
802.674, 473.445
803.957, 452.756
805.239, 472.051
806.522, 71.334
807.804, 450.600
809.085, 189.848
810.367, 119.084
811.649, 480.266
812.930, 49.471
814.211, 538.652
815.492, 427.820
816.772, 396.977
818.053, 640.723
819.333, 49.848
820.613, 648.953
821.893, 208.043
823.173, 117.119
824.452, 666.338
825.732, 35.383
827.011, 584.404
828.290, 463.410
829.568, 382.404
830.847, 641.383
832.125, 80.348
833.403, 529.299
834.681, 560.266
835.959, 179.188
837.236, 758.094
838.514, 387.057
839.791, 685.971
841.068, 815.012
842.345, 443.898
843.621, 1132.803
844.898, 581.975
846.174, 810.854
847.450, 1069.719
848.726, 558.572
850.001, 1157.461
851.277, 1046.342
852.552, 965.205
853.827, 1284.061
855.102, 722.904
856.376, 1341.734
857.651, 940.553
858.925, 1029.359
860.199, 1327.607
861.473, 676.391
862.746, 1194.414
864.020, 983.059
865.293, 591.693
866.566, 1058.932
867.839, 687.654
869.112, 761.328
870.384, 869.600
871.656, 408.322
872.928, 949.695
874.200, 338.412
875.472, 606.090
876.744, 594.801
878.015, 263.502
879.286, 815.096
880.557, 273.791
881.828, 329.916
883.098, 648.336
884.369, 267.012
885.639, 605.049
886.909, 363.715
888.178, 181.229
889.448, 829.309
890.717, 327.973
891.987, 639.352
893.256, 538.010
894.524, 28.051
895.793, 710.197
897.061, 218.838
898.330, 259.721
899.598, 718.355
900.865, 72.994
902.133, 561.125
903.401, 369.510
904.668, 252.346
905.935, 510.984
907.202, 54.477
908.468, 603.129
909.735, 341.781
911.001, 79.641
912.267, 608.299
913.533, 63.688
914.799, 551.744
916.064, 440.406
917.330, 7.625
918.595, 636.291
919.860, 24.953
921.124, 263.014
922.389, 211.691
923.653, 47.650
924.918, 556.332
926.182, 75.020
927.445, 203.504
928.709, 732.197
929.972, 6.832
931.236, 625.537
932.499, 324.244
933.761, 342.506
935.024, 661.223
936.286, 19.877
937.549, 508.602
938.811, 387.336
940.073, 196.074
941.334, 694.816
942.596, 116.432
943.857, 472.283
945.118, 421.002
946.379, 9.729
947.640, 598.461
948.900, 377.201
950.161, 305.943
951.421, 664.693
952.681, 103.449
953.940, 592.213
955.200, 430.982
956.459, 299.758
957.719, 718.543
958.978, 66.947
960.236, 445.746
961.495, 634.551
962.753, 66.811
964.012, 821.990
965.270, 150.166
966.527, 368.979
967.785, 657.801
969.043, 123.373
970.300, 755.424
971.557, 383.545
972.814, 162.363
974.071, 691.188
975.327, 10.148
976.583, 478.689
977.840, 406.438
979.095, 35.291
980.351, 554.154
981.607, 153.035
982.862, 111.930
984.117, 680.537
985.372, 70.551
986.627, 568.348
987.882, 347.258
989.136, 3.826
990.390, 642.414
991.644, 8.650
992.898, 510.291
994.152, 555.846
995.405, 15.152
996.659, 783.857
997.912, 32.875
999.165, 281.902
1000.417, 812.678
1001.670, 441.723
1002.922, 1040.777
1004.174, 759.912
1005.426, 728.996
1006.678, 1158.088
1007.930, 597.191
1009.181, 1266.307
1010.432, 1065.430
1011.683, 514.564
1012.934, 1463.709
1014.185, 622.965
1015.435, 872.137
1016.685, 951.418
1017.935, 380.705
1019.185, 1150.008
1020.435, 757.811
1021.684, 777.158
1022.934, 1266.520
1024.183, 647.691
1025.432, 1257.105
1026.680, 908.846
1027.929, 688.369
1029.177, 1147.912
1030.425, 679.586
1031.673, 1029.221
1032.921, 1368.887
1034.169, 568.564
1035.416, 1328.250
1036.663, 958.176
1037.911, 1117.973
1039.157, 1647.830
1040.404, 1311.012
1041.650, 1870.895
1042.897, 1890.822
1044.143, 1601.348
1045.389, 2519.977
1046.634, 2450.246
1047.880, 2890.238
1049.125, 3530.279
1050.371, 3500.504
1051.615, 4950.625
1052.860, 5100.762
1054.105, 6112.145
1055.349, 8642.328
1056.593, 10045.941
1057.837, 13006.166
1059.081, 16976.402
1060.325, 19207.064
1061.568, 22877.359
1062.812, 21017.674
1064.055, 19478.012
1065.298, 17278.359
1066.540, 12328.711
1067.783, 10829.133
1069.025, 8369.551
1070.267, 6269.990
1071.509, 5880.438
1072.751, 4210.896
1073.993, 3731.367
1075.234, 3761.830
1076.475, 2352.305
1077.716, 2722.791
1078.957, 2253.291
1080.198, 1714.221
1081.438, 2344.768
1082.679, 1465.330
1083.919, 1795.902
1085.159, 1856.494
1086.398, 1407.096
1087.638, 2167.715
1088.877, 1458.344
1090.116, 1729.412
1091.355, 2180.070
1092.594, 1446.287
1093.833, 2056.977
1095.071, 1597.676
1096.309, 1008.391
1097.547, 1689.121
1098.785, 719.865
1100.023, 870.627
1101.260, 1331.400
1102.498, 452.189
1103.735, 1212.994
1104.972, 923.812
1106.208, 694.648
1107.445, 1425.455
1108.681, 656.281
1109.918, 1017.104
1111.154, 1467.918
1112.389, 916.719
1113.625, 1837.494
1114.860, 1688.283
1116.096, 1549.090
1117.331, 2470.041
1118.566, 1446.266
1119.800, 1508.316
1121.035, 1319.176
1122.269, 759.996
1123.503, 1300.828
1124.737, 681.504
1125.971, 592.332
1127.205, 1083.166
1128.438, 44.010
1129.671, 807.592
1130.904, 618.463
1132.137, 59.318
1133.370, 900.559
1134.602, 209.402
1135.834, 290.287
1137.066, 1041.180
1138.298, 137.982
1139.530, 832.889
1140.762, 503.605
1141.993, 125.531
1143.224, 905.717
1144.455, 116.291
1145.686, 577.158
1146.917, 888.033
1148.147, 201.080
1149.377, 939.768
1150.607, 480.625
1151.837, 11.490
1153.067, 864.939
1154.296, 85.826
1155.526, 516.719
1156.755, 658.195
1157.984, 59.104
1159.213, 660.021
1160.441, 560.949
1161.670, 21.887
1162.898, 963.559
1164.126, 24.510
1165.354, 455.471
1166.581, 677.598
1167.809, 141.424
1169.036, 819.525
1170.263, 451.246
1171.490, 27.805
1172.717, 883.146
1173.943, 35.891
1175.170, 515.070
1176.396, 617.463
1177.622, 31.596
1178.848, 889.342
1180.073, 221.795
1181.299, 232.752
1182.524, 873.719
1183.749, 44.529
1184.974, 585.346
1186.199, 627.264
1187.423, 51.912
1188.648, 878.852
1189.872, 140.557
1191.096, 1.314
1192.320, 802.074
1193.543, 23.188
1194.767, 353.900
1195.990, 535.904
1197.213, 56.588
1198.436, 567.268
1199.659, 218.873
1200.881, 10.508
1202.104, 1020.043
1203.326, 49.111
1204.548, 471.359
1205.770, 881.816
1206.991, 12.221
1208.213, 882.586
1209.434, 514.340
1210.655, 334.588
1211.876, 954.748
1213.096, 165.986
1214.317, 616.041
1215.537, 906.043
1216.757, 188.506
1217.977, 998.053
1219.197, 398.934
1220.417, 387.482
1221.636, 1082.912
1222.855, 284.512
1224.074, 686.129
1225.293, 717.754
1226.512, 49.395
1227.731, 1031.047
1228.949, 522.715
1230.167, 324.395
1231.385, 1286.129
1232.603, 347.879
1233.820, 719.643
1235.038, 1041.422
1236.255, 63.211
1237.472, 1335.014
1238.689, 596.832
1239.906, 358.660
1241.122, 1350.531
1242.338, 262.414
1243.555, 614.338
1244.771, 1096.289
1245.986, 258.254
1247.202, 1010.238
1248.417, 652.244
1249.633, 474.238
1250.848, 986.244
1252.063, 508.293
1253.277, 621.012
1254.492, 1132.998
1255.706, 186.322
1256.920, 1148.139
1258.134, 604.297
1259.348, 255.969
1260.562, 1327.533
1261.775, 449.195
1262.988, 160.859
1264.201, 1152.535
1265.414, 4.082
1266.627, 905.627
1267.839, 804.885
1269.052, 276.418
1270.264, 1265.291
1271.476, 363.406
1272.688, 541.699
1273.899, 1303.100
1275.111, 25.508
1276.322, 1035.672
1277.533, 891.680
1278.744, 112.996
1279.955, 1183.334
1281.165, 524.150
1282.376, 235.141
1283.586, 1096.422
1284.796, 255.521
1286.006, 710.639
1287.215, 801.059
1288.425, 147.770
1289.634, 883.408
1290.843, 584.590
1292.052, 245.779
1293.261, 1056.971
1294.469, 318.250
1295.678, 649.555
1296.886, 1120.010
1298.094, 18.750
1299.302, 932.459
1300.509, 703.639
1301.717, 103.840
1302.924, 1144.922
1304.131, 315.961
1305.338, 296.949
1306.545, 1157.885
1307.752, 78.762
1308.958, 479.568
1310.164, 1220.414
1311.370, 21.338
1312.576, 1142.545
1313.782, 633.895
1314.987, 84.836
1316.193, 1162.639
1317.398, 363.947
1318.603, 475.426
1319.807, 957.061
1321.012, 10.051
1322.216, 891.562
1323.421, 711.902
1324.625, 13.494
1325.829, 1145.121
1327.032, 647.000
1328.236, 319.441
1329.439, 1050.082
1330.642, 30.654
1331.845, 661.160
1333.048, 750.400
1334.251, 47.750
1335.453, 1027.488
1336.656, 267.088
1337.858, 182.852
1339.060, 1265.830
1340.261, 14.443
1341.463, 628.424
1342.664, 1086.377
1343.866, 54.701
1345.067, 1011.727
1346.267, 787.268
1347.468, 203.547
1348.669, 1041.434
1349.869, 587.539
1351.069, 314.498
1352.269, 1175.293
1353.469, 14.754
1354.668, 776.885
1355.868, 914.957
1357.067, 60.096
1358.266, 858.570
1359.465, 446.145
1360.664, 4.844
1361.862, 975.281
1363.061, 51.246
1364.259, 142.139
1365.457, 0.000
##END=



