##NAMES=Fluorophlogopite
##RRUFFID=R040039
##IDEAL CHEMISTRY=KMg_3_(Si_3_Al)O_10_F_2_
##LOCALITY=Franklin, Sussex County, New Jersey, USA
##OWNER=RRUFF
##SOURCE=University of Arizona Mineral Museum
##DESCRIPTION=Brown hexagonal sheets
##STATUS=The identification of this mineral has been confirmed by X-ray diffraction and chemical analysis
##URL=rruff.info/R040039
##MEASURED CHEMISTRY=(K_0.92_Na_0.06_[box]_0.02_)_Σ=1_(Mg_2.94_Fe_0.04_Ti_0.02_)_Σ=3_(Si_2.98_Al_1.02_)O_10_(F_1.24_(OH)_0.76_)_Σ=2_; OH estimated by charge balance
##PIN_ID=M00363
##ORIENTATION=Laser parallel to c* (0 0 1). Fiducial mark perpendicular to laser is parallel to b [0 1 0]
68.253, 0.000
69.651, 23.462
71.048, 40.952
72.445, 26.293
73.842, 279.900
75.239, 1391.477
76.635, 1715.244
78.031, 1918.583
79.427, 2073.409
80.823, 3143.779
82.218, 4239.826
83.614, 5448.990
85.009, 6057.111
86.404, 6868.425
87.798, 7776.492
89.193, 8585.211
90.587, 9656.275
91.981, 9916.101
93.375, 10593.156
94.768, 10855.277
96.161, 11227.536
97.554, 11372.215
98.947, 11702.748
100.340, 11990.688
101.732, 11658.681
103.124, 11549.438
104.516, 11112.716
105.908, 10801.312
107.300, 9919.063
108.691, 8954.854
110.082, 8464.750
111.473, 7965.807
112.864, 7238.217
114.254, 7128.672
115.644, 8391.708
117.034, 8511.557
118.424, 6848.175
119.813, 5856.701
121.203, 5313.254
122.592, 4723.927
123.981, 4154.814
125.369, 3900.990
126.758, 3385.524
128.146, 3022.475
129.534, 2775.895
130.922, 2711.843
132.309, 2398.391
133.696, 2159.590
135.083, 1804.464
136.470, 1911.031
137.857, 1977.307
139.243, 1829.308
140.630, 1411.045
142.016, 1253.536
143.401, 1187.790
144.787, 1093.817
146.172, 902.629
147.557, 713.238
148.942, 516.349
150.327, 385.675
151.711, 442.254
153.096, 476.881
154.480, 351.396
155.863, 174.376
157.247, 277.141
158.630, 420.260
160.013, 676.366
161.396, 732.109
162.779, 925.646
164.161, 944.165
165.544, 869.929
166.926, 986.119
168.308, 1024.614
169.689, 1187.398
171.070, 1266.444
172.452, 1426.739
173.833, 1718.272
175.213, 1763.031
176.594, 2227.002
177.974, 2454.171
179.354, 2979.318
180.734, 4233.061
182.114, 4603.763
183.493, 5847.618
184.872, 7688.623
186.251, 9898.770
187.630, 12992.044
189.008, 16411.445
190.387, 20891.967
191.765, 25531.764
193.143, 29942.086
194.520, 33860.875
195.898, 34685.051
197.275, 33728.414
198.652, 29931.791
200.029, 25162.133
201.405, 19712.455
202.782, 15118.750
204.158, 11431.018
205.534, 8961.259
206.909, 7176.475
208.285, 5456.663
209.660, 4431.820
211.035, 3507.950
212.410, 2746.050
213.784, 2214.121
215.159, 1857.158
216.533, 1478.163
217.907, 1148.134
219.281, 896.071
220.654, 654.979
222.027, 384.870
223.400, 339.765
224.773, 141.655
226.146, 204.532
227.518, 195.396
228.891, 41.256
230.263, 63.098
231.634, 91.097
233.006, 119.435
234.377, 134.244
235.748, 220.652
237.119, 214.262
238.490, 262.282
239.860, 252.071
241.231, 313.867
242.601, 474.866
243.970, 536.248
245.340, 556.142
246.709, 456.643
248.079, 508.800
249.448, 492.693
250.816, 512.375
252.185, 423.542
253.553, 339.303
254.921, 334.467
256.289, 122.113
257.657, 23.388
259.024, 267.699
260.391, 371.217
261.758, 705.331
263.125, 1122.729
264.492, 1458.617
265.858, 2322.266
267.224, 2937.153
268.590, 3504.152
269.956, 4319.506
271.321, 5949.479
272.687, 7539.414
274.052, 9153.595
275.416, 10684.578
276.781, 12466.549
278.146, 12710.482
279.510, 12076.338
280.874, 10639.094
282.237, 9383.752
283.601, 7531.311
284.964, 5601.777
286.327, 4472.154
287.690, 4043.443
289.053, 3330.650
290.416, 2995.776
291.778, 3014.825
293.140, 2834.797
294.502, 2794.694
295.863, 2904.520
297.225, 3254.274
298.586, 3463.337
299.947, 4142.572
301.308, 4332.119
302.668, 4930.598
304.029, 5702.008
305.389, 6746.354
306.749, 7696.635
308.108, 8828.851
309.468, 10097.228
310.827, 11107.562
312.186, 12044.345
313.545, 12612.738
314.903, 13362.798
316.262, 13615.109
317.620, 13762.824
318.978, 14268.102
320.336, 14275.133
321.693, 14108.753
323.051, 13605.516
324.408, 12925.718
325.765, 11703.609
327.121, 11058.829
328.478, 9549.850
329.834, 8650.853
331.190, 7599.832
332.546, 6678.789
333.902, 5964.230
335.257, 5323.625
336.612, 4697.502
337.967, 4150.352
339.322, 3704.169
340.677, 3311.955
342.031, 3115.708
343.385, 2898.428
344.739, 2593.111
346.093, 2463.759
347.446, 2310.369
348.799, 2245.941
350.153, 2120.476
351.505, 2096.970
352.858, 2064.422
354.210, 2022.832
355.563, 2067.199
356.915, 2087.909
358.267, 2132.694
359.618, 2279.018
360.969, 2278.189
362.321, 2532.311
363.672, 2655.379
365.022, 2978.395
366.373, 3262.360
367.723, 3600.291
369.073, 3961.360
370.423, 4165.393
371.773, 3967.626
373.122, 3620.104
374.471, 3393.658
375.821, 2975.295
377.169, 2593.742
378.518, 2353.934
379.866, 2023.625
381.215, 1807.861
382.563, 1642.852
383.910, 1558.821
385.258, 1552.368
386.605, 1343.250
387.952, 1404.482
389.299, 1274.527
390.646, 1442.629
391.992, 1190.710
393.339, 1163.842
394.685, 1246.425
396.031, 1174.584
397.376, 1145.132
398.722, 1051.215
400.067, 1111.812
401.412, 995.223
402.757, 938.607
404.101, 1007.066
405.446, 801.266
406.790, 678.086
408.134, 674.568
409.478, 581.214
410.821, 569.748
412.165, 457.739
413.508, 232.581
414.851, 255.898
416.193, 158.651
417.536, 165.357
418.878, 156.121
420.220, 67.578
421.562, 167.297
422.904, 79.186
424.245, 143.380
425.586, 128.862
426.927, 195.935
428.268, 302.839
429.609, 190.733
430.949, 249.481
432.289, 343.933
433.629, 492.431
434.969, 323.532
436.309, 572.407
437.648, 611.837
438.987, 861.294
440.326, 802.466
441.665, 862.478
443.003, 988.515
444.342, 1182.784
445.680, 1271.986
447.018, 1606.104
448.355, 1784.146
449.693, 1896.115
451.030, 2114.011
452.367, 2302.834
453.704, 2431.586
455.041, 2098.263
456.377, 2040.869
457.713, 1805.403
459.049, 1686.863
460.385, 1481.254
461.721, 1403.571
463.056, 1326.817
464.391, 1178.992
465.726, 1225.096
467.061, 935.328
468.395, 687.090
469.730, 365.979
471.064, 361.795
472.398, 8.461
473.731, 35.868
475.065, 240.439
476.398, 137.280
477.731, 149.338
479.064, 148.615
480.397, 153.109
481.729, 13.821
483.062, 41.675
484.394, 138.318
485.725, 294.234
487.057, 384.089
488.389, 468.888
489.720, 672.633
491.051, 886.324
492.382, 1150.962
493.712, 1449.545
495.043, 1683.073
496.373, 1855.549
497.703, 2123.971
499.032, 2209.337
500.362, 2278.651
501.691, 2206.910
503.020, 2287.117
504.349, 2184.270
505.678, 2364.369
507.007, 2246.414
508.335, 2283.406
509.663, 2222.345
510.991, 2330.231
512.319, 2217.064
513.646, 2004.844
514.973, 1850.570
516.300, 1573.243
517.627, 1390.864
518.954, 1230.765
520.280, 1026.421
521.607, 938.415
522.933, 694.826
524.259, 562.187
525.584, 405.496
526.910, 382.755
528.235, 335.962
529.560, 153.117
530.885, 268.210
532.209, 106.246
533.534, 47.218
534.858, 166.112
536.182, 91.948
537.506, 48.717
538.829, 135.410
540.152, 180.071
541.476, 43.676
542.799, 200.212
544.121, 15.724
545.444, 191.200
546.766, 60.620
548.088, 150.974
549.410, 135.270
550.732, 240.524
552.053, 294.742
553.375, 284.919
554.696, 224.119
556.017, 163.307
557.337, 325.495
558.658, 260.704
559.978, 308.943
561.298, 171.217
562.618, 191.553
563.938, 197.928
565.257, 254.384
566.576, 203.948
567.895, 149.643
569.214, 274.443
570.533, 340.357
571.851, 232.379
573.170, 207.146
574.488, 232.731
575.805, 111.910
577.123, 44.734
578.440, 47.538
579.758, 102.625
581.075, 26.578
582.391, 81.017
583.708, 17.886
585.024, 61.234
586.341, 44.354
587.657, 61.732
588.972, 61.251
590.288, 74.163
591.603, 60.652
592.918, 40.092
594.233, 38.218
595.548, 13.033
596.863, 6.559
598.177, 17.368
599.491, 150.454
600.805, 125.497
602.119, 290.497
603.432, 287.459
604.746, 321.384
606.059, 460.271
607.372, 523.123
608.685, 713.939
609.997, 788.719
611.309, 766.464
612.621, 1033.173
613.933, 1084.847
615.245, 1403.486
616.557, 1516.092
617.868, 1796.664
619.179, 2017.201
620.490, 2279.706
621.801, 2483.178
623.111, 2941.616
624.421, 3128.023
625.731, 3582.398
627.041, 3801.740
628.351, 4510.828
629.660, 4734.863
630.970, 5215.353
632.279, 6004.132
633.588, 6064.084
634.896, 6489.527
636.205, 6677.241
637.513, 7240.027
638.821, 7146.576
640.129, 7416.907
641.437, 7380.535
642.744, 7499.152
644.051, 7538.628
645.358, 7552.463
646.665, 7829.432
647.972, 7775.377
649.278, 7961.307
650.584, 8113.217
651.890, 8393.107
653.196, 8810.982
654.502, 9127.834
655.807, 9675.673
657.113, 10070.011
658.418, 10428.288
659.722, 11054.077
661.027, 11428.841
662.331, 12068.590
663.636, 13168.324
664.940, 14454.040
666.244, 15287.742
667.547, 16946.428
668.851, 18405.098
670.154, 20916.746
671.457, 23195.385
672.760, 25948.008
674.062, 30059.619
675.365, 33356.219
676.667, 38006.797
677.969, 41589.363
679.271, 45367.914
680.572, 48377.453
681.874, 49236.121
683.175, 50521.883
684.476, 49763.363
685.777, 47107.672
687.077, 44555.918
688.378, 40774.910
689.678, 37745.699
690.978, 34139.238
692.278, 30677.678
693.577, 26132.271
694.877, 24053.977
696.176, 20244.449
697.475, 17876.143
698.774, 15167.591
700.072, 13113.373
701.371, 11475.580
702.669, 10000.241
703.967, 8690.455
705.265, 7884.891
706.562, 7173.548
707.860, 6196.564
709.157, 5514.083
710.454, 5260.391
711.751, 4536.319
713.047, 4325.770
714.344, 4090.197
715.640, 3739.092
716.936, 3418.662
718.232, 3225.812
719.527, 3410.218
720.823, 2984.018
722.118, 2905.231
723.413, 2900.898
724.708, 2702.453
726.002, 2745.270
727.297, 2776.566
728.591, 2521.312
729.885, 2648.948
731.179, 2771.685
732.472, 2559.810
733.766, 2492.451
735.059, 2535.921
736.352, 2432.022
737.645, 2465.224
738.937, 2479.239
740.230, 2481.248
741.522, 2369.573
742.814, 2370.980
744.106, 2400.312
745.397, 2271.355
746.689, 2405.309
747.980, 2115.781
749.271, 1970.570
750.562, 1975.504
751.853, 2066.798
753.143, 1861.983
754.433, 1773.371
755.723, 1711.838
757.013, 1606.194
758.303, 1566.122
759.592, 1480.274
760.881, 1469.313
762.170, 1480.346
763.459, 1422.373
764.748, 1484.395
766.036, 1299.411
767.325, 1598.421
768.613, 1394.426
769.901, 1466.426
771.188, 1425.421
772.476, 1456.412
773.763, 1514.397
775.050, 1452.379
776.337, 1679.356
777.624, 1593.329
778.910, 1717.299
780.196, 1819.266
781.482, 1845.229
782.768, 1843.188
784.054, 1805.145
785.339, 1851.102
786.625, 1873.093
787.910, 1753.131
789.195, 1934.266
790.479, 1892.471
791.764, 1887.750
793.048, 2010.763
794.332, 1849.228
795.616, 1929.692
796.900, 1972.202
798.183, 1826.721
799.467, 1626.240
800.750, 1558.758
802.033, 1480.284
803.316, 1310.909
804.598, 1264.653
805.880, 1139.365
807.163, 1084.445
808.445, 956.954
809.726, 817.462
811.008, 779.969
812.289, 816.474
813.570, 641.979
814.851, 721.484
816.132, 665.987
817.413, 554.489
818.693, 577.991
819.973, 559.491
821.253, 461.992
822.533, 416.492
823.813, 520.992
825.092, 428.491
826.371, 322.989
827.650, 362.488
828.929, 165.987
830.208, 214.484
831.486, 262.981
832.764, 112.479
834.042, 55.976
835.320, 9.473
836.598, 0.032
837.875, 50.461
839.152, 34.954
840.429, 48.449
841.706, 67.530
842.983, 13.455
844.259, 86.999
845.536, 31.521
846.812, 25.081
848.088, 70.649
849.363, 119.770
850.639, 6.763
851.914, 13.701
853.189, 131.159
854.464, 179.671
855.739, 38.746
857.013, 143.178
858.288, 23.622
859.562, 68.928
860.836, 44.501
862.110, 29.088
863.383, 163.687
864.656, 7.666
865.930, 38.978
867.203, 23.634
868.475, 77.299
869.748, 27.949
871.020, 167.612
872.292, 12.348
873.564, 9.914
874.836, 24.820
876.108, 109.564
877.379, 111.354
878.650, 74.231
879.922, 41.032
881.192, 56.052
882.463, 76.172
883.733, 131.303
885.004, 97.438
886.274, 21.419
887.544, 67.721
888.813, 43.841
890.083, 149.051
891.352, 129.234
892.621, 191.467
893.890, 261.719
895.159, 119.000
896.427, 162.307
897.695, 115.643
898.964, 246.027
900.232, 342.460
901.499, 182.920
902.767, 247.406
904.034, 181.914
905.301, 221.434
906.568, 247.960
907.835, 337.495
909.102, 304.036
910.368, 186.582
911.634, 204.132
912.900, 271.707
914.166, 147.289
915.432, 363.875
916.697, 244.466
917.962, 170.058
919.227, 375.657
920.492, 277.259
921.757, 197.864
923.021, 290.472
924.285, 296.087
925.550, 214.705
926.813, 200.340
928.077, 250.989
929.341, 132.644
930.604, 176.305
931.867, 271.974
933.130, 77.647
934.393, 151.319
935.655, 322.993
936.918, 116.665
938.180, 278.340
939.442, 80.013
940.703, 100.685
941.965, 213.356
943.226, 129.025
944.488, 2.306
945.749, 56.353
947.009, 130.009
948.270, 142.661
949.530, 125.314
950.791, 108.962
952.051, 186.606
953.311, 67.246
954.570, 43.883
955.830, 256.514
957.089, 169.143
958.348, 213.768
959.607, 186.388
960.866, 259.003
962.124, 199.615
963.383, 220.235
964.641, 245.777
965.899, 307.479
967.156, 273.102
968.414, 380.720
969.671, 366.353
970.928, 556.942
972.185, 466.545
973.442, 590.141
974.699, 547.730
975.955, 743.313
977.211, 713.890
978.468, 622.459
979.723, 857.021
980.979, 867.577
982.234, 972.127
983.490, 981.669
984.745, 970.204
986.000, 1070.733
987.254, 1055.215
988.509, 1075.485
989.763, 1207.277
991.017, 1297.742
992.271, 1291.461
993.525, 1242.410
994.779, 1263.261
996.032, 1454.740
997.285, 1535.564
998.538, 1598.267
999.791, 1471.824
1001.044, 1983.270
1002.296, 2007.029
1003.548, 2147.376
1004.800, 1998.549
1006.052, 1942.638
1007.304, 2164.270
1008.555, 2037.520
1009.807, 1995.445
1011.058, 2014.874
1012.309, 1988.146
1013.559, 1999.639
1014.810, 1853.504
1016.060, 1696.622
1017.310, 1813.551
1018.560, 1836.403
1019.810, 1673.940
1021.060, 1612.207
1022.309, 1756.851
1023.558, 1787.915
1024.807, 1832.662
1026.056, 1958.117
1027.305, 2290.652
1028.553, 2473.260
1029.801, 3079.756
1031.049, 3438.183
1032.297, 3668.943
1033.545, 4074.107
1034.793, 4483.920
1036.040, 4332.652
1037.287, 4304.111
1038.534, 4187.977
1039.781, 3763.571
1041.027, 3651.346
1042.274, 3115.672
1043.520, 2873.392
1044.766, 2804.404
1046.012, 2636.141
1047.257, 2478.816
1048.503, 2329.212
1049.748, 2541.226
1050.993, 2340.674
1052.238, 2566.971
1053.483, 2414.485
1054.727, 2367.269
1055.971, 2443.336
1057.216, 2649.544
1058.459, 2517.182
1059.703, 2586.525
1060.947, 2653.604
1062.190, 2628.490
1063.433, 2771.849
1064.676, 2865.840
1065.919, 2969.152
1067.162, 2985.831
1068.404, 3184.894
1069.646, 3104.455
1070.888, 3066.378
1072.130, 3399.666
1073.372, 3469.486
1074.613, 3671.039
1075.855, 3951.811
1077.096, 3974.935
1078.337, 4226.985
1079.578, 4692.490
1080.818, 4641.387
1082.059, 5099.931
1083.299, 5292.903
1084.539, 5664.859
1085.779, 5803.553
1087.018, 6087.949
1088.258, 6042.460
1089.497, 6417.432
1090.736, 6366.459
1091.975, 6498.098
1093.213, 6662.072
1094.452, 6624.182
1095.690, 6770.691
1096.928, 6541.630
1098.166, 6685.068
1099.404, 6703.400
1100.642, 6815.053
1101.879, 6668.172
1103.116, 6655.417
1104.353, 6233.584
1105.590, 6028.618
1106.827, 5626.168
1108.063, 5433.395
1109.299, 4829.971
1110.536, 4475.635
1111.771, 4142.799
1113.007, 3662.710
1114.243, 3291.206
1115.478, 2998.480
1116.713, 2597.248
1117.948, 2339.645
1119.183, 2269.883
1120.418, 1850.828
1121.652, 2000.750
1122.886, 2461.820
1124.120, 2160.693
1125.354, 1718.646
1126.588, 1049.466
1127.821, 915.396
1129.055, 544.167
1130.288, 593.171
1131.521, 516.889
1132.753, 329.884
1133.986, 193.548
1135.218, 160.304
1136.450, 254.923
1137.682, 117.651
1138.914, 277.490
1140.146, 133.652
1141.377, 77.655
1142.609, 69.916
1143.840, 79.487
1145.071, 103.639
1146.301, 124.967
1147.532, 177.277
1148.762, 122.565
1149.992, 87.856
1151.222, 48.117
1152.452, 16.427
1153.682, 18.600
1154.911, 15.171
1156.140, 20.025
1157.369, 55.146
1158.598, 90.236
1159.827, 5.312
1161.055, 67.753
1162.284, 86.211
1163.512, 14.802
1164.740, 80.787
1165.967, 35.743
1167.195, 155.329
1168.422, 112.525
1169.650, 7.645
1170.877, 78.167
1172.103, 64.157
1173.330, 88.964
1174.557, 4.389
1175.783, 99.098
1177.009, 183.802
1178.235, 4.459
1179.461, 88.083
1180.686, 5.331
1181.912, 72.211
1183.137, 89.712
1184.362, 101.512
1185.587, 16.093
1186.811, 4.240
1188.036, 71.533
1189.260, 39.205
1190.484, 80.007
1191.708, 34.319
1192.932, 71.520
1194.155, 83.630
1195.378, 56.072
1196.602, 34.057
1197.825, 129.909
1199.047, 13.842
1200.270, 107.736
1201.492, 53.596
1202.715, 208.388
1203.937, 171.961
1205.159, 66.835
1206.380, 132.505
1207.602, 22.141
1208.823, 64.260
1210.044, 10.284
1211.265, 25.788
1212.486, 18.365
1213.707, 76.793
1214.927, 7.186
1216.147, 62.597
1217.367, 26.905
1218.587, 109.119
1219.807, 0.331
1221.027, 56.804
1222.246, 31.665
1223.465, 21.524
1224.684, 17.474
1225.903, 4.153
1227.121, 2.477
1228.340, 46.393
1229.558, 147.474
1230.776, 147.271
1231.994, 205.031
1233.212, 56.938
1234.429, 274.744
1235.646, 124.623
1236.864, 106.658
1238.081, 195.240
1239.297, 110.089
1240.514, 153.701
1241.730, 202.185
1242.947, 103.794
1244.163, 41.209
1245.378, 282.585
1246.594, 162.224
1247.810, 203.712
1249.025, 88.997
1250.240, 236.423
1251.455, 69.920
1252.670, 161.393
1253.885, 232.535
1255.099, 144.000
1256.313, 118.074
1257.527, 10.894
1258.741, 11.129
1259.955, 24.780
1261.168, 35.087
1262.382, 78.775
1263.595, 148.014
1264.808, 180.014
1266.021, 246.740
1267.233, 330.432
1268.446, 202.225
1269.658, 288.823
1270.870, 218.309
1272.082, 349.736
1273.294, 211.112
1274.505, 260.825
1275.716, 181.474
1276.928, 259.698
1278.139, 171.059
1279.349, 252.170
1280.560, 218.045
1281.770, 284.945
1282.981, 211.870
1284.191, 177.423
1285.401, 97.178
1286.610, 292.393
1287.820, 173.412
1289.029, 203.930
1290.239, 69.505
1291.448, 252.435
1292.656, 246.620
1293.865, 442.049
1295.073, 641.814
1296.282, 288.058
1297.490, 266.303
1298.698, 329.902
1299.906, 366.931
1301.113, 261.726
1302.320, 286.210
1303.528, 255.436
1304.735, 373.098
1305.942, 133.994
1307.148, 225.082
1308.355, 503.079
1309.561, 253.448
1310.767, 363.376
1311.973, 427.500
1313.179, 351.312
1314.384, 307.874
1315.590, 472.050
1316.795, 378.943
1318.000, 460.896
1319.205, 356.891
1320.410, 442.748
1321.614, 400.722
1322.819, 248.005
1324.023, 436.648
1325.227, 443.333
1326.431, 365.410
1327.634, 217.449
1328.838, 113.236
1330.041, 300.928
1331.244, 266.396
1332.447, 217.644
1333.650, 212.930
1334.852, 291.658
1336.055, 157.049
1337.257, 175.808
1338.459, 265.803
1339.661, 133.988
1340.862, 277.063
1342.064, 307.332
1343.265, 195.473
1344.466, 287.237
1345.667, 211.028
1346.868, 191.249
1348.068, 325.885
1349.269, 232.895
1350.469, 255.308
1351.669, 401.811
1352.869, 380.365
1354.069, 219.806
1355.268, 320.947
1356.468, 148.937
1357.667, 431.198
1358.866, 347.337
1360.065, 157.920
1361.263, 328.620
1362.462, 225.984
1363.660, 70.994
1364.858, 256.877
1366.056, 56.677
1367.254, 134.426
1368.451, 256.224
1369.649, 159.045
1370.846, 111.894
1372.043, 192.531
1373.240, 3.883
1374.436, 220.703
1375.633, 227.352
1376.829, 105.963
1378.025, 120.479
1379.221, 94.115
1380.417, 52.268
1381.613, 161.439
1382.808, 73.277
1384.003, 121.121
1385.199, 264.508
1386.393, 105.059
1387.588, 31.959
1388.783, 275.666
1389.977, 42.242
1391.171, 142.037
1392.365, 137.883
1393.559, 95.684
1394.753, 70.439
1395.946, 66.670
1397.140, 156.188
1398.333, 55.117
1399.526, 149.717
1400.719, 146.553
1401.911, 99.600
1403.104, 151.875
1404.296, 240.881
1405.488, 68.824
1406.680, 185.865
1407.872, 77.348
1409.063, 205.701
1410.255, 344.271
1411.446, 67.375
1412.637, 101.492
1413.828, 145.082
1415.018, 143.219
1416.209, 142.328
1417.399, 39.848
1418.589, 41.418
1419.779, 171.420
1420.969, 66.803
1422.159, 173.945
1423.348, 9.621
1424.537, 254.240
1425.726, 201.109
1426.915, 130.691
1428.104, 138.344
1429.293, 66.465
1430.481, 14.791
1431.669, 46.152
1432.857, 0.000
##END=



