##NAMES=Fluorapatite
##RRUFFID=R050401
##IDEAL CHEMISTRY=Ca_5_(PO_4_)_3_F
##LOCALITY=Urbano mine, Golconda District, Minas Gerais, Brazil
##OWNER=RRUFF
##SOURCE=Bob Downs
##DESCRIPTION=Pale purple hexagonal prism associated with albite R050402
##STATUS=The identification of this mineral has been confirmed by X-ray diffraction and chemical analysis
##URL=rruff.info/R050401
##MEASURED CHEMISTRY=(Ca_0.99_Mn_0.01_)_5_(P_1.00_O_4_)_3_F_1.00_
##PIN_ID=L01966
##ORIENTATION=Laser parallel to a* (1 0 0). Fiducial mark perpendicular to laser is parallel to c [0 0 1]
140.2710, 0.0000000E+00
141.5000, 0.5029300
142.7280, 23.53955
143.9560, 23.19165
145.1840, 58.66235
146.4120, 58.43506
147.6390, 17.27734
148.8670, 41.29956
150.0940, 99.59448
151.3210, 37.05762
152.5490, 35.59473
153.7750, 123.1689
155.0020, 64.21436
156.2290, 88.96387
157.4550, 11.73877
158.6810, 39.02979
159.9080, 28.92969
161.1340, 51.02539
162.3590, 60.01465
163.5850, 36.16699
164.8110, 65.35400
166.0360, 76.92139
167.2610, 81.76318
168.4860, 109.5977
169.7110, 85.74854
170.9360, 103.8833
172.1610, 109.2354
173.3850, 133.3223
174.6100, 46.38281
175.8340, 99.51807
177.0580, 129.4292
178.2820, 32.58350
179.5050, 92.91309
180.7290, 105.1479
181.9520, 90.37891
183.1760, 166.1616
184.3990, 175.2476
185.6220, 191.3403
186.8450, 53.96533
188.0670, 120.3467
189.2900, 97.32227
190.5120, 58.04053
191.7340, 79.79102
192.9560, 139.3794
194.1780, 74.49658
195.4000, 34.38232
196.6220, 17.12354
197.8430, 122.0547
199.0640, 85.97119
200.2860, 149.6626
201.5070, 174.4487
202.7270, 162.3843
203.9480, 71.96338
205.1690, 157.2119
206.3890, 136.2578
207.6090, 92.02490
208.8290, 256.5513
210.0490, 114.0205
211.2690, 83.80566
212.4890, 107.3647
213.7080, 115.2236
214.9280, 114.1821
216.1470, 76.84570
217.3660, 39.42529
218.5850, 56.94141
219.8030, 55.64990
221.0220, 41.63818
222.2400, 98.23340
223.4590, 62.85840
224.6770, 85.68994
225.8950, 175.0518
227.1120, 3.103027
228.3300, 186.3940
229.5480, 61.28320
230.7650, 146.6421
231.9820, 95.90479
233.1990, 159.8516
234.4160, 126.8247
235.6330, 147.3379
236.8490, 106.3335
238.0660, 81.44141
239.2820, 47.10498
240.4980, 16.33740
241.7140, 23.81250
242.9300, 38.10156
244.1460, 35.08203
245.3610, 44.62988
246.5770, 69.37598
247.7920, 56.20068
249.0070, 100.1245
250.2220, 108.2612
251.4370, 8.179688
252.6510, 95.91992
253.8660, 55.23779
255.0800, 157.6680
256.2940, 120.7886
257.5080, 19.32422
258.7220, 123.5420
259.9360, 116.5215
261.1490, 172.2446
262.3630, 79.80713
263.5760, 36.13135
264.7890, 79.91650
266.0020, 133.0767
267.2150, 119.7290
268.4270, 141.0161
269.6400, 176.4370
270.8520, 110.3169
272.0640, 112.0430
273.2760, 145.0220
274.4880, 96.75635
275.7000, 154.0464
276.9120, 102.5400
278.1230, 128.5449
279.3340, 119.9165
280.5450, 172.4927
281.7560, 139.8350
282.9670, 172.1470
284.1780, 151.9131
285.3880, 142.6113
286.5980, 133.7002
287.8090, 107.1660
289.0190, 151.8999
290.2290, 167.6182
291.4380, 123.3071
292.6480, 99.95898
293.8570, 70.56055
295.0670, 181.1553
296.2760, 118.6777
297.4850, 180.1562
298.6930, 90.58838
299.9020, 191.0835
301.1110, 33.41650
302.3190, 120.7549
303.5270, 170.9229
304.7350, 123.0986
305.9430, 142.4111
307.1510, 130.9766
308.3580, 101.3271
309.5660, 64.29443
310.7730, 86.57031
311.9800, 106.1504
313.1870, 82.02148
314.3940, 82.64404
315.6010, 64.81494
316.8070, 46.98389
318.0130, 27.14502
319.2200, 56.22803
320.4260, 62.64062
321.6310, 65.80518
322.8370, 59.20215
324.0430, 69.22510
325.2480, 95.28662
326.4540, 72.42432
327.6590, 80.33789
328.8640, 20.32861
330.0680, 69.24512
331.2730, 33.75732
332.4780, 113.6963
333.6820, 15.99316
334.8860, 126.8467
336.0900, 88.85254
337.2940, 28.62061
338.4980, 21.63184
339.7010, 62.83105
340.9050, 24.64111
342.1080, 22.27246
343.3110, 109.2886
344.5140, 61.94092
345.7170, 19.99951
346.9200, 19.84766
348.1220, 5.132324
349.3240, 47.60547
350.5270, 22.73486
351.7290, 88.94775
352.9310, 43.53271
354.1320, 22.06152
355.3340, 61.83643
356.5350, 114.4268
357.7370, 42.85156
358.9380, 93.47949
360.1390, 13.82324
361.3400, 66.02881
362.5400, 125.0083
363.7410, 17.05371
364.9410, 32.31152
366.1410, 13.61816
367.3410, 91.79297
368.5410, 109.4019
369.7410, 19.37891
370.9400, 72.53027
372.1400, 51.94824
373.3390, 106.0020
374.5380, 77.06396
375.7370, 5.010742
376.9360, 88.80811
378.1350, 153.3594
379.3330, 8.859375
380.5310, 146.5000
381.7300, 77.76611
382.9280, 30.23975
384.1260, 84.78955
385.3230, 47.16602
386.5210, 137.5962
387.7180, 81.46338
388.9160, 124.0029
390.1130, 32.51562
391.3100, 42.41211
392.5060, 33.08984
393.7030, 89.32959
394.9000, 75.34082
396.0960, 113.4580
397.2920, 109.9414
398.4880, 77.09619
399.6840, 44.51904
400.8800, 2.876465
402.0750, 27.32275
403.2710, 160.8398
404.4660, 111.7383
405.6610, 168.3984
406.8560, 154.8984
408.0510, 123.8828
409.2450, 63.59375
410.4400, 149.1396
411.6340, 204.0615
412.8280, 239.7314
414.0220, 211.6035
415.2160, 219.5244
416.4100, 134.8311
417.6030, 276.9668
418.7970, 245.4902
419.9900, 294.6562
421.1830, 418.9297
422.3760, 614.3613
423.5690, 666.3271
424.7610, 749.7344
425.9540, 817.6338
427.1460, 799.6045
428.3380, 863.5654
429.5300, 822.9424
430.7220, 788.4229
431.9140, 720.1162
433.1050, 558.3018
434.2970, 481.5020
435.4880, 441.3545
436.6790, 421.7070
437.8700, 288.5156
439.0610, 350.1055
440.2510, 328.6221
441.4420, 387.0947
442.6320, 271.1270
443.8220, 367.5107
445.0120, 284.1152
446.2020, 422.0703
447.3910, 475.1699
448.5810, 254.0010
449.7700, 181.8457
450.9600, 221.5732
452.1490, 328.1094
453.3370, 215.4277
454.5260, 130.7695
455.7150, 54.12207
456.9030, 78.52930
458.0910, 175.0654
459.2800, 164.8926
460.4670, 154.7012
461.6550, 161.2715
462.8430, 62.98340
464.0300, 124.6504
465.2180, 51.25586
466.4050, 103.7559
467.5920, 105.5029
468.7790, 74.00293
469.9650, 115.4678
471.1520, 85.48340
472.3380, 89.62305
473.5250, 174.0635
474.7110, 54.18945
475.8970, 12.14941
477.0820, 57.69922
478.2680, 237.3477
479.4540, 107.8594
480.6390, 154.1963
481.8240, 153.5039
483.0090, 25.41992
484.1940, 128.1309
485.3780, 150.1865
486.5630, 19.56348
487.7470, 114.0234
488.9320, 78.90527
490.1160, 102.9150
491.3000, 7.369141
492.4830, 154.0713
493.6670, 3.443359
494.8500, 2.546875
496.0340, 142.8301
497.2170, 71.03711
498.4000, 95.34082
499.5820, 130.6729
500.7650, 69.74512
501.9480, 125.4238
503.1300, 125.2529
504.3120, 126.6465
505.4940, 141.0215
506.6760, 36.96777
507.8580, 65.16797
509.0390, 37.40430
510.2210, 167.9746
511.4020, 88.79492
512.5830, 52.62109
513.7640, 96.78711
514.9450, 48.56738
516.1250, 15.88379
517.3060, 47.26855
518.4860, 49.78711
519.6660, 111.9102
520.8460, 46.15723
522.0260, 128.1406
523.2060, 125.1943
524.3850, 149.2959
525.5650, 79.20898
526.7440, 183.9834
527.9230, 160.7412
529.1020, 55.94238
530.2810, 110.2051
531.4590, 40.47949
532.6380, 33.60840
533.8160, 91.94434
534.9940, 53.05566
536.1720, 55.35254
537.3500, 124.7998
538.5270, 53.84473
539.7050, 72.81543
540.8820, 88.32422
542.0590, 59.41406
543.2360, 154.1436
544.4130, 20.41211
545.5900, 126.3945
546.7660, 36.39844
547.9430, 6.182617
549.1190, 6.825195
550.2950, 67.04199
551.4710, 6.509766
552.6470, 31.01172
553.8220, 75.90430
554.9980, 47.30859
556.1730, 196.7461
557.3480, 90.59668
558.5230, 150.6621
559.6980, 236.3652
560.8730, 126.4072
562.0470, 48.12695
563.2220, 17.90332
564.3960, 101.7314
565.5700, 30.57715
566.7440, 130.6758
567.9170, 113.9404
569.0910, 12.51660
570.2640, 202.9443
571.4380, 153.6309
572.6110, 62.73633
573.7840, 213.5020
574.9570, 210.8350
576.1290, 234.2129
577.3020, 367.5840
578.4740, 174.7871
579.6460, 335.5781
580.8180, 261.3115
581.9900, 329.7207
583.1620, 469.1992
584.3330, 481.2881
585.5040, 588.8906
586.6760, 562.1416
587.8470, 651.7334
589.0180, 862.9336
590.1880, 888.9199
591.3590, 706.9902
592.5290, 658.6133
593.7000, 387.3789
594.8700, 457.1748
596.0400, 474.7344
597.2090, 205.5186
598.3790, 289.9463
599.5490, 119.2812
600.7180, 646.2432
601.8870, 367.5693
603.0560, 396.7715
604.2250, 361.8926
605.3940, 348.3379
606.5620, 368.1309
607.7300, 261.2969
608.8990, 364.9502
610.0670, 295.4795
611.2350, 153.8936
612.4020, 256.1416
613.5700, 245.2578
614.7370, 250.6309
615.9050, 129.9473
617.0720, 73.72559
618.2390, 180.5996
619.4060, 159.3096
620.5720, 236.5771
621.7390, 75.46387
622.9050, 223.1182
624.0710, 168.5938
625.2370, 363.7061
626.4030, 111.2266
627.5690, 263.8418
628.7340, 72.84375
629.9000, 87.91309
631.0650, 89.53516
632.2300, 117.8252
633.3950, 115.5479
634.5600, 77.12500
635.7240, 127.6924
636.8890, 107.1943
638.0530, 135.3232
639.2170, 162.3418
640.3810, 127.6680
641.5450, 54.96094
642.7080, 296.1973
643.8720, 269.1504
645.0350, 76.21973
646.1980, 24.53418
647.3610, 209.0479
648.5240, 11.77930
649.6870, 164.7275
650.8490, 104.8447
652.0120, 201.6855
653.1740, 188.2236
654.3360, 241.3457
655.4980, 150.2227
656.6600, 92.98242
657.8210, 140.2773
658.9830, 130.1895
660.1440, 148.1455
661.3050, 36.14746
662.4660, 151.4180
663.6270, 295.5713
664.7870, 141.8936
665.9480, 106.4824
667.1080, 289.1445
668.2680, 262.9229
669.4280, 175.1543
670.5880, 188.0059
671.7480, 352.9961
672.9070, 29.25293
674.0670, 130.0723
675.2260, 179.6406
676.3850, 32.76562
677.5440, 126.9541
678.7030, 123.1553
679.8610, 183.8604
681.0200, 223.3213
682.1780, 51.94824
683.3360, 111.3867
684.4940, 83.80176
685.6520, 202.5439
686.8090, 229.4521
687.9670, 245.6680
689.1240, 145.9785
690.2810, 257.7305
691.4380, 66.29883
692.5950, 14.02344
693.7520, 149.0371
694.9080, 94.82812
696.0650, 226.4531
697.2210, 72.41992
698.3770, 53.14844
699.5330, 154.7441
700.6880, 73.40430
701.8440, 104.3496
702.9990, 223.6406
704.1550, 156.1250
705.3100, 315.5938
706.4650, 258.0859
707.6190, 173.2812
708.7740, 172.4785
709.9290, 101.3086
711.0830, 22.55273
712.2370, 54.20898
713.3910, 133.0430
714.5450, 104.7617
715.6980, 90.13477
716.8520, 102.8887
718.0050, 190.4160
719.1580, 195.1641
720.3110, 61.33789
721.4640, 223.9629
722.6170, 275.3086
723.7700, 162.1016
724.9220, 215.7520
726.0740, 132.3594
727.2260, 208.4258
728.3780, 198.1543
729.5300, 88.85742
730.6810, 21.69141
731.8330, 35.86328
732.9840, 136.1152
734.1350, 91.28711
735.2860, 177.9785
736.4370, 274.9199
737.5880, 137.3770
738.7380, 15.42773
739.8880, 83.65039
741.0390, 103.4844
742.1890, 37.05469
743.3380, 217.4258
744.4880, 276.0234
745.6380, 229.8789
746.7870, 370.8672
747.9360, 318.6152
749.0850, 131.4316
750.2340, 123.2090
751.3830, 141.8828
752.5310, 149.9258
753.6800, 261.3613
754.8280, 73.00586
755.9760, 121.1934
757.1240, 83.32617
758.2720, 286.5742
759.4190, 173.2539
760.5670, 210.0742
761.7140, 316.0293
762.8610, 284.2910
764.0080, 192.7500
765.1550, 225.2656
766.3020, 245.4277
767.4480, 19.35352
768.5950, 67.92578
769.7410, 222.5742
770.8870, 294.5645
772.0330, 301.2207
773.1780, 295.9473
774.3240, 294.0488
775.4690, 293.8555
776.6140, 325.6562
777.7590, 61.02539
778.9040, 198.3438
780.0490, 248.5039
781.1940, 76.29297
782.3380, 256.3867
783.4820, 37.53125
784.6260, 229.8398
785.7700, 374.3613
786.9140, 38.37695
788.0580, 191.4277
789.2010, 161.0254
790.3450, 180.2148
791.4880, 305.6777
792.6310, 75.56055
793.7730, 29.93750
794.9160, 173.2676
796.0590, 252.1641
797.2010, 72.33594
798.3430, 190.5957
799.4850, 193.7969
800.6270, 1.103516
801.7690, 168.9160
802.9100, 260.6211
804.0520, 106.9961
805.1930, 276.9492
806.3340, 76.76758
807.4750, 172.2285
808.6160, 368.3438
809.7560, 90.56055
810.8970, 218.1699
812.0370, 347.0527
813.1770, 48.07812
814.3170, 244.3047
815.4570, 150.9629
816.5960, 68.52930
817.7360, 96.27344
818.8750, 213.1113
820.0140, 131.6523
821.1530, 177.8789
822.2920, 206.9219
823.4310, 227.3926
824.5690, 279.9277
825.7070, 136.4707
826.8460, 22.47070
827.9840, 173.9473
829.1220, 58.50000
830.2590, 182.7617
831.3970, 199.5176
832.5340, 128.9805
833.6710, 161.9258
834.8080, 259.1621
835.9450, 117.2148
837.0820, 210.6602
838.2190, 271.6992
839.3550, 144.8301
840.4910, 169.4004
841.6270, 311.8828
842.7630, 290.4316
843.8990, 307.0234
845.0350, 148.2012
846.1700, 337.3145
847.3060, 167.0684
848.4410, 197.4102
849.5760, 284.8047
850.7100, 296.8398
851.8450, 143.7773
852.9800, 83.16797
854.1140, 67.81250
855.2480, 78.49414
856.3820, 68.49219
857.5160, 113.2852
858.6500, 90.12305
859.7830, 197.8809
860.9170, 213.1270
862.0500, 204.8711
863.1830, 314.8457
864.3160, 138.0781
865.4480, 125.2012
866.5810, 371.3398
867.7130, 489.4883
868.8460, 315.6270
869.9780, 173.3047
871.1100, 268.6758
872.2410, 82.75195
873.3730, 252.7656
874.5050, 160.1465
875.6360, 473.7207
876.7670, 141.7598
877.8980, 184.8203
879.0290, 4.421875
880.1590, 140.8672
881.2900, 368.5234
882.4200, 191.4141
883.5500, 78.12695
884.6800, 232.7012
885.8100, 88.62695
886.9400, 192.6816
888.0690, 20.91016
889.1990, 209.8379
890.3280, 150.1348
891.4570, 89.69141
892.5860, 182.3691
893.7140, 11.66211
894.8430, 88.06055
895.9710, 100.2480
897.1000, 191.5293
898.2280, 78.19727
899.3560, 142.5332
900.4830, 130.7109
901.6110, 111.8242
902.7380, 196.9629
903.8660, 73.75977
904.9930, 51.01562
906.1200, 167.7988
907.2460, 38.14062
908.3730, 188.8379
909.5000, 99.74219
910.6260, 130.5859
911.7520, 249.3770
912.8780, 147.2500
914.0040, 211.4180
915.1290, 158.0801
916.2550, 230.4805
917.3800, 110.0469
918.5050, 125.3770
919.6300, 117.4609
920.7550, 128.6113
921.8800, 97.21875
923.0040, 159.2070
924.1290, 47.05078
925.2530, 124.7148
926.3770, 286.4102
927.5010, 201.5840
928.6250, 87.32227
929.7480, 164.4590
930.8720, 62.84375
931.9950, 172.5059
933.1180, 5.263672
934.2410, 291.5566
935.3640, 152.8242
936.4860, 20.07031
937.6090, 193.1289
938.7310, 102.4199
939.8530, 308.1836
940.9750, 230.4609
942.0970, 207.7285
943.2180, 64.48438
944.3400, 157.4785
945.4610, 226.2285
946.5820, 331.0645
947.7030, 359.4023
948.8240, 468.1270
949.9450, 285.9629
951.0650, 405.3711
952.1860, 467.2402
953.3060, 397.3008
954.4260, 503.8613
955.5460, 764.0723
956.6650, 1109.443
957.7850, 1494.902
958.9040, 2241.412
960.0230, 3119.105
961.1420, 4404.160
962.2610, 5991.908
963.3800, 7059.055
964.4990, 6709.457
965.6170, 5789.588
966.7350, 4550.754
967.8530, 3229.594
968.9710, 2169.902
970.0890, 1235.225
971.2070, 1005.924
972.3240, 406.9844
973.4410, 492.2695
974.5580, 385.9961
975.6750, 29.39258
976.7920, 56.34961
977.9090, 293.2109
979.0250, 242.4668
980.1410, 255.0293
981.2580, 302.3438
982.3740, 32.92383
983.4890, 246.5977
984.6050, 13.39453
985.7200, 74.59766
986.8360, 302.3809
987.9510, 126.1172
989.0660, 213.9844
990.1810, 335.9121
991.2950, 131.7324
992.4100, 67.87500
993.5240, 248.8633
994.6390, 158.5605
995.7530, 76.03711
996.8660, 189.4512
997.9800, 160.2969
999.0940, 163.3770
1000.207, 51.38281
1001.320, 135.1465
1002.433, 316.8867
1003.546, 133.6016
1004.659, 331.7129
1005.772, 55.19922
1006.884, 392.8301
1007.996, 196.2012
1009.108, 248.1621
1010.220, 140.7168
1011.332, 228.5625
1012.444, 259.5703
1013.555, 112.6797
1014.666, 103.4629
1015.777, 23.10352
1016.888, 124.8008
1017.999, 148.1367
1019.110, 68.17188
1020.220, 10.55664
1021.331, 34.36719
1022.441, 11.66797
1023.551, 179.4941
1024.661, 130.4824
1025.770, 30.37500
1026.880, 103.1230
1027.989, 307.3203
1029.098, 353.3184
1030.207, 359.4062
1031.316, 229.8828
1032.425, 215.7422
1033.533, 396.0176
1034.642, 372.2305
1035.750, 421.3633
1036.858, 241.8887
1037.966, 264.7383
1039.073, 159.4297
1040.181, 474.8398
1041.288, 708.3516
1042.396, 479.8594
1043.503, 569.9766
1044.610, 266.2227
1045.716, 194.9492
1046.823, 198.2422
1047.929, 394.7930
1049.036, 556.1211
1050.142, 478.7383
1051.248, 700.8477
1052.353, 842.0117
1053.459, 733.9219
1054.564, 876.0938
1055.670, 626.1211
1056.775, 664.4102
1057.880, 285.8125
1058.985, 415.9453
1060.089, 300.6602
1061.194, 90.10547
1062.298, 209.4570
1063.402, 130.7656
1064.506, 153.4961
1065.610, 277.8320
1066.713, 380.0703
1067.817, 110.7344
1068.920, 96.98438
1070.023, 352.8242
1071.126, 17.25391
1072.229, 99.78906
1073.332, 266.4258
1074.435, 150.0117
1075.537, 62.50000
1076.639, 362.3164
1077.741, 377.6016
1078.843, 677.1719
1079.945, 490.7734
1081.046, 390.3633
1082.148, 501.9492
1083.249, 565.5352
1084.350, 461.3711
1085.451, 357.6836
1086.551, 279.2617
1087.652, 309.8320
1088.752, 174.3984
1089.853, 169.9609
1090.953, 184.5195
1092.053, 120.0781
1093.152, 216.6289
1094.252, 153.1797
1095.351, 220.7422
1096.451, 126.3047
1097.550, 34.86328
1098.649, 130.4258
1099.748, 101.9844
1100.846, 20.45703
1101.945, 17.08594
1103.043, 306.6250
1104.141, 35.16406
1105.239, 23.70703
1106.337, 203.2461
1107.434, 167.2148
1108.532, 64.97656
1109.629, 27.21875
1110.726, 79.18750
1111.823, 160.5898
1112.920, 325.9961
1114.017, 208.3984
1115.113, 21.66016
1116.210, 124.0664
1117.306, 141.1328
1118.402, 25.88281
1119.498, 52.48438
1120.593, 386.6836
1121.689, 445.0664
1122.784, 296.4570
1123.879, 50.69531
1124.974, 136.6758
1126.069, 22.79688
1127.164, 193.5742
1128.259, 238.6133
1129.353, 184.0156
1130.447, 339.4219
1131.541, 173.8281
1132.635, 30.70703
1133.729, 90.05859
1134.822, 146.4766
1135.916, 134.8477
1137.009, 342.2773
1138.102, 232.3125
1139.195, 238.7539
1140.288, 96.19922
1141.380, 276.6523
1142.473, 70.11328
1143.565, 136.5781
1144.657, 239.0508
1145.749, 105.4922
1146.841, 59.90234
1147.932, 357.8438
1149.024, 217.3594
1150.115, 34.88281
1151.206, 433.2148
1152.297, 101.3398
1153.388, 276.3164
1154.479, 231.5742
1155.569, 194.1484
1156.659, 133.9766
1157.750, 127.1289
1158.839, 86.74219
1159.929, 137.4609
1161.019, 29.15234
1162.108, 90.85938
1163.198, 58.33984
1164.287, 101.7539
1165.376, 192.5000
1166.465, 145.5156
1167.553, 315.5820
1168.642, 193.3672
1169.730, 125.7578
1170.818, 298.5000
1171.906, 71.34375
1172.994, 504.2539
1174.082, 221.1406
1175.170, 199.0664
1176.257, 536.9805
1177.344, 174.9023
1178.431, 292.8359
1179.518, 255.7852
1180.605, 524.7422
1181.691, 215.7188
1182.778, 330.7031
1183.864, 71.29688
1184.950, 274.6797
1186.036, 197.6719
1187.122, 200.6836
1188.207, 253.7070
1189.292, 240.9375
1190.378, 259.7852
1191.463, 263.8672
1192.548, 268.9453
1193.632, 197.0703
1194.717, 185.2148
1195.801, 124.0195
1196.886, 287.5547
1197.970, 57.76172
1199.054, 162.9883
1200.137, 273.2266
1201.221, 76.48828
1202.305, 322.7148
1203.388, 451.0430
1204.471, 389.3867
1205.554, 274.7461
1206.637, 346.1172
1207.719, 270.8984
1208.802, 233.5938
1209.884, 230.3359
1210.966, 176.7656
1212.048, 148.2188
1213.130, 184.6836
1214.212, 48.16406
1215.293, 188.6641
1216.374, 319.1758
1217.456, 191.6992
1218.536, 591.2383
1219.617, 314.7969
1220.698, 555.3711
1221.778, 433.9570
1222.859, 313.5664
1223.939, 285.1875
1225.019, 150.8242
1226.099, 415.4805
1227.178, 315.1484
1228.258, 331.8398
1229.337, 210.5430
1230.417, 256.2617
1231.496, 245.6367
1232.574, 450.3906
1233.653, 344.1602
1234.732, 385.9531
1235.810, 240.7578
1236.888, 267.5820
1237.966, 353.8203
1239.044, 249.0820
1240.122, 189.3281
1241.199, 433.2344
1242.277, 417.1602
1243.354, 262.1055
1244.431, 247.0703
1245.508, 237.8984
1246.585, 129.0664
1247.661, 318.1094
1248.738, 433.7109
1249.814, 588.0078
1250.890, 448.1094
1251.966, 517.2344
1253.042, 248.3828
1254.117, 311.5508
1255.193, 1.257813
1256.268, 254.6953
1257.343, 260.9258
1258.418, 375.1797
1259.493, 280.4531
1260.567, 297.7461
1261.642, 324.0625
1262.716, 331.4023
1263.790, 369.7656
1264.864, 507.1484
1265.938, 271.5547
1267.011, 493.9805
1268.085, 203.4336
1269.158, 159.9062
1270.231, 377.4023
1271.304, 366.9258
1272.377, 358.4648
1273.450, 309.0234
1274.522, 312.6133
1275.594, 325.2227
1276.666, 489.8555
1277.738, 493.5312
1278.810, 180.2266
1279.882, 423.9414
1280.953, 354.6875
1282.025, 54.46094
1283.096, 171.2539
1284.167, 319.0859
1285.238, 220.9375
1286.308, 288.0742
1287.379, 172.8164
1288.449, 185.7969
1289.519, 192.8047
1290.589, 26.83203
1291.659, 25.11328
1292.729, 160.0430
1293.798, 125.9922
1294.868, 78.94922
1295.937, 256.8828
1297.006, 29.10156
1298.075, 48.89062
1299.143, 165.8711
1300.212, 484.1133
1301.280, 168.8711
1302.348, 174.1055
1303.416, 2.105469
1304.484, 78.13281
1305.552, 137.1836
1306.620, 346.2617
1307.687, 388.3633
1308.754, 104.5156
1309.821, 501.6875
1310.888, 270.8945
1311.955, 437.1289
1313.021, 444.6055
1314.088, 143.8945
1315.154, 471.2148
1316.220, 624.5586
1317.286, 406.9297
1318.352, 329.3359
1319.417, 529.7695
1320.483, 249.2344
1321.548, 337.7266
1322.613, 569.2344
1323.678, 841.7695
1324.743, 431.3242
1325.807, 400.8984
1326.872, 249.4961
1327.936, 662.1133
1329.000, 494.7539
1330.064, 476.4180
1331.128, 460.1016
1332.191, 595.8047
1333.255, 389.5312
1334.318, 472.2812
1335.381, 516.0547
1336.444, 376.8477
1337.507, 620.6641
1338.569, 212.5000
1339.632, 580.3594
1340.694, 490.2422
1341.756, 359.1484
1342.818, 383.0742
1343.880, 393.0312
1344.941, 524.0039
1346.003, 611.0000
1347.064, 625.0195
1348.125, 665.0664
1349.186, 664.1328
1350.247, 702.9414
1351.308, 432.3359
1352.368, 828.4766
1353.428, 593.6367
1354.489, 764.8242
1355.549, 520.0312
1356.608, 522.2695
1357.668, 434.5273
1358.727, 552.8086
1359.787, 515.1250
1360.846, 654.4648
1361.905, 602.8242
1362.964, 417.2109
1364.022, 497.6250
1365.081, 617.0664
1366.139, 289.5703
1367.197, 555.1133
1368.255, 532.6914
1369.313, 249.2930
1370.371, 361.9219
1371.428, 315.5742
1372.486, 398.2500
1373.543, 462.9570
1374.600, 508.6875
1375.657, 734.4531
1376.713, 401.2461
1377.770, 403.0781
1378.826, 549.9414
1379.882, 555.8359
1380.938, 507.8945
1381.994, 480.6953
1383.050, 349.5508
1384.106, 353.5586
1385.161, 269.5938
1386.216, 438.6562
1387.271, 195.7500
1388.326, 238.8398
1389.381, 438.9570
1390.435, 601.1094
1391.490, 576.5742
1392.544, 606.5430
1393.598, 552.7266
1394.652, 425.9883
1395.705, 416.2852
1396.759, 237.6094
1397.812, 122.9648
1398.866, 515.3477
1399.919, 581.7656
1400.972, 449.2148
1402.024, 783.6953
1403.077, 739.2070
1404.129, 675.7500
1405.181, 491.3281
1406.233, 303.9375
1407.285, 635.5820
1408.337, 471.2578
1409.389, 452.9766
1410.440, 151.7227
1411.491, 277.5039
1412.542, 426.3242
1413.593, 456.1758
1414.644, 594.0703
1415.695, 618.2305
1416.745, 421.9688
1417.795, 608.9727
1418.845, 577.2578
1419.895, 439.6641
1420.945, 509.7930
1421.995, 241.1172
1423.044, 110.6289
1424.093, 553.8906
1425.142, 426.6055
1426.191, 403.0547
1427.240, 2.460938
1428.289, 536.8867
1429.337, 459.3984
1430.385, 518.9453
1431.433, 567.5742
1432.481, 407.2500
1433.529, 499.9883
1434.577, 576.1289
1435.624, 447.9961
1436.672, 292.9336
1437.719, 195.9453
1438.766, 110.4570
1439.812, 199.2070
1440.859, 94.46875
1441.905, 374.4805
1442.952, 635.5391
1443.998, 552.4766
1445.044, 301.8438
1446.090, 450.3477
1447.135, 449.2695
1448.181, 416.7500
1449.226, 248.5234
1450.271, 577.3203
1451.316, 110.8594
1452.361, 549.9961
1453.405, 297.8984
1454.450, 93.82812
1455.494, 705.8008
1456.538, 708.8086
1457.582, 591.8594
1458.626, 476.9375
1459.670, 561.0625
1460.713, 214.2227
1461.757, 334.4219
1462.800, 597.6602
1463.843, 611.9375
1464.886, 18.25781
1465.928, 278.6133
1466.971, 62.00781
1468.013, 173.4375
1469.055, 330.9062
1470.097, 244.4141
1471.139, 457.9609
1472.181, 540.5430
1473.222, 185.1641
1474.263, 360.8242
1475.305, 517.5195
1476.346, 68.25781
1477.386, 554.0352
1478.427, 321.8477
1479.468, 541.7031
1480.508, 326.5859
1481.548, 451.5039
1482.588, 447.4648
1483.628, 419.4648
1484.668, 498.4922
1485.707, 441.5586
1486.747, 442.6680
1487.786, 500.8047
1488.825, 246.9805
1489.864, 441.1875
1490.902, 352.4297
1491.941, 603.7070
1492.979, 577.0156
1494.017, 200.3594
1495.055, 213.7305
1496.093, 308.1367
1497.131, 372.6719
1498.168, 544.3672
1499.206, 316.1953
1500.243, 604.1602
1501.280, 196.2773
1502.317, 376.4375
1503.354, 149.6250
1504.390, 268.7734
1505.426, 635.9531
1506.463, 542.1523
1507.499, 415.3750
1508.535, 216.6094
1509.570, 469.8555
1510.606, 323.1367
1511.641, 411.4961
1512.676, 350.7070
1513.711, 501.1172
1514.746, 335.6016
1515.781, 514.1680
1516.816, 335.8164
1517.850, 407.5508
1518.884, 397.3633
1519.918, 586.2617
1520.952, 587.2461
1521.986, 405.3164
1523.019, 579.4844
1524.053, 480.7422
1525.086, 346.0938
1526.119, 650.5391
1527.152, 262.0859
1528.185, 473.7344
1529.217, 503.4922
1530.250, 609.3633
1531.282, 807.3477
1532.314, 467.4609
1533.346, 203.6953
1534.377, 7.058594
1535.409, 588.5625
1536.440, 382.1992
1537.472, 287.9492
1538.503, 405.8320
1539.534, 368.8516
1540.564, 386.0234
1541.595, 540.3594
1542.625, 283.9844
1543.656, 304.9180
1544.686, 25.07031
1545.716, 100.4492
1546.745, 220.0625
1547.775, 43.92188
1548.804, 223.0547
1549.834, 261.4648
1550.863, 468.1758
1551.892, 128.2070
1552.920, 489.5938
1553.949, 281.3398
1554.977, 374.5000
1556.006, 159.1055
1557.034, 314.2070
1558.062, 55.16016
1559.089, 174.0312
1560.117, 312.8477
1561.144, 355.3555
1562.172, 487.6367
1563.199, 426.7891
1564.226, 352.9219
1565.252, 144.5117
1566.279, 107.4023
1567.305, 4.574219
1568.332, 30.30078
1569.358, 17.19531
1570.384, 9.328125
1571.409, 0.0000000E+00
##END=



