##NAMES=Fluorapatite
##RRUFFID=R060184
##IDEAL CHEMISTRY=Ca_5_(PO_4_)_3_F
##LOCALITY=Yates mine, Otter Lake, Quebec, Canada
##OWNER=RRUFF
##SOURCE=Lloyd Twaites
##DESCRIPTION=Green colored fragment of a hexagonal prism
##STATUS=The identification of this mineral has been confirmed by X-ray diffraction and chemical analysis
##URL=rruff.info/R060184
##MEASURED CHEMISTRY=(Ca_0.99_Ce_0.01_)_5.00_((P_0.98_Si_0.01_S_0.01_)O_4_)_3_F_1.00_
##PIN_ID=M00532
##ORIENTATION=Laser parallel to -a* (-1 0 0). Fiducial mark perpendicular to laser is parallel to -c [0 0 -1]
170.5590, 0.0000000E+00
171.7860, 25.82349
173.0130, 35.14404
174.2400, 35.46948
175.4670, 131.1216
176.6930, 129.7087
177.9200, 149.0090
179.1460, 201.3472
180.3720, 151.8105
181.5980, 120.7053
182.8230, 124.3745
184.0490, 98.66406
185.2740, 40.24683
186.5000, 99.08740
187.7250, 10.13892
188.9500, 9.646240
190.1740, 40.68945
191.3990, 1.124756
192.6230, 20.34229
193.8480, 50.31177
195.0720, 28.14380
196.2960, 106.1821
197.5200, 68.42065
198.7430, 143.8157
199.9670, 158.3186
201.1900, 219.8848
202.4130, 362.4773
203.6360, 321.0664
204.8590, 405.6287
206.0820, 403.1445
207.3050, 476.5991
208.5270, 504.9910
209.7490, 488.3481
210.9710, 478.7207
212.1930, 446.1470
213.4150, 429.6531
214.6370, 396.2192
215.8580, 408.0203
217.0790, 361.3218
218.3010, 327.8611
219.5210, 334.8359
220.7420, 391.9456
221.9630, 438.3145
223.1830, 383.7229
224.4040, 352.0137
225.6240, 450.1733
226.8440, 489.1694
228.0640, 459.9673
229.2840, 452.5691
230.5030, 481.9609
231.7230, 519.1516
232.9420, 497.1501
234.1610, 336.9626
235.3800, 359.5959
236.5990, 335.0547
237.8170, 377.3457
239.0360, 307.4727
240.2540, 227.4412
241.4720, 213.2551
242.6900, 186.9185
243.9080, 179.4580
245.1250, 157.9421
246.3430, 173.6462
247.5600, 142.4226
248.7770, 212.8647
249.9940, 219.4368
251.2110, 236.6667
252.4280, 210.8962
253.6450, 224.8081
254.8610, 251.6155
256.0770, 363.7861
257.2930, 391.3057
258.5090, 425.8481
259.7250, 478.5483
260.9400, 550.6375
262.1560, 562.1372
263.3710, 560.6299
264.5860, 610.4287
265.8010, 613.9016
267.0160, 749.6216
268.2310, 762.4290
269.4450, 725.5237
270.6600, 703.2939
271.8740, 671.2688
273.0880, 797.3970
274.3020, 736.0498
275.5150, 815.6538
276.7290, 764.1921
277.9420, 784.0752
279.1550, 832.5408
280.3680, 854.3579
281.5810, 881.0308
282.7940, 870.7661
284.0070, 889.0830
285.2190, 855.2852
286.4310, 917.6929
287.6430, 801.2334
288.8550, 874.7383
290.0670, 856.2048
291.2790, 869.6309
292.4900, 783.0132
293.7020, 782.3450
294.9130, 735.6245
296.1240, 695.8479
297.3350, 732.0137
298.5450, 724.1218
299.7560, 738.1729
300.9660, 679.1667
302.1760, 688.1033
303.3860, 760.9839
304.5960, 671.8083
305.8060, 654.5774
307.0150, 653.2910
308.2250, 575.9500
309.4340, 627.5540
310.6430, 568.1045
311.8520, 533.6008
313.0610, 442.0435
314.2700, 383.4336
315.4780, 414.7712
316.6860, 391.7400
317.8940, 320.7085
319.1020, 300.6443
320.3100, 265.5322
321.5180, 218.3662
322.7250, 290.1316
323.9330, 206.8430
325.1400, 214.4993
326.3470, 156.0596
327.5540, 198.4958
328.7600, 146.9043
329.9670, 109.2864
331.1730, 139.7769
332.3800, 139.6079
333.5860, 99.20728
334.7920, 84.82178
335.9970, 74.42139
337.2030, 57.73462
338.4080, 108.5613
339.6140, 66.15332
340.8190, 58.88794
342.0240, 115.3037
343.2290, 60.44531
344.4330, 101.1543
345.6380, 60.59058
346.8420, 39.73315
348.0460, 2.250000
349.2500, 27.01318
350.4540, 6.496338
351.6580, 64.88916
352.8610, 21.41772
354.0650, 79.07275
355.2680, 9.608643
356.4710, 17.81030
357.6740, 23.35352
358.8760, 40.50439
360.0790, 3.103516
361.2810, 58.53687
362.4840, 8.344727
363.6860, 41.94800
364.8880, 22.11694
366.0900, 41.85571
367.2910, 1.560303
368.4930, 24.60669
369.6940, 14.66016
370.8950, 21.36865
372.0960, 3.819092
373.2970, 81.41943
374.4980, 7.029785
375.6980, 68.46753
376.8980, 28.68042
378.0990, 57.20337
379.2990, 35.41553
380.4980, 111.8132
381.6980, 65.18774
382.8980, 82.45215
384.0970, 52.44531
385.2960, 55.41919
386.4950, 119.7874
387.6940, 136.1067
388.8930, 104.9456
390.0920, 134.1714
391.2900, 128.1016
392.4880, 231.7114
393.6860, 193.3850
394.8840, 242.1306
396.0820, 257.2471
397.2800, 203.4812
398.4770, 314.8105
399.6750, 266.8926
400.8720, 203.9727
402.0690, 374.0618
403.2660, 315.0220
404.4620, 316.9565
405.6590, 329.6658
406.8550, 421.4209
408.0510, 397.9756
409.2480, 460.5420
410.4430, 443.0205
411.6390, 565.4182
412.8350, 618.3003
414.0300, 764.1511
415.2250, 777.2773
416.4200, 878.8198
417.6150, 1074.544
418.8100, 1384.942
420.0050, 1564.292
421.1990, 1773.597
422.3940, 2032.858
423.5880, 2512.075
424.7820, 2888.251
425.9750, 3335.388
427.1690, 3641.490
428.3630, 4045.557
429.5560, 4155.589
430.7490, 4139.584
431.9420, 3808.548
433.1350, 3698.482
434.3280, 3220.383
435.5200, 2986.253
436.7130, 2762.093
437.9050, 2482.899
439.0970, 2325.677
440.2890, 2184.423
441.4810, 2127.137
442.6720, 2058.821
443.8640, 2145.475
445.0550, 1994.097
446.2460, 2007.691
447.4370, 1904.253
448.6280, 1807.784
449.8180, 1783.284
451.0090, 1696.755
452.1990, 1502.196
453.3890, 1337.608
454.5790, 1329.991
455.7690, 1173.346
456.9590, 1033.673
458.1480, 969.9731
459.3380, 809.2441
460.5270, 743.4731
461.7160, 734.6631
462.9050, 638.8169
464.0940, 636.9307
465.2820, 607.8535
466.4700, 482.8862
467.6590, 456.6697
468.8470, 332.4404
470.0350, 431.9250
471.2220, 390.5435
472.4100, 316.9028
473.5970, 277.0613
474.7850, 188.3047
475.9720, 207.5005
477.1590, 253.4802
478.3460, 219.3232
479.5320, 113.0352
480.7190, 158.5581
481.9050, 194.4077
483.0910, 137.9194
484.2770, 217.3232
485.4630, 52.06006
486.6490, 127.3789
487.8340, 107.9585
489.0200, 126.1846
490.2050, 93.15674
491.3900, 76.07666
492.5750, 112.1138
493.7600, 76.39160
494.9440, 9.043457
496.1290, 67.17969
497.3130, 50.20264
498.4970, 38.19092
499.6810, 106.5024
500.8650, 99.79346
502.0480, 18.40771
503.2320, 23.34277
504.4150, 68.84082
505.5980, 3.619629
506.7810, 30.93018
507.9640, 89.78955
509.1460, 83.90283
510.3290, 9.839355
511.5110, 46.63428
512.6930, 11.52783
513.8750, 53.83252
515.0570, 73.25928
516.2390, 35.78564
517.4210, 23.78906
518.6020, 64.82568
519.7830, 31.60010
520.9640, 39.23682
522.1450, 0.7939450
523.3260, 1.043457
524.5060, 3.729492
525.6870, 43.63623
526.8670, 36.25000
528.0470, 10.14648
529.2270, 10.12061
530.4070, 48.06836
531.5870, 10.21484
532.7660, 2.713379
533.9450, 56.59424
535.1240, 29.86865
536.3030, 6.939941
537.4820, 40.82031
538.6610, 98.46191
539.8390, 62.49219
541.0180, 109.1455
542.1960, 96.61865
543.3740, 81.63672
544.5520, 99.96191
545.7290, 90.83740
546.9070, 123.6978
548.0840, 87.01953
549.2620, 121.7114
550.4390, 101.8789
551.6160, 102.1812
552.7920, 98.46143
553.9690, 202.8843
555.1450, 196.2539
556.3220, 114.7017
557.4980, 235.8916
558.6740, 170.2866
559.8490, 262.5142
561.0250, 336.4116
562.2000, 369.2954
563.3760, 416.4741
564.5510, 459.5767
565.7260, 454.3682
566.9010, 531.6167
568.0750, 539.9590
569.2500, 574.7773
570.4240, 722.6958
571.5980, 862.3550
572.7720, 1071.151
573.9460, 1202.337
575.1200, 1411.408
576.2930, 1512.068
577.4670, 1845.974
578.6400, 2030.450
579.8130, 2304.578
580.9860, 2376.410
582.1590, 2505.054
583.3310, 2732.639
584.5040, 2766.405
585.6760, 2951.809
586.8480, 3428.914
588.0200, 3912.269
589.1920, 4037.383
590.3630, 4089.883
591.5350, 3787.553
592.7060, 3271.903
593.8770, 2702.521
595.0480, 2275.146
596.2190, 1980.877
597.3900, 1944.488
598.5600, 1715.562
599.7310, 1830.761
600.9010, 1904.665
602.0710, 2082.077
603.2410, 2234.409
604.4100, 2448.595
605.5800, 2196.665
606.7490, 2186.715
607.9190, 1927.658
609.0880, 1616.746
610.2570, 1414.327
611.4250, 1249.430
612.5940, 1027.250
613.7620, 1002.351
614.9310, 946.7256
616.0990, 851.2026
617.2670, 689.5527
618.4340, 686.9561
619.6020, 599.1035
620.7690, 473.1489
621.9370, 503.5996
623.1040, 484.7529
624.2710, 398.1440
625.4380, 389.4512
626.6040, 386.8125
627.7710, 515.7642
628.9370, 417.9502
630.1030, 500.9800
631.2690, 526.3564
632.4350, 504.2012
633.6010, 529.0732
634.7660, 487.8589
635.9320, 499.5566
637.0970, 551.0303
638.2620, 607.5308
639.4270, 457.0879
640.5920, 567.4551
641.7560, 573.8013
642.9210, 696.2563
644.0850, 727.7075
645.2490, 715.5239
646.4130, 753.0654
647.5770, 703.8667
648.7400, 735.1187
649.9040, 707.0117
651.0670, 728.5537
652.2300, 743.6943
653.3930, 696.5415
654.5560, 710.8364
655.7190, 659.0039
656.8810, 606.3374
658.0440, 667.4136
659.2060, 595.6587
660.3680, 529.6348
661.5300, 539.9458
662.6910, 544.5547
663.8530, 422.4878
665.0140, 441.2490
666.1750, 350.4683
667.3360, 436.0605
668.4970, 388.1343
669.6580, 429.9229
670.8190, 408.5249
671.9790, 298.2197
673.1390, 361.2461
674.2990, 317.5493
675.4590, 292.4902
676.6190, 272.9805
677.7790, 234.0156
678.9380, 230.6357
680.0970, 189.0854
681.2570, 175.8530
682.4160, 213.3350
683.5740, 241.0195
684.7330, 191.4014
685.8920, 276.1484
687.0500, 234.5352
688.2080, 141.6221
689.3660, 287.9927
690.5240, 221.1104
691.6820, 217.4419
692.8390, 175.6304
693.9960, 180.1597
695.1540, 155.5693
696.3110, 208.4048
697.4680, 154.9463
698.6240, 188.2217
699.7810, 274.0879
700.9370, 280.8647
702.0940, 225.2949
703.2500, 175.6592
704.4060, 301.1465
705.5610, 155.5830
706.7170, 126.5195
707.8720, 243.7739
709.0280, 211.7051
710.1830, 265.8359
711.3380, 225.0273
712.4920, 123.7036
713.6470, 252.2827
714.8020, 123.5962
715.9560, 166.0776
717.1100, 260.5098
718.2640, 95.89600
719.4180, 158.2310
720.5720, 194.5151
721.7250, 199.7515
722.8780, 148.2808
724.0320, 226.4180
725.1850, 56.50781
726.3380, 220.5435
727.4900, 277.5308
728.6430, 168.4727
729.7950, 118.3647
730.9470, 186.2046
732.1000, 112.9961
733.2510, 102.7358
734.4030, 68.42285
735.5550, 88.05713
736.7060, 17.63770
737.8570, 168.1616
739.0090, 229.6367
740.1600, 99.06299
741.3100, 6.362305
742.4610, 135.2334
743.6110, 153.4956
744.7620, 150.2808
745.9120, 166.5859
747.0620, 122.6968
748.2120, 32.01318
749.3610, 113.2134
750.5110, 177.0181
751.6600, 101.0127
752.8090, 39.74365
753.9580, 121.1812
755.1070, 161.9204
756.2560, 190.8022
757.4050, 29.51514
758.5530, 119.1323
759.7010, 71.54688
760.8490, 160.8345
761.9970, 62.74902
763.1450, 137.2695
764.2920, 28.15039
765.4400, 146.5254
766.5870, 2.145020
767.7340, 122.0425
768.8810, 245.4814
770.0280, 114.6646
771.1740, 146.0259
772.3210, 128.0542
773.4670, 163.6875
774.6130, 47.01221
775.7590, 159.8413
776.9050, 116.7495
778.0510, 62.43848
779.1960, 233.3252
780.3420, 126.1611
781.4870, 17.69531
782.6320, 81.17285
783.7770, 16.99609
784.9210, 90.74512
786.0660, 70.06641
787.2100, 15.09668
788.3540, 93.08301
789.4980, 59.20801
790.6420, 126.2734
791.7860, 49.28809
792.9300, 13.24219
794.0730, 42.12695
795.2160, 187.9492
796.3590, 179.7207
797.5020, 148.4414
798.6450, 121.1133
799.7880, 62.73242
800.9300, 130.2930
802.0720, 87.19824
803.2150, 115.1904
804.3560, 17.52637
805.4980, 18.20410
806.6400, 27.98242
807.7810, 118.1094
808.9230, 169.1914
810.0640, 47.77441
811.2050, 78.16016
812.3460, 100.0400
813.4860, 7.865234
814.6270, 149.6230
815.7670, 197.2949
816.9070, 22.09766
818.0470, 150.2383
819.1870, 52.46680
820.3270, 119.7900
821.4670, 12.17871
822.6060, 100.2861
823.7450, 101.4189
824.8840, 4.342773
826.0230, 46.26172
827.1620, 12.29688
828.3010, 141.1016
829.4390, 41.83887
830.5770, 169.3428
831.7150, 22.81445
832.8530, 106.1152
833.9910, 7.586914
835.1290, 37.75977
836.2660, 31.98828
837.4030, 31.51074
838.5410, 34.87793
839.6780, 35.01465
840.8140, 95.88086
841.9510, 95.09863
843.0870, 46.78027
844.2240, 110.2803
845.3600, 174.2207
846.4960, 112.9805
847.6320, 86.91602
848.7680, 194.6309
849.9030, 280.8770
851.0380, 56.61426
852.1740, 213.7588
853.3090, 198.0391
854.4440, 335.6689
855.5780, 231.5654
856.7130, 229.6787
857.8470, 236.8994
858.9820, 102.0986
860.1160, 292.0371
861.2500, 231.2588
862.3830, 400.6992
863.5170, 259.8105
864.6500, 280.0820
865.7840, 222.8916
866.9170, 314.4492
868.0500, 296.2500
869.1830, 164.7041
870.3150, 186.0732
871.4480, 173.2578
872.5800, 188.4844
873.7120, 182.8496
874.8440, 155.6533
875.9760, 169.3535
877.1080, 93.46777
878.2390, 70.58496
879.3710, 154.7686
880.5020, 35.99219
881.6330, 95.15723
882.7640, 156.3525
883.8940, 62.32617
885.0250, 71.26953
886.1550, 18.48730
887.2850, 92.49023
888.4160, 35.88574
889.5450, 0.7636720
890.6750, 122.8027
891.8050, 10.49414
892.9340, 82.27051
894.0630, 88.07422
895.1930, 10.46777
896.3220, 11.57520
897.4500, 1.944336
898.5790, 13.01270
899.7070, 115.7432
900.8360, 61.41895
901.9640, 19.65723
903.0920, 120.6729
904.2200, 51.14453
905.3470, 16.64453
906.4750, 21.02051
907.6020, 1.324219
908.7290, 3.453125
909.8560, 9.061523
910.9830, 35.71387
912.1100, 18.30566
913.2360, 94.69141
914.3630, 11.57227
915.4890, 10.38574
916.6150, 72.72070
917.7410, 83.78223
918.8670, 37.25781
919.9920, 102.3555
921.1180, 129.4736
922.2430, 18.93555
923.3680, 76.92188
924.4930, 51.67188
925.6180, 105.0195
926.7420, 67.98730
927.8670, 199.1348
928.9910, 67.44531
930.1150, 30.42773
931.2390, 291.5674
932.3630, 240.6514
933.4860, 259.5859
934.6100, 308.3857
935.7330, 325.6445
936.8560, 416.5039
937.9790, 473.3691
939.1020, 636.0684
940.2250, 831.3096
941.3470, 1031.570
942.4700, 1269.062
943.5920, 1375.732
944.7140, 1626.604
945.8360, 2214.956
946.9570, 2409.260
948.0790, 2880.758
949.2000, 3533.526
950.3220, 4319.272
951.4430, 5357.205
952.5640, 6850.104
953.6840, 8752.823
954.8050, 11225.72
955.9250, 14671.29
957.0460, 18629.18
958.1660, 23778.62
959.2860, 29320.50
960.4050, 34638.46
961.5250, 39875.24
962.6440, 43784.11
963.7640, 44738.75
964.8830, 41796.43
966.0020, 35729.16
967.1210, 28196.40
968.2390, 21657.86
969.3580, 15912.55
970.4760, 11847.18
971.5940, 9070.432
972.7120, 6509.726
973.8300, 5185.311
974.9480, 3819.906
976.0650, 2875.325
977.1830, 2173.742
978.3000, 1850.603
979.4170, 1458.092
980.5340, 1048.852
981.6500, 708.3604
982.7670, 545.7773
983.8830, 463.6191
985.0000, 353.5254
986.1160, 377.6465
987.2320, 356.5459
988.3470, 408.4551
989.4630, 135.3604
990.5780, 316.2695
991.6940, 176.1768
992.8090, 300.0908
993.9240, 221.6621
995.0380, 143.5840
996.1530, 135.5049
997.2680, 185.4268
998.3820, 257.3506
999.4960, 306.2715
1000.610, 364.1943
1001.724, 431.1182
1002.837, 499.0449
1003.951, 564.9834
1005.064, 674.9248
1006.177, 734.8711
1007.291, 742.8271
1008.403, 825.7900
1009.516, 747.7568
1010.629, 822.7275
1011.741, 774.5029
1012.853, 574.2061
1013.965, 661.1982
1015.077, 493.6211
1016.189, 519.4912
1017.300, 487.5127
1018.412, 579.2842
1019.523, 567.1260
1020.634, 724.3203
1021.745, 514.3037
1022.856, 1052.510
1023.966, 798.9717
1025.077, 1022.095
1026.187, 1047.035
1027.297, 1094.104
1028.407, 1244.230
1029.517, 1376.521
1030.627, 1473.899
1031.736, 1535.612
1032.845, 1488.680
1033.955, 1664.350
1035.064, 1589.485
1036.172, 1821.340
1037.281, 1795.877
1038.390, 2120.834
1039.498, 2334.016
1040.606, 2293.982
1041.714, 2418.246
1042.822, 2427.873
1043.930, 2541.368
1045.037, 2700.021
1046.145, 2807.887
1047.252, 3070.325
1048.359, 3247.529
1049.466, 3462.755
1050.573, 4024.252
1051.679, 3953.777
1052.786, 3867.460
1053.892, 3779.138
1054.998, 3402.734
1056.104, 3094.779
1057.210, 2697.438
1058.315, 2508.119
1059.421, 2266.825
1060.526, 1994.556
1061.631, 1698.314
1062.736, 1625.104
1063.841, 1738.920
1064.946, 1536.761
1066.050, 1648.625
1067.154, 1792.514
1068.258, 1725.429
1069.362, 1903.371
1070.466, 1744.339
1071.570, 1976.085
1072.674, 2094.139
1073.777, 1968.225
1074.880, 2171.354
1075.983, 2067.483
1077.086, 1911.787
1078.189, 1923.316
1079.291, 2130.225
1080.394, 2170.517
1081.496, 1843.357
1082.598, 1424.201
1083.700, 1133.594
1084.802, 1095.010
1085.903, 920.8066
1087.005, 904.2969
1088.106, 677.8193
1089.207, 624.1904
1090.308, 552.9580
1091.409, 454.5762
1092.509, 440.2598
1093.610, 354.9844
1094.710, 257.7441
1095.810, 271.5400
1096.910, 385.3652
1098.010, 354.2246
1099.110, 204.1143
1100.209, 223.0410
1101.309, 125.9971
1102.408, 83.99316
1103.507, 122.0244
1104.606, 90.10547
1105.704, 31.23633
1106.803, 222.4043
1107.901, 71.60742
1108.999, 244.8438
1110.097, 17.11133
1111.195, 156.4150
1112.293, 27.75000
1113.391, 195.4023
1114.488, 157.8047
1115.585, 235.7832
1116.682, 241.2500
1117.779, 260.7520
1118.876, 379.2871
1119.973, 408.4707
1121.069, 261.0703
1122.165, 315.5137
1123.261, 218.1777
1124.357, 336.7598
1125.453, 237.4883
1126.549, 421.2305
1127.644, 258.0273
1128.739, 256.8535
1129.835, 127.7148
1130.930, 278.6094
1132.024, 237.5371
1133.119, 180.4961
1134.214, 118.4883
1135.308, 267.2754
1136.402, 223.3359
1137.496, 224.4297
1138.590, 191.7480
1139.684, 225.9082
1140.777, 281.1035
1141.871, 241.3320
1142.964, 273.5957
1144.057, 356.8945
1145.150, 220.2285
1146.243, 345.5957
1147.335, 277.3945
1148.428, 277.8340
1149.520, 274.7773
1150.612, 209.2910
1151.704, 303.8633
1152.796, 235.4805
1153.887, 165.5098
1154.979, 167.8633
1156.070, 50.35352
1157.161, 266.1387
1158.252, 52.97070
1159.343, 213.6914
1160.433, 242.5938
1161.524, 269.5352
1162.614, 367.5137
1163.704, 257.5371
1164.794, 264.6055
1165.884, 129.7461
1166.974, 196.9434
1168.063, 260.1797
1169.153, 394.4863
1170.242, 355.8496
1171.331, 129.2598
1172.420, 344.7148
1173.508, 286.2148
1174.597, 169.7500
1175.685, 364.3320
1176.774, 25.03906
1177.862, 88.60938
1178.950, 247.2988
1180.037, 28.02344
1181.125, 45.78320
1182.212, 36.58203
1183.300, 192.4160
1184.387, 183.2988
1185.474, 200.2480
1186.560, 227.2324
1187.647, 204.1816
1188.733, 160.3262
1189.820, 171.4277
1190.906, 124.5625
1191.992, 102.7363
1193.078, 165.9434
1194.163, 187.1875
1195.249, 121.4707
1196.334, 164.7891
1197.419, 243.1445
1198.504, 108.5332
1199.589, 105.9609
1200.674, 164.4219
1201.758, 102.0820
1202.843, 116.4199
1203.927, 241.9531
1205.011, 98.52734
1206.095, 34.86523
1207.179, 6.234375
1208.262, 68.28125
1209.345, 75.85352
1210.429, 57.85742
1211.512, 39.59961
1212.595, 327.8164
1213.677, 207.6309
1214.760, 52.48047
1215.842, 13.63477
1216.925, 252.2812
1218.007, 201.2324
1219.089, 276.2188
1220.171, 147.2402
1221.252, 219.2949
1222.334, 328.3848
1223.415, 89.50977
1224.496, 72.66992
1225.577, 188.8633
1226.658, 260.0898
1227.738, 190.3555
1228.819, 69.65234
1229.899, 224.9844
1230.979, 35.35547
1232.060, 122.7578
1233.139, 218.1934
1234.219, 225.6641
1235.299, 161.1680
1236.378, 337.7051
1237.457, 196.2910
1238.536, 186.9414
1239.615, 171.6250
1240.694, 204.3398
1241.772, 113.0879
1242.851, 8.126953
1243.929, 135.6855
1245.007, 15.46484
1246.085, 112.0078
1247.163, 216.9160
1248.240, 48.85742
1249.318, 65.16797
1250.395, 171.8223
1251.472, 21.15430
1252.549, 107.8945
1253.626, 47.02148
1254.703, 209.0762
1255.779, 48.79297
1256.855, 197.3535
1257.931, 33.53125
1259.007, 69.74219
1260.083, 171.9883
1261.159, 99.26367
1262.234, 112.5723
1263.310, 165.0645
1264.385, 41.71484
1265.460, 214.6777
1266.535, 39.09961
1267.610, 27.44727
1268.684, 167.0273
1269.758, 219.5352
1270.833, 221.0742
1271.907, 242.4062
1272.981, 104.2480
1274.054, 139.8848
1275.128, 14.54883
1276.201, 53.75195
1277.275, 9.955078
1278.348, 7.306641
1279.421, 121.4609
1280.493, 103.2559
1281.566, 108.9180
1282.638, 4.105469
1283.711, 35.26758
1284.783, 13.41406
1285.855, 29.46484
1286.927, 18.37109
1287.998, 15.69336
1289.070, 115.2656
1290.141, 213.2520
1291.212, 151.2773
1292.283, 93.33594
1293.354, 144.4258
1294.425, 63.54297
1295.495, 20.68750
1296.566, 124.8613
1297.636, 62.06445
1298.706, 186.2969
1299.776, 108.5566
1300.845, 84.83984
1301.915, 64.15625
1302.984, 178.5020
1304.054, 231.6270
1305.123, 12.02539
1306.191, 252.9590
1307.260, 141.4102
1308.329, 180.8867
1309.397, 254.3926
1310.465, 220.9238
1311.534, 404.4805
1312.602, 186.0645
1313.669, 117.6758
1314.737, 135.3125
1315.804, 300.9727
1316.872, 304.6562
1317.939, 347.3672
1319.006, 326.1016
1320.073, 244.8594
1321.139, 214.6426
1322.206, 267.4512
1323.272, 240.0020
1324.338, 300.8574
1325.404, 364.7383
1326.470, 268.6445
1327.536, 256.5723
1328.601, 322.5215
1329.667, 238.4922
1330.732, 139.7676
1331.797, 239.7910
1332.862, 371.8340
1333.926, 276.9043
1334.991, 477.0273
1336.055, 301.8262
1337.120, 237.6504
1338.184, 107.1836
1339.248, 224.3730
1340.311, 25.41016
1341.375, 377.8223
1342.438, 341.0801
1343.502, 240.3574
1344.565, 267.3281
1345.628, 171.6523
1346.691, 319.9980
1347.753, 275.3672
1348.816, 288.7617
1349.878, 157.1777
1350.940, 124.6191
1352.002, 197.0820
1353.064, 121.9375
1354.126, 261.1699
1355.187, 168.7031
1356.248, 60.25977
1357.310, 213.3711
1358.371, 307.9766
1359.431, 38.60156
1360.492, 396.2520
1361.553, 210.9258
1362.613, 118.6230
1363.673, 340.3418
1364.733, 262.5488
1365.793, 214.9336
1366.853, 237.7246
1367.912, 219.5391
1368.972, 315.3750
1370.031, 187.2344
1371.090, 78.04688
1372.149, 124.9512
1373.208, 0.3359380
1374.267, 58.04102
1375.325, 217.2461
1376.383, 177.2344
1377.441, 176.1230
1378.499, 282.1582
1379.557, 346.4043
1380.615, 351.3535
1381.672, 371.2930
1382.730, 342.8496
1383.787, 348.0117
1384.844, 277.1797
1385.901, 300.3691
1386.957, 271.6172
1388.014, 251.8535
1389.070, 283.1133
1390.126, 410.3574
1391.182, 80.62695
1392.238, 473.1582
1393.294, 339.4707
1394.349, 148.8086
1395.405, 199.9805
1396.460, 256.3613
1397.515, 324.7676
1398.570, 115.1973
1399.625, 61.64844
1400.679, 269.1172
1401.734, 116.6094
1402.788, 296.1230
1403.842, 185.2207
1404.896, 247.6367
1405.950, 59.60352
1407.003, 142.0547
1408.057, 192.5254
1409.110, 73.01758
1410.163, 133.1270
1411.216, 88.98047
1412.269, 192.7578
1413.322, 267.2910
1414.374, 334.8398
1415.427, 236.5488
1416.479, 158.1289
1417.531, 143.5469
1418.583, 46.19922
1419.634, 346.8262
1420.686, 153.4668
1421.737, 244.1191
1422.788, 135.7852
1423.839, 240.4668
1424.890, 292.1660
1425.941, 307.8848
1426.992, 108.6230
1428.042, 183.3828
1429.092, 53.23047
1430.142, 8.050781
1431.192, 199.8711
1432.242, 67.55273
1433.291, 266.2500
1434.341, 215.9551
1435.390, 233.6562
1436.439, 226.3535
1437.488, 254.0332
1438.537, 95.86523
1439.586, 295.5547
1440.634, 228.0820
1441.682, 171.8457
1442.731, 310.4844
1443.779, 135.1523
1444.826, 58.84570
1445.874, 130.5625
1446.922, 210.3027
1447.969, 235.0723
1449.016, 6.132813
1450.063, 38.72656
1451.110, 89.60938
1452.157, 53.51172
1453.203, 110.9238
1454.250, 36.85547
1455.296, 118.8574
1456.342, 148.8867
1457.388, 53.94531
1458.433, 293.0312
1459.479, 86.14258
1460.524, 259.2793
1461.570, 63.56055
1462.615, 200.6250
1463.660, 18.83008
1464.705, 341.0605
1465.749, 169.3145
1466.794, 310.5234
1467.838, 104.7188
1468.882, 391.9336
1469.926, 176.1738
1470.970, 107.6582
1472.013, 330.9395
1473.057, 110.2520
1474.100, 80.59570
1475.143, 333.9805
1476.186, 128.4141
1477.229, 156.8652
1478.272, 16.33594
1479.314, 92.82812
1480.357, 46.36328
1481.399, 89.92773
1482.441, 2.517578
1483.483, 210.1309
1484.525, 112.7637
1485.566, 135.4297
1486.608, 32.14062
1487.649, 145.8770
1488.690, 116.7109
1489.731, 49.39648
1490.771, 102.4707
1491.812, 99.49609
1492.853, 73.45703
1493.893, 122.4375
1494.933, 137.4453
1495.973, 18.47852
1497.013, 57.54102
1498.052, 126.6328
1499.092, 232.3535
1500.131, 271.4805
1501.170, 148.6406
1502.209, 9.164063
1503.248, 123.0625
1504.287, 94.32227
1505.325, 154.6328
1506.363, 38.98242
1507.402, 318.3770
1508.440, 322.2695
1509.478, 146.7188
1510.515, 108.2285
1511.553, 40.79492
1512.590, 376.4062
1513.627, 186.0586
1514.664, 219.5938
1515.701, 196.1191
1516.738, 150.7090
1517.775, 270.3398
1518.811, 216.0234
1519.847, 258.7656
1520.883, 222.5488
1521.919, 245.3789
1522.955, 317.9922
1523.991, 205.9023
1525.026, 398.2500
1526.061, 156.2129
1527.096, 205.2168
1528.131, 256.9141
1529.166, 278.4023
1530.201, 46.53711
1531.235, 166.8848
1532.270, 178.9512
1533.304, 326.0352
1534.338, 224.2383
1535.372, 297.0430
1536.405, 186.6973
1537.439, 168.3789
1538.472, 194.9980
1539.505, 114.3398
1540.538, 254.8965
1541.571, 15.46680
1542.604, 2.966797
1543.637, 74.37305
1544.669, 119.5254
1545.701, 276.5020
1546.733, 76.25586
1547.765, 390.0234
1548.797, 171.3848
1549.829, 300.7461
1550.860, 233.5215
1551.891, 291.3867
1552.922, 76.38477
1553.953, 268.6152
1554.984, 27.35742
1556.015, 96.69531
1557.045, 97.74023
1558.076, 278.0645
1559.106, 229.6777
1560.136, 144.5801
1561.165, 239.7109
1562.195, 51.44336
1563.225, 123.3027
1564.254, 0.7109380
1565.283, 0.0000000E+00
##END=



