##NAMES=Fluorapatite
##RRUFFID=R060070
##IDEAL CHEMISTRY=Ca_5_(PO_4_)_3_F
##LOCALITY=Panasqueira, Portugal
##OWNER=RRUFF
##SOURCE=Dave Bunk
##DESCRIPTION=Green hexagonal tablet
##STATUS=The identification of this mineral has been confirmed by X-ray diffraction and chemical analysis
##URL=rruff.info/R060070
##MEASURED CHEMISTRY=(Ca_0.99_Mn_0.01_)_5_(P_1.00_O_4_)_3_F_1.00_
##PIN_ID=L01695
##ORIENTATION=Laser parallel to -a* (-1 0 0). Fiducial mark perpendicular to laser is parallel to -c [0 0 -1]
118.1340, 0.0000000E+00
119.3650, 149.7734
120.5960, 48.20020
121.8270, 2.983398
123.0580, 32.64258
124.2880, 3.675781
125.5190, 60.50146
126.7490, 140.8335
127.9790, 120.0771
129.2090, 117.0522
130.4390, 127.6553
131.6680, 54.79834
132.8980, 44.40234
134.1270, 168.3931
135.3560, 219.7134
136.5850, 129.3154
137.8140, 131.1597
139.0430, 41.21484
140.2710, 171.4536
141.5000, 154.0352
142.7280, 211.8125
143.9560, 157.7393
145.1840, 108.8345
146.4120, 167.0635
147.6390, 163.3755
148.8670, 132.7632
150.0940, 236.2324
151.3210, 217.7529
152.5490, 151.3447
153.7750, 111.9854
155.0020, 225.6509
156.2290, 178.3613
157.4550, 239.1089
158.6810, 175.9082
159.9080, 118.7246
161.1340, 164.5332
162.3590, 99.46387
163.5850, 100.3809
164.8110, 125.8652
166.0360, 312.5273
167.2610, 65.26221
168.4860, 300.5830
169.7110, 49.98682
170.9360, 204.0034
172.1610, 184.9902
173.3850, 140.7192
174.6100, 60.05957
175.8340, 233.3472
177.0580, 172.5625
178.2820, 130.7363
179.5050, 202.3906
180.7290, 177.7651
181.9520, 109.3398
183.1760, 121.2769
184.3990, 148.5942
185.6220, 49.41211
186.8450, 104.6851
188.0670, 169.9341
189.2900, 54.48389
190.5120, 38.39746
191.7340, 101.1509
192.9560, 107.9375
194.1780, 92.04492
195.4000, 82.13135
196.6220, 96.03027
197.8430, 98.53906
199.0640, 94.13525
200.2860, 92.15869
201.5070, 61.03418
202.7270, 65.58447
203.9480, 74.34619
205.1690, 45.40381
206.3890, 135.5293
207.6090, 22.00635
208.8290, 53.07373
210.0490, 180.5771
211.2690, 186.5972
212.4890, 34.32471
213.7080, 141.8467
214.9280, 24.85352
216.1470, 142.2593
217.3660, 110.5400
218.5850, 116.8413
219.8030, 98.10938
221.0220, 146.2979
222.2400, 17.35596
223.4590, 180.2212
224.6770, 26.50244
225.8950, 142.8193
227.1120, 58.84961
228.3300, 78.13867
229.5480, 199.9814
230.7650, 109.7578
231.9820, 202.9414
233.1990, 186.1396
234.4160, 146.6426
235.6330, 109.7227
236.8490, 124.1914
238.0660, 93.29004
239.2820, 127.5039
240.4980, 43.11914
241.7140, 65.29395
242.9300, 117.5098
244.1460, 108.0361
245.3610, 40.93652
246.5770, 114.3301
247.7920, 100.1201
249.0070, 48.89551
250.2220, 202.2295
251.4370, 16.97461
252.6510, 89.90527
253.8660, 46.58887
255.0800, 140.6250
256.2940, 61.28711
257.5080, 103.2168
258.7220, 66.17969
259.9360, 58.31836
261.1490, 120.4561
262.3630, 71.42871
263.5760, 148.8838
264.7890, 75.73828
266.0020, 241.6670
267.2150, 66.36719
268.4270, 9.514648
269.6400, 53.30273
270.8520, 158.1455
272.0640, 247.4062
273.2760, 43.04688
274.4880, 11.43750
275.7000, 63.12402
276.9120, 32.19434
278.1230, 7.071289
279.3340, 97.18359
280.5450, 37.35645
281.7560, 143.6660
282.9670, 111.6641
284.1780, 75.05566
285.3880, 150.8779
286.5980, 84.59180
287.8090, 190.6514
289.0190, 34.97363
290.2290, 20.99219
291.4380, 18.24316
292.6480, 43.83887
293.8570, 15.39160
295.0670, 61.72363
296.2760, 23.37891
297.4850, 10.83301
298.6930, 124.5967
299.9020, 7.659180
301.1110, 43.27441
302.3190, 42.82031
303.5270, 55.46875
304.7350, 122.1660
305.9430, 149.8125
307.1510, 192.3486
308.3580, 109.9600
309.5660, 118.5508
310.7730, 105.0381
311.9800, 63.56641
313.1870, 91.90723
314.3940, 124.2783
315.6010, 46.69141
316.8070, 231.6992
318.0130, 120.0576
319.2200, 112.5127
320.4260, 43.15039
321.6310, 6.767578
322.8370, 65.76465
324.0430, 40.63965
325.2480, 157.0156
326.4540, 29.62988
327.6590, 46.15918
328.8640, 83.24512
330.0680, 45.54395
331.2730, 103.1143
332.4780, 28.20996
333.6820, 25.15430
334.8860, 130.0605
336.0900, 142.4043
337.2940, 118.7285
338.4980, 87.98438
339.7010, 65.02734
340.9050, 59.37012
342.1080, 108.8262
343.3110, 32.22559
344.5140, 94.46094
345.7170, 24.80176
346.9200, 102.4238
348.1220, 87.51270
349.3240, 113.9502
350.5270, 144.5049
351.7290, 129.0693
352.9310, 90.21777
354.1320, 95.50684
355.3340, 81.05371
356.5350, 22.89844
357.7370, 107.6689
358.9380, 99.65527
360.1390, 111.3633
361.3400, 0.2880860
362.5400, 192.5762
363.7410, 34.69922
364.9410, 173.9951
366.1410, 32.66406
367.3410, 137.3203
368.5410, 17.60645
369.7410, 44.24414
370.9400, 184.2549
372.1400, 91.40039
373.3390, 193.1221
374.5380, 103.0137
375.7370, 82.85449
376.9360, 156.6650
378.1350, 231.3213
379.3330, 71.27148
380.5310, 194.9834
381.7300, 111.6543
382.9280, 1.207031
384.1260, 6.609375
385.3230, 165.6338
386.5210, 1.730469
387.7180, 131.8242
388.9160, 69.79688
390.1130, 211.9287
391.3100, 35.07617
392.5060, 125.3594
393.7030, 137.0938
394.9000, 117.3525
396.0960, 40.55371
397.2920, 49.42285
398.4880, 66.70312
399.6840, 133.0166
400.8800, 82.03027
402.0750, 89.55762
403.2710, 100.5410
404.4660, 84.28613
405.6610, 82.23145
406.8560, 34.22266
408.0510, 83.09082
409.2450, 85.62793
410.4400, 141.4971
411.6340, 71.68359
412.8280, 121.6338
414.0220, 106.8232
415.2160, 57.43164
416.4100, 172.1182
417.6030, 233.4336
418.7970, 157.9189
419.9900, 4.105469
421.1830, 104.0254
422.3760, 61.25586
423.5690, 62.32520
424.7610, 220.7256
425.9540, 76.95996
427.1460, 187.1084
428.3380, 91.43262
429.5300, 214.1826
430.7220, 126.5566
431.9140, 172.5840
433.1050, 237.0879
434.2970, 171.8760
435.4880, 241.1338
436.6790, 150.2148
437.8700, 115.1924
439.0610, 39.58887
440.2510, 118.8252
441.4420, 261.5176
442.6320, 309.0840
443.8220, 211.5859
445.0120, 9.314453
446.2020, 261.1406
447.3910, 151.9102
448.5810, 153.1826
449.7700, 168.7168
450.9600, 139.3213
452.1490, 129.1377
453.3370, 142.9062
454.5260, 119.8145
455.7150, 152.7227
456.9030, 132.9893
458.0910, 110.4043
459.2800, 192.9814
460.4670, 16.92480
461.6550, 80.51270
462.8430, 1.423828
464.0300, 71.65527
465.2180, 45.93359
466.4050, 139.1514
467.5920, 51.42480
468.7790, 173.9961
469.9650, 256.1416
471.1520, 189.3467
472.3380, 200.1182
473.5250, 121.1299
474.7110, 220.1504
475.8970, 86.70020
477.0820, 157.9141
478.2680, 113.8037
479.4540, 104.4238
480.6390, 106.9756
481.8240, 142.1553
483.0090, 63.40039
484.1940, 56.89355
485.3780, 55.17090
486.5630, 25.41699
487.7470, 235.0566
488.9320, 14.19336
490.1160, 264.7266
491.3000, 166.6250
492.4830, 122.1006
493.6670, 13.12695
494.8500, 174.5176
496.0340, 116.2334
497.2170, 277.6943
498.4000, 185.4004
499.5820, 175.8652
500.7650, 125.0879
501.9480, 151.8301
503.1300, 249.3301
504.3120, 108.9121
505.4940, 271.8652
506.6760, 209.3535
507.8580, 103.3984
509.0390, 278.2500
510.2210, 158.9961
511.4020, 248.4395
512.5830, 192.6523
513.7640, 119.9082
514.9450, 224.1621
516.1250, 173.8320
517.3060, 169.9258
518.4860, 160.8359
519.6660, 181.8438
520.8460, 100.4434
522.0260, 138.3711
523.2060, 133.7266
524.3850, 142.3203
525.5650, 215.7793
526.7440, 127.3320
527.9230, 71.44141
529.1020, 38.91992
530.2810, 37.01367
531.4590, 96.26953
532.6380, 137.7500
533.8160, 94.07617
534.9940, 142.6035
536.1720, 86.30859
537.3500, 200.6016
538.5270, 101.3242
539.7050, 16.59180
540.8820, 218.7754
542.0590, 43.04492
543.2360, 116.1426
544.4130, 190.0371
545.5900, 220.8945
546.7660, 236.6445
547.9430, 119.7090
549.1190, 208.3848
550.2950, 212.4102
551.4710, 173.3984
552.6470, 249.7891
553.8220, 95.25781
554.9980, 200.4121
556.1730, 167.2129
557.3480, 50.71484
558.5230, 20.81641
559.6980, 246.8789
560.8730, 119.3516
562.0470, 127.9336
563.2220, 121.3945
564.3960, 217.0684
565.5700, 178.9258
566.7440, 89.45312
567.9170, 272.1836
569.0910, 30.41016
570.2640, 126.1953
571.4380, 129.4414
572.6110, 277.5684
573.7840, 62.14648
574.9570, 138.3145
576.1290, 238.3145
577.3020, 248.0234
578.4740, 259.0898
579.6460, 203.2656
580.8180, 207.9863
581.9900, 251.1211
583.1620, 237.0156
584.3330, 251.0391
585.5040, 241.9707
586.6760, 138.3574
587.8470, 202.0664
589.0180, 128.5117
590.1880, 96.14453
591.3590, 388.2500
592.5290, 166.8984
593.7000, 66.65430
594.8700, 248.4316
596.0400, 76.91797
597.2090, 197.3730
598.3790, 174.3398
599.5490, 274.9082
600.7180, 89.89453
601.8870, 109.1230
603.0560, 158.9121
604.2250, 198.5195
605.3940, 197.9199
606.5620, 67.53711
607.7300, 179.6035
608.8990, 216.2539
610.0670, 143.9688
611.2350, 229.0352
612.4020, 272.7617
613.5700, 145.5703
614.7370, 190.8223
615.9050, 177.6621
617.0720, 191.5879
618.2390, 185.3867
619.4060, 240.7715
620.5720, 212.0840
621.7390, 66.88477
622.9050, 188.7559
624.0710, 92.52734
625.2370, 225.8359
626.4030, 249.2383
627.5690, 332.0547
628.7340, 267.6426
629.9000, 279.9609
631.0650, 157.2676
632.2300, 263.7148
633.3950, 141.0156
634.5600, 253.2559
635.7240, 126.5645
636.8890, 161.5430
638.0530, 332.1250
639.2170, 0.1308590
640.3810, 170.0137
641.5450, 4.750000
642.7080, 385.5586
643.8720, 193.3711
645.0350, 235.8848
646.1980, 132.7266
647.3610, 157.2578
648.5240, 234.5918
649.6870, 42.18164
650.8490, 74.60938
652.0120, 124.8242
653.1740, 77.26953
654.3360, 142.0195
655.4980, 99.07812
656.6600, 215.2402
657.8210, 154.9258
658.9830, 183.9082
660.1440, 117.9141
661.3050, 101.4980
662.4660, 107.1895
663.6270, 152.7988
664.7870, 127.0996
665.9480, 1.062500
667.1080, 263.3281
668.2680, 33.48828
669.4280, 225.6309
670.5880, 94.13281
671.7480, 23.22266
672.9070, 154.8398
674.0670, 231.7656
675.2260, 180.7324
676.3850, 236.3086
677.5440, 225.4043
678.7030, 138.9961
679.8610, 108.0371
681.0200, 53.07227
682.1780, 133.0176
683.3360, 165.4961
684.4940, 168.2285
685.6520, 179.6543
686.8090, 349.6973
687.9670, 291.9746
689.1240, 287.3906
690.2810, 93.06836
691.4380, 218.4043
692.5950, 38.00977
693.7520, 74.82227
694.9080, 364.1953
696.0650, 3.730469
697.2210, 273.6738
698.3770, 129.3555
699.5330, 35.57617
700.6880, 161.6445
701.8440, 17.25195
702.9990, 114.4590
704.1550, 230.6543
705.3100, 256.9570
706.4650, 269.1211
707.6190, 351.0996
708.7740, 220.6152
709.9290, 225.8867
711.0830, 57.12109
712.2370, 106.9160
713.3910, 73.71484
714.5450, 158.6309
715.6980, 98.09375
716.8520, 88.53906
718.0050, 119.9785
719.1580, 192.1309
720.3110, 312.2637
721.4640, 161.8242
722.6170, 68.98242
723.7700, 204.1367
724.9220, 85.20703
726.0740, 156.7969
727.2260, 117.6035
728.3780, 31.05469
729.5300, 58.28711
730.6810, 218.4258
731.8330, 150.8984
732.9840, 139.6895
734.1350, 164.2227
735.2860, 67.20312
736.4370, 90.61523
737.5880, 107.8828
738.7380, 1.476563
739.8880, 120.1895
741.0390, 149.9922
742.1890, 68.00391
743.3380, 19.13867
744.4880, 2.212891
745.6380, 112.4531
746.7870, 93.39453
747.9360, 300.5488
749.0850, 151.7832
750.2340, 59.85156
751.3830, 130.0488
752.5310, 254.6738
753.6800, 116.4512
754.8280, 324.1309
755.9760, 212.8340
757.1240, 242.6055
758.2720, 93.45508
759.4190, 218.1426
760.5670, 278.9492
761.7140, 46.53516
762.8610, 153.5410
764.0080, 41.11328
765.1550, 24.73633
766.3020, 113.8457
767.4480, 26.67969
768.5950, 262.1387
769.7410, 169.0723
770.8870, 108.4102
772.0330, 244.5332
773.1780, 115.7715
774.3240, 209.4023
775.4690, 212.1855
776.6140, 69.55078
777.7590, 99.54883
778.9040, 380.2617
780.0490, 207.7051
781.1940, 70.91602
782.3380, 452.6230
783.4820, 76.71289
784.6260, 75.07617
785.7700, 205.5176
786.9140, 78.25195
788.0580, 239.6035
789.2010, 83.69141
790.3450, 137.8027
791.4880, 94.48438
792.6310, 251.6855
793.7730, 346.4883
794.9160, 71.91211
796.0590, 319.0469
797.2010, 141.2793
798.3430, 280.1152
799.4850, 247.7910
800.6270, 237.1934
801.7690, 25.18750
802.9100, 267.9707
804.0520, 346.0566
805.1930, 38.58594
806.3340, 105.4688
807.4750, 201.5820
808.6160, 59.92188
809.7560, 148.5918
810.8970, 37.33594
812.0370, 320.3633
813.1770, 265.1582
814.3170, 213.2070
815.4570, 197.1465
816.5960, 86.68359
817.7360, 136.2930
818.8750, 446.9375
820.0140, 141.3828
821.1530, 246.9863
822.2920, 24.58008
823.4310, 25.82031
824.5690, 353.0801
825.7070, 245.9590
826.8460, 38.18945
827.9840, 208.5898
829.1220, 435.1406
830.2590, 246.1133
831.3970, 96.61133
832.5340, 356.2988
833.6710, 82.76367
834.8080, 122.8281
835.9450, 157.7617
837.0820, 65.49805
838.2190, 137.6250
839.3550, 388.9473
840.4910, 185.6973
841.6270, 54.07617
842.7630, 325.5176
843.8990, 296.9434
845.0350, 272.3438
846.1700, 452.6289
847.3060, 295.9258
848.4410, 220.8750
849.5760, 221.4727
850.7100, 205.6484
851.8450, 228.5508
852.9800, 34.08594
854.1140, 316.4062
855.2480, 226.0547
856.3820, 258.1172
857.5160, 67.31250
858.6500, 141.2266
859.7830, 147.2461
860.9170, 405.3242
862.0500, 349.5430
863.1830, 341.4062
864.3160, 324.9883
865.4480, 81.16797
866.5810, 284.5664
867.7130, 238.7812
868.8460, 142.5938
869.9780, 303.6875
871.1100, 257.5547
872.2410, 303.5000
873.3730, 218.7734
874.5050, 175.2578
875.6360, 262.5898
876.7670, 193.1875
877.8980, 216.9961
879.0290, 210.0352
880.1590, 186.5234
881.2900, 151.9961
882.4200, 160.2461
883.5500, 98.26953
884.6800, 30.16016
885.8100, 224.9531
886.9400, 142.7617
888.0690, 275.4531
889.1990, 306.2891
890.3280, 112.8789
891.4570, 108.6992
892.5860, 89.82422
893.7140, 170.6289
894.8430, 155.9727
895.9710, 397.7578
897.1000, 154.5430
898.2280, 77.88281
899.3560, 234.6562
900.4830, 435.1406
901.6110, 54.24219
902.7380, 230.3281
903.8660, 420.8828
904.9930, 247.6211
906.1200, 169.3516
907.2460, 2.7344000E-02
908.3730, 248.6797
909.5000, 297.3633
910.6260, 131.0586
911.7520, 246.7617
912.8780, 128.8555
914.0040, 186.4219
915.1290, 147.8750
916.2550, 182.7461
917.3800, 275.7031
918.5050, 129.6797
919.6300, 173.1914
920.7550, 124.0391
921.8800, 184.5820
923.0040, 315.5391
924.1290, 14.08984
925.2530, 115.1602
926.3770, 320.7031
927.5010, 70.95703
928.6250, 177.5156
929.7480, 622.0781
930.8720, 326.0430
931.9950, 282.6133
933.1180, 183.1914
934.2410, 86.76953
935.3640, 29.36328
936.4860, 141.9531
937.6090, 263.8281
938.7310, 271.4297
939.8530, 170.0508
940.9750, 154.4531
942.0970, 404.0391
943.2180, 260.6914
944.3400, 137.6562
945.4610, 488.3477
946.5820, 463.8750
947.7030, 442.5820
948.8240, 53.30078
949.9450, 245.0273
951.0650, 71.75781
952.1860, 110.6836
953.3060, 356.0078
954.4260, 435.7148
955.5460, 706.4375
956.6650, 507.1719
957.7850, 810.2930
958.9040, 994.8242
960.0230, 1368.590
961.1420, 1590.371
962.2610, 1928.230
963.3800, 1833.039
964.4990, 2261.863
965.6170, 2119.707
966.7350, 1917.469
967.8530, 1537.352
968.9710, 1313.715
970.0890, 952.6367
971.2070, 650.5781
972.3240, 494.0938
973.4410, 211.0781
974.5580, 157.8047
975.6750, 239.1094
976.7920, 129.5391
977.9090, 244.5977
979.0250, 349.6758
980.1410, 237.7695
981.2580, 326.8867
982.3740, 52.01562
983.4890, 222.1758
984.6050, 247.3555
985.7200, 46.55859
986.8360, 186.7773
987.9510, 227.0273
989.0660, 251.2969
990.1810, 235.5938
991.2950, 196.9062
992.4100, 209.9492
993.5240, 176.3086
994.6390, 223.6914
995.7530, 148.0977
996.8660, 118.8672
997.9800, 141.0430
999.0940, 5.449219
1000.207, 1.019531
1001.320, 75.99609
1002.433, 29.11328
1003.546, 6.679688
1004.659, 42.26953
1005.772, 181.8789
1006.884, 260.5195
1007.996, 303.0625
1009.108, 120.8867
1010.220, 355.6250
1011.332, 498.3906
1012.444, 464.1797
1013.555, 182.0000
1014.666, 2.144531
1015.777, 230.2539
1016.888, 192.9258
1017.999, 46.26953
1019.110, 102.5820
1020.220, 139.4023
1021.331, 236.7930
1022.441, 268.1445
1023.551, 256.0625
1024.661, 48.01172
1025.770, 68.00781
1026.880, 75.84375
1027.989, 205.8555
1029.098, 109.8945
1030.207, 185.9648
1031.316, 181.7461
1032.425, 330.0273
1033.533, 215.2266
1034.642, 248.4648
1035.750, 358.1445
1036.858, 103.5000
1037.966, 108.8984
1039.073, 85.34766
1040.181, 321.8359
1041.288, 140.0312
1042.396, 305.6172
1043.503, 91.23828
1044.610, 357.8906
1045.716, 245.5820
1046.823, 226.3086
1047.929, 230.0781
1049.036, 93.47266
1050.142, 297.3125
1051.248, 182.1914
1052.353, 323.8711
1053.459, 247.8320
1054.564, 232.8359
1055.670, 452.8867
1056.775, 370.9805
1057.880, 133.7461
1058.985, 269.9219
1060.089, 359.1367
1061.194, 114.3633
1062.298, 470.6641
1063.402, 428.9961
1064.506, 16.37891
1065.610, 467.8008
1066.713, 174.2617
1067.817, 48.76953
1068.920, 96.60938
1070.023, 271.1953
1071.126, 423.8359
1072.229, 188.5156
1073.332, 185.2383
1074.435, 283.0273
1075.537, 116.8633
1076.639, 389.7383
1077.741, 265.6602
1078.843, 336.6289
1079.945, 310.6406
1081.046, 35.70312
1082.148, 375.7656
1083.249, 264.9141
1084.350, 420.1055
1085.451, 156.0156
1086.551, 59.30078
1087.652, 276.6328
1088.752, 262.0117
1089.853, 486.4375
1090.953, 304.9141
1092.053, 481.4609
1093.152, 164.3203
1094.252, 485.9609
1095.351, 191.6719
1096.451, 237.4258
1097.550, 395.2305
1098.649, 387.8594
1099.748, 266.7617
1100.846, 223.7148
1101.945, 560.7500
1103.043, 278.8281
1104.141, 337.9609
1105.239, 529.1406
1106.337, 309.3711
1107.434, 347.6523
1108.532, 478.9844
1109.629, 22.37109
1110.726, 333.8047
1111.823, 45.28516
1112.920, 309.8203
1114.017, 224.4102
1115.113, 106.0430
1116.210, 474.7305
1117.306, 453.4766
1118.402, 311.2656
1119.498, 383.1094
1120.593, 483.0078
1121.689, 674.9609
1122.784, 630.9648
1123.879, 585.0195
1124.974, 132.1328
1126.069, 331.2969
1127.164, 77.51172
1128.259, 210.2461
1129.353, 144.5664
1130.447, 164.9453
1131.541, 213.5039
1132.635, 73.40234
1133.729, 349.7773
1134.822, 406.3711
1135.916, 268.6875
1137.009, 229.3867
1138.102, 633.1445
1139.195, 279.9531
1140.288, 309.8203
1141.380, 579.7422
1142.473, 298.7188
1143.565, 281.7500
1144.657, 359.8359
1145.749, 438.9766
1146.841, 368.6094
1147.932, 249.1641
1149.024, 391.7812
1150.115, 320.1484
1151.206, 70.58203
1152.297, 190.0703
1153.388, 377.6172
1154.479, 340.5625
1155.569, 69.22266
1156.659, 379.9414
1157.750, 232.4062
1158.839, 400.2383
1159.929, 262.1328
1161.019, 650.0859
1162.108, 278.3672
1163.198, 7.437500
1164.287, 263.7734
1165.376, 174.9609
1166.465, 363.1992
1167.553, 253.5078
1168.642, 245.8711
1169.730, 531.9609
1170.818, 386.4414
1171.906, 316.9805
1172.994, 556.2695
1174.082, 234.9375
1175.170, 175.6602
1176.257, 648.4453
1177.344, 603.2891
1178.431, 216.1914
1179.518, 4.152344
1180.605, 492.2148
1181.691, 391.3359
1182.778, 235.5195
1183.864, 423.5469
1184.950, 345.8867
1186.036, 136.4688
1187.122, 289.9258
1188.207, 340.4453
1189.292, 227.0273
1190.378, 370.6797
1191.463, 316.3789
1192.548, 390.1445
1193.632, 462.9648
1194.717, 330.8477
1195.801, 30.78906
1196.886, 238.7930
1197.970, 165.8555
1199.054, 196.9766
1200.137, 479.1680
1201.221, 585.4102
1202.305, 41.71875
1203.388, 457.0820
1204.471, 354.5156
1205.554, 646.9961
1206.637, 405.5469
1207.719, 358.1523
1208.802, 316.8320
1209.884, 513.5742
1210.966, 562.3711
1212.048, 490.2344
1213.130, 368.1562
1214.212, 736.1523
1215.293, 439.2031
1216.374, 759.3516
1217.456, 355.5586
1218.536, 728.8281
1219.617, 403.1562
1220.698, 131.5508
1221.778, 721.0039
1222.859, 16.48047
1223.939, 236.0898
1225.019, 529.7227
1226.099, 118.4180
1227.178, 658.1758
1228.258, 72.00781
1229.337, 319.8516
1230.417, 414.7773
1231.496, 470.7656
1232.574, 499.8125
1233.653, 333.9219
1234.732, 344.0938
1235.810, 350.3242
1236.888, 383.6133
1237.966, 422.5586
1239.044, 402.3906
1240.122, 397.3281
1241.199, 384.4102
1242.277, 355.1055
1243.354, 338.7812
1244.431, 359.4062
1245.508, 289.1992
1246.585, 360.0508
1247.661, 422.9688
1248.738, 541.9453
1249.814, 302.9844
1250.890, 535.0898
1251.966, 332.2578
1253.042, 575.4883
1254.117, 190.7812
1255.193, 521.1367
1256.268, 435.5586
1257.343, 195.9570
1258.418, 110.5391
1259.493, 231.1016
1260.567, 96.73828
1261.642, 398.4375
1262.716, 361.2031
1263.790, 475.0469
1264.864, 397.9453
1265.938, 358.4805
1267.011, 387.9141
1268.085, 328.9805
1269.158, 332.0664
1270.231, 474.2695
1271.304, 323.4922
1272.377, 377.7773
1273.450, 403.1094
1274.522, 267.4961
1275.594, 120.9375
1276.666, 323.4375
1277.738, 108.0391
1278.810, 363.7305
1279.882, 16.48047
1280.953, 234.2852
1282.025, 81.12891
1283.096, 19.01172
1284.167, 378.9062
1285.238, 264.8750
1286.308, 98.89844
1287.379, 259.9883
1288.449, 248.1328
1289.519, 199.3203
1290.589, 15.44141
1291.659, 420.8555
1292.729, 51.79688
1293.798, 183.6016
1294.868, 382.0586
1295.937, 20.56641
1297.006, 177.1289
1298.075, 123.2539
1299.143, 38.40625
1300.212, 11.12109
1301.280, 198.1094
1302.348, 16.68750
1303.416, 88.53906
1304.484, 182.4453
1305.552, 72.41016
1306.620, 22.42969
1307.687, 56.71875
1308.754, 74.62500
1309.821, 30.80469
1310.888, 61.04297
1311.955, 34.66406
1313.021, 301.6797
1314.088, 80.92578
1315.154, 389.5234
1316.220, 34.02734
1317.286, 460.5820
1318.352, 425.1953
1319.417, 476.8594
1320.483, 714.5820
1321.548, 581.3594
1322.613, 440.1914
1323.678, 600.0742
1324.743, 263.0156
1325.807, 521.0078
1326.872, 590.0586
1327.936, 727.1602
1329.000, 313.3203
1330.064, 587.5312
1331.128, 603.7969
1332.191, 446.1211
1333.255, 1031.500
1334.318, 986.9336
1335.381, 786.4180
1336.444, 541.3242
1337.507, 663.9258
1338.569, 448.5820
1339.632, 754.3008
1340.694, 565.0742
1341.756, 399.6016
1342.818, 780.4922
1343.880, 685.4414
1344.941, 809.4531
1346.003, 329.5273
1347.064, 357.6562
1348.125, 554.8477
1349.186, 649.0977
1350.247, 540.4141
1351.308, 525.5273
1352.368, 583.9609
1353.428, 569.4648
1354.489, 617.0312
1355.549, 517.6562
1356.608, 585.9727
1357.668, 495.3359
1358.727, 661.1641
1359.787, 672.0586
1360.846, 700.0156
1361.905, 480.0469
1362.964, 595.1484
1364.022, 551.2734
1365.081, 741.4648
1366.139, 753.7266
1367.197, 593.0000
1368.255, 494.3438
1369.313, 624.7539
1370.371, 764.2422
1371.428, 627.8008
1372.486, 610.4375
1373.543, 487.1523
1374.600, 453.9531
1375.657, 197.8125
1376.713, 248.3633
1377.770, 546.7773
1378.826, 295.8789
1379.882, 460.0742
1380.938, 561.3633
1381.994, 412.7461
1383.050, 361.2305
1384.106, 572.8164
1385.161, 517.0586
1386.216, 633.3555
1387.271, 496.3125
1388.326, 462.4141
1389.381, 294.1680
1390.435, 294.7930
1391.490, 610.2344
1392.544, 298.9688
1393.598, 404.7852
1394.652, 476.6680
1395.705, 307.6328
1396.759, 385.6758
1397.812, 555.7891
1398.866, 485.9805
1399.919, 591.3516
1400.972, 382.2070
1402.024, 486.6172
1403.077, 499.1055
1404.129, 443.8320
1405.181, 502.6211
1406.233, 437.3125
1407.285, 504.0859
1408.337, 512.6484
1409.389, 454.9531
1410.440, 308.5391
1411.491, 466.4844
1412.542, 448.5000
1413.593, 654.5859
1414.644, 354.8320
1415.695, 272.3281
1416.745, 499.5898
1417.795, 464.9258
1418.845, 439.2695
1419.895, 213.8164
1420.945, 364.3633
1421.995, 274.9805
1423.044, 297.6641
1424.093, 484.4219
1425.142, 393.2500
1426.191, 263.1367
1427.240, 279.0781
1428.289, 251.1133
1429.337, 376.1328
1430.385, 272.2305
1431.433, 357.3984
1432.481, 306.6289
1433.529, 385.9102
1434.577, 394.1836
1435.624, 281.6797
1436.672, 405.1641
1437.719, 414.7266
1438.766, 363.3398
1439.812, 190.0078
1440.859, 169.7266
1441.905, 326.5078
1442.952, 493.3398
1443.998, 712.2227
1445.044, 291.1484
1446.090, 320.1172
1447.135, 474.1328
1448.181, 66.18359
1449.226, 120.2695
1450.271, 131.3828
1451.316, 216.6133
1452.361, 211.7305
1453.405, 240.5703
1454.450, 245.4609
1455.494, 297.9141
1456.538, 364.4648
1457.582, 464.1250
1458.626, 40.88672
1459.670, 222.7617
1460.713, 384.7617
1461.757, 71.11719
1462.800, 178.2734
1463.843, 545.8594
1464.886, 150.5664
1465.928, 346.4531
1466.971, 76.50781
1468.013, 248.6602
1469.055, 354.9609
1470.097, 458.3984
1471.139, 379.9688
1472.181, 411.6836
1473.222, 328.5430
1474.263, 283.5469
1475.305, 347.7070
1476.346, 326.0312
1477.386, 475.5195
1478.427, 308.1758
1479.468, 483.0117
1480.508, 522.0391
1481.548, 224.2578
1482.588, 328.6914
1483.628, 473.3555
1484.668, 259.2656
1485.707, 74.43359
1486.747, 116.8789
1487.786, 89.61328
1488.825, 117.5859
1489.864, 222.4727
1490.902, 268.6328
1491.941, 120.7539
1492.979, 419.8203
1494.017, 350.1328
1495.055, 11.69141
1496.093, 323.4961
1497.131, 234.5586
1498.168, 0.1289060
1499.206, 0.5625000
1500.243, 198.2422
1501.280, 260.2461
1502.317, 67.87500
1503.354, 414.2305
1504.390, 402.3320
1505.426, 314.1445
1506.463, 107.7930
1507.499, 274.1328
1508.535, 372.0508
1509.570, 295.6250
1510.606, 3.105469
1511.641, 118.3008
1512.676, 272.3711
1513.711, 397.1992
1514.746, 0.0000000E+00
##END=



