##NAMES=Forsterite
##RRUFFID=R060539
##IDEAL CHEMISTRY=Mg_2_SiO_4_
##LOCALITY=Sri Lanka
##OWNER=RRUFF
##SOURCE=Gemological Institute of America
##DESCRIPTION=Brown cut gemstone
##STATUS=The identification of this mineral has been confirmed by X-ray diffraction and chemical analysis
##URL=rruff.info/R060539
##MEASURED CHEMISTRY=(Mg_1.67_Fe_0.33_)_Î£=2_Si_1.00_O_4_; trace amounts of Mn and Ca
##PIN_ID=L01554
##ORIENTATION=Laser parallel to -c* (0 0 -1). Fiducial mark perpendicular to laser is parallel to a [1 0 0]
128.7420, 0.0000000E+00
129.9750, 8.3313003E-02
131.2070, 21.82422
132.4390, 26.64050
133.6710, 21.27087
134.9030, 36.26709
136.1350, 21.66785
137.3670, 31.82098
138.5980, 30.79132
139.8290, 6.775024
141.0600, 25.39374
142.2910, 13.03693
143.5220, 8.037476
144.7530, 7.137817
145.9830, 3.536682
147.2130, 38.14044
148.4440, 46.93262
149.6730, 2.103149
150.9030, 11.01733
152.1330, 68.27991
153.3630, 2.328003
154.5920, 46.18262
155.8210, 29.80182
157.0500, 22.52087
158.2790, 12.33185
159.5080, 14.22803
160.7360, 50.20349
161.9650, 35.25928
163.1930, 77.39825
164.4210, 47.62421
165.6490, 69.93042
166.8770, 102.3079
168.1040, 107.7489
169.3320, 109.2468
170.5590, 98.79620
171.7860, 125.3928
173.0130, 129.0327
174.2400, 164.7138
175.4670, 121.4329
176.6930, 171.1877
177.9200, 182.9760
179.1460, 149.7960
180.3720, 185.6457
181.5980, 179.5238
182.8230, 155.4287
184.0490, 143.3591
185.2740, 194.3138
186.5000, 188.2917
187.7250, 173.2917
188.9500, 154.3130
190.1740, 158.3547
191.3990, 180.4163
192.6230, 170.5126
193.8480, 136.7062
195.0720, 171.9521
196.2960, 145.2715
197.5200, 218.6891
198.7430, 151.1985
199.9670, 207.7123
201.1900, 246.2250
202.4130, 247.7349
203.6360, 302.2285
204.8590, 336.7112
206.0820, 379.1852
207.3050, 444.6525
208.5270, 526.1150
209.7490, 590.5726
210.9710, 696.0264
212.1930, 733.4797
213.4150, 849.9331
214.6370, 856.3875
215.8580, 913.8436
217.0790, 937.3130
218.3010, 1001.785
219.5210, 962.2605
220.7420, 934.7391
221.9630, 956.2213
223.1830, 902.7075
224.4040, 893.1978
225.6240, 872.8030
226.8440, 836.1907
228.0640, 830.6938
229.2840, 794.2015
230.5030, 788.7136
231.7230, 773.2242
232.9420, 772.7515
234.1610, 731.2771
235.3800, 722.8075
236.5990, 662.3420
237.8170, 627.8811
239.0360, 577.4242
240.2540, 535.2168
241.4720, 492.6804
242.6900, 450.0790
243.9080, 412.6390
245.1250, 361.2032
246.3430, 336.7720
247.5600, 280.3452
248.7770, 259.9231
249.9940, 207.5059
251.2110, 201.0936
252.4280, 177.6869
253.6450, 175.2856
254.8610, 147.8907
256.0770, 168.0483
257.2930, 184.9883
258.5090, 186.0741
259.7250, 170.2115
260.9400, 133.8254
262.1560, 173.5284
263.3710, 106.9562
264.5860, 145.1816
265.8010, 121.9612
267.0160, 135.3667
268.2310, 129.4103
269.4450, 166.9325
270.6600, 152.4612
271.8740, 181.9961
273.0880, 183.5370
274.3020, 176.0836
275.5150, 168.4316
276.7290, 181.3743
277.9420, 177.5874
279.1550, 182.8342
280.3680, 173.1108
281.5810, 233.4156
282.7940, 216.7285
284.0070, 249.0686
285.2190, 276.4335
286.4310, 270.8197
287.6430, 351.2258
288.8550, 360.6521
290.0670, 407.8768
291.2790, 415.3394
292.4900, 446.8185
293.7020, 535.3130
294.9130, 582.8223
296.1240, 591.3206
297.3350, 603.8564
298.5450, 610.4045
299.7560, 612.9407
300.9660, 607.9053
302.1760, 541.0989
303.3860, 588.3689
304.5960, 545.9805
305.8060, 532.5906
307.0150, 609.2092
308.2250, 676.8363
309.4340, 750.4713
310.6430, 904.1136
311.8520, 1060.763
313.0610, 1144.420
314.2700, 1335.082
315.4780, 1481.751
316.6860, 1696.425
317.8940, 1909.104
319.1020, 2041.789
320.3100, 2149.480
321.5180, 2109.175
322.7250, 2215.875
323.9330, 2201.579
325.1400, 2178.287
326.3470, 2150.000
327.5540, 1931.716
328.7600, 1942.437
329.9670, 1802.161
331.1730, 1834.888
332.3800, 1649.619
333.5860, 1560.353
334.7920, 1459.091
335.9970, 1323.831
337.2030, 1198.574
338.4080, 1033.319
339.6140, 909.0674
340.8190, 768.3899
342.0240, 656.5131
343.2290, 546.8223
344.4330, 467.0732
345.6380, 366.8263
346.8420, 306.5801
348.0460, 265.3357
349.2500, 209.0934
350.4540, 238.8525
351.6580, 152.6129
352.8610, 199.3755
354.0650, 152.1426
355.2680, 145.9119
356.4710, 132.6857
357.6740, 143.4658
358.8760, 123.2556
360.0790, 118.0499
361.2810, 93.84595
362.4840, 110.6442
363.6860, 64.44836
364.8880, 69.25854
366.0900, 79.07617
367.2910, 47.90149
368.4930, 72.73425
369.6940, 79.57471
370.8950, 64.42285
372.0960, 51.27905
373.2970, 65.14575
374.4980, 45.02673
375.6980, 34.92444
376.8980, 57.83972
378.0990, 24.76587
379.2990, 21.70251
380.4980, 37.64685
381.6980, 23.39587
382.8980, 20.43274
384.0970, 15.46326
385.2960, 17.48254
386.4950, 5.498169
387.6940, 8.661377
388.8930, 7.507202
390.0920, 5.474976
391.2900, 9.445190
392.4880, 0.5815430
393.6860, 29.39258
394.8840, 4.372559
396.0820, 6.353027
397.2800, 18.33130
398.4770, 18.30591
399.6750, 25.28125
400.8720, 19.27075
402.0690, 17.41003
403.2660, 21.28394
404.4620, 5.309692
405.6590, 15.65735
406.8550, 25.61218
408.0510, 12.56079
409.2480, 59.49500
410.4430, 44.41260
411.6390, 82.31555
412.8350, 81.21948
414.0300, 118.1208
415.2250, 137.0198
416.4200, 188.9159
417.6150, 176.8094
418.8100, 261.7001
420.0050, 252.5889
421.1990, 282.4774
422.3940, 314.3647
423.5880, 334.2502
424.7820, 292.1340
425.9750, 301.0159
427.1690, 249.8954
428.3630, 234.7727
429.5560, 205.6475
430.7490, 181.5195
431.9420, 140.3887
433.1350, 164.2549
434.3280, 118.1190
435.5200, 93.97974
436.7130, 27.83716
437.9050, 51.69104
439.0970, 74.54102
440.2890, 54.38745
441.4810, 68.22986
442.6720, 44.06836
443.8640, 27.90259
445.0550, 55.73242
446.2460, 1.442017
447.4370, 28.37244
448.6280, 60.18201
449.8180, 32.98682
451.0090, 48.78687
452.1990, 56.58191
453.3890, 56.37195
454.5790, 65.15674
455.7690, 75.93628
456.9590, 39.71057
458.1480, 90.47949
459.3380, 59.24292
460.5270, 86.00061
461.7160, 88.75269
462.9050, 100.4988
464.0940, 108.2393
465.2820, 94.97388
466.4700, 95.70239
467.6590, 91.42468
468.8470, 96.14087
470.0350, 109.8507
471.2220, 85.55432
472.4100, 128.2515
473.5970, 141.9420
474.7850, 155.6261
475.9720, 133.3036
477.1590, 121.9744
478.3460, 116.6383
479.5320, 108.2954
480.7190, 114.6195
481.9050, 115.5885
483.0910, 135.2247
484.2770, 124.8535
485.4630, 140.4752
486.6490, 136.0940
487.8340, 145.7012
489.0200, 174.3008
490.2050, 102.2341
491.3900, 158.1482
492.5750, 150.9093
493.7600, 122.6479
494.9440, 174.6053
496.1290, 170.9313
497.3130, 164.9066
498.4970, 146.2954
499.6810, 207.1154
500.8650, 183.6614
502.0480, 203.0564
503.2320, 212.8654
504.4150, 220.7808
505.5980, 226.5375
506.7810, 268.2715
507.9640, 295.2975
509.1460, 270.4910
510.3290, 306.6022
511.5110, 363.7255
512.6930, 331.9261
513.8750, 385.1729
515.0570, 378.9691
516.2390, 475.7551
517.4210, 472.0931
518.6020, 513.6711
519.7830, 628.6072
520.9640, 603.4719
522.1450, 660.7019
523.3260, 840.1177
524.5060, 874.0510
525.6870, 1027.027
526.8670, 1253.239
528.0470, 1443.550
529.2270, 1777.579
530.4070, 2068.864
531.5870, 2348.013
532.7660, 2793.333
533.9450, 3127.259
535.1240, 3375.656
536.3030, 3792.816
537.4820, 3939.220
538.6610, 3907.309
539.8390, 3757.706
541.0180, 3560.092
542.1960, 3046.968
543.3740, 2495.784
544.5520, 2122.675
545.7290, 1730.274
546.9070, 1391.323
548.0840, 1123.391
549.2620, 956.5320
550.4390, 775.5679
551.6160, 700.6451
552.7920, 642.7151
553.9690, 538.9680
555.1450, 526.9504
556.3220, 482.9197
557.4980, 450.8752
558.6740, 411.8173
559.8490, 386.7457
561.0250, 369.0945
562.2000, 348.5619
563.3760, 340.4495
564.5510, 326.9496
565.7260, 326.1840
566.9010, 317.0308
568.0750, 326.8639
569.2500, 340.6832
570.4240, 340.0050
571.5980, 388.2812
572.7720, 356.0596
573.9460, 363.8245
575.1200, 381.5754
576.2930, 354.3126
577.4670, 343.0363
578.6400, 339.7462
579.8130, 273.4424
580.9860, 302.1250
582.1590, 286.7939
583.3310, 295.4492
584.5040, 247.0908
585.6760, 283.7129
586.8480, 203.3271
588.0200, 253.2489
589.1920, 199.8257
590.3630, 191.3992
591.5350, 206.9591
592.7060, 177.5056
593.8770, 202.0383
595.0480, 182.5579
596.2190, 212.0640
597.3900, 219.5565
598.5600, 241.0356
599.7310, 236.5015
600.9010, 229.9539
602.0710, 275.3928
603.2410, 273.8186
604.4100, 293.2310
605.5800, 341.6301
606.7490, 278.0161
607.9190, 235.3889
609.0880, 246.7485
610.2570, 255.0952
611.4250, 228.4288
612.5940, 260.7493
613.7620, 262.0569
614.9310, 221.3516
616.0990, 223.6333
617.2670, 174.9020
618.4340, 206.1580
619.6020, 149.4014
620.7690, 169.6318
621.9370, 162.8499
623.1040, 149.0549
624.2710, 97.24756
625.4380, 118.4277
626.6040, 78.59521
627.7710, 100.7504
628.9370, 80.89282
630.1030, 34.02307
631.2690, 34.13782
632.4350, 45.23718
633.6010, 46.32288
634.7660, 28.39453
635.9320, 13.45032
637.0970, 25.48694
638.2620, 10.50757
639.4270, 1.508301
640.5920, 10.51514
641.7560, 8.431641
642.9210, 29.35840
644.0850, 22.27039
645.2490, 0.1669920
646.4130, 4.0160999E-02
647.5770, 5.109863
648.7400, 8.285522
649.9040, 7.489258
651.0670, 8.209229
652.2300, 9.972656
653.3930, 11.25513
654.5560, 20.56470
655.7190, 36.90649
656.8810, 46.28845
658.0440, 50.71521
659.2060, 25.18884
660.3680, 24.69543
661.5300, 15.23450
662.6910, 34.80090
663.8530, 33.40430
665.0140, 32.03772
666.1750, 47.70056
667.3360, 20.40210
668.4970, 37.12683
669.6580, 60.88623
670.8190, 19.69165
671.9790, 44.52332
673.1390, 6.607788
674.2990, 7.729980
675.4590, 5.158691
676.6190, 1.056030
677.7790, 14.96594
678.9380, 32.89490
680.0970, 17.84863
681.2570, 1.818481
682.4160, 27.79382
683.5740, 17.21057
684.7330, 22.21265
685.8920, 4.786011
687.0500, 16.20508
688.2080, 3.188965
689.3660, 23.16455
690.5240, 4.133301
691.6820, 2.094727
692.8390, 20.95154
693.9960, 21.98364
695.1540, 48.91260
696.3110, 50.83545
697.4680, 61.92749
698.6240, 27.66357
699.7810, 47.56909
700.9370, 21.46924
702.0940, 5.363770
703.2500, 27.25317
704.4060, 10.16248
705.5610, 64.01685
706.7170, 13.89136
707.8720, 58.76123
709.0280, 71.62646
710.1830, 37.48743
711.3380, 73.34399
712.4920, 66.19653
713.6470, 100.0452
714.8020, 47.88977
715.9560, 67.73083
717.1100, 62.56812
718.2640, 36.40210
719.4180, 37.23279
720.5720, 77.06030
721.7250, 81.88477
722.8780, 72.70642
724.0320, 61.52539
725.1850, 75.76880
726.3380, 64.15576
727.4900, 105.9708
728.6430, 112.7837
729.7950, 141.5946
730.9470, 93.40369
732.1000, 109.2112
733.2510, 103.0170
734.4030, 111.8213
735.5550, 116.6245
736.7060, 125.6824
737.8570, 131.2526
739.0090, 150.0276
740.1600, 144.8269
741.3100, 153.6262
742.4610, 164.4252
743.6110, 183.2266
744.7620, 183.0294
745.9120, 227.8345
747.0620, 239.6395
748.2120, 216.4449
749.3610, 283.2510
750.5110, 246.0602
751.6600, 262.8704
752.8090, 286.6812
753.9580, 272.4929
755.1070, 340.3062
756.2560, 318.1205
757.4050, 301.9381
758.5530, 374.7572
759.7010, 381.5782
760.8490, 453.4009
761.9970, 394.2257
763.1450, 444.0529
764.2920, 461.8821
765.4400, 502.7095
766.5870, 514.5439
767.7340, 599.3810
768.8810, 607.8800
770.0280, 625.3938
771.1740, 639.0581
772.3210, 657.7407
773.4670, 691.2002
774.6130, 728.0742
775.7590, 769.7239
776.9050, 816.7432
778.0510, 870.3289
779.1960, 904.1865
780.3420, 933.1914
781.4870, 1011.782
782.6320, 1043.263
783.7770, 1067.900
784.9210, 1276.564
786.0660, 1355.936
787.2100, 1408.145
788.3540, 1425.446
789.4980, 1613.742
790.6420, 1651.966
791.7860, 1874.149
792.9300, 2009.780
794.0730, 2166.426
795.2160, 2407.520
796.3590, 2651.006
797.5020, 2919.877
798.6450, 3287.445
799.7880, 3666.645
800.9300, 4090.656
802.0720, 4575.798
803.2150, 5223.068
804.3560, 6115.405
805.4980, 6927.507
806.6400, 8367.614
807.7810, 9706.282
808.9230, 11677.58
810.0640, 14143.37
811.2050, 17062.30
812.3460, 20710.28
813.4860, 25367.70
814.6270, 30701.42
815.7670, 36434.32
816.9070, 42261.17
818.0470, 48290.00
819.1870, 52684.90
820.3270, 55226.22
821.4670, 55110.56
822.6060, 52458.95
823.7450, 47704.86
824.8840, 42123.28
826.0230, 36362.62
827.1620, 31011.06
828.3010, 26155.47
829.4390, 22321.88
830.5770, 19564.12
831.7150, 17105.63
832.8530, 15435.16
833.9910, 14043.70
835.1290, 13099.25
836.2660, 12420.83
837.4030, 12034.42
838.5410, 11900.02
839.6780, 11964.64
840.8140, 12300.27
841.9510, 13012.93
843.0870, 13755.59
844.2240, 14883.27
845.3600, 16446.96
846.4960, 17861.68
847.6320, 19521.41
848.7680, 21460.15
849.9030, 22826.91
851.0380, 23684.70
852.1740, 24029.48
853.3090, 23355.29
854.4440, 21897.12
855.5780, 19756.96
856.7130, 17696.82
857.8470, 15346.69
858.9820, 12913.58
860.1160, 11186.49
861.2500, 9496.412
862.3830, 8046.354
863.5170, 6879.312
864.6500, 5823.286
865.7840, 5052.279
866.9170, 4352.287
868.0500, 3656.312
869.1830, 3253.355
870.3150, 2757.415
871.4480, 2481.492
872.5800, 2266.586
873.7120, 1929.698
874.8440, 1692.827
875.9760, 1576.974
877.1080, 1422.201
878.2390, 1223.382
879.3710, 1113.145
880.5020, 1003.631
881.6330, 955.2773
882.7640, 791.5298
883.8940, 702.8002
885.0250, 639.0884
886.1550, 554.4250
887.2850, 536.2637
888.4160, 452.6055
889.5450, 461.9653
890.6750, 414.3431
891.8050, 342.7390
892.9340, 332.4521
894.0630, 309.8842
895.1930, 271.3345
896.3220, 235.8029
897.4500, 244.2896
898.5790, 245.7944
899.7070, 260.3177
900.8360, 247.8594
901.9640, 223.4196
903.0920, 210.9980
904.2200, 217.5950
905.3470, 226.2122
906.4750, 239.2113
907.6020, 237.8679
908.7290, 263.5439
909.8560, 280.2402
910.9830, 269.5894
912.1100, 318.3285
913.2360, 320.2070
914.3630, 371.4697
915.4890, 355.2841
916.6150, 387.6915
917.7410, 411.5490
918.8670, 387.7688
919.9920, 359.2229
921.1180, 395.8154
922.2430, 294.4927
923.3680, 359.0443
924.4930, 378.7629
925.6180, 382.3429
926.7420, 449.2534
927.8670, 397.3363
928.9910, 441.0940
930.1150, 496.8204
931.2390, 514.5461
932.3630, 553.7607
933.4860, 629.0045
934.6100, 697.2769
935.7330, 759.5754
936.8560, 858.9788
937.9790, 971.6525
939.1020, 1084.476
940.2250, 1170.016
941.3470, 1418.828
942.4700, 1541.023
943.5920, 1709.078
944.7140, 1973.793
945.8360, 2172.368
946.9570, 2433.962
948.0790, 2593.596
949.2000, 2908.746
950.3220, 3220.398
951.4430, 3567.949
952.5640, 3746.818
953.6840, 3912.545
954.8050, 4093.291
955.9250, 4110.556
957.0460, 4194.518
958.1660, 4178.321
959.2860, 4010.532
960.4050, 4009.369
961.5250, 3746.284
962.6440, 3458.154
963.7640, 3298.824
964.8830, 3043.726
966.0020, 2709.112
967.1210, 2467.050
968.2390, 2295.004
969.3580, 2005.366
970.4760, 1705.859
971.5940, 1547.858
972.7120, 1312.871
973.8300, 1146.900
974.9480, 994.9431
976.0650, 903.0010
977.1830, 772.0735
978.3000, 698.1608
979.4170, 597.6010
980.5340, 515.7170
981.6500, 457.4763
982.7670, 429.9921
983.8830, 362.1510
985.0000, 346.3240
986.1160, 332.5111
987.2320, 271.7122
988.3470, 244.9271
989.4630, 308.1559
990.5780, 230.3984
991.6940, 249.6547
992.8090, 172.9244
993.9240, 174.2078
995.0380, 155.5046
996.1530, 110.8148
997.2680, 119.1798
998.3820, 88.51636
999.4960, 67.52393
1000.610, 52.57971
1001.724, 29.60449
1002.837, 15.99304
1003.951, 8.394287
1005.064, 8.808350
1006.177, 16.23499
1007.291, 10.67578
1008.403, 47.12891
1009.516, 11.59497
1010.629, 4.926392
1011.741, 45.56921
1012.853, 23.92322
1013.965, 14.40942
1015.077, 18.88660
1016.189, 40.64880
1017.300, 57.19653
1018.412, 13.75659
1019.523, 21.67175
1020.634, 52.90601
1021.745, 34.49512
1022.856, 52.09900
1023.966, 41.71399
1025.077, 13.34106
1026.187, 13.02100
1027.297, 51.62610
1028.407, 69.28394
1029.517, 16.95312
1030.627, 33.63660
1031.736, 21.33057
1032.845, 4.035034
1033.955, 11.47607
1035.064, 5.478149
1036.172, 13.21594
1037.281, 16.96436
1038.390, 28.72742
1039.498, 11.49866
1040.606, 8.281128
1041.714, 34.07324
1042.822, 50.87476
1043.930, 16.31421
1045.037, 12.50684
1046.145, 6.655884
1047.252, 8.812378
1048.359, 32.03687
1049.466, 13.10510
1050.573, 8.755737
1051.679, 7.374878
1052.786, 31.50085
1053.892, 13.63281
1054.998, 33.76306
1056.104, 48.90112
1057.210, 51.05396
1058.315, 29.22290
1059.421, 34.39844
1060.526, 12.41699
1061.631, 29.76038
1062.736, 8.945435
1063.841, 27.12939
1064.946, 13.67957
1066.050, 14.49524
1067.154, 26.31738
1068.258, 20.14697
1069.362, 3.982666
1070.466, 1.176636
1071.570, 22.33362
1072.674, 34.48694
1073.777, 38.65344
1074.880, 7.833740
1075.983, 4.015869
1077.086, 3.802002
1078.189, 49.62268
1079.291, 15.44824
1080.394, 10.27881
1081.496, 38.88672
1082.598, 16.93005
1083.700, 44.24854
1084.802, 6.552124
1085.903, 14.36975
1087.005, 82.19128
1088.106, 1.6602000E-02
1089.207, 7.841553
1090.308, 19.66821
1091.409, 15.50146
1092.509, 58.31970
1093.610, 8.855347
1094.710, 23.96289
1095.810, 3.214844
1096.910, 22.60327
1098.010, 3.424316
1099.110, 46.24377
1100.209, 68.06604
1101.309, 5.891357
1102.408, 3.715088
1103.507, 67.53662
1104.606, 31.36072
1105.704, 40.18726
1106.803, 42.01636
1107.901, 42.84778
1108.999, 80.68127
1110.097, 104.5171
1111.195, 10.35510
1112.293, 42.19165
1113.391, 39.03015
1114.488, 58.87061
1115.585, 57.71265
1116.682, 74.70361
1117.779, 67.40222
1118.876, 97.24927
1119.973, 91.09778
1121.069, 77.94775
1122.165, 62.79907
1123.261, 84.65161
1124.357, 73.50537
1125.453, 62.36011
1126.549, 81.21594
1127.644, 39.07288
1128.739, 27.93066
1129.835, 82.78857
1130.930, 77.64722
1132.024, 115.5067
1133.119, 118.3666
1134.214, 84.22717
1135.308, 59.08801
1136.402, 127.9553
1137.496, 134.8171
1138.590, 80.00537
1139.684, 164.8673
1140.777, 104.8690
1141.871, 155.7898
1142.964, 131.8323
1144.057, 170.6941
1145.150, 93.99231
1146.243, 187.5844
1147.335, 116.1769
1148.428, 121.1482
1149.520, 143.1581
1150.612, 149.0441
1151.704, 129.3571
1152.796, 91.21533
1153.887, 120.8551
1154.979, 144.7117
1156.070, 113.7500
1157.161, 163.6047
1158.252, 119.4700
1159.343, 117.3226
1160.433, 117.3286
1161.524, 156.9932
1162.614, 125.8420
1163.704, 159.6896
1164.794, 164.8439
1165.884, 137.8373
1166.974, 161.2399
1168.063, 121.7604
1169.153, 161.7102
1170.242, 157.7556
1171.331, 137.2295
1172.420, 150.6846
1173.508, 139.5167
1174.597, 127.3467
1175.685, 172.1840
1176.774, 145.6128
1177.862, 144.1906
1178.950, 148.8317
1180.037, 131.6501
1181.125, 132.8959
1182.212, 112.7095
1183.300, 99.17847
1184.387, 127.4358
1185.474, 99.58911
1186.560, 126.6681
1187.647, 82.89673
1188.733, 127.9868
1189.820, 114.2341
1190.906, 157.1749
1191.992, 103.9678
1193.078, 93.11206
1194.163, 165.3182
1195.249, 118.5580
1196.334, 131.3427
1197.419, 159.1251
1198.504, 195.1353
1199.589, 223.9137
1200.674, 209.9252
1201.758, 122.0768
1202.843, 167.9712
1203.927, 163.6256
1205.011, 136.3284
1206.095, 215.3801
1207.179, 172.6329
1208.262, 162.2341
1209.345, 196.9929
1210.429, 224.7653
1211.512, 165.4982
1212.595, 155.7446
1213.677, 163.5330
1214.760, 161.4083
1215.842, 168.4990
1216.925, 195.2421
1218.007, 164.9839
1219.089, 185.3934
1220.171, 171.9562
1221.252, 193.6918
1222.334, 195.2266
1223.415, 174.7668
1224.496, 189.4453
1225.577, 213.2980
1226.658, 173.2375
1227.738, 192.9607
1228.819, 128.2184
1229.899, 191.9374
1230.979, 125.6541
1232.060, 164.9749
1233.139, 145.1786
1234.219, 136.8892
1235.299, 114.5975
1236.378, 126.3038
1237.457, 135.0082
1238.536, 109.7102
1239.615, 97.41028
1240.694, 98.10815
1241.772, 128.4656
1242.851, 111.1592
1243.929, 116.8674
1245.007, 85.55664
1246.085, 104.2435
1247.163, 92.92847
1248.240, 114.6110
1249.318, 89.29126
1250.395, 100.9694
1251.472, 56.64514
1252.549, 69.31885
1253.626, 98.99023
1254.703, 76.66040
1255.779, 63.32800
1256.855, 61.99341
1257.931, 69.65649
1259.007, 58.46667
1260.083, 66.94922
1261.159, 58.59119
1262.234, 61.24573
1263.310, 83.89807
1264.385, 50.54810
1265.460, 29.19714
1266.535, 76.84387
1267.610, 9.488403
1268.684, 82.12756
1269.758, 17.76453
1270.833, 23.39795
1271.907, 8.971436
1272.981, 49.64624
1274.054, 77.26184
1275.128, 65.87793
1276.201, 7.506958
1277.275, 19.09827
1278.348, 16.70032
1279.421, 26.29883
1280.493, 44.89502
1281.566, 51.49243
1282.638, 1.912354
1283.711, 30.67371
1284.783, 14.25769
1285.855, 31.83789
1286.927, 8.415894
1287.998, 33.99060
1289.070, 15.56323
1290.141, 2.867920
1291.212, 31.69189
1292.283, 30.24939
1293.354, 7.804932
1294.425, 15.35559
1295.495, 15.90283
1296.566, 18.44678
1297.636, 8.012329
1298.706, 11.51672
1299.776, 41.04187
1300.845, 0.4328610
1301.915, 40.08459
1302.984, 65.59998
1304.054, 16.88647
1305.123, 16.38611
1306.191, 32.09863
1307.260, 12.58276
1308.329, 37.06555
1309.397, 39.54700
1310.465, 43.02454
1311.534, 40.51038
1312.602, 44.99170
1313.669, 25.48010
1314.737, 29.67236
1315.804, 31.76892
1316.872, 26.96912
1317.939, 41.48376
1319.006, 46.00391
1320.073, 47.53076
1321.139, 40.05615
1322.206, 45.58630
1323.272, 37.11780
1324.338, 70.64319
1325.404, 36.16553
1326.470, 6.685913
1327.536, 50.20349
1328.601, 45.71948
1329.667, 42.23413
1330.732, 33.26782
1331.797, 58.22314
1332.862, 3.721558
1333.926, 31.22742
1334.991, 21.73425
1336.055, 24.24182
1337.120, 42.74866
1338.184, 23.25378
1339.248, 68.75720
1340.311, 24.25891
1341.375, 19.77014
1342.438, 26.27930
1343.502, 49.20068
1344.565, 64.30359
1345.628, 44.80627
1346.691, 8.307129
1347.753, 82.80811
1348.816, 75.30835
1349.878, 68.80676
1350.940, 53.30969
1352.002, 23.81091
1353.064, 10.31519
1354.126, 26.83044
1355.187, 70.33423
1356.248, 53.83643
1357.310, 78.33911
1358.371, 48.83997
1359.431, 57.33923
1360.492, 43.83887
1361.553, 63.33948
1362.613, 60.83838
1363.673, 60.33569
1364.733, 65.83154
1365.793, 82.32568
1366.853, 48.83899
1367.912, 32.33020
1368.972, 42.81995
1370.031, 58.30994
1371.090, 20.79846
1372.149, 37.28552
1373.208, 52.77136
1374.267, 88.25586
1375.325, 84.89551
1376.383, 94.21387
1377.441, 91.70337
1378.499, 71.18359
1379.557, 81.69507
1380.615, 73.16309
1381.672, 53.81714
1382.730, 68.29309
1383.787, 56.76819
1384.844, 49.24219
1385.901, 58.71570
1386.957, 49.09668
1388.014, 61.79932
1389.070, 44.27161
1390.126, 52.74365
1391.182, 50.21533
1392.238, 47.01868
1393.294, 61.00916
1394.349, 48.95544
1395.405, 72.10022
1396.460, 59.57117
1397.515, 35.90283
1398.570, 69.34497
1399.625, 51.58020
1400.679, 26.05188
1401.734, 61.52393
1402.788, 59.99646
1403.842, 61.39038
1404.896, 83.75293
1405.950, 101.1465
1407.003, 92.59497
1408.057, 77.25293
1409.110, 74.72998
1410.163, 77.45935
1411.216, 49.96277
1412.269, 65.25745
1413.322, 53.73633
1414.374, 59.90601
1415.427, 68.38538
1416.479, 78.71204
1417.531, 46.44812
1418.583, 50.92542
1419.634, 52.83362
1420.686, 65.57788
1421.737, 63.91138
1422.788, 62.25830
1423.839, 68.64258
1424.890, 70.01782
1425.941, 119.2919
1426.992, 89.78650
1428.042, 61.64954
1429.092, 84.13599
1430.142, 41.62195
1431.192, 64.47107
1432.242, 98.35999
1433.291, 60.85535
1434.341, 69.18799
1435.390, 67.79407
1436.439, 59.30469
1437.488, 71.82312
1438.537, 84.35095
1439.586, 46.32764
1440.634, 64.83667
1441.682, 60.90430
1442.731, 88.43311
1443.779, 50.96594
1444.826, 99.49768
1445.874, 103.0286
1446.922, 65.55835
1447.969, 35.84570
1449.016, 123.3717
1450.063, 67.15771
1451.110, 85.33667
1452.157, 64.79004
1453.203, 80.26709
1454.250, 60.74768
1455.296, 28.19397
1456.342, 107.7068
1457.388, 74.96814
1458.433, 62.41431
1459.479, 47.85840
1460.524, 79.14062
1461.570, 46.57837
1462.615, 102.0137
1463.660, 15.44653
1464.705, 34.87695
1465.749, 57.30481
1466.794, 31.72998
1467.838, 89.15271
1468.882, 50.57263
1469.926, 90.96814
1470.970, 88.38257
1472.013, 59.79443
1473.057, 32.20374
1474.100, 50.60986
1475.143, 73.01099
1476.186, 38.40955
1477.229, 64.80505
1478.272, 81.19580
1479.314, 7.583618
1480.357, 23.96387
1481.399, 68.34290
1482.441, 80.72192
1483.483, 116.1071
1484.525, 68.49707
1485.566, 17.89136
1486.608, 58.29224
1487.649, 68.68970
1488.690, 28.08789
1489.731, 69.48914
1490.771, 13.89075
1491.812, 6.292358
1492.853, 41.70312
1493.893, 14.11304
1494.933, 103.5254
1495.973, 39.94568
1497.013, 67.37476
1498.052, 34.81116
1499.092, 51.25745
1500.131, 54.74048
1501.170, 30.22327
1502.209, 26.70264
1503.248, 27.17468
1504.287, 4.643311
1505.325, 59.11194
1506.363, 5.423340
1507.402, 48.03992
1508.440, 81.52686
1509.478, 26.04431
1510.515, 86.56189
1511.553, 25.11841
1512.590, 4.279541
1513.627, 53.32886
1514.664, 44.94434
1515.701, 34.56543
1516.738, 9.806763
1517.775, 49.82788
1518.811, 55.47095
1519.847, 47.12256
1520.883, 39.78357
1521.919, 78.45508
1522.955, 9.099609
1523.991, 14.79456
1525.026, 61.50330
1526.061, 33.22681
1527.096, 61.96509
1528.131, 2.719849
1529.166, 45.42261
1530.201, 2.211304
1531.235, 42.01965
1532.270, 4.151489
1533.304, 63.69800
1534.338, 12.56860
1535.372, 15.33228
1536.405, 69.54834
1537.439, 34.46741
1538.472, 52.41370
1539.505, 46.74023
1540.538, 36.71130
1541.571, 5.019775
1542.604, 27.96716
1543.637, 23.93604
1544.669, 39.75610
1545.701, 39.72058
1546.733, 47.74976
1547.765, 37.36890
1548.797, 56.92017
1549.829, 37.55688
1550.860, 26.03699
1551.891, 69.01294
1552.922, 86.00635
1553.953, 78.31592
1554.984, 59.40393
1556.015, 53.52283
1557.045, 66.66284
1558.076, 71.98669
1559.106, 15.32361
1560.136, 66.07080
1561.165, 89.11169
1562.195, 138.5184
1563.225, 0.3983150
1564.254, 76.02881
1565.283, 0.0000000E+00
##END=



