##NAMES=Forsterite
##RRUFFID=R060535
##IDEAL CHEMISTRY=Mg_2_SiO_4_
##LOCALITY=unknown
##OWNER=RRUFF
##SOURCE=Gemological Institute of America
##DESCRIPTION=Transparent brown gemstone
##STATUS=The identification of this mineral has been confirmed by X-ray diffraction and chemical analysis
##URL=rruff.info/R060535
##MEASURED CHEMISTRY=(Mg_1.81_Fe_0.18_Ni_0.01_)_Î£=2_Si_1.00_O_4_
##PIN_ID=L01261
##ORIENTATION=Laser parallel to b* (0 1 0). Fiducial mark perpendicular to laser is parallel to c [0 0 1]
208.8360, 0.0000000E+00
210.0610, 105.0259
211.2860, 133.4238
212.5100, 219.2949
213.7350, 290.4375
214.9590, 377.5361
216.1830, 332.3965
217.4070, 469.3477
218.6310, 490.8125
219.8540, 547.5654
221.0780, 679.3750
222.3010, 649.0859
223.5240, 669.4307
224.7470, 658.4541
225.9690, 596.2842
227.1920, 540.4526
228.4140, 489.8188
229.6360, 296.6406
230.8580, 346.1763
232.0800, 318.7192
233.3020, 179.4253
234.5230, 207.3765
235.7440, 194.1602
236.9650, 214.6113
238.1860, 118.3330
239.4070, 176.2588
240.6280, 88.81689
241.8480, 15.35303
243.0680, 118.5176
244.2880, 37.82861
245.5080, 109.8384
246.7280, 9.147949
247.9470, 35.22900
249.1660, 3.282715
250.3860, 21.33154
251.6040, 18.68750
252.8230, 22.51758
254.0420, 14.98730
255.2600, 31.53906
256.4790, 22.95264
257.6970, 21.87256
258.9150, 157.7559
260.1320, 148.6021
261.3500, 118.4033
262.5670, 6.839355
263.7840, 141.8784
265.0010, 6.558594
266.2180, 83.20312
267.4350, 36.17529
268.6510, 54.41943
269.8680, 48.00781
271.0840, 7.024902
272.3000, 21.77734
273.5160, 7.228516
274.7310, 24.25244
275.9470, 38.68213
277.1620, 43.58008
278.3770, 40.43115
279.5920, 113.2710
280.8070, 61.11719
282.0210, 107.9272
283.2360, 21.37549
284.4500, 58.20410
285.6640, 129.0508
286.8780, 43.91113
288.0920, 38.96826
289.3050, 265.0142
290.5180, 280.2065
291.7320, 497.2959
292.9450, 640.5322
294.1570, 646.0283
295.3700, 689.0151
296.5830, 897.7002
297.7950, 993.6997
299.0070, 995.3076
300.2190, 1041.247
301.4310, 1180.347
302.6420, 1091.447
303.8540, 1045.882
305.0650, 949.9556
306.2760, 735.9639
307.4870, 794.3228
308.6980, 759.7471
309.9080, 379.9668
311.1190, 485.9692
312.3290, 368.9536
313.5390, 402.9326
314.7490, 476.8887
315.9580, 440.8311
317.1680, 474.7734
318.3770, 528.8643
319.5860, 484.8022
320.7950, 666.7388
322.0040, 647.6729
323.2130, 709.6050
324.4210, 716.7725
325.6290, 801.3496
326.8380, 758.2676
328.0460, 804.2070
329.2530, 802.6279
330.4610, 818.5752
331.6680, 788.8413
332.8760, 839.6948
334.0830, 814.2007
335.2890, 733.5669
336.4960, 727.8701
337.7030, 880.1689
338.9090, 779.1133
340.1150, 696.9087
341.3210, 613.8096
342.5270, 447.0698
343.7330, 567.1494
344.9380, 351.6772
346.1440, 437.3242
347.3490, 214.2100
348.5540, 220.8867
349.7590, 263.9990
350.9630, 184.7319
352.1680, 271.4575
353.3720, 146.8306
354.5760, 193.9531
355.7800, 144.2358
356.9840, 51.62207
358.1870, 140.1348
359.3910, 174.5947
360.5940, 148.9907
361.7970, 229.4897
363.0000, 153.8184
364.2030, 150.0703
365.4050, 111.3823
366.6080, 185.7759
367.8100, 115.0986
369.0120, 199.0791
370.2140, 170.0884
371.4150, 96.88721
372.6170, 163.6577
373.8180, 110.3145
375.0190, 181.8984
376.2200, 88.33740
377.4210, 130.6450
378.6220, 59.88672
379.8220, 184.1274
381.0230, 116.6426
382.2230, 11.61133
383.4230, 61.78564
384.6220, 21.95361
385.8220, 16.10107
387.0220, 50.19385
388.2210, 95.27588
389.4200, 47.17676
390.6190, 6.739258
391.8180, 45.09082
393.0160, 11.79688
394.2150, 117.8965
395.4130, 59.91309
396.6110, 13.72754
397.8090, 18.73633
399.0060, 70.75586
400.2040, 63.70898
401.4010, 19.73242
402.5980, 133.5410
403.7950, 14.41992
404.9920, 63.60156
406.1890, 75.64551
407.3860, 172.7939
408.5820, 179.8525
409.7780, 107.5967
410.9740, 222.6768
412.1700, 294.0732
413.3650, 159.0762
414.5610, 156.0410
415.7560, 293.7852
416.9510, 347.6318
418.1460, 274.8916
419.3410, 322.0869
420.5360, 442.0107
421.7300, 361.9434
422.9240, 230.8467
424.1180, 297.8828
425.3120, 174.8418
426.5060, 116.8496
427.7000, 150.7881
428.8930, 234.7168
430.0860, 249.7090
431.2790, 174.5449
432.4720, 239.3438
433.6650, 243.3047
434.8580, 154.2354
436.0500, 224.1484
437.2420, 296.4648
438.4340, 105.3428
439.6260, 65.20312
440.8180, 111.0381
442.0090, 171.8486
443.2010, 173.6377
444.3920, 164.3975
445.5830, 148.1094
446.7740, 85.80371
447.9640, 56.47363
449.1550, 50.08887
450.3450, 98.68457
451.5350, 53.25195
452.7250, 99.19824
453.9150, 46.86914
455.1050, 123.7754
456.2940, 39.76855
457.4830, 71.65820
458.6720, 127.0684
459.8610, 42.53516
461.0500, 143.8301
462.2390, 29.82129
463.4270, 41.50195
464.6150, 133.8066
465.8040, 127.0977
466.9910, 110.3721
468.1790, 146.6299
469.3670, 121.5010
470.5540, 175.0967
471.7410, 82.30762
472.9280, 110.4990
474.1150, 52.67090
475.3020, 66.78516
476.4890, 131.8604
477.6750, 167.9033
478.8610, 156.2188
480.0470, 147.6211
481.2330, 144.5781
482.4190, 102.5469
483.6040, 132.4707
484.7900, 118.3789
485.9750, 161.2686
487.1600, 160.1416
488.3450, 34.00000
489.5290, 14.82715
490.7140, 58.65039
491.8980, 84.85449
493.0820, 173.6133
494.2660, 168.5254
495.4500, 197.0244
496.6340, 141.6719
497.8170, 195.6797
499.0010, 182.5859
500.1840, 144.2549
501.3670, 157.0156
502.5500, 224.7637
503.7320, 132.5566
504.9150, 161.8838
506.0970, 167.2393
507.2790, 136.1719
508.4610, 99.66113
509.6430, 100.2646
510.8250, 277.8721
512.0060, 146.3301
513.1870, 257.6240
514.3680, 161.8359
515.5490, 241.3857
516.7300, 154.7451
517.9110, 246.0693
519.0910, 207.7266
520.2710, 255.8760
521.4510, 201.2920
522.6310, 218.3203
523.8110, 236.9336
524.9910, 262.4775
526.1700, 368.5381
527.3490, 459.2148
528.5280, 285.0020
529.7070, 478.8818
530.8860, 437.1621
532.0650, 588.0283
533.2430, 785.2275
534.4210, 753.8252
535.5990, 886.8916
536.7770, 952.4707
537.9550, 973.8242
539.1320, 1150.587
540.3100, 1144.948
541.4870, 1134.681
542.6640, 1002.817
543.8410, 1032.894
545.0170, 973.3115
546.1940, 880.8584
547.3700, 696.9121
548.5470, 618.7178
549.7230, 539.3809
550.8980, 486.2441
552.0740, 441.2578
553.2500, 434.2441
554.4250, 412.2080
555.6000, 361.7832
556.7750, 341.0693
557.9500, 326.6846
559.1250, 316.2461
560.2990, 309.6680
561.4730, 306.1094
562.6480, 302.6699
563.8220, 291.1699
564.9950, 299.7383
566.1690, 263.2773
567.3430, 305.9082
568.5160, 201.1543
569.6890, 285.8506
570.8620, 327.1953
572.0350, 277.5137
573.2070, 327.0000
574.3800, 231.3652
575.5520, 328.6074
576.7240, 251.8232
577.8960, 133.0127
579.0680, 388.1729
580.2400, 526.1201
581.4110, 438.0371
582.5830, 589.9521
583.7540, 600.0078
584.9250, 533.0371
586.0950, 512.0410
587.2660, 642.9990
588.4370, 608.6689
589.6070, 571.1875
590.7770, 691.6523
591.9470, 497.2939
593.1170, 396.7178
594.2860, 458.0508
595.4560, 491.6357
596.6250, 408.2764
597.7940, 556.2432
598.9630, 483.6113
600.1320, 615.1875
601.3000, 623.2676
602.4690, 555.4824
603.6370, 647.9199
604.8050, 678.9902
605.9730, 652.4668
607.1410, 591.8906
608.3090, 614.2207
609.4760, 494.6768
610.6430, 546.0039
611.8100, 357.4746
612.9770, 375.5898
614.1440, 500.7979
615.3110, 442.7373
616.4770, 330.7148
617.6430, 193.9424
618.8090, 221.2783
619.9750, 48.56152
621.1410, 250.7793
622.3070, 184.9619
623.4720, 288.9463
624.6370, 296.0332
625.8020, 299.0381
626.9670, 301.2207
628.1320, 222.3369
629.2970, 208.9199
630.4610, 179.1758
631.6250, 82.82227
632.7890, 199.5537
633.9530, 138.6016
635.1170, 251.6270
636.2810, 37.63086
637.4440, 100.5078
638.6070, 118.4629
639.7700, 91.39551
640.9330, 140.2139
642.0960, 136.0645
643.2590, 118.9336
644.4210, 86.63770
645.5830, 107.4434
646.7450, 65.24512
647.9070, 13.89746
649.0690, 130.3643
650.2310, 99.81445
651.3920, 151.5244
652.5530, 17.12598
653.7140, 154.7871
654.8750, 110.4072
656.0360, 119.0293
657.1970, 151.5801
658.3570, 31.16504
659.5170, 12.72754
660.6770, 14.73828
661.8370, 131.2441
662.9970, 36.14844
664.1570, 10.55078
665.3160, 3.855469
666.4750, 101.1631
667.6340, 15.54590
668.7930, 105.7100
669.9520, 48.94824
671.1110, 45.83301
672.2690, 8.333008
673.4270, 53.24805
674.5850, 57.15039
675.7430, 55.35742
676.9010, 40.36426
678.0590, 20.58301
679.2160, 0.9306640
680.3730, 48.41602
681.5300, 7.673828
682.6870, 27.79492
683.8440, 40.95410
685.0010, 5.838867
686.1570, 121.3828
687.3130, 101.6904
688.4690, 10.07715
689.6250, 154.4932
690.7810, 21.98633
691.9370, 56.55176
693.0920, 5.142578
694.2470, 77.23926
695.4020, 64.39258
696.5570, 145.9199
697.7120, 118.7822
698.8670, 46.56543
700.0210, 6.394531
701.1750, 0.2451170
702.3290, 172.8848
703.4830, 82.00195
704.6370, 81.10449
705.7910, 51.19434
706.9440, 108.7285
708.0970, 19.12695
709.2510, 175.1162
710.4030, 154.0938
711.5560, 45.05957
712.7090, 66.01172
713.8610, 96.93750
715.0140, 128.8682
716.1660, 187.7871
717.3180, 226.2744
718.4690, 137.1729
719.6210, 38.06152
720.7730, 117.9395
721.9240, 186.8086
723.0750, 146.6680
724.2260, 140.5186
725.3770, 303.3594
726.5270, 183.1904
727.6780, 181.0146
728.8280, 328.8311
729.9780, 253.6416
731.1280, 331.4434
732.2780, 140.2402
733.4280, 161.0596
734.5770, 225.8906
735.7260, 278.7148
736.8760, 164.5459
738.0250, 200.3730
739.1730, 327.1924
740.3220, 233.0596
741.4700, 296.9199
742.6190, 387.7871
743.7670, 383.6719
744.9150, 319.5957
746.0630, 330.5137
747.2100, 458.4268
748.3580, 570.3701
749.5050, 451.3086
750.6520, 402.2422
751.7990, 467.1709
752.9460, 560.0957
754.0930, 495.0234
755.2390, 285.9531
756.3860, 513.8760
757.5320, 534.7979
758.6780, 242.9795
759.8240, 332.8926
760.9690, 463.7744
762.1150, 339.6816
763.2600, 373.5850
764.4060, 425.5215
765.5510, 316.4717
766.6950, 368.4170
767.8400, 236.3770
768.9850, 369.3223
770.1290, 340.8662
771.2730, 307.8281
772.4170, 455.6133
773.5610, 529.5693
774.7050, 396.8066
775.8480, 542.4355
776.9920, 585.1426
778.1350, 366.7383
779.2780, 458.5508
780.4210, 559.3506
781.5640, 513.0879
782.7060, 446.6924
783.8490, 555.3877
784.9910, 465.9268
786.1330, 410.7852
787.2750, 414.6055
788.4170, 528.3076
789.5580, 457.2305
790.7000, 527.2939
791.8410, 541.2402
792.9820, 469.0049
794.1230, 515.8096
795.2640, 540.2041
796.4040, 680.1240
797.5450, 661.1836
798.6850, 688.6689
799.8250, 777.8975
800.9650, 824.2900
802.1050, 1067.290
803.2450, 1028.104
804.3840, 1209.972
805.5230, 1374.630
806.6630, 1678.531
807.8020, 1814.208
808.9400, 2157.063
810.0790, 2458.312
811.2170, 2972.771
812.3560, 3679.019
813.4940, 4810.455
814.6320, 5768.867
815.7700, 7017.477
816.9070, 8521.561
818.0450, 10043.36
819.1820, 11366.98
820.3190, 12973.38
821.4560, 13793.99
822.5930, 14273.56
823.7300, 14429.21
824.8670, 13765.14
826.0030, 12418.87
827.1390, 11095.59
828.2750, 9805.405
829.4110, 8609.373
830.5470, 7789.859
831.6820, 7132.726
832.8180, 6556.367
833.9530, 6208.665
835.0880, 6048.000
836.2230, 6116.524
837.3580, 6391.654
838.4920, 6829.250
839.6270, 7605.628
840.7610, 8369.922
841.8950, 9553.232
843.0290, 11096.43
844.1630, 12736.89
845.2960, 15274.00
846.4300, 18361.45
847.5630, 21774.90
848.6960, 25908.17
849.8290, 30114.56
850.9620, 33993.04
852.0940, 37466.55
853.2270, 40216.07
854.3590, 41382.59
855.4910, 40817.13
856.6230, 39236.53
857.7550, 35938.08
858.8870, 32108.66
860.0180, 27078.25
861.1500, 22439.85
862.2810, 18525.46
863.4120, 15241.09
864.5430, 12493.73
865.6730, 10513.38
866.8040, 8591.041
867.9340, 7097.717
869.0640, 6275.402
870.1940, 5480.102
871.3240, 4670.814
872.4540, 4353.538
873.5830, 3770.275
874.7130, 3467.031
875.8420, 3290.086
876.9710, 2958.893
878.1000, 3068.691
879.2290, 2868.197
880.3570, 2771.338
881.4860, 2650.172
882.6140, 2539.143
883.7420, 2418.141
884.8700, 2144.029
885.9980, 1818.931
887.1250, 1681.842
888.2530, 1444.763
889.3800, 1194.637
890.5070, 1093.675
891.6340, 938.6289
892.7610, 804.5918
893.8880, 809.5664
895.0140, 794.5537
896.1400, 631.5605
897.2670, 701.5771
898.3930, 630.6055
899.5180, 505.7793
900.6440, 615.4902
901.7700, 545.5469
902.8950, 465.6143
904.0200, 606.6914
905.1450, 590.7783
906.2700, 632.3994
907.3950, 679.5078
908.5190, 598.6260
909.6440, 676.7529
910.7680, 629.8936
911.8920, 954.0449
913.0160, 993.2061
914.1400, 1161.403
915.2630, 1008.941
916.3870, 1223.124
917.5100, 1286.326
918.6330, 1392.541
919.7560, 1341.725
920.8790, 1226.960
922.0010, 1163.209
923.1240, 932.3154
924.2460, 851.5820
925.3680, 633.8906
926.4900, 663.1807
927.6120, 628.4795
928.7340, 767.7871
929.8550, 889.1045
930.9760, 797.4316
932.0980, 657.4854
933.2190, 827.9883
934.3390, 820.9590
935.4600, 968.3916
936.5810, 938.0098
937.7010, 1105.480
938.8210, 1044.966
939.9410, 1249.459
941.0610, 1271.971
942.1810, 1341.117
943.3010, 1681.646
944.4200, 1692.205
945.5390, 2008.953
946.6580, 2256.551
947.7770, 2530.806
948.8960, 2690.458
950.0150, 3044.133
951.1330, 3272.815
952.2510, 3865.511
953.3690, 4182.213
954.4870, 4497.931
955.6050, 5010.664
956.7230, 5421.422
957.8400, 5710.328
958.9580, 5889.477
960.0750, 6097.426
961.1920, 5892.285
962.3090, 5806.198
963.4250, 5499.811
964.5420, 4839.751
965.6580, 4381.631
966.7740, 4095.596
967.8900, 3429.586
969.0060, 3137.582
970.1220, 2530.615
971.2380, 2189.500
972.3530, 1745.969
973.4680, 1563.038
974.5830, 1343.113
975.6980, 935.1924
976.8130, 824.2754
977.9280, 586.3623
979.0420, 672.4824
980.1560, 577.6064
981.2710, 360.7344
982.3850, 395.8662
983.4980, 409.0029
984.6120, 237.1436
985.7260, 190.2861
986.8390, 126.4307
987.9520, 156.5781
989.0650, 179.7266
990.1780, 200.8779
991.2910, 155.0322
992.4030, 136.1885
993.5160, 87.34570
994.6280, 65.50488
995.7400, 121.6660
996.8520, 127.8281
997.9640, 238.9922
999.0750, 274.8965
1000.187, 336.3223
1001.298, 352.4893
1002.409, 155.6572
1003.520, 73.82617
1004.631, 158.9961
1005.741, 191.1660
1006.852, 8.335938
1007.962, 3.622070
1009.072, 146.2080
1010.182, 1.383789
1011.292, 11.49023
1012.402, 85.81055
1013.511, 174.7480
1014.621, 39.22559
1015.730, 4.170898
1016.839, 135.9775
1017.948, 235.9209
1019.056, 108.8184
1020.165, 95.71387
1021.273, 101.6084
1022.382, 18.49805
1023.490, 20.61816
1024.598, 109.2490
1025.706, 23.11523
1026.813, 185.9795
1027.921, 183.8418
1029.028, 40.51172
1030.135, 159.3691
1031.242, 206.2256
1032.349, 127.9209
1033.456, 56.14062
1034.562, 155.6045
1035.668, 19.34766
1036.775, 154.0869
1037.881, 180.8242
1038.987, 3.441406
1040.092, 71.28320
1041.198, 165.0049
1042.303, 92.72363
1043.408, 208.4404
1044.514, 61.15234
1045.618, 14.86230
1046.723, 24.43262
1047.828, 2.860352
1048.932, 7.076172
1050.037, 86.58301
1051.141, 47.24023
1052.245, 53.10840
1053.349, 108.5039
1054.452, 177.1133
1055.556, 2.281250
1056.659, 31.30957
1057.762, 16.89746
1058.865, 139.4795
1059.968, 129.0566
1061.071, 183.6309
1062.174, 161.1992
1063.276, 76.76465
1064.378, 76.67578
1065.480, 18.39746
1066.582, 88.91699
1067.684, 74.39551
1068.786, 47.59180
1069.887, 98.77832
1070.988, 144.1426
1072.090, 35.50098
1073.191, 114.8555
1074.291, 11.20215
1075.392, 208.5352
1076.493, 196.7080
1077.593, 25.03125
1078.693, 136.3447
1079.793, 115.3408
1080.893, 129.8848
1081.993, 253.1045
1083.092, 310.3174
1084.192, 177.5234
1085.291, 311.7227
1086.390, 144.9160
1087.489, 79.10156
1088.588, 84.27930
1089.686, 30.45117
1090.785, 14.61328
1091.883, 14.76074
1092.981, 78.89258
1094.079, 108.6133
1095.177, 16.73047
1096.275, 103.8320
1097.373, 3.731445
1098.470, 52.33594
1099.567, 99.39355
1100.664, 164.4434
1101.761, 142.4863
1102.858, 17.48047
1103.954, 26.48242
1105.051, 220.4775
1106.147, 60.83496
1107.243, 136.7764
1108.339, 93.70996
1109.435, 96.63477
1110.531, 89.54980
1111.626, 133.4580
1112.722, 71.35547
1113.817, 103.8545
1114.912, 143.6064
1116.007, 129.4775
1117.101, 58.33984
1118.196, 80.19336
1119.290, 139.0371
1120.385, 189.8711
1121.479, 125.6973
1122.573, 185.2266
1123.666, 204.3242
1124.760, 184.1230
1125.853, 195.9121
1126.947, 126.6934
1128.040, 158.4746
1129.133, 152.1289
1130.226, 192.9805
1131.318, 170.7266
1132.411, 194.4629
1133.503, 193.1895
1134.596, 224.9082
1135.688, 195.6172
1136.780, 247.3164
1137.871, 213.0098
1138.963, 39.69141
1140.054, 82.35742
1141.146, 12.30273
1142.237, 83.30859
1143.328, 20.93359
1144.419, 188.8457
1145.509, 101.1309
1146.600, 6.275391
1147.690, 31.82227
1148.780, 80.59180
1149.870, 162.1211
1150.960, 214.6406
1152.050, 185.1543
1153.139, 101.6602
1154.229, 143.2188
1155.318, 226.6191
1156.407, 65.12891
1157.496, 161.6348
1158.585, 247.1348
1159.674, 15.37305
1160.762, 79.09570
1161.850, 126.5586
1162.939, 248.0156
1164.027, 125.3301
1165.114, 75.11133
1166.202, 98.55078
1167.290, 149.9844
1168.377, 104.4316
1169.464, 178.8340
1170.551, 89.73047
1171.638, 89.14258
1172.725, 141.5469
1173.812, 118.9492
1174.898, 122.3457
1175.984, 139.7383
1177.071, 209.1250
1178.157, 57.48242
1179.242, 39.50195
1180.328, 196.8848
1181.414, 84.25195
1182.499, 89.61328
1183.584, 163.0137
1184.669, 216.3672
1185.754, 173.6562
1186.839, 122.2129
1187.924, 122.5566
1189.008, 65.86328
1190.092, 115.1953
1191.177, 193.5273
1192.260, 109.1758
1193.344, 91.17969
1194.428, 44.50195
1195.512, 31.90039
1196.595, 30.25195
1197.678, 19.04492
1198.761, 49.76367
1199.844, 181.3301
1200.927, 166.5859
1202.009, 125.8379
1203.092, 154.0859
1204.174, 27.33398
1205.256, 166.9512
1206.338, 20.80469
1207.420, 194.4316
1208.502, 33.48438
1209.583, 1.716797
1210.665, 78.31445
1211.746, 46.54297
1212.827, 96.77148
1213.908, 28.99805
1214.988, 46.49219
1216.069, 73.44922
1217.149, 55.67578
1218.230, 48.90039
1219.310, 85.53516
1220.390, 201.2070
1221.470, 51.71289
1222.549, 46.21094
1223.629, 20.56445
1224.708, 92.65430
1225.787, 22.17969
1226.866, 37.60156
1227.945, 242.6836
1229.024, 277.8906
1230.103, 117.1016
1231.181, 345.3105
1232.259, 203.5195
1233.337, 197.8965
1234.415, 249.7051
1235.493, 18.08008
1236.571, 8.130859
1237.648, 236.3438
1238.726, 105.5605
1239.803, 152.7812
1240.880, 28.00391
1241.957, 55.22656
1243.034, 104.4512
1244.110, 21.32031
1245.187, 155.9043
1246.263, 127.1348
1247.339, 105.3633
1248.415, 29.59570
1249.491, 138.8320
1250.566, 89.07031
1251.642, 58.31250
1252.717, 147.5566
1253.793, 248.8066
1254.868, 72.05664
1255.943, 191.3145
1257.017, 87.57227
1258.092, 162.8379
1259.166, 181.1074
1260.241, 141.3770
1261.315, 130.6523
1262.389, 78.93164
1263.462, 307.2363
1264.536, 134.5410
1265.610, 13.85352
1266.683, 197.1699
1267.756, 5.492188
1268.829, 266.7031
1269.902, 60.96680
1270.975, 223.9004
1272.048, 247.2578
1273.120, 245.0293
1274.192, 171.4219
1275.264, 195.6895
1276.336, 122.6758
1277.408, 139.9023
1278.480, 158.3965
1279.551, 57.89648
1280.623, 204.4004
1281.694, 136.9141
1282.765, 110.4336
1283.836, 166.9609
1284.907, 105.3379
1285.977, 175.8848
1287.048, 185.5898
1288.118, 139.0020
1289.188, 267.7617
1290.258, 295.3359
1291.328, 391.9180
1292.398, 492.5039
1293.467, 369.1367
1294.537, 541.7910
1295.606, 606.4551
1296.675, 313.1230
1297.744, 478.8008
1298.813, 223.4824
1299.882, 312.1758
1300.950, 352.8789
1302.018, 310.5859
1303.086, 390.3008
1304.155, 325.0234
1305.222, 325.7520
1306.290, 198.4902
1307.358, 256.2480
1308.425, 172.0156
1309.492, 275.7949
1310.559, 364.5840
1311.626, 353.3809
1312.693, 337.2012
1313.760, 335.0273
1314.826, 318.0605
1315.893, 295.7051
1316.959, 311.5566
1318.025, 310.4160
1319.091, 352.2812
1320.157, 345.1562
1321.222, 271.0371
1322.288, 333.9258
1323.353, 371.8223
1324.418, 336.9785
1325.483, 413.9258
1326.548, 414.0137
1327.612, 199.4082
1328.677, 400.4297
1329.741, 224.4570
1330.806, 328.4961
1331.870, 394.5430
1332.934, 219.5977
1333.997, 352.6660
1335.061, 302.9004
1336.124, 293.9863
1337.188, 286.0820
1338.251, 439.1816
1339.314, 446.3340
1340.377, 529.4961
1341.439, 478.1387
1342.502, 320.8535
1343.564, 320.0449
1344.627, 326.2480
1345.689, 255.4609
1346.751, 361.6836
1347.813, 303.9199
1348.874, 297.1621
1349.936, 329.4238
1350.997, 311.4160
1352.058, 347.6230
1353.119, 359.6758
1354.180, 356.9863
1355.241, 431.9609
1356.301, 324.3008
1357.362, 349.1230
1358.422, 303.0137
1359.482, 336.3867
1360.542, 249.7695
1361.602, 311.1797
1362.662, 359.6172
1363.721, 271.7090
1364.781, 323.1250
1365.840, 217.0137
1366.899, 421.4531
1367.958, 216.9004
1369.017, 232.3633
1370.075, 414.8340
1371.134, 17.31641
1372.192, 145.3320
1373.250, 239.8359
1374.308, 158.3555
1375.366, 448.8828
1376.424, 242.4238
1377.481, 360.2188
1378.539, 479.7812
1379.596, 168.3594
1380.653, 242.9473
1381.710, 240.5449
1382.767, 130.6582
1383.824, 209.2891
1384.880, 167.9258
1385.937, 88.57422
1386.993, 154.2363
1388.049, 188.9102
1389.105, 191.5977
1390.161, 244.2246
1391.216, 396.9375
1392.272, 293.6621
1393.327, 253.4023
1394.382, 143.1543
1395.437, 244.9199
1396.492, 197.7227
1397.547, 350.5449
1398.601, 165.3594
1399.656, 164.1914
1400.710, 296.0371
1401.764, 295.8984
1402.818, 326.7715
1403.872, 218.6602
1404.925, 206.5742
1405.979, 244.5078
1407.032, 269.4531
1408.085, 15.41406
1409.139, 192.3848
1410.191, 254.3711
1411.244, 131.6250
1412.297, 135.3555
1413.349, 218.3828
1414.402, 327.3945
1415.454, 152.3164
1416.506, 70.25586
1417.558, 443.2090
1418.609, 219.1699
1419.661, 334.7773
1420.712, 172.7598
1421.764, 203.7500
1422.815, 266.7500
1423.866, 236.7578
1424.916, 251.8301
1425.967, 218.8516
1427.018, 163.8770
1428.068, 317.9121
1429.118, 305.9551
1430.168, 297.9785
1431.218, 285.0117
1432.268, 437.0508
1433.318, 491.7207
1434.367, 500.8711
1435.416, 580.9277
1436.465, 485.9941
1437.514, 460.3086
1438.563, 490.1562
1439.612, 441.5332
1440.661, 365.4375
1441.709, 361.3613
1442.757, 367.5879
1443.805, 341.2520
1444.853, 419.2266
1445.901, 478.2324
1446.949, 471.2773
1447.996, 657.3516
1449.044, 421.4434
1450.091, 412.5527
1451.138, 489.6895
1452.185, 487.8418
1453.232, 339.0156
1454.278, 405.2031
1455.325, 452.4102
1456.371, 475.6328
1457.417, 543.8770
1458.463, 505.1660
1459.509, 607.4199
1460.555, 459.7305
1461.601, 353.0645
1462.646, 389.4160
1463.691, 304.7852
1464.737, 221.1758
1465.782, 253.5820
1466.826, 215.0020
1467.871, 157.4434
1468.916, 305.9043
1469.960, 246.3887
1471.004, 203.8887
1472.048, 254.4082
1473.092, 204.9434
1474.136, 198.4941
1475.180, 304.0605
1476.223, 149.6445
1477.267, 33.24805
1478.310, 327.8105
1479.353, 260.3887
1480.396, 289.9844
1481.439, 343.5703
1482.481, 275.2656
1483.524, 298.9375
1484.566, 232.6250
1485.608, 178.3301
1486.650, 44.05273
1487.692, 27.79102
1488.734, 5.400391
1489.775, 70.56445
1490.817, 16.78711
1491.858, 74.88086
1492.899, 20.54688
1493.940, 82.23438
1494.981, 8.933594
1496.022, 70.50781
1497.062, 230.3770
1498.103, 143.1211
1499.143, 173.8770
1500.183, 148.6406
1501.223, 207.4238
1502.263, 7.773438
1503.302, 220.0605
1504.342, 12.92188
1505.381, 32.80469
1506.420, 181.7148
1507.459, 11.35352
1508.498, 3.603516
1509.537, 26.58008
1510.576, 305.5820
1511.614, 79.60742
1512.652, 138.6543
1513.691, 118.7227
1514.729, 78.18750
1515.767, 180.9238
1516.804, 24.05469
1517.842, 206.2070
1518.879, 116.3750
1519.917, 245.5645
1520.954, 21.77344
1521.991, 136.0000
1523.028, 130.2480
1524.064, 285.5137
1525.101, 396.7988
1526.137, 306.1035
1527.173, 255.3945
1528.210, 209.4258
1529.245, 110.0547
1530.281, 122.7266
1531.317, 64.43945
1532.352, 63.20117
1533.388, 161.0254
1534.423, 154.8516
1535.458, 299.7266
1536.493, 226.3633
1537.528, 53.24805
1538.562, 253.1836
1539.597, 133.1152
1540.631, 192.0371
1541.665, 100.9102
1542.700, 82.57422
1543.733, 2.697266
1544.767, 112.9375
1545.801, 186.4590
1546.834, 75.92969
1547.868, 205.1992
1548.901, 42.25391
1549.934, 246.0371
1550.967, 178.3340
1551.999, 63.53516
1553.032, 238.6875
1554.064, 332.8887
1555.097, 185.1582
1556.129, 235.2773
1557.161, 1.751953
1558.193, 39.05664
1559.224, 114.0898
1560.256, 164.8008
1561.287, 1.070313
1562.318, 83.75586
1563.350, 0.0000000E+00
##END=



