##NAMES=Forsterite
##RRUFFID=R060535
##IDEAL CHEMISTRY=Mg_2_SiO_4_
##LOCALITY=unknown
##OWNER=RRUFF
##SOURCE=Gemological Institute of America
##DESCRIPTION=Transparent brown gemstone
##STATUS=The identification of this mineral has been confirmed by X-ray diffraction and chemical analysis
##URL=rruff.info/R060535
##MEASURED CHEMISTRY=(Mg_1.81_Fe_0.18_Ni_0.01_)_Î£=2_Si_1.00_O_4_
##PIN_ID=L01269
##ORIENTATION=Laser parallel to a* (1 0 0). Fiducial mark perpendicular to laser is parallel to b [0 1 0]
208.8360, 0.0000000E+00
210.0610, 33.12842
211.2860, 23.01007
212.5100, 89.45813
213.7350, 133.7668
214.9590, 171.4084
216.1830, 251.0407
217.4070, 312.9579
218.6310, 316.1440
219.8540, 340.2998
221.0780, 339.7263
222.3010, 342.2030
223.5240, 330.9766
224.7470, 272.6033
225.9690, 262.0209
227.1920, 203.3166
228.4140, 197.6370
229.6360, 148.9005
230.8580, 163.1932
232.0800, 163.6936
233.3020, 162.2531
234.5230, 139.2479
235.7440, 102.2504
236.9650, 98.39734
238.1860, 91.35956
239.4070, 60.54187
240.6280, 53.87122
241.8480, 35.77362
243.0680, 46.39197
244.2880, 24.99329
245.5080, 32.30768
246.7280, 17.29297
247.9470, 10.00684
249.1660, 4.692871
250.3860, 5.648743
251.6040, 16.98151
252.8230, 8.585754
254.0420, 3.076782
255.2600, 11.45502
256.4790, 48.26782
257.6970, 15.02393
258.9150, 97.78473
260.1320, 122.5309
261.3500, 63.26270
262.5670, 36.98120
263.7840, 2.312378
265.0010, 7.825134
266.2180, 13.06927
267.4350, 0.2532960
268.6510, 12.41687
269.8680, 19.08221
271.0840, 22.74371
272.3000, 29.97058
273.5160, 35.05432
274.7310, 35.78784
275.9470, 43.46649
277.1620, 41.13916
278.3770, 38.80939
279.5920, 45.47577
280.8070, 48.13800
282.0210, 52.80261
283.2360, 43.49878
284.4500, 81.21503
285.6640, 101.9548
286.8780, 108.7145
288.0920, 147.4905
289.3050, 144.3218
290.5180, 209.1205
291.7320, 284.9679
292.9450, 318.8854
294.1570, 411.6884
295.3700, 447.4944
296.5830, 567.5601
297.7950, 664.0649
299.0070, 701.8047
300.2190, 736.9655
301.4310, 698.2710
302.6420, 668.5955
303.8540, 561.7522
305.0650, 501.0323
306.2760, 427.7457
307.4870, 340.3550
308.6980, 280.9017
309.9080, 252.3795
311.1190, 221.8508
312.3290, 226.3208
313.5390, 195.7932
314.7490, 236.2690
315.9580, 229.7490
317.1680, 241.2330
318.3770, 258.7220
319.5860, 334.2157
320.7950, 340.7144
322.0040, 394.2175
323.2130, 390.7249
324.4210, 423.2365
325.6290, 444.7520
326.8380, 386.2707
328.0460, 385.8330
329.2530, 393.3594
330.4610, 389.0726
331.6680, 378.6161
332.8760, 371.1931
334.0830, 398.9490
335.2890, 400.8210
336.4960, 414.4486
337.7030, 380.9957
338.9090, 383.8713
340.1150, 289.4525
341.3210, 267.9657
342.5270, 193.4797
343.7330, 206.0014
344.9380, 149.6107
346.1440, 128.2455
347.3490, 126.8990
348.5540, 105.4438
349.7590, 71.03821
350.9630, 51.60699
352.1680, 44.99084
353.3720, 68.74768
354.5760, 58.14026
355.7800, 43.60828
356.9840, 84.17938
358.1870, 85.71765
359.3910, 75.26923
360.5940, 59.72351
361.7970, 65.14539
363.0000, 53.53973
364.2030, 51.89386
365.4050, 48.19885
366.6080, 74.46008
367.8100, 40.68036
369.0120, 67.86096
370.2140, 65.00262
371.4150, 59.10632
372.6170, 44.17249
373.8180, 43.11877
375.0190, 31.00940
376.2200, 57.80994
377.4210, 49.58362
378.6220, 49.22485
379.8220, 47.01312
381.0230, 44.74127
382.2230, 24.43103
383.4230, 27.10522
384.6220, 13.73059
385.8220, 10.66943
387.0220, 2.149109
388.2210, 19.57520
389.4200, 12.87305
390.6190, 8.607178
391.8180, 10.74951
393.0160, 4.590332
394.2150, 8.708252
395.4130, 14.45538
396.6110, 2.529419
397.8090, 0.9349980
399.0060, 6.034424
400.2040, 23.35834
401.4010, 10.00952
402.5980, 10.51996
403.7950, 15.18915
404.9920, 48.89996
406.1890, 25.61810
407.3860, 56.24780
408.5820, 49.31061
409.7780, 89.04590
410.9740, 88.53925
412.1700, 111.7762
413.3650, 99.27582
414.5610, 119.8331
415.7560, 150.4225
416.9510, 149.0470
418.1460, 158.6925
419.3410, 125.3416
420.5360, 108.0240
421.7300, 135.7019
422.9240, 90.37091
424.1180, 100.0724
425.3120, 115.7875
426.5060, 78.51990
427.7000, 75.21906
428.8930, 108.9520
430.0860, 96.68274
431.2790, 73.41113
432.4720, 88.13708
433.6650, 120.8604
434.8580, 104.5809
436.0500, 104.2988
437.2420, 84.01349
438.4340, 71.72546
439.6260, 82.43463
440.8180, 34.13995
442.0090, 38.83502
443.2010, 53.51410
444.3920, 24.18439
445.5830, 46.84497
446.7740, 31.49139
447.9640, 35.13330
449.1550, 21.76990
450.3450, 5.399231
451.5350, 28.02588
452.7250, 34.65057
453.9150, 21.27362
455.1050, 52.89496
456.2940, 23.51453
457.4830, 0.1323850
458.6720, 12.25238
459.8610, 3.642639
461.0500, 10.96362
462.2390, 27.56763
463.4270, 24.16974
464.6150, 47.76978
465.8040, 3.632202
466.9910, 49.96210
468.1790, 19.55444
469.3670, 27.14441
470.5540, 54.73212
471.7410, 38.31750
472.9280, 30.90070
474.1150, 40.48071
475.3020, 42.05835
476.4890, 28.63354
477.6750, 10.20520
478.8610, 28.76801
480.0470, 14.63617
481.2330, 17.88501
482.4190, 19.43781
483.6040, 7.987732
484.7900, 26.53485
485.9750, 25.07947
487.1600, 42.64856
488.3450, 10.18781
489.5290, 15.72369
490.7140, 29.25616
491.8980, 57.78601
493.0820, 11.31299
494.2660, 17.83679
495.4500, 43.35754
496.6340, 25.14746
497.8170, 35.89331
499.0010, 10.50165
500.1840, 18.18481
501.3670, 12.30878
502.5500, 32.93964
503.7320, 49.41742
504.9150, 41.45398
506.0970, 51.91656
507.2790, 32.37268
508.4610, 73.38049
509.6430, 60.09204
510.8250, 60.50604
512.0060, 41.95758
513.1870, 56.41846
514.3680, 86.84290
515.5490, 77.24744
516.7300, 44.65253
517.9110, 88.99280
519.0910, 104.3931
520.2710, 66.20337
521.4510, 72.60730
522.6310, 97.01392
523.8110, 59.41986
524.9910, 122.7807
526.1700, 113.1459
527.3490, 116.9654
528.5280, 156.5400
529.7070, 164.6882
530.8860, 176.4337
532.0650, 217.4496
533.2430, 264.9442
534.4210, 324.7277
535.5990, 351.4824
536.7770, 395.2610
537.9550, 447.3734
539.1320, 520.7404
540.3100, 551.7555
541.4870, 536.2293
542.6640, 477.5369
543.8410, 422.9383
545.0170, 380.8507
546.1940, 313.7583
547.3700, 207.2798
548.5470, 200.9958
549.7230, 145.5709
550.8980, 113.0308
552.0740, 123.3583
553.2500, 122.5800
554.4250, 74.89984
555.6000, 87.21594
556.7750, 90.52655
557.9500, 79.83221
559.1250, 69.13275
560.2990, 46.50299
561.4730, 80.07684
562.6480, 100.5102
563.8220, 49.99506
564.9950, 70.32776
566.1690, 57.10144
567.3430, 97.36420
568.5160, 66.58832
569.6890, 78.83966
570.8620, 103.0853
572.0350, 86.32507
573.2070, 117.5591
574.3800, 122.7875
575.5520, 123.0100
576.7240, 193.2268
577.8960, 172.4379
579.0680, 197.6432
580.2400, 187.8429
581.4110, 234.0369
582.5830, 248.2252
583.7540, 251.3770
584.9250, 268.5851
586.0950, 261.7231
587.2660, 255.8894
588.4370, 263.0477
589.6070, 245.2031
590.7770, 247.3106
591.9470, 246.3400
593.1170, 188.4636
594.2860, 192.5980
595.4560, 184.6835
596.6250, 216.8073
597.7940, 228.8925
598.9630, 229.8414
600.1320, 252.5676
601.3000, 238.8760
602.4690, 278.8893
603.6370, 277.9673
604.8050, 286.0264
605.9730, 287.1095
607.1410, 236.8633
608.3090, 272.9365
609.4760, 270.9578
610.6430, 199.0063
611.8100, 215.0648
612.9770, 181.1185
614.1440, 178.1675
615.3110, 129.2117
616.4770, 141.2512
617.6430, 103.2792
618.8090, 100.2259
619.9750, 106.2460
621.1410, 98.20282
622.3070, 113.1690
623.4720, 62.13757
624.6370, 51.05408
625.8020, 61.04425
626.9670, 24.02417
628.1320, 74.01807
629.2970, 39.92749
630.4610, 62.85620
631.6250, 42.83704
632.7890, 54.81372
633.9530, 44.71240
635.1170, 29.63446
636.2810, 6.598511
637.4440, 7.391541
638.6070, 11.49072
639.7700, 8.359497
640.9330, 0.7455440
642.0960, 9.113037
643.2590, 24.03680
644.4210, 16.04333
645.5830, 34.85883
646.7450, 27.75726
647.9070, 16.34796
649.0690, 4.529297
650.2310, 26.40009
651.3920, 16.26752
652.5530, 12.13129
653.7140, 18.99109
654.8750, 30.84747
656.0360, 16.70068
657.1970, 26.55060
658.3570, 21.30017
659.5170, 0.2414550
660.6770, 14.07788
661.8370, 11.91113
662.9970, 9.741211
664.1570, 6.568115
665.3160, 6.391541
666.4750, 3.465149
667.6340, 4.023499
668.7930, 13.16479
669.9520, 24.36450
671.1110, 7.576843
672.2690, 9.798645
673.4270, 16.02802
674.5850, 20.65631
675.7430, 29.52301
676.9010, 40.79608
678.0590, 15.09125
679.2160, 10.39868
680.3730, 21.71552
681.5300, 22.95355
682.6870, 47.37921
683.8440, 1.740906
685.0010, 10.10455
686.1570, 30.47729
687.3130, 4.869934
688.4690, 18.26862
689.6250, 32.68036
690.7810, 10.88739
691.9370, 29.54639
693.0920, 8.001465
694.2470, 1.547913
695.4020, 15.09235
696.5570, 36.63550
697.7120, 6.177490
698.8670, 1.281677
700.0210, 5.743408
701.1750, 19.98206
702.3290, 4.687134
703.4830, 19.16833
704.6370, 10.66022
705.7910, 19.84180
706.9440, 18.65692
708.0970, 10.83459
709.2510, 21.32550
710.4030, 11.81598
711.5560, 12.30603
712.7090, 22.79578
713.8610, 44.28516
715.0140, 52.77441
716.1660, 58.74060
717.3180, 32.75256
718.4690, 61.24170
719.6210, 53.73083
720.7730, 47.22009
721.9240, 61.70972
723.0750, 73.19946
724.2260, 74.68970
725.3770, 57.18042
726.5270, 106.6716
727.6780, 92.16345
728.8280, 89.65588
729.9780, 125.1493
731.1280, 101.6439
732.2780, 73.13940
733.4280, 102.6359
734.5770, 105.1335
735.7260, 114.6323
736.8760, 158.1343
738.0250, 125.6394
739.1730, 153.1498
740.3220, 163.6631
741.4700, 94.17798
742.6190, 144.6947
743.7670, 178.2145
744.9150, 159.7379
746.0630, 204.2661
747.2100, 193.7982
748.3580, 195.3346
749.5050, 175.8745
750.6520, 202.4182
751.7990, 226.9639
752.9460, 182.5122
754.0930, 224.0630
755.2390, 189.6157
756.3860, 247.1737
757.5320, 215.7344
758.6780, 176.2974
759.8240, 204.8632
760.9690, 171.4362
762.1150, 183.0121
763.2600, 205.5908
764.4060, 123.1724
765.5510, 151.7297
766.6950, 167.3170
767.8400, 213.9075
768.9850, 217.7462
770.1290, 218.0979
771.2730, 235.6978
772.4170, 243.3010
773.5610, 249.9077
774.7050, 250.2466
775.8480, 311.6270
776.9920, 289.1384
778.1350, 311.5746
779.2780, 299.5665
780.4210, 297.0479
781.5640, 298.4025
782.7060, 292.7493
783.8490, 284.3903
784.9910, 279.0353
786.1330, 266.1265
787.2750, 294.5143
788.4170, 260.1747
789.5580, 277.8191
790.7000, 318.4531
791.8410, 270.1293
792.9820, 309.8176
794.1230, 370.5011
795.2640, 331.1987
796.4040, 349.9010
797.5450, 377.1942
798.6850, 398.9033
799.8250, 442.6104
800.9650, 508.3252
802.1050, 564.0106
803.2450, 618.7046
804.3840, 722.0645
805.5230, 784.5300
806.6630, 950.1389
807.8020, 1059.062
808.9400, 1209.062
810.0790, 1405.945
811.2170, 1741.461
812.3560, 2040.712
813.4940, 2482.430
814.6320, 3192.464
815.7700, 3787.132
816.9070, 4745.115
818.0450, 5529.412
819.1820, 6522.288
820.3190, 7255.025
821.4560, 7691.651
822.5930, 7940.778
823.7300, 7398.650
824.8670, 6805.153
826.0030, 5920.843
827.1390, 5217.652
828.2750, 4619.609
829.4110, 4025.674
830.5470, 3723.646
831.6820, 3441.625
832.8180, 3321.614
833.9530, 3197.610
835.0880, 3210.618
836.2230, 3394.561
837.3580, 3549.304
838.4920, 3831.190
839.6270, 4205.027
840.7610, 4745.021
841.8950, 5480.575
843.0290, 6297.643
844.1630, 7539.751
845.2960, 9045.886
846.4300, 10835.93
847.5630, 12951.03
848.6960, 15427.14
849.8290, 18186.26
850.9620, 20611.39
852.0940, 23016.53
853.2270, 24435.67
854.3590, 24540.82
855.4910, 23380.98
856.6230, 21163.16
857.7550, 18592.34
858.8870, 15805.52
860.0180, 13182.72
861.1500, 10697.93
862.2810, 8686.146
863.4120, 7139.369
864.5430, 5783.603
865.6730, 4859.845
866.8040, 4149.095
867.9340, 3486.355
869.0640, 2978.624
870.1940, 2663.902
871.3240, 2318.217
872.4540, 2062.842
873.5830, 1821.401
874.7130, 1719.714
875.8420, 1651.036
876.9710, 1577.371
878.1000, 1477.736
879.2290, 1416.353
880.3570, 1350.074
881.4860, 1321.765
882.6140, 1155.564
883.7420, 1054.436
884.8700, 979.1010
885.9980, 806.8474
887.1250, 730.2615
888.2530, 569.8262
889.3800, 581.2578
890.5070, 544.6978
891.6340, 471.7289
892.7610, 425.1865
893.8880, 411.6527
895.0140, 389.1274
896.1400, 356.5870
897.2670, 315.0792
898.3930, 321.5801
899.5180, 307.0895
900.6440, 265.6074
901.7700, 293.1343
902.8950, 334.6699
904.0200, 257.2137
905.1450, 323.7665
906.2700, 316.3274
907.3950, 287.8975
908.5190, 361.4757
909.6440, 358.2393
910.7680, 484.8383
911.8920, 547.4448
913.0160, 656.0608
914.1400, 734.6863
915.2630, 813.3232
916.3870, 879.9696
917.5100, 873.6033
918.6330, 855.2234
919.7560, 811.9731
920.8790, 709.6604
922.0010, 632.8997
923.1240, 504.6121
924.2460, 485.3330
925.3680, 413.0728
926.4900, 379.3103
927.6120, 422.7733
928.7340, 356.5273
929.8550, 348.2930
930.9760, 364.0670
932.0980, 316.8492
933.2190, 436.6902
934.3390, 473.4910
935.4600, 488.5249
936.5810, 501.2480
937.7010, 515.0726
938.8210, 576.9053
939.9410, 652.1162
941.0610, 709.9675
942.1810, 789.8323
943.3010, 836.0869
944.4200, 998.9094
945.5390, 1001.256
946.6580, 1184.715
947.7770, 1308.566
948.8960, 1452.431
950.0150, 1562.397
951.1330, 1758.250
952.2510, 1970.729
953.3690, 2173.731
954.4870, 2435.651
955.6050, 2693.680
956.7230, 2792.620
957.8400, 2892.668
958.9580, 2964.730
960.0750, 2973.263
961.1920, 2916.346
962.3090, 2785.346
963.4250, 2496.450
964.5420, 2272.569
965.6580, 2052.862
966.7740, 1747.992
967.8900, 1426.129
969.0060, 1246.166
970.1220, 1036.714
971.2380, 899.0811
972.3530, 733.2423
973.4680, 639.4146
974.5830, 511.5935
975.6980, 487.7825
976.8130, 358.9797
977.9280, 312.1821
979.0420, 251.4644
980.1560, 257.6816
981.2710, 151.9039
982.3850, 134.1313
983.4980, 104.3638
984.6120, 133.6011
985.7260, 83.84326
986.8390, 71.09021
987.9520, 50.55688
989.0650, 67.81323
990.1780, 71.07446
991.2910, 43.34021
992.4030, 46.61096
993.5160, 54.88623
994.6280, 58.16760
995.7400, 39.45349
996.8520, 42.74426
997.9640, 56.03906
999.0750, 39.33850
1000.187, 14.64209
1001.298, 49.15454
1002.409, 63.46606
1003.520, 5.781738
1004.631, 1.898926
1005.741, 13.57605
1006.852, 11.25305
1007.962, 15.07117
1009.072, 15.39893
1010.182, 7.515015
1011.292, 1.150146
1012.402, 10.81226
1013.511, 13.14270
1014.621, 11.96570
1015.730, 14.22083
1016.839, 15.46118
1017.948, 10.12573
1019.056, 11.79016
1020.165, 12.54480
1021.273, 6.112915
1022.382, 22.23047
1023.490, 18.80859
1024.598, 16.07312
1025.706, 18.27454
1026.813, 13.62488
1027.921, 4.979858
1029.028, 22.65918
1030.135, 24.69507
1031.242, 18.05164
1032.349, 14.41077
1033.456, 15.77246
1034.562, 2.136230
1035.668, 30.50208
1036.775, 35.87012
1037.881, 40.24023
1038.987, 21.61816
1040.092, 29.99792
1041.198, 45.38000
1042.303, 4.236328
1043.408, 1.147095
1044.514, 2.531616
1045.618, 36.91797
1046.723, 12.30579
1047.828, 56.69507
1048.932, 58.08606
1050.037, 10.48914
1051.141, 40.88696
1052.245, 26.28162
1053.349, 14.67737
1054.452, 8.925659
1055.556, 22.46741
1056.659, 18.86157
1057.762, 2.256592
1058.865, 24.34778
1059.968, 10.96509
1061.071, 16.41162
1062.174, 16.57166
1063.276, 13.99133
1064.378, 6.369507
1065.480, 31.15930
1066.582, 48.22314
1067.684, 33.41577
1068.786, 28.07385
1069.887, 25.25134
1070.988, 8.576660
1072.090, 2.098022
1073.191, 17.22314
1074.291, 10.63171
1075.392, 18.04211
1076.493, 10.72864
1077.593, 18.64783
1078.693, 20.01355
1079.793, 9.855591
1080.893, 9.587158
1081.993, 10.67212
1083.092, 22.93030
1084.192, 0.1877440
1085.291, 35.44043
1086.390, 24.30798
1087.489, 25.92590
1088.588, 7.841675
1089.686, 37.38123
1090.785, 17.60291
1091.883, 0.1768800
1092.981, 24.03723
1094.079, 22.75024
1095.177, 17.44397
1096.275, 17.63660
1097.373, 6.827515
1098.470, 28.01465
1099.567, 25.20020
1100.664, 5.610474
1101.761, 2.568970
1102.858, 6.742310
1103.954, 47.91150
1105.051, 35.07849
1106.147, 32.24341
1107.243, 36.40613
1108.339, 21.56653
1109.435, 52.72522
1110.531, 12.88184
1111.626, 51.03503
1112.722, 59.18604
1113.817, 42.33447
1114.912, 56.48022
1116.007, 56.62341
1117.101, 36.76453
1118.196, 62.90320
1119.290, 10.03931
1120.385, 28.17053
1121.479, 41.32251
1122.573, 65.44800
1123.666, 71.69226
1124.760, 58.81226
1125.853, 50.34912
1126.947, 45.46313
1128.040, 25.69873
1129.133, 41.80676
1130.226, 60.97217
1131.318, 33.07410
1132.411, 13.17285
1133.503, 57.26648
1134.596, 50.40393
1135.688, 26.49255
1136.780, 40.54993
1137.871, 72.30273
1138.963, 43.13098
1140.054, 56.20618
1141.146, 1.278076
1142.237, 60.37708
1143.328, 81.41443
1144.419, 62.22461
1145.509, 37.92480
1146.600, 62.65234
1147.690, 33.27588
1148.780, 66.92456
1149.870, 24.69385
1150.960, 63.38660
1152.050, 54.39624
1153.139, 54.28101
1154.229, 45.30444
1155.318, 87.61646
1156.407, 56.16125
1157.496, 85.17688
1158.585, 53.64734
1159.674, 49.43298
1160.762, 99.46387
1161.850, 116.4674
1162.939, 91.46680
1164.027, 75.53076
1165.114, 72.52722
1166.202, 81.51978
1167.290, 99.50879
1168.377, 66.49414
1169.464, 73.85913
1170.551, 47.83630
1171.638, 64.84607
1172.725, 51.81543
1173.812, 66.60449
1174.898, 60.74292
1175.984, 53.40161
1177.071, 52.49255
1178.157, 37.46411
1179.242, 34.40894
1180.328, 29.34985
1181.414, 31.18042
1182.499, 69.21851
1183.584, 59.17859
1184.669, 35.10217
1185.754, 81.60144
1186.839, 87.54187
1187.924, 51.47986
1189.008, 63.46204
1190.092, 48.86462
1191.177, 50.06189
1192.260, 1.956177
1193.344, 25.83948
1194.428, 64.71814
1195.512, 22.59265
1196.595, 26.41333
1197.678, 94.28613
1198.761, 72.97363
1199.844, 34.92371
1200.927, 44.77673
1202.009, 81.62585
1203.092, 65.10852
1204.174, 19.16406
1205.256, 106.0005
1206.338, 62.48279
1207.420, 53.38049
1208.502, 69.76184
1209.583, 61.06055
1210.665, 48.07483
1211.746, 62.97009
1212.827, 61.78027
1213.908, 67.59143
1214.988, 70.81824
1216.069, 78.74988
1217.149, 67.71289
1218.230, 71.92236
1219.310, 81.31091
1220.390, 69.17639
1221.470, 65.95862
1222.549, 65.27576
1223.629, 62.05115
1224.708, 62.86267
1225.787, 44.69080
1226.866, 79.45654
1227.945, 90.05127
1229.024, 121.8608
1230.103, 72.94666
1231.181, 90.86304
1232.259, 38.21252
1233.337, 72.74585
1234.415, 59.48889
1235.493, 43.22888
1236.571, 45.96570
1237.648, 61.69922
1238.726, 36.57019
1239.803, 33.35205
1240.880, 69.00574
1241.957, 35.72632
1243.034, 60.44348
1244.110, 64.15759
1245.187, 24.86853
1246.263, 44.70752
1247.339, 25.47815
1248.415, 62.17944
1249.491, 60.69128
1250.566, 16.38611
1251.642, 47.07764
1252.717, 6.765869
1253.793, 53.44983
1254.868, 0.8693850
1255.943, 28.81848
1257.017, 6.489136
1258.092, 79.23975
1259.166, 10.90308
1260.241, 59.56262
1261.315, 40.21912
1262.389, 41.66785
1263.462, 12.31848
1264.536, 42.32458
1265.610, 43.96875
1266.683, 24.65161
1267.756, 22.29187
1268.829, 31.93042
1269.902, 56.56580
1270.975, 13.41345
1272.048, 48.04297
1273.120, 17.67004
1274.192, 20.32349
1275.264, 25.94763
1276.336, 27.57190
1277.408, 7.195435
1278.480, 88.91943
1279.551, 64.54041
1280.623, 10.83984
1281.694, 47.76917
1282.765, 67.37622
1283.836, 1.8555000E-02
1284.907, 6.291016
1285.977, 42.89893
1287.048, 2.505127
1288.118, 7.388916
1289.188, 56.19067
1290.258, 23.81714
1291.328, 61.39612
1292.398, 9.972778
1293.467, 27.64551
1294.537, 61.21655
1295.606, 31.84607
1296.675, 37.41211
1297.744, 17.02429
1298.813, 27.52466
1299.882, 16.07104
1300.950, 35.63867
1302.018, 38.23975
1303.086, 35.81250
1304.155, 21.34924
1305.222, 23.88318
1306.290, 19.41455
1307.358, 59.94312
1308.425, 28.46899
1309.492, 76.98157
1310.559, 41.49817
1311.626, 17.01660
1312.693, 63.53357
1313.760, 5.046387
1314.826, 18.55872
1315.893, 18.06848
1316.959, 7.576172
1318.025, 26.08154
1319.091, 20.60632
1320.157, 40.12903
1321.222, 35.88208
1322.288, 38.34790
1323.353, 69.84827
1324.418, 27.25378
1325.483, 21.73779
1326.548, 11.24084
1327.612, 68.75159
1328.677, 42.26880
1329.741, 66.78430
1330.806, 22.29822
1331.870, 16.18774
1332.934, 54.23730
1333.997, 17.74268
1335.061, 32.25232
1336.124, 31.75745
1337.188, 18.26697
1338.251, 2.781494
1339.314, 25.29810
1340.377, 24.81641
1341.439, 22.33276
1342.502, 65.90894
1343.564, 35.42371
1344.627, 72.93542
1345.689, 47.45398
1346.751, 23.97070
1347.813, 57.49011
1348.874, 59.00769
1349.936, 58.52332
1350.997, 65.03943
1352.058, 78.55420
1353.119, 43.16077
1354.180, 38.67810
1355.241, 50.19360
1356.301, 11.70862
1357.362, 18.77808
1358.422, 9.759766
1359.482, 38.26782
1360.542, 40.77576
1361.602, 49.28345
1362.662, 59.78943
1363.721, 37.28906
1364.781, 44.78320
1365.840, 0.2756350
1366.899, 10.76587
1367.958, 28.24622
1369.017, 50.72485
1370.075, 41.20203
1371.134, 63.67761
1372.192, 71.15100
1373.250, 0.6230470
1374.308, 8.125000
1375.366, 59.59326
1376.424, 17.06006
1377.481, 43.52649
1378.539, 32.96802
1379.596, 84.43164
1380.653, 54.77197
1381.710, 44.23242
1382.767, 20.27148
1383.824, 24.59326
1384.880, 5.061157
1385.937, 46.51611
1386.993, 45.90942
1388.049, 70.36182
1389.105, 24.86829
1390.161, 41.31946
1391.216, 4.277832
1392.272, 31.22095
1393.327, 13.66675
1394.382, 54.13550
1395.437, 61.57593
1396.492, 65.01843
1397.547, 55.45886
1398.601, 40.94299
1399.656, 25.44189
1400.710, 16.86230
1401.764, 61.29272
1402.818, 44.05188
1403.872, 29.49011
1404.925, 2.835083
1405.979, 63.27209
1407.032, 41.70886
1408.085, 29.29858
1409.139, 59.73438
1410.191, 33.36841
1411.244, 10.48804
1412.297, 20.83691
1413.349, 38.26990
1414.402, 7.755493
1415.454, 62.89929
1416.506, 11.35571
1417.558, 26.85498
1418.609, 29.34583
1419.661, 17.20068
1420.712, 25.24780
1421.764, 7.719604
1422.815, 36.13452
1423.866, 35.60645
1424.916, 50.63428
1425.967, 42.03870
1427.018, 15.40625
1428.068, 6.810181
1429.118, 13.20898
1430.168, 25.59875
1431.218, 43.96790
1432.268, 47.38818
1433.318, 53.87805
1434.367, 42.11365
1435.416, 53.53333
1436.465, 50.89758
1437.514, 43.26184
1438.563, 43.95642
1439.612, 27.92163
1440.661, 30.27551
1441.709, 64.65503
1442.757, 55.13135
1443.805, 48.62659
1444.853, 16.12537
1445.901, 62.61658
1446.949, 16.06055
1447.996, 50.55823
1449.044, 27.73633
1450.091, 95.19531
1451.138, 47.67932
1452.185, 92.00732
1453.232, 51.48804
1454.278, 69.96191
1455.325, 64.43982
1456.371, 44.91663
1457.417, 103.3922
1458.463, 52.86658
1459.509, 81.33911
1460.555, 40.80957
1461.601, 88.60474
1462.646, 77.98364
1463.691, 29.43176
1464.737, 84.87830
1465.782, 76.14526
1466.826, 46.51672
1467.871, 5.956421
1468.916, 36.39502
1469.960, 54.57117
1471.004, 51.96558
1472.048, 25.39697
1473.092, 50.82800
1474.136, 44.24219
1475.180, 43.56006
1476.223, 50.99463
1477.267, 40.11707
1478.310, 0.3406980
1479.353, 24.70520
1480.396, 37.12842
1481.439, 30.55066
1482.481, 74.97107
1483.524, 13.34692
1484.566, 61.76038
1485.608, 85.01318
1486.650, 41.42932
1487.692, 41.84912
1488.734, 78.08679
1489.775, 27.61511
1490.817, 29.94946
1491.858, 60.35632
1492.899, 98.84375
1493.940, 73.11035
1494.981, 44.49084
1496.022, 40.83691
1497.062, 84.05151
1498.103, 51.43677
1499.143, 10.82104
1500.183, 54.20471
1501.223, 32.58740
1502.263, 35.96765
1503.302, 52.35107
1504.342, 72.73120
1505.381, 41.05286
1506.420, 46.36670
1507.459, 51.75586
1508.498, 112.1422
1509.537, 74.52576
1510.576, 57.90479
1511.614, 71.27905
1512.652, 22.64868
1513.691, 6.049561
1514.729, 36.44824
1515.767, 30.84924
1516.804, 7.086426
1517.842, 58.48584
1518.879, 13.88318
1519.917, 60.27991
1520.954, 28.67505
1521.991, 52.82349
1523.028, 1.222778
1524.064, 6.521240
1525.101, 47.91663
1526.137, 44.31201
1527.173, 7.247559
1528.210, 62.20911
1529.245, 32.72815
1530.281, 31.25647
1531.317, 43.79858
1532.352, 1.776489
1533.388, 39.77979
1534.423, 3.653320
1535.458, 51.92847
1536.493, 48.52466
1537.528, 38.13538
1538.562, 35.76331
1539.597, 25.77942
1540.631, 17.95837
1541.665, 8.041504
1542.700, 10.72620
1543.733, 3.966064
1544.767, 20.33044
1545.801, 11.88904
1546.834, 42.53162
1547.868, 13.18286
1548.901, 64.75452
1549.934, 33.59167
1550.967, 73.03430
1551.999, 28.44617
1553.032, 56.73413
1554.064, 30.02844
1555.097, 66.94568
1556.129, 19.93848
1557.161, 49.74707
1558.193, 35.44202
1559.224, 23.25171
1560.256, 48.98267
1561.287, 51.11218
1562.318, 0.2097170
1563.350, 0.0000000E+00
##END=



