##NAMES=Forsterite
##RRUFFID=R050117
##IDEAL CHEMISTRY=Mg_2_SiO_4_
##LOCALITY=Sapat, Gilgit, Pakistan
##OWNER=RRUFF
##SOURCE=Farooq and Nazia Sawal
##DESCRIPTION=Fragment of a green crystal
##STATUS=The identification of this mineral has been confirmed by X-ray diffraction and chemical analysis
##URL=rruff.info/R050117
##MEASURED CHEMISTRY=(Mg_1.81_Fe_0.18_Ni_0.01_)_Î£=2_Si_1.00_O_4_
##PIN_ID=L00442
##ORIENTATION=Laser parallel to c* (0 0 1). Fiducial mark perpendicular to laser is parallel to -a [-1 0 0]
138.550, 0.000
139.937, 0.582
141.323, 49.873
142.709, 127.678
144.094, 76.805
145.480, 95.639
146.865, 4.925
148.250, 60.499
149.635, 64.729
151.019, 88.445
152.403, 72.991
153.788, 136.636
155.171, 233.686
156.555, 216.483
157.939, 283.186
159.322, 205.636
160.705, 156.538
162.088, 141.237
163.470, 141.572
164.853, 100.167
166.235, 148.390
167.617, 134.647
168.998, 53.519
170.380, 74.231
171.761, 134.849
173.142, 80.708
174.523, 213.969
175.904, 166.483
177.284, 168.209
178.664, 134.215
180.044, 148.262
181.424, 127.390
182.803, 109.754
184.183, 66.367
185.562, 114.294
186.940, 98.596
188.319, 70.324
189.698, 81.055
191.076, 16.642
192.454, 15.499
193.831, 11.664
195.209, 17.153
196.586, 6.493
197.963, 27.703
199.340, 58.087
200.717, 64.280
202.093, 90.224
203.470, 87.048
204.846, 116.975
206.221, 136.192
207.597, 120.635
208.972, 162.105
210.347, 185.120
211.722, 254.923
213.097, 335.615
214.472, 463.097
215.846, 558.647
217.220, 667.079
218.594, 820.782
219.967, 1059.906
221.341, 1311.192
222.714, 1608.679
224.087, 1540.421
225.460, 1433.703
226.832, 1257.972
228.204, 1120.806
229.577, 1036.703
230.948, 936.650
232.320, 833.633
233.692, 757.638
235.063, 695.648
236.434, 602.648
237.805, 533.412
239.175, 480.567
240.545, 376.478
241.916, 307.348
243.286, 223.170
244.655, 205.270
246.025, 125.294
247.394, 153.908
248.763, 110.821
250.132, 108.744
251.501, 83.694
252.869, 49.516
254.237, 7.233
255.605, 17.563
256.973, 19.286
258.340, 8.993
259.708, 23.878
261.075, 19.805
262.442, 8.224
263.808, 43.811
265.175, 15.974
266.541, 51.822
267.907, 16.258
269.273, 35.600
270.639, 40.542
272.004, 1.185
273.369, 14.223
274.734, 51.661
276.099, 15.755
277.463, 9.149
278.828, 10.186
280.192, 2.905
281.556, 5.697
282.919, 9.912
284.283, 34.893
285.646, 39.751
287.009, 44.514
288.372, 19.165
289.734, 67.228
291.097, 52.373
292.459, 39.766
293.821, 66.067
295.183, 108.542
296.544, 150.888
297.905, 219.154
299.266, 278.300
300.627, 370.319
301.988, 381.098
303.348, 401.652
304.709, 404.156
306.069, 367.435
307.428, 327.412
308.788, 274.218
310.147, 281.866
311.507, 263.777
312.865, 325.684
314.224, 358.362
315.583, 406.877
316.941, 566.057
318.299, 661.134
319.657, 838.977
321.015, 1080.682
322.372, 1381.245
323.729, 1691.474
325.086, 2027.591
326.443, 2282.428
327.800, 2320.135
329.156, 2289.282
330.512, 2185.455
331.868, 2025.241
333.224, 1973.428
334.579, 1973.586
335.935, 1911.776
337.290, 1934.572
338.645, 1784.658
339.999, 1627.407
341.354, 1328.052
342.708, 1096.448
344.062, 868.802
345.416, 674.976
346.769, 552.991
348.123, 409.596
349.476, 321.470
350.829, 272.177
352.182, 265.571
353.534, 195.969
354.887, 229.568
356.239, 198.043
357.591, 154.337
358.942, 175.104
360.294, 142.002
361.645, 154.945
362.996, 129.042
364.347, 131.991
365.698, 144.943
367.048, 116.634
368.398, 149.374
369.748, 161.111
371.098, 163.509
372.448, 158.120
373.797, 126.788
375.146, 135.657
376.495, 122.792
377.844, 133.266
379.192, 127.559
380.540, 123.958
381.889, 123.328
383.236, 113.594
384.584, 117.827
385.932, 107.025
387.279, 112.183
388.626, 104.299
389.973, 124.376
391.319, 64.417
392.666, 101.419
394.012, 82.383
395.358, 81.310
396.704, 121.197
398.049, 119.047
399.394, 57.859
400.740, 101.631
402.084, 93.365
403.429, 101.893
404.774, 112.098
406.118, 130.917
407.462, 166.625
408.806, 129.824
410.150, 164.224
411.493, 135.225
412.836, 169.168
414.179, 167.863
415.522, 210.119
416.865, 251.491
418.207, 238.381
419.549, 269.143
420.891, 284.506
422.233, 248.940
423.575, 276.611
424.916, 314.879
426.257, 315.005
427.598, 340.428
428.939, 371.013
430.279, 376.385
431.619, 325.083
432.959, 338.319
434.299, 300.008
435.639, 287.864
436.978, 228.356
438.318, 182.579
439.657, 167.712
440.996, 192.775
442.334, 157.281
443.673, 116.202
445.011, 151.223
446.349, 113.679
447.687, 123.182
449.024, 75.733
450.361, 100.903
451.699, 100.687
453.036, 101.296
454.372, 93.732
455.709, 92.455
457.045, 106.515
458.381, 87.818
459.717, 121.386
461.053, 100.182
462.388, 598.432
463.724, 721.575
465.059, 712.840
466.394, 547.979
467.728, 279.075
469.063, 207.067
470.397, 184.679
471.731, 219.325
473.065, 283.930
474.398, 318.323
475.732, 365.219
477.065, 338.059
478.398, 313.951
479.731, 227.843
481.063, 200.979
482.396, 186.748
483.728, 219.216
485.060, 193.313
486.391, 192.805
487.723, 173.122
489.054, 209.147
490.385, 192.507
491.716, 196.199
493.047, 190.611
494.377, 189.582
495.708, 199.328
497.038, 193.510
498.368, 221.353
499.697, 227.472
501.027, 229.123
502.356, 246.242
503.685, 252.770
505.014, 253.958
506.342, 273.564
507.671, 304.272
508.999, 309.457
510.327, 336.470
511.655, 352.761
512.982, 318.721
514.310, 338.156
515.637, 327.980
516.964, 328.965
518.291, 344.759
519.617, 375.975
520.944, 429.652
522.270, 414.344
523.596, 400.869
524.921, 467.371
526.247, 505.277
527.572, 589.697
528.897, 676.742
530.222, 704.087
531.547, 783.662
532.871, 990.242
534.196, 1102.643
535.520, 1411.623
536.844, 1711.001
538.167, 2303.280
539.491, 2829.069
540.814, 3527.242
542.137, 4112.437
543.460, 4350.524
544.783, 3944.716
546.105, 3377.734
547.427, 2749.754
548.749, 2133.736
550.071, 1720.766
551.393, 1318.363
552.714, 1051.254
554.035, 896.967
555.356, 807.654
556.677, 650.571
557.998, 612.460
559.318, 517.900
560.638, 513.678
561.958, 459.383
563.278, 451.125
564.597, 416.894
565.917, 367.726
567.236, 391.694
568.555, 370.496
569.874, 391.429
571.192, 395.230
572.511, 375.162
573.829, 366.081
575.147, 337.171
576.464, 378.434
577.782, 352.655
579.099, 329.019
580.416, 368.447
581.733, 344.742
583.050, 326.168
584.366, 305.682
585.683, 286.202
586.999, 312.713
588.315, 291.230
589.630, 282.739
590.946, 271.237
592.261, 245.740
593.576, 218.237
594.891, 206.732
596.206, 165.079
597.520, 148.235
598.834, 153.337
600.148, 194.545
601.462, 168.610
602.776, 200.506
604.089, 205.549
605.402, 230.433
606.715, 253.354
608.028, 280.074
609.341, 272.899
610.653, 260.718
611.965, 275.536
613.277, 219.321
614.589, 218.096
615.901, 208.924
617.212, 150.665
618.523, 128.538
619.834, 95.313
621.145, 115.633
622.456, 70.937
623.766, 87.224
625.076, 78.495
626.386, 48.750
627.696, 71.902
629.006, 56.951
630.315, 35.135
631.624, 17.670
632.933, 33.495
634.242, 50.644
635.551, 25.777
636.859, 26.105
638.167, 0.979
639.475, 10.038
640.783, 6.138
642.090, 1.123
643.398, 24.232
644.705, 6.376
646.012, 2.622
647.318, 24.733
648.625, 14.946
649.931, 43.169
651.237, 20.461
652.543, 34.786
653.849, 10.108
655.155, 21.475
656.460, 10.759
657.765, 20.064
659.070, 12.395
660.375, 23.002
661.679, 27.797
662.984, 38.536
664.288, 40.979
665.592, 33.457
666.895, 34.966
668.199, 43.506
669.502, 7.079
670.805, 3.667
672.108, 25.265
673.411, 18.114
674.713, 13.486
676.016, 21.146
677.318, 19.202
678.620, 22.547
679.921, 29.886
681.223, 32.131
682.524, 21.445
683.825, 23.871
685.126, 24.816
686.427, 12.521
687.727, 15.763
689.028, 3.044
690.328, 8.320
691.628, 10.406
692.927, 0.859
694.227, 24.120
695.526, 9.621
696.825, 47.631
698.124, 13.881
699.423, 32.131
700.721, 0.380
702.020, 44.626
703.318, 30.873
704.616, 12.121
705.913, 30.369
707.211, 18.617
708.508, 78.867
709.805, 16.118
711.102, 29.371
712.399, 79.628
713.695, 77.887
714.992, 65.150
716.288, 52.417
717.584, 86.685
718.879, 55.954
720.175, 91.226
721.470, 115.501
722.765, 80.777
724.060, 122.055
725.355, 110.334
726.649, 114.615
727.944, 144.897
729.238, 140.181
730.532, 127.466
731.825, 150.752
733.119, 175.039
734.412, 141.325
735.705, 163.612
736.998, 183.901
738.291, 164.190
739.584, 182.481
740.876, 209.771
742.168, 191.063
743.460, 177.355
744.752, 234.647
746.043, 232.939
747.334, 243.230
748.626, 243.522
749.916, 289.813
751.207, 301.105
752.498, 298.399
753.788, 279.694
755.078, 375.992
756.368, 365.298
757.658, 397.606
758.947, 380.928
760.237, 370.253
761.526, 442.581
762.815, 475.912
764.104, 475.248
765.392, 470.591
766.680, 522.943
767.969, 572.300
769.257, 603.666
770.544, 648.036
771.832, 605.411
773.119, 654.797
774.406, 705.189
775.693, 788.500
776.980, 798.906
778.267, 799.133
779.553, 842.439
780.839, 897.717
782.125, 1002.880
783.411, 1053.153
784.697, 1086.373
785.982, 1143.513
787.267, 1214.079
788.552, 1230.235
789.837, 1318.478
791.122, 1397.625
792.406, 1516.731
793.690, 1587.553
794.974, 1720.700
796.258, 1917.113
797.542, 2042.858
798.825, 2182.176
800.108, 2397.639
801.391, 2704.356
802.674, 3046.710
803.957, 3383.699
805.239, 3889.938
806.522, 4328.624
807.804, 4986.434
809.085, 5847.815
810.367, 6777.510
811.649, 7940.897
812.930, 9566.729
814.211, 11513.064
815.492, 14358.762
816.772, 18164.184
818.053, 23778.957
819.333, 30173.607
820.613, 39488.766
821.893, 48353.848
823.173, 54708.434
824.452, 56785.316
825.732, 53262.395
827.011, 46438.227
828.290, 38575.742
829.568, 31013.256
830.847, 24979.439
832.125, 20307.020
833.403, 16754.623
834.681, 14272.280
835.959, 12159.965
837.236, 10916.289
838.514, 9743.973
839.791, 9100.160
841.068, 8447.092
842.345, 8234.795
843.621, 8302.465
844.898, 8420.174
846.174, 8877.336
847.450, 9845.035
848.726, 11102.867
850.001, 12880.155
851.277, 15268.034
852.552, 18185.881
853.827, 20993.783
855.102, 22781.584
856.376, 23739.512
857.651, 22197.795
858.925, 19925.727
860.199, 16963.691
861.473, 13541.703
862.746, 11159.690
864.020, 9177.737
865.293, 7371.437
866.566, 6274.459
867.839, 5205.421
869.112, 4427.469
870.384, 3834.530
871.656, 3151.602
872.928, 2820.687
874.200, 2440.120
875.472, 2224.230
876.744, 1906.353
878.015, 1766.489
879.286, 1643.637
880.557, 1438.798
881.828, 1323.972
883.098, 1249.159
884.369, 1195.359
885.639, 1051.586
886.909, 958.812
888.178, 844.050
889.448, 797.755
890.717, 754.020
891.987, 714.600
893.256, 654.892
894.524, 593.792
895.793, 559.110
897.061, 500.441
898.330, 463.786
899.598, 477.144
900.865, 418.515
902.133, 429.899
903.401, 398.298
904.668, 329.029
905.935, 378.454
907.202, 378.893
908.468, 329.801
909.735, 408.267
911.001, 381.359
912.267, 515.852
913.533, 487.358
914.799, 497.877
916.064, 582.410
917.330, 657.926
918.595, 862.807
919.860, 824.381
921.124, 838.089
922.389, 703.689
923.653, 620.564
924.918, 481.615
926.182, 524.787
927.445, 507.361
928.709, 452.510
929.972, 449.270
931.236, 454.488
932.499, 505.195
933.761, 468.204
935.024, 514.851
936.286, 546.610
937.549, 557.834
938.811, 642.214
940.073, 682.663
941.334, 763.575
942.596, 826.402
943.857, 936.243
945.118, 1059.108
946.379, 1177.990
947.640, 1380.719
948.900, 1479.637
950.161, 1699.642
951.421, 1989.665
952.681, 2286.641
953.940, 2613.789
955.200, 2972.803
956.459, 3394.839
957.719, 3844.901
958.978, 4316.983
960.236, 4749.091
961.495, 5048.219
962.753, 5094.366
964.012, 5118.532
965.270, 4790.718
966.527, 4427.922
967.785, 3945.149
969.043, 3376.397
970.300, 3009.670
971.557, 2496.229
972.814, 2098.552
974.071, 1722.899
975.327, 1411.273
976.583, 1164.158
977.840, 999.069
979.095, 798.495
980.351, 687.935
981.607, 585.390
982.862, 478.865
984.117, 474.352
985.372, 366.854
986.627, 326.611
987.882, 256.138
989.136, 211.686
990.390, 246.245
991.644, 144.830
992.898, 166.433
994.152, 156.049
995.405, 63.684
996.659, 123.332
997.912, 77.998
999.165, 73.676
1000.417, 78.365
1001.670, 48.073
1002.922, 45.793
1004.174, 21.524
1005.426, 45.275
1006.678, 31.039
1007.930, 15.178
1009.181, 2.612
1010.432, 26.413
1011.683, 2.771
1012.934, 28.056
1014.185, 3.106
1015.435, 23.250
1016.685, 3.611
1017.935, 28.518
1019.185, 42.359
1020.435, 16.254
1021.684, 8.165
1022.934, 43.090
1024.183, 12.973
1025.432, 17.974
1026.680, 3.936
1027.929, 51.909
1029.177, 33.894
1030.425, 26.889
1031.673, 47.895
1032.921, 42.917
1034.169, 7.951
1035.416, 0.005
1036.663, 23.051
1037.911, 35.117
1039.157, 13.802
1040.404, 60.285
1041.650, 9.619
1042.897, 7.485
1044.143, 16.403
1045.389, 13.713
1046.634, 43.840
1047.880, 34.977
1049.125, 26.123
1050.371, 24.279
1051.615, 41.443
1052.860, 32.139
1054.105, 8.203
1055.349, 17.983
1056.593, 3.178
1057.837, 31.619
1059.081, 15.580
1060.325, 53.214
1061.568, 24.979
1062.812, 13.179
1064.055, 31.387
1065.298, 8.603
1066.540, 20.174
1067.783, 26.953
1069.025, 27.265
1070.267, 22.510
1071.509, 13.713
1072.751, 4.057
1073.993, 27.823
1075.234, 9.595
1076.475, 17.364
1077.716, 8.136
1078.957, 1.095
1080.198, 8.667
1081.438, 22.572
1082.679, 3.181
1083.919, 15.930
1085.159, 4.319
1086.398, 6.427
1087.638, 9.171
1088.877, 9.914
1090.116, 18.658
1091.355, 31.594
1092.594, 15.853
1093.833, 14.116
1095.071, 10.386
1096.309, 12.339
1097.547, 24.934
1098.785, 16.788
1100.023, 16.514
1101.260, 38.756
1102.498, 17.970
1103.735, 42.299
1104.972, 39.573
1106.208, 18.852
1107.445, 34.135
1108.681, 14.423
1109.918, 37.715
1111.154, 66.012
1112.389, 20.312
1113.625, 21.618
1114.860, 31.927
1116.096, 45.240
1117.331, 48.557
1118.566, 64.877
1119.800, 2.201
1121.035, 40.526
1122.269, 70.854
1123.503, 138.578
1124.737, 166.912
1125.971, 107.249
1127.205, 81.588
1128.438, 53.929
1129.671, 53.929
1130.904, 29.275
1132.137, 18.449
1133.370, 19.318
1134.602, 4.897
1135.834, 20.344
1137.066, 36.953
1138.298, 38.307
1139.530, 40.002
1140.762, 100.763
1141.993, 44.295
1143.224, 84.271
1144.455, 26.838
1145.686, 72.659
1146.917, 91.018
1148.147, 43.426
1149.377, 58.649
1150.607, 101.043
1151.837, 120.403
1153.067, 84.671
1154.296, 76.336
1155.526, 88.444
1156.755, 94.471
1157.984, 83.830
1159.213, 89.042
1160.441, 100.543
1161.670, 100.684
1162.898, 115.104
1164.126, 103.911
1165.354, 108.266
1166.581, 83.715
1167.809, 91.674
1169.036, 104.275
1170.263, 97.392
1171.490, 136.416
1172.717, 132.950
1173.943, 93.504
1175.170, 100.018
1176.396, 122.771
1177.622, 69.108
1178.848, 81.786
1180.073, 101.760
1181.299, 39.370
1182.524, 96.792
1183.749, 85.770
1184.974, 50.330
1186.199, 93.856
1187.423, 68.958
1188.648, 79.273
1189.872, 91.651
1191.096, 61.960
1192.320, 97.670
1193.543, 80.394
1194.767, 74.983
1195.990, 124.616
1197.213, 67.909
1198.436, 104.199
1199.659, 72.497
1200.881, 73.780
1202.104, 120.739
1203.326, 124.015
1204.548, 225.500
1205.770, 194.902
1206.991, 42.625
1208.213, 152.362
1209.434, 141.651
1210.655, 85.904
1211.876, 134.159
1213.096, 151.404
1214.317, 148.677
1215.537, 158.612
1216.757, 121.971
1217.977, 143.080
1219.197, 184.413
1220.417, 148.373
1221.636, 122.168
1222.855, 188.850
1224.074, 140.140
1225.293, 168.879
1226.512, 129.399
1227.731, 158.080
1228.949, 209.553
1230.167, 113.536
1231.385, 175.817
1232.603, 166.996
1233.820, 155.719
1235.038, 134.296
1236.255, 108.822
1237.472, 103.638
1238.689, 115.060
1239.906, 88.224
1241.122, 138.385
1242.338, 131.544
1243.555, 124.874
1244.771, 116.029
1245.986, 122.490
1247.202, 106.105
1248.417, 129.351
1249.633, 93.372
1250.848, 74.516
1252.063, 90.658
1253.277, 83.798
1254.492, 115.933
1255.706, 73.066
1256.920, 130.197
1258.134, 83.321
1259.348, 78.575
1260.562, 157.690
1261.775, 102.711
1262.988, 64.910
1264.201, 85.998
1265.414, 30.078
1266.627, 52.151
1267.839, 34.219
1269.052, 7.274
1270.264, 82.312
1271.476, 48.346
1272.688, 33.371
1273.899, 43.382
1275.111, 1.387
1276.322, 36.410
1277.533, 36.377
1278.744, 3.333
1279.955, 51.272
1281.165, 21.982
1282.376, 13.897
1283.586, 41.804
1284.796, 9.300
1286.006, 8.639
1287.215, 18.506
1288.425, 13.634
1289.634, 17.210
1290.843, 7.045
1292.052, 62.873
1293.261, 27.695
1294.469, 1.490
1295.678, 29.315
1296.886, 38.114
1298.094, 18.092
1299.302, 13.687
1300.509, 15.542
1301.717, 33.215
1302.924, 60.968
1304.131, 1.285
1305.338, 20.450
1306.545, 21.175
1307.752, 15.106
1308.958, 23.598
1310.164, 38.300
1311.370, 4.005
1312.576, 13.317
1313.782, 7.642
1314.987, 0.021
1316.193, 1.674
1317.398, 5.985
1318.603, 7.050
1319.807, 22.572
1321.012, 10.186
1322.216, 42.788
1323.421, 13.383
1324.625, 14.031
1325.829, 16.538
1327.032, 29.098
1328.236, 1.650
1329.439, 19.198
1330.642, 7.268
1331.845, 19.255
1333.048, 45.771
1334.251, 12.282
1335.453, 45.786
1336.656, 71.285
1337.858, 9.781
1339.060, 16.269
1340.261, 13.750
1341.463, 50.225
1342.664, 80.693
1343.866, 43.156
1345.067, 50.614
1346.267, 99.065
1347.468, 50.514
1348.669, 20.957
1349.869, 43.395
1351.069, 38.833
1352.269, 31.266
1353.469, 39.706
1354.668, 58.142
1355.868, 46.573
1357.067, 56.000
1358.266, 72.423
1359.465, 43.848
1360.664, 28.276
1361.862, 77.700
1363.061, 30.127
1364.259, 87.551
1365.457, 70.983
1366.655, 81.412
1367.852, 87.842
1369.050, 48.497
1370.247, 11.955
1371.444, 57.392
1372.641, 18.833
1373.838, 36.276
1375.035, 72.723
1376.231, 61.104
1377.427, 58.427
1378.623, 88.721
1379.819, 64.078
1381.015, 68.298
1382.211, 92.390
1383.406, 75.254
1384.601, 74.111
1385.796, 61.968
1386.991, 69.833
1388.185, 131.700
1389.380, 54.567
1390.574, 90.426
1391.768, 130.277
1392.962, 50.122
1394.156, 130.958
1395.350, 84.787
1396.543, 105.609
1397.736, 104.985
1398.929, 92.790
1400.122, 115.589
1401.315, 88.625
1402.507, 34.736
1403.700, 98.391
1404.892, 59.850
1406.084, 56.510
1407.276, 99.063
1408.467, 88.945
1409.659, 21.574
1410.850, 105.136
1412.041, 87.392
1413.232, 70.405
1414.423, 119.995
1415.614, 80.237
1416.804, 121.312
1417.994, 93.672
1419.184, 38.659
1420.374, 48.734
1421.564, 59.192
1422.753, 44.693
1423.943, 39.511
1425.132, 99.063
1426.321, 72.872
1427.510, 76.883
1428.698, 24.054
1429.887, 88.779
1431.075, 86.043
1432.263, 50.204
1433.451, 107.911
1434.639, 64.111
1435.827, 67.321
1437.014, 81.177
1438.201, 47.284
1439.388, 83.260
1440.575, 142.418
1441.762, 87.575
1442.949, 98.470
1444.135, 76.414
1445.321, 62.534
1446.507, 92.642
1447.693, 97.974
1448.879, 93.511
1450.064, 101.654
1451.250, 95.965
1452.435, 86.406
1453.620, 92.395
1454.805, 66.356
1455.989, 75.284
1457.174, 65.165
1458.358, 70.017
1459.542, 75.765
1460.726, 86.534
1461.910, 82.057
1463.093, 104.969
1464.277, 75.326
1465.460, 95.959
1466.643, 96.644
1467.826, 63.661
1469.009, 80.361
1470.191, 87.064
1471.373, 30.802
1472.556, 61.510
1473.738, 99.395
1474.919, 90.274
1476.101, 141.248
1477.283, 38.093
1478.464, 90.132
1479.645, 76.188
1480.826, 63.238
1482.007, 77.288
1483.187, 107.333
1484.368, 87.065
1485.548, 69.421
1486.728, 77.490
1487.908, 54.573
1489.088, 69.659
1490.268, 71.751
1491.447, 54.855
1492.626, 127.982
1493.805, 38.137
1494.984, 47.343
1496.163, 139.606
1497.341, 40.933
1498.520, 62.280
1499.698, 64.706
1500.876, 51.179
1502.054, 77.698
1503.232, 88.263
1504.409, 40.884
1505.586, 84.570
1506.763, 36.330
1507.940, 41.177
1509.117, 83.127
1510.294, 10.810
1511.470, 37.375
1512.647, 101.698
1513.823, 53.180
1514.999, 84.852
1516.174, 56.599
1517.350, 20.222
1518.526, 65.238
1519.701, 73.686
1520.876, 0.752
1522.051, 54.185
1523.226, 0.000
##END=



