##NAMES=Forsterite
##RRUFFID=R060539
##IDEAL CHEMISTRY=Mg_2_SiO_4_
##LOCALITY=Sri Lanka
##OWNER=RRUFF
##SOURCE=Gemological Institute of America
##DESCRIPTION=Brown cut gemstone
##STATUS=The identification of this mineral has been confirmed by X-ray diffraction and chemical analysis
##URL=rruff.info/R060539
##MEASURED CHEMISTRY=(Mg_1.67_Fe_0.33_)_Î£=2_Si_1.00_O_4_; trace amounts of Mn and Ca
##PIN_ID=L01564
##ORIENTATION=Laser parallel to -b* (0 -1 0). Fiducial mark perpendicular to laser is parallel to c [0 0 1]
138.5980, 0.0000000E+00
139.8290, 14.67432
141.0600, 20.74817
142.2910, 43.73242
143.5220, 32.59558
144.7530, 67.06470
145.9830, 53.48059
147.2130, 9.532593
148.4440, 54.95654
149.6730, 62.57520
150.9030, 88.32874
152.1330, 116.4197
153.3630, 116.4373
154.5920, 112.3419
155.8210, 20.30200
157.0500, 56.06274
158.2790, 98.67041
159.5080, 31.15991
160.7360, 100.5588
161.9650, 70.88977
163.1930, 89.58447
164.4210, 108.2645
165.6490, 139.1299
166.8770, 69.70996
168.1040, 149.5049
169.3320, 192.0387
170.5590, 143.6311
171.7860, 105.7538
173.0130, 40.29858
174.2400, 59.88818
175.4670, 72.51831
176.6930, 38.18518
177.9200, 41.88562
179.1460, 62.61755
180.3720, 19.38245
181.5980, 47.18286
182.8230, 27.02319
184.0490, 5.904053
185.2740, 82.82275
186.5000, 1.222656
187.7250, 27.76453
188.9500, 31.21973
190.1740, 15.17908
191.3990, 6.115967
192.6230, 8.968506
193.8480, 2.070679
195.0720, 7.189575
196.2960, 21.32642
197.5200, 15.48499
198.7430, 71.78149
199.9670, 27.05566
201.1900, 0.3422850
202.4130, 1.635376
203.6360, 56.93042
204.8590, 18.77271
206.0820, 71.52551
207.3050, 43.82495
208.5270, 34.12549
209.7490, 110.4268
210.9710, 128.7290
212.1930, 112.0305
213.4150, 187.3309
214.6370, 193.6331
215.8580, 219.9379
217.0790, 240.2461
218.3010, 287.5630
219.5210, 298.8933
220.7420, 270.2775
221.9630, 255.7145
223.1830, 311.1920
224.4040, 370.7225
225.6240, 332.3302
226.8440, 356.9828
228.0640, 324.6553
229.2840, 400.3286
230.5030, 379.0026
231.7230, 433.6892
232.9420, 397.3820
234.1610, 361.0670
235.3800, 447.7458
236.5990, 416.4172
237.8170, 424.0535
239.0360, 439.6749
240.2540, 390.2905
241.4720, 343.8956
242.6900, 376.4894
243.9080, 291.0762
245.1250, 279.7002
246.3430, 246.2629
247.5600, 209.8190
248.7770, 182.3689
249.9940, 199.9283
251.2110, 189.4814
252.4280, 190.1196
253.6450, 196.7128
254.8610, 129.5986
256.0770, 182.8143
257.2930, 163.0084
258.5090, 217.6935
259.7250, 280.1366
260.9400, 202.6603
262.1560, 155.3186
263.3710, 108.0962
264.5860, 161.5491
265.8010, 166.9653
267.0160, 156.3787
268.2310, 189.7900
269.4450, 143.1989
270.6600, 192.6053
271.8740, 143.0095
273.0880, 226.4116
274.3020, 255.8113
275.5150, 270.2090
276.7290, 344.6052
277.9420, 297.9996
279.1550, 350.3917
280.3680, 374.7821
281.5810, 465.1703
282.7940, 573.5559
284.0070, 745.9390
285.2190, 892.2344
286.4310, 1003.601
287.6430, 1240.008
288.8550, 1453.442
290.0670, 1731.676
291.2790, 2063.363
292.4900, 2370.839
293.7020, 2741.322
294.9130, 3077.809
296.1240, 3472.506
297.3350, 3743.250
298.5450, 3932.094
299.7560, 3830.949
300.9660, 3742.106
302.1760, 3531.460
303.3860, 3164.810
304.5960, 2862.466
305.8060, 2507.698
307.0150, 2238.874
308.2250, 2039.311
309.4340, 1795.513
310.6430, 1676.789
311.8520, 1583.009
313.0610, 1569.932
314.2700, 1390.612
315.4780, 1372.339
316.6860, 1356.745
317.8940, 1342.150
319.1020, 1319.917
320.3100, 1271.627
321.5180, 1148.440
322.7250, 1031.562
323.9330, 884.1443
325.1400, 767.7197
326.3470, 648.2953
327.5540, 539.9452
328.7600, 442.3306
329.9670, 382.7982
331.1730, 334.4955
332.3800, 345.8350
333.5860, 287.2164
334.7920, 192.8756
335.9970, 213.5535
337.2030, 147.6918
338.4080, 175.2161
339.6140, 129.5884
340.8190, 118.0878
342.0240, 71.45532
343.2290, 139.1687
344.4330, 113.5306
345.6380, 126.8894
346.8420, 97.24292
348.0460, 87.59497
349.2500, 38.94409
350.4540, 81.48474
351.6580, 91.82654
352.8610, 105.1647
354.0650, 79.49927
355.2680, 91.83032
356.4710, 81.15759
357.6740, 67.48083
358.8760, 64.22058
360.0790, 47.13550
361.2810, 47.44727
362.4840, 59.75562
363.6860, 65.06006
364.8880, 31.36023
366.0900, 68.65552
367.2910, 38.94604
368.4930, 17.23206
369.6940, 23.52271
370.8950, 0.1839600
372.0960, 21.89319
373.2970, 12.38452
374.4980, 12.34424
375.6980, 22.95020
376.8980, 42.21521
378.0990, 62.47473
379.2990, 59.79187
380.4980, 60.14355
381.6980, 39.26172
382.8980, 38.54028
384.0970, 29.81274
385.2960, 17.08960
386.4950, 36.38403
387.6940, 59.68799
388.8930, 51.98853
390.0920, 145.2959
391.2900, 132.6194
392.4880, 151.9482
393.6860, 170.2842
394.8840, 172.6199
396.0820, 211.9641
397.2800, 280.3098
398.4770, 387.6479
399.6750, 459.9807
400.8720, 554.3018
402.0690, 642.6284
403.2660, 790.9595
404.4620, 962.2839
405.6590, 1119.609
406.8550, 1231.936
408.0510, 1430.263
409.2480, 1520.601
410.4430, 1532.941
411.6390, 1564.288
412.8350, 1423.627
414.0300, 1299.965
415.2250, 1155.295
416.4200, 926.6250
417.6150, 702.9473
418.8100, 656.2642
420.0050, 526.5740
421.1990, 417.8760
422.3940, 384.1707
423.5880, 277.4575
424.7820, 301.7373
425.9750, 260.0098
427.1690, 154.2742
428.3630, 221.5322
429.5560, 144.7827
430.7490, 162.0254
431.9420, 169.2600
433.1350, 186.4866
434.3280, 166.7043
435.5200, 151.9136
436.7130, 101.1143
437.9050, 90.30591
439.0970, 37.48877
440.2890, 32.66064
441.4810, 23.82129
442.6720, 22.96948
443.8640, 25.89429
445.0550, 3.209229
446.2460, 28.70483
447.4370, 43.34692
448.6280, 10.61255
449.8180, 9.596924
451.0090, 2.393799
452.1990, 41.63403
453.3890, 27.70337
454.5790, 10.80713
455.7690, 5.936768
456.9590, 18.08936
458.1480, 29.72827
459.3380, 2.533203
460.5270, 79.31934
461.7160, 26.09546
462.9050, 30.85840
464.0940, 23.60864
465.2820, 9.946289
466.4700, 6.4940996E-02
467.6590, 27.76392
468.8470, 36.44971
470.0350, 89.12280
471.2220, 138.7859
472.4100, 66.43848
473.5970, 33.08008
474.7850, 79.70874
475.9720, 120.3267
477.1590, 110.9348
478.3460, 114.5398
479.5320, 120.1370
480.7190, 51.72510
481.9050, 105.3010
483.0910, 55.86670
484.2770, 123.4202
485.4630, 129.9631
486.6490, 113.4983
487.8340, 103.0227
489.0200, 116.5359
490.2050, 188.0383
491.3900, 158.5303
492.5750, 124.9751
493.7600, 162.4485
494.9440, 88.91113
496.1290, 119.3625
497.3130, 155.8030
498.4970, 128.2322
499.6810, 153.3794
500.8650, 82.05737
502.0480, 149.4531
503.2320, 132.8254
504.4150, 112.3127
505.5980, 192.6748
506.7810, 125.0254
507.9640, 114.2808
509.1460, 97.62671
510.3290, 145.9653
511.5110, 155.4585
512.6930, 151.5369
513.8750, 97.54053
515.0570, 126.1260
516.2390, 158.2766
517.4210, 81.82471
518.6020, 154.8906
519.7830, 134.2422
520.9640, 128.6011
522.1450, 128.8005
523.3260, 128.4797
524.5060, 129.6741
525.6870, 151.2295
526.8670, 123.7493
528.0470, 140.3577
529.2270, 136.1245
530.4070, 119.7639
531.5870, 147.8198
532.7660, 122.0806
533.9450, 154.6941
535.1240, 204.7998
536.3030, 166.2014
537.4820, 186.6025
538.6610, 183.3645
539.8390, 176.2471
541.0180, 201.3572
542.1960, 201.1606
543.3740, 228.7205
544.5520, 291.2673
545.7290, 263.1958
546.9070, 217.7937
548.0840, 246.5142
549.2620, 293.2322
550.4390, 268.1450
551.6160, 310.1111
552.7920, 338.7048
553.9690, 329.5273
555.1450, 327.3647
556.3220, 344.1560
557.4980, 368.1211
558.6740, 300.8813
559.8490, 377.0002
561.0250, 365.7292
562.2000, 407.4424
563.3760, 462.1399
564.5510, 418.8220
565.7260, 451.5681
566.9010, 472.2192
568.0750, 539.8547
569.2500, 501.6980
570.4240, 596.3027
571.5980, 641.8921
572.7720, 642.4658
573.9460, 712.0247
575.1200, 702.5681
576.2930, 862.0967
577.4670, 883.6099
578.6400, 1056.108
579.8130, 1142.591
580.9860, 1180.852
582.1590, 1345.054
583.3310, 1494.139
584.5040, 1649.193
585.6760, 1861.266
586.8480, 2086.450
588.0200, 2343.957
589.1920, 2619.142
590.3630, 2963.737
591.5350, 3371.371
592.7060, 3764.730
593.8770, 4309.307
595.0480, 4759.736
596.2190, 5223.205
597.3900, 5696.958
598.5600, 6063.930
599.7310, 6369.844
600.9010, 6426.066
602.0710, 6428.263
603.2410, 6226.087
604.4100, 6003.956
605.5800, 5548.711
606.7490, 5118.146
607.9190, 4539.110
609.0880, 4163.886
610.2570, 3680.751
611.4250, 3198.875
612.5940, 2760.988
613.7620, 2493.007
614.9310, 2133.784
616.0990, 1918.834
617.2670, 1639.901
618.4340, 1415.958
619.6020, 1158.003
620.7690, 1080.037
621.9370, 925.9104
623.1040, 865.9229
624.2710, 764.9304
625.4380, 695.7864
626.6040, 593.7668
627.7710, 536.7368
628.9370, 449.6965
630.1030, 373.6460
631.2690, 344.5852
632.4350, 322.5142
633.6010, 305.4336
634.7660, 255.3430
635.9320, 260.2424
637.0970, 190.1323
638.2620, 199.0127
639.4270, 208.8833
640.5920, 131.7441
641.7560, 105.5771
642.9210, 121.4194
644.0850, 33.25317
645.2490, 126.0762
646.4130, 110.8906
647.5770, 71.69604
648.7400, 43.49341
649.9040, 32.28223
651.0670, 17.93848
652.2300, 11.18799
653.3930, 0.5373540
654.5560, 27.24585
655.7190, 23.95312
656.8810, 6.347656
658.0440, 1.307617
659.2060, 17.97388
660.3680, 34.36914
661.5300, 40.25317
662.6910, 0.1315920
663.8530, 82.53223
665.0140, 20.00830
666.1750, 26.45776
667.3360, 77.95190
668.4970, 47.50073
669.6580, 3.912109
670.8190, 37.68628
671.9790, 72.31714
673.1390, 30.99805
674.2990, 39.70776
675.4590, 13.44922
676.6190, 46.20898
677.7790, 21.00317
678.9380, 10.18164
680.0970, 0.3618160
681.2570, 19.46655
682.4160, 69.31372
683.5740, 38.20483
684.7330, 44.87646
685.8920, 25.04541
687.0500, 27.98682
688.2080, 28.94873
689.3660, 64.93091
690.5240, 34.95190
691.6820, 45.99487
692.8390, 29.93408
693.9960, 20.13867
695.1540, 10.77539
696.3110, 24.31201
697.4680, 17.58691
698.6240, 10.51562
699.7810, 12.37598
700.9370, 52.26636
702.0940, 16.15649
703.2500, 42.04541
704.4060, 3.065430
705.5610, 15.82153
706.7170, 44.70850
707.8720, 9.404541
709.0280, 81.47998
710.1830, 17.36426
711.3380, 38.24951
712.4920, 51.13574
713.6470, 54.02246
714.8020, 83.91016
715.9560, 36.79956
717.1100, 117.6902
718.2640, 68.58228
719.4180, 115.4763
720.5720, 49.37305
721.7250, 51.27319
722.8780, 44.17700
724.0320, 65.08472
725.1850, 50.00708
726.3380, 124.9358
727.4900, 122.8804
728.6430, 54.82861
729.7950, 118.7878
730.9470, 179.7583
732.1000, 128.7368
733.2510, 103.7351
734.4030, 118.7495
735.5550, 161.7764
736.7060, 96.81396
737.8570, 186.8665
739.0090, 184.9248
740.1600, 199.9924
741.3100, 168.0652
742.4610, 155.1445
743.6110, 189.2307
744.7620, 243.3237
745.9120, 223.4260
747.0620, 272.5391
748.2120, 206.6597
749.3610, 238.7874
750.5110, 312.9209
751.6600, 241.0613
752.8090, 318.2083
753.9580, 355.3630
755.1070, 375.5249
756.2560, 396.6423
757.4050, 411.8691
758.5530, 429.2598
759.7010, 417.7078
760.8490, 456.0820
761.9970, 457.6458
763.1450, 462.8601
764.2920, 511.0823
765.4400, 479.3120
766.5870, 528.5505
767.7340, 523.7974
768.8810, 520.0527
770.0280, 548.3164
771.1740, 624.5889
772.3210, 606.8701
773.4670, 655.1606
774.6130, 672.4604
775.7590, 688.7698
776.9050, 743.0884
778.0510, 759.4180
779.1960, 801.7573
780.3420, 832.1074
781.4870, 913.4700
782.6320, 944.7212
783.7770, 1010.116
784.9210, 1072.521
786.0660, 1097.950
787.2100, 1238.375
788.3540, 1298.764
789.4980, 1368.895
790.6420, 1488.500
791.7860, 1634.891
792.9300, 1708.365
794.0730, 1898.827
795.2160, 1975.953
796.3590, 2351.610
797.5020, 2509.075
798.6450, 2785.592
799.7880, 3104.292
800.9300, 3553.090
802.0720, 3884.770
803.2150, 4473.504
804.3560, 5043.819
805.4980, 5761.960
806.6400, 6726.071
807.7810, 7796.481
808.9230, 9050.351
810.0640, 11044.10
811.2050, 13247.50
812.3460, 16005.42
813.4860, 19264.04
814.6270, 23573.66
815.7670, 28074.93
816.9070, 33193.97
818.0470, 37974.70
819.1870, 42357.26
820.3270, 45090.75
821.4670, 45905.26
822.6060, 44311.39
823.7450, 41195.86
824.8840, 36629.21
826.0230, 31932.55
827.1620, 27265.72
828.3010, 23342.83
829.4390, 20277.32
830.5770, 17795.60
831.7150, 15829.89
832.8530, 14507.22
833.9910, 13465.39
835.1290, 12733.78
836.2660, 12586.82
837.4030, 12632.25
838.5410, 13128.71
839.6780, 13675.18
840.8140, 14829.67
841.9510, 16371.11
843.0870, 18276.64
844.2240, 20662.20
845.3600, 23920.55
846.4960, 27340.14
847.6320, 31546.75
848.7680, 35335.39
849.9030, 39148.04
851.0380, 42524.71
852.1740, 44540.41
853.3090, 45128.13
854.4440, 44101.87
855.5780, 41532.63
856.7130, 38028.41
857.8470, 33806.21
858.9820, 29113.02
860.1160, 24635.87
861.2500, 20901.73
862.3830, 17474.61
863.5170, 14896.51
864.6500, 12456.44
865.7840, 10462.38
866.9170, 9001.346
868.0500, 7761.332
869.1830, 6785.337
870.3150, 6023.364
871.4480, 5285.411
872.5800, 4715.479
873.7120, 4346.568
874.8440, 3957.677
875.9760, 3676.805
877.1080, 3505.956
878.2390, 3286.126
879.3710, 3085.317
880.5020, 2977.528
881.6330, 2763.759
882.7640, 2492.011
883.8940, 2184.284
885.0250, 1865.576
886.1550, 1641.890
887.2850, 1463.224
888.4160, 1168.578
889.5450, 1105.952
890.6750, 925.3472
891.8050, 823.7625
892.9340, 655.1982
894.0630, 591.8408
895.1930, 615.1304
896.3220, 486.6270
897.4500, 459.1443
898.5790, 427.6816
899.7070, 412.2395
900.8360, 370.8174
901.9640, 341.4153
903.0920, 280.0339
904.2200, 357.6724
905.3470, 249.3311
906.4750, 306.0103
907.6020, 244.7107
908.7290, 269.4312
909.8560, 258.1716
910.9830, 217.9321
912.1100, 183.7129
913.2360, 177.8413
914.3630, 198.4685
915.4890, 153.4050
916.6150, 164.5503
917.7410, 141.3938
918.8670, 165.6570
919.9920, 154.8306
921.1180, 132.6648
922.2430, 124.9304
923.3680, 118.7939
924.4930, 47.80981
925.6180, 129.8169
926.7420, 236.9265
927.8670, 162.7800
928.9910, 235.7332
930.1150, 251.0845
931.2390, 210.4155
932.3630, 250.4329
933.4860, 324.5515
934.6100, 398.7883
935.7330, 476.6294
936.8560, 458.0576
937.9790, 563.0764
939.1020, 635.7959
940.2250, 832.6121
941.3470, 986.4395
942.4700, 1164.073
943.5920, 1235.309
944.7140, 1503.763
945.8360, 1732.755
946.9570, 2063.310
948.0790, 2326.856
949.2000, 2749.847
950.3220, 3174.445
951.4430, 3555.943
952.5640, 4003.893
953.6840, 4230.245
954.8050, 4512.941
955.9250, 4876.646
957.0460, 4878.106
958.1660, 5047.851
959.2860, 4995.615
960.4050, 4967.402
961.5250, 4831.791
962.6440, 4676.059
963.7640, 4404.920
964.8830, 4107.131
966.0020, 3765.007
967.1210, 3506.924
968.2390, 3186.559
969.3580, 2980.474
970.4760, 2670.433
971.5940, 2384.703
972.7120, 2085.687
973.8300, 1923.681
974.9480, 1665.686
976.0650, 1464.771
977.1830, 1355.799
978.3000, 1245.836
979.4170, 1109.885
980.5340, 996.9453
981.6500, 932.0154
982.7670, 855.0957
983.8830, 808.1858
985.0000, 753.2859
986.1160, 656.3960
987.2320, 659.5154
988.3470, 615.6440
989.4630, 559.8638
990.5780, 575.0107
991.6940, 529.1672
992.8090, 549.3320
993.9240, 566.5063
995.0380, 376.6887
996.1530, 374.8799
997.2680, 319.0796
998.3820, 397.2874
999.4960, 307.5034
1000.610, 342.7637
1001.724, 294.9956
1002.837, 279.2354
1003.951, 294.4824
1005.064, 305.7371
1006.177, 196.9990
1007.291, 205.2686
1008.403, 192.5449
1009.516, 229.8281
1010.629, 136.1187
1011.741, 236.4155
1012.853, 126.7190
1013.965, 180.0298
1015.077, 194.3469
1016.189, 203.6702
1017.300, 157.9995
1018.412, 137.3350
1019.523, 190.6760
1020.634, 127.0286
1021.745, 176.3870
1022.856, 185.7505
1023.966, 178.1194
1025.077, 158.4934
1026.187, 153.8726
1027.297, 120.2563
1028.407, 155.6453
1029.517, 145.0386
1030.627, 124.4365
1031.736, 95.83862
1032.845, 133.2456
1033.955, 53.65601
1035.064, 94.07129
1036.172, 62.49048
1037.281, 100.9131
1038.390, 26.33936
1039.498, 58.76904
1040.606, 33.95703
1041.714, 86.91333
1042.822, 20.35303
1043.930, 15.79517
1045.037, 53.24023
1046.145, 4.312500
1047.252, 60.13550
1048.359, 2.414551
1049.466, 6.964111
1050.573, 19.51538
1051.679, 26.07471
1052.786, 24.35449
1053.892, 55.21069
1054.998, 4.806396
1056.104, 49.40454
1057.210, 51.02563
1058.315, 32.67261
1059.421, 33.33691
1060.526, 45.01978
1061.631, 28.72656
1062.736, 67.45044
1063.841, 16.21094
1064.946, 26.98315
1066.050, 10.77246
1067.154, 77.57104
1068.258, 70.41406
1069.362, 13.29785
1070.466, 55.19336
1071.570, 0.8774410
1072.674, 34.05762
1073.777, 16.01562
1074.880, 76.98853
1075.983, 38.00806
1077.086, 23.94507
1078.189, 15.10278
1079.291, 14.83325
1080.394, 21.76685
1081.496, 4.698486
1082.598, 20.62305
1083.700, 2.455078
1084.802, 8.455566
1085.903, 1.360107
1087.005, 20.25464
1088.106, 23.92871
1089.207, 2.033936
1090.308, 50.91162
1091.409, 43.78564
1092.509, 76.65723
1093.610, 6.525146
1094.710, 10.38379
1095.810, 70.23364
1096.910, 53.91748
1098.010, 16.11035
1099.110, 53.67456
1100.209, 6.455566
1101.309, 46.77466
1102.408, 69.95605
1103.507, 17.68262
1104.606, 75.40161
1105.704, 98.11621
1106.803, 52.82642
1107.901, 28.53223
1108.999, 63.23193
1110.097, 63.92725
1111.195, 99.61792
1112.293, 86.31860
1113.391, 87.98462
1114.488, 64.66626
1115.585, 42.34302
1116.682, 42.01514
1117.779, 39.68164
1118.876, 42.34326
1119.973, 88.99951
1121.069, 33.65063
1122.165, 152.2952
1123.261, 112.9346
1124.357, 136.5686
1125.453, 85.19678
1126.549, 65.81982
1127.644, 132.4375
1128.739, 123.0496
1129.835, 119.6562
1130.930, 90.25781
1132.024, 40.85352
1133.119, 90.44263
1134.214, 89.02612
1135.308, 180.6040
1136.402, 180.1760
1137.496, 164.7419
1138.590, 126.3020
1139.684, 81.85571
1140.777, 108.4038
1141.871, 103.9458
1142.964, 151.4817
1144.057, 94.01147
1145.150, 181.6628
1146.243, 148.1802
1147.335, 159.6909
1148.428, 157.1956
1149.520, 162.6938
1150.612, 151.1858
1151.704, 118.0229
1152.796, 100.5022
1153.887, 119.9749
1154.979, 122.4409
1156.070, 174.8999
1157.161, 193.3530
1158.252, 196.8796
1159.343, 153.2659
1160.433, 177.7124
1161.524, 204.1519
1162.614, 149.5850
1163.704, 169.0110
1164.794, 130.4302
1165.884, 120.8984
1166.974, 140.3040
1168.063, 135.7031
1169.153, 147.0950
1170.242, 105.4802
1171.331, 39.85840
1172.420, 148.2268
1173.508, 195.5886
1174.597, 137.9436
1175.685, 162.2910
1176.774, 158.6318
1177.862, 218.8308
1178.950, 165.1577
1180.037, 147.3816
1181.125, 151.4094
1182.212, 103.7520
1183.300, 112.6875
1184.387, 55.97974
1185.474, 109.1160
1186.560, 111.0876
1187.647, 161.8787
1188.733, 99.13013
1189.820, 122.4092
1190.906, 108.6067
1191.992, 199.0781
1193.078, 218.4631
1194.163, 162.4626
1195.249, 196.5022
1196.334, 146.8723
1197.419, 142.1545
1198.504, 192.3445
1199.589, 221.9419
1200.674, 199.9692
1201.758, 184.4441
1202.843, 211.2302
1203.927, 175.9897
1205.011, 221.7278
1206.095, 174.6875
1207.179, 195.0598
1208.262, 221.2380
1209.345, 270.9128
1210.429, 257.0278
1211.512, 200.2168
1212.595, 226.9587
1213.677, 246.1206
1214.760, 206.4004
1215.842, 225.2390
1216.925, 220.6902
1218.007, 191.8152
1219.089, 227.9619
1220.171, 203.3755
1221.252, 164.5166
1222.334, 247.6548
1223.415, 230.7903
1224.496, 158.3433
1225.577, 242.0461
1226.658, 169.6682
1227.738, 199.4692
1228.819, 260.6172
1229.899, 242.7380
1230.979, 200.1511
1232.060, 187.2996
1233.139, 171.4143
1234.219, 198.2288
1235.299, 251.3403
1236.378, 163.4500
1237.457, 143.5586
1238.536, 217.5959
1239.615, 121.7009
1240.694, 131.8042
1241.772, 135.9062
1242.851, 132.0068
1243.929, 136.4089
1245.007, 159.5063
1246.085, 185.6033
1247.163, 163.0156
1248.240, 133.7964
1249.318, 124.8914
1250.395, 146.9849
1251.472, 137.9954
1252.549, 60.08667
1253.626, 38.17676
1254.703, 78.26587
1255.779, 104.3538
1256.855, 49.44067
1257.931, 83.52661
1259.007, 21.75806
1260.083, 128.8547
1261.159, 55.95093
1262.234, 97.00952
1263.310, 73.10400
1264.385, 105.1978
1265.460, 129.2908
1266.535, 40.38330
1267.610, 161.4749
1268.684, 74.56616
1269.758, 71.65698
1270.833, 32.74756
1271.907, 59.83740
1272.981, 49.92725
1274.054, 2.983398
1275.128, 22.10425
1276.201, 23.19165
1277.275, 67.27881
1278.348, 20.36597
1279.421, 86.45312
1280.493, 26.45972
1281.566, 31.61548
1282.638, 31.69067
1283.711, 3.766602
1284.783, 102.8425
1285.855, 26.91919
1286.927, 97.17725
1287.998, 51.25391
1289.070, 17.33081
1290.141, 39.40796
1291.212, 7.485352
1292.283, 56.56274
1293.354, 37.64062
1294.425, 1.280518
1295.495, 33.79834
1296.566, 5.876953
1297.636, 53.95605
1298.706, 41.45898
1299.776, 3.116455
1300.845, 27.92285
1301.915, 30.00488
1302.984, 10.08740
1304.054, 16.17065
1305.123, 34.25464
1306.191, 5.339355
1307.260, 76.42603
1308.329, 69.51367
1309.397, 3.603271
1310.465, 74.69604
1311.534, 37.79468
1312.602, 33.90137
1313.669, 19.00586
1314.737, 6.424805
1315.804, 11.74316
1316.872, 0.3930660
1317.939, 7.544678
1319.006, 21.70703
1320.073, 12.88037
1321.139, 51.06787
1322.206, 40.26611
1323.272, 57.48486
1324.338, 65.71069
1325.404, 81.94727
1326.470, 78.19092
1327.536, 85.45825
1328.601, 53.74805
1329.667, 74.04565
1330.732, 10.36206
1331.797, 2.316650
1332.862, 127.0178
1333.926, 42.36133
1334.991, 81.73047
1336.055, 59.11182
1337.120, 5.495605
1338.184, 41.88892
1339.248, 25.28516
1340.311, 64.68408
1341.375, 88.08789
1342.438, 52.49487
1343.502, 39.90894
1344.565, 40.31982
1345.628, 46.73755
1346.691, 86.15796
1347.753, 97.58130
1348.816, 71.01099
1349.878, 56.44409
1350.940, 7.879883
1352.002, 1.317139
1353.064, 93.76050
1354.126, 14.79102
1355.187, 68.65796
1356.248, 37.12891
1357.310, 50.61157
1358.371, 37.09717
1359.431, 2.589355
1360.492, 95.10181
1361.553, 59.61743
1362.613, 83.13818
1363.673, 61.66187
1364.733, 43.18848
1365.793, 46.69604
1366.853, 16.20728
1367.912, 96.72168
1368.972, 1.239014
1370.031, 71.75928
1371.090, 29.71729
1372.149, 42.80347
1373.208, 27.48926
1374.267, 51.43994
1375.325, 14.97046
1376.383, 1.504150
1377.441, 53.04126
1378.499, 10.58154
1379.557, 94.12573
1380.615, 41.67334
1381.672, 19.26465
1382.730, 35.81909
1383.787, 46.37720
1384.844, 77.93848
1385.901, 4.527100
1386.957, 45.04077
1388.014, 63.61230
1389.070, 101.1875
1390.126, 24.76636
1391.182, 9.349121
1392.238, 82.93555
1393.294, 15.52563
1394.349, 42.11938
1395.405, 59.71704
1396.460, 101.3188
1397.515, 144.9243
1398.570, 21.53418
1399.625, 90.14795
1400.679, 59.76611
1401.734, 132.2600
1402.788, 34.88623
1403.842, 44.51660
1404.896, 99.15381
1405.950, 51.79395
1407.003, 21.43921
1408.057, 87.73486
1409.110, 71.38013
1410.163, 32.14258
1411.216, 102.7981
1412.269, 86.45801
1413.322, 56.87720
1414.374, 87.72314
1415.427, 37.40771
1416.479, 96.01416
1417.531, 30.63623
1418.583, 50.24902
1419.634, 6.887451
1420.686, 111.6748
1421.737, 75.23975
1422.788, 113.8625
1423.839, 28.25439
1424.890, 101.1475
1425.941, 141.6914
1426.992, 151.3696
1428.042, 38.26636
1429.092, 83.71484
1430.142, 65.62573
1431.192, 44.93433
1432.242, 112.7002
1433.291, 17.47046
1434.341, 83.82983
1435.390, 85.77026
1436.439, 117.1521
1437.488, 84.60498
1438.537, 71.94946
1439.586, 123.1135
1440.634, 139.2749
1441.682, 98.81055
1442.731, 131.7329
1443.779, 34.34302
1444.826, 51.68066
1445.874, 118.5212
1446.922, 81.93042
1447.969, 116.4731
1449.016, 123.9348
1450.063, 8.250000
1451.110, 106.7083
1452.157, 112.5881
1453.203, 23.40845
1454.250, 114.5505
1455.296, 38.48853
1456.342, 22.11548
1457.388, 50.66528
1458.433, 32.39795
1459.479, 165.9685
1460.524, 73.78711
1461.570, 9.024170
1462.615, 166.8489
1463.660, 126.6792
1464.705, 49.51416
1465.749, 151.3540
1466.794, 93.19922
1467.838, 26.05029
1468.882, 117.9067
1469.926, 91.08521
1470.970, 63.93042
1472.013, 84.77856
1473.057, 95.63159
1474.100, 49.49072
1475.143, 59.35449
1476.186, 93.22363
1477.229, 77.87622
1478.272, 51.71826
1479.314, 87.56494
1480.357, 79.41650
1481.399, 103.2725
1482.441, 92.13281
1483.483, 107.9980
1484.525, 120.8691
1485.566, 125.7456
1486.608, 28.62671
1487.649, 75.52173
1488.690, 83.43042
1489.731, 148.3433
1490.771, 105.0176
1491.812, 125.6833
1492.853, 79.72388
1493.893, 95.58252
1494.933, 104.4460
1495.973, 43.31494
1497.013, 25.18677
1498.052, 2.935791
1499.092, 8.138184
1500.131, 19.83496
1501.170, 28.72803
1502.209, 33.62646
1503.248, 100.5283
1504.287, 58.43359
1505.325, 80.35693
1506.363, 9.284180
1507.402, 74.21582
1508.440, 35.15161
1509.478, 22.09204
1510.515, 46.96436
1511.553, 109.9824
1512.590, 90.93188
1513.627, 84.88379
1514.664, 139.8508
1515.701, 58.82080
1516.738, 93.79321
1517.775, 91.76709
1518.811, 51.78247
1519.847, 40.80200
1520.883, 162.8254
1521.919, 39.85571
1522.955, 96.89404
1523.991, 89.93848
1525.026, 39.98804
1526.061, 45.04272
1527.096, 66.10327
1528.131, 78.16748
1529.166, 33.38745
1530.201, 57.62427
1531.235, 47.87842
1532.270, 60.55713
1533.304, 63.22485
1534.338, 11.46606
1535.372, 60.72485
1536.405, 56.83398
1537.439, 107.1240
1538.472, 107.0461
1539.505, 9.854004
1540.538, 86.64258
1541.571, 27.40869
1542.604, 138.1479
1543.637, 25.85254
1544.669, 0.4841310
1545.701, 85.13110
1546.733, 109.6880
1547.765, 61.15723
1548.797, 47.53540
1549.829, 4.885498
1550.860, 59.23096
1551.891, 72.28174
1552.922, 46.44092
1553.953, 56.18799
1554.984, 40.79346
1556.015, 114.5247
1557.045, 35.17529
1558.076, 81.81982
1559.106, 19.42505
1560.136, 86.08472
1561.165, 50.87866
1562.195, 15.85986
1563.225, 46.64746
1564.254, 0.3041990
1565.283, 0.0000000E+00
##END=



