##NAMES=Forsterite
##RRUFFID=R060539
##IDEAL CHEMISTRY=Mg_2_SiO_4_
##LOCALITY=Sri Lanka
##OWNER=RRUFF
##SOURCE=Gemological Institute of America
##DESCRIPTION=Brown cut gemstone
##STATUS=The identification of this mineral has been confirmed by X-ray diffraction and chemical analysis
##URL=rruff.info/R060539
##MEASURED CHEMISTRY=(Mg_1.67_Fe_0.33_)_Î£=2_Si_1.00_O_4_; trace amounts of Mn and Ca
##PIN_ID=L01074
##ORIENTATION=Laser parallel to a* (1 0 0). Fiducial mark perpendicular to laser is parallel to b [0 1 0]
132.4390, 0.0000000E+00
133.6710, 0.1534420
134.9030, 15.70508
136.1350, 16.48334
137.3670, 36.85620
138.5980, 61.87494
139.8290, 25.32721
141.0600, 37.45233
142.2910, 6.420044
143.5220, 26.43982
144.7530, 27.06805
145.9830, 28.99896
147.2130, 2.193665
148.4440, 17.61987
149.6730, 6.746826
150.9030, 56.07581
152.1330, 39.07086
153.3630, 3.778137
154.5920, 35.51373
155.8210, 12.93298
157.0500, 10.46844
158.2790, 4.109680
159.5080, 25.84778
160.7360, 5.674683
161.9650, 17.58307
163.1930, 34.56689
164.4210, 35.62115
165.6490, 33.75073
166.8770, 25.96338
168.1040, 36.25189
169.3320, 49.60840
170.5590, 35.02502
171.7860, 62.49506
173.0130, 64.01294
174.2400, 73.57410
175.4670, 100.1747
176.6930, 62.81195
177.9200, 65.48413
179.1460, 92.18958
180.3720, 75.92639
181.5980, 108.6926
182.8230, 94.48639
184.0490, 129.3059
185.2740, 101.1497
186.5000, 99.01630
187.7250, 87.90430
188.9500, 133.8128
190.1740, 107.7405
191.3990, 110.6864
192.6230, 123.6496
193.8480, 108.6295
195.0720, 81.62952
196.2960, 121.6715
197.5200, 121.8290
198.7430, 165.1259
199.9670, 188.5221
201.1900, 224.9135
202.4130, 251.3005
203.6360, 279.4789
204.8590, 284.0641
206.0820, 328.4382
207.3050, 367.7977
208.5270, 379.1464
209.7490, 446.4867
210.9710, 556.8205
212.1930, 576.1494
213.4150, 637.4747
214.6370, 682.7965
215.8580, 720.1160
217.0790, 713.4342
218.3010, 707.7535
219.5210, 747.0777
220.7420, 689.4116
221.9630, 634.7527
223.1830, 616.1042
224.4040, 637.4656
225.6240, 597.8351
226.8440, 598.2062
228.0640, 554.5793
229.2840, 568.9542
230.5030, 549.3320
231.7230, 520.7114
232.9420, 560.0932
234.1610, 506.4769
235.3800, 485.8187
236.5990, 464.8716
237.8170, 416.6406
239.0360, 386.0328
240.2540, 375.4270
241.4720, 321.8230
242.6900, 261.2208
243.9080, 256.6202
245.1250, 226.0214
246.3430, 206.4242
247.5600, 164.8289
248.7770, 153.2355
249.9940, 152.6441
251.2110, 140.0552
252.4280, 128.4689
253.6450, 114.8854
254.8610, 101.3052
256.0770, 59.80444
257.2930, 101.3220
258.5090, 119.2220
259.7250, 124.9775
260.9400, 76.18097
262.1560, 72.10468
263.3710, 39.58496
264.5860, 79.84613
265.8010, 74.45636
267.0160, 87.74829
268.2310, 95.04474
269.4450, 78.35126
270.6600, 98.66138
271.8740, 71.97638
273.0880, 66.29547
274.3020, 82.61853
275.5150, 88.94550
276.7290, 100.8562
277.9420, 119.6105
279.1550, 129.5897
280.3680, 140.5915
281.5810, 152.6569
282.7940, 189.7590
284.0070, 204.8903
285.2190, 220.0477
286.4310, 261.2292
287.6430, 272.4225
288.8550, 333.6375
290.0670, 399.8690
291.2790, 445.1188
292.4900, 483.3857
293.7020, 553.6683
294.9130, 601.9655
296.1240, 593.1343
297.3350, 676.4579
298.5450, 685.7934
299.7560, 649.0873
300.9660, 599.5150
302.1760, 579.8819
303.3860, 583.2578
304.5960, 579.8634
305.8060, 562.2831
307.0150, 519.1999
308.2250, 606.6305
309.4340, 624.2411
310.6430, 703.9528
311.8520, 768.5102
313.0610, 825.5538
314.2700, 929.1729
315.4780, 969.6918
316.6860, 1021.546
317.8940, 1117.999
319.1020, 1155.475
320.3100, 1207.936
321.5180, 1251.401
322.7250, 1262.869
323.9330, 1256.341
325.1400, 1183.816
326.3470, 1209.367
327.5540, 1161.848
328.7600, 1111.331
329.9670, 1103.817
331.1730, 1006.305
332.3800, 1012.795
333.5860, 947.2869
334.7920, 901.7812
335.9970, 770.2770
337.2030, 692.7747
338.4080, 610.2739
339.6140, 518.7778
340.8190, 423.2796
342.0240, 378.7827
343.2290, 315.2861
344.4330, 257.7896
345.6380, 219.2922
346.8420, 175.7944
348.0460, 175.2960
349.2500, 131.7969
350.4540, 133.2976
351.6580, 97.79810
352.8610, 130.2979
354.0650, 112.7971
355.2680, 77.29712
356.4710, 89.79700
357.6740, 83.30035
358.8760, 79.80579
360.0790, 95.31342
361.2810, 84.82489
362.4840, 90.34052
363.6860, 89.86194
364.8880, 93.39142
366.0900, 89.92273
367.2910, 99.46887
368.4930, 73.02026
369.6940, 63.57117
370.8950, 45.13971
372.0960, 62.71796
373.2970, 55.30157
374.4980, 51.89026
375.6980, 36.48547
376.8980, 0.9130860
378.0990, 7.695068
379.2990, 9.310852
380.4980, 1.060364
381.6980, 12.57019
382.8980, 6.788391
384.0970, 0.1461180
385.2960, 17.49359
386.4950, 38.84259
387.6940, 19.80286
388.8930, 28.54590
390.0920, 19.89166
391.2900, 9.231323
392.4880, 18.57294
393.6860, 44.91406
394.8840, 37.26440
396.0820, 1.610046
397.2800, 27.95099
398.4770, 35.70758
399.6750, 13.36700
400.8720, 48.02948
402.0690, 45.68842
403.2660, 70.34210
404.4620, 113.9867
405.6590, 93.61841
406.8550, 102.2315
408.0510, 93.83820
409.2480, 140.4164
410.4430, 156.9821
411.6390, 246.5449
412.8350, 265.1110
414.0300, 357.6743
415.2250, 462.2357
416.4200, 470.8015
417.6150, 604.3642
418.8100, 718.9238
420.0050, 847.4802
421.1990, 849.0331
422.3940, 980.5829
423.5880, 944.1307
424.7820, 943.6768
425.9750, 933.2208
427.1690, 773.7621
428.3630, 642.3010
429.5560, 609.8370
430.7490, 439.3701
431.9420, 365.9000
433.1350, 314.4267
434.3280, 204.9500
435.5200, 161.4698
436.7130, 117.9859
437.9050, 117.4983
439.0970, 95.00659
440.2890, 77.51160
441.4810, 54.01245
442.6720, 62.50916
443.8640, 15.00165
445.0550, 41.48889
446.2460, 31.97174
447.4370, 7.449829
448.6280, 22.92084
449.8180, 1.386780
451.0090, 24.84265
452.1990, 9.293274
453.3890, 6.649658
454.5790, 13.17200
455.7690, 0.6007080
456.9590, 11.01825
458.1480, 19.42834
459.3380, 4.832336
460.5270, 36.22675
461.7160, 29.61542
462.9050, 41.99805
464.0940, 58.37506
465.2820, 36.74615
466.4700, 42.11133
467.6590, 72.47034
468.8470, 22.82349
470.0350, 59.16968
471.2220, 54.50977
472.4100, 53.84351
473.5970, 72.17114
474.7850, 52.49219
475.9720, 78.80688
477.1590, 44.11523
478.3460, 78.41687
479.5320, 49.71198
480.7190, 69.00049
481.9050, 39.28223
483.0910, 48.55713
484.2770, 70.82520
485.4630, 49.08643
486.6490, 74.34082
487.8340, 69.58826
489.0200, 74.82861
490.2050, 96.06201
491.3900, 70.28833
492.5750, 46.61572
493.7600, 62.91431
494.9440, 86.11914
496.1290, 87.31665
497.3130, 81.79150
498.4970, 65.08325
499.6810, 90.13892
500.8650, 55.85327
502.0480, 116.6157
503.2320, 95.72375
504.4150, 157.8748
505.5980, 91.45020
506.7810, 103.5135
507.9640, 142.2241
509.1460, 152.9563
510.3290, 140.4180
511.5110, 177.6538
512.6930, 179.4839
513.8750, 215.6708
515.0570, 220.1595
516.2390, 244.6419
517.4210, 298.4324
518.6020, 261.1554
519.7830, 331.0610
520.9640, 338.1540
522.1450, 374.5001
523.3260, 440.2565
524.5060, 508.1000
525.6870, 640.6534
526.8670, 724.4439
528.0470, 859.4303
529.2270, 1038.444
530.4070, 1192.108
531.5870, 1472.195
532.7660, 1699.007
533.9450, 1979.908
535.1240, 2169.410
536.3030, 2445.562
537.4820, 2583.078
538.6610, 2576.568
539.8390, 2460.843
541.0180, 2227.321
542.1960, 1963.501
543.3740, 1597.314
544.5520, 1292.116
545.7290, 1017.909
546.9070, 847.0079
548.0840, 739.7744
549.2620, 592.7792
550.4390, 534.5222
551.6160, 434.2939
552.7920, 404.0137
553.9690, 384.9514
555.1450, 327.6478
556.3220, 318.4355
557.4980, 314.6722
558.6740, 309.3333
559.8490, 296.9824
561.0250, 309.5388
562.2000, 326.2454
563.3760, 339.8590
564.5510, 338.4608
565.7260, 365.0509
566.9010, 382.6290
568.0750, 419.1952
569.2500, 464.7496
570.4240, 515.2922
571.5980, 511.8230
572.7720, 565.3416
573.9460, 570.8486
575.1200, 603.3438
576.2930, 588.8269
577.4670, 574.2987
578.6400, 588.7583
579.8130, 562.2063
580.9860, 584.6423
582.1590, 517.0667
583.3310, 551.4792
584.5040, 534.8801
585.6760, 535.1986
586.8480, 489.5762
588.0200, 494.9419
589.1920, 420.0753
590.3630, 407.3911
591.5350, 388.2062
592.7060, 412.5031
593.8770, 353.6154
595.0480, 412.6219
596.2190, 400.7775
597.3900, 377.4414
598.5600, 428.5237
599.7310, 405.7001
600.9010, 431.5348
602.0710, 474.7637
603.2410, 439.9633
604.4100, 441.1702
605.5800, 472.3663
606.7490, 458.5515
607.9190, 442.7258
609.0880, 385.8894
610.2570, 331.9688
611.4250, 327.1108
612.5940, 303.2423
613.7620, 257.3632
614.9310, 255.4734
616.0990, 226.5491
617.2670, 232.6626
618.4340, 195.7415
619.6020, 225.8102
620.7690, 224.8684
621.9370, 162.9163
623.1040, 170.9509
624.2710, 144.9785
625.4380, 113.9960
626.6040, 106.0033
627.7710, 94.00061
628.9370, 75.98804
630.1030, 63.60352
631.2690, 64.93311
632.4350, 43.89099
633.6010, 45.83813
634.7660, 63.77454
635.9320, 69.70154
637.0970, 26.61902
638.2620, 40.52429
639.4270, 5.419434
640.5920, 13.29675
641.7560, 11.15955
642.9210, 3.007446
644.0850, 1.836914
645.2490, 5.352295
646.4130, 13.56372
647.5770, 9.198608
648.7400, 41.05371
649.9040, 5.346313
651.0670, 29.33997
652.2300, 53.98364
653.3930, 24.35352
654.5560, 7.753784
655.7190, 8.175415
656.8810, 13.61829
658.0440, 13.08508
659.2060, 17.57520
660.3680, 20.09009
661.5300, 40.63123
662.6910, 1.209351
663.8530, 33.80261
665.0140, 4.428467
666.1750, 35.06897
667.3360, 7.741699
668.4970, 14.42737
669.6580, 18.12341
670.8190, 38.84204
671.9790, 42.58594
673.1390, 2.358643
674.2990, 22.14172
675.4590, 11.94263
676.6190, 58.74829
677.7790, 23.58533
678.9380, 31.44409
680.0970, 5.321289
681.2570, 17.21130
682.4160, 28.88037
683.5740, 15.96643
684.7330, 14.04712
685.8920, 2.877563
687.0500, 31.18823
688.2080, 18.75098
689.3660, 20.29285
690.5240, 2.331909
691.6820, 11.36536
692.8390, 20.60559
693.9960, 41.40698
695.1540, 2.584717
696.3110, 27.58240
697.4680, 70.40088
698.6240, 50.38049
699.7810, 68.35620
700.9370, 58.32837
702.0940, 17.29688
703.2500, 44.26196
704.4060, 22.22388
705.5610, 62.18274
706.7170, 35.13843
707.8720, 57.09131
709.0280, 48.04126
710.1830, 32.98865
711.3380, 55.93347
712.4920, 106.8760
713.6470, 23.81628
714.8020, 62.75439
715.9560, 88.69055
717.1100, 49.62488
718.2640, 74.55737
719.4180, 71.48828
720.5720, 93.41760
721.7250, 105.3456
722.8780, 78.27234
724.0320, 101.1980
725.1850, 83.12292
726.3380, 73.04700
727.4900, 54.97046
728.6430, 59.06055
729.7950, 95.81812
730.9470, 75.74402
732.1000, 102.6698
733.2510, 124.5964
734.4030, 121.5247
735.5550, 143.4537
736.7060, 128.3866
737.8570, 123.3271
739.0090, 127.2719
740.1600, 125.4896
741.3100, 170.1826
742.4610, 136.1471
743.6110, 183.1134
744.7620, 192.0808
745.9120, 160.0496
747.0620, 196.0225
748.2120, 216.9968
749.3610, 228.9731
750.5110, 237.9535
751.6600, 269.9365
752.8090, 259.9253
753.9580, 270.9176
755.1070, 264.9124
756.2560, 330.9094
757.4050, 328.9089
758.5530, 360.9114
759.7010, 312.9165
760.8490, 385.9246
761.9970, 384.9358
763.1450, 433.9501
764.2920, 434.9678
765.4400, 464.9888
766.5870, 491.3864
767.7340, 521.0415
768.8810, 547.0736
770.0280, 562.1155
771.1740, 604.0532
772.3210, 582.0195
773.4670, 605.0887
774.6130, 587.1664
775.7590, 656.9731
776.9050, 703.9602
778.0510, 727.1804
779.1960, 747.7400
780.3420, 805.2488
781.4870, 846.8376
782.6320, 883.5310
783.7770, 963.2227
784.9210, 1052.428
786.0660, 1120.318
787.2100, 1120.529
788.3540, 1264.353
789.4980, 1285.402
790.6420, 1397.237
791.7860, 1472.969
792.9300, 1665.774
794.0730, 1806.590
795.2160, 1986.101
796.3590, 2133.683
797.5020, 2412.022
798.6450, 2682.243
799.7880, 3034.209
800.9300, 3333.690
802.0720, 3831.162
803.2150, 4274.516
804.3560, 4840.987
805.4980, 5658.211
806.6400, 6529.055
807.7810, 7687.707
808.9230, 9175.102
810.0640, 10878.31
811.2050, 13360.09
812.3460, 16182.67
813.4860, 20002.94
814.6270, 24206.30
815.7670, 29105.92
816.9070, 34328.09
818.0470, 39181.96
819.1870, 43280.11
820.3270, 45318.64
821.4670, 45362.18
822.6060, 42912.74
823.7450, 38885.98
824.8840, 33758.57
826.0230, 29025.90
827.1620, 24797.51
828.3010, 21000.09
829.4390, 18196.73
830.5770, 15759.14
831.7150, 14116.80
832.8530, 12790.38
833.9910, 11796.50
835.1290, 11094.21
836.2660, 10485.92
837.4030, 10351.66
838.5410, 9944.406
839.6780, 10216.17
840.8140, 10428.94
841.9510, 11297.73
843.0870, 12013.53
844.2240, 12973.35
845.3600, 14518.18
846.4960, 16009.03
847.6320, 17736.89
848.7680, 19463.77
849.9030, 20895.65
851.0380, 22051.56
852.1740, 22320.48
853.3090, 22171.42
854.4440, 20714.37
855.5780, 18838.33
856.7130, 16919.32
857.8470, 14704.31
858.9820, 12797.33
860.1160, 10714.35
861.2500, 9242.396
862.3830, 7859.454
863.5170, 6737.527
864.6500, 5840.616
865.7840, 4961.720
866.9170, 4366.841
868.0500, 3655.976
869.1830, 3205.127
870.3150, 2844.295
871.4480, 2532.478
872.5800, 2221.732
873.7120, 1987.655
874.8440, 1774.194
875.9760, 1602.837
877.1080, 1464.535
878.2390, 1345.186
879.3710, 1245.575
880.5020, 1119.885
881.6330, 1039.210
882.7640, 966.0647
883.8940, 831.4211
885.0250, 771.7939
886.1550, 678.5742
887.2850, 603.0493
888.4160, 558.2462
889.5450, 541.9182
890.6750, 460.3700
891.8050, 417.8376
892.9340, 350.3212
894.0630, 330.7549
895.1930, 350.3364
896.3220, 325.8682
897.4500, 339.4160
898.5790, 383.9800
899.7070, 375.5601
900.8360, 359.1564
901.9640, 375.7690
903.0920, 362.3979
904.2200, 403.0432
905.3470, 387.9814
906.4750, 433.6594
907.6020, 494.9653
908.7290, 581.4235
909.8560, 758.8717
910.9830, 856.6801
912.1100, 1060.441
913.2360, 1295.218
914.3630, 1467.016
915.4890, 1601.831
916.6150, 1647.219
917.7410, 1606.074
918.8670, 1461.951
919.9920, 1378.525
921.1180, 1106.114
922.2430, 893.5608
923.3680, 731.6541
924.4930, 587.6498
925.6180, 530.8683
926.7420, 507.9280
927.8670, 403.0010
928.9910, 417.2747
930.1150, 423.3978
931.2390, 426.5344
932.3630, 458.2283
933.4860, 434.3380
934.6100, 521.5491
935.7330, 469.6927
936.8560, 530.9524
937.9790, 587.6963
939.1020, 618.2090
940.2250, 703.5430
941.3470, 786.8970
942.4700, 794.3293
943.5920, 933.8256
944.7140, 1057.773
945.8360, 1202.257
946.9570, 1243.730
948.0790, 1345.225
949.2000, 1510.740
950.3220, 1648.287
951.4430, 1684.758
952.5640, 1936.352
953.6840, 2034.963
954.8050, 2091.782
955.9250, 2062.428
957.0460, 2085.088
958.1660, 2081.761
959.2860, 1988.450
960.4050, 1918.153
961.5250, 1850.876
962.6440, 1710.612
963.7640, 1658.362
964.8830, 1514.125
966.0020, 1414.409
967.1210, 1205.484
968.2390, 1168.294
969.3580, 995.1248
970.4760, 966.9678
971.5940, 803.8242
972.7120, 656.6934
973.8300, 631.5754
974.9480, 564.4702
976.0650, 504.3778
977.1830, 454.4989
978.3000, 339.2310
979.4170, 340.1763
980.5340, 279.1342
981.6500, 230.1045
982.7670, 231.0872
983.8830, 205.0820
985.0000, 164.0890
986.1160, 174.1083
987.2320, 116.1395
988.3470, 144.2573
989.4630, 129.3125
990.5780, 138.3796
991.6940, 110.4584
992.8090, 62.54895
993.9240, 114.6512
995.0380, 98.76489
996.1530, 69.89026
997.2680, 31.02686
998.3820, 57.17480
999.4960, 51.33411
1000.610, 34.50476
1001.724, 24.68665
1002.837, 10.87964
1003.951, 2.245850
1005.064, 13.30090
1006.177, 3.363159
1007.291, 38.12646
1008.403, 22.89185
1009.516, 38.37427
1010.629, 16.41736
1011.741, 37.17554
1012.853, 4.936279
1013.965, 3.312012
1015.077, 26.57031
1016.189, 17.16150
1017.300, 26.11230
1018.412, 12.39600
1019.523, 13.31055
1020.634, 3.011353
1021.745, 21.70386
1022.856, 8.394287
1023.966, 20.92566
1025.077, 12.26025
1026.187, 8.619263
1027.297, 20.15283
1028.407, 21.37317
1029.517, 17.76453
1030.627, 30.16553
1031.736, 10.57629
1032.845, 61.00806
1033.955, 31.44946
1035.064, 49.90430
1036.172, 71.36755
1037.281, 9.839722
1038.390, 26.68005
1039.498, 29.79688
1040.606, 12.71802
1041.714, 50.23035
1042.822, 16.75708
1043.930, 39.28308
1045.037, 29.18030
1046.145, 30.65149
1047.252, 11.13049
1048.359, 67.61743
1049.466, 8.888428
1050.573, 47.60779
1051.679, 15.11121
1052.786, 10.37817
1053.892, 9.866333
1054.998, 25.35400
1056.104, 53.84839
1057.210, 25.64697
1058.315, 18.85107
1059.421, 33.35376
1060.526, 27.13208
1061.631, 17.37598
1062.736, 13.88879
1063.841, 13.40515
1064.946, 22.92493
1066.050, 11.45288
1067.154, 13.01624
1068.258, 10.50928
1069.362, 51.96204
1070.466, 1.561279
1071.570, 3.915771
1072.674, 24.39526
1073.777, 24.87988
1074.880, 9.369263
1075.983, 12.13757
1077.086, 19.64795
1078.189, 10.34961
1079.291, 56.31323
1080.394, 19.79712
1081.496, 36.28540
1082.598, 45.77771
1083.700, 6.726196
1084.802, 27.76514
1085.903, 49.26025
1087.005, 11.24121
1088.106, 88.25000
1089.207, 26.74451
1090.308, 41.24243
1091.409, 53.74341
1092.509, 37.24866
1093.610, 53.01099
1094.710, 32.26819
1095.810, 44.78247
1096.910, 46.29956
1098.010, 3.819336
1099.110, 9.336792
1100.209, 28.85388
1101.309, 50.37366
1102.408, 51.89563
1103.507, 52.41992
1104.606, 90.94653
1105.704, 45.47876
1106.803, 41.01318
1107.901, 111.5504
1108.999, 48.08960
1110.097, 63.63062
1111.195, 58.17346
1112.293, 27.71826
1113.391, 38.26465
1114.488, 62.81262
1115.585, 83.36218
1116.682, 68.91345
1117.779, 80.46619
1118.876, 97.02026
1119.973, 22.57556
1121.069, 35.13147
1122.165, 34.68848
1123.261, 69.24658
1124.357, 112.8057
1125.453, 40.36584
1126.549, 87.92725
1127.644, 61.48950
1128.739, 51.05249
1129.835, 66.61621
1130.930, 36.18079
1132.024, 58.81677
1133.119, 107.3824
1134.214, 98.94873
1135.308, 113.8312
1136.402, 63.39685
1137.496, 25.96423
1138.590, 135.4758
1139.684, 72.69666
1140.777, 106.5940
1141.871, 119.7649
1142.964, 86.89734
1144.057, 75.09229
1145.150, 121.5648
1146.243, 90.13318
1147.335, 132.7048
1148.428, 94.90894
1149.520, 117.4778
1150.612, 55.04663
1151.704, 81.22351
1152.796, 115.7214
1153.887, 128.5212
1154.979, 124.6724
1156.070, 133.3892
1157.161, 112.4775
1158.252, 126.7831
1159.343, 81.68018
1160.433, 117.2468
1161.524, 141.9717
1162.614, 79.65674
1163.704, 110.0829
1164.794, 137.8335
1165.884, 111.4509
1166.974, 143.0151
1168.063, 119.5750
1169.153, 94.13354
1170.242, 168.4141
1171.331, 134.9700
1172.420, 143.0502
1173.508, 147.1306
1174.597, 60.02332
1175.685, 68.50928
1176.774, 133.0614
1177.862, 37.60999
1178.950, 67.19751
1180.037, 66.74341
1181.125, 126.7358
1182.212, 56.27917
1183.300, 65.82129
1184.387, 114.8281
1185.474, 87.74731
1186.560, 127.7805
1187.647, 125.6497
1188.733, 98.18494
1189.820, 72.51245
1190.906, 61.03210
1191.992, 123.5742
1193.078, 83.92554
1194.163, 136.4484
1195.249, 94.97949
1196.334, 70.97534
1197.419, 152.5778
1198.504, 160.1023
1199.589, 158.7224
1200.674, 117.2446
1201.758, 124.3092
1202.843, 160.6406
1203.927, 101.1595
1205.011, 169.6775
1206.095, 112.1379
1207.179, 116.0021
1208.262, 111.1987
1209.345, 106.5201
1210.429, 140.0323
1211.512, 135.5435
1212.595, 137.0645
1213.677, 130.5732
1214.760, 135.4253
1215.842, 128.6857
1216.925, 137.1909
1218.007, 125.5079
1219.089, 106.0109
1220.171, 166.5127
1221.252, 147.0133
1222.334, 118.7411
1223.415, 142.2391
1224.496, 95.73596
1225.577, 135.2632
1226.658, 95.75732
1227.738, 109.2502
1228.819, 119.2395
1229.899, 98.45032
1230.979, 77.93933
1232.060, 113.4315
1233.139, 110.9177
1234.219, 130.4026
1235.299, 113.6661
1236.378, 135.1483
1237.457, 134.7953
1238.536, 130.2747
1239.615, 140.7524
1240.694, 99.22876
1241.772, 55.70361
1242.851, 80.17688
1243.929, 72.64880
1245.007, 112.1190
1246.085, 74.60608
1247.163, 108.0734
1248.240, 78.53906
1249.318, 111.0032
1250.395, 83.42383
1251.472, 42.88489
1252.549, 68.34436
1253.626, 33.80237
1254.703, 90.25879
1255.779, 60.76343
1256.855, 52.21667
1257.931, 46.66833
1259.007, 29.99438
1260.083, 39.56665
1261.159, 19.01343
1262.234, 37.45801
1263.310, 51.90076
1264.385, 6.342041
1265.460, 66.78027
1266.535, 85.21680
1267.610, 27.57471
1268.684, 57.02832
1269.758, 39.46680
1270.833, 73.90698
1271.907, 47.35242
1272.981, 26.79834
1274.054, 58.24915
1275.128, 61.69897
1276.201, 26.14722
1277.275, 13.59375
1278.348, 29.04016
1279.421, 48.48523
1280.493, 33.92871
1281.566, 30.37280
1282.638, 25.81580
1283.711, 4.738892
1284.783, 10.07031
1285.855, 47.87524
1286.927, 3.480835
1287.998, 4.905151
1289.070, 90.28784
1290.141, 12.66907
1291.212, 15.04736
1292.283, 37.57727
1293.354, 10.77234
1294.425, 8.881348
1295.495, 26.45398
1296.566, 36.62756
1297.636, 63.12158
1298.706, 40.45349
1299.776, 52.78979
1300.845, 13.12488
1301.915, 12.46033
1302.984, 9.804443
1304.054, 51.14954
1305.123, 26.50256
1306.191, 42.85388
1307.260, 21.20386
1308.329, 30.55212
1309.397, 58.89880
1310.465, 32.24744
1311.534, 78.59497
1312.602, 11.94141
1313.669, 20.28821
1314.737, 60.63586
1315.804, 32.01196
1316.872, 61.33154
1317.939, 34.67395
1319.006, 66.02063
1320.073, 24.37500
1321.139, 44.72803
1322.206, 51.08533
1323.272, 53.44617
1324.338, 77.81030
1325.404, 65.18030
1326.470, 38.54993
1327.536, 54.91431
1328.601, 73.28162
1329.667, 57.64771
1330.732, 23.01465
1331.797, 62.38159
1332.862, 45.74731
1333.926, 51.11035
1334.991, 0.5277100
1336.055, 6.835815
1337.120, 6.795898
1338.184, 40.57202
1339.248, 61.93835
1340.311, 24.29932
1341.375, 32.65759
1342.438, 44.01453
1343.502, 31.37427
1344.565, 43.73242
1345.628, 44.08911
1346.691, 59.44971
1347.753, 70.80859
1348.816, 60.16614
1349.878, 5.521851
1350.940, 65.87476
1352.002, 42.22644
1353.064, 20.57629
1354.126, 59.92468
1355.187, 84.27136
1356.248, 67.61621
1357.310, 76.96204
1358.371, 62.30762
1359.431, 25.65173
1360.492, 86.99426
1361.553, 82.33496
1362.613, 6.325806
1363.673, 82.00830
1364.733, 8.340698
1365.793, 90.67114
1366.853, 69.00012
1367.912, 58.32800
1368.972, 39.65466
1370.031, 71.98474
1371.090, 89.30945
1372.149, 69.63293
1373.208, 21.95569
1374.267, 99.27710
1375.325, 98.59766
1376.383, 150.9170
1377.441, 19.23560
1378.499, 77.55310
1379.557, 34.86987
1380.615, 63.18579
1381.672, 54.50073
1382.730, 16.81494
1383.787, 61.12817
1384.844, 100.4407
1385.901, 54.75232
1386.957, 108.0634
1388.014, 96.37378
1389.070, 49.61267
1390.126, 75.92188
1391.182, 94.23047
1392.238, 70.53259
1393.294, 32.84021
1394.349, 18.14771
1395.405, 20.44202
1396.460, 75.76184
1397.515, 35.06848
1398.570, 89.38501
1399.625, 83.69092
1400.679, 96.00940
1401.734, 117.3350
1402.788, 104.6204
1403.842, 124.9224
1404.896, 90.07849
1405.950, 57.45178
1407.003, 101.7957
1408.057, 137.1010
1409.110, 103.4066
1410.163, 52.70435
1411.216, 101.1917
1412.269, 91.34985
1413.322, 97.13660
1414.374, 72.70642
1415.427, 90.54114
1416.479, 81.25122
1417.531, 103.3954
1418.583, 88.57922
1419.634, 63.02209
1420.686, 61.14563
1421.737, 53.31531
1422.788, 47.69592
1423.839, 59.15320
1424.890, 56.55725
1425.941, 69.86426
1426.992, 99.17236
1428.042, 24.34460
1429.092, 93.50745
1430.142, 24.61755
1431.192, 58.91724
1432.242, 101.2144
1433.291, 59.52332
1434.341, 56.76526
1435.390, 51.04932
1436.439, 72.48047
1437.488, 25.85632
1438.537, 38.18103
1439.586, 80.30542
1440.634, 17.40601
1441.682, 52.43298
1442.731, 50.30859
1443.779, 60.63452
1444.826, 55.94775
1445.874, 70.27014
1446.922, 106.5906
1447.969, 94.90869
1449.016, 76.22485
1450.063, 35.52002
1451.110, 48.83142
1452.157, 36.43091
1453.203, 38.80859
1454.250, 58.08521
1455.296, 34.37158
1456.342, 43.65515
1457.388, 44.93604
1458.433, 40.21399
1459.479, 63.22253
1460.524, 50.45471
1461.570, 68.72119
1462.615, 86.98474
1463.660, 36.23950
1464.705, 31.49695
1465.749, 77.78540
1466.794, 17.81848
1467.838, 150.0541
1468.882, 56.28650
1469.926, 90.51526
1470.970, 83.71716
1472.013, 76.93884
1473.057, 99.11377
1474.100, 80.32788
1475.143, 40.47009
1476.186, 96.67578
1477.229, 99.87769
1478.272, 79.07605
1479.314, 104.5608
1480.357, 29.46155
1481.399, 86.57190
1482.441, 64.75305
1483.483, 7.929321
1484.525, 56.10059
1485.566, 44.26697
1486.608, 28.42993
1487.649, 60.58667
1488.690, 28.73767
1489.731, 27.90332
1490.771, 64.12695
1491.812, 48.35352
1492.853, 74.57947
1493.893, 12.84570
1494.933, 6.126099
1495.973, 59.40198
1497.013, 11.67456
1498.052, 55.94763
1499.092, 64.22241
1500.131, 69.49463
1501.170, 82.05896
1502.209, 47.02991
1503.248, 68.29211
1504.287, 51.55847
1505.325, 13.86609
1506.363, 18.17126
1507.402, 51.47412
1508.440, 52.77417
1509.478, 56.99316
1510.515, 57.40820
1511.553, 54.73682
1512.590, 48.52319
1513.627, 20.39954
1514.664, 22.73486
1515.701, 20.39331
1516.738, 6.567139
1517.775, 41.80005
1518.811, 29.17126
1519.847, 43.54773
1520.883, 13.93079
1521.919, 28.32068
1522.955, 7.717285
1523.991, 63.12256
1525.026, 7.537720
1526.061, 44.96313
1527.096, 91.39990
1528.131, 36.84924
1529.166, 40.30920
1530.201, 0.2208250
1531.235, 3.241943
1532.270, 50.72913
1533.304, 29.22644
1534.338, 46.73511
1535.372, 40.25684
1536.405, 24.79041
1537.439, 25.33691
1538.472, 23.44421
1539.505, 3.528931
1540.538, 31.05994
1541.571, 24.08887
1542.604, 31.63977
1543.637, 62.20105
1544.669, 13.71289
1545.701, 32.21448
1546.733, 1.200684
1547.765, 26.39209
1548.797, 0.2200930
1549.829, 21.77649
1550.860, 20.32935
1551.891, 76.87402
1552.922, 13.94275
1553.953, 94.30640
1554.984, 93.69434
1556.015, 55.97046
1557.045, 12.19849
1558.076, 36.62256
1559.106, 15.16602
1560.136, 0.4249270
1561.165, 0.7861330
1562.195, 4.569824
1563.225, 4.127075
1564.254, 38.02820
1565.283, 0.0000000E+00
##END=



