##NAMES=Forsterite
##RRUFFID=R060535
##IDEAL CHEMISTRY=Mg_2_SiO_4_
##LOCALITY=unknown
##OWNER=RRUFF
##SOURCE=Gemological Institute of America
##DESCRIPTION=Transparent brown gemstone
##STATUS=The identification of this mineral has been confirmed by X-ray diffraction and chemical analysis
##URL=rruff.info/R060535
##MEASURED CHEMISTRY=(Mg_1.81_Fe_0.18_Ni_0.01_)_Î£=2_Si_1.00_O_4_
##PIN_ID=L00998
##ORIENTATION=Laser parallel to c* (0 0 1). Fiducial mark perpendicular to laser is parallel to a [1 0 0]
225.6240, 0.0000000E+00
226.8440, 6.736450
228.0640, 15.24866
229.2840, 55.78418
230.5030, 12.96387
231.7230, 77.34546
232.9420, 19.46240
234.1610, 102.0597
235.3800, 60.62817
236.5990, 73.97742
237.8170, 67.64233
239.0360, 118.7307
240.2540, 100.3512
241.4720, 42.36816
242.6900, 72.66748
243.9080, 58.96448
245.1250, 34.52563
246.3430, 23.98145
247.5600, 58.24084
248.7770, 34.82544
249.9940, 7.2754003E-02
251.2110, 43.00488
252.4280, 12.76294
253.6450, 6.941895
254.8610, 17.86389
256.0770, 12.73206
257.2930, 63.70947
258.5090, 58.81824
259.7250, 65.10352
260.9400, 1.452148
262.1560, 13.05103
263.3710, 7.677246
264.5860, 23.33691
265.8010, 26.34351
267.0160, 54.43103
268.2310, 30.84595
269.4450, 38.15381
270.6600, 28.33716
271.8740, 82.40430
273.0880, 71.36230
274.3020, 64.21863
275.5150, 103.9800
276.7290, 77.65234
277.9420, 107.2418
279.1550, 99.75464
280.3680, 136.2365
281.5810, 184.6248
282.7940, 218.3680
284.0070, 291.3673
285.2190, 330.2162
286.4310, 475.2545
287.6430, 614.1584
288.8550, 789.8514
290.0670, 1027.247
291.2790, 1254.111
292.4900, 1627.591
293.7020, 1951.208
294.9130, 2276.829
296.1240, 2624.401
297.3350, 3022.397
298.5450, 3335.308
299.7560, 3529.652
300.9660, 3609.687
302.1760, 3431.583
303.3860, 3293.511
304.5960, 2959.919
305.8060, 2620.350
307.0150, 2075.697
308.2250, 1753.909
309.4340, 1450.873
310.6430, 1215.637
311.8520, 1076.356
313.0610, 889.4592
314.2700, 868.5468
315.4780, 878.6263
316.6860, 785.6858
317.8940, 859.7278
319.1020, 824.7581
320.3100, 812.7778
321.5180, 840.7872
322.7250, 824.7905
323.9330, 731.7888
325.1400, 790.7828
326.3470, 656.7729
327.5540, 597.7593
328.7600, 530.7408
329.9670, 422.7164
331.1730, 305.6859
332.3800, 255.7491
333.5860, 210.0601
334.7920, 168.4835
335.9970, 162.2733
337.2030, 158.9675
338.4080, 110.4926
339.6140, 87.98547
340.8190, 99.77917
342.0240, 83.37366
343.2290, 46.06470
344.4330, 49.47949
345.6380, 33.78943
346.8420, 44.39539
348.0460, 4.689819
349.2500, 33.03992
350.4540, 30.33398
351.6580, 58.35815
352.8610, 38.17969
354.0650, 5.999634
355.2680, 28.01489
356.4710, 15.32178
357.6740, 8.634399
358.8760, 40.32019
360.0790, 3.149170
361.2810, 35.30835
362.4840, 14.00708
363.6860, 2.552124
364.8880, 16.15100
366.0900, 3.371826
367.2910, 9.040039
368.4930, 2.353149
369.6940, 6.208618
370.8950, 4.457397
372.0960, 11.17395
373.2970, 7.594849
374.4980, 0.2165530
375.6980, 15.34082
376.8980, 1.011719
378.0990, 3.134521
379.2990, 23.20264
380.4980, 17.15063
381.6980, 36.12671
382.8980, 35.48865
384.0970, 39.15161
385.2960, 29.82043
386.4950, 44.91711
387.6940, 29.16064
388.8930, 31.25403
390.0920, 52.23792
391.2900, 41.94849
392.4880, 64.89551
393.6860, 85.66187
394.8840, 41.79932
396.0820, 58.62500
397.2800, 65.98877
398.4770, 115.7339
399.6750, 117.3250
400.8720, 163.8475
402.0690, 187.7648
403.2660, 247.6560
404.4620, 326.5604
405.6590, 342.6897
406.8550, 472.2119
408.0510, 571.6292
409.2480, 686.2566
410.4430, 768.8955
411.6390, 842.7097
412.8350, 913.3710
414.0300, 957.0791
415.2250, 933.7018
416.4200, 890.6007
417.6150, 864.4556
418.8100, 802.2649
420.0050, 696.2263
421.1990, 580.0657
422.3940, 510.0148
423.5880, 408.9189
424.7820, 395.8608
425.9750, 363.7917
427.1690, 272.7078
428.3630, 256.6072
429.5560, 279.4868
430.7490, 239.3458
431.9420, 223.1802
433.1350, 179.9951
434.3280, 145.7875
435.5200, 116.5468
436.7130, 121.2783
437.9050, 75.98608
439.0970, 88.66101
440.2890, 34.31201
441.4810, 83.94080
442.6720, 22.54395
443.8640, 15.11841
445.0550, 28.66077
446.2460, 39.18066
447.4370, 14.68298
448.6280, 32.16895
449.8180, 30.63892
451.0090, 29.90662
452.1990, 5.477295
453.3890, 7.066040
454.5790, 11.32812
455.7690, 1.291748
456.9590, 11.92493
458.1480, 7.425903
459.3380, 22.76526
460.5270, 18.09375
461.7160, 31.41138
462.9050, 45.71851
464.0940, 6.984497
465.2820, 10.29785
466.4700, 14.56860
467.6590, 29.82861
468.8470, 20.07788
470.0350, 22.79736
471.2220, 17.59802
472.4100, 20.76074
473.5970, 21.96655
474.7850, 36.16150
475.9720, 42.68054
477.1590, 54.51770
478.3460, 61.67761
479.5320, 55.82385
480.7190, 55.95679
481.9050, 22.06616
483.0910, 48.03784
484.2770, 54.03772
485.4630, 84.94092
486.6490, 148.6763
487.8340, 43.41589
489.0200, 53.03088
490.2050, 15.71875
491.3900, 112.9717
492.5750, 65.55176
493.7600, 107.1007
494.9440, 76.80786
496.1290, 29.40967
497.3130, 66.66052
498.4970, 84.16296
499.6810, 39.28625
500.8650, 57.82654
502.0480, 34.41125
503.2320, 84.29028
504.4150, 40.82471
505.5980, 47.01843
506.7810, 70.16846
507.9640, 63.51917
509.1460, 67.37646
510.3290, 73.63086
511.5110, 25.76746
512.6930, 59.44543
513.8750, 54.60095
515.0570, 68.93054
516.2390, 88.10107
517.4210, 93.01831
518.6020, 57.12341
519.7830, 93.12280
520.9640, 100.1542
522.1450, 52.41663
523.3260, 19.17712
524.5060, 41.59106
525.6870, 80.80383
526.8670, 58.46375
528.0470, 97.36414
529.2270, 53.59619
530.4070, 53.85181
531.5870, 29.68994
532.7660, 89.44250
533.9450, 74.96448
535.1240, 97.91052
536.3030, 117.0966
537.4820, 96.05945
538.6610, 166.3960
539.8390, 154.0242
541.0180, 178.9285
542.1960, 143.7699
543.3740, 191.8589
544.5520, 192.3239
545.7290, 190.3163
546.9070, 167.8527
548.0840, 200.3346
549.2620, 197.7786
550.4390, 178.1394
551.6160, 165.5541
552.7920, 140.4426
553.9690, 213.7537
555.1450, 178.5627
556.3220, 238.7549
557.4980, 277.5371
558.6740, 250.8076
559.8490, 252.1224
561.0250, 267.4246
562.2000, 255.0636
563.3760, 259.3398
564.5510, 280.6028
565.7260, 305.3236
566.9010, 369.0564
568.0750, 354.2800
569.2500, 362.4905
570.4240, 395.6880
571.5980, 386.8735
572.7720, 438.0452
573.9460, 516.2043
575.1200, 528.3508
576.2930, 596.4849
577.4670, 587.6066
578.6400, 619.7163
579.8130, 735.7388
580.9860, 786.8030
582.1590, 779.6293
583.3310, 916.6525
584.5040, 1019.375
585.6760, 1082.025
586.8480, 1257.779
588.0200, 1430.574
589.1920, 1545.189
590.3630, 1772.935
591.5350, 2139.666
592.7060, 2481.043
593.8770, 2892.943
595.0480, 3313.731
596.2190, 3818.248
597.3900, 4273.376
598.5600, 4876.825
599.7310, 5245.260
600.9010, 5848.858
602.0710, 6174.409
603.2410, 6351.056
604.4100, 6288.753
605.5800, 6249.448
606.7490, 5889.881
607.9190, 5421.361
609.0880, 5047.960
610.2570, 4387.476
611.4250, 3684.007
612.5940, 3271.487
613.7620, 2808.987
614.9310, 2345.491
616.0990, 1995.073
617.2670, 1694.676
618.4340, 1443.321
619.6020, 1286.989
620.7690, 1149.626
621.9370, 985.2574
623.1040, 862.7180
624.2710, 811.3042
625.4380, 686.9094
626.6040, 608.6211
627.7710, 530.3264
628.9370, 487.8733
630.1030, 410.4567
631.2690, 373.8356
632.4350, 337.5193
633.6010, 302.8497
634.7660, 319.8198
635.9320, 247.4871
637.0970, 250.9531
638.2620, 195.5740
639.4270, 207.2275
640.5920, 199.7397
641.7560, 207.3346
642.9210, 201.8286
644.0850, 143.4763
645.2490, 169.9969
646.4130, 130.5516
647.5770, 163.1935
648.7400, 158.8164
649.9040, 118.4534
651.0670, 104.0875
652.2300, 94.55603
653.3930, 105.1700
654.5560, 96.76453
655.7190, 67.39551
656.8810, 104.0244
658.0440, 60.65210
659.2060, 67.27808
660.3680, 41.90820
661.5300, 55.53735
662.6910, 13.85107
663.8530, 6.398438
665.0140, 3.866577
666.1750, 11.27942
667.3360, 16.70679
668.4970, 21.15100
669.6580, 7.643677
670.8190, 33.14807
671.9790, 14.78577
673.1390, 28.29968
674.2990, 1.835083
675.4590, 21.23718
676.6190, 68.93884
677.7790, 42.54138
678.9380, 47.17175
680.0970, 33.83203
681.2570, 33.51587
682.4160, 22.22229
683.5740, 28.94519
684.7330, 4.687500
685.8920, 63.43665
687.0500, 79.22266
688.2080, 4.946777
689.3660, 62.88550
690.5240, 15.75281
691.6820, 6.630493
692.8390, 64.51379
693.9960, 6.431641
695.1540, 48.35449
696.3110, 7.302368
697.4680, 67.25488
698.6240, 25.75842
699.7810, 13.77271
700.9370, 7.211670
702.0940, 5.800781
703.2500, 26.81482
704.4060, 11.16943
705.5610, 12.15759
706.7170, 22.85059
707.8720, 37.86096
709.0280, 24.87341
710.1830, 2.888550
711.3380, 19.90588
712.4920, 39.92590
713.6470, 18.94873
714.8020, 92.97449
715.9560, 45.00354
717.1100, 103.0359
718.2640, 104.0717
719.4180, 93.11133
720.5720, 55.15491
721.7250, 106.2034
722.8780, 143.2560
724.0320, 153.3142
725.1850, 116.3784
726.3380, 190.4482
727.4900, 161.5236
728.6430, 134.6053
729.7950, 155.6931
730.9470, 232.7869
732.1000, 207.8970
733.2510, 212.0171
734.4030, 206.1481
735.5550, 204.2861
736.7060, 269.4338
737.8570, 249.5940
739.0090, 282.7620
740.1600, 261.9374
741.3100, 254.1204
742.4610, 339.3108
743.6110, 322.5084
744.7620, 385.7180
745.9120, 305.9362
747.0620, 407.1627
748.2120, 446.3973
749.3610, 397.6406
750.5110, 371.8921
751.6600, 391.1523
752.8090, 457.4216
753.9580, 433.6997
755.1070, 422.9863
756.2560, 459.2817
757.4050, 453.5857
758.5530, 493.8981
759.7010, 476.2191
760.8490, 429.5493
761.9970, 456.8890
763.1450, 469.2380
764.2920, 546.5959
765.4400, 535.9631
766.5870, 581.3391
767.7340, 610.7251
768.8810, 678.1204
770.0280, 711.5266
771.1740, 703.9421
772.3210, 837.3674
773.4670, 907.8025
774.6130, 913.2471
775.7590, 972.7026
776.9050, 1038.168
778.0510, 1094.644
779.1960, 1141.130
780.3420, 1145.627
781.4870, 1119.135
782.6320, 1083.654
783.7770, 1071.195
784.9210, 1106.751
786.0660, 1122.332
787.2100, 1154.266
788.3540, 1189.863
789.4980, 1242.183
790.6420, 1271.829
791.7860, 1331.499
792.9300, 1389.198
794.0730, 1502.953
795.2160, 1627.668
796.3590, 1772.443
797.5020, 1905.240
798.6450, 2061.059
799.7880, 2393.904
800.9300, 2559.216
802.0720, 2854.049
803.2150, 3243.093
804.3560, 3661.727
805.4980, 4023.068
806.6400, 4749.172
807.7810, 5548.167
808.9230, 6493.618
810.0640, 7603.260
811.2050, 9181.106
812.3460, 11207.64
813.4860, 13859.03
814.6270, 17012.46
815.7670, 20896.60
816.9070, 25047.48
818.0470, 29301.26
819.1870, 33149.10
820.3270, 36362.71
821.4670, 38534.96
822.6060, 38543.67
823.7450, 37270.86
824.8840, 34163.11
826.0230, 30179.40
827.1620, 25813.79
828.3010, 21724.12
829.4390, 18043.98
830.5770, 15465.44
831.7150, 13296.41
832.8530, 11737.99
833.9910, 10586.00
835.1290, 10091.52
836.2660, 9500.997
837.4030, 9428.494
838.5410, 9460.659
839.6780, 9896.198
840.8140, 10382.76
841.9510, 11398.87
843.0870, 12908.96
844.2240, 14740.58
845.3600, 17268.20
846.4960, 20354.86
847.6320, 24353.53
848.7680, 28432.21
849.9030, 32621.91
851.0380, 36933.63
852.1740, 40296.37
853.3090, 42592.14
854.4440, 43025.91
855.5780, 41898.70
856.7130, 39404.53
857.8470, 35308.35
858.9820, 30498.21
860.1160, 25752.08
861.2500, 21426.97
862.3830, 17643.87
863.5170, 14360.80
864.6500, 12089.74
865.7840, 9882.704
866.9170, 8369.684
868.0500, 7021.680
869.1830, 6042.695
870.3150, 5063.729
871.4480, 4396.781
872.5800, 3911.851
873.7120, 3477.941
874.8440, 3102.048
875.9760, 2716.174
877.1080, 2468.876
878.2390, 2328.480
879.3710, 2081.660
880.5020, 1920.858
881.6330, 1825.074
882.7640, 1637.308
883.8940, 1478.559
885.0250, 1362.829
886.1550, 1138.117
887.2850, 1036.422
888.4160, 836.7454
889.5450, 832.0864
890.6750, 707.4454
891.8050, 661.8218
892.9340, 601.2163
894.0630, 546.6284
895.1930, 445.0582
896.3220, 368.5054
897.4500, 369.9705
898.5790, 333.4529
899.7070, 306.9530
900.8360, 237.4707
901.9640, 231.0059
903.0920, 258.5583
904.2200, 202.1283
905.3470, 266.7155
906.4750, 198.3199
907.6020, 184.9417
908.7290, 191.1997
909.8560, 187.2371
910.9830, 166.9105
912.1100, 152.6008
913.2360, 123.3083
914.3630, 181.0330
915.4890, 163.7744
916.6150, 179.5327
917.7410, 134.3900
918.8670, 150.5735
919.9920, 130.0100
921.1180, 111.0063
922.2430, 131.6837
923.3680, 105.7479
924.4930, 63.75073
925.6180, 79.63965
926.7420, 133.3831
927.8670, 73.50769
928.9910, 130.0647
930.1150, 108.8120
931.2390, 168.4407
932.3630, 172.8801
933.4860, 180.0729
934.6100, 189.2743
935.7330, 213.1711
936.8560, 303.2852
937.9790, 317.8945
939.1020, 374.1439
940.2250, 406.5259
941.3470, 462.2943
942.4700, 602.7708
943.5920, 716.3333
944.7140, 798.5122
945.8360, 926.9224
946.9570, 1073.605
948.0790, 1298.904
949.2000, 1548.597
950.3220, 1759.443
951.4430, 2195.753
952.5640, 2598.087
953.6840, 3037.349
954.8050, 3688.727
955.9250, 4132.341
957.0460, 4727.105
958.1660, 5177.604
959.2860, 5573.421
960.4050, 5916.912
961.5250, 6030.928
962.6440, 6053.457
963.7640, 5806.168
964.8830, 5539.536
966.0020, 5115.371
967.1210, 4659.963
968.2390, 4166.579
969.3580, 3691.206
970.4760, 3175.859
971.5940, 2764.522
972.7120, 2367.192
973.8300, 2058.902
974.9480, 1765.237
976.0650, 1555.115
977.1830, 1404.823
978.3000, 1184.542
979.4170, 1050.268
980.5340, 916.0031
981.6500, 827.8933
982.7670, 728.8159
983.8830, 676.3994
985.0000, 592.1631
986.1160, 555.2007
987.2320, 529.9783
988.3470, 467.7628
989.4630, 409.5538
990.5780, 354.3516
991.6940, 428.1555
992.8090, 349.9658
993.9240, 377.7822
995.0380, 329.6045
996.1530, 354.4329
997.2680, 355.2668
998.3820, 286.1318
999.4960, 292.9772
1000.610, 282.8276
1001.724, 296.6837
1002.837, 316.5448
1003.951, 315.4110
1005.064, 286.2163
1006.177, 269.6750
1007.291, 201.2521
1008.403, 202.1606
1009.516, 157.0502
1010.629, 130.9441
1011.741, 103.8420
1012.853, 102.7441
1013.965, 62.65015
1015.077, 69.24609
1016.189, 110.4736
1017.300, 82.39062
1018.412, 107.3113
1019.523, 136.2351
1020.634, 100.1621
1021.745, 149.0924
1022.856, 151.0256
1023.966, 123.9617
1025.077, 93.90051
1026.187, 145.8419
1027.297, 95.78613
1028.407, 104.7328
1029.517, 81.68164
1030.627, 76.63257
1031.736, 97.58569
1032.845, 127.5406
1033.955, 81.49731
1035.064, 88.45569
1036.172, 96.41553
1037.281, 26.37683
1038.390, 93.33960
1039.498, 75.30334
1040.606, 43.26819
1041.714, 24.23376
1042.822, 70.20032
1043.930, 63.16736
1045.037, 9.135132
1046.145, 83.10339
1047.252, 65.07178
1048.359, 21.04053
1049.466, 67.00916
1050.573, 1.022217
1051.679, 41.05579
1052.786, 11.11157
1053.892, 52.17493
1054.998, 30.26733
1056.104, 19.37781
1057.210, 17.50110
1058.315, 18.36365
1059.421, 43.77271
1060.526, 64.93591
1061.631, 39.13745
1062.736, 41.36401
1063.841, 54.61768
1064.946, 34.90527
1066.050, 30.21692
1067.154, 45.55066
1068.258, 55.91479
1069.362, 58.55420
1070.466, 49.75366
1071.570, 59.22131
1072.674, 28.72827
1073.777, 2.258423
1074.880, 12.79858
1075.983, 45.34937
1077.086, 44.06653
1078.189, 25.51929
1079.291, 29.12830
1080.394, 13.23694
1081.496, 27.59766
1082.598, 56.95483
1083.700, 25.30872
1084.802, 37.15125
1085.903, 17.98584
1087.005, 24.34448
1088.106, 6.327637
1089.207, 8.015625
1090.308, 18.27905
1091.409, 9.568237
1092.509, 30.84851
1093.610, 7.124023
1094.710, 49.38904
1095.810, 16.64905
1096.910, 13.09839
1098.010, 15.13257
1099.110, 41.35510
1100.209, 58.57227
1101.309, 69.78406
1102.408, 37.99023
1103.507, 82.19067
1104.606, 39.38538
1105.704, 8.425049
1106.803, 43.74341
1107.901, 21.90613
1108.999, 92.06042
1110.097, 76.20874
1111.195, 67.35071
1112.293, 39.48657
1113.391, 25.61621
1114.488, 107.7375
1115.585, 80.85266
1116.682, 107.9612
1117.779, 23.06323
1118.876, 88.15576
1119.973, 86.24170
1121.069, 56.32104
1122.165, 139.3937
1123.261, 106.4595
1124.357, 136.5186
1125.453, 82.57068
1126.549, 98.61621
1127.644, 63.65479
1128.739, 70.68640
1129.835, 39.71082
1130.930, 74.72766
1132.024, 71.73755
1133.119, 63.74048
1134.214, 102.7361
1135.308, 73.72449
1136.402, 103.7057
1137.496, 107.6794
1138.590, 32.65088
1139.684, 43.61267
1140.777, 94.56653
1141.871, 71.51294
1142.964, 120.4518
1144.057, 105.3864
1145.150, 96.31335
1146.243, 97.23267
1147.335, 103.1447
1148.428, 77.04871
1149.520, 71.94519
1150.612, 147.8383
1151.704, 129.7266
1152.796, 147.6072
1153.887, 82.48157
1154.979, 185.3531
1156.070, 125.2173
1157.161, 96.07349
1158.252, 167.9329
1159.343, 104.7734
1160.433, 170.6112
1161.524, 126.4409
1162.614, 117.2629
1163.704, 115.0768
1164.794, 116.8827
1165.884, 114.6805
1166.974, 138.4703
1168.063, 85.25220
1169.153, 178.0262
1170.242, 151.7922
1171.331, 147.5500
1172.420, 84.29968
1173.508, 131.0414
1174.597, 81.77490
1175.685, 138.5000
1176.774, 80.21704
1177.862, 123.9260
1178.950, 107.6267
1180.037, 128.3192
1181.125, 132.0033
1182.212, 121.5972
1183.300, 102.8735
1184.387, 113.9053
1185.474, 112.3859
1186.560, 128.1936
1187.647, 115.6229
1188.733, 154.1218
1189.820, 146.7429
1190.906, 104.5177
1191.992, 141.9192
1193.078, 97.89661
1194.163, 110.6914
1195.249, 107.6130
1196.334, 118.7314
1197.419, 70.10461
1198.504, 129.4767
1199.589, 143.1609
1200.674, 103.6431
1201.758, 75.59827
1202.843, 79.96997
1203.927, 87.08594
1205.011, 124.1046
1206.095, 144.3813
1207.179, 124.4971
1208.262, 147.2126
1209.345, 142.5138
1210.429, 136.5593
1211.512, 143.9991
1212.595, 94.49951
1213.677, 108.9956
1214.760, 209.2609
1215.842, 128.1986
1216.925, 115.7775
1218.007, 181.6234
1219.089, 145.8806
1220.171, 152.0055
1221.252, 148.4016
1222.334, 238.5060
1223.415, 159.9647
1224.496, 177.9041
1225.577, 189.3552
1226.658, 94.63245
1227.738, 133.2640
1228.819, 182.4514
1229.899, 167.8882
1230.979, 191.3291
1232.060, 123.7587
1233.139, 208.1853
1234.219, 172.6080
1235.299, 145.1868
1236.378, 175.9673
1237.457, 138.3796
1238.536, 116.6084
1239.615, 126.0140
1240.694, 156.4164
1241.772, 154.8154
1242.851, 128.2185
1243.929, 120.4642
1245.007, 133.8552
1246.085, 137.2429
1247.163, 84.62781
1248.240, 162.7424
1249.318, 97.12122
1250.395, 134.4969
1251.472, 113.8696
1252.549, 97.23950
1253.626, 71.60657
1254.703, 86.97070
1255.779, 45.35767
1256.855, 110.7168
1257.931, 149.0734
1259.007, 39.42700
1260.083, 77.75977
1261.159, 38.11511
1262.234, 101.4680
1263.310, 86.81873
1264.385, 77.16687
1265.460, 89.51270
1266.535, 91.85596
1267.610, 63.29321
1268.684, 56.41809
1269.758, 91.73096
1270.833, 82.06555
1271.907, 61.39844
1272.981, 63.39209
1274.054, 100.7205
1275.128, 11.04675
1276.201, 78.37158
1277.275, 73.69434
1278.348, 51.01501
1279.421, 79.28577
1280.493, 31.27051
1281.566, 61.59961
1282.638, 46.20105
1283.711, 73.70667
1284.783, 100.0592
1285.855, 45.36682
1286.927, 0.6730960
1287.998, 63.97717
1289.070, 68.49292
1290.141, 14.79321
1291.212, 53.09180
1292.283, 56.38843
1293.354, 27.68347
1294.425, 25.97668
1295.495, 26.46130
1296.566, 21.28650
1297.636, 34.89746
1298.706, 28.21680
1299.776, 34.50220
1300.845, 34.78613
1301.915, 31.41174
1302.984, 23.34998
1304.054, 22.62988
1305.123, 41.90833
1306.191, 31.18542
1307.260, 51.46143
1308.329, 32.73633
1309.397, 66.01099
1310.465, 76.28430
1311.534, 47.55762
1312.602, 20.84094
1313.669, 61.12842
1314.737, 48.42896
1315.804, 23.73523
1316.872, 69.04712
1317.939, 24.36462
1319.006, 55.68213
1320.073, 61.01245
1321.139, 33.36145
1322.206, 8.722412
1323.272, 34.09155
1324.338, 25.47729
1325.404, 78.86914
1326.470, 81.27026
1327.536, 56.68591
1328.601, 48.11890
1329.667, 18.43372
1330.732, 7.023071
1331.797, 59.49646
1332.862, 58.98059
1333.926, 20.53125
1334.991, 53.95911
1336.055, 5.535156
1337.120, 43.97021
1338.184, 57.48596
1339.248, 61.01343
1340.311, 34.54077
1341.375, 25.06860
1342.438, 15.40271
1343.502, 10.23022
1344.565, 4.647095
1345.628, 8.819336
1346.691, 16.71313
1347.753, 17.25244
1348.816, 22.01196
1349.878, 38.34656
1350.940, 37.89722
1352.002, 17.44873
1353.064, 32.00378
1354.126, 17.55981
1355.187, 38.11780
1356.248, 56.67786
1357.310, 30.24048
1358.371, 1.799438
1359.431, 41.35901
1360.492, 3.919678
1361.553, 19.47461
1362.613, 3.974609
1363.673, 0.4344480
1364.733, 38.11353
1365.793, 11.66211
1366.853, 62.20374
1367.912, 32.74597
1368.972, 46.28882
1370.031, 3.832153
1371.090, 69.68579
1372.149, 55.23083
1373.208, 65.77625
1374.267, 78.03540
1375.325, 52.86926
1376.383, 76.41833
1377.441, 29.97131
1378.499, 29.52173
1379.557, 15.07288
1380.615, 7.624756
1381.672, 69.17725
1382.730, 1.862183
1383.787, 29.41614
1384.844, 88.97095
1385.901, 39.52661
1386.957, 55.68994
1388.014, 41.24780
1389.070, 91.82886
1390.126, 57.49329
1391.182, 49.05420
1392.238, 20.61584
1393.294, 27.17859
1394.349, 18.25769
1395.405, 46.30200
1396.460, 80.86389
1397.515, 34.54150
1398.570, 51.25903
1399.625, 11.17627
1400.679, 44.38647
1401.734, 40.95032
1402.788, 24.64941
1403.842, 18.21606
1404.896, 15.81775
1405.950, 15.54614
1407.003, 10.98267
1408.057, 10.57996
1409.110, 4.750488
1410.163, 19.26135
1411.216, 4.300903
1412.269, 35.89172
1413.322, 60.52112
1414.374, 34.07666
1415.427, 19.38623
1416.479, 81.14417
1417.531, 16.67566
1418.583, 98.20801
1419.634, 118.7417
1420.686, 38.26965
1421.737, 48.79834
1422.788, 61.36182
1423.839, 4.892212
1424.890, 9.414917
1425.941, 64.95850
1426.992, 58.47900
1428.042, 49.99512
1429.092, 41.56543
1430.142, 27.08142
1431.192, 54.59790
1432.242, 99.11536
1433.291, 57.63159
1434.341, 71.19653
1435.390, 78.91589
1436.439, 69.43323
1437.488, 42.95361
1438.537, 40.47168
1439.586, 137.4039
1440.634, 69.86450
1441.682, 100.8541
1442.731, 128.5448
1443.779, 113.2406
1444.826, 75.94141
1445.874, 141.6472
1446.922, 135.3575
1447.969, 186.0720
1449.016, 116.7755
1450.063, 189.4880
1451.110, 143.0283
1452.157, 153.5208
1453.203, 209.2289
1454.250, 151.9392
1455.296, 178.7834
1456.342, 173.9796
1457.388, 167.2633
1458.433, 146.9646
1459.479, 165.6676
1460.524, 131.3721
1461.570, 106.0781
1462.615, 145.7858
1463.660, 112.4852
1464.705, 74.19531
1465.749, 70.66284
1466.794, 91.37512
1467.838, 97.08936
1468.882, 120.7969
1469.926, 94.51221
1470.970, 118.2297
1472.013, 123.9497
1473.057, 108.6720
1474.100, 126.3967
1475.143, 110.0889
1476.186, 46.81665
1477.229, 102.5374
1478.272, 39.25073
1479.314, 122.9650
1480.357, 97.68115
1481.399, 72.79260
1482.441, 97.49280
1483.483, 69.19580
1484.525, 34.88452
1485.566, 67.57324
1486.608, 42.77600
1487.649, 64.36804
1488.690, 48.64758
1489.731, 46.20337
1490.771, 82.82751
1491.812, 32.42444
1492.853, 54.02173
1493.893, 89.61938
1494.933, 27.21704
1495.973, 5.331909
1497.013, 27.26379
1498.052, 98.85974
1499.092, 49.45557
1500.131, 36.05225
1501.170, 35.64709
1502.209, 27.24048
1503.248, 66.83044
1504.287, 102.4225
1505.325, 61.01477
1506.363, 53.60071
1507.402, 1.179932
1508.440, 98.77148
1509.478, 35.38123
1510.515, 63.98730
1511.553, 25.38953
1512.590, 89.24329
1513.627, 25.87061
1514.664, 6.492310
1515.701, 83.10779
1516.738, 39.72363
1517.775, 43.33264
1518.811, 37.93420
1519.847, 40.52783
1520.883, 37.11279
1521.919, 6.688843
1522.955, 2.255249
1523.991, 71.83191
1525.026, 67.43384
1526.061, 50.04211
1527.096, 5.700195
1528.131, 57.44116
1529.166, 28.21643
1530.201, 21.02893
1531.235, 43.74585
1532.270, 84.54895
1533.304, 88.36182
1534.338, 31.17236
1535.372, 71.00757
1536.405, 32.85632
1537.439, 24.14893
1538.472, 52.00732
1539.505, 58.35046
1540.538, 91.31201
1541.571, 87.06750
1542.604, 85.57764
1543.637, 89.92017
1544.669, 46.87024
1545.701, 67.29248
1546.733, 27.82104
1547.765, 35.89404
1548.797, 40.67236
1549.829, 32.84973
1550.860, 75.69019
1551.891, 44.83630
1552.922, 25.89905
1553.953, 45.23315
1554.984, 66.51208
1556.015, 48.89233
1557.045, 63.75061
1558.076, 31.91113
1559.106, 6.553711
1560.136, 53.22400
1561.165, 51.98633
1562.195, 57.37891
1563.225, 0.4160160
1564.254, 73.40405
1565.283, 0.0000000E+00
##END=



