##NAMES=Forsterite
##RRUFFID=R060535
##IDEAL CHEMISTRY=Mg_2_SiO_4_
##LOCALITY=unknown
##OWNER=RRUFF
##SOURCE=Gemological Institute of America
##DESCRIPTION=Transparent brown gemstone
##STATUS=The identification of this mineral has been confirmed by X-ray diffraction and chemical analysis
##URL=rruff.info/R060535
##MEASURED CHEMISTRY=(Mg_1.81_Fe_0.18_Ni_0.01_)_Î£=2_Si_1.00_O_4_
##PIN_ID=L00998
##ORIENTATION=Laser parallel to c* (0 0 1). Fiducial mark perpendicular to laser is parallel to a [1 0 0]
175.4670, 0.0000000E+00
176.6930, 0.4431150
177.9200, 43.50610
179.1460, 12.93909
180.3720, 72.94922
181.5980, 51.40515
182.8230, 43.58447
184.0490, 116.3793
185.2740, 67.70898
186.5000, 48.18896
187.7250, 61.21460
188.9500, 66.62769
190.1740, 31.34143
191.3990, 37.35718
192.6230, 40.64893
193.8480, 17.18555
195.0720, 18.93713
196.2960, 43.87561
197.5200, 10.02332
198.7430, 67.21912
199.9670, 27.58508
201.1900, 5.9326001E-02
202.4130, 27.63733
203.6360, 1.350586
204.8590, 23.23010
206.0820, 61.26721
207.3050, 43.43384
208.5270, 134.7056
209.7490, 164.0627
210.9710, 269.4886
212.1930, 317.9697
213.4150, 354.4951
214.6370, 478.0564
215.8580, 610.6479
217.0790, 653.2637
218.3010, 777.8999
219.5210, 851.5526
220.7420, 959.2190
221.9630, 960.8964
223.1830, 984.5830
224.4040, 895.2766
225.6240, 834.9764
226.8440, 775.6906
228.0640, 666.4642
229.2840, 632.4026
230.5030, 572.7083
231.7230, 517.3307
232.9420, 473.2065
234.1610, 434.2061
235.3800, 387.6782
236.5990, 352.3201
237.8170, 301.9299
239.0360, 282.6921
240.2540, 235.3877
241.4720, 205.0200
242.6900, 163.5929
243.9080, 133.1095
245.1250, 107.5715
246.3430, 105.9805
247.5600, 56.33813
248.7770, 74.64929
249.9940, 22.92139
251.2110, 4.160645
252.4280, 44.37085
253.6450, 26.55457
254.8610, 30.71399
256.0770, 58.85095
257.2930, 104.9672
258.5090, 89.06372
259.7250, 105.1409
260.9400, 68.19946
262.1560, 58.24158
263.3710, 14.26770
264.5860, 41.27856
265.8010, 85.27490
267.0160, 60.25720
268.2310, 55.22607
269.4450, 63.18262
270.6600, 94.12732
271.8740, 118.0605
273.0880, 99.98267
274.3020, 66.89441
275.5150, 73.82593
276.7290, 71.55762
277.9420, 97.04126
279.1550, 87.03894
280.3680, 136.0706
281.5810, 132.3706
282.7940, 104.8756
284.0070, 90.46948
285.2190, 137.9414
286.4310, 163.6798
287.6430, 152.4237
288.8550, 195.4220
290.0670, 223.3262
291.2790, 271.9495
292.4900, 252.5338
293.7020, 253.2031
294.9130, 325.6919
296.1240, 387.7867
297.3350, 387.8824
298.5450, 482.9785
299.7560, 451.0747
300.9660, 467.1700
302.1760, 546.2639
303.3860, 459.3545
304.5960, 394.4402
305.8060, 394.5192
307.0150, 391.5929
308.2250, 386.6835
309.4340, 429.4958
310.6430, 473.8342
311.8520, 528.9834
313.0610, 623.0120
314.2700, 689.0320
315.4780, 791.0432
316.6860, 943.0459
317.8940, 1061.039
319.1020, 1181.024
320.3100, 1396.000
321.5180, 1522.335
322.7250, 1752.523
323.9330, 1929.867
325.1400, 1922.249
326.3470, 1942.663
327.5540, 1837.101
328.7600, 1788.561
329.9670, 1662.038
331.1730, 1635.532
332.3800, 1571.031
333.5860, 1499.541
334.7920, 1453.063
335.9970, 1386.593
337.2030, 1236.130
338.4080, 1132.674
339.6140, 983.2227
340.8190, 792.7751
342.0240, 707.3301
343.2290, 587.7529
344.4330, 467.3114
345.6380, 418.8706
346.8420, 356.4279
348.0460, 330.9868
349.2500, 311.5444
350.4540, 265.1001
351.6580, 238.6533
352.8610, 226.2039
354.0650, 225.7535
355.2680, 238.3074
356.4710, 215.8606
357.6740, 228.4111
358.8760, 216.9641
360.0790, 198.5206
361.2810, 214.0829
362.4840, 224.6489
363.6860, 148.2153
364.8880, 146.7787
366.0900, 138.3397
367.2910, 150.8972
368.4930, 171.4520
369.6940, 150.0096
370.8950, 139.5692
372.0960, 93.12378
373.2970, 123.6711
374.4980, 84.22668
375.6980, 78.78271
376.8980, 56.34412
378.0990, 73.89966
379.2990, 80.45447
380.4980, 51.00989
381.6980, 12.56433
382.8980, 59.12305
384.0970, 4.322876
385.2960, 24.21704
386.4950, 14.24091
387.6940, 11.70880
388.8930, 5.178589
390.0920, 46.65460
391.2900, 31.15320
392.4880, 2.664429
393.6860, 63.18024
394.8840, 34.71582
396.0820, 11.26831
397.2800, 14.83167
398.4770, 44.39972
399.6750, 17.99664
400.8720, 20.61353
402.0690, 25.24390
403.2660, 12.89734
404.4620, 8.571411
405.6590, 1.261047
406.8550, 3.031250
408.0510, 22.30688
409.2480, 18.56860
410.4430, 32.81622
411.6390, 78.05164
412.8350, 67.27557
414.0300, 126.4878
415.2250, 135.6890
416.4200, 137.8793
417.6150, 172.0587
418.8100, 173.2273
420.0050, 171.3844
421.1990, 201.5294
422.3940, 192.6625
423.5880, 227.7792
424.7820, 212.8751
425.9750, 253.9445
427.1690, 258.9816
428.3630, 281.9653
429.5560, 249.9000
430.7490, 269.7931
431.9420, 268.6401
433.1350, 178.4487
434.3280, 199.2188
435.5200, 160.9601
436.7130, 119.6817
437.9050, 114.3876
439.0970, 123.0830
440.2890, 125.7698
441.4810, 110.4479
442.6720, 135.1170
443.8640, 120.7772
445.0550, 96.42859
446.2460, 141.0704
447.4370, 154.7032
448.6280, 142.3270
449.8180, 146.9417
451.0090, 162.5471
452.1990, 190.1434
453.3890, 149.7302
454.5790, 182.3078
455.7690, 164.8756
456.9590, 201.4342
458.1480, 232.9836
459.3380, 237.5237
460.5270, 263.0544
461.7160, 249.5759
462.9050, 291.0881
464.0940, 234.5909
465.2820, 322.0829
466.4700, 297.5648
467.6590, 323.0358
468.8470, 340.4955
470.0350, 361.9441
471.2220, 350.3810
472.4100, 373.8063
473.5970, 359.2197
474.7850, 416.6212
475.9720, 415.0105
477.1590, 425.3877
478.3460, 441.7528
479.5320, 458.1055
480.7190, 485.4456
481.9050, 476.7733
483.0910, 502.0886
484.2770, 569.3909
485.4630, 517.6807
486.6490, 568.9585
487.8340, 613.2231
489.0200, 583.4749
490.2050, 564.7139
491.3900, 585.9399
492.5750, 593.1531
493.7600, 593.3879
494.9440, 611.7080
496.1290, 589.4834
497.3130, 600.2540
498.4970, 604.4049
499.6810, 617.0046
500.8650, 584.7544
502.0480, 630.8079
503.2320, 653.4800
504.4150, 590.6172
505.5980, 588.0818
506.7810, 615.7234
507.9640, 599.5013
509.1460, 600.0659
510.3290, 603.8245
511.5110, 612.3416
512.6930, 626.9954
513.8750, 650.0569
515.0570, 655.0349
516.2390, 691.6021
517.4210, 698.8306
518.6020, 755.4781
519.7830, 771.7087
520.9640, 816.3934
522.1450, 851.2952
523.3260, 914.7617
524.5060, 1019.472
525.6870, 1068.912
526.8670, 1145.134
528.0470, 1294.098
529.2270, 1453.186
530.4070, 1616.182
531.5870, 1804.076
532.7660, 2024.978
533.9450, 2243.228
535.1240, 2493.324
536.3030, 2723.804
537.4820, 2993.874
538.6610, 3256.412
539.8390, 3435.354
541.0180, 3454.787
542.1960, 3294.135
543.3740, 2947.885
544.5520, 2582.541
545.7290, 2088.819
546.9070, 1759.074
548.0840, 1450.017
549.2620, 1302.192
550.4390, 1027.987
551.6160, 938.6731
552.7920, 870.7212
553.9690, 806.0017
555.1450, 743.2192
556.3220, 742.6060
557.4980, 682.9771
558.6740, 695.3330
559.8490, 654.6731
561.0250, 630.9979
562.2000, 630.3074
563.3760, 647.6014
564.5510, 616.8802
565.7260, 632.1440
566.9010, 593.3926
568.0750, 570.6262
569.2500, 543.8451
570.4240, 511.0494
571.5980, 527.2394
572.7720, 493.4152
573.9460, 517.5770
575.1200, 502.7251
576.2930, 487.8594
577.4670, 389.9806
578.6400, 414.0867
579.8130, 445.1565
580.9860, 370.2377
582.1590, 401.3059
583.3310, 398.3173
584.5040, 437.3594
585.6760, 434.3866
586.8480, 406.2983
588.0200, 449.3015
589.1920, 421.2920
590.3630, 404.2699
591.5350, 487.2351
592.7060, 453.1877
593.8770, 426.1277
595.0480, 466.0552
596.2190, 456.9702
597.3900, 443.8732
598.5600, 493.7637
599.7310, 535.6421
600.9010, 525.5083
602.0710, 569.3625
603.2410, 532.2047
604.4100, 546.0349
605.5800, 551.8535
606.7490, 576.6600
607.9190, 563.4547
609.0880, 585.2382
610.2570, 501.0099
611.4250, 524.7703
612.5940, 455.5194
613.7620, 465.2570
614.9310, 425.9835
616.0990, 431.6990
617.2670, 403.5203
618.4340, 364.4799
619.6020, 350.7794
620.7690, 284.4513
621.9370, 255.1125
623.1040, 225.7634
624.2710, 180.4037
625.4380, 176.0337
626.6040, 161.6533
627.7710, 134.6660
628.9370, 120.3306
630.1030, 98.45227
631.2690, 79.03223
632.4350, 68.60242
633.6010, 56.16284
634.7660, 36.71350
635.9320, 15.25317
637.0970, 7.222534
638.2620, 9.275391
639.4270, 16.75623
640.5920, 5.777100
641.7560, 11.33459
642.9210, 21.91895
644.0850, 14.14026
645.2490, 4.179199
646.4130, 9.155151
647.5770, 5.474854
648.7400, 8.778564
649.9040, 4.068359
651.0670, 17.65759
652.2300, 15.41040
653.3930, 10.81152
654.5560, 31.02234
655.7190, 44.77417
656.8810, 24.60999
658.0440, 48.47388
659.2060, 12.37781
660.3680, 35.30176
661.5300, 39.25781
662.6910, 35.24768
663.8530, 63.26807
665.0140, 20.33130
666.1750, 6.416260
667.3360, 51.50903
668.4970, 32.63770
669.6580, 61.78430
670.8190, 38.96411
671.9790, 18.16650
673.1390, 41.36890
674.2990, 43.58704
675.4590, 47.82874
676.6190, 30.07959
677.7790, 31.33740
678.9380, 58.60840
680.0970, 13.09509
681.2570, 6.186768
682.4160, 33.46460
683.5740, 2.751709
684.7330, 9.969604
685.8920, 17.30151
687.0500, 30.42554
688.2080, 20.15759
689.3660, 35.89368
690.5240, 31.63123
691.6820, 4.629272
692.8390, 56.10913
693.9960, 29.84717
695.1540, 43.58496
696.3110, 68.32251
697.4680, 37.05933
698.6240, 64.79602
699.7810, 87.53271
700.9370, 135.2695
702.0940, 147.0067
703.2500, 148.7445
704.4060, 163.4828
705.5610, 194.2219
706.7170, 203.9622
707.8720, 210.7034
709.0280, 242.4460
710.1830, 260.1901
711.3380, 246.9358
712.4920, 327.6833
713.6470, 316.4330
714.8020, 352.1847
715.9560, 398.9387
717.1100, 415.6951
718.2640, 429.4541
719.4180, 487.2161
720.5720, 550.9810
721.7250, 579.7488
722.8780, 640.5200
724.0320, 676.2950
725.1850, 762.0734
726.3380, 855.8560
727.4900, 918.6425
728.6430, 948.4329
729.7950, 1003.228
730.9470, 1064.026
732.1000, 1195.830
733.2510, 1214.638
734.4030, 1319.451
735.5550, 1374.269
736.7060, 1535.093
737.8570, 1618.921
739.0090, 1704.755
740.1600, 1922.594
741.3100, 2038.440
742.4610, 2340.291
743.6110, 2519.149
744.7620, 2660.012
745.9120, 2949.882
747.0620, 3143.759
748.2120, 3280.643
749.3610, 3518.532
750.5110, 3563.430
751.6600, 3586.334
752.8090, 3568.245
753.9580, 3433.165
755.1070, 3334.091
756.2560, 3137.025
757.4050, 2947.967
758.5530, 2695.917
759.7010, 2470.876
760.8490, 2234.842
761.9970, 1992.817
763.1450, 1753.800
764.2920, 1593.792
765.4400, 1465.794
766.5870, 1257.811
767.7340, 1212.836
768.8810, 1081.871
770.0280, 1029.915
771.1740, 1052.969
772.3210, 1041.998
773.4670, 990.9419
774.6130, 978.4270
775.7590, 981.7146
776.9050, 1025.026
778.0510, 1046.685
779.1960, 962.1920
780.3420, 993.4003
781.4870, 967.9893
782.6320, 917.1177
783.7770, 898.9166
784.9210, 935.5410
786.0660, 956.0288
787.2100, 920.7351
788.3540, 972.2532
789.4980, 997.5068
790.6420, 1073.887
791.7860, 1112.900
792.9300, 1190.228
794.0730, 1290.968
795.2160, 1384.028
796.3590, 1540.644
797.5020, 1713.581
798.6450, 1875.143
799.7880, 2067.516
800.9300, 2353.204
802.0720, 2568.202
803.2150, 2927.958
804.3560, 3310.660
805.4980, 3906.592
806.6400, 4451.771
807.7810, 5284.191
808.9230, 6196.113
810.0640, 7438.408
811.2050, 8950.312
812.3460, 10962.15
813.4860, 13591.78
814.6270, 17136.60
815.7670, 20911.40
816.9070, 25661.56
818.0470, 30528.36
819.1870, 35749.91
820.3270, 39953.86
821.4670, 42893.62
822.6060, 42633.51
823.7450, 40263.70
824.8840, 36170.64
826.0230, 31278.60
827.1620, 26163.60
828.3010, 21707.62
829.4390, 17765.56
830.5770, 15003.65
831.7150, 12566.76
832.8530, 10753.91
833.9910, 9516.081
835.1290, 8548.288
836.2660, 7953.514
837.4030, 7294.762
838.5410, 7040.028
839.6780, 6791.315
840.8140, 6769.626
841.9510, 6848.957
843.0870, 7256.306
844.2240, 7619.676
845.3600, 8513.065
846.4960, 9540.476
847.6320, 10976.91
848.7680, 12450.36
849.9030, 14204.83
851.0380, 15720.32
852.1740, 17106.83
853.3090, 18048.37
854.4440, 17865.92
855.5780, 17091.49
856.7130, 15704.08
857.8470, 13759.70
858.9820, 11822.33
860.1160, 9811.988
861.2500, 8209.664
862.3830, 6771.360
863.5170, 5737.078
864.6500, 4708.815
865.7840, 4105.574
866.9170, 3478.351
868.0500, 2993.150
869.1830, 2429.970
870.3150, 2163.811
871.4480, 1765.672
872.5800, 1640.553
873.7120, 1362.456
874.8440, 1312.379
875.9760, 1120.322
877.1080, 975.2988
878.2390, 836.3096
879.3710, 818.3154
880.5020, 652.3420
881.6330, 635.3894
882.7640, 618.4573
883.8940, 501.5459
885.0250, 456.6550
886.1550, 425.7849
887.2850, 348.0521
888.4160, 364.1062
889.5450, 263.2976
890.6750, 227.5099
891.8050, 230.7427
892.9340, 206.9958
894.0630, 185.2697
895.1930, 135.5636
896.3220, 117.8782
897.4500, 100.2134
898.5790, 104.5687
899.7070, 103.9700
900.8360, 99.36621
901.9640, 111.0239
903.0920, 85.46069
904.2200, 87.82263
905.3470, 95.39465
906.4750, 85.89185
907.6020, 100.4091
908.7290, 127.5946
909.8560, 83.15283
910.9830, 152.1372
912.1100, 259.4839
913.2360, 226.2686
914.3630, 323.9242
915.4890, 394.3832
916.6150, 394.3296
917.7410, 467.6094
918.8670, 424.3807
919.9920, 387.0425
921.1180, 316.1819
922.2430, 236.4360
923.3680, 305.0908
924.4930, 196.2063
925.6180, 129.2512
926.7420, 173.8982
927.8670, 147.3552
928.9910, 163.8365
930.1150, 147.3760
931.2390, 212.8048
932.3630, 191.1288
933.4860, 245.4774
934.6100, 287.1777
935.7330, 300.7527
936.8560, 365.8058
937.9790, 332.4629
939.1020, 473.7169
940.2250, 521.9924
941.3470, 577.3005
942.4700, 710.6853
943.5920, 785.1655
944.7140, 925.9492
945.8360, 981.7891
946.9570, 1208.238
948.0790, 1380.097
949.2000, 1513.682
950.3220, 1747.438
951.4430, 1993.089
952.5640, 2233.242
953.6840, 2509.729
954.8050, 2894.306
955.9250, 3088.673
957.0460, 3363.329
958.1660, 3692.677
959.2860, 3913.446
960.4050, 3940.461
961.5250, 3919.177
962.6440, 3868.824
963.7640, 3586.589
964.8830, 3361.665
966.0020, 3028.735
967.1210, 2669.055
968.2390, 2319.935
969.3580, 1983.939
970.4760, 1701.348
971.5940, 1431.183
972.7120, 1179.097
973.8300, 958.9448
974.9480, 909.4346
976.0650, 766.3043
977.1830, 647.1847
978.3000, 505.0757
979.4170, 409.9768
980.5340, 359.8882
981.6500, 326.8143
982.7670, 282.7468
983.8830, 245.8389
985.0000, 204.6385
986.1160, 190.5986
987.2320, 126.5682
988.3470, 131.5472
989.4630, 169.5352
990.5780, 200.5320
991.6940, 108.5377
992.8090, 59.63562
993.9240, 103.6588
995.0380, 66.69031
996.1530, 87.72998
997.2680, 83.77783
998.3820, 118.8337
999.4960, 130.8975
1000.610, 128.9690
1001.724, 130.0481
1002.837, 158.1346
1003.951, 80.22876
1005.064, 27.32996
1006.177, 49.43823
1007.291, 88.55347
1008.403, 55.67554
1009.516, 8.804199
1010.629, 6.0424998E-02
1011.741, 1.917236
1012.853, 39.26624
1013.965, 8.419434
1015.077, 22.57983
1016.189, 29.74475
1017.300, 37.91528
1018.412, 30.09143
1019.523, 31.27295
1020.634, 50.45959
1021.745, 13.65161
1022.856, 51.84851
1023.966, 46.05017
1025.077, 6.256470
1026.187, 31.46753
1027.297, 62.68286
1028.407, 58.90234
1029.517, 47.12598
1030.627, 57.35352
1031.736, 13.58496
1032.845, 1.179932
1033.955, 22.05811
1035.064, 34.70032
1036.172, 19.53247
1037.281, 45.76843
1038.390, 6.007324
1039.498, 3.249023
1040.606, 20.49316
1041.714, 19.26001
1042.822, 25.98254
1043.930, 12.77271
1045.037, 19.53052
1046.145, 5.293823
1047.252, 28.94250
1048.359, 36.81873
1049.466, 6.595215
1050.573, 31.37329
1051.679, 8.835083
1052.786, 17.95557
1053.892, 6.754150
1054.998, 26.55627
1056.104, 32.37134
1057.210, 39.20142
1058.315, 36.88074
1059.421, 29.00269
1060.526, 24.79956
1061.631, 6.695923
1062.736, 6.598389
1063.841, 3.507080
1064.946, 0.4212650
1066.050, 34.34009
1067.154, 5.280273
1068.258, 19.22815
1069.362, 42.19055
1070.466, 1.180176
1071.570, 43.17114
1072.674, 18.80945
1073.777, 15.78979
1074.880, 26.22705
1075.983, 10.26453
1077.086, 2.684937
1078.189, 2.626709
1079.291, 19.56067
1080.394, 4.491699
1081.496, 13.42114
1082.598, 9.350220
1083.700, 14.27271
1084.802, 3.189697
1085.903, 23.90320
1087.005, 3.979248
1088.106, 1.851074
1089.207, 26.71106
1090.308, 12.43359
1091.409, 20.40259
1092.509, 13.23376
1093.610, 31.94092
1094.710, 30.14685
1095.810, 15.38330
1096.910, 19.64331
1098.010, 18.89331
1099.110, 22.24133
1100.209, 14.58154
1101.309, 15.94604
1102.408, 11.66431
1103.507, 34.26306
1104.606, 29.85559
1105.704, 38.44092
1106.803, 13.02002
1107.901, 58.58691
1108.999, 91.14734
1110.097, 50.70129
1111.195, 66.24878
1112.293, 57.85181
1113.391, 41.32654
1114.488, 42.85632
1115.585, 59.37915
1116.682, 55.89539
1117.779, 64.40479
1118.876, 93.90710
1119.973, 78.40222
1121.069, 78.89038
1122.165, 103.3712
1123.261, 80.84485
1124.357, 41.31128
1125.453, 99.76892
1126.549, 107.2197
1127.644, 103.6630
1128.739, 55.09851
1129.835, 74.52625
1130.930, 102.9463
1132.024, 121.3584
1133.119, 127.7705
1134.214, 101.1755
1135.308, 64.57251
1136.402, 67.96448
1137.496, 121.3484
1138.590, 80.72412
1139.684, 96.09180
1140.777, 61.45093
1141.871, 139.8018
1142.964, 59.13245
1144.057, 55.44067
1145.150, 108.7659
1146.243, 61.08228
1147.335, 74.39062
1148.428, 98.69043
1149.520, 127.9822
1150.612, 126.2650
1151.704, 143.1622
1152.796, 143.9230
1153.887, 140.0681
1154.979, 134.3184
1156.070, 139.4805
1157.161, 129.5535
1158.252, 148.0144
1159.343, 129.2283
1160.433, 132.4329
1161.524, 162.6283
1162.614, 133.8145
1163.704, 145.9913
1164.794, 146.1337
1165.884, 141.2919
1166.974, 144.1996
1168.063, 151.3391
1169.153, 160.5093
1170.242, 146.5900
1171.331, 167.7014
1172.420, 165.8032
1173.508, 123.2476
1174.597, 121.3304
1175.685, 124.0007
1176.774, 106.1377
1177.862, 96.23083
1178.950, 100.4609
1180.037, 124.7206
1181.125, 128.5120
1182.212, 156.9917
1183.300, 148.9994
1184.387, 158.1333
1185.474, 122.8029
1186.560, 133.3715
1187.647, 95.76831
1188.733, 137.5016
1189.820, 171.2062
1190.906, 143.4453
1191.992, 127.8859
1193.078, 155.3116
1194.163, 153.7046
1195.249, 172.2279
1196.334, 138.8898
1197.419, 175.5353
1198.504, 177.8508
1199.589, 197.4120
1200.674, 141.4373
1201.758, 170.1245
1202.843, 165.0687
1203.927, 128.3577
1205.011, 191.4263
1206.095, 171.3616
1207.179, 168.1547
1208.262, 234.5789
1209.345, 197.9617
1210.429, 180.8999
1211.512, 218.7496
1212.595, 221.4912
1213.677, 199.0765
1214.760, 277.7438
1215.842, 203.9724
1216.925, 217.4563
1218.007, 214.6125
1219.089, 275.6183
1220.171, 227.3805
1221.252, 257.5935
1222.334, 228.5337
1223.415, 254.4360
1224.496, 227.2018
1225.577, 269.0710
1226.658, 272.7388
1227.738, 264.0918
1228.819, 259.4561
1229.899, 273.5092
1230.979, 215.1694
1232.060, 279.6775
1233.139, 259.7701
1234.219, 211.3964
1235.299, 213.9492
1236.378, 199.5721
1237.457, 258.5583
1238.536, 245.1694
1239.615, 241.7744
1240.694, 280.3735
1241.772, 277.9666
1242.851, 226.0822
1243.929, 240.6589
1245.007, 230.2334
1246.085, 204.8663
1247.163, 250.4307
1248.240, 159.0029
1249.318, 173.5557
1250.395, 206.1028
1251.472, 235.6443
1252.549, 228.2040
1253.626, 281.7344
1254.703, 233.1759
1255.779, 227.8003
1256.855, 175.3141
1257.931, 221.8226
1259.007, 178.3257
1260.083, 180.8234
1261.159, 205.3157
1262.234, 229.6134
1263.310, 213.2903
1264.385, 165.7668
1265.460, 221.9062
1266.535, 184.4336
1267.610, 142.8945
1268.684, 219.3502
1269.758, 110.8030
1270.833, 195.2484
1271.907, 166.7383
1272.981, 209.1720
1274.054, 186.5664
1275.128, 140.0038
1276.201, 164.5514
1277.275, 181.0050
1278.348, 167.5618
1279.421, 214.9688
1280.493, 150.8214
1281.566, 228.3175
1282.638, 143.7738
1283.711, 177.1624
1284.783, 131.5466
1285.855, 141.9264
1286.927, 126.3019
1287.998, 150.6730
1289.070, 176.0399
1290.141, 133.4026
1291.212, 105.7614
1292.283, 145.1406
1293.354, 105.4911
1294.425, 133.8380
1295.495, 141.1809
1296.566, 122.5261
1297.636, 99.86731
1298.706, 78.20520
1299.776, 87.53979
1300.845, 41.87097
1301.915, 49.19861
1302.984, 120.5298
1304.054, 59.85754
1305.123, 59.18445
1306.191, 39.51196
1307.260, 7.837646
1308.329, 51.15942
1309.397, 47.48669
1310.465, 60.81213
1311.534, 96.14270
1312.602, 80.46973
1313.669, 87.79785
1314.737, 85.12402
1315.804, 4.451782
1316.872, 80.78320
1317.939, 7.881958
1319.006, 34.45618
1320.073, 90.79968
1321.139, 57.14795
1322.206, 28.49597
1323.272, 63.83862
1324.338, 26.17871
1325.404, 55.51135
1326.470, 42.85156
1327.536, 10.19189
1328.601, 23.15906
1329.667, 15.13367
1330.732, 10.20325
1331.797, 2.449219
1332.862, 15.10706
1333.926, 4.223145
1334.991, 10.55884
1336.055, 43.89746
1337.120, 52.23621
1338.184, 4.574951
1339.248, 19.08911
1340.311, 12.75928
1341.375, 16.56482
1342.438, 56.88831
1343.502, 16.20752
1344.565, 46.52783
1345.628, 66.85620
1346.691, 42.18579
1347.753, 16.51721
1348.816, 0.8469240
1349.878, 2.030762
1350.940, 5.358887
1352.002, 9.842773
1353.064, 6.172852
1354.126, 22.51233
1355.187, 26.85461
1356.248, 33.20569
1357.310, 44.56543
1358.371, 17.93457
1359.431, 10.31140
1360.492, 13.69507
1361.553, 25.07910
1362.613, 28.66602
1363.673, 79.83533
1364.733, 48.21143
1365.793, 65.58911
1366.853, 73.96545
1367.912, 46.34033
1368.972, 36.71387
1370.031, 6.913818
1371.090, 60.45459
1372.149, 65.82190
1373.208, 9.188110
1374.267, 42.55249
1375.325, 20.91577
1376.383, 76.27747
1377.441, 45.63806
1378.499, 87.99719
1379.557, 18.35498
1380.615, 42.71155
1381.672, 33.06702
1382.730, 3.421631
1383.787, 28.77478
1384.844, 92.12708
1385.901, 43.47852
1386.957, 32.82959
1388.014, 43.18005
1389.070, 28.47009
1390.126, 2.128296
1391.182, 33.21228
1392.238, 10.44763
1393.294, 8.889160
1394.349, 30.22546
1395.405, 75.56152
1396.460, 22.89746
1397.515, 25.23328
1398.570, 11.56921
1399.625, 36.90527
1400.679, 31.24194
1401.734, 20.57910
1402.788, 8.2886003E-02
1403.842, 14.31628
1404.896, 1.054810
1405.950, 39.93335
1407.003, 7.726196
1408.057, 2.613159
1409.110, 7.953369
1410.163, 50.32422
1411.216, 62.72900
1412.269, 64.27686
1413.322, 51.42053
1414.374, 59.76941
1415.427, 58.14465
1416.479, 56.49805
1417.531, 44.87207
1418.583, 17.23108
1419.634, 63.59314
1420.686, 60.95825
1421.737, 42.32715
1422.788, 106.7000
1423.839, 74.07678
1424.890, 65.53955
1425.941, 57.02502
1426.992, 51.41296
1428.042, 35.80615
1429.092, 63.01904
1430.142, 124.4225
1431.192, 117.9012
1432.242, 64.31787
1433.291, 118.8062
1434.341, 59.27539
1435.390, 140.7026
1436.439, 35.06201
1437.488, 59.67468
1438.537, 110.9546
1439.586, 83.26257
1440.634, 81.43555
1441.682, 151.2590
1442.731, 158.5090
1443.779, 112.0812
1444.826, 157.5436
1445.874, 153.0074
1446.922, 132.4646
1447.969, 130.8291
1449.016, 130.1338
1450.063, 131.2223
1451.110, 146.7683
1452.157, 158.1172
1453.203, 186.4009
1454.250, 221.0781
1455.296, 222.4507
1456.342, 189.8232
1457.388, 167.2430
1458.433, 206.4183
1459.479, 194.8757
1460.524, 210.0840
1461.570, 219.8586
1462.615, 191.8923
1463.660, 215.1945
1464.705, 199.5477
1465.749, 162.9569
1466.794, 172.3660
1467.838, 213.7750
1468.882, 198.5093
1469.926, 229.9114
1470.970, 203.2312
1472.013, 173.6147
1473.057, 183.0161
1474.100, 163.2190
1475.143, 194.6443
1476.186, 171.0449
1477.229, 184.4460
1478.272, 226.2869
1479.314, 265.3794
1480.357, 275.6908
1481.399, 234.0461
1482.441, 261.3979
1483.483, 287.6786
1484.525, 273.0151
1485.566, 297.1138
1486.608, 274.2358
1487.649, 271.7126
1488.690, 300.9441
1489.731, 292.2739
1490.771, 275.6022
1491.812, 326.9286
1492.853, 329.2112
1493.893, 331.5328
1494.933, 282.8521
1495.973, 272.1681
1497.013, 367.4785
1498.052, 304.7788
1499.092, 348.0679
1500.131, 266.3501
1501.170, 244.6255
1502.209, 276.8938
1503.248, 269.1570
1504.287, 285.4231
1505.325, 275.6985
1506.363, 241.9745
1507.402, 188.2435
1508.440, 208.5366
1509.478, 252.8579
1510.515, 172.2043
1511.553, 231.5754
1512.590, 204.9463
1513.627, 225.3400
1514.664, 211.7340
1515.701, 146.1289
1516.738, 182.5225
1517.775, 128.9215
1518.811, 167.3276
1519.847, 108.7339
1520.883, 138.1410
1521.919, 108.5483
1522.955, 94.02173
1523.991, 87.53027
1525.026, 130.0459
1526.061, 111.5729
1527.096, 88.13037
1528.131, 147.7139
1529.166, 55.30945
1530.201, 42.91968
1531.235, 85.54504
1532.270, 103.1876
1533.304, 98.84985
1534.338, 16.53503
1535.372, 9.246094
1536.405, 30.98535
1537.439, 32.75549
1538.472, 84.55627
1539.505, 20.38794
1540.538, 92.25159
1541.571, 23.15063
1542.604, 91.08948
1543.637, 43.07251
1544.669, 59.10425
1545.701, 80.18384
1546.733, 80.31494
1547.765, 56.50049
1548.797, 13.74597
1549.829, 11.05786
1550.860, 64.69434
1551.891, 48.10522
1552.922, 8.634033
1553.953, 82.73987
1554.984, 24.37402
1556.015, 70.10437
1557.045, 28.93799
1558.076, 8.995239
1559.106, 89.72192
1560.136, 72.80408
1561.165, 0.7962650
1562.195, 40.86218
1563.225, 11.70032
1564.254, 2.079712
1565.283, 0.0000000E+00
##END=



