##NAMES=Forsterite
##RRUFFID=R050117
##IDEAL CHEMISTRY=Mg_2_SiO_4_
##LOCALITY=Sapat, Gilgit, Pakistan
##OWNER=RRUFF
##SOURCE=Farooq and Nazia Sawal
##DESCRIPTION=Fragment of a green crystal
##STATUS=The identification of this mineral has been confirmed by X-ray diffraction and chemical analysis
##URL=rruff.info/R050117
##MEASURED CHEMISTRY=(Mg_1.81_Fe_0.18_Ni_0.01_)_Î£=2_Si_1.00_O_4_
##PIN_ID=M00435
##ORIENTATION=Laser parallel to a* (1 0 0). Fiducial mark perpendicular to laser is parallel to -b [0 -1 0]
46.644, 0.000
48.046, 2.516
49.448, 46.655
50.850, 123.542
52.251, 139.583
53.653, 292.052
55.054, 618.382
56.454, 720.817
57.855, 927.161
59.255, 1178.347
60.655, 1365.981
62.055, 1431.870
63.454, 1524.334
64.854, 1484.938
66.253, 1452.573
67.652, 1273.070
69.050, 1260.635
70.449, 1256.102
71.847, 1328.533
73.245, 1522.364
74.643, 1407.639
76.040, 1271.068
77.438, 1031.055
78.835, 746.726
80.232, 559.834
81.628, 360.422
83.025, 353.768
84.421, 210.634
85.817, 154.815
87.213, 115.034
88.608, 88.380
90.003, 64.996
91.398, 99.600
92.793, 89.759
94.188, 108.693
95.582, 30.185
96.976, 19.912
98.370, 53.064
99.764, 22.856
101.157, 11.191
102.550, 107.310
103.943, 43.001
105.336, 21.900
106.729, 105.220
108.121, 259.766
109.513, 430.682
110.905, 319.708
112.297, 258.618
113.688, 119.446
115.079, 176.680
116.470, 115.115
117.861, 130.465
119.251, 100.770
120.642, 95.189
122.032, 125.044
123.422, 74.589
124.811, 94.685
126.201, 78.078
127.590, 116.916
128.979, 65.642
130.367, 100.271
131.756, 117.187
133.144, 90.268
134.532, 71.672
135.920, 69.361
137.307, 73.297
138.695, 125.447
140.082, 112.775
141.469, 74.248
142.856, 155.832
144.242, 129.494
145.628, 72.194
147.014, 112.709
148.400, 55.784
149.786, 68.314
151.171, 112.312
152.556, 102.099
153.941, 216.786
155.325, 153.037
156.710, 289.649
158.094, 91.503
159.478, 35.189
160.862, 54.477
162.245, 47.568
163.629, 21.427
165.012, 29.676
166.395, 35.362
167.777, 51.070
169.160, 69.633
170.542, 66.056
171.924, 64.908
173.306, 27.502
174.687, 38.533
176.068, 14.441
177.449, 9.764
178.830, 6.922
180.211, 4.499
181.591, 16.041
182.972, 38.687
184.351, 30.427
185.731, 44.256
187.111, 50.195
188.490, 29.247
189.869, 15.414
191.248, 47.680
192.626, 37.040
194.005, 23.501
195.383, 27.076
196.761, 4.236
198.139, 18.583
199.516, 29.719
200.893, 22.747
202.271, 20.581
203.647, 37.182
205.024, 31.703
206.400, 20.448
207.777, 81.395
209.152, 87.495
210.528, 150.478
211.904, 157.560
213.279, 268.539
214.654, 311.371
216.029, 479.998
217.403, 606.208
218.778, 713.996
220.152, 883.393
221.526, 974.402
222.900, 1030.087
224.273, 1047.342
225.646, 990.208
227.019, 999.637
228.392, 885.708
229.765, 855.392
231.137, 802.661
232.509, 804.492
233.881, 780.814
235.253, 829.656
236.625, 820.037
237.996, 732.024
239.367, 724.382
240.738, 653.183
242.108, 623.221
243.479, 560.790
244.849, 496.135
246.219, 449.224
247.589, 439.731
248.958, 414.891
250.328, 401.128
251.697, 369.801
253.065, 355.863
254.434, 320.395
255.803, 353.424
257.171, 324.509
258.539, 363.274
259.906, 298.974
261.274, 323.543
262.641, 305.659
264.008, 320.198
265.375, 337.645
266.742, 309.962
268.108, 341.842
269.475, 306.584
270.840, 302.745
272.206, 314.814
273.572, 324.633
274.937, 329.032
276.302, 314.820
277.667, 312.171
279.032, 339.563
280.396, 356.161
281.760, 364.950
283.125, 358.581
284.488, 422.660
285.852, 470.413
287.215, 498.373
288.578, 595.523
289.941, 585.916
291.304, 724.053
292.666, 852.780
294.029, 1082.891
295.391, 1359.517
296.753, 1787.221
298.114, 2339.603
299.476, 2787.840
300.837, 3330.109
302.198, 3337.336
303.558, 3282.149
304.919, 2829.867
306.279, 2240.139
307.639, 1795.144
308.999, 1403.840
310.359, 1160.045
311.718, 1015.713
313.077, 912.465
314.436, 871.450
315.795, 844.848
317.154, 833.123
318.512, 856.163
319.870, 896.916
321.228, 953.281
322.586, 1032.386
323.943, 1121.783
325.300, 1106.474
326.657, 1101.891
328.014, 966.871
329.371, 860.993
330.727, 754.242
332.083, 703.044
333.439, 686.104
334.795, 616.822
336.150, 640.549
337.506, 602.677
338.861, 593.970
340.215, 528.788
341.570, 471.314
342.924, 449.030
344.279, 364.686
345.633, 332.950
346.986, 337.057
348.340, 274.382
349.693, 295.906
351.046, 273.117
352.399, 298.604
353.752, 284.011
355.104, 281.309
356.457, 290.297
357.809, 289.149
359.160, 272.160
360.512, 267.417
361.863, 233.587
363.214, 217.685
364.565, 200.658
365.916, 174.680
367.267, 166.835
368.617, 142.909
369.967, 150.953
371.317, 157.505
372.666, 141.098
374.016, 118.086
375.365, 130.094
376.714, 83.482
378.063, 82.961
379.411, 103.061
380.760, 117.287
382.108, 118.434
383.456, 115.508
384.803, 95.505
386.151, 97.737
387.498, 89.287
388.845, 88.074
390.192, 67.790
391.539, 61.438
392.885, 60.834
394.231, 56.531
395.577, 64.981
396.923, 69.368
398.269, 77.696
399.614, 61.966
400.959, 97.179
402.304, 86.340
403.649, 158.449
404.993, 207.512
406.337, 230.531
407.681, 277.361
409.025, 351.957
410.369, 410.479
411.712, 500.864
413.055, 684.161
414.398, 767.302
415.741, 803.360
417.084, 864.251
418.426, 784.262
419.768, 730.135
421.110, 686.153
422.452, 585.886
423.793, 602.713
425.134, 600.459
426.475, 653.257
427.816, 774.143
429.157, 836.911
430.497, 1005.873
431.837, 1161.713
433.177, 1415.536
434.517, 1547.402
435.857, 1655.295
437.196, 1560.193
438.535, 1373.020
439.874, 1153.824
441.213, 917.739
442.551, 669.717
443.889, 553.730
445.227, 413.716
446.565, 318.974
447.903, 260.385
449.240, 206.788
450.577, 153.186
451.914, 127.580
453.251, 95.968
454.588, 64.349
455.924, 53.724
457.260, 78.092
458.596, 74.452
459.932, 45.805
461.267, 26.152
462.602, 48.492
463.938, 40.826
465.272, 31.151
466.607, 25.467
467.941, 34.777
469.276, 49.077
470.610, 17.369
471.943, 6.654
473.277, 54.930
474.610, 36.203
475.944, 42.470
477.276, 41.731
478.609, 43.985
479.942, 16.230
481.274, 23.465
482.606, 24.690
483.938, 0.909
485.270, 4.124
486.601, 38.335
487.932, 10.544
489.263, 22.751
490.594, 16.957
491.925, 14.840
493.255, 16.637
494.585, 0.719
495.915, 2.398
497.245, 5.047
498.575, 12.567
499.904, 9.320
501.233, 19.381
502.562, 6.092
503.891, 7.509
505.219, 7.232
506.548, 11.358
507.876, 31.385
509.203, 24.505
510.531, 15.876
511.859, 33.359
513.186, 30.939
514.513, 57.695
515.840, 61.898
517.166, 66.290
518.493, 67.424
519.819, 67.031
521.145, 86.063
522.470, 76.656
523.796, 86.325
525.121, 67.447
526.446, 86.521
527.771, 95.455
529.096, 65.113
530.421, 85.989
531.745, 95.454
533.069, 119.272
534.393, 113.040
535.716, 142.392
537.040, 178.973
538.363, 216.872
539.686, 253.050
541.009, 281.767
542.331, 268.333
543.654, 244.051
544.976, 208.779
546.298, 151.545
547.620, 138.133
548.941, 97.715
550.263, 125.212
551.584, 86.681
552.905, 79.147
554.225, 92.596
555.546, 78.080
556.866, 99.583
558.186, 102.122
559.506, 153.596
560.826, 149.219
562.145, 174.798
563.465, 189.681
564.784, 207.752
566.103, 225.816
567.421, 265.876
568.740, 346.931
570.058, 410.983
571.376, 479.031
572.694, 582.077
574.011, 721.120
575.329, 894.161
576.646, 1118.202
577.963, 1340.241
579.279, 1664.279
580.596, 1958.315
581.912, 2215.351
583.228, 2463.385
584.544, 2354.420
585.860, 2300.454
587.175, 2060.488
588.491, 1813.520
589.806, 1658.552
591.121, 1452.583
592.435, 1376.613
593.750, 1316.643
595.064, 1353.671
596.378, 1501.699
597.692, 1687.726
599.006, 1940.753
600.319, 2239.778
601.632, 2454.803
602.945, 2875.827
604.258, 2900.849
605.571, 3013.870
606.883, 2921.887
608.195, 2673.902
609.507, 2402.914
610.819, 2103.886
612.131, 1839.731
613.442, 1497.449
614.753, 1286.127
616.064, 1109.911
617.375, 837.686
618.685, 748.346
619.995, 648.928
621.306, 577.609
622.615, 456.263
623.925, 391.882
625.235, 351.483
626.544, 275.127
627.853, 313.837
629.162, 256.420
630.471, 193.963
631.779, 191.714
633.087, 148.392
634.395, 127.102
635.703, 129.815
637.011, 75.542
638.318, 79.160
639.625, 67.813
640.932, 62.478
642.239, 52.044
643.546, 39.635
644.852, 69.374
646.158, 44.004
647.464, 23.691
648.770, 45.359
650.076, 8.717
651.381, 3.041
652.686, 7.350
653.991, 17.774
655.296, 19.154
656.600, 23.515
657.905, 28.903
659.209, 19.268
660.513, 37.814
661.817, 23.411
663.120, 34.877
664.423, 40.598
665.726, 50.012
667.029, 17.488
668.332, 38.009
669.635, 54.482
670.937, 24.002
672.239, 48.425
673.541, 33.862
674.842, 11.303
676.144, 37.746
677.445, 28.216
678.746, 22.623
680.047, 6.083
681.348, 4.495
682.648, 2.999
683.948, 6.586
685.248, 11.805
686.548, 6.694
687.848, 6.712
689.147, 27.889
690.447, 5.493
691.746, 6.901
693.044, 19.703
694.343, 1.690
695.641, 6.083
696.940, 37.523
698.238, 12.868
699.535, 5.737
700.833, 2.344
702.130, 38.046
703.427, 8.548
704.724, 24.147
706.021, 14.750
707.318, 29.358
708.614, 44.970
709.910, 23.588
711.206, 20.211
712.502, 43.839
713.798, 50.472
715.093, 36.110
716.388, 18.753
717.683, 57.401
718.978, 84.054
720.272, 70.711
721.567, 71.371
722.861, 77.913
724.155, 78.642
725.448, 86.368
726.742, 90.041
728.035, 108.717
729.328, 107.287
730.621, 151.078
731.914, 139.765
733.206, 144.454
734.499, 176.148
735.791, 170.846
737.083, 171.547
738.374, 157.252
739.666, 181.961
740.957, 178.674
742.248, 226.391
743.539, 198.113
744.830, 220.838
746.120, 240.567
747.410, 229.301
748.701, 243.039
749.990, 266.782
751.280, 259.529
752.570, 308.280
753.859, 269.036
755.148, 297.797
756.437, 327.563
757.725, 321.335
759.014, 372.117
760.302, 370.903
761.590, 376.703
762.878, 370.507
764.166, 380.317
765.453, 430.136
766.740, 418.960
768.027, 448.800
769.314, 459.652
770.601, 465.511
771.887, 529.385
773.174, 503.266
774.460, 573.162
775.745, 606.069
777.031, 604.992
778.316, 644.927
779.602, 645.877
780.887, 731.838
782.172, 704.816
783.456, 767.801
784.741, 805.801
786.025, 781.813
787.309, 869.832
788.593, 929.868
789.876, 951.911
791.160, 1054.966
792.443, 1113.041
793.726, 1210.133
795.009, 1280.236
796.291, 1355.347
797.574, 1546.469
798.856, 1639.601
800.138, 1826.741
801.420, 2053.889
802.702, 2121.046
803.983, 2502.210
805.264, 2733.380
806.545, 3185.397
807.826, 3689.893
809.107, 4209.832
810.387, 5123.701
811.667, 5860.344
812.947, 7053.686
814.227, 8947.578
815.507, 10954.420
816.786, 14382.116
818.065, 18319.156
819.344, 23345.885
820.623, 28852.070
821.902, 31610.150
823.180, 32607.066
824.459, 29813.041
825.737, 25520.811
827.014, 21837.160
828.292, 17434.387
829.569, 14892.890
830.847, 12729.923
832.124, 11197.533
833.401, 10375.477
834.677, 9474.294
835.954, 9203.607
837.230, 9312.878
838.506, 9472.272
839.782, 10020.865
841.057, 10620.290
842.333, 11869.166
843.608, 13318.638
844.883, 15368.076
846.158, 18536.992
847.433, 22056.488
848.707, 28505.689
849.981, 35374.691
851.255, 42194.223
852.529, 51202.918
853.803, 55592.465
855.076, 57041.918
856.350, 55089.359
857.623, 47388.945
858.895, 40458.539
860.168, 33308.145
861.441, 26117.777
862.713, 21717.410
863.985, 17447.051
865.257, 14576.704
866.528, 12346.367
867.800, 10336.046
869.071, 9145.734
870.342, 8079.433
871.613, 7454.142
872.884, 7167.863
874.154, 6904.596
875.425, 7231.339
876.695, 7797.094
877.965, 8663.861
879.234, 9993.639
880.504, 10133.424
881.773, 10223.226
883.042, 8853.037
884.311, 7139.859
885.580, 5814.693
886.848, 4325.553
888.117, 3637.410
889.385, 3014.277
890.653, 2449.156
891.920, 2250.046
893.188, 1860.947
894.455, 1740.860
895.722, 1586.784
896.989, 1423.719
898.256, 1381.665
899.523, 1242.623
900.789, 1201.592
902.055, 1157.573
903.321, 1015.565
904.587, 1017.568
905.852, 952.582
907.118, 929.713
908.383, 941.750
909.648, 937.010
910.913, 976.984
912.177, 1049.055
913.442, 1171.070
914.706, 1396.162
915.970, 1648.265
917.233, 1930.273
918.497, 1992.398
919.760, 1741.634
921.024, 1460.076
922.287, 1127.234
923.550, 935.474
924.812, 761.652
926.075, 657.700
927.337, 610.742
928.599, 516.775
929.861, 473.243
931.122, 475.143
932.384, 389.988
933.645, 392.549
934.906, 398.807
936.167, 333.562
937.428, 404.757
938.688, 412.074
939.948, 356.451
941.208, 403.757
942.468, 350.040
943.728, 401.250
944.987, 395.672
946.247, 406.627
947.506, 408.060
948.765, 406.840
950.023, 457.751
951.282, 403.126
952.540, 385.630
953.798, 448.064
955.056, 410.464
956.314, 436.880
957.572, 431.357
958.829, 395.784
960.086, 412.650
961.343, 365.102
962.600, 354.568
963.856, 353.049
965.113, 332.564
966.369, 280.076
967.625, 277.607
968.881, 240.152
970.136, 231.148
971.392, 231.730
972.647, 198.333
973.902, 171.951
975.157, 141.586
976.411, 147.243
977.666, 100.916
978.920, 133.609
980.174, 86.320
981.428, 108.043
982.682, 94.785
983.935, 60.546
985.188, 81.320
986.441, 90.104
987.694, 66.896
988.947, 108.698
990.199, 54.508
991.452, 79.333
992.704, 78.165
993.956, 49.007
995.207, 79.857
996.459, 42.714
997.710, 63.580
998.961, 90.454
1000.212, 69.336
1001.463, 63.228
1002.714, 57.126
1003.964, 29.034
1005.214, 50.956
1006.464, 50.886
1007.714, 25.833
1008.964, 61.787
1010.213, 35.746
1011.462, 24.716
1012.711, 46.695
1013.960, 13.683
1015.209, 36.679
1016.457, 48.681
1017.705, 41.689
1018.954, 43.704
1020.201, 28.725
1021.449, 27.568
1022.697, 31.785
1023.944, 23.823
1025.191, 27.063
1026.438, 25.343
1027.685, 26.993
1028.931, 27.061
1030.177, 25.137
1031.423, 33.221
1032.669, 27.309
1033.915, 13.402
1035.161, 57.499
1036.406, 0.399
1037.651, 29.706
1038.896, 41.816
1040.141, 30.930
1041.386, 38.048
1042.630, 27.170
1043.874, 46.296
1045.118, 38.426
1046.362, 9.559
1047.606, 76.697
1048.849, 23.837
1050.092, 36.981
1051.336, 50.129
1052.578, 29.280
1053.821, 14.434
1055.064, 17.591
1056.306, 3.249
1057.548, 26.912
1058.790, 4.925
1060.032, 17.761
1061.273, 16.397
1062.515, 35.443
1063.756, 11.702
1064.997, 25.851
1066.237, 15.997
1067.478, 15.150
1068.718, 36.702
1069.959, 22.571
1071.199, 10.551
1072.438, 35.326
1073.678, 7.780
1074.918, 31.112
1076.157, 13.018
1077.396, 29.931
1078.635, 19.859
1079.873, 26.797
1081.112, 7.748
1082.350, 36.704
1083.588, 15.320
1084.826, 22.654
1086.064, 12.641
1087.301, 5.364
1088.539, 31.630
1089.776, 11.357
1091.013, 12.655
1092.250, 43.675
1093.486, 30.720
1094.723, 5.783
1095.959, 5.148
1097.195, 1.921
1098.431, 3.995
1099.666, 26.926
1100.902, 4.848
1102.137, 8.769
1103.372, 54.690
1104.607, 12.610
1105.842, 8.531
1107.076, 30.451
1108.311, 0.628
1109.545, 41.287
1110.779, 30.203
1112.012, 23.119
1113.246, 14.035
1114.479, 41.970
1115.712, 28.885
1116.945, 49.799
1118.178, 0.713
1119.411, 32.633
1120.643, 30.543
1121.875, 38.495
1123.108, 54.402
1124.339, 24.308
1125.571, 54.379
1126.802, 43.284
1128.034, 27.238
1129.265, 69.485
1130.496, 70.536
1131.727, 21.544
1132.957, 67.015
1134.187, 54.943
1135.418, 87.894
1136.648, 56.257
1137.877, 69.372
1139.107, 82.076
1140.336, 38.967
1141.566, 47.885
1142.795, 97.032
1144.023, 92.898
1145.252, 76.797
1146.480, 109.857
1147.709, 72.762
1148.937, 110.730
1150.165, 108.620
1151.392, 80.536
1152.620, 85.079
1153.847, 114.120
1155.074, 97.171
1156.301, 96.328
1157.528, 90.190
1158.755, 109.982
1159.981, 114.659
1161.207, 83.387
1162.433, 118.469
1163.659, 98.677
1164.885, 103.655
1166.110, 133.850
1167.336, 109.698
1168.561, 107.635
1169.786, 66.785
1171.010, 86.724
1172.235, 105.125
1173.459, 61.312
1174.683, 109.128
1175.907, 75.114
1177.131, 104.865
1178.355, 109.173
1179.578, 56.931
1180.801, 118.803
1182.024, 68.568
1183.247, 86.310
1184.470, 102.086
1185.692, 115.850
1186.915, 58.615
1188.137, 98.391
1189.359, 65.152
1190.580, 55.916
1191.802, 60.642
1193.023, 66.383
1194.244, 115.072
1195.465, 91.744
1196.686, 119.561
1197.907, 87.220
1199.127, 92.873
1200.347, 121.568
1201.567, 114.227
1202.787, 97.888
1204.007, 98.409
1205.226, 122.076
1206.446, 112.483
1207.665, 129.175
1208.884, 126.776
1210.102, 113.437
1211.321, 129.360
1212.539, 144.306
1213.758, 165.987
1214.976, 139.555
1216.193, 114.017
1217.411, 148.278
1218.628, 165.828
1219.846, 122.299
1221.063, 146.836
1222.280, 140.623
1223.496, 172.303
1224.713, 134.047
1225.929, 140.430
1227.145, 175.264
1228.361, 156.179
1229.577, 136.360
1230.793, 183.846
1232.008, 139.840
1233.223, 147.427
1234.438, 125.865
1235.653, 122.246
1236.868, 137.703
1238.082, 83.188
1239.297, 108.752
1240.511, 144.108
1241.725, 77.936
1242.938, 102.292
1244.152, 76.305
1245.365, 78.230
1246.578, 118.806
1247.791, 87.139
1249.004, 72.585
1250.217, 88.010
1251.429, 66.415
1252.642, 73.039
1253.854, 54.442
1255.066, 64.457
1256.277, 61.973
1257.489, 43.435
1258.700, 34.830
1259.911, 27.218
1261.122, 65.782
1262.333, 50.261
1263.544, 59.614
1264.754, 31.286
1265.964, 52.629
1267.174, 23.957
1268.384, 44.279
1269.594, 41.621
1270.803, 13.946
1272.013, 34.334
1273.222, 23.669
1274.431, 4.941
1275.640, 15.220
1276.848, 18.467
1278.057, 0.299
1279.265, 26.923
1280.473, 23.154
1281.681, 1.368
1282.888, 10.583
1284.096, 4.225
1285.303, 32.957
1286.510, 26.133
1287.717, 8.303
1288.924, 53.465
1290.131, 28.622
1291.337, 12.773
1292.543, 25.949
1293.749, 19.236
1294.955, 28.368
1296.161, 23.714
1297.366, 18.282
1298.571, 12.824
1299.777, 11.921
1300.981, 6.037
1302.186, 30.186
1303.391, 6.721
1304.595, 4.369
1305.799, 5.293
1307.003, 9.808
1308.207, 3.957
1309.411, 15.991
1310.614, 4.017
1311.818, 28.037
1313.021, 18.050
1314.224, 5.055
1315.426, 17.052
1316.629, 16.961
1317.831, 3.021
1319.033, 28.988
1320.235, 11.945
1321.437, 7.096
1322.639, 0.168
1323.840, 37.750
1325.042, 18.661
1326.243, 33.564
1327.444, 37.463
1328.644, 25.353
1329.845, 29.623
1331.045, 27.804
1332.245, 24.987
1333.445, 25.854
1334.645, 24.863
1335.845, 31.568
1337.044, 26.414
1338.244, 37.253
1339.443, 41.086
1340.642, 15.912
1341.840, 49.741
1343.039, 45.532
1344.237, 28.314
1345.435, 35.089
1346.633, 32.857
1347.831, 63.618
1349.029, 28.375
1350.226, 38.122
1351.424, 77.864
1352.621, 55.604
1353.818, 47.337
1355.014, 3.072
1356.211, 1.799
1357.407, 49.517
1358.604, 45.271
1359.800, 50.980
1360.995, 53.984
1362.191, 61.695
1363.387, 50.400
1364.582, 52.153
1365.777, 16.812
1366.972, 41.518
1368.167, 26.224
1369.361, 15.930
1370.556, 41.618
1371.750, 32.306
1372.944, 44.989
1374.138, 38.674
1375.331, 43.351
1376.525, 30.029
1377.718, 38.771
1378.911, 48.386
1380.104, 100.710
1381.297, 177.649
1382.490, 178.816
1383.682, 222.309
1384.874, 146.151
1386.066, 55.313
1387.258, 43.468
1388.450, 29.616
1389.641, 13.761
1390.833, 31.899
1392.024, 23.006
1393.215, 37.129
1394.406, 79.232
1395.596, 5.291
1396.787, 57.201
1397.977, 29.229
1399.167, 16.731
1400.357, 21.990
1401.547, 35.931
1402.736, 31.131
1403.925, 9.153
1405.115, 15.784
1406.304, 48.759
1407.492, 5.539
1408.681, 47.270
1409.870, 41.004
1411.058, 50.433
1412.246, 29.919
1413.434, 28.455
1414.622, 13.788
1415.809, 19.695
1416.997, 37.160
1418.184, 28.314
1419.371, 47.669
1420.558, 34.822
1421.744, 37.873
1422.931, 23.819
1424.117, 26.338
1425.303, 23.965
1426.489, 38.556
1427.675, 30.091
1428.861, 51.655
1430.046, 49.979
1431.231, 47.623
1432.416, 48.438
1433.601, 36.030
1434.786, 19.679
1435.970, 4.286
1437.155, 29.973
1438.339, 7.081
1439.523, 48.118
1440.707, 25.779
1441.890, 45.432
1443.074, 20.081
1444.257, 11.514
1445.440, 21.835
1446.623, 17.577
1447.806, 21.050
1448.989, 12.612
1450.171, 6.230
1451.353, 47.833
1452.535, 45.413
1453.717, 54.135
1454.899, 26.423
1456.080, 61.538
1457.262, 28.840
1458.443, 27.657
1459.624, 21.963
1460.805, 22.888
1461.985, 32.156
1463.166, 19.751
1464.346, 21.195
1465.526, 25.842
1466.706, 21.758
1467.886, 43.790
1469.065, 20.019
1470.245, 43.379
1471.424, 38.833
1472.603, 23.244
1473.782, 25.667
1474.960, 31.474
1476.139, 30.592
1477.317, 52.039
1478.495, 66.869
1479.673, 71.901
1480.851, 31.303
1482.029, 48.601
1483.206, 16.667
1484.383, 36.911
1485.560, 46.418
1486.737, 25.528
1487.914, 61.604
1489.091, 25.664
1490.267, 12.685
1491.443, 28.720
1492.619, 16.747
1493.795, 26.863
1494.971, 57.965
1496.146, 32.048
1497.322, 18.092
1498.497, 40.087
1499.672, 3.043
1500.846, 42.979
1502.021, 4.208
1503.196, 18.002
1504.370, 42.244
1505.544, 32.489
1506.718, 45.785
1507.892, 39.110
1509.065, 42.474
1510.238, 43.377
1511.412, 26.179
1512.585, 25.566
1513.758, 8.712
1514.930, 14.051
1516.103, 18.540
1517.275, 19.498
1518.447, 0.112
1519.619, 0.000
##END=



