##NAMES=Gmelinite-Na
##RRUFFID=R050371
##IDEAL CHEMISTRY=Na_4_(Si_8_Al_4_)O_24_&#183;11H_2_O
##LOCALITY=Cairns Bay, Flinders Range, Australia
##OWNER=RRUFF
##SOURCE=Eugene Schlepp
##DESCRIPTION=Colorless to pink crystals lining a basalt vug
##STATUS=The identification of this mineral has been confirmed by X-ray diffraction and chemical analysis
##URL=rruff.info/R050371
##MEASURED CHEMISTRY=Na_3.81_(Si_8.13_Al_3.88_)O_24_Â·4.27H_2_O
##PIN_ID=L01149
##ORIENTATION=Laser parallel to a* (1 0 0). Fiducial mark perpendicular to laser is parallel to c [0 0 1]
233.2450, 0.0000000E+00
234.4640, 88.43457
235.6830, 46.39453
236.9020, 89.92773
238.1200, 215.1436
239.3390, 126.7090
240.5570, 18.16504
241.7750, 117.2686
242.9930, 117.7412
244.2110, 106.7734
245.4290, 87.93359
246.6460, 173.9170
247.8630, 102.9834
249.0810, 181.6836
250.2980, 76.66504
251.5140, 75.40527
252.7310, 170.5586
253.9470, 184.4404
255.1640, 335.4863
256.3800, 432.0635
257.5960, 477.0518
258.8120, 316.2402
260.0270, 421.3193
261.2430, 422.0527
262.4580, 421.5986
263.6730, 571.9941
264.8880, 449.5801
266.1030, 596.8047
267.3170, 597.5059
268.5320, 584.0273
269.7460, 599.7021
270.9600, 573.7217
272.1740, 597.8818
273.3880, 528.5420
274.6010, 530.6729
275.8150, 523.3311
277.0280, 468.5664
278.2410, 517.4258
279.4540, 535.9463
280.6670, 335.1631
281.8790, 428.1094
283.0920, 385.8105
284.3040, 252.2930
285.5160, 231.5771
286.7280, 287.0557
287.9400, 254.6152
289.1510, 298.0610
290.3630, 334.1567
291.5740, 435.7822
292.7850, 370.7217
293.9960, 538.1055
295.2070, 496.1572
296.4170, 531.9170
297.6280, 608.5166
298.8380, 530.0669
300.0480, 504.6968
301.2580, 617.4004
302.4680, 548.1758
303.6770, 545.0264
304.8870, 582.9526
306.0960, 581.9673
307.3050, 819.0996
308.5140, 687.3398
309.7230, 937.6758
310.9310, 928.1074
312.1400, 1340.648
313.3480, 1727.292
314.5560, 1406.041
315.7640, 1272.888
316.9720, 1393.833
318.1790, 1452.872
319.3870, 1418.003
320.5940, 1326.225
321.8010, 1372.534
323.0080, 1305.927
324.2150, 1327.402
325.4210, 1199.404
326.6280, 1082.937
327.8340, 885.2974
329.0400, 750.0801
330.2460, 523.9365
331.4510, 323.8662
332.6570, 241.8672
333.8620, 338.9346
335.0680, 118.0601
336.2730, 87.23242
337.4780, 79.44873
338.6820, 50.29150
339.8870, 21.98730
341.0910, 40.63770
342.2950, 16.24170
343.5000, 158.7983
344.7030, 96.30859
345.9070, 11.76953
347.1110, 211.1826
348.3140, 153.5454
349.5170, 142.8594
350.7200, 145.1221
351.9230, 147.3350
353.1260, 108.4971
354.3290, 118.6074
355.5310, 79.76660
356.7330, 14.67529
357.9350, 48.63135
359.1370, 60.39844
360.3390, 1.412109
361.5400, 169.3232
362.7420, 137.1699
363.9430, 228.8647
365.1440, 287.4414
366.3450, 234.9351
367.5460, 367.4067
368.7460, 349.9141
369.9470, 359.4888
371.1470, 465.1343
372.3470, 564.8486
373.5470, 601.6333
374.7460, 791.4873
375.9460, 752.4102
377.1450, 856.4019
378.3450, 1014.885
379.5440, 1146.368
380.7430, 1226.799
381.9410, 1367.060
383.1400, 1417.422
384.3380, 1622.870
385.5370, 1770.837
386.7350, 1969.604
387.9320, 2236.241
389.1300, 2484.922
390.3280, 2908.644
391.5250, 2974.401
392.7220, 3557.192
393.9190, 3777.005
395.1160, 4414.836
396.3130, 4854.683
397.5100, 5568.540
398.7060, 6206.412
399.9020, 6857.299
401.0980, 7554.220
402.2940, 8342.165
403.4900, 9399.146
404.6860, 10203.15
405.8810, 10848.18
407.0760, 11452.22
408.2710, 11920.24
409.4660, 11835.26
410.6610, 11688.27
411.8550, 11473.29
413.0500, 10798.33
414.2440, 9958.374
415.4380, 9167.444
416.6320, 8192.536
417.8260, 7378.648
419.0190, 6572.775
420.2130, 5982.922
421.4060, 5362.076
422.5990, 4791.269
423.7920, 4270.482
424.9850, 3817.711
426.1770, 3781.991
427.3700, 3522.298
428.5620, 3259.646
429.7540, 3177.012
430.9460, 3023.302
432.1380, 3008.560
433.3290, 2910.648
434.5210, 2980.612
435.7120, 3060.414
436.9030, 3147.064
438.0940, 3150.618
439.2850, 3447.151
440.4750, 3586.700
441.6660, 3873.292
442.8560, 3998.929
444.0460, 4328.609
445.2360, 4558.334
446.4260, 4938.104
447.6160, 5252.918
448.8050, 5755.777
449.9940, 6257.890
451.1830, 6879.627
452.3720, 7480.618
453.5610, 8204.653
454.7500, 8989.729
455.9380, 9785.847
457.1260, 10603.01
458.3150, 11482.21
459.5020, 12520.46
460.6900, 13407.74
461.8780, 14121.07
463.0650, 15075.43
464.2530, 15860.83
465.4400, 16445.27
466.6270, 16956.75
467.8130, 17292.27
469.0000, 17945.83
470.1870, 18463.42
471.3730, 19123.05
472.5590, 19708.71
473.7450, 20496.42
474.9310, 21394.16
476.1160, 22492.93
477.3020, 23697.74
478.4870, 25288.59
479.6720, 26816.47
480.8570, 28812.38
482.0420, 30280.59
483.2270, 32282.74
484.4110, 34114.88
485.5960, 36128.74
486.7800, 38918.74
487.9640, 40154.86
489.1480, 41980.43
490.3310, 43490.66
491.5150, 44628.66
492.6980, 45548.46
493.8810, 46153.28
495.0640, 46223.11
496.2470, 46441.53
497.4300, 45666.83
498.6120, 44765.98
499.7950, 43238.62
500.9770, 41339.36
502.1590, 39141.91
503.3410, 37155.43
504.5220, 34529.05
505.7040, 32085.70
506.8850, 29425.40
508.0660, 26536.13
509.2470, 23946.89
510.4280, 21612.70
511.6090, 19476.54
512.7890, 17369.41
513.9700, 15604.33
515.1500, 13929.28
516.3300, 12368.26
517.5100, 11079.28
518.6900, 9941.338
519.8690, 9057.431
521.0490, 8222.547
522.2280, 7235.696
523.4070, 6537.874
524.5860, 6007.082
525.7640, 5431.319
526.9430, 4940.585
528.1210, 4623.886
529.3000, 4220.215
530.4780, 3835.571
531.6560, 3531.955
532.8330, 3307.366
534.0110, 3141.805
535.1880, 2826.271
536.3650, 2489.762
537.5430, 2399.281
538.7190, 2216.825
539.8960, 2156.648
541.0730, 1968.586
542.2490, 1991.316
543.4250, 1712.950
544.6020, 1614.052
545.7780, 1496.331
546.9530, 1476.119
548.1290, 1473.601
549.3040, 1183.222
550.4800, 1145.220
551.6550, 1071.276
552.8300, 1146.980
554.0040, 1077.020
555.1790, 1026.062
556.3540, 896.3501
557.5280, 948.3545
558.7020, 872.0000
559.8760, 769.4688
561.0500, 681.7554
562.2230, 623.9092
563.3970, 607.1094
564.5700, 558.3872
565.7430, 559.3545
566.9160, 524.0166
568.0890, 526.2134
569.2620, 530.7305
570.4340, 478.0874
571.6070, 446.5112
572.7790, 366.1162
573.9510, 426.5205
575.1230, 295.6729
576.2940, 383.6328
577.4660, 469.2119
578.6370, 260.8022
579.8080, 436.3623
580.9790, 280.3232
582.1500, 210.7148
583.3210, 298.3481
584.4910, 238.8101
585.6620, 295.3354
586.8320, 200.9263
588.0020, 251.8809
589.1720, 289.6362
590.3410, 300.6284
591.5110, 280.6514
592.6800, 314.6260
593.8500, 333.5327
595.0190, 351.1865
596.1880, 372.2979
597.3560, 384.4336
598.5250, 396.7759
599.6930, 407.2554
600.8620, 434.4082
602.0300, 444.5840
603.1970, 462.4731
604.3650, 442.3789
605.5330, 361.3135
606.7000, 503.2744
607.8680, 372.2520
609.0350, 267.2524
610.2020, 365.2725
611.3680, 253.3057
612.5350, 366.3530
613.7010, 350.4141
614.8680, 404.5010
616.0340, 391.6196
617.2000, 283.7515
618.3660, 221.8940
619.5310, 259.0698
620.6970, 212.2686
621.8620, 307.4971
623.0270, 190.7588
624.1920, 247.0713
625.3570, 249.4233
626.5220, 378.8140
627.6860, 200.2822
628.8500, 274.7905
630.0140, 306.3188
631.1780, 250.9170
632.3420, 310.7847
633.5060, 219.7119
634.6700, 313.0371
635.8330, 443.8496
636.9960, 386.6978
638.1590, 510.4795
639.3220, 603.5083
640.4850, 692.4434
641.6470, 718.0356
642.8100, 729.3706
643.9720, 757.3394
645.1340, 712.3096
646.2960, 789.2812
647.4570, 740.2549
648.6190, 755.2275
649.7800, 861.2007
650.9420, 896.1807
652.1030, 839.1597
653.2640, 790.1377
654.4240, 659.1138
655.5850, 701.0859
656.7450, 808.0552
657.9060, 692.0205
659.0660, 705.9824
660.2260, 590.9404
661.3850, 530.8936
662.5450, 570.8418
663.7040, 474.7837
664.8640, 443.7197
666.0230, 325.6484
667.1820, 375.5688
668.3410, 287.4810
669.4990, 310.3853
670.6580, 176.2793
671.8160, 197.1641
672.9740, 22.03955
674.1320, 92.90576
675.2900, 167.7617
676.4480, 117.6064
677.6050, 98.07275
678.7630, 3.738770
679.9200, 5.934082
681.0770, 91.14551
682.2340, 39.41602
683.3900, 93.72119
684.5470, 47.08936
685.7030, 69.49756
686.8590, 78.95850
688.0150, 31.47803
689.1710, 84.03174
690.3270, 35.64844
691.4830, 76.30469
692.6380, 112.0215
693.7930, 62.81836
694.9480, 81.24658
696.1030, 75.29980
697.2580, 52.28271
698.4130, 32.19043
699.5670, 27.92773
700.7210, 46.22559
701.8750, 87.64209
703.0290, 17.57812
704.1830, 19.70117
705.3370, 122.9995
706.4900, 20.58203
707.6430, 68.39990
708.7970, 52.62646
709.9490, 43.91357
711.1020, 68.07373
712.2550, 15.90918
713.4070, 58.53271
714.5600, 37.69434
715.7120, 30.43701
716.8640, 29.18262
718.0160, 70.65332
719.1670, 16.98291
720.3190, 148.6855
721.4700, 84.19678
722.6210, 138.2642
723.7720, 131.0571
724.9230, 125.0415
726.0740, 46.41504
727.2250, 109.4092
728.3750, 60.50781
729.5250, 60.24170
730.6750, 91.61426
731.8250, 119.9321
732.9750, 119.5186
734.1240, 156.3818
735.2740, 54.84912
736.4230, 91.36621
737.5720, 170.0464
738.7210, 299.3823
739.8700, 150.6353
741.0190, 207.3311
742.1670, 240.9404
743.3150, 209.2778
744.4630, 262.9658
745.6110, 223.5493
746.7590, 320.4482
747.9070, 277.8315
749.0540, 321.7988
750.2020, 347.0640
751.3490, 368.2554
752.4960, 404.3691
753.6430, 458.6123
754.7890, 462.8022
755.9360, 455.6875
757.0820, 483.4517
758.2280, 578.9688
759.3740, 494.2808
760.5200, 475.1685
761.6660, 581.1313
762.8120, 502.2290
763.9570, 504.0498
765.1020, 486.4048
766.2470, 467.2495
767.3920, 464.5654
768.5370, 455.9199
769.6810, 465.2324
770.8260, 446.2109
771.9700, 474.4248
773.1140, 488.8906
774.2580, 515.7388
775.4020, 597.5825
776.5460, 637.6377
777.6890, 713.4189
778.8320, 751.3394
779.9750, 841.7690
781.1180, 1008.035
782.2610, 1061.620
783.4040, 1196.165
784.5460, 1395.765
785.6890, 1641.113
786.8310, 1693.542
787.9730, 1843.343
789.1150, 2311.777
790.2560, 2304.753
791.3980, 2531.029
792.5390, 2742.786
793.6810, 2853.712
794.8220, 2873.530
795.9630, 3070.504
797.1030, 3191.396
798.2440, 3138.143
799.3840, 2882.784
800.5240, 2829.215
801.6650, 2796.826
802.8040, 2645.162
803.9440, 2486.301
805.0840, 2075.472
806.2230, 1896.510
807.3630, 1775.498
808.5020, 1457.442
809.6410, 1399.513
810.7790, 1268.459
811.9180, 1063.411
813.0570, 937.1455
814.1950, 842.4629
815.3330, 868.4600
816.4710, 703.7881
817.6090, 674.2456
818.7470, 633.7764
819.8840, 594.2178
821.0220, 577.1646
822.1590, 456.9087
823.2960, 503.1187
824.4330, 386.6079
825.5690, 360.9321
826.7060, 336.8535
827.8420, 432.6890
828.9790, 328.8511
830.1150, 327.6519
831.2510, 308.4233
832.3860, 228.9224
833.5220, 307.6782
834.6570, 260.7651
835.7930, 208.0020
836.9280, 222.3926
838.0630, 222.8882
839.1980, 216.3091
840.3320, 154.0176
841.4670, 144.2188
842.6010, 102.0894
843.7350, 46.27832
844.8690, 146.3438
846.0030, 95.42383
847.1370, 138.4043
848.2700, 94.17432
849.4040, 119.1138
850.5370, 1.275391
851.6700, 59.58838
852.8030, 14.25342
853.9360, 85.87158
855.0680, 192.4922
856.2000, 95.68604
857.3330, 43.57861
858.4650, 11.86621
859.5970, 1.552734
860.7290, 11.92627
861.8600, 29.30469
862.9920, 38.71436
864.1230, 38.41748
865.2540, 61.27979
866.3850, 78.91943
867.5160, 15.13135
868.6460, 65.68213
869.7770, 9.566406
870.9070, 71.25049
872.0370, 11.54736
873.1670, 73.03809
874.2970, 72.56885
875.4270, 14.20215
876.5570, 34.60010
877.6860, 37.12305
878.8150, 24.40674
879.9440, 15.01318
881.0730, 30.30957
882.2020, 4.420410
883.3300, 2.784668
884.4590, 72.92822
885.5870, 38.02490
886.7150, 40.07129
887.8430, 28.93262
888.9710, 48.01270
890.0990, 29.82227
891.2260, 50.60645
892.3530, 59.65723
893.4810, 25.01123
894.6080, 54.77881
895.7340, 32.04834
896.8610, 83.51416
897.9880, 23.17725
899.1140, 51.91064
900.2400, 61.72705
901.3660, 28.36719
902.4920, 7.415039
903.6180, 7.411621
904.7430, 45.35742
905.8690, 14.74121
906.9940, 19.90137
908.1190, 14.87598
909.2440, 95.60596
910.3690, 84.29395
911.4930, 39.05908
912.6180, 73.51660
913.7420, 23.94824
914.8660, 9.524414
915.9900, 87.95166
917.1140, 68.33936
918.2380, 64.68701
919.3610, 37.99414
920.4850, 85.26025
921.6080, 52.48730
922.7310, 18.32471
923.8540, 27.80859
924.9760, 119.9019
926.0990, 34.95850
927.2210, 144.9766
928.3440, 90.95898
929.4660, 102.9058
930.5880, 51.81641
931.7090, 57.68945
932.8310, 78.52588
933.9520, 89.32715
935.0740, 126.1240
936.1950, 68.89014
937.3160, 120.6211
938.4360, 167.3188
939.5570, 132.0054
940.6780, 179.6631
941.7980, 188.2974
942.9180, 143.9136
944.0380, 99.50000
945.1580, 115.0552
946.2780, 99.58057
947.3970, 299.0776
948.5170, 245.5459
949.6360, 158.9849
950.7550, 175.3955
951.8740, 64.77979
952.9930, 89.29102
954.1110, 275.4985
955.2300, 157.8379
956.3480, 199.1748
957.4660, 327.4976
958.5840, 251.8125
959.7020, 281.1377
960.8190, 368.4624
961.9370, 263.8115
963.0540, 347.1543
964.1710, 462.4941
965.2880, 330.8418
966.4050, 450.1831
967.5220, 501.2388
968.6380, 467.5918
969.7550, 492.8105
970.8710, 637.8154
971.9870, 662.8770
973.1030, 645.9229
974.2190, 849.9692
975.3340, 853.7476
976.4500, 915.4629
977.5650, 970.9805
978.6800, 930.6802
979.7950, 940.4712
980.9100, 963.3848
982.0250, 1031.707
983.1390, 1000.227
984.2530, 1063.905
985.3680, 1088.208
986.4820, 1053.457
987.5950, 1275.650
988.7090, 1174.203
989.8230, 1218.219
990.9360, 1167.816
992.0490, 1357.565
993.1620, 1244.715
994.2750, 1311.097
995.3880, 1284.243
996.5010, 1360.956
997.6130, 1348.005
998.7250, 1365.905
999.8370, 1363.125
1000.949, 1414.662
1002.061, 1435.208
1003.173, 1452.442
1004.284, 1670.355
1005.396, 1597.621
1006.507, 1606.791
1007.618, 1630.753
1008.729, 1504.014
1009.839, 1697.315
1010.950, 1737.130
1012.060, 1746.988
1013.171, 1735.074
1014.281, 1648.768
1015.391, 1780.521
1016.500, 1747.916
1017.610, 1789.782
1018.719, 1848.021
1019.829, 1789.920
1020.938, 1688.848
1022.047, 1852.812
1023.156, 1800.601
1024.264, 1876.400
1025.373, 1989.460
1026.481, 1882.599
1027.589, 1793.941
1028.697, 1915.445
1029.805, 1842.329
1030.913, 1805.096
1032.020, 1729.683
1033.128, 1895.504
1034.235, 1785.748
1035.342, 1727.651
1036.449, 1919.195
1037.556, 1685.765
1038.663, 1817.876
1039.769, 1818.277
1040.875, 1678.397
1041.981, 1762.222
1043.087, 1733.619
1044.193, 1787.977
1045.299, 1774.078
1046.404, 1683.408
1047.510, 1752.553
1048.615, 1741.438
1049.720, 1642.856
1050.825, 1678.204
1051.930, 1662.547
1053.034, 1741.789
1054.139, 1740.240
1055.243, 1704.565
1056.347, 1660.473
1057.451, 1654.705
1058.555, 1681.349
1059.658, 1742.651
1060.762, 1778.581
1061.865, 1787.989
1062.968, 1902.615
1064.071, 1918.042
1065.174, 1982.507
1066.277, 2133.073
1067.380, 2124.671
1068.482, 2296.856
1069.584, 2340.427
1070.686, 2456.228
1071.788, 2596.652
1072.890, 2638.045
1073.992, 2758.513
1075.093, 2938.355
1076.194, 2903.330
1077.295, 3100.141
1078.396, 3171.302
1079.497, 3356.394
1080.598, 3391.404
1081.698, 3342.427
1082.799, 3540.452
1083.899, 3686.486
1084.999, 3657.319
1086.099, 3885.211
1087.199, 3921.269
1088.298, 3943.336
1089.398, 4126.412
1090.497, 4149.495
1091.596, 4233.712
1092.695, 4281.516
1093.794, 4502.400
1094.892, 4425.354
1095.991, 4503.481
1097.089, 4580.613
1098.187, 4550.755
1099.285, 4648.888
1100.383, 4590.511
1101.481, 4706.677
1102.579, 4694.550
1103.676, 4584.735
1104.773, 4599.188
1105.870, 4568.601
1106.967, 4509.813
1108.064, 4482.197
1109.161, 4488.271
1110.257, 4367.519
1111.353, 4354.966
1112.449, 4281.431
1113.545, 4329.133
1114.641, 4220.428
1115.737, 4329.736
1116.832, 4336.056
1117.928, 4265.395
1119.023, 4258.755
1120.118, 4208.133
1121.213, 4032.523
1122.308, 4017.925
1123.402, 3900.270
1124.497, 3797.716
1125.591, 3689.180
1126.685, 3533.673
1127.779, 3451.185
1128.873, 3386.565
1129.967, 3287.299
1131.060, 3329.889
1132.153, 3164.491
1133.247, 3183.136
1134.340, 3061.807
1135.433, 2967.493
1136.525, 2943.203
1137.618, 2902.928
1138.710, 2833.063
1139.802, 2792.035
1140.895, 2695.253
1141.987, 2645.069
1143.078, 2530.900
1144.170, 2383.747
1145.261, 2392.622
1146.353, 2205.522
1147.444, 2198.438
1148.535, 2036.377
1149.626, 2080.336
1150.716, 1905.309
1151.807, 1932.296
1152.897, 1801.300
1153.988, 1839.331
1155.078, 1663.396
1156.168, 1563.485
1157.257, 1567.589
1158.347, 1505.732
1159.436, 1338.902
1160.526, 1330.107
1161.615, 1241.330
1162.704, 1273.595
1163.793, 1180.886
1164.881, 1021.221
1165.970, 1105.591
1167.058, 1047.991
1168.147, 958.4097
1169.235, 951.8447
1170.323, 790.2939
1171.410, 758.7827
1172.498, 761.2954
1173.585, 656.8232
1174.673, 591.3652
1175.760, 605.9204
1176.847, 530.5039
1177.934, 521.1060
1179.020, 398.7314
1180.107, 469.3721
1181.193, 376.0439
1182.279, 298.7285
1183.365, 279.4360
1184.451, 275.1621
1185.537, 302.9092
1186.623, 183.6689
1187.708, 234.4487
1188.793, 160.2412
1189.878, 270.0454
1190.963, 209.8623
1192.048, 210.6909
1193.133, 195.5308
1194.217, 80.38232
1195.302, 83.24561
1196.386, 187.1221
1197.470, 143.9961
1198.554, 15.22217
1199.638, 59.15576
1200.721, 82.06299
1201.805, 100.6685
1202.888, 17.87598
1203.971, 41.50244
1205.054, 69.49365
1206.137, 50.66504
1207.219, 2.590332
1208.302, 9.563965
1209.384, 8.712402
1210.466, 27.14697
1211.548, 3.015625
1212.630, 110.8936
1213.712, 56.78271
1214.794, 28.31885
1215.875, 71.58008
1216.956, 49.49072
1218.037, 39.41016
1219.118, 30.33984
1220.199, 29.28076
1221.280, 68.76855
1222.360, 78.83691
1223.441, 112.9302
1224.521, 42.06445
1225.601, 71.79297
1226.681, 34.65869
1227.760, 73.53418
1228.840, 22.58057
1229.919, 32.69727
1230.999, 54.18213
1232.078, 56.92871
1233.157, 14.94434
1234.236, 27.16943
1235.314, 2.285156
1236.393, 73.61621
1237.471, 18.52686
1238.549, 34.62402
1239.627, 5.379883
1240.705, 0.6816410
1241.783, 47.73682
1242.860, 44.80469
1243.938, 34.11328
1245.015, 83.03955
1246.092, 34.97266
1247.169, 82.91260
1248.246, 53.17480
1249.323, 16.14160
1250.399, 108.4688
1251.475, 80.44727
1252.552, 15.52295
1253.628, 90.45947
1254.703, 127.4536
1255.779, 20.88037
1256.855, 122.9487
1257.930, 41.15820
1259.005, 153.1821
1260.080, 66.32666
1261.155, 75.36084
1262.230, 36.39893
1263.305, 126.4424
1264.379, 154.9414
1265.454, 94.99316
1266.528, 281.1523
1267.602, 163.2129
1268.676, 109.2773
1269.750, 222.5776
1270.823, 220.6499
1271.897, 170.7251
1272.970, 223.8047
1274.043, 217.8872
1275.116, 237.9717
1276.189, 157.0620
1277.261, 253.1538
1278.334, 199.3701
1279.406, 296.4663
1280.478, 301.5649
1281.550, 228.6660
1282.622, 249.8813
1283.694, 335.1240
1284.766, 319.4673
1285.837, 339.9023
1286.908, 401.9609
1287.979, 331.1592
1289.050, 397.2671
1290.121, 398.0415
1291.192, 375.1934
1292.262, 332.2993
1293.333, 378.0249
1294.403, 461.9375
1295.473, 452.7407
1296.543, 504.8408
1297.613, 536.9385
1298.682, 455.0322
1299.752, 564.2578
1300.821, 470.3555
1301.890, 614.5229
1302.959, 585.8809
1304.028, 642.9580
1305.096, 471.2012
1306.165, 548.6045
1307.233, 546.6689
1308.301, 599.7817
1309.370, 694.1460
1310.437, 604.2720
1311.505, 677.5698
1312.573, 613.9077
1313.640, 735.8975
1314.708, 563.9351
1315.775, 635.9736
1316.842, 625.0122
1317.908, 595.0493
1318.975, 580.0869
1320.042, 633.2666
1321.108, 565.3032
1322.174, 544.3394
1323.240, 693.4194
1324.306, 583.4546
1325.372, 645.4897
1326.438, 569.5537
1327.503, 539.1982
1328.568, 459.2319
1329.634, 521.2656
1330.699, 520.8296
1331.763, 592.4556
1332.828, 538.9829
1333.893, 583.1479
1334.957, 532.1816
1336.021, 445.4390
1337.085, 515.1968
1338.149, 486.0586
1339.213, 373.0928
1340.277, 491.1230
1341.340, 565.5576
1342.404, 442.5913
1343.467, 389.6279
1344.530, 509.9722
1345.593, 444.9951
1346.655, 394.0166
1347.718, 306.8438
1348.780, 465.8550
1349.843, 204.8047
1350.905, 350.0894
1351.967, 405.3027
1353.028, 297.4502
1354.090, 366.4326
1355.152, 373.7905
1356.213, 378.8809
1357.274, 355.4858
1358.335, 312.8149
1359.396, 282.8340
1360.457, 193.2578
1361.517, 205.1982
1362.578, 149.4458
1363.638, 103.9731
1364.698, 187.2627
1365.758, 164.1763
1366.818, 291.0288
1367.878, 235.0684
1368.937, 159.2280
1369.997, 205.8970
1371.056, 120.5093
1372.115, 161.3555
1373.174, 202.1875
1374.232, 180.0156
1375.291, 7.182129
1376.350, 65.45264
1377.408, 12.17969
1378.466, 57.90137
1379.524, 42.73340
1380.582, 146.6802
1381.640, 209.5493
1382.697, 6.911621
1383.754, 43.27734
1384.812, 34.71191
1385.869, 125.1030
1386.926, 31.75098
1387.983, 111.3892
1389.039, 153.0205
1390.096, 73.64502
1391.152, 13.25732
1392.208, 80.85547
1393.264, 39.44580
1394.320, 106.0176
1395.376, 128.5806
1396.431, 23.17627
1397.487, 107.7153
1398.542, 87.24414
1399.597, 145.9199
1400.652, 198.4058
1401.707, 200.8325
1402.762, 77.72949
1403.816, 277.1104
1404.871, 42.55615
1405.925, 135.8999
1406.979, 107.3481
1408.033, 217.7568
1409.086, 47.01123
1410.140, 41.24658
1411.194, 6.573730
1412.247, 33.56543
1413.300, 11.47168
1414.353, 55.56543
1415.406, 97.63721
1416.458, 12.68750
1417.511, 67.71191
1418.563, 183.7114
1419.616, 18.31885
1420.668, 87.73047
1421.720, 38.48975
1422.772, 117.3955
1423.823, 128.2119
1424.875, 175.0024
1425.926, 45.23096
1426.977, 79.45752
1428.028, 62.11914
1429.079, 30.75049
1430.130, 130.3501
1431.180, 41.91846
1432.231, 0.5429690
1433.281, 88.96094
1434.331, 70.43994
1435.381, 47.84766
1436.431, 65.56982
1437.481, 15.09424
1438.530, 9.9609002E-02
1439.580, 10.14014
1440.629, 139.6016
1441.678, 97.33447
1442.727, 118.0566
1443.776, 141.7686
1444.824, 114.4697
1445.873, 55.19287
1446.921, 146.9434
1447.969, 106.7056
1449.017, 81.48779
1450.065, 106.2939
1451.113, 116.0908
1452.160, 122.8833
1453.208, 132.4810
1454.255, 140.8306
1455.302, 115.2109
1456.349, 132.9653
1457.396, 73.72217
1458.443, 10.55615
1459.489, 167.4331
1460.535, 136.2988
1461.582, 53.17529
1462.628, 148.0649
1463.674, 84.95605
1464.719, 151.8184
1465.765, 111.6621
1466.810, 41.49756
1467.856, 154.3662
1468.901, 95.24316
1469.946, 49.36084
1470.991, 162.6978
1472.035, 122.4453
1473.080, 23.25293
1474.124, 170.9683
1475.169, 89.20361
1476.213, 200.7285
1477.257, 121.4136
1478.300, 199.4341
1479.344, 124.9521
1480.388, 47.26758
1481.431, 87.92480
1482.474, 202.5786
1483.517, 66.22852
1484.560, 64.68311
1485.603, 83.32910
1486.645, 19.79297
1487.688, 38.60693
1488.730, 16.34766
1489.772, 55.09521
1490.814, 29.47461
1491.856, 77.83154
1492.898, 76.82471
1493.939, 40.28662
1494.981, 63.22119
1496.022, 133.4292
1497.063, 109.2998
1498.104, 200.8267
1499.145, 141.1025
1500.186, 98.84033
1501.226, 28.01562
1502.266, 182.1475
1503.307, 125.1987
1504.347, 68.21875
1505.387, 55.89648
1506.426, 1.254395
1507.466, 6.335449
1508.505, 22.50684
1509.545, 36.32227
1510.584, 61.84033
1511.623, 104.1519
1512.662, 97.18945
1513.700, 99.50586
1514.739, 146.9624
1515.777, 127.1953
1516.815, 99.57227
1517.854, 131.8091
1518.892, 109.7236
1519.929, 130.6631
1520.967, 85.76416
1522.004, 131.6494
1523.042, 99.21094
1524.079, 55.50879
1525.116, 211.5034
1526.153, 131.8164
1527.190, 12.19141
1528.226, 118.1733
1529.263, 58.94824
1530.299, 181.9819
1531.335, 50.95947
1532.371, 35.44775
1533.407, 162.3970
1534.443, 216.9614
1535.478, 153.5186
1536.514, 103.6797
1537.549, 6.364746
1538.584, 70.11377
1539.619, 80.34131
1540.654, 63.34082
1541.689, 100.1309
1542.723, 110.3472
1543.757, 84.44580
1544.792, 129.7075
1545.826, 92.59033
1546.860, 34.00635
1547.893, 83.91357
1548.927, 147.8105
1549.960, 60.21631
1550.994, 191.3892
1552.027, 173.7979
1553.060, 164.8999
1554.093, 298.8301
1555.126, 185.3174
1556.158, 49.28809
1557.191, 72.47559
1558.223, 49.32861
1559.255, 1.409668
1560.287, 88.67529
1561.319, 5.431152
1562.350, 0.0000000E+00
##END=



