##NAMES=Grossular
##RRUFFID=R060452
##IDEAL CHEMISTRY=Ca_3_Al_2_(SiO_4_)_3_
##LOCALITY=unknown
##OWNER=RRUFF
##SOURCE=Gemological Institute of America
##DESCRIPTION=Yellowish-brown colored fragment
##STATUS=The identification of this mineral has been confirmed by X-ray diffraction and chemical analysis
##URL=rruff.info/R060452
##MEASURED CHEMISTRY=(Ca_2.94_Mn_0.03_Mg_0.03_)_Σ=3_(Al_1.91_Fe^3+^_0.06_Ti_0.03_)_Σ=2_((Si_0.99_Al_0.01_)_Σ=1_O_4_)_3_
##PIN_ID=L01823
##ORIENTATION=Laser parallel to a* (1 0 0). Fiducial mark perpendicular to laser is parallel to c [0 0 1]
118.5340, 0.0000000E+00
119.7720, 6.640015
121.0100, 42.14563
122.2470, 0.3176270
123.4850, 33.09546
124.7220, 54.42126
125.9590, 22.70996
127.1960, 48.41162
128.4330, 84.80603
129.6700, 25.83899
130.9060, 30.98767
132.1430, 111.9487
133.3790, 13.24036
134.6150, 33.50598
135.8500, 87.25757
137.0860, 16.07983
138.3210, 57.99500
139.5560, 24.50671
140.7910, 56.78027
142.0260, 36.84717
143.2610, 10.84497
144.4950, 0.4655760
145.7290, 36.86353
146.9630, 41.18750
148.1970, 62.37524
149.4310, 0.5539550
150.6640, 32.41528
151.8980, 42.29602
153.1310, 72.09912
154.3640, 90.83362
155.5970, 38.50769
156.8290, 86.63501
158.0620, 34.19580
159.2940, 70.71790
160.5260, 56.71863
161.7580, 21.50745
162.9890, 41.85974
164.2210, 67.53394
165.4520, 132.8866
166.6830, 46.61975
167.9140, 149.1724
169.1450, 174.3535
170.3760, 260.7725
171.6060, 319.6807
172.8360, 438.9727
174.0660, 549.8239
175.2960, 700.6956
176.5260, 1036.587
177.7550, 1388.497
178.9840, 1924.424
180.2130, 2307.365
181.4420, 2472.320
182.6710, 1822.285
183.9000, 1342.260
185.1280, 965.2434
186.3560, 585.2356
187.5840, 378.2357
188.8120, 333.2432
190.0400, 190.2573
191.2670, 91.27808
192.4950, 126.3112
193.7220, 125.3699
194.9490, 20.44592
196.1750, 73.53833
197.4020, 87.64404
198.6280, 70.75989
199.8540, 62.88184
201.0800, 109.0087
202.3060, 15.13965
203.5320, 76.27759
204.7570, 25.41956
205.9830, 15.96216
207.2080, 15.31006
208.4330, 12.25952
209.6570, 24.06921
210.8820, 17.57349
212.1060, 21.92517
213.3310, 32.48926
214.5550, 16.92932
215.7780, 23.38281
217.0020, 38.84351
218.2260, 14.31238
219.4490, 30.21118
220.6720, 10.27124
221.8950, 66.75757
223.1180, 15.74915
224.3400, 42.74854
225.5630, 19.75171
226.7850, 74.74646
228.0070, 65.24170
229.2290, 119.7344
230.4500, 127.2255
231.6720, 142.7188
232.8930, 208.2179
234.1140, 240.7213
235.3350, 278.2274
236.5560, 376.7297
237.7770, 445.2097
238.9970, 453.6681
240.2170, 453.1151
241.4370, 504.5560
242.6570, 576.9811
243.8770, 622.3907
245.0960, 599.7859
246.3160, 631.1648
247.5350, 567.5405
248.7540, 562.9142
249.9730, 457.2847
251.1910, 334.6521
252.4100, 271.0164
253.6280, 194.3778
254.8460, 124.7366
256.0640, 170.0928
257.2810, 152.4467
258.4990, 140.7985
259.7160, 197.1482
260.9330, 168.4962
262.1500, 176.8428
263.3670, 157.1877
264.5840, 127.5317
265.8000, 162.6268
267.0170, 187.6093
268.2330, 264.4991
269.4490, 263.1636
270.6640, 320.9716
271.8800, 376.7349
273.0950, 383.4194
274.3100, 539.1041
275.5260, 582.7603
276.7400, 656.3591
277.9550, 630.8613
279.1690, 587.4017
280.3840, 553.7268
281.5980, 435.1672
282.8120, 421.6804
284.0260, 262.0215
285.2390, 177.5328
286.4530, 168.9458
287.6660, 176.6610
288.8790, 168.3789
290.0920, 121.9650
291.3040, 135.3047
292.5170, 1.126465
293.7290, 36.06628
294.9410, 53.57751
296.1530, 28.02075
297.3650, 74.29883
298.5770, 19.19275
299.7880, 30.75476
301.0000, 10.76160
302.2110, 75.28442
303.4220, 55.23547
304.6320, 70.62695
305.8430, 101.6860
307.0530, 100.5989
308.2630, 170.1917
309.4730, 143.6394
310.6830, 214.6316
311.8930, 271.5306
313.1030, 308.3215
314.3120, 372.3269
315.5210, 453.1982
316.7300, 406.1199
317.9390, 456.0544
319.1470, 381.9014
320.3560, 330.8134
321.5640, 347.5436
322.7720, 351.2172
323.9800, 279.1899
325.1880, 362.0103
326.3950, 334.0288
327.6030, 376.6982
328.8100, 337.5116
330.0170, 398.2599
331.2240, 406.7676
332.4300, 392.3229
333.6370, 408.9053
334.8430, 391.2775
336.0490, 351.8341
337.2550, 395.3171
338.4610, 370.7809
339.6660, 440.3635
340.8720, 431.8313
342.0770, 451.5886
343.2820, 520.4229
344.4870, 582.4131
345.6920, 624.0701
346.8960, 773.0005
348.1010, 797.6711
349.3050, 829.6172
350.5090, 942.0010
351.7130, 1070.338
352.9160, 1222.954
354.1200, 1348.417
355.3230, 1545.172
356.5260, 1798.460
357.7290, 2175.286
358.9320, 2602.800
360.1350, 3142.000
361.3370, 3849.223
362.5390, 4653.506
363.7410, 5810.684
364.9430, 7199.042
366.1450, 8872.193
367.3470, 10717.51
368.5480, 12274.78
369.7490, 13591.06
370.9500, 15022.10
372.1510, 16257.40
373.3520, 17549.70
374.5520, 18074.09
375.7530, 17255.40
376.9530, 15260.69
378.1530, 12496.98
379.3520, 9734.260
380.5520, 7606.547
381.7510, 5722.831
382.9510, 4377.114
384.1500, 3444.397
385.3490, 2711.680
386.5480, 2241.965
387.7460, 1902.250
388.9440, 1554.540
390.1430, 1290.830
391.3410, 1194.123
392.5390, 1042.420
393.7360, 961.7163
394.9340, 899.0137
396.1310, 814.3813
397.3280, 769.6104
398.5250, 696.9131
399.7220, 688.2319
400.9190, 616.5520
402.1150, 594.8745
403.3120, 703.1982
404.5080, 687.5266
405.7040, 705.8550
406.8990, 798.1938
408.0950, 852.5330
409.2900, 943.8887
410.4860, 1118.250
411.6810, 1366.632
412.8760, 1608.012
414.0700, 1983.399
415.2650, 2426.796
416.4590, 2552.195
417.6540, 2406.591
418.8480, 1988.987
420.0420, 1559.388
421.2350, 1085.790
422.4290, 804.1973
423.6220, 586.6021
424.8150, 355.0046
426.0080, 281.4038
427.2010, 219.8003
428.3940, 143.1953
429.5860, 141.5864
430.7790, 84.98779
431.9710, 74.39014
433.1630, 71.78784
434.3540, 62.18774
435.5460, 50.58252
436.7370, 26.73853
437.9290, 11.90625
439.1200, 41.53223
440.3110, 29.29395
441.5010, 32.92700
442.6920, 21.64307
443.8820, 19.55103
445.0730, 69.34302
446.2630, 59.05225
447.4530, 49.85742
448.6420, 10.37085
449.8320, 32.39966
451.0210, 3.805664
452.2100, 10.00146
453.3990, 20.17358
454.5880, 38.33936
455.7770, 57.50366
456.9660, 14.65601
458.1540, 41.80493
459.3420, 30.94702
460.5300, 26.21362
461.7180, 45.19312
462.9050, 31.29639
464.0930, 76.44141
465.2800, 91.68921
466.4670, 21.75488
467.6540, 59.80518
468.8410, 13.84180
470.0280, 98.86353
471.2140, 65.87158
472.4000, 82.86401
473.5870, 141.8416
474.7720, 131.8098
475.9580, 126.7659
477.1440, 187.7080
478.3290, 135.6377
479.5140, 154.5527
480.6990, 160.4529
481.8840, 133.3376
483.0690, 130.2070
484.2540, 94.05981
485.4380, 76.89331
486.6220, 40.70703
487.8060, 121.4990
488.9900, 57.27148
490.1740, 85.02026
491.3570, 55.74756
492.5410, 166.4509
493.7240, 169.1333
494.9070, 102.7954
496.0900, 195.4314
497.2720, 179.0488
498.4550, 182.6492
499.6370, 207.2258
500.8190, 144.7852
502.0010, 212.3186
503.1830, 282.8281
504.3650, 213.3135
505.5460, 290.7742
506.7280, 377.2102
507.9090, 399.6292
509.0900, 400.0237
510.2710, 395.4006
511.4510, 399.7476
512.6320, 320.0681
513.8120, 302.4585
514.9920, 285.9868
516.1720, 199.3843
517.3520, 217.0828
518.5310, 244.0447
519.7110, 335.0347
520.8900, 326.1001
522.0690, 376.1943
523.2480, 438.2041
524.4270, 494.4604
525.6050, 634.7080
526.7840, 600.9343
527.9620, 655.4866
529.1400, 538.9458
530.3180, 444.9880
531.4960, 321.6882
532.6730, 284.3394
533.8510, 291.3264
535.0280, 356.3723
536.2050, 415.9033
537.3820, 518.1357
538.5590, 633.6877
539.7350, 872.6030
540.9120, 1190.478
542.0880, 1621.947
543.2640, 2037.629
544.4400, 2668.090
545.6150, 3384.176
546.7910, 4413.316
547.9660, 5199.046
549.1410, 5517.179
550.3170, 5179.256
551.4910, 4313.254
552.6660, 3389.014
553.8410, 2435.140
555.0150, 1793.200
556.1890, 1373.085
557.3630, 1044.849
558.5370, 757.8396
559.7110, 635.0869
560.8840, 568.8584
562.0570, 560.9736
563.2310, 486.8115
564.4040, 493.4575
565.5760, 402.0691
566.7490, 448.5764
567.9220, 496.2283
569.0940, 437.9644
570.2660, 375.4324
571.4380, 394.9521
572.6100, 478.6423
573.7820, 431.9587
574.9530, 406.7988
576.1240, 383.7134
577.2960, 352.5701
578.4670, 322.2339
579.6370, 374.6362
580.8080, 397.7932
581.9790, 403.2029
583.1490, 433.2598
584.3190, 445.3125
585.4890, 464.1504
586.6590, 466.8486
587.8280, 471.0007
588.9980, 616.4268
590.1670, 640.4722
591.3360, 620.3447
592.5050, 685.2383
593.6740, 679.4451
594.8430, 445.0261
596.0110, 492.1633
597.1790, 464.0994
598.3480, 450.8489
599.5160, 432.8853
600.6830, 466.6892
601.8510, 415.3533
603.0180, 443.9377
604.1860, 353.3477
605.3530, 327.0088
606.5200, 437.8477
607.6870, 407.0249
608.8530, 434.5330
610.0200, 478.7825
611.1860, 419.0869
612.3520, 439.1321
613.5180, 446.1699
614.6840, 464.2068
615.8500, 544.7671
617.0150, 617.8723
618.1800, 623.2358
619.3450, 621.1035
620.5100, 736.9756
621.6750, 686.6680
622.8400, 790.4187
624.0040, 906.8687
625.1690, 958.9670
626.3330, 1009.186
627.4970, 1070.625
628.6610, 1003.552
629.8240, 992.7800
630.9880, 879.1838
632.1510, 883.2532
633.3140, 723.6279
634.4770, 647.8938
635.6400, 600.3560
636.8020, 558.1533
637.9650, 474.7224
639.1270, 532.2422
640.2890, 524.7805
641.4510, 445.0127
642.6130, 499.4329
643.7750, 484.7935
644.9360, 590.0947
646.0980, 511.3364
647.2590, 463.5183
648.4200, 444.6406
649.5810, 413.7029
650.7410, 429.7051
651.9020, 448.6472
653.0620, 397.5288
654.2220, 359.3491
655.3820, 385.2207
656.5420, 308.0254
657.7020, 239.6343
658.8610, 227.2026
660.0200, 203.7063
661.1800, 191.1433
662.3390, 205.5144
663.4970, 140.8188
664.6560, 137.0547
665.8150, 136.2217
666.9730, 52.32080
668.1310, 68.34912
669.2890, 5.306885
670.4470, 15.18774
671.6050, 17.99463
672.7620, 4.728760
673.9200, 135.3853
675.0770, 22.97070
676.2340, 77.48315
677.3910, 13.92480
678.5470, 3.292725
679.7040, 44.41919
680.8600, 13.76514
682.0160, 5.874512
683.1720, 10.90771
684.3280, 2.133789
685.4840, 42.74438
686.6390, 29.44824
687.7950, 32.26562
688.9500, 52.09229
690.1050, 19.55371
691.2600, 80.10205
692.4150, 17.24146
693.5690, 22.48364
694.7240, 36.29639
695.8780, 3.206055
697.0320, 16.80566
698.1860, 3.747559
699.3400, 21.38599
700.4930, 4.561035
701.6470, 23.90381
702.8000, 35.70728
703.9530, 35.24365
705.1060, 50.28662
706.2590, 21.09912
707.4110, 7.414795
708.5640, 33.65479
709.7160, 40.18115
710.8680, 15.11841
712.0200, 6.855469
713.1720, 4.248779
714.3230, 39.56445
715.4750, 23.69946
716.6260, 39.05908
717.7770, 28.56763
718.9280, 1.123535
720.0790, 43.75342
721.2300, 11.51660
722.3800, 32.28418
723.5300, 16.17920
724.6810, 54.83398
725.8300, 22.21558
726.9800, 35.34863
728.1300, 57.42505
729.2790, 6.119141
730.4290, 62.73779
731.5780, 126.2771
732.7270, 4.259277
733.8760, 28.88281
735.0240, 56.39355
736.1730, 26.41064
737.3210, 14.31421
738.4700, 27.69019
739.6180, 38.61206
740.7650, 63.45312
741.9130, 78.21387
743.0610, 49.83813
744.2080, 20.26562
745.3550, 83.77979
746.5020, 30.21484
747.6490, 31.56836
748.7960, 89.84229
749.9430, 105.0391
751.0890, 110.1587
752.2350, 5.795898
753.3810, 18.16577
754.5270, 96.04932
755.6730, 71.85889
756.8190, 133.5918
757.9640, 137.2524
759.1090, 171.8389
760.2540, 116.3530
761.3990, 170.7935
762.5440, 204.1626
763.6890, 193.4624
764.8330, 229.6929
765.9780, 228.8579
767.1220, 316.9565
768.2660, 287.9902
769.4100, 323.9609
770.5530, 346.8677
771.6970, 360.7202
772.8400, 471.5083
773.9830, 469.2456
775.1260, 534.9243
776.2690, 584.5425
777.4120, 564.1030
778.5540, 629.6216
779.6970, 558.0850
780.8390, 625.5093
781.9810, 579.8877
783.1230, 595.2070
784.2650, 602.4683
785.4060, 528.6694
786.5480, 572.8096
787.6890, 549.9102
788.8300, 589.9639
789.9710, 500.9585
791.1120, 547.8101
792.2520, 471.4326
793.3930, 451.2261
794.5330, 503.8223
795.6730, 555.4395
796.8130, 585.1304
797.9530, 645.3652
799.0930, 607.7588
800.2320, 658.9316
801.3710, 714.9028
802.5110, 840.6938
803.6500, 900.8955
804.7880, 989.5786
805.9270, 1065.278
807.0660, 1173.204
808.2040, 1275.428
809.3420, 1408.829
810.4800, 1471.525
811.6180, 1618.727
812.7560, 1715.913
813.8930, 1822.257
815.0310, 2003.396
816.1680, 2178.538
817.3050, 2298.138
818.4420, 2484.761
819.5790, 2709.581
820.7150, 2789.450
821.8520, 3042.611
822.9880, 3142.021
824.1240, 3343.752
825.2600, 3285.862
826.3960, 3283.493
827.5320, 3153.130
828.6670, 3015.251
829.8020, 2849.891
830.9380, 2603.463
832.0730, 2446.562
833.2080, 2320.853
834.3420, 2130.198
835.4770, 2211.881
836.6110, 2032.035
837.7450, 2051.315
838.8790, 1983.525
840.0130, 2153.542
841.1470, 2024.843
842.2810, 2095.155
843.4140, 2165.713
844.5470, 2167.469
845.6800, 2297.001
846.8130, 2358.726
847.9460, 2497.339
849.0790, 2544.386
850.2110, 2508.796
851.3440, 2592.264
852.4760, 2680.737
853.6080, 2773.464
854.7400, 2715.570
855.8710, 2942.141
857.0030, 3023.928
858.1340, 3112.157
859.2650, 3432.714
860.3960, 3557.083
861.5270, 3980.661
862.6580, 4284.997
863.7890, 4517.436
864.9190, 5016.516
866.0490, 5577.616
867.1790, 6133.157
868.3090, 7111.315
869.4390, 8055.413
870.5690, 9227.904
871.6980, 10919.55
872.8270, 12877.08
873.9570, 15050.30
875.0860, 17668.59
876.2140, 20154.86
877.3430, 23217.17
878.4720, 25054.45
879.6000, 26455.55
880.7280, 26855.40
881.8560, 25727.48
882.9840, 23969.67
884.1120, 21385.86
885.2390, 18692.63
886.3670, 16025.42
887.4940, 13649.63
888.6210, 11644.03
889.7480, 9856.892
890.8750, 8516.203
892.0020, 7097.283
893.1280, 6282.905
894.2540, 5388.999
895.3810, 4758.553
896.5070, 4085.587
897.6320, 3443.969
898.7580, 3107.376
899.8840, 2733.961
901.0090, 2488.973
902.1340, 2189.803
903.2590, 1954.667
904.3840, 1772.704
905.5090, 1537.670
906.6340, 1512.811
907.7580, 1342.724
908.8820, 1313.664
910.0060, 1269.557
911.1300, 1124.723
912.2540, 1144.211
913.3780, 1099.625
914.5010, 901.5142
915.6250, 1014.476
916.7480, 928.6226
917.8710, 945.6499
918.9940, 777.1143
920.1160, 763.7607
921.2390, 647.2900
922.3610, 661.6846
923.4840, 622.1875
924.6060, 553.0352
925.7280, 564.7207
926.8490, 620.5698
927.9710, 514.6973
929.0930, 469.5449
930.2140, 381.6006
931.3350, 342.4736
932.4560, 415.2510
933.5770, 350.0781
934.6980, 402.9678
935.8180, 373.3628
936.9380, 397.6055
938.0590, 284.1904
939.1790, 305.6226
940.2990, 310.2900
941.4180, 329.8105
942.5380, 317.6045
943.6570, 264.4111
944.7770, 328.9893
945.8960, 410.4243
947.0150, 274.8242
948.1340, 284.5366
949.2520, 234.2827
950.3710, 363.3081
951.4890, 240.0356
952.6070, 308.5020
953.7260, 186.2109
954.8430, 204.7603
955.9610, 200.3862
957.0790, 106.1968
958.1960, 102.5288
959.3130, 130.9863
960.4310, 20.42188
961.5480, 19.24756
962.6640, 57.14746
963.7810, 8.646484
964.8970, 6.636719
966.0140, 53.46387
967.1300, 31.70020
968.2460, 4.400391
969.3620, 27.06934
970.4780, 15.32227
971.5930, 77.20898
972.7090, 135.7500
973.8240, 201.7568
974.9390, 116.6309
976.0540, 112.2461
977.1690, 235.9170
978.2830, 142.5732
979.3980, 238.3662
980.5120, 172.6113
981.6260, 328.2314
982.7400, 287.5566
983.8540, 284.6387
984.9680, 455.0049
986.0820, 444.0264
987.1950, 380.0859
988.3080, 438.5820
989.4210, 485.2539
990.5340, 502.1387
991.6470, 387.7402
992.7600, 464.8564
993.8720, 497.0303
994.9850, 564.1582
996.0970, 629.9658
997.2090, 743.5039
998.3210, 848.8564
999.4320, 955.6416
1000.544, 1080.592
1001.655, 1154.084
1002.767, 1208.390
1003.878, 1216.207
1004.989, 1285.549
1006.100, 1252.015
1007.210, 1049.501
1008.321, 994.1582
1009.431, 912.3877
1010.541, 893.5635
1011.651, 759.4688
1012.761, 744.1084
1013.871, 663.1143
1014.980, 683.8760
1016.090, 545.7871
1017.199, 530.8643
1018.308, 431.6709
1019.417, 423.4004
1020.526, 308.0020
1021.635, 291.8652
1022.743, 250.9502
1023.852, 215.1592
1024.960, 227.7363
1026.068, 140.5938
1027.176, 251.1113
1028.283, 156.1914
1029.391, 205.6777
1030.498, 157.4873
1031.606, 165.1230
1032.713, 111.6465
1033.820, 70.01172
1034.927, 81.92188
1036.033, 112.1260
1037.140, 67.70801
1038.246, 84.40625
1039.353, 18.18164
1040.459, 89.07812
1041.564, 8.744141
1042.670, 19.41113
1043.776, 95.00977
1044.881, 46.60547
1045.987, 50.94922
1047.092, 6.791016
1048.197, 61.78027
1049.302, 33.97363
1050.406, 50.47754
1051.511, 11.95605
1052.615, 74.08691
1053.720, 77.03613
1054.824, 91.93359
1055.928, 0.6289060
1057.031, 22.18262
1058.135, 11.24316
1059.238, 151.1055
1060.342, 47.74121
1061.445, 55.64453
1062.548, 47.48340
1063.651, 30.58008
1064.754, 1.398438
1065.856, 42.15039
1066.959, 28.98438
1068.061, 3.163086
1069.163, 67.53223
1070.265, 29.41211
1071.367, 34.17285
1072.469, 99.96484
1073.570, 104.7490
1074.671, 205.5459
1075.773, 178.2500
1076.874, 206.7529
1077.975, 215.7529
1079.075, 198.4316
1080.176, 335.9102
1081.276, 108.1826
1082.377, 62.07910
1083.477, 253.5938
1084.577, 104.1270
1085.677, 206.8164
1086.777, 66.77832
1087.876, 170.6670
1088.975, 29.51758
1090.075, 183.7725
1091.174, 141.6094
1092.273, 129.3877
1093.372, 9.397461
1094.470, 81.15723
1095.569, 76.57520
1096.667, 25.57324
1097.765, 15.40234
1098.863, 57.84277
1099.961, 20.37793
1101.059, 27.82617
1102.157, 132.1338
1103.254, 50.13184
1104.351, 67.35352
1105.449, 115.6230
1106.546, 115.9600
1107.642, 132.3271
1108.739, 1.301758
1109.836, 95.57031
1110.932, 7.138672
1112.028, 127.8535
1113.124, 24.17773
1114.220, 69.16309
1115.316, 85.37988
1116.412, 52.73535
1117.507, 99.90430
1118.603, 12.62500
1119.698, 13.22949
1120.793, 264.0156
1121.888, 4.945313
1122.983, 86.23828
1124.077, 40.24805
1125.172, 317.0732
1126.266, 4.727539
1127.360, 148.2119
1128.454, 63.52734
1129.548, 255.6738
1130.642, 103.6582
1131.735, 99.00977
1132.829, 48.08887
1133.922, 155.8457
1135.015, 235.4561
1136.108, 131.3340
1137.201, 275.7129
1138.294, 248.6934
1139.386, 185.2227
1140.478, 261.3379
1141.571, 248.2744
1142.663, 285.4658
1143.755, 316.8174
1144.846, 435.6328
1145.938, 226.7227
1147.030, 161.9141
1148.121, 299.4395
1149.212, 332.2168
1150.303, 319.9590
1151.394, 298.2178
1152.485, 316.7227
1153.575, 232.8760
1154.666, 289.5947
1155.756, 395.2812
1156.846, 292.6904
1157.936, 336.2793
1159.026, 403.8408
1160.116, 273.2129
1161.205, 403.1123
1162.295, 413.0361
1163.384, 408.4834
1164.473, 171.3652
1165.562, 245.8398
1166.651, 379.2627
1167.739, 244.3799
1168.828, 435.2344
1169.916, 462.5605
1171.005, 451.8145
1172.093, 428.1689
1173.181, 382.4902
1174.268, 235.6807
1175.356, 484.2275
1176.443, 464.4727
1177.531, 311.8184
1178.618, 337.5000
1179.705, 219.2148
1180.792, 340.8027
1181.879, 325.6016
1182.965, 390.5371
1184.052, 391.6680
1185.138, 274.1270
1186.224, 348.4785
1187.310, 281.3809
1188.396, 230.4980
1189.482, 230.0117
1190.567, 116.2129
1191.653, 212.5684
1192.738, 134.8730
1193.823, 214.2832
1194.908, 111.1016
1195.993, 188.1484
1197.077, 310.7637
1198.162, 228.3555
1199.246, 89.56445
1200.331, 181.2207
1201.415, 4.304688
1202.499, 331.5254
1203.582, 190.0898
1204.666, 202.9414
1205.750, 1.792969
1206.833, 83.79492
1207.916, 222.0840
1208.999, 93.98438
1210.082, 193.9355
1211.165, 253.3066
1212.248, 193.0723
1213.330, 4.992188
1214.412, 224.4199
1215.495, 172.3281
1216.577, 318.4805
1217.658, 164.9805
1218.740, 118.9082
1219.822, 115.1152
1220.903, 160.0605
1221.985, 237.6621
1223.066, 204.7559
1224.147, 187.1738
1225.228, 89.60156
1226.308, 276.6973
1227.389, 204.5957
1228.469, 59.22656
1229.550, 296.2988
1230.630, 122.4922
1231.710, 236.8906
1232.790, 217.9082
1233.869, 346.4023
1234.949, 193.7402
1236.028, 156.7012
1237.108, 10.69531
1238.187, 328.0742
1239.266, 112.8086
1240.344, 134.8672
1241.423, 98.27344
1242.502, 27.06641
1243.580, 65.93945
1244.658, 0.0000000E+00
##END=



