##NAMES=Grossular
##RRUFFID=R060442
##IDEAL CHEMISTRY=Ca_3_Al_2_(SiO_4_)_3_
##LOCALITY=Pakistan(?)
##OWNER=RRUFF
##SOURCE=Gemological Institute of America
##DESCRIPTION=Orange crystals
##STATUS=The identification of this mineral has been confirmed by X-ray diffraction and chemical analysis
##URL=rruff.info/R060442
##MEASURED CHEMISTRY=(Ca_2.85_Fe^2+^_0.15_)_Σ=3_(Al_1.85_Fe^3+^_0.15_)_Σ=2_(Si_1.00_O_4_)_3_; trace amounts of Ti, Mg
##PIN_ID=M01870
##ORIENTATION=Laser parallel to a* (1 0 0). Fiducial mark perpendicular to laser is parallel to c [0 0 1]
129.0000, 0.0000000E+00
130.2340, 13.96570
131.4670, 106.7118
132.7000, 69.59229
133.9330, 3.495117
135.1660, 33.97681
136.3990, 50.61169
137.6310, 83.96411
138.8640, 109.7350
140.0960, 71.02893
141.3280, 73.65698
142.5600, 33.28406
143.7910, 68.68616
145.0230, 13.71912
146.2540, 43.28735
147.4850, 68.32556
148.7160, 110.5194
149.9470, 166.4116
151.1780, 101.9175
152.4080, 125.7949
153.6380, 96.62915
154.8690, 123.4641
156.0980, 97.33362
157.3280, 91.26465
158.5580, 100.2783
159.7870, 85.39087
161.0170, 122.6155
162.2460, 164.9629
163.4750, 245.4421
164.7030, 274.0610
165.9320, 516.8259
167.1600, 662.6479
168.3890, 966.2974
169.6170, 1370.109
170.8450, 1645.007
172.0730, 2007.109
173.3000, 2493.291
174.5280, 3301.316
175.7550, 3944.938
176.9820, 4676.754
178.2090, 4857.757
179.4350, 4505.942
180.6620, 3852.305
181.8880, 3098.841
183.1150, 2427.544
184.3410, 1784.414
185.5670, 1321.446
186.7920, 1127.634
188.0180, 902.9736
189.2430, 696.4619
190.4690, 577.0977
191.6940, 463.8789
192.9180, 453.8044
194.1430, 288.8740
195.3680, 273.0862
196.5920, 227.4412
197.8160, 124.9382
199.0400, 197.5771
200.2640, 191.3579
201.4880, 114.2803
202.7110, 75.32251
203.9350, 26.40234
205.1580, 12.48242
206.3810, 37.32397
207.6040, 98.10913
208.8270, 41.83154
210.0490, 41.46899
211.2710, 19.00781
212.4940, 53.43799
213.7160, 15.74121
214.9370, 19.92017
216.1590, 36.00488
217.3810, 8.985596
218.6020, 6.049316
219.8230, 53.81274
221.0440, 6.400391
222.2650, 86.68921
223.4860, 34.05200
224.7060, 78.48828
225.9260, 161.9980
227.1470, 177.5823
228.3670, 224.2422
229.5860, 323.9788
230.8060, 398.7927
232.0260, 522.6848
233.2450, 578.6558
234.4640, 681.7058
235.6830, 773.8364
236.9020, 922.0469
238.1200, 982.3381
239.3390, 928.7102
240.5570, 1051.160
241.7750, 1008.651
242.9930, 1046.179
244.2110, 1126.764
245.4290, 1117.413
246.6460, 987.1292
247.8630, 812.9214
249.0810, 733.7891
250.2980, 563.7419
251.5140, 603.7800
252.7310, 450.9031
253.9470, 364.1118
255.1640, 344.4062
256.3800, 407.7874
257.5960, 367.2561
258.8120, 587.8130
260.0270, 744.4600
261.2430, 574.1970
262.4580, 533.0256
263.6730, 550.9470
264.8880, 660.9612
266.1030, 753.0693
267.3170, 792.2720
268.5320, 858.5701
269.7460, 899.9626
270.9600, 1013.450
272.1740, 1073.033
273.3880, 1153.711
274.6010, 1218.484
275.8150, 1285.006
277.0280, 1304.833
278.2410, 1125.878
279.4540, 1170.087
280.6670, 1035.679
281.8790, 936.1799
283.0920, 827.8101
284.3040, 886.5625
285.5160, 856.4312
286.7280, 871.4094
287.9400, 770.6099
289.1510, 737.1394
290.3630, 630.5923
291.5740, 541.7327
292.7850, 476.8838
293.9960, 404.6223
295.2070, 286.7522
296.4170, 303.1958
297.6280, 256.8867
298.8380, 223.9727
300.0480, 273.1685
301.2580, 364.2512
302.4680, 472.6919
303.6770, 514.8398
304.8870, 600.0601
306.0960, 669.3525
307.3050, 707.7168
308.5140, 763.1526
309.7230, 880.6597
310.9310, 875.2371
312.1400, 1031.885
313.3480, 1064.593
314.5560, 974.2876
315.7640, 1059.007
316.9720, 1027.761
318.1790, 995.5684
319.3870, 1019.431
320.5940, 1019.772
321.8010, 1084.324
323.0080, 1077.378
324.2150, 1122.502
325.4210, 1169.698
326.6280, 1305.961
327.8340, 1238.294
329.0400, 1354.695
330.2460, 1293.164
331.4510, 1299.699
332.6570, 1313.301
333.8620, 1328.969
335.0680, 1358.254
336.2730, 1375.500
337.4780, 1485.362
338.6820, 1597.288
339.8870, 1792.277
341.0910, 1870.329
342.2950, 2057.442
343.5000, 2224.617
344.7030, 2425.854
345.9070, 2722.151
347.1110, 2997.508
348.3140, 3271.925
349.5170, 3691.401
350.7200, 4217.433
351.9230, 4868.688
353.1260, 5612.607
354.3290, 6614.864
355.5310, 8042.221
356.7330, 9684.428
357.9350, 11689.50
359.1370, 14000.95
360.3390, 16824.35
361.5400, 20050.28
362.7420, 24055.39
363.9430, 28549.57
365.1440, 33194.09
366.3450, 37036.37
367.5460, 40378.71
368.7460, 42259.12
369.9470, 44796.57
371.1470, 46660.09
372.3470, 47713.65
373.5470, 46920.29
374.7460, 43501.98
375.9460, 38198.73
377.1450, 32095.55
378.3450, 26050.44
379.5440, 20853.42
380.7430, 16514.46
381.9410, 13162.58
383.1400, 10678.78
384.3380, 8707.070
385.5370, 7146.441
386.7350, 5961.898
387.9320, 5124.446
389.1300, 4436.084
390.3280, 3956.811
391.5250, 3489.623
392.7220, 3051.521
393.9190, 2739.497
395.1160, 2612.561
396.3130, 2434.703
397.5100, 2363.926
398.7060, 2271.245
399.9020, 2255.647
401.0980, 2304.133
402.2940, 2398.699
403.4900, 2582.330
404.6860, 2805.042
405.8810, 3276.823
407.0760, 3683.670
408.2710, 4013.588
409.4660, 4595.560
410.6610, 5091.595
411.8550, 5622.700
413.0500, 5886.862
414.2440, 5668.093
415.4380, 4988.391
416.6320, 4103.754
417.8260, 3224.181
419.0190, 2500.664
420.2130, 1882.441
421.4060, 1390.825
422.5990, 961.2427
423.7920, 654.4810
424.9850, 491.1133
426.1770, 305.0156
427.3700, 185.9834
428.5620, 118.0193
429.7540, 67.12085
430.9460, 8.719727
432.1380, 23.50708
433.3290, 59.24170
434.5210, 42.93823
435.7120, 39.59033
436.9030, 58.19653
438.0940, 70.76465
439.2850, 77.75220
440.4750, 83.51636
441.6660, 60.26929
442.8560, 94.70557
444.0460, 5.116699
445.2360, 23.48486
446.4260, 36.18872
447.6160, 136.9060
448.8050, 144.6650
449.9940, 245.4663
451.1830, 329.3088
452.3720, 310.1917
453.5610, 446.1140
454.7500, 482.0757
455.9380, 461.0762
457.1260, 444.1152
458.3150, 526.1926
459.5020, 432.3083
460.6900, 457.4617
461.8780, 424.6526
463.0650, 386.8809
464.2530, 422.1458
465.4400, 432.4470
466.6270, 407.7842
467.8130, 422.1562
469.0000, 440.8928
470.1870, 437.5789
471.3730, 500.4822
472.5590, 442.9917
473.7450, 477.5347
474.9310, 455.1106
476.1160, 499.7185
477.3020, 362.3584
478.4870, 364.0298
479.6720, 294.7319
480.8570, 324.4648
482.0420, 254.2280
483.2270, 370.0210
484.4110, 357.8430
485.5960, 403.6938
486.7800, 433.5735
487.9640, 486.4807
489.1480, 642.4153
490.3310, 720.3777
491.5150, 778.3662
492.6980, 866.3813
493.8810, 941.4253
495.0640, 1025.500
496.2470, 1062.616
497.4300, 1129.764
498.6120, 1135.757
499.7950, 1125.148
500.9770, 1135.384
502.1590, 1104.646
503.3410, 1111.934
504.5220, 1098.248
505.7040, 970.5847
506.8850, 990.9426
508.0660, 889.3289
509.2470, 891.7358
510.4280, 677.1624
511.6090, 666.6086
512.7890, 611.0740
513.9700, 428.4407
515.1500, 521.2317
516.3300, 572.5488
517.5100, 576.1416
518.6900, 658.5630
519.8690, 714.7502
521.0490, 742.2124
522.2280, 923.8223
523.4070, 1020.896
524.5860, 1044.765
525.7640, 1101.115
526.9430, 908.2900
528.1210, 838.9421
529.3000, 861.3877
530.4780, 855.2292
531.6560, 1070.952
532.8330, 1194.851
534.0110, 1555.492
535.1880, 2015.434
536.3650, 2629.698
537.5430, 3610.830
538.7190, 4725.658
539.8960, 5974.198
541.0730, 7318.865
542.2490, 9045.799
543.4250, 10812.62
544.6020, 12412.40
545.7780, 13127.77
546.9530, 12594.61
548.1290, 10981.66
549.3040, 8941.872
550.4800, 7040.419
551.6550, 5302.333
552.8300, 3915.608
554.0040, 2906.979
555.1790, 2188.474
556.3540, 1731.519
557.5280, 1408.367
558.7020, 1325.959
559.8760, 1143.290
561.0500, 1093.678
562.2230, 977.0186
563.3970, 955.9204
564.5700, 985.4023
565.7430, 887.8149
566.9160, 947.3735
568.0890, 949.9429
569.2620, 932.4080
570.4340, 869.3496
571.6070, 832.5967
572.7790, 879.2439
573.9510, 858.1301
575.1230, 852.9507
576.2940, 835.6995
577.4660, 873.7878
578.6370, 825.7664
579.8080, 756.4351
580.9790, 806.0139
582.1500, 891.0563
583.3210, 913.7146
584.4910, 997.2917
585.6620, 1037.761
586.8320, 1100.388
588.0020, 1104.857
589.1720, 1122.183
590.3410, 1102.588
591.5110, 953.8420
592.6800, 871.9811
593.8500, 773.0967
595.0190, 650.1885
596.1880, 627.2568
597.3560, 598.3123
598.5250, 638.3318
599.6930, 654.3264
600.8620, 639.2959
602.0300, 729.2402
603.1970, 835.1584
604.3650, 892.0511
605.5330, 974.9174
606.7000, 1055.757
607.8680, 1058.570
609.0350, 1116.356
610.2020, 1120.114
611.3680, 1132.845
612.5350, 1226.547
613.7010, 1187.222
614.8680, 1272.868
616.0340, 1308.485
617.2000, 1426.074
618.3660, 1457.633
619.5310, 1522.163
620.6970, 1639.663
621.8620, 1645.132
623.0270, 1769.572
624.1920, 1700.982
625.3570, 1786.360
626.5220, 1714.708
627.6860, 1686.024
628.8500, 1668.310
630.0140, 1499.563
631.1780, 1326.785
632.3420, 1160.975
633.5060, 1050.133
634.6700, 830.2577
635.8330, 754.3501
636.9960, 601.4095
638.1590, 504.4360
639.3220, 465.4288
640.4850, 432.3882
641.6470, 368.3137
642.8100, 320.2052
643.9720, 302.0625
645.1340, 249.2223
646.2960, 166.6735
647.4570, 164.4271
648.6190, 140.1456
649.7800, 75.82922
650.9420, 108.4773
652.1030, 86.08997
653.2640, 15.66724
654.4240, 59.18945
655.5850, 42.67151
656.7450, 36.10840
657.9060, 15.50220
659.0660, 11.18530
660.2260, 30.93872
661.3850, 32.77319
662.5450, 39.68982
663.7040, 51.90552
664.8640, 59.18689
666.0230, 71.97974
667.1820, 79.27515
668.3410, 91.67798
669.4990, 97.79565
670.6580, 79.82861
671.8160, 82.57043
672.9740, 78.42114
674.1320, 51.37891
675.2900, 88.42920
676.4480, 54.59143
677.6050, 65.84790
678.7630, 125.2043
679.9200, 79.69165
681.0770, 84.28601
682.2340, 66.98938
683.3900, 18.79260
684.5470, 76.67004
685.7030, 36.65186
686.8590, 24.71680
688.0150, 43.85828
689.1710, 15.91418
690.3270, 24.36780
691.4830, 46.72522
692.6380, 1.168945
693.7930, 51.67517
694.9480, 45.26965
696.1030, 42.94873
697.2580, 39.71057
698.4130, 4.552979
699.5670, 10.54297
700.7210, 38.41418
701.8750, 16.44971
703.0290, 58.55164
704.1830, 5.258789
705.3370, 29.98462
706.4900, 15.29968
707.6430, 30.67798
708.7970, 23.47791
709.9490, 2.357544
711.1020, 12.79016
712.2550, 0.1772460
713.4070, 43.51440
714.5600, 15.81885
715.7120, 5.083740
716.8640, 28.30493
718.0160, 23.49194
719.1670, 15.64587
720.3190, 31.76636
721.4700, 32.85791
722.6210, 32.91797
723.7720, 52.95166
724.9230, 18.95178
726.0740, 54.91565
727.2250, 69.84619
728.3750, 54.74487
729.5250, 73.61096
730.6750, 103.4462
731.8250, 100.2516
732.9750, 131.0275
734.1240, 148.7742
735.2740, 86.49170
736.4230, 105.1799
737.5720, 115.2485
738.7210, 144.4707
739.8700, 168.0740
741.0190, 207.6490
742.1670, 252.1963
743.3150, 260.7163
744.4630, 286.2087
745.6110, 256.6743
746.7590, 336.1129
747.9070, 361.5250
749.0540, 353.9108
750.2020, 425.2703
751.3490, 476.6040
752.4960, 529.9121
753.6430, 545.1948
754.7890, 633.4524
755.9360, 696.6848
757.0820, 718.8928
758.2280, 790.0767
759.3740, 937.2360
760.5200, 948.3717
761.6660, 1120.484
762.8120, 1147.572
763.9570, 1295.637
765.1020, 1366.680
766.2470, 1447.700
767.3920, 1527.698
768.5370, 1625.673
769.6810, 1730.627
770.8260, 1717.559
771.9700, 1865.470
773.1140, 1825.360
774.2580, 1839.229
775.4020, 1887.078
776.5460, 1760.907
777.6890, 1740.716
778.8320, 1682.506
779.9750, 1615.277
781.1180, 1571.028
782.2610, 1542.761
783.4040, 1493.615
784.5460, 1432.182
785.6890, 1418.870
786.8310, 1419.543
787.9730, 1380.207
789.1150, 1399.862
790.2560, 1379.512
791.3980, 1444.277
792.5390, 1421.627
793.6810, 1648.467
794.8220, 1679.044
795.9630, 1742.799
797.1030, 1972.808
798.2440, 2111.560
799.3840, 2290.168
800.5240, 2579.325
801.6650, 2750.699
802.8040, 3055.596
803.9440, 3364.673
805.0840, 3640.285
806.2230, 4110.120
807.3630, 4496.578
808.5020, 4877.173
809.6410, 5230.611
810.7790, 5681.934
811.9180, 6119.741
813.0570, 6581.849
814.1950, 6984.096
815.3330, 7436.648
816.4710, 7838.120
817.6090, 8177.211
818.7470, 8668.660
819.8840, 9099.223
821.0220, 9573.838
822.1590, 9847.861
823.2960, 9921.430
824.4330, 10088.79
825.5690, 10051.99
826.7060, 9924.866
827.8420, 9676.370
828.9790, 9302.520
830.1150, 8934.585
831.2510, 8578.531
832.3860, 8342.928
833.5220, 7997.540
834.6570, 7723.412
835.7930, 7711.559
836.9280, 7419.650
838.0630, 7294.799
839.1980, 7148.395
840.3320, 6918.421
841.4670, 6967.524
842.6010, 6881.492
843.7350, 6937.446
844.8690, 6928.514
846.0030, 7135.101
847.1370, 7315.392
848.2700, 7224.162
849.4040, 7375.467
850.5370, 7475.013
851.6700, 7609.045
852.8030, 7674.819
853.9360, 7868.229
855.0680, 8064.581
856.2000, 8312.812
857.3330, 8596.398
858.4650, 8874.048
859.5970, 9319.731
860.7290, 9820.708
861.8600, 10408.24
862.9920, 11361.28
864.1230, 12378.47
865.2540, 13650.57
866.3850, 15085.82
867.5160, 17279.17
868.6460, 20056.55
869.7770, 22956.94
870.9070, 26703.36
872.0370, 31122.77
873.1670, 35880.22
874.2970, 41300.69
875.4270, 46031.19
876.5570, 50644.68
877.6860, 54370.21
878.8150, 56863.76
879.9440, 57650.33
881.0730, 55956.92
882.2020, 53046.53
883.3300, 48852.15
884.4590, 43593.80
885.5870, 38126.48
886.7150, 32765.17
887.8430, 27987.88
888.9710, 23881.61
890.0990, 20221.36
891.2260, 17050.14
892.3530, 14695.94
893.4810, 12445.76
894.6080, 10888.60
895.7340, 9692.466
896.8610, 8507.354
897.9880, 7585.263
899.1140, 6922.197
900.2400, 6330.153
901.3660, 5860.133
902.4920, 5448.133
903.6180, 5235.160
904.7430, 4806.208
905.8690, 4631.281
906.9940, 4323.377
908.1190, 4053.497
909.2440, 3833.641
910.3690, 3650.809
911.4930, 3426.001
912.6180, 3239.219
913.7420, 3017.542
914.8660, 2855.808
915.9900, 2734.099
917.1140, 2510.414
918.2380, 2480.335
919.3610, 2268.347
920.4850, 2160.198
921.6080, 2020.131
922.7310, 1958.915
923.8540, 1834.232
924.9760, 1766.035
926.0990, 1680.944
927.2210, 1653.343
928.3440, 1541.122
929.4660, 1459.037
930.5880, 1438.217
931.7090, 1379.998
932.8310, 1279.242
933.9520, 1246.326
935.0740, 1236.823
936.1950, 1227.853
937.3160, 1257.140
938.4360, 1260.837
939.5570, 1288.185
940.6780, 1310.710
941.7980, 1337.933
942.9180, 1481.189
944.0380, 1420.563
945.1580, 1462.174
946.2780, 1539.954
947.3970, 1509.533
948.5170, 1536.602
949.6360, 1483.666
950.7550, 1286.847
951.8740, 1216.527
952.9930, 1152.264
954.1110, 1082.664
955.2300, 963.7097
956.3480, 783.0120
957.4660, 683.1121
958.5840, 565.5056
959.7020, 533.4409
960.8190, 498.8704
961.9370, 437.9988
963.0540, 398.9849
964.1710, 397.0100
965.2880, 460.3350
966.4050, 439.7285
967.5220, 496.9658
968.6380, 601.2969
969.7550, 655.0588
970.8710, 709.4822
971.9870, 854.3757
973.1030, 961.2546
974.2190, 1008.741
975.3340, 1079.529
976.4500, 1218.920
977.5650, 1284.638
978.6800, 1481.808
979.7950, 1524.724
980.9100, 1579.929
982.0250, 1690.218
983.1390, 1717.345
984.2530, 1816.358
985.3680, 1897.412
986.4820, 1974.924
987.5950, 1969.892
988.7090, 1914.826
989.8230, 2024.325
990.9360, 2000.296
992.0490, 2062.287
993.1620, 2187.297
994.2750, 2104.325
995.3880, 2201.370
996.5010, 2296.435
997.6130, 2346.515
998.7250, 2369.610
999.8370, 2583.722
1000.949, 2720.849
1002.061, 2717.990
1003.173, 2904.145
1004.284, 3030.313
1005.396, 3084.496
1006.507, 3014.692
1007.618, 2992.902
1008.729, 2801.125
1009.839, 2630.361
1010.950, 2218.611
1012.060, 1956.872
1013.171, 1623.146
1014.281, 1360.432
1015.391, 1067.731
1016.500, 895.0416
1017.610, 750.3640
1018.719, 596.6980
1019.829, 440.0431
1020.938, 430.3997
1022.047, 311.7675
1023.156, 301.1462
1024.264, 291.5358
1025.373, 236.9359
1026.481, 218.3463
1027.589, 198.7670
1028.697, 196.1978
1029.805, 183.6392
1030.913, 170.0913
1032.020, 153.5540
1033.128, 137.0496
1034.235, 110.5087
1035.342, 104.9993
1036.449, 83.49866
1037.556, 77.00623
1038.663, 95.52283
1039.769, 39.04810
1040.875, 87.58508
1041.981, 46.13000
1043.087, 22.68237
1044.193, 79.24280
1045.299, 44.81055
1046.404, 5.614624
1047.510, 19.96570
1048.615, 8.552246
1049.720, 22.14526
1050.825, 27.25439
1051.930, 28.65454
1053.034, 22.05640
1054.139, 23.45618
1055.243, 43.85352
1056.347, 53.25891
1057.451, 60.67871
1058.555, 72.17847
1059.658, 35.57898
1060.762, 71.04932
1061.865, 55.54480
1062.968, 19.05884
1064.071, 81.57080
1065.174, 71.11719
1066.277, 10.69385
1067.380, 55.27014
1068.482, 45.81921
1069.584, 10.43787
1070.686, 18.06018
1071.788, 44.69043
1072.890, 61.34253
1073.992, 68.21777
1075.093, 70.74548
1076.194, 68.50269
1077.295, 54.29797
1078.396, 23.12427
1079.497, 33.95764
1080.598, 23.80493
1081.698, 5.376343
1082.799, 5.544922
1083.899, 11.57019
1084.999, 20.68140
1086.099, 3.211182
1087.199, 4.931152
1088.298, 30.02856
1089.398, 8.965576
1090.497, 11.91663
1091.596, 18.88013
1092.695, 7.132568
1093.794, 17.13599
1094.892, 14.86743
1095.991, 16.89551
1097.089, 13.94971
1098.187, 18.97119
1099.285, 60.11792
1100.383, 3.741577
1101.481, 33.41736
1102.579, 5.384888
1103.676, 16.83105
1104.773, 15.07788
1105.870, 23.34595
1106.967, 10.65027
1108.064, 18.98486
1109.161, 35.64551
1110.257, 12.73560
1111.353, 32.85107
1112.449, 10.57520
1113.545, 25.96582
1114.641, 9.490112
1115.737, 12.99048
1116.832, 19.53198
1117.928, 26.90515
1119.023, 48.32397
1120.118, 62.72974
1121.213, 32.12366
1122.308, 109.4991
1123.402, 87.86230
1124.497, 102.2126
1125.591, 133.4420
1126.685, 156.1804
1127.779, 155.1855
1128.873, 196.4834
1129.967, 177.7677
1131.060, 99.03833
1132.153, 171.2955
1133.247, 177.5396
1134.340, 258.7695
1135.433, 222.9855
1136.525, 215.1869
1137.618, 239.3743
1138.710, 249.5470
1139.802, 301.7051
1140.895, 237.8484
1141.987, 267.9771
1143.078, 332.0905
1144.170, 300.1888
1145.261, 365.2719
1146.353, 388.3395
1147.444, 367.3916
1148.535, 388.4280
1149.626, 391.4489
1150.716, 379.4536
1151.807, 388.0376
1152.897, 416.8577
1153.988, 361.4642
1155.078, 461.4614
1156.168, 409.4283
1157.257, 363.3362
1158.347, 373.2974
1159.436, 390.2198
1160.526, 370.2800
1161.615, 366.4685
1162.704, 386.5475
1163.793, 375.5750
1164.881, 384.5422
1165.970, 382.9277
1167.058, 384.1152
1168.147, 365.8599
1169.235, 345.7736
1170.323, 313.7197
1171.410, 315.0300
1172.498, 293.2638
1173.585, 327.8615
1174.673, 272.7017
1175.760, 310.4972
1176.847, 313.1971
1177.934, 282.8567
1179.020, 258.4684
1180.107, 263.1615
1181.193, 271.0793
1182.279, 287.1663
1183.365, 272.0632
1184.451, 263.4521
1185.537, 190.3837
1186.623, 227.7246
1187.708, 185.2803
1188.793, 176.4366
1189.878, 159.9409
1190.963, 148.6797
1192.048, 156.7090
1193.133, 151.9895
1194.217, 153.9955
1195.302, 180.3224
1196.386, 190.1045
1197.470, 180.5983
1198.554, 109.9022
1199.638, 174.9484
1200.721, 214.6143
1201.805, 228.0941
1202.888, 137.1295
1203.971, 178.0137
1205.054, 164.9718
1206.137, 149.7797
1207.219, 208.4496
1208.302, 131.6324
1209.384, 193.9634
1210.466, 201.3855
1211.548, 232.1868
1212.630, 238.0175
1213.712, 219.5194
1214.794, 250.4905
1215.875, 176.5001
1216.956, 238.8445
1218.037, 284.7073
1219.118, 226.9861
1220.199, 256.5149
1221.280, 287.6747
1222.360, 279.7810
1223.441, 241.7140
1224.521, 252.7490
1225.601, 226.7194
1226.681, 257.5468
1227.760, 269.5986
1228.840, 292.2421
1229.919, 292.4832
1230.999, 300.8867
1232.078, 288.2485
1233.157, 254.1715
1234.236, 244.5521
1235.314, 304.1613
1236.393, 259.8778
1237.471, 258.3268
1238.549, 289.2461
1239.627, 278.8005
1240.705, 263.1577
1241.783, 273.6643
1242.860, 329.9459
1243.938, 272.0046
1245.015, 274.2549
1246.092, 344.6573
1247.169, 273.9974
1248.246, 275.9110
1249.323, 283.3409
1250.399, 349.9139
1251.475, 318.8286
1252.552, 294.2805
1253.628, 355.7164
1254.703, 295.1396
1255.779, 341.5504
1256.855, 323.9487
1257.930, 288.3345
1259.005, 298.7076
1260.080, 270.0685
1261.155, 278.5020
1262.230, 357.0100
1263.305, 241.3353
1264.379, 291.6488
1265.454, 214.9517
1266.528, 245.3004
1267.602, 245.5793
1268.676, 165.8462
1269.750, 232.1411
1270.823, 173.3846
1271.897, 122.6165
1272.970, 137.8364
1274.043, 147.0449
1275.116, 123.2419
1276.189, 102.4275
1277.261, 186.6016
1278.334, 97.76440
1279.406, 130.9161
1280.478, 93.06714
1281.550, 50.20691
1282.622, 79.33496
1283.694, 58.45361
1284.766, 61.56079
1285.837, 105.6571
1286.908, 54.74255
1287.979, 59.81689
1289.050, 28.88025
1290.121, 16.93140
1291.192, 22.96912
1292.262, 25.99414
1293.333, 41.00732
1294.403, 62.00916
1295.473, 54.00061
1296.543, 67.98181
1297.613, 27.95312
1298.682, 21.91333
1299.752, 0.1365970
1300.821, 33.79517
1301.890, 42.71582
1302.959, 24.62573
1304.028, 27.52380
1305.096, 42.41052
1306.165, 28.95837
1307.233, 54.15161
1308.301, 30.00623
1309.370, 8.849487
1310.437, 27.67944
1311.505, 51.50244
1312.573, 2.317139
1313.640, 1.882813
1314.708, 15.90796
1315.775, 68.69531
1316.842, 45.48254
1317.908, 16.26624
1318.975, 43.05505
1320.042, 8.838013
1321.108, 12.62695
1322.174, 10.58142
1323.240, 27.19983
1324.306, 51.99060
1325.372, 0.2208250
1326.438, 8.549194
1327.503, 54.27319
1328.568, 43.05029
1329.634, 91.82178
1330.699, 65.58228
1331.763, 17.33789
1332.828, 58.09802
1333.893, 7.868896
1334.957, 55.64990
1336.021, 12.44275
1337.085, 27.75793
1338.149, 25.97998
1339.213, 21.79248
1340.277, 36.56580
1341.340, 37.33374
1342.404, 57.59290
1343.467, 44.25342
1344.530, 54.60632
1345.593, 24.35449
1346.655, 6.902466
1347.718, 7.157349
1348.780, 21.55688
1349.843, 20.31958
1350.905, 1.942749
1351.967, 9.788574
1353.028, 67.51355
1354.090, 42.24158
1355.152, 15.97314
1356.213, 85.70752
1357.274, 63.43750
1358.335, 44.18359
1359.396, 68.92932
1360.457, 11.68481
1361.517, 27.43896
1362.578, 32.80139
1363.638, 58.95386
1364.698, 54.71704
1365.758, 40.48511
1366.818, 67.26038
1367.878, 7.031006
1368.937, 28.80688
1369.997, 18.57874
1371.056, 69.35608
1372.115, 50.13123
1373.174, 43.90771
1374.232, 50.68506
1375.291, 45.47205
1376.350, 64.25757
1377.408, 30.03894
1378.466, 70.81567
1379.524, 53.63379
1380.582, 71.42212
1381.640, 70.17224
1382.697, 88.93555
1383.754, 99.69519
1384.812, 66.45129
1385.869, 68.20398
1386.926, 61.95386
1387.983, 33.70068
1389.039, 13.69580
1390.096, 83.53210
1391.152, 68.33899
1392.208, 73.43384
1393.264, 40.16760
1394.320, 93.89917
1395.376, 90.62854
1396.431, 44.41150
1397.487, 71.13708
1398.542, 109.8611
1399.597, 87.60828
1400.652, 78.32935
1401.707, 100.0494
1402.762, 123.7747
1403.816, 127.4926
1404.871, 114.2096
1405.925, 59.92737
1406.979, 136.1086
1408.033, 173.8246
1409.086, 161.5151
1410.140, 103.5022
1411.194, 139.1615
1412.247, 100.8657
1413.300, 203.5831
1414.353, 125.2262
1415.406, 141.8887
1416.458, 160.3893
1417.511, 104.7455
1418.563, 143.1938
1419.616, 135.6775
1420.668, 124.2605
1421.720, 131.9336
1422.772, 128.2429
1423.823, 155.3213
1424.875, 125.8905
1425.926, 144.7574
1426.977, 126.4631
1428.028, 140.9023
1429.079, 85.37036
1430.130, 215.7239
1431.180, 181.0848
1432.231, 201.4971
1433.281, 157.7905
1434.331, 160.1720
1435.381, 188.4238
1436.431, 161.4863
1437.481, 172.9724
1438.530, 152.8674
1439.580, 162.3435
1440.629, 165.9485
1441.678, 182.4829
1442.727, 192.9128
1443.776, 133.1790
1444.824, 150.8210
1445.873, 109.7385
1446.921, 195.4585
1447.969, 183.2949
1449.017, 173.8989
1450.065, 149.3933
1451.113, 176.5417
1452.160, 173.8638
1453.208, 165.4365
1454.255, 163.1418
1455.302, 157.7388
1456.349, 159.6641
1457.396, 168.2461
1458.443, 142.1755
1459.489, 192.8296
1460.535, 118.3413
1461.582, 180.0015
1462.628, 151.4668
1463.674, 100.1479
1464.719, 156.8242
1465.765, 150.4219
1466.810, 142.6467
1467.856, 170.1116
1468.901, 72.68408
1469.946, 132.2637
1470.991, 104.7725
1472.035, 99.40869
1473.080, 129.0439
1474.124, 97.67505
1475.169, 75.30151
1476.213, 108.8018
1477.257, 120.1665
1478.300, 94.76733
1479.344, 119.2751
1480.388, 105.4285
1481.431, 98.38330
1482.474, 110.9585
1483.517, 76.52856
1484.560, 115.0928
1485.603, 58.63452
1486.645, 90.15259
1487.688, 93.66089
1488.730, 143.1621
1489.772, 69.65649
1490.814, 69.14917
1491.856, 92.64209
1492.898, 88.13037
1493.939, 99.61084
1494.981, 83.08325
1496.022, 100.5637
1497.063, 119.0439
1498.104, 71.52539
1499.145, 49.00903
1500.186, 57.49854
1501.226, 105.9939
1502.266, 110.5117
1503.307, 90.02710
1504.347, 37.56372
1505.387, 145.1084
1506.426, 56.64282
1507.466, 97.19824
1508.505, 142.8193
1509.545, 70.43677
1510.584, 53.10986
1511.623, 72.81934
1512.662, 97.53149
1513.700, 2.279785
1514.739, 27.06250
1515.777, 33.86011
1516.815, 2.333984
1517.854, 53.48047
1518.892, 78.30029
1519.929, 53.12793
1520.967, 38.97070
1522.004, 67.82568
1523.042, 115.6924
1524.079, 47.57153
1525.116, 71.46582
1526.153, 104.3782
1527.190, 53.31104
1528.226, 95.26660
1529.263, 93.24707
1530.299, 56.25562
1531.335, 32.70605
1532.371, 102.3657
1533.407, 42.47217
1534.443, 10.42896
1535.478, 73.60498
1536.514, 53.32080
1537.549, 76.37183
1538.584, 91.08643
1539.619, 107.4854
1540.654, 97.75586
1541.689, 102.9592
1542.723, 92.85107
1543.757, 97.71582
1544.792, 84.14551
1545.826, 77.78979
1546.860, 57.72632
1547.893, 34.73560
1548.927, 19.58081
1549.960, 1.340088
1550.994, 80.71045
1552.027, 87.36157
1553.060, 146.9868
1554.093, 132.7578
1555.126, 144.7651
1556.158, 66.19629
1557.191, 48.05981
1558.223, 49.06030
1559.255, 38.48169
1560.287, 16.10767
1561.319, 0.2116700
1562.350, 0.0000000E+00
##END=



