##NAMES=Grossular
##RRUFFID=R060278
##IDEAL CHEMISTRY=Ca_3_Al_2_(SiO_4_)_3_
##LOCALITY=Diakon, Kayes Region, Mali
##OWNER=RRUFF
##SOURCE=Herb Obodda
##DESCRIPTION=Dark brown dodecahedral single crystal
##STATUS=The identification of this mineral has been confirmed by X-ray diffraction and chemical analysis
##URL=rruff.info/R060278
##MEASURED CHEMISTRY=(Ca_2.93_Mg_0.05_Mn_0.02_)_Σ=3_(Al_1.19_Fe^3+^_0.78_Ti_0.03_)_Σ=2_((Si_0.99_Al_0.01_)_Σ=1_O_4_)_3_
##PIN_ID=L01488
##ORIENTATION=Laser parallel to -a* (-1 0 0). Fiducial mark perpendicular to laser is parallel to b [0 1 0]
197.5200, 0.0000000E+00
198.7430, 28.58154
199.9670, 156.9565
201.1900, 292.0063
202.4130, 304.2393
203.6360, 254.5381
204.8590, 219.1279
206.0820, 97.79541
207.3050, 5.907715
208.5270, 33.85498
209.7490, 15.89111
210.9710, 56.99219
212.1930, 20.96973
213.4150, 124.8350
214.6370, 79.30469
215.8580, 147.3228
217.0790, 236.7759
218.3010, 295.5527
219.5210, 352.5459
220.7420, 480.4556
221.9630, 541.8091
223.1830, 729.9204
224.4040, 925.9282
225.6240, 1052.790
226.8440, 1165.556
228.0640, 1379.224
229.2840, 1530.724
230.5030, 1682.993
231.7230, 1900.979
232.9420, 1925.643
234.1610, 1955.947
235.3800, 1906.842
236.5990, 1848.276
237.8170, 1778.603
239.0360, 1642.145
240.2540, 1551.383
241.4720, 1360.586
242.6900, 1191.171
243.9080, 1104.123
245.1250, 929.4248
246.3430, 834.0674
247.5600, 761.0381
248.7770, 731.3286
249.9940, 706.8438
251.2110, 756.8340
252.4280, 755.0615
253.6450, 813.0918
254.8610, 924.2065
256.0770, 924.1802
257.2930, 1057.467
258.5090, 1419.916
259.7250, 1734.531
260.9400, 1394.320
262.1560, 1226.288
263.3710, 1319.439
264.5860, 1448.776
265.8010, 1639.301
267.0160, 1737.075
268.2310, 1916.043
269.4450, 1929.201
270.6600, 1966.513
271.8740, 2094.860
273.0880, 2094.229
274.3020, 2125.615
275.5150, 2107.992
276.7290, 2094.377
277.9420, 2196.754
279.1550, 2201.193
280.3680, 2079.711
281.5810, 1897.317
282.7940, 1908.019
284.0070, 1820.819
285.2190, 1783.728
286.4310, 1785.747
287.6430, 1679.882
288.8550, 1812.135
290.0670, 1751.509
291.2790, 1868.008
292.4900, 1959.632
293.7020, 2122.384
294.9130, 2179.264
296.1240, 2336.276
297.3350, 2210.418
298.5450, 2200.694
299.7560, 2252.101
300.9660, 2308.642
302.1760, 2379.314
303.3860, 2421.122
304.5960, 2465.894
305.8060, 2411.151
307.0150, 2570.271
308.2250, 2617.577
309.4340, 2753.183
310.6430, 3128.358
311.8520, 3222.671
313.0610, 3478.473
314.2700, 3623.893
315.4780, 3611.278
316.6860, 3874.819
317.8940, 3849.545
319.1020, 3992.457
320.3100, 4014.557
321.5180, 3944.841
322.7250, 3901.310
323.9330, 3854.962
325.1400, 3942.795
326.3470, 3876.804
327.5540, 4092.985
328.7600, 4175.331
329.9670, 4276.842
331.1730, 4360.514
332.3800, 4513.345
333.5860, 4791.332
334.7920, 4696.686
335.9970, 5146.146
337.2030, 5539.574
338.4080, 5682.153
339.6140, 6349.877
340.8190, 6775.748
342.0240, 7598.762
343.2290, 8392.965
344.4330, 9501.965
345.6380, 10874.82
346.8420, 12698.57
348.0460, 14808.96
349.2500, 17137.50
350.4540, 20029.91
351.6580, 22771.23
352.8610, 25961.12
354.0650, 29057.97
355.2680, 32083.29
356.4710, 34390.46
357.6740, 36347.69
358.8760, 37836.77
360.0790, 38655.06
361.2810, 39666.54
362.4840, 41047.22
363.6860, 42360.07
364.8880, 44636.10
366.0900, 46734.30
367.2910, 48811.68
368.4930, 49510.22
369.6940, 48360.91
370.8950, 45741.75
372.0960, 41748.76
373.2970, 36461.90
374.4980, 31544.19
375.6980, 26611.62
376.8980, 22490.19
378.0990, 18897.89
379.2990, 16091.72
380.4980, 13424.68
381.6980, 11641.76
382.8980, 9946.972
384.0970, 8803.300
385.2960, 7863.751
386.4950, 6974.319
387.6940, 6463.003
388.8930, 5774.801
390.0920, 5496.712
391.2900, 5125.736
392.4880, 5132.870
393.6860, 4951.113
394.8840, 4572.464
396.0820, 4608.922
397.2800, 4388.484
398.4770, 4253.148
399.6750, 3848.909
400.8720, 3374.762
402.0690, 3067.707
403.2660, 2681.743
404.4620, 2062.877
405.6590, 1714.126
406.8550, 1294.500
408.0510, 974.0020
409.2480, 744.6494
410.4430, 531.4448
411.6390, 298.3955
412.8350, 191.5146
414.0300, 93.81104
415.2250, 71.72705
416.4200, 211.1016
417.6150, 144.3389
418.8100, 266.4048
420.0050, 208.3071
421.1990, 328.0566
422.3940, 225.6533
423.5880, 175.0957
424.7820, 233.6909
425.9750, 221.3062
427.1690, 225.5044
428.3630, 255.3257
429.5560, 130.9917
430.7490, 8.515137
431.9420, 75.19971
433.1350, 53.07568
434.3280, 268.1284
435.5200, 205.3550
436.7130, 262.7480
437.9050, 451.2891
439.0970, 438.9702
440.2890, 474.7798
441.4810, 470.7275
442.6720, 465.3237
443.8640, 471.9253
445.0550, 450.1587
446.2460, 469.4751
447.4370, 471.8677
448.6280, 460.5688
449.8180, 470.5825
451.0090, 446.4531
452.1990, 472.0552
453.3890, 470.6460
454.5790, 473.2100
455.7690, 392.7754
456.9590, 490.3369
458.1480, 357.9053
459.3380, 260.5391
460.5270, 369.2388
461.7160, 228.0034
462.9050, 161.8320
464.0940, 96.72266
465.2820, 112.6758
466.4700, 47.68994
467.6590, 22.76367
468.8470, 80.10400
470.0350, 5.075684
471.2220, 1.688965
472.4100, 22.60010
473.5970, 142.9443
474.7850, 201.3423
475.9720, 471.7944
477.1590, 696.2983
478.3460, 940.8418
479.5320, 1164.434
480.7190, 1443.075
481.9050, 1665.766
483.0910, 1837.505
484.2770, 1977.292
485.4630, 2034.125
486.6490, 2186.024
487.8340, 2097.989
489.0200, 2257.018
490.2050, 2208.114
491.3900, 2193.278
492.5750, 2099.509
493.7600, 2045.807
494.9440, 1964.171
496.1290, 1839.613
497.3130, 1800.120
498.4970, 1613.689
499.6810, 1544.333
500.8650, 1443.041
502.0480, 1316.806
503.2320, 1196.627
504.4150, 1100.505
505.5980, 1129.437
506.7810, 923.4224
507.9640, 888.4604
509.1460, 923.5503
510.3290, 1001.690
511.5110, 949.8799
512.6930, 1139.118
513.8750, 1198.404
515.0570, 1454.737
516.2390, 1821.116
517.4210, 2304.541
518.6020, 2947.752
519.7830, 3668.521
520.9640, 4620.076
522.1450, 5707.672
523.3260, 6905.309
524.5060, 8367.988
525.6870, 10098.70
526.8670, 11446.46
528.0470, 12842.25
529.2270, 13733.08
530.4070, 14114.95
531.5870, 13848.86
532.7660, 12517.80
533.9450, 10622.77
535.1240, 8648.777
536.3030, 6730.817
537.4820, 5162.890
538.6610, 3901.994
539.8390, 2961.129
541.0180, 2341.293
542.1960, 1872.489
543.3740, 1584.713
544.5520, 1340.966
545.7290, 1201.517
546.9070, 1065.585
548.0840, 1117.859
549.2620, 1005.513
550.4390, 1080.062
551.6160, 1037.622
552.7920, 993.2056
553.9690, 1119.262
555.1450, 1046.354
556.3220, 1014.095
557.4980, 1115.699
558.6740, 1038.099
559.8490, 981.8477
561.0250, 993.6050
562.2000, 864.8359
563.3760, 751.0205
564.5510, 726.8706
565.7260, 595.6182
566.9010, 662.2178
568.0750, 578.7466
569.2500, 495.3467
570.4240, 397.8071
571.5980, 406.4082
572.7720, 381.8452
573.9460, 341.9058
575.1200, 399.0449
576.2930, 287.0352
577.4670, 352.3164
578.6400, 237.2593
579.8130, 382.6318
580.9860, 442.1841
582.1590, 452.0059
583.3310, 560.0684
584.5040, 622.2822
585.6760, 662.3159
586.8480, 805.6792
588.0200, 892.7480
589.1920, 998.0732
590.3630, 1155.286
591.5350, 1313.471
592.7060, 1492.627
593.8770, 1629.832
595.0480, 1731.854
596.2190, 1873.924
597.3900, 2041.965
598.5600, 2077.977
599.7310, 2154.960
600.9010, 2342.913
602.0710, 2348.837
603.2410, 2466.729
604.4100, 2395.591
605.5800, 2404.421
606.7490, 2560.219
607.9190, 2552.985
609.0880, 2629.719
610.2570, 2646.402
611.4250, 2635.988
612.5940, 2665.447
613.7620, 2633.047
614.9310, 2513.612
616.0990, 2414.142
617.2670, 2385.637
618.4340, 2192.096
619.6020, 1963.520
620.7690, 1889.907
621.9370, 1584.258
623.1040, 1447.572
624.2710, 1313.849
625.4380, 1152.088
626.6040, 965.2900
627.7710, 823.4536
628.9370, 662.5779
630.1030, 615.6641
631.2690, 514.7104
632.4350, 551.7173
633.6010, 559.6838
634.7660, 600.6099
635.9320, 624.7847
637.0970, 671.3401
638.2620, 699.1431
639.4270, 720.9043
640.5920, 793.6238
641.7560, 907.3013
642.9210, 944.9360
644.0850, 980.5283
645.2490, 1073.077
646.4130, 1116.584
647.5770, 1136.047
648.7400, 1187.467
649.9040, 1071.843
651.0670, 991.1755
652.2300, 1028.464
653.3930, 997.7080
654.5560, 955.9082
655.7190, 903.0640
656.8810, 889.1753
658.0440, 840.7039
659.2060, 855.2634
660.3680, 783.2407
661.5300, 751.1733
662.6910, 759.0601
663.8530, 702.9019
665.0140, 699.6987
666.1750, 714.4502
667.3360, 883.1567
668.4970, 900.8174
669.6580, 834.4326
670.8190, 860.0020
671.9790, 809.5254
673.1390, 865.0029
674.2990, 790.4351
675.4590, 830.8203
676.6190, 663.1599
677.7790, 764.4531
678.9380, 606.7004
680.0970, 549.9009
681.2570, 403.0552
682.4160, 313.2444
683.5740, 272.2231
684.7330, 147.2373
685.8920, 45.18823
687.0500, 7.040771
688.2080, 14.22437
689.3660, 75.61890
690.5240, 91.17529
691.6820, 122.9023
692.8390, 177.8167
693.9960, 209.9465
695.1540, 172.3098
696.3110, 192.8865
697.4680, 161.6794
698.6240, 259.6543
699.7810, 295.8711
700.9370, 222.3306
702.0940, 293.0032
703.2500, 242.9062
704.4060, 183.0298
705.5610, 277.3491
706.7170, 253.9050
707.8720, 258.6858
709.0280, 275.6062
710.1830, 274.9307
711.3380, 239.4153
712.4920, 298.1423
713.6470, 237.1428
714.8020, 236.3838
715.9560, 210.8633
717.1100, 143.5681
718.2640, 120.4609
719.4180, 77.52905
720.5720, 115.7483
721.7250, 21.86182
722.8780, 1.375244
724.0320, 111.7822
725.1850, 94.12598
726.3380, 158.4033
727.4900, 239.6270
728.6430, 304.8064
729.7950, 439.9438
730.9470, 594.0398
732.1000, 613.0942
733.2510, 756.1079
734.4030, 834.0811
735.5550, 1013.014
736.7060, 1118.907
737.8570, 1278.760
739.0090, 1400.575
740.1600, 1522.350
741.3100, 1754.087
742.4610, 1898.786
743.6110, 2053.448
744.7620, 2217.072
745.9120, 2403.659
747.0620, 2540.209
748.2120, 2748.724
749.3610, 2857.213
750.5110, 3068.668
751.6600, 3280.092
752.8090, 3305.479
753.9580, 3576.833
755.1070, 3776.153
756.2560, 4011.440
757.4050, 4204.693
758.5530, 4552.914
759.7010, 4776.104
760.8490, 4888.261
761.9970, 4990.387
763.1450, 5143.480
764.2920, 5278.544
765.4400, 5182.579
766.5870, 5157.857
767.7340, 4849.561
768.8810, 4870.513
770.0280, 4503.450
771.1740, 4309.364
772.3210, 4100.264
773.4670, 3908.157
774.6130, 3791.041
775.7590, 3596.914
776.9050, 3468.781
778.0510, 3372.616
779.1960, 3284.519
780.3420, 3263.388
781.4870, 3277.262
782.6320, 3361.139
783.7770, 3440.015
784.9210, 3546.892
786.0660, 3592.767
787.2100, 3775.647
788.3540, 3894.521
789.4980, 4002.396
790.6420, 4236.290
791.7860, 4657.188
792.9300, 4773.102
794.0730, 5173.030
795.2160, 5389.966
796.3590, 5839.895
797.5020, 6426.850
798.6450, 6961.811
799.7880, 7605.781
800.9300, 8054.775
802.0720, 8773.780
803.2150, 9398.799
804.3560, 9911.821
805.4980, 10767.85
806.6400, 11243.12
807.7810, 11920.92
808.9230, 12354.98
810.0640, 12892.02
811.2050, 13428.07
812.3460, 13848.13
813.4860, 14307.20
814.6270, 14731.27
815.7670, 14924.35
816.9070, 15136.31
818.0470, 15110.49
819.1870, 15223.57
820.3270, 15114.66
821.4670, 14951.78
822.6060, 14633.63
823.7450, 14283.99
824.8840, 13937.16
826.0230, 13431.97
827.1620, 13004.91
828.3010, 12532.85
829.4390, 12127.79
830.5770, 11692.27
831.7150, 11424.73
832.8530, 11117.56
833.9910, 10887.11
835.1290, 10646.64
836.2660, 10303.04
837.4030, 10114.20
838.5410, 10356.00
839.6780, 10129.41
840.8140, 10225.02
841.9510, 10190.33
843.0870, 10108.00
844.2240, 10112.10
845.3600, 10118.96
846.4960, 10143.85
847.6320, 10068.86
848.7680, 9932.194
849.9030, 10162.94
851.0380, 10225.63
852.1740, 10497.48
853.3090, 10647.05
854.4440, 10879.97
855.5780, 11387.48
856.7130, 11729.82
857.8470, 12536.91
858.9820, 13161.77
860.1160, 13812.51
861.2500, 15054.41
862.3830, 15950.01
863.5170, 16874.91
864.6500, 18008.57
865.7840, 19534.37
866.9170, 20538.19
868.0500, 22268.06
869.1830, 23675.97
870.3150, 24830.92
871.4480, 26242.92
872.5800, 27097.95
873.7120, 27754.03
874.8440, 28128.15
875.9760, 28037.24
877.1080, 27597.52
878.2390, 27064.76
879.3710, 26115.06
880.5020, 25021.40
881.6330, 23437.78
882.7640, 21974.20
883.8940, 20294.67
885.0250, 18748.18
886.1550, 17290.74
887.2850, 16004.35
888.4160, 14606.00
889.5450, 13612.70
890.6750, 12373.45
891.8050, 11529.24
892.9340, 10543.07
894.0630, 9844.960
895.1930, 9261.890
896.3220, 8283.872
897.4500, 7776.905
898.5790, 7125.987
899.7070, 6561.121
900.8360, 6195.303
901.9640, 5684.535
903.0920, 5503.112
904.2200, 5025.539
905.3470, 4851.837
906.4750, 4604.962
907.6020, 4331.573
908.7290, 4170.392
909.8560, 3982.402
910.9830, 3978.550
912.1100, 3822.471
913.2360, 3775.995
914.3630, 3725.251
915.4890, 3682.520
916.6150, 3622.813
917.7410, 3559.419
918.8670, 3510.025
919.9920, 3463.681
921.1180, 3420.696
922.2430, 3457.490
923.3680, 3379.580
924.4930, 3480.145
925.6180, 3445.802
926.7420, 3449.401
927.8670, 3576.955
928.9910, 3678.965
930.1150, 3820.610
931.2390, 3876.326
932.3630, 4077.279
933.4860, 4178.175
934.6100, 4240.530
935.7330, 4186.930
936.8560, 4178.340
937.9790, 4078.776
939.1020, 4095.424
940.2250, 4013.981
941.3470, 3863.434
942.4700, 3755.481
943.5920, 3543.395
944.7140, 3336.389
945.8360, 3159.356
946.9570, 2990.849
948.0790, 2762.578
949.2000, 2583.964
950.3220, 2313.817
951.4430, 2279.291
952.5640, 2175.282
953.6840, 1965.509
954.8050, 1958.902
955.9250, 2047.480
957.0460, 2140.389
958.1660, 2243.257
959.2860, 2385.700
960.4050, 2468.461
961.5250, 2712.130
962.6440, 2881.318
963.7640, 3074.179
964.8830, 3171.146
966.0020, 3296.234
967.1210, 3623.450
968.2390, 3630.784
969.3580, 3797.243
970.4760, 4025.816
971.5940, 4133.532
972.7120, 4286.397
973.8300, 4404.394
974.9480, 4457.540
976.0650, 4528.820
977.1830, 4552.219
978.3000, 4529.764
979.4170, 4574.639
980.5340, 4634.264
981.6500, 4592.227
982.7670, 4602.330
983.8830, 4585.565
985.0000, 4593.947
986.1160, 4547.457
987.2320, 4591.098
988.3470, 4488.859
989.4630, 4566.726
990.5780, 4692.688
991.6940, 4369.735
992.8090, 4440.875
993.9240, 4592.074
995.0380, 4413.334
996.1530, 4365.636
997.2680, 4301.988
998.3820, 4302.374
999.4960, 4022.791
1000.610, 3835.239
1001.724, 3590.716
1002.837, 3405.220
1003.951, 3068.755
1005.064, 2725.323
1006.177, 2290.918
1007.291, 1962.548
1008.403, 1643.215
1009.516, 1384.910
1010.629, 1129.631
1011.741, 1065.379
1012.853, 907.2290
1013.965, 811.0457
1015.077, 855.8916
1016.189, 825.7651
1017.300, 836.6609
1018.412, 999.5791
1019.523, 1076.528
1020.634, 1172.504
1021.745, 1233.515
1022.856, 1219.549
1023.966, 1197.005
1025.077, 1058.714
1026.187, 1002.895
1027.297, 830.0413
1028.407, 619.4355
1029.517, 469.6177
1030.627, 361.1033
1031.736, 184.8298
1032.845, 140.1772
1033.955, 69.79297
1035.064, 25.21411
1036.172, 17.07690
1037.281, 1.105713
1038.390, 95.36060
1039.498, 33.63379
1040.606, 74.01074
1041.714, 116.3337
1042.822, 97.54785
1043.930, 77.03662
1045.037, 108.6235
1046.145, 116.5479
1047.252, 142.2534
1048.359, 105.6355
1049.466, 122.8318
1050.573, 119.4141
1051.679, 102.2786
1052.786, 100.0994
1053.892, 88.17700
1054.998, 110.4512
1056.104, 63.46191
1057.210, 86.64551
1058.315, 148.8672
1059.421, 97.16113
1060.526, 125.3635
1061.631, 129.7673
1062.736, 89.22827
1063.841, 37.72925
1064.946, 152.2612
1066.050, 84.87646
1067.154, 73.54126
1068.258, 151.2505
1069.362, 85.04639
1070.466, 82.89575
1071.570, 51.79834
1072.674, 79.73926
1073.777, 27.72974
1074.880, 34.74902
1075.983, 109.8022
1077.086, 54.07031
1078.189, 58.05859
1079.291, 16.23706
1080.394, 65.44482
1081.496, 41.70825
1082.598, 15.01611
1083.700, 30.64404
1084.802, 3.294922
1085.903, 30.07910
1087.005, 30.49634
1088.106, 94.95801
1089.207, 2.500000
1090.308, 16.92578
1091.409, 81.32837
1092.509, 52.72388
1093.610, 62.10889
1094.710, 45.48511
1095.810, 118.8452
1096.910, 92.19604
1098.010, 110.5447
1099.110, 98.88477
1100.209, 178.2144
1101.309, 141.5317
1102.408, 180.8362
1103.507, 183.1270
1104.606, 108.4036
1105.704, 174.6646
1106.803, 190.9097
1107.901, 240.1382
1108.999, 206.3494
1110.097, 268.5425
1111.195, 248.7161
1112.293, 298.8699
1113.391, 377.0029
1114.488, 446.2061
1115.585, 556.2952
1116.682, 703.3611
1117.779, 909.4031
1118.876, 1030.420
1119.973, 1162.500
1121.069, 1186.534
1122.165, 1343.556
1123.261, 1427.525
1124.357, 1324.526
1125.453, 1132.382
1126.549, 1018.573
1127.644, 877.7275
1128.739, 724.8704
1129.835, 484.3818
1130.930, 434.3442
1132.024, 407.6011
1133.119, 265.5649
1134.214, 290.3083
1135.308, 246.7708
1136.402, 281.4358
1137.496, 318.2095
1138.590, 251.0081
1139.684, 258.8665
1140.777, 325.8867
1141.871, 246.8796
1142.964, 222.7334
1144.057, 180.7224
1145.150, 341.2900
1146.243, 285.9180
1147.335, 265.1799
1148.428, 317.5657
1149.520, 226.8425
1150.612, 242.0127
1151.704, 230.3213
1152.796, 291.9019
1153.887, 233.2454
1154.979, 240.8552
1156.070, 233.1716
1157.161, 222.1775
1158.252, 239.4194
1159.343, 199.6875
1160.433, 265.9360
1161.524, 149.5859
1162.614, 189.3896
1163.704, 239.8105
1164.794, 205.0220
1165.884, 235.1750
1166.974, 265.7678
1168.063, 168.4758
1169.153, 205.6233
1170.242, 204.2913
1171.331, 214.3662
1172.420, 208.2212
1173.508, 146.4177
1174.597, 215.2390
1175.685, 226.0034
1176.774, 167.0942
1177.862, 151.5076
1178.950, 180.2598
1180.037, 163.2166
1181.125, 182.3882
1182.212, 211.9177
1183.300, 192.1079
1184.387, 262.2388
1185.474, 139.0093
1186.560, 197.4133
1187.647, 312.3687
1188.733, 235.1042
1189.820, 281.9031
1190.906, 184.5996
1191.992, 262.0005
1193.078, 204.5894
1194.163, 198.8340
1195.249, 247.0876
1196.334, 234.1897
1197.419, 193.1748
1198.504, 193.8394
1199.589, 200.5706
1200.674, 236.1360
1201.758, 264.8931
1202.843, 221.3076
1203.927, 279.8423
1205.011, 241.4033
1206.095, 245.3503
1207.179, 214.5276
1208.262, 219.5903
1209.345, 259.7104
1210.429, 204.2297
1211.512, 203.5786
1212.595, 255.3491
1213.677, 211.5698
1214.760, 222.2212
1215.842, 207.3406
1216.925, 266.1553
1218.007, 199.9031
1219.089, 231.3286
1220.171, 191.4980
1221.252, 278.6509
1222.334, 469.5405
1223.415, 345.1445
1224.496, 366.3154
1225.577, 231.3311
1226.658, 233.7380
1227.738, 247.8726
1228.819, 262.7004
1229.899, 251.1895
1230.979, 207.4937
1232.060, 173.7451
1233.139, 202.9653
1234.219, 214.1548
1235.299, 235.3130
1236.378, 211.4397
1237.457, 203.6494
1238.536, 162.7144
1239.615, 177.8079
1240.694, 152.8108
1241.772, 232.7827
1242.851, 200.7236
1243.929, 107.6340
1245.007, 200.5127
1246.085, 137.3606
1247.163, 138.1782
1248.240, 163.9651
1249.318, 108.7217
1250.395, 113.4470
1251.472, 110.1414
1252.549, 115.8049
1253.626, 101.5090
1254.703, 149.0398
1255.779, 55.61157
1256.855, 56.15088
1257.931, 0.6572270
1259.007, 76.11646
1260.083, 67.54419
1261.159, 34.94043
1262.234, 59.30225
1263.310, 96.63232
1264.385, 19.93237
1265.460, 13.19556
1266.535, 65.41968
1267.610, 8.386963
1268.684, 10.24292
1269.758, 29.85156
1270.833, 28.91235
1271.907, 35.94019
1272.981, 23.93555
1274.054, 42.17822
1275.128, 3.718750
1276.201, 9.575684
1277.275, 71.39526
1278.348, 88.18652
1279.421, 9.050293
1280.493, 3.667480
1281.566, 33.65283
1282.638, 44.96948
1283.711, 4.437256
1284.783, 0.8850100
1285.855, 85.60815
1286.927, 1.980225
1287.998, 3.548340
1289.070, 20.37842
1290.141, 12.01562
1291.212, 15.97192
1292.283, 11.18750
1293.354, 10.95972
1294.425, 10.82764
1295.495, 83.87866
1296.566, 13.02539
1297.636, 1.109863
1298.706, 49.79858
1299.776, 17.47974
1300.845, 1.248047
1301.915, 38.93652
1302.984, 81.48364
1304.054, 62.27710
1305.123, 39.14404
1306.191, 56.31567
1307.260, 38.23267
1308.329, 71.78320
1309.397, 44.11475
1310.465, 46.79297
1311.534, 102.7163
1312.602, 9.438232
1313.669, 65.62500
1314.737, 23.85181
1315.804, 31.77271
1316.872, 64.83643
1317.939, 28.90088
1319.006, 26.97998
1320.073, 56.92261
1321.139, 8.983154
1322.206, 74.11670
1323.272, 15.78589
1324.338, 36.30859
1325.404, 96.42627
1326.470, 46.55054
1327.536, 20.67896
1328.601, 58.83154
1329.667, 10.99243
1330.732, 40.16089
1331.797, 19.66943
1332.862, 53.50415
1333.926, 58.67358
1334.991, 36.84155
1336.055, 46.18262
1337.120, 39.40942
1338.184, 58.50244
1339.248, 43.66992
1340.311, 25.83838
1341.375, 46.00977
1342.438, 34.86719
1343.502, 39.32031
1344.565, 56.47998
1345.628, 33.63110
1346.691, 76.78467
1347.753, 49.95972
1348.816, 68.14502
1349.878, 40.30981
1350.940, 62.45825
1352.002, 33.59326
1353.064, 66.71289
1354.126, 76.82129
1355.187, 34.08569
1356.248, 9.015137
1357.310, 21.03906
1358.371, 57.07812
1359.431, 63.09619
1360.492, 84.11475
1361.553, 79.11304
1362.613, 98.09790
1363.673, 112.0703
1364.733, 32.03003
1365.793, 109.9771
1366.853, 43.91235
1367.912, 171.8362
1368.972, 72.74854
1370.031, 65.65039
1371.090, 122.5415
1372.149, 122.3306
1373.208, 106.2014
1374.267, 88.06177
1375.325, 96.91235
1376.383, 75.75317
1377.441, 81.49609
1378.499, 86.24927
1379.557, 98.97974
1380.615, 93.29272
1381.672, 89.40112
1382.730, 90.18628
1383.787, 110.5984
1384.844, 123.0088
1385.901, 89.83984
1386.957, 122.3718
1388.014, 75.86108
1389.070, 86.01758
1390.126, 149.4270
1391.182, 130.0188
1392.238, 144.1321
1393.294, 92.44800
1394.349, 146.8945
1395.405, 77.27905
1396.460, 98.56445
1397.515, 145.6501
1398.570, 87.72510
1399.625, 148.9011
1400.679, 87.90332
1401.734, 101.2891
1402.788, 119.5767
1403.842, 104.1919
1404.896, 156.6458
1405.950, 184.1709
1407.003, 71.76489
1408.057, 85.18286
1409.110, 98.29077
1410.163, 128.5989
1411.216, 143.6030
1412.269, 102.8633
1413.322, 118.3975
1414.374, 76.65771
1415.427, 149.8555
1416.479, 111.0347
1417.531, 116.7771
1418.583, 168.3242
1419.634, 141.2161
1420.686, 108.2825
1421.737, 125.3708
1422.788, 154.9851
1423.839, 98.15234
1424.890, 81.04883
1425.941, 131.5671
1426.992, 110.8699
1428.042, 112.9243
1429.092, 118.4485
1430.142, 103.1787
1431.192, 96.84790
1432.242, 86.44092
1433.291, 50.13330
1434.341, 101.7803
1435.390, 104.6118
1436.439, 57.34473
1437.488, 151.7202
1438.537, 28.71216
1439.586, 132.8298
1440.634, 80.68018
1441.682, 103.9604
1442.731, 151.4155
1443.779, 81.69873
1444.826, 76.57031
1445.874, 49.13086
1446.922, 70.65356
1447.969, 89.96484
1449.016, 70.26514
1450.063, 118.5195
1451.110, 83.00366
1452.157, 66.34839
1453.203, 33.75269
1454.250, 36.01758
1455.296, 80.32568
1456.342, 103.6951
1457.388, 123.0818
1458.433, 69.53320
1459.479, 42.90942
1460.524, 39.25439
1461.570, 15.35156
1462.615, 14.30713
1463.660, 85.70581
1464.705, 0.8840330
1465.749, 50.51123
1466.794, 20.74927
1467.838, 90.03833
1468.882, 10.38721
1469.926, 21.72241
1470.970, 1.043457
1472.013, 70.35010
1473.057, 50.64404
1474.100, 2.074707
1475.143, 79.19360
1476.186, 48.45435
1477.229, 18.72900
1478.272, 60.99829
1479.314, 6.261963
1480.357, 31.53223
1481.399, 87.81567
1482.441, 81.13794
1483.483, 35.46362
1484.525, 93.81885
1485.566, 54.21973
1486.608, 30.62256
1487.649, 91.05566
1488.690, 159.5415
1489.731, 112.0576
1490.771, 67.59058
1491.812, 79.16895
1492.853, 64.80664
1493.893, 57.48901
1494.933, 142.1831
1495.973, 139.8896
1497.013, 123.6062
1498.052, 197.3364
1499.092, 54.06543
1500.131, 189.7935
1501.170, 151.5186
1502.209, 153.2329
1503.248, 194.9387
1504.287, 163.6472
1505.325, 171.3633
1506.363, 211.1079
1507.402, 172.8682
1508.440, 200.6521
1509.478, 170.4575
1510.515, 216.2764
1511.553, 168.1111
1512.590, 157.9595
1513.627, 161.8228
1514.664, 164.3579
1515.701, 149.2861
1516.738, 186.2563
1517.775, 179.2529
1518.811, 142.2742
1519.847, 209.3257
1520.883, 147.3728
1521.919, 123.4910
1522.955, 112.6470
1523.991, 109.8430
1525.026, 99.35400
1526.061, 74.35913
1527.096, 103.6804
1528.131, 96.04297
1529.166, 120.4473
1530.201, 79.89038
1531.235, 146.3718
1532.270, 127.8943
1533.304, 153.4602
1534.338, 21.07422
1535.372, 96.74292
1536.405, 66.47046
1537.439, 61.26025
1538.472, 93.11646
1539.505, 25.04321
1540.538, 72.05542
1541.571, 7.158691
1542.604, 40.34863
1543.637, 61.63379
1544.669, 49.02026
1545.701, 83.86182
1546.733, 91.12134
1547.765, 109.8523
1548.797, 132.7183
1549.829, 115.7339
1550.860, 77.91577
1551.891, 96.28247
1552.922, 131.8555
1553.953, 251.6582
1554.984, 297.7180
1556.015, 231.0701
1557.045, 124.7578
1558.076, 46.83862
1559.106, 24.38208
1560.136, 64.47974
1561.165, 2.747559
1562.195, 48.86670
1563.225, 34.78394
1564.254, 12.52808
1565.283, 0.0000000E+00
##END=



