##NAMES=Grossular
##RRUFFID=R060452
##IDEAL CHEMISTRY=Ca_3_Al_2_(SiO_4_)_3_
##LOCALITY=unknown
##OWNER=RRUFF
##SOURCE=Gemological Institute of America
##DESCRIPTION=Yellowish-brown colored fragment
##STATUS=The identification of this mineral has been confirmed by X-ray diffraction and chemical analysis
##URL=rruff.info/R060452
##MEASURED CHEMISTRY=(Ca_2.94_Mn_0.03_Mg_0.03_)_Σ=3_(Al_1.91_Fe^3+^_0.06_Ti_0.03_)_Σ=2_((Si_0.99_Al_0.01_)_Σ=1_O_4_)_3_
##PIN_ID=L01823
##ORIENTATION=Laser parallel to a* (1 0 0). Fiducial mark perpendicular to laser is parallel to c [0 0 1]
127.1960, 0.0000000E+00
128.4330, 0.2529300
129.6700, 61.81787
130.9060, 25.63306
132.1430, 46.55176
133.3790, 26.54407
134.6150, 4.033081
135.8500, 24.95166
137.0860, 10.23840
138.3210, 23.34253
139.5560, 11.14746
140.7910, 14.65417
142.0260, 13.55933
143.2610, 11.08606
144.4950, 22.78943
145.7290, 3.652222
146.9630, 50.68127
148.1970, 6.055542
149.4310, 109.4513
150.6640, 54.03345
151.8980, 57.68848
153.1310, 68.40662
154.3640, 18.18665
155.5970, 11.02649
156.8290, 43.92419
158.0620, 32.87769
159.2940, 30.88440
160.5260, 41.94202
161.7580, 33.04834
162.9890, 71.20117
164.2210, 41.45764
165.4520, 120.6934
166.6830, 97.69714
167.9140, 127.9829
169.1450, 150.3867
170.3760, 278.7787
171.6060, 383.0916
172.8360, 443.4568
174.0660, 480.1160
175.2960, 685.5626
176.5260, 836.0505
177.7550, 1360.579
178.9840, 1709.144
180.2130, 2127.746
181.4420, 2106.380
182.6710, 1664.047
183.9000, 1076.745
185.1280, 748.4712
186.3560, 469.2242
187.5840, 293.0029
188.8120, 221.8055
190.0400, 182.6311
191.2670, 97.47827
192.4950, 89.34619
193.7220, 55.23425
194.9490, 59.14099
196.1750, 47.06604
197.4020, 53.00854
198.6280, 72.96790
199.8540, 53.94348
201.0800, 1.068970
202.3060, 36.91406
203.5320, 40.89709
204.7570, 9.117676
205.9830, 3.871216
207.2080, 13.86475
208.4330, 10.86499
209.6570, 28.12415
210.8820, 1.901611
212.1060, 2.036621
213.3310, 12.87915
214.5550, 28.05737
215.7780, 6.690063
217.0020, 47.00671
218.2260, 43.34546
219.4490, 4.304443
220.6720, 5.7007000E-02
221.8950, 39.42993
223.1180, 2.810669
224.3400, 87.19849
225.5630, 58.61353
226.7850, 60.04492
228.0070, 125.4814
229.2290, 170.9229
230.4500, 184.3668
231.6720, 212.8123
232.8930, 247.2588
234.1140, 334.7075
235.3350, 341.1632
236.5560, 498.6277
237.7770, 534.1001
238.9970, 651.5791
240.2170, 610.0615
241.4370, 663.5486
242.6570, 619.0271
243.8770, 610.5051
245.0960, 678.9829
246.3160, 713.4622
247.5350, 619.9424
248.7540, 437.4241
249.9730, 459.9075
251.1910, 319.3926
252.4100, 258.8798
253.6280, 121.3689
254.8460, 128.8600
256.0640, 78.35291
257.2810, 89.84790
258.4990, 82.34534
259.7160, 129.8447
260.9330, 134.3464
262.1500, 131.8506
263.3670, 114.3572
264.5840, 128.8667
265.8000, 146.3785
267.0170, 197.1373
268.2330, 253.4106
269.4490, 330.9304
270.6640, 393.4529
271.8800, 458.9781
273.0950, 514.5055
274.3100, 628.6477
275.5260, 639.5159
276.7400, 678.5928
277.9550, 755.7064
279.1690, 669.8521
280.3840, 598.0247
281.5980, 447.2220
282.8120, 346.4420
284.0260, 262.6827
285.2390, 185.9362
286.4530, 137.7352
287.6660, 138.5490
288.8790, 84.87146
290.0920, 66.38660
291.3040, 79.85095
292.5170, 24.40601
293.7290, 68.24097
294.9410, 30.78296
296.1530, 24.15881
297.3650, 14.31519
298.5770, 0.7540280
299.7880, 7.279297
301.0000, 8.174805
302.2110, 6.679810
303.4220, 69.85876
304.6320, 83.37012
305.8430, 69.85828
307.0530, 117.9653
308.2630, 104.8185
309.4730, 124.6630
310.6830, 161.4954
311.8930, 199.2664
313.1030, 261.1794
314.3120, 297.8300
315.5210, 347.1550
316.7300, 361.6582
317.9390, 354.9666
319.1470, 437.1261
320.3560, 296.7332
321.5640, 293.1027
322.7720, 237.7051
323.9800, 319.3618
325.1880, 306.9635
326.3950, 333.6523
327.6030, 313.5073
328.8100, 361.1985
330.0170, 373.8298
331.2240, 433.4600
332.4300, 419.0504
333.6370, 378.5881
334.8430, 372.1573
336.0490, 367.7295
337.2550, 296.3048
338.4610, 338.9048
339.6660, 391.5237
340.8720, 346.4001
342.0770, 475.3206
343.2820, 430.2433
344.4870, 581.1010
345.6920, 582.0192
346.8960, 696.8684
348.1010, 729.7361
349.3050, 850.5596
350.5090, 894.1238
351.7130, 956.8970
352.9160, 1100.697
354.1200, 1289.301
355.3230, 1494.055
356.5260, 1778.661
357.7290, 2052.241
358.9320, 2502.543
360.1350, 3056.150
361.3370, 3669.757
362.5390, 4587.367
363.7410, 5703.980
364.9430, 7090.514
366.1450, 8630.124
367.3470, 10431.74
368.5480, 11821.36
369.7490, 12967.98
370.9500, 13879.60
372.1510, 14913.23
373.3520, 15730.85
374.5520, 16257.48
375.7530, 15464.12
376.9530, 13637.75
378.1530, 10794.39
379.3520, 8399.025
380.5520, 6262.667
381.7510, 4861.310
382.9510, 3626.954
384.1500, 2930.601
385.3490, 2432.250
386.5480, 1963.901
387.7460, 1619.560
388.9440, 1419.220
390.1430, 1147.882
391.3410, 1076.549
392.5390, 999.2178
393.7360, 857.8870
394.9340, 749.5652
396.1310, 722.2449
397.3280, 694.9346
398.5250, 651.6250
399.7220, 656.3169
400.9190, 580.0088
402.1150, 552.7109
403.3120, 556.4141
404.5080, 663.1172
405.7040, 659.8196
406.8990, 808.5215
408.0950, 849.2222
409.2900, 983.9226
410.4860, 1096.622
411.6810, 1175.322
412.8760, 1561.021
414.0700, 1837.723
415.2650, 2244.424
416.4590, 2352.124
417.6540, 2161.825
418.8480, 1768.528
420.0420, 1287.242
421.2350, 980.9692
422.4290, 704.7104
423.6220, 424.4512
424.8150, 333.1926
426.0080, 255.9368
427.2010, 206.6926
428.3940, 115.4478
429.5860, 97.47778
430.7790, 62.30176
431.9710, 71.73096
433.1630, 30.49585
434.3540, 47.25586
435.5460, 30.01294
436.7370, 0.2053220
437.9290, 13.57422
439.1200, 47.65088
440.3110, 5.906006
441.5010, 39.12769
442.6920, 30.41943
443.8820, 3.921143
445.0730, 65.46606
446.2630, 49.02563
447.4530, 30.39062
448.6420, 10.77905
449.8320, 2.761963
451.0210, 3.901367
452.2100, 6.983154
453.3990, 12.55298
454.5880, 5.113770
455.7770, 22.66870
456.9660, 63.21533
458.1540, 5.787598
459.3420, 100.0574
460.5300, 71.85840
461.7180, 26.56372
462.9050, 83.61475
464.0930, 5.415283
465.2800, 28.63086
466.4670, 80.04443
467.6540, 95.58130
468.8410, 77.30957
470.0280, 39.78418
471.2140, 81.40430
472.4000, 98.08276
473.5870, 100.5525
474.7720, 188.0020
475.9580, 145.4407
477.1440, 168.8689
478.3290, 129.2871
479.5140, 179.6946
480.6990, 120.0903
481.8840, 117.4741
483.0690, 57.84619
484.2540, 49.20264
485.4380, 50.54346
486.6220, 67.86768
487.8060, 55.17432
488.9900, 69.77881
490.1740, 70.73389
491.3570, 82.98657
492.5410, 99.22070
493.7240, 98.43652
494.9070, 93.63110
496.0900, 155.8049
497.2720, 133.9578
498.4550, 172.1221
499.6370, 277.4609
500.8190, 261.8611
502.0010, 363.4197
503.1830, 260.2073
504.3650, 272.9888
505.5460, 347.4966
506.7280, 457.9363
507.9090, 473.6338
509.0900, 423.4934
510.2710, 391.1372
511.4510, 341.9429
512.6320, 308.7749
513.8120, 247.6367
514.9920, 238.5601
516.1720, 216.4004
517.3520, 175.3225
518.5310, 167.2385
519.7110, 282.0774
520.8900, 211.9561
522.0690, 330.6528
523.2480, 336.6694
524.4270, 422.5674
525.6050, 510.5469
526.7840, 548.3105
527.9620, 460.2480
529.1400, 482.3525
530.3180, 432.0427
531.4960, 317.8647
532.6730, 357.3162
533.8510, 352.1528
535.0280, 375.6792
536.2050, 422.9553
537.3820, 629.7483
538.5590, 731.4270
539.7350, 1055.019
540.9120, 1325.670
542.0880, 1741.202
543.2640, 2138.855
544.4400, 2586.483
545.6150, 3296.935
546.7910, 4159.154
547.9660, 4844.458
549.1410, 5138.658
550.3170, 4693.926
551.4910, 3814.151
552.6660, 2809.676
553.8410, 2007.973
555.0150, 1497.948
556.1890, 1104.085
557.3630, 849.2690
558.5370, 667.0928
559.7110, 551.2581
560.8840, 472.6951
562.0570, 389.4106
563.2310, 380.7241
564.4040, 385.7217
565.5760, 427.8645
566.7490, 402.4155
567.9220, 368.2122
569.0940, 384.2046
570.2660, 399.0833
571.4380, 350.9302
572.6100, 359.6582
573.7820, 298.9661
574.9530, 328.3418
576.1240, 314.9270
577.2960, 309.2104
578.4670, 362.4180
579.6370, 268.7695
580.8080, 299.0681
581.9790, 262.2881
583.1490, 328.4138
584.3190, 343.9055
585.4890, 408.6746
586.6590, 394.6736
587.8280, 430.9229
588.9980, 459.9243
590.1670, 452.0742
591.3360, 456.4912
592.5050, 439.1538
593.6740, 419.3032
594.8430, 374.9253
596.0110, 341.2229
597.1790, 287.9622
598.3480, 182.0894
599.5160, 216.2769
600.6830, 229.8579
601.8510, 256.8884
603.0180, 173.3496
604.1860, 191.8818
605.3530, 235.7617
606.5200, 255.1423
607.6870, 287.7161
608.8530, 243.1467
610.0200, 335.4148
611.1860, 266.4954
612.3520, 252.0034
613.5180, 307.7295
614.6840, 348.6929
615.8500, 351.7324
617.0150, 368.7261
618.1800, 340.8337
619.3450, 447.7908
620.5100, 393.5017
621.6750, 382.2705
622.8400, 488.0364
624.0040, 507.1379
625.1690, 593.2739
626.3330, 604.1934
627.4970, 577.8418
628.6610, 598.4031
629.8240, 605.0127
630.9880, 630.4712
632.1510, 588.8347
633.3140, 512.9812
634.4770, 420.7268
635.6400, 395.3123
636.8020, 355.0015
637.9650, 329.4307
639.1270, 283.8442
640.2890, 265.1997
641.4510, 223.4968
642.6130, 164.7336
643.7750, 161.9075
644.9360, 223.0186
646.0980, 235.0691
647.2590, 169.0583
648.4200, 125.9846
649.5810, 172.8467
650.7410, 129.6467
651.9020, 124.6296
653.0620, 101.3684
654.2220, 88.11841
655.3820, 103.2979
656.5420, 78.77612
657.7020, 75.19946
658.8610, 88.62256
660.0200, 73.95923
661.1800, 112.2148
662.3390, 30.36743
663.4970, 53.45605
664.6560, 28.47925
665.8150, 74.43652
666.9730, 27.32788
668.1310, 6.846191
669.2890, 74.90332
670.4470, 37.58838
671.6050, 2.207275
672.7620, 23.75439
673.9200, 90.23511
675.0770, 12.34961
676.2340, 19.98340
677.3910, 19.75220
678.5470, 49.42871
679.7040, 28.54346
680.8600, 50.59082
682.0160, 21.42993
683.1720, 20.46533
684.3280, 49.29517
685.4840, 98.05908
686.6390, 70.75952
687.7950, 88.39453
688.9500, 64.96680
690.1050, 68.47705
691.2600, 10.92358
692.4150, 36.30322
693.5690, 0.3752440
694.7240, 59.90820
695.8780, 41.12671
697.0320, 0.2790530
698.1860, 30.36353
699.3400, 26.61621
700.4930, 31.68262
701.6470, 41.84058
702.8000, 38.90527
703.9530, 12.58252
705.1060, 0.1904300
706.2590, 36.27686
707.4110, 18.16016
708.5640, 27.52588
709.7160, 39.17944
710.8680, 68.01855
712.0200, 2.853027
713.1720, 64.19775
714.3230, 25.17749
715.4750, 100.9160
716.6260, 9.141602
717.7770, 20.55127
718.9280, 85.16992
720.0790, 32.27100
721.2300, 27.83643
722.3800, 11.54810
723.5300, 18.86475
724.6810, 20.89136
725.8300, 21.27661
726.9800, 71.37988
728.1300, 33.41699
729.2790, 11.38037
730.4290, 3.266602
731.5780, 51.07324
732.7270, 43.80396
733.8760, 5.543213
735.0240, 16.02612
736.1730, 80.48413
737.3210, 9.445557
738.4700, 23.56250
739.6180, 33.62207
740.7650, 20.31689
741.9130, 38.82080
743.0610, 13.68188
744.2080, 55.90479
745.3550, 7.503418
746.5020, 12.84766
747.6490, 31.51758
748.7960, 27.04883
749.9430, 1.653076
751.0890, 53.50000
752.2350, 75.76172
753.3810, 62.96191
754.5270, 62.09082
755.6730, 25.14941
756.8190, 47.13330
757.9640, 94.04736
759.1090, 62.88965
760.2540, 47.66016
761.3990, 133.3569
762.5440, 102.9858
763.6890, 142.5469
764.8330, 211.0396
765.9780, 205.4653
767.1220, 194.8296
768.2660, 218.1313
769.4100, 239.3682
770.5530, 293.5376
771.6970, 374.6455
772.8400, 357.6958
773.9830, 440.6885
775.1260, 525.6221
776.2690, 558.4673
777.4120, 596.5220
778.5540, 590.5049
779.6970, 602.7148
780.8390, 592.6172
781.9810, 549.4419
783.1230, 499.4561
784.2650, 528.4521
785.4060, 480.1099
786.5480, 520.8071
787.6890, 503.5889
788.8300, 391.8887
789.9710, 435.7163
791.1120, 321.0029
792.2520, 397.7368
793.3930, 481.3701
794.5330, 451.6021
795.6730, 435.6411
796.8130, 442.3740
797.9530, 446.6479
799.0930, 591.2095
800.2320, 562.9663
801.3710, 606.2920
802.5110, 801.6250
803.6500, 837.6484
804.7880, 940.0850
805.9270, 965.3223
807.0660, 1088.590
808.2040, 1196.178
809.3420, 1286.354
810.4800, 1458.401
811.6180, 1622.323
812.7560, 1767.331
813.8930, 1848.884
815.0310, 1926.958
816.1680, 2182.753
817.3050, 2431.357
818.4420, 2569.707
819.5790, 2974.606
820.7150, 2997.731
821.8520, 3287.423
822.9880, 3492.575
824.1240, 3473.312
825.2600, 3472.608
826.3960, 3417.993
827.5320, 3244.125
828.6670, 3005.856
829.8020, 2713.041
830.9380, 2590.148
832.0730, 2278.797
833.2080, 2157.271
834.3420, 2111.040
835.4770, 1990.964
836.6110, 2013.979
837.7450, 1813.145
838.8790, 1999.821
840.0130, 1931.562
841.1470, 1923.156
842.2810, 2016.014
843.4140, 1941.280
844.5470, 1969.370
845.6800, 2135.247
846.8130, 2147.404
847.9460, 2271.420
849.0790, 2188.574
850.2110, 2246.050
851.3440, 2264.170
852.4760, 2335.230
853.6080, 2402.225
854.7400, 2510.845
855.8710, 2424.870
857.0030, 2633.473
858.1340, 2650.978
859.2650, 2843.157
860.3960, 3051.377
861.5270, 3421.637
862.6580, 3714.201
863.7890, 3991.248
864.9190, 4461.747
866.0490, 5051.007
867.1790, 5766.119
868.3090, 6587.471
869.4390, 7776.725
870.5690, 9098.146
871.6980, 10643.07
872.8270, 12661.65
873.9570, 14690.37
875.0860, 17007.39
876.2140, 19694.73
877.3430, 21899.32
878.4720, 23628.95
879.6000, 24768.34
880.7280, 24877.93
881.8560, 23420.35
882.9840, 21543.07
884.1120, 19122.75
885.2390, 16489.72
886.3670, 14030.67
887.4940, 11980.56
888.6210, 10123.51
889.7480, 8628.396
890.8750, 7347.606
892.0020, 6249.943
893.1280, 5520.110
894.2540, 4510.747
895.3810, 4129.093
896.5070, 3455.566
897.6320, 3014.128
898.7580, 2636.094
899.8840, 2243.741
901.0090, 1918.397
902.1340, 1738.139
903.2590, 1673.831
904.3840, 1468.593
905.5090, 1285.989
906.6340, 1245.324
907.7580, 1169.343
908.8820, 1137.041
910.0060, 1030.697
911.1300, 947.8540
912.2540, 854.0459
913.3780, 885.3081
914.5010, 793.4312
915.6250, 768.2310
916.7480, 707.8652
917.8710, 667.1587
918.9940, 726.1299
920.1160, 625.3872
921.2390, 440.5195
922.3610, 453.3462
923.4840, 581.2061
924.6060, 364.9653
925.7280, 455.7280
926.8490, 320.6602
927.9710, 344.1147
929.0930, 401.1479
930.2140, 428.7065
931.3350, 261.1802
932.4560, 342.3491
933.5770, 296.2275
934.6980, 152.0542
935.8180, 262.9502
936.9380, 221.2261
938.0590, 325.7183
939.1790, 164.5034
940.2990, 151.1099
941.4180, 221.6406
942.5380, 199.0112
943.6570, 153.6396
944.7770, 177.9697
945.8960, 259.4048
947.0150, 277.9102
948.1340, 242.4897
949.2520, 125.8994
950.3710, 192.0435
951.4890, 202.0977
952.6070, 270.4282
953.7260, 87.27148
954.8430, 29.41016
955.9610, 146.1895
957.0790, 86.24023
958.1960, 142.0239
959.3130, 31.21777
960.4310, 2.206543
961.5480, 26.06445
962.6640, 38.02002
963.7810, 32.30420
964.8970, 140.1646
966.0140, 64.34766
967.1300, 71.66406
968.2460, 19.16211
969.3620, 1.089844
970.4780, 61.17285
971.5930, 172.6582
972.7090, 126.5859
973.8240, 163.3496
974.9390, 138.1670
976.0540, 192.3262
977.1690, 250.5791
978.2830, 228.1123
979.3980, 282.7598
980.5120, 200.9785
981.6260, 285.8203
982.7400, 270.8672
983.8540, 385.7109
984.9680, 425.3545
986.0820, 469.5332
987.1950, 415.2090
988.3080, 488.6416
989.4210, 449.9131
990.5340, 359.8564
991.6470, 439.1201
992.7600, 514.5781
993.8720, 502.6895
994.9850, 560.1240
996.0970, 663.2725
997.2090, 560.8936
998.3210, 775.9355
999.4320, 690.0439
1000.544, 850.7451
1001.655, 904.2139
1002.767, 910.4404
1003.878, 1038.137
1004.989, 1140.333
1006.100, 1240.596
1007.210, 1102.000
1008.321, 1143.357
1009.431, 980.7070
1010.541, 941.9717
1011.651, 741.3066
1012.761, 740.8877
1013.871, 638.1699
1014.980, 593.4824
1016.090, 536.9609
1017.199, 534.9150
1018.308, 440.9336
1019.417, 355.8682
1020.526, 299.9023
1021.635, 201.8438
1022.743, 181.5488
1023.852, 109.1660
1024.960, 234.4648
1026.068, 87.62598
1027.176, 193.9512
1028.283, 212.8438
1029.391, 146.5146
1030.498, 191.7314
1031.606, 91.45312
1032.713, 140.4736
1033.820, 186.5225
1034.927, 29.59180
1036.033, 23.80762
1037.140, 124.0430
1038.246, 193.8691
1039.353, 73.39648
1040.459, 31.65820
1041.564, 45.19531
1042.670, 78.04492
1043.776, 129.1045
1044.881, 114.9980
1045.987, 96.60254
1047.092, 103.1953
1048.197, 27.10547
1049.302, 141.8994
1050.406, 193.5889
1051.511, 249.4961
1052.615, 43.90430
1053.720, 167.9219
1054.824, 67.15723
1055.928, 55.14062
1057.031, 143.8750
1058.135, 153.8779
1059.238, 65.17188
1060.342, 148.8486
1061.445, 95.93848
1062.548, 139.9551
1063.651, 130.6553
1064.754, 47.14648
1065.856, 206.7910
1066.959, 204.1582
1068.061, 162.1777
1069.163, 102.9902
1070.265, 208.1885
1071.367, 136.2217
1072.469, 144.3369
1073.570, 140.6924
1074.671, 40.76367
1075.773, 282.4727
1076.874, 29.41895
1077.975, 275.2568
1079.075, 77.76172
1080.176, 61.34570
1081.276, 9.324219
1082.377, 83.19922
1083.477, 80.40527
1084.577, 45.93457
1085.677, 231.5752
1086.777, 11.88281
1087.876, 62.00586
1088.975, 109.7783
1090.075, 145.9307
1091.174, 4.318359
1092.273, 90.68359
1093.372, 90.24805
1094.470, 102.1797
1095.569, 80.20215
1096.667, 32.14453
1097.765, 56.11426
1098.863, 61.07812
1099.961, 6.870117
1101.059, 26.57227
1102.157, 33.17969
1103.254, 15.26758
1104.351, 14.35449
1105.449, 41.90918
1106.546, 125.9648
1107.642, 68.58398
1108.739, 50.45020
1109.836, 33.90918
1110.932, 13.40625
1112.028, 1.247070
1113.124, 172.4453
1114.220, 34.47852
1115.316, 25.10645
1116.412, 96.02441
1117.507, 5.734375
1118.603, 16.50391
1119.698, 103.8535
1120.793, 22.32422
1121.888, 32.42285
1122.983, 6.051758
1124.077, 47.60742
1125.172, 64.39355
1126.266, 30.95117
1127.360, 12.50293
1128.454, 72.15137
1129.548, 30.30859
1130.642, 20.59570
1131.735, 133.0537
1132.829, 3.992188
1133.922, 10.35645
1135.015, 84.02246
1136.108, 134.6064
1137.201, 117.0059
1138.294, 93.21094
1139.386, 264.2129
1140.478, 19.02539
1141.571, 81.85547
1142.663, 210.8506
1143.755, 141.1982
1144.846, 254.0771
1145.938, 302.4092
1147.030, 315.0850
1148.121, 176.0674
1149.212, 289.2031
1150.303, 209.4863
1151.394, 309.8926
1152.485, 307.2598
1153.575, 331.3691
1154.666, 320.1279
1155.756, 365.3115
1156.846, 366.7383
1157.936, 294.3818
1159.026, 367.9434
1160.116, 388.4014
1161.205, 223.7314
1162.295, 310.6113
1163.384, 205.3096
1164.473, 403.9424
1165.562, 364.5488
1166.651, 296.0039
1167.739, 495.0830
1168.828, 320.5303
1169.916, 358.3379
1171.005, 385.4785
1172.093, 282.0674
1173.181, 407.3096
1174.268, 315.9609
1175.356, 316.3223
1176.443, 341.8379
1177.531, 280.1484
1178.618, 159.9121
1179.705, 386.8203
1180.792, 347.6602
1181.879, 253.4883
1182.965, 329.3926
1184.052, 370.1602
1185.138, 199.1875
1186.224, 229.3086
1187.310, 302.5586
1188.396, 274.2812
1189.482, 206.3398
1190.567, 160.2441
1191.653, 113.7305
1192.738, 174.2598
1193.823, 92.28125
1194.908, 160.0332
1195.993, 155.4336
1197.077, 121.1602
1198.162, 44.44336
1199.246, 119.2090
1200.331, 167.9668
1201.415, 267.2012
1202.499, 279.6328
1203.582, 147.3027
1204.666, 239.3867
1205.750, 256.8301
1206.833, 109.1113
1207.916, 110.8770
1208.999, 23.26758
1210.082, 4.523438
1211.165, 29.09766
1212.248, 99.48242
1213.330, 44.84180
1214.412, 158.6309
1215.495, 150.6230
1216.577, 183.0469
1217.658, 240.2910
1218.740, 246.5527
1219.822, 213.0352
1220.903, 243.3730
1221.985, 303.2148
1223.066, 291.6582
1224.147, 232.1309
1225.228, 267.6289
1226.308, 148.9492
1227.389, 236.3535
1228.469, 305.8418
1229.550, 232.3496
1230.630, 151.5742
1231.710, 357.8477
1232.790, 171.6641
1233.869, 280.8320
1234.949, 97.61914
1236.028, 51.80078
1237.108, 224.5371
1238.187, 48.43750
1239.266, 190.5742
1240.344, 170.0703
1241.423, 228.5020
1242.502, 184.5352
1243.580, 60.35547
1244.658, 195.9238
1245.736, 166.7520
1246.814, 16.99023
1247.892, 117.3164
1248.970, 120.8281
1250.047, 58.97656
1251.125, 151.3145
1252.202, 194.6445
1253.279, 241.8203
1254.356, 255.7539
1255.433, 130.8887
1256.509, 283.6523
1257.586, 252.6875
1258.662, 228.9883
1259.738, 355.6270
1260.814, 2.105469
1261.890, 220.4492
1262.966, 213.8281
1264.042, 0.0000000E+00
##END=



