##NAMES=Grossular
##RRUFFID=R050312
##IDEAL CHEMISTRY=Ca_3_Al_2_(SiO_4_)_3_
##LOCALITY=Eden Mills mine, Vermont, USA
##OWNER=RRUFF
##SOURCE=Eugene Schlepp
##DESCRIPTION=Red crystal
##STATUS=The identification of this mineral has been confirmed by X-ray diffraction and chemical analysis
##URL=rruff.info/R050312
##MEASURED CHEMISTRY=Ca_3.00_(Al_1.75_Fe^3+^_0.23_Ti_0.02_)_Σ=2_((Si_0.99_Al_0.01_)_Σ=1_O_4_)_3_
##PIN_ID=L01494
##ORIENTATION=Laser parallel to a* (1 0 0). Fiducial mark perpendicular to laser is parallel to c [0 0 1]
144.7530, 0.0000000E+00
145.9830, 30.40771
147.2130, 9.719971
148.4440, 1.839355
149.6730, 29.83887
150.9030, 131.7046
152.1330, 63.73999
153.3630, 62.26123
154.5920, 59.08911
155.8210, 2.368164
157.0500, 69.51416
158.2790, 3.494141
159.5080, 37.55762
160.7360, 82.69727
161.9650, 193.8325
163.1930, 257.6108
164.4210, 344.6514
165.6490, 643.9336
166.8770, 830.4941
168.1040, 1167.356
169.3320, 1621.535
170.5590, 1876.038
171.7860, 2164.869
173.0130, 2594.030
174.2400, 3176.460
175.4670, 3764.232
176.6930, 4090.620
177.9200, 4133.259
179.1460, 4104.722
180.3720, 3791.437
181.5980, 3407.505
182.8230, 2697.968
184.0490, 2048.804
185.2740, 1528.991
186.5000, 1070.507
187.7250, 813.3374
188.9500, 633.4666
190.1740, 420.8828
191.3990, 357.5762
192.6230, 282.5366
193.8480, 163.7568
195.0720, 165.2300
196.2960, 186.9497
197.5200, 54.90894
198.7430, 157.1001
199.9670, 17.51929
201.1900, 103.1616
202.4130, 1.025146
203.6360, 6.892822
204.8590, 48.59497
206.0820, 78.93433
207.3050, 29.35889
208.5270, 81.42334
209.7490, 3.277832
210.9710, 59.07666
212.1930, 18.36035
213.4150, 31.41064
214.6370, 29.61182
215.8580, 9.427002
217.0790, 16.96387
218.3010, 22.44897
219.5210, 12.60938
220.7420, 20.04346
221.9630, 35.92725
223.1830, 31.90039
224.4040, 32.94043
225.6240, 145.0537
226.8440, 255.2522
228.0640, 286.5398
229.2840, 400.9204
230.5030, 452.3975
231.7230, 634.9736
232.9420, 799.6523
234.1610, 927.4331
235.3800, 993.3154
236.5990, 1178.302
237.8170, 1172.394
239.0360, 1154.593
240.2540, 1292.902
241.4720, 1266.322
242.6900, 1331.854
243.9080, 1292.499
245.1250, 1237.258
246.3430, 1164.133
247.5600, 1054.120
248.7770, 863.1841
249.9940, 711.3232
251.2110, 613.5635
252.4280, 524.1675
253.6450, 450.3799
254.8610, 460.9590
256.0770, 428.6558
257.2930, 470.4727
258.5090, 642.4111
259.7250, 714.4702
260.9400, 675.6509
262.1560, 643.9541
263.3710, 650.3809
264.5860, 728.3008
265.8010, 879.6074
267.0160, 936.4097
268.2310, 1081.339
269.4450, 1170.397
270.6600, 1222.584
271.8740, 1318.899
273.0880, 1408.347
274.3020, 1404.925
275.5150, 1470.634
276.7290, 1501.477
277.9420, 1494.451
279.1550, 1332.559
280.3680, 1238.799
281.5810, 1121.174
282.7940, 1196.684
284.0070, 1049.327
285.2190, 1019.104
286.4310, 935.0146
287.6430, 870.0586
288.8550, 776.2349
290.0670, 821.4741
291.2790, 695.6099
292.4900, 425.0874
293.7020, 558.8223
294.9130, 382.1855
296.1240, 380.4443
297.3350, 500.2852
298.5450, 435.8965
299.7560, 506.7754
300.9660, 475.9829
302.1760, 505.9673
303.3860, 689.4819
304.5960, 733.7627
305.8060, 757.5654
307.0150, 940.4961
308.2250, 999.5493
309.4340, 991.7246
310.6430, 1023.020
311.8520, 1061.581
313.0610, 1079.534
314.2700, 1138.617
315.4780, 1142.383
316.6860, 1186.265
317.8940, 1216.260
319.1020, 1237.367
320.3100, 1385.575
321.5180, 1431.806
322.7250, 1538.076
323.9330, 1546.458
325.1400, 1608.941
326.3470, 1577.517
327.5540, 1610.192
328.7600, 1656.977
329.9670, 1665.005
331.1730, 1658.866
332.3800, 1713.967
333.5860, 1744.172
334.7920, 1803.821
335.9970, 1863.888
337.2030, 1981.395
338.4080, 2107.002
339.6140, 2274.707
340.8190, 2473.141
342.0240, 2666.407
343.2290, 2923.399
344.4330, 3202.487
345.6380, 3428.668
346.8420, 3924.940
348.0460, 4462.202
349.2500, 5085.364
350.4540, 5767.315
351.6580, 6499.271
352.8610, 7619.111
354.0650, 9065.244
355.2680, 10783.02
356.4710, 13067.01
357.6740, 15263.61
358.8760, 18270.77
360.0790, 21350.25
361.2810, 25187.38
362.4840, 29718.78
363.6860, 33597.77
364.8880, 38276.34
366.0900, 42002.98
367.2910, 45291.72
368.4930, 47803.54
369.6940, 49763.44
370.8950, 50387.41
372.0960, 50021.47
373.2970, 48037.63
374.4980, 45075.87
375.6980, 40196.21
376.8980, 34845.68
378.0990, 29101.25
379.2990, 23505.89
380.4980, 19140.64
381.6980, 15428.50
382.8980, 12676.46
384.0970, 10341.54
385.2960, 8642.734
386.4950, 7401.034
387.6940, 6409.448
388.8930, 5669.967
390.0920, 4878.592
391.2900, 4384.327
392.4880, 4049.165
393.6860, 3670.101
394.8840, 3505.146
396.0820, 3195.302
397.2800, 3169.563
398.4770, 2928.926
399.6750, 3079.389
400.8720, 3215.965
402.0690, 3431.650
403.2660, 3545.455
404.4620, 3878.357
405.6590, 4300.354
406.8550, 4528.447
408.0510, 4934.636
409.2480, 5214.921
410.4430, 5436.309
411.6390, 5593.811
412.8350, 5455.416
414.0300, 5005.128
415.2250, 4515.926
416.4200, 3740.821
417.6150, 2933.817
418.8100, 2378.916
420.0050, 1648.100
421.1990, 1212.365
422.3940, 968.7085
423.5880, 552.1362
424.7820, 518.6489
425.9750, 363.2441
427.1690, 173.9297
428.3630, 125.6919
429.5560, 107.5288
430.7490, 9.437012
431.9420, 60.59521
433.1350, 10.55420
434.3280, 87.45264
435.5200, 130.2871
436.7130, 93.05859
437.9050, 5.770020
439.0970, 136.4038
440.2890, 11.96094
441.4810, 55.44189
442.6720, 59.85449
443.8640, 76.80762
445.0550, 151.5396
446.2460, 104.3398
447.4370, 217.2075
448.6280, 244.1431
449.8180, 366.1421
451.0090, 431.2056
452.1990, 421.3311
453.3890, 479.5166
454.5790, 487.7622
455.7690, 538.0674
456.9590, 486.4297
458.1480, 543.8496
459.3380, 523.3257
460.5270, 582.8574
461.7160, 439.4443
462.9050, 615.0859
464.0940, 517.7812
465.2820, 415.5298
466.4700, 506.3315
467.6590, 429.1855
468.8470, 463.0923
470.0350, 455.0498
471.2220, 510.0581
472.4100, 476.1162
473.5970, 531.2236
474.7850, 463.3794
475.9720, 450.5835
477.1590, 439.8345
478.3460, 395.1328
479.5320, 354.4761
480.7190, 374.8652
481.9050, 367.2998
483.0910, 426.7773
484.2770, 481.2988
485.4630, 584.8628
486.6490, 597.4692
487.8340, 697.1167
489.0200, 809.8057
490.2050, 937.5352
491.3900, 1103.304
492.5750, 1257.114
493.7600, 1261.970
494.9440, 1337.875
496.1290, 1291.820
497.3130, 1324.815
498.4970, 1316.847
499.6810, 1294.914
500.8650, 1273.017
502.0480, 1238.721
503.2320, 1154.330
504.4150, 1153.539
505.5980, 1134.780
506.7810, 1085.056
507.9640, 954.3633
509.1460, 863.4033
510.3290, 748.9976
511.5110, 688.6582
512.6930, 641.8188
513.8750, 621.4980
515.0570, 671.3804
516.2390, 727.4009
517.4210, 749.0171
518.6020, 692.6973
519.7830, 816.5273
520.9640, 831.9883
522.1450, 834.7686
523.3260, 928.9004
524.5060, 974.1987
525.6870, 1038.801
526.8670, 1104.623
528.0470, 1119.752
529.2270, 1364.757
530.4070, 1560.809
531.5870, 1899.238
532.7660, 2460.806
533.9450, 3096.808
535.1240, 4040.195
536.3030, 5235.606
537.4820, 6633.669
538.6610, 8087.750
539.8390, 9368.292
541.0180, 11016.74
542.1960, 12266.99
543.3740, 13246.77
544.5520, 13559.24
545.7290, 13143.29
546.9070, 11955.02
548.0840, 10130.06
549.2620, 8160.288
550.4390, 6372.018
551.6160, 4731.318
552.7920, 3564.023
553.9690, 2700.228
555.1450, 2150.021
556.3220, 1834.504
557.4980, 1581.838
558.6740, 1411.773
559.8490, 1327.618
561.0250, 1327.550
562.2000, 1241.086
563.3760, 1300.604
564.5510, 1190.993
565.7260, 1237.624
566.9010, 1186.738
568.0750, 1222.807
569.2500, 1175.993
570.4240, 1162.683
571.5980, 1126.881
572.7720, 1138.526
573.9460, 1095.621
575.1200, 1158.884
576.2930, 1064.007
577.4670, 1068.748
578.6400, 1040.479
579.8130, 956.6855
580.9860, 987.5852
582.1590, 1074.787
583.3310, 1082.236
584.5040, 1064.082
585.6760, 1129.374
586.8480, 1150.136
588.0200, 1121.172
589.1920, 1132.953
590.3630, 1040.521
591.5350, 1030.281
592.7060, 929.7656
593.8770, 925.9226
595.0480, 864.1479
596.2190, 871.3638
597.3900, 938.4265
598.5600, 925.4570
599.7310, 981.4539
600.9010, 1004.418
602.0710, 1172.348
603.2410, 1261.244
604.4100, 1335.105
605.5800, 1366.932
606.7490, 1431.723
607.9190, 1567.478
609.0880, 1568.196
610.2570, 1537.877
611.4250, 1666.522
612.5940, 1837.129
613.7620, 1805.698
614.9310, 1926.229
616.0990, 1946.720
617.2670, 1960.173
618.4340, 2072.586
619.6020, 2138.960
620.7690, 2240.292
621.9370, 2329.585
623.1040, 2385.836
624.2710, 2282.046
625.4380, 2296.215
626.6040, 2219.340
627.7710, 2122.425
628.9370, 2013.466
630.1030, 1955.464
631.2690, 1684.418
632.4350, 1532.329
633.6010, 1226.196
634.7660, 1169.018
635.9320, 994.7957
637.0970, 793.5281
638.2620, 712.2151
639.4270, 584.8560
640.5920, 500.4514
641.7560, 358.0000
642.9210, 293.5022
644.0850, 249.9575
645.2490, 296.3657
646.4130, 255.7266
647.5770, 191.0393
648.7400, 42.30469
649.9040, 58.51172
651.0670, 76.66553
652.2300, 106.7695
653.3930, 64.82446
654.5560, 11.82568
655.7190, 5.428223
656.8810, 49.40454
658.0440, 57.67017
659.2060, 0.9521480
660.3680, 52.49194
661.5300, 44.02930
662.6910, 45.65674
663.8530, 69.39282
665.0140, 102.2498
666.1750, 41.24561
667.3360, 61.34790
668.4970, 90.56836
669.6580, 42.92236
670.8190, 48.38477
671.9790, 81.95898
673.1390, 40.66284
674.2990, 30.47437
675.4590, 62.38940
676.6190, 88.42383
677.7790, 56.59180
678.9380, 47.87646
680.0970, 46.27344
681.2570, 90.78198
682.4160, 83.42554
683.5740, 126.1997
684.7330, 40.12720
685.8920, 35.16260
687.0500, 40.30371
688.2080, 43.55225
689.3660, 51.91016
690.5240, 61.38135
691.6820, 131.9709
692.8390, 76.71509
693.9960, 102.5850
695.1540, 18.59375
696.3110, 64.69678
697.4680, 90.91821
698.6240, 90.27100
699.7810, 28.75488
700.9370, 23.33643
702.0940, 8.012695
703.2500, 38.77490
704.4060, 43.63843
705.5610, 36.43481
706.7170, 68.67188
707.8720, 23.85400
709.0280, 17.12720
710.1830, 10.48755
711.3380, 55.06934
712.4920, 40.43237
713.6470, 1.026855
714.8020, 55.30298
715.9560, 1.416992
717.1100, 64.79956
718.2640, 15.96899
719.4180, 74.92578
720.5720, 10.08057
721.7250, 12.02148
722.8780, 17.09814
724.0320, 46.70801
725.1850, 82.45898
726.3380, 56.16040
727.4900, 72.80884
728.6430, 91.40747
729.7950, 66.95801
730.9470, 91.45898
732.1000, 165.9124
733.2510, 125.3228
734.4030, 118.6880
735.5550, 206.0090
736.7060, 152.2869
737.8570, 216.5225
739.0090, 215.7156
740.1600, 154.8665
741.3100, 188.9758
742.4610, 312.0437
743.6110, 235.0703
744.7620, 150.0562
745.9120, 296.0015
747.0620, 327.9065
748.2120, 353.7715
749.3610, 466.5967
750.5110, 487.3828
751.6600, 505.1296
752.8090, 518.8374
753.9580, 558.5068
755.1070, 533.1382
756.2560, 628.7317
757.4050, 641.2876
758.5530, 751.8066
759.7010, 840.2883
760.8490, 871.7336
761.9970, 912.1428
763.1450, 1061.516
764.2920, 1224.854
765.4400, 1179.156
766.5870, 1470.423
767.7340, 1503.656
768.8810, 1676.855
770.0280, 1771.020
771.1740, 1901.151
772.3210, 1999.249
773.4670, 2132.315
774.6130, 2283.349
775.7590, 2448.349
776.9050, 2578.320
778.0510, 2643.260
779.1960, 2750.169
780.3420, 2927.055
781.4870, 2980.915
782.6320, 2972.745
783.7770, 3056.547
784.9210, 2948.323
786.0660, 3010.072
787.2100, 2929.102
788.3540, 2850.583
789.4980, 2886.271
790.6420, 2854.938
791.7860, 2896.368
792.9300, 3036.595
794.0730, 3104.690
795.2160, 3189.951
796.3590, 3420.627
797.5020, 3601.927
798.6450, 3844.617
799.7880, 4309.025
800.9300, 4616.294
802.0720, 5221.017
803.2150, 5608.637
804.3560, 6097.062
805.4980, 6838.188
806.6400, 7263.451
807.7810, 7944.698
808.9230, 8545.569
810.0640, 9096.311
811.2050, 9694.010
812.3460, 10255.41
813.4860, 10767.52
814.6270, 11332.80
815.7670, 11803.08
816.9070, 12244.91
818.0470, 12772.85
819.1870, 13319.00
820.3270, 13705.61
821.4670, 13973.56
822.6060, 14387.92
823.7450, 14481.60
824.8840, 14424.97
826.0230, 14172.17
827.1620, 13755.89
828.3010, 13392.04
829.4390, 13017.80
830.5770, 12513.08
831.7150, 12163.77
832.8530, 11679.77
833.9910, 11416.91
835.1290, 11016.45
836.2660, 10765.09
837.4030, 10532.68
838.5410, 10329.67
839.6780, 10249.68
840.8140, 10076.93
841.9510, 9915.759
843.0870, 9922.194
844.2240, 9910.680
845.3600, 10000.05
846.4960, 9989.905
847.6320, 10049.27
848.7680, 10182.18
849.9030, 10187.15
851.0380, 10401.98
852.1740, 10358.00
853.3090, 10413.30
854.4440, 10647.55
855.5780, 10751.79
856.7130, 10904.71
857.8470, 11508.88
858.9820, 11830.17
860.1160, 12482.96
861.2500, 13247.13
862.3830, 14053.83
863.5170, 15433.24
864.6500, 16730.90
865.7840, 18436.76
866.9170, 20731.41
868.0500, 23548.33
869.1830, 26617.57
870.3150, 30553.73
871.4480, 35049.88
872.5800, 39640.19
873.7120, 44494.51
874.8440, 49342.85
875.9760, 53671.23
877.1080, 56737.60
878.2390, 58713.02
879.3710, 59347.45
880.5020, 58366.90
881.6330, 56276.38
882.7640, 52805.88
883.8940, 47542.41
885.0250, 42660.95
886.1550, 37012.52
887.2850, 32320.12
888.4160, 27817.74
889.5450, 23785.38
890.6750, 20314.05
891.8050, 17745.76
892.9340, 15383.48
894.0630, 13541.23
895.1930, 12026.00
896.3220, 10649.80
897.4500, 9537.631
898.5790, 8793.482
899.7070, 7932.366
900.8360, 7409.275
901.9640, 6797.211
903.0920, 6534.175
904.2200, 6064.167
905.3470, 5688.188
906.4750, 5401.235
907.6020, 5122.313
908.7290, 4773.417
909.8560, 4452.554
910.9830, 4355.717
912.1100, 4095.210
913.2360, 3812.435
914.3630, 3599.687
915.4890, 3411.450
916.6150, 3225.386
917.7410, 3056.743
918.8670, 2884.229
919.9920, 2750.349
921.1180, 2534.897
922.2430, 2459.767
923.3680, 2361.610
924.4930, 2199.870
925.6180, 2144.322
926.7420, 2070.170
927.8670, 2027.800
928.9910, 1897.986
930.1150, 1803.713
931.2390, 1878.794
932.3630, 1819.852
933.4860, 1679.176
934.6100, 1752.806
935.7330, 1693.290
936.8560, 1671.580
937.9790, 1839.812
939.1020, 1762.634
940.2250, 1973.699
941.3470, 1949.766
942.4700, 2025.742
943.5920, 2117.500
944.7140, 2115.648
945.8360, 2165.016
946.9570, 2119.435
948.0790, 2101.829
949.2000, 2016.301
950.3220, 1984.949
951.4430, 1882.289
952.5640, 1741.836
953.6840, 1520.819
954.8050, 1458.884
955.9250, 1287.178
957.0460, 1145.389
958.1660, 988.7622
959.2860, 919.7783
960.4050, 816.2891
961.5250, 755.7217
962.6440, 709.0137
963.7640, 713.6631
964.8830, 733.7241
966.0020, 815.3218
967.1210, 916.8584
968.2390, 932.6714
969.3580, 978.5073
970.4760, 1107.252
971.5940, 1260.986
972.7120, 1278.097
973.8300, 1514.497
974.9480, 1698.959
976.0650, 1780.238
977.1830, 1956.211
978.3000, 2071.103
979.4170, 2222.536
980.5340, 2201.929
981.6500, 2416.590
982.7670, 2461.338
983.8830, 2575.840
985.0000, 2676.387
986.1160, 2721.972
987.2320, 2774.582
988.3470, 2800.227
989.4630, 2918.898
990.5780, 2960.599
991.6940, 2870.353
992.8090, 3104.138
993.9240, 2971.952
995.0380, 3045.803
996.1530, 3219.680
997.2680, 3234.578
998.3820, 3296.500
999.4960, 3476.444
1000.610, 3573.410
1001.724, 3604.397
1002.837, 3863.406
1003.951, 3782.433
1005.064, 3903.478
1006.177, 3899.543
1007.291, 3663.626
1008.403, 3463.728
1009.516, 3192.847
1010.629, 2868.984
1011.741, 2438.138
1012.853, 2179.309
1013.965, 1759.497
1015.077, 1407.702
1016.189, 1153.922
1017.300, 1066.161
1018.412, 930.4146
1019.523, 760.6846
1020.634, 569.9697
1021.745, 503.2720
1022.856, 505.5894
1023.966, 351.9219
1025.077, 288.2710
1026.187, 321.6353
1027.297, 278.0273
1028.407, 300.4336
1029.517, 287.8540
1030.627, 237.2896
1031.736, 233.7515
1032.845, 202.2275
1033.955, 205.7163
1035.064, 145.2280
1036.172, 178.7544
1037.281, 109.2930
1038.390, 92.84521
1039.498, 64.41162
1040.606, 151.9902
1041.714, 50.58105
1042.822, 68.18750
1043.930, 16.81201
1045.037, 19.54492
1046.145, 34.11475
1047.252, 57.79297
1048.359, 56.51562
1049.466, 30.82275
1050.573, 3.872070
1051.679, 6.424316
1052.786, 31.71387
1053.892, 6.003906
1054.998, 69.28662
1056.104, 16.58594
1057.210, 52.88184
1058.315, 32.18896
1059.421, 78.49805
1060.526, 14.16748
1061.631, 19.13672
1062.736, 5.535156
1063.841, 10.78809
1064.946, 53.11035
1066.050, 87.32324
1067.154, 153.7007
1068.258, 85.15039
1069.362, 5.636719
1070.466, 44.12402
1071.570, 98.58105
1072.674, 36.12402
1073.777, 49.69629
1074.880, 125.2939
1075.983, 2.958496
1077.086, 27.62842
1078.189, 92.31543
1079.291, 27.05566
1080.394, 33.18457
1081.496, 34.57617
1082.598, 55.36328
1083.700, 32.18750
1084.802, 65.03906
1085.903, 21.93604
1087.005, 50.14355
1088.106, 85.78027
1089.207, 42.23633
1090.308, 16.24951
1091.409, 10.74561
1092.509, 37.76367
1093.610, 47.11890
1094.710, 48.91992
1095.810, 44.06641
1096.910, 32.25684
1098.010, 9.515625
1099.110, 13.26855
1100.209, 41.00488
1101.309, 4.267578
1102.408, 16.56738
1103.507, 93.90332
1104.606, 34.30811
1105.704, 11.24072
1106.803, 68.23291
1107.901, 0.2275390
1108.999, 26.65674
1110.097, 5.933594
1111.195, 21.44043
1112.293, 86.79102
1113.391, 44.87061
1114.488, 46.40820
1115.585, 110.6714
1116.682, 250.9214
1117.779, 352.1582
1118.876, 379.3252
1119.973, 359.5967
1121.069, 395.7954
1122.165, 423.9800
1123.261, 366.1519
1124.357, 391.3086
1125.453, 381.4507
1126.549, 333.5781
1127.644, 205.6904
1128.739, 224.7871
1129.835, 243.8691
1130.930, 193.9355
1132.024, 212.9854
1133.119, 191.0195
1134.214, 226.0376
1135.308, 263.0396
1136.402, 290.0244
1137.496, 343.9927
1138.590, 377.9438
1139.684, 330.8774
1140.777, 342.7935
1141.871, 422.6924
1142.964, 440.5732
1144.057, 362.4365
1145.150, 482.2817
1146.243, 402.1084
1147.335, 418.9185
1148.428, 447.8198
1149.520, 415.5913
1150.612, 352.3438
1151.704, 376.0776
1152.796, 522.1001
1153.887, 444.8350
1154.979, 468.5107
1156.070, 389.6738
1157.161, 421.3975
1158.252, 427.1343
1159.343, 364.7910
1160.433, 507.4590
1161.524, 474.3687
1162.614, 433.9414
1163.704, 454.6699
1164.794, 419.1191
1165.884, 417.0737
1166.974, 403.9839
1168.063, 403.4258
1169.153, 418.3345
1170.242, 413.3188
1171.331, 327.8481
1172.420, 329.4067
1173.508, 316.7036
1174.597, 378.8311
1175.685, 312.9409
1176.774, 320.4209
1177.862, 395.4727
1178.950, 330.6655
1180.037, 388.0869
1181.125, 269.7490
1182.212, 310.9951
1183.300, 289.3008
1184.387, 225.6738
1185.474, 266.9204
1186.560, 231.6733
1187.647, 225.4722
1188.733, 241.7402
1189.820, 204.2183
1190.906, 200.9990
1191.992, 178.1421
1193.078, 304.5430
1194.163, 197.4858
1195.249, 241.3164
1196.334, 153.9316
1197.419, 227.4302
1198.504, 197.6943
1199.589, 315.3755
1200.674, 179.0229
1201.758, 157.6733
1202.843, 161.8848
1203.927, 194.8149
1205.011, 206.7188
1206.095, 215.8276
1207.179, 216.6045
1208.262, 230.0747
1209.345, 208.7964
1210.429, 228.5396
1211.512, 258.0537
1212.595, 231.1060
1213.677, 190.7451
1214.760, 226.7319
1215.842, 237.5518
1216.925, 278.9727
1218.007, 274.8691
1219.089, 303.5703
1220.171, 266.9897
1221.252, 267.3164
1222.334, 277.9312
1223.415, 259.8853
1224.496, 284.8872
1225.577, 254.8135
1226.658, 293.0889
1227.738, 301.1626
1228.819, 262.4546
1229.899, 237.8599
1230.979, 313.0610
1232.060, 335.4268
1233.139, 261.7427
1234.219, 349.1118
1235.299, 289.2261
1236.378, 282.1802
1237.457, 213.1055
1238.536, 289.1152
1239.615, 220.4731
1240.694, 245.0088
1241.772, 378.7744
1242.851, 275.7437
1243.929, 300.4697
1245.007, 327.1343
1246.085, 314.0557
1247.163, 325.8481
1248.240, 348.2812
1249.318, 332.2310
1250.395, 310.1348
1251.472, 349.9790
1252.549, 371.0210
1253.626, 341.8340
1254.703, 308.6318
1255.779, 386.5557
1256.855, 392.3223
1257.931, 287.0742
1259.007, 380.0337
1260.083, 349.7549
1261.159, 356.4619
1262.234, 365.1665
1263.310, 216.0703
1264.385, 255.7319
1265.460, 303.3799
1266.535, 259.0132
1267.610, 337.6758
1268.684, 198.2798
1269.758, 113.8701
1270.833, 109.4478
1271.907, 201.0117
1272.981, 197.5625
1274.054, 199.0977
1275.128, 143.6196
1276.201, 88.12744
1277.275, 61.62402
1278.348, 89.10596
1279.421, 104.5742
1280.493, 133.0835
1281.566, 31.52490
1282.638, 77.95020
1283.711, 139.3613
1284.783, 19.75977
1285.855, 66.14062
1286.927, 28.49170
1287.998, 71.83643
1289.070, 64.15137
1290.141, 25.45312
1291.212, 28.26074
1292.283, 37.98584
1293.354, 84.21875
1294.425, 19.56006
1295.495, 17.62988
1296.566, 80.80420
1297.636, 14.96582
1298.706, 11.11182
1299.776, 43.24023
1300.845, 34.35596
1301.915, 1.458008
1302.984, 12.45850
1304.054, 12.87500
1305.123, 24.26709
1306.191, 13.38037
1307.260, 0.4125980
1308.329, 12.46387
1309.397, 48.46631
1310.465, 48.38721
1311.534, 19.30078
1312.602, 98.20215
1313.669, 19.09717
1314.737, 47.97998
1315.804, 45.85889
1316.872, 85.72949
1317.939, 9.597168
1319.006, 53.45752
1320.073, 24.32275
1321.139, 69.15332
1322.206, 54.99902
1323.272, 15.83496
1324.338, 72.66113
1325.404, 40.36279
1326.470, 26.20264
1327.536, 3.071777
1328.601, 31.95166
1329.667, 54.82373
1330.732, 30.64990
1331.797, 48.02051
1332.862, 63.42285
1333.926, 47.32080
1334.991, 82.24414
1336.055, 95.16064
1337.120, 85.07861
1338.184, 114.0132
1339.248, 104.3433
1340.311, 77.85693
1341.375, 90.77734
1342.438, 117.7080
1343.502, 96.64404
1344.565, 75.59375
1345.628, 120.5464
1346.691, 100.4888
1347.753, 45.45117
1348.816, 37.40576
1349.878, 62.35352
1350.940, 63.30322
1352.002, 100.2612
1353.064, 82.23145
1354.126, 27.21338
1355.187, 2.207520
1356.248, 70.20850
1357.310, 133.2090
1358.371, 49.20752
1359.431, 14.20020
1360.492, 90.19482
1361.553, 30.80273
1362.613, 38.21777
1363.673, 14.25000
1364.733, 12.28271
1365.793, 43.33643
1366.853, 41.39453
1367.912, 109.4502
1368.972, 72.51367
1370.031, 114.6743
1371.090, 65.73291
1372.149, 99.86719
1373.208, 104.9409
1374.267, 49.00928
1375.325, 4.926758
1376.383, 39.13184
1377.441, 46.18604
1378.499, 73.23584
1379.557, 7.281738
1380.615, 79.32324
1381.672, 132.3623
1382.730, 22.39697
1383.787, 61.45020
1384.844, 64.52246
1385.901, 5.547363
1386.957, 130.5684
1388.014, 76.58691
1389.070, 52.67578
1390.126, 4.688477
1391.182, 99.69775
1392.238, 82.70508
1393.294, 88.72510
1394.349, 44.72852
1395.405, 114.9146
1396.460, 76.91455
1397.515, 129.3955
1398.570, 89.51367
1399.625, 75.51025
1400.679, 91.50537
1401.734, 90.50000
1402.788, 97.50146
1403.842, 58.10986
1404.896, 161.9922
1405.950, 207.9858
1407.003, 41.97900
1408.057, 200.9717
1409.110, 122.6572
1410.163, 104.6113
1411.216, 112.6069
1412.269, 80.27148
1413.322, 111.1836
1414.374, 189.2495
1415.427, 198.1978
1416.479, 83.10889
1417.531, 144.9189
1418.583, 82.89014
1419.634, 100.6982
1420.686, 85.69141
1421.737, 172.9551
1422.788, 74.49854
1423.839, 136.5591
1424.890, 146.0483
1425.941, 119.4434
1426.992, 198.3789
1428.042, 115.1553
1429.092, 101.3525
1430.142, 115.5059
1431.192, 169.6543
1432.242, 133.0747
1433.291, 154.1924
1434.341, 132.2002
1435.390, 178.4043
1436.439, 152.1782
1437.488, 163.8784
1438.537, 152.5034
1439.586, 144.7866
1440.634, 174.7402
1441.682, 121.6470
1442.731, 163.5483
1443.779, 135.0874
1444.826, 148.3511
1445.874, 198.5312
1446.922, 188.4224
1447.969, 161.8086
1449.016, 199.6006
1450.063, 228.3618
1451.110, 217.2720
1452.157, 251.2876
1453.203, 197.3027
1454.250, 113.3188
1455.296, 178.3340
1456.342, 235.3491
1457.388, 209.3638
1458.433, 136.1772
1459.479, 271.1885
1460.524, 139.1982
1461.570, 185.6958
1462.615, 234.6973
1463.660, 275.4155
1464.705, 253.9639
1465.749, 276.9199
1466.794, 180.2344
1467.838, 243.0972
1468.882, 261.0415
1469.926, 190.9795
1470.970, 249.8682
1472.013, 189.1748
1473.057, 230.0298
1474.100, 90.64941
1475.143, 240.3550
1476.186, 119.2456
1477.229, 167.8203
1478.272, 181.6777
1479.314, 198.2231
1480.357, 190.0815
1481.399, 165.8687
1482.441, 124.7090
1483.483, 166.5381
1484.525, 160.3604
1485.566, 99.17139
1486.608, 80.97217
1487.649, 165.6777
1488.690, 120.4658
1489.731, 146.2490
1490.771, 145.0483
1491.812, 64.86182
1492.853, 80.69385
1493.893, 68.54395
1494.933, 15.41650
1495.973, 86.28955
1497.013, 25.17041
1498.052, 75.05518
1499.092, 67.98682
1500.131, 101.9858
1501.170, 131.0317
1502.209, 119.3306
1503.248, 63.14453
1504.287, 101.2192
1505.325, 91.30859
1506.363, 67.40918
1507.402, 152.5205
1508.440, 36.64404
1509.478, 31.77246
1510.515, 80.90039
1511.553, 64.02979
1512.590, 77.16113
1513.627, 26.29541
1514.664, 82.44043
1515.701, 93.62061
1516.738, 89.84277
1517.775, 42.07764
1518.811, 90.32178
1519.847, 2.592773
1520.883, 86.88525
1521.919, 10.80176
1522.955, 19.53564
1523.991, 59.89746
1525.026, 65.28076
1526.061, 103.6890
1527.096, 49.12646
1528.131, 12.40527
1529.166, 61.09570
1530.201, 58.62988
1531.235, 100.8506
1532.270, 122.4111
1533.304, 83.85449
1534.338, 130.5078
1535.372, 71.19336
1536.405, 16.91260
1537.439, 75.57031
1538.472, 16.15918
1539.505, 59.98291
1540.538, 143.4941
1541.571, 26.39697
1542.604, 142.2676
1543.637, 63.23975
1544.669, 85.72314
1545.701, 6.405273
1546.733, 109.4517
1547.765, 48.18457
1548.797, 70.90527
1549.829, 94.64600
1550.860, 48.37402
1551.891, 160.5381
1552.922, 32.24707
1553.953, 128.9482
1554.984, 167.8677
1556.015, 76.33154
1557.045, 140.4224
1558.076, 66.38379
1559.106, 205.9434
1560.136, 177.7734
1561.165, 1.219727
1562.195, 72.96777
1563.225, 91.52539
1564.254, 18.26123
1565.283, 0.0000000E+00
##END=



