##NAMES=Grossular
##RRUFFID=R060382
##IDEAL CHEMISTRY=Ca_3_Al_2_(SiO_4_)_3_
##LOCALITY=Lalatema, near Mount Kilimanjaro, Tanzania
##OWNER=RRUFF
##SOURCE=Herb Obodda
##DESCRIPTION=Pale tan colored fragment
##STATUS=The identification of this mineral has been confirmed by X-ray diffraction and chemical analysis
##URL=rruff.info/R060382
##MEASURED CHEMISTRY=(Ca_2.95_Mg_0.03_Mn_0.02_)_Σ=3_Al_2.00_((Si_0.99_Ti_0.01_)_Σ=1_O_4_)_3_; trace amounts of Fe
##PIN_ID=L01581
##ORIENTATION=Laser parallel to -a* (-1 0 0). Fiducial mark perpendicular to laser is parallel to 0 1 0
118.5340, 0.0000000E+00
119.7720, 33.41272
121.0100, 52.12341
122.2470, 8.390991
123.4850, 29.98901
124.7220, 9.167480
125.9590, 7.935791
127.1960, 6.047607
128.4330, 29.37158
129.6700, 4.117188
130.9060, 32.55615
132.1430, 40.37109
133.3790, 65.32690
134.6150, 32.72705
135.8500, 39.87341
137.0860, 43.88135
138.3210, 34.01587
139.5560, 43.83423
140.7910, 33.34045
142.0260, 13.88806
143.2610, 9.474365
144.4950, 28.09790
145.7290, 28.90222
146.9630, 37.76404
148.1970, 8.638794
149.4310, 0.4716800
150.6640, 1.566040
151.8980, 22.35608
153.1310, 57.29492
154.3640, 58.25024
155.5970, 71.72876
156.8290, 88.24744
158.0620, 66.27136
159.2940, 26.30566
160.5260, 1.617798
161.7580, 49.63550
162.9890, 56.66467
164.2210, 66.70532
165.4520, 103.7578
166.6830, 87.82581
167.9140, 86.91309
169.1450, 137.0204
170.3760, 172.1469
171.6060, 240.4561
172.8360, 314.4070
174.0660, 354.5055
175.2960, 401.6260
176.5260, 454.7673
177.7550, 622.9282
178.9840, 794.1079
180.2130, 1058.305
181.4420, 1203.519
182.6710, 1119.747
183.9000, 944.9895
185.1280, 740.2448
186.3560, 518.5115
187.5840, 336.7889
188.8120, 237.0759
190.0400, 111.3717
191.2670, 122.6753
192.4950, 26.70117
193.7220, 49.03308
194.9490, 43.33032
196.1750, 39.62866
197.4020, 14.92834
198.6280, 7.226807
199.8540, 25.52771
201.0800, 56.83142
202.3060, 10.86182
203.5320, 24.44788
204.7570, 21.76086
205.9830, 4.082153
207.2080, 9.414429
208.4330, 29.75598
209.6570, 41.10413
210.8820, 40.16089
212.1060, 54.86279
213.3310, 36.30725
214.5550, 39.80615
215.7780, 38.35559
217.0020, 25.93323
218.2260, 4.515381
219.4490, 54.10095
220.6720, 41.70068
221.8950, 13.31421
223.1180, 4.056030
224.3400, 18.41467
225.5630, 18.02734
226.7850, 41.93530
228.0070, 0.6181640
229.2290, 34.30005
230.4500, 53.98389
231.6720, 34.67139
232.8930, 16.36194
234.1140, 10.05225
235.3350, 30.74219
236.5560, 39.43591
237.7770, 51.12964
238.9970, 45.82397
240.2170, 49.51758
241.4370, 51.05725
242.6570, 69.89868
243.8770, 54.58582
245.0960, 74.26624
246.3160, 84.93262
247.5350, 47.59644
248.7540, 105.2626
249.9730, 60.92505
251.1910, 38.58093
252.4100, 7.230347
253.6280, 37.87268
254.8460, 48.50818
256.0640, 46.13708
257.2810, 69.75891
258.4990, 92.37427
259.7160, 74.98267
260.9330, 74.58459
262.1500, 77.17944
263.3670, 13.76782
264.5840, 91.34961
265.8000, 10.27563
267.0170, 36.12109
268.2330, 0.4694820
269.4490, 57.94531
270.6640, 27.36804
271.8800, 12.77893
273.0950, 75.20093
274.3100, 17.63306
275.5260, 99.07397
276.7400, 143.3059
277.9550, 113.7622
279.1690, 67.22510
280.3840, 132.6938
281.5980, 78.16626
282.8120, 77.64331
284.0260, 70.12549
285.2390, 12.61157
286.4530, 58.10156
287.6660, 32.59497
288.8790, 42.09106
290.0920, 71.59033
291.3040, 8.389648
292.5170, 13.02661
293.7290, 46.94775
294.9410, 64.53906
296.1530, 69.32861
297.3650, 79.09961
298.5770, 54.68335
299.7880, 84.41797
301.0000, 34.19824
302.2110, 112.9993
303.4220, 40.49976
304.6320, 36.75269
305.8430, 65.37378
307.0530, 97.25122
308.2630, 62.64697
309.4730, 107.3896
310.6830, 115.9165
311.8930, 110.0903
313.1030, 220.0532
314.3120, 180.7974
315.5210, 266.6328
316.7300, 260.5132
317.9390, 260.2822
319.1470, 247.0215
320.3560, 293.5811
321.5640, 324.5146
322.7720, 292.4690
323.9800, 259.5679
325.1880, 326.4614
326.3950, 307.8674
327.6030, 288.9741
328.8100, 306.9519
330.0170, 303.0159
331.2240, 311.1458
332.4300, 263.2119
333.6370, 230.0251
334.8430, 202.8416
336.0490, 244.5811
337.2550, 258.2563
338.4610, 230.9895
339.6660, 233.8547
340.8720, 207.6858
342.0770, 253.6323
343.2820, 208.5186
344.4870, 287.4038
345.6920, 263.3420
346.8960, 254.1492
348.1010, 354.5679
349.3050, 357.4219
350.5090, 438.2083
351.7130, 452.2017
352.9160, 521.1606
354.1200, 523.8252
355.3230, 691.5132
356.5260, 834.3584
357.7290, 910.0938
358.9320, 1172.827
360.1350, 1495.503
361.3370, 1682.131
362.5390, 2041.778
363.7410, 2488.405
364.9430, 3123.026
366.1450, 3795.645
367.3470, 4559.314
368.5480, 5200.865
369.7490, 5827.704
370.9500, 6277.633
372.1510, 6651.074
373.3520, 7043.654
374.5520, 7226.382
375.7530, 7059.393
376.9530, 6497.952
378.1530, 5384.471
379.3520, 4532.923
380.5520, 3521.266
381.7510, 2552.604
382.9510, 1992.935
384.1500, 1550.262
385.3490, 1235.583
386.5480, 978.9011
387.7460, 839.2153
388.9440, 698.5247
390.1430, 675.8301
391.3410, 579.1304
392.5390, 486.4253
393.7360, 455.7158
394.9340, 458.0015
396.1310, 424.2808
397.3280, 454.5559
398.5250, 359.8257
399.7220, 412.0894
400.9190, 352.3472
402.1150, 317.5996
403.3120, 315.8467
404.5080, 360.0889
405.7040, 344.3342
406.8990, 452.5776
408.0950, 455.8215
409.2900, 567.0596
410.4860, 631.9302
411.6810, 774.1587
412.8760, 844.3628
414.0700, 1029.578
415.2650, 1198.788
416.4590, 1360.991
417.6540, 1387.189
418.8480, 1182.391
420.0420, 1018.587
421.2350, 796.7754
422.4290, 571.9573
423.6220, 398.1333
424.8150, 265.3008
426.0080, 264.4756
427.2010, 211.6423
428.3940, 151.8020
429.5860, 99.95483
430.7790, 153.0989
431.9710, 129.2356
433.1630, 120.3630
434.3540, 25.48267
435.5460, 65.59180
436.7370, 1.829590
437.9290, 79.09668
439.1200, 31.17480
440.3110, 31.39038
441.5010, 84.44653
442.6920, 49.62769
443.8820, 39.67212
445.0730, 35.69629
446.2630, 9.168945
447.4530, 56.17480
448.6420, 11.20898
449.8320, 19.74756
451.0210, 58.30518
452.2100, 53.60425
453.3990, 27.49878
454.5880, 54.57812
455.7770, 3.248047
456.9660, 56.05908
458.1540, 35.07202
459.3420, 25.17822
460.5300, 50.42285
461.7180, 56.25513
462.9050, 9.836182
464.0930, 11.42261
465.2800, 7.357422
466.4670, 19.56079
467.6540, 23.57275
468.8410, 6.535889
470.0280, 0.4802250
471.2140, 5.387695
472.4000, 18.62695
473.5870, 19.79688
474.7720, 0.6130370
475.9580, 47.01025
477.1440, 46.84692
478.3290, 65.76831
479.5140, 81.58105
480.6990, 67.18628
481.8840, 35.78882
483.0690, 44.28271
484.2540, 16.86401
485.4380, 31.44775
486.6220, 31.91138
487.8060, 19.35474
488.9900, 50.77759
490.1740, 56.18115
491.3570, 39.58667
492.5410, 56.02612
493.7240, 6.588135
494.9070, 15.20898
496.0900, 85.90137
497.2720, 80.36084
498.4550, 42.94336
499.6370, 69.45142
500.8190, 70.01074
502.0010, 83.49609
503.1830, 94.93091
504.3650, 90.21777
505.5460, 95.46387
506.7280, 97.19824
507.9090, 97.42505
509.0900, 85.07886
510.2710, 92.63867
511.4510, 116.1047
512.6320, 98.83081
513.8120, 139.3821
514.9920, 105.9941
516.1720, 70.16040
517.3520, 3.135498
518.5310, 110.7717
519.7110, 120.2588
520.8900, 135.9995
522.0690, 189.4119
523.2480, 226.7856
524.4270, 278.1160
525.6050, 360.7380
526.7840, 318.0574
527.9620, 256.8862
529.1400, 292.6428
530.3180, 293.0967
531.4960, 232.7419
532.6730, 202.2815
533.8510, 197.5352
535.0280, 175.1519
536.2050, 217.5874
537.3820, 288.7915
538.5590, 349.3254
539.7350, 367.5735
540.9120, 485.9004
542.0880, 705.0630
543.2640, 838.3333
544.4400, 1070.573
545.6150, 1299.017
546.7910, 1628.312
547.9660, 1949.193
549.1410, 2153.701
550.3170, 2081.941
551.4910, 1973.150
552.6660, 1528.246
553.8410, 1278.137
555.0150, 924.8464
556.1890, 674.9067
557.3630, 471.7151
558.5370, 390.6946
559.7110, 408.1438
560.8840, 284.7615
562.0570, 262.4165
563.2310, 309.2500
564.4040, 215.1792
565.5760, 302.6770
566.7490, 256.5662
567.9220, 256.2129
569.0940, 236.9045
570.2660, 233.6960
571.4380, 238.0554
572.6100, 237.4895
573.7820, 230.9182
574.9530, 238.5613
576.1240, 216.8760
577.2960, 184.0361
578.4670, 175.1982
579.6370, 226.5942
580.8080, 184.7520
581.9790, 221.7722
583.1490, 190.0066
584.3190, 221.1577
585.4890, 247.1899
586.6590, 196.1201
587.8280, 313.3679
588.9980, 298.9583
590.1670, 369.3008
591.3360, 325.8159
592.5050, 361.1970
593.6740, 280.9463
594.8430, 218.0725
596.0110, 275.0891
597.1790, 264.3967
598.3480, 179.1113
599.5160, 154.7493
600.6830, 119.3323
601.8510, 215.7725
603.0180, 195.3423
604.1860, 112.9709
605.3530, 201.0725
606.5200, 167.3904
607.6870, 149.8384
608.8530, 207.0710
610.0200, 163.8137
611.1860, 212.3333
612.3520, 181.0305
613.5180, 211.5400
614.6840, 211.2373
615.8500, 165.9395
617.0150, 202.6570
618.1800, 179.5378
619.3450, 208.2998
620.5100, 255.1340
621.6750, 252.7124
622.8400, 259.9600
624.0040, 266.7383
625.1690, 247.1399
626.3330, 300.0977
627.4970, 310.1594
628.6610, 294.2334
629.8240, 298.6870
630.9880, 271.4175
632.1510, 259.2495
633.3140, 226.0547
634.4770, 207.2183
635.6400, 185.4695
636.8020, 236.5989
637.9650, 202.2422
639.1270, 215.0066
640.2890, 197.7288
641.4510, 210.1367
642.6130, 253.6904
643.7750, 158.2065
644.9360, 65.68286
646.0980, 130.0596
647.2590, 172.4897
648.4200, 212.9019
649.5810, 156.5527
650.7410, 174.1406
651.9020, 107.9331
653.0620, 145.3735
654.2220, 125.9890
655.3820, 227.6084
656.5420, 29.05542
657.7020, 104.0415
658.8610, 134.3997
660.0200, 68.46826
661.1800, 142.0679
662.3390, 146.3438
663.4970, 151.5210
664.6560, 76.35742
665.8150, 143.0815
666.9730, 15.95435
668.1310, 27.43555
669.2890, 93.85718
670.4470, 42.22314
671.6050, 61.53125
672.7620, 123.7825
673.9200, 30.98047
675.0770, 68.12085
676.2340, 117.2046
677.3910, 32.23535
678.5470, 94.20752
679.7040, 69.12769
680.8600, 101.9905
682.0160, 69.80054
683.1720, 70.55444
684.3280, 15.25195
685.4840, 24.10522
686.6390, 1.954346
687.7950, 12.52734
688.9500, 37.40674
690.1050, 37.78882
691.2600, 58.11719
692.4150, 100.3958
693.5690, 136.6255
694.7240, 45.80908
695.8780, 98.93848
697.0320, 51.01587
698.1860, 31.96484
699.3400, 122.9778
700.4930, 106.8687
701.6470, 56.70679
702.8000, 26.48584
703.9530, 122.2048
705.1060, 42.13257
706.2590, 71.44238
707.4110, 52.95801
708.5640, 21.41309
709.7160, 116.8062
710.8680, 16.13989
712.0200, 116.4111
713.1720, 68.62378
714.3230, 24.77539
715.4750, 92.86475
716.6260, 16.75537
717.7770, 31.54346
718.9280, 31.44727
720.0790, 55.14062
721.2300, 47.92139
722.3800, 23.50537
723.5300, 32.69580
724.6810, 43.74609
725.8300, 31.15332
726.9800, 44.37695
728.1300, 30.98291
729.2790, 6.671875
730.4290, 13.43604
731.5780, 47.73779
732.7270, 9.847656
733.8760, 101.8477
735.0240, 73.84961
736.1730, 19.78760
737.3210, 13.44287
738.4700, 9.922852
739.6180, 48.17773
740.7650, 16.76025
741.9130, 42.81934
743.0610, 104.8516
744.2080, 29.67676
745.3550, 2.746582
746.5020, 12.96240
747.6490, 5.969727
748.7960, 54.35352
749.9430, 82.40430
751.0890, 95.95605
752.2350, 24.56982
753.3810, 43.88477
754.5270, 73.36182
755.6730, 22.69043
756.8190, 42.14990
757.9640, 45.02051
759.1090, 80.31396
760.2540, 24.52539
761.3990, 78.69678
762.5440, 37.82666
763.6890, 146.8032
764.8330, 110.8159
765.9780, 83.76367
767.1220, 96.64600
768.2660, 95.46240
769.4100, 126.6865
770.5530, 137.6348
771.6970, 229.2065
772.8400, 204.4717
773.9830, 291.5796
775.1260, 389.8394
776.2690, 310.8940
777.4120, 335.4380
778.5540, 402.3496
779.6970, 364.3174
780.8390, 372.4404
781.9810, 364.5771
783.1230, 380.0396
784.2650, 355.9702
785.4060, 348.1577
786.5480, 266.5508
787.6890, 276.5215
788.8300, 238.6011
789.9710, 292.4009
791.1120, 278.6777
792.2520, 231.8335
793.3930, 224.7051
794.5330, 253.6182
795.6730, 259.4478
796.8130, 324.6626
797.9530, 200.2041
799.0930, 290.5566
800.2320, 301.9473
801.3710, 371.0981
802.5110, 384.8052
803.6500, 337.0020
804.7880, 424.5420
805.9270, 441.0405
807.0660, 494.2139
808.2040, 595.0317
809.3420, 656.9512
810.4800, 647.4365
811.6180, 679.3613
812.7560, 660.2036
813.8930, 788.6973
815.0310, 642.2759
816.1680, 774.0405
817.3050, 711.6719
818.4420, 802.1025
819.5790, 836.9878
820.7150, 847.7583
821.8520, 888.9575
822.9880, 885.9600
824.1240, 931.8320
825.2600, 860.5498
826.3960, 886.3291
827.5320, 863.6787
828.6670, 863.6191
829.8020, 887.7539
830.9380, 806.1768
832.0730, 671.2544
833.2080, 757.4116
834.3420, 704.7236
835.4770, 721.9614
836.6110, 734.1514
837.7450, 702.0469
838.8790, 775.8110
840.0130, 698.4263
841.1470, 683.3018
842.2810, 727.5679
843.4140, 812.9375
844.5470, 852.2334
845.6800, 853.0381
846.8130, 887.3325
847.9460, 905.9590
849.0790, 916.6802
850.2110, 939.0239
851.3440, 962.7109
852.4760, 989.1616
853.6080, 1028.698
854.7400, 1057.809
855.8710, 1114.130
857.0030, 1164.652
858.1340, 1096.900
859.2650, 1318.979
860.3960, 1399.206
861.5270, 1637.782
862.6580, 1684.530
863.7890, 1876.198
864.9190, 2054.736
866.0490, 2289.718
867.1790, 2667.406
868.3090, 2952.664
869.4390, 3542.657
870.5690, 4226.909
871.6980, 4775.808
872.8270, 5813.291
873.9570, 6665.247
875.0860, 7745.527
876.2140, 8936.023
877.3430, 10082.16
878.4720, 10751.29
879.6000, 11435.44
880.7280, 11245.23
881.8560, 10833.61
882.9840, 10073.28
884.1120, 8925.790
885.2390, 7938.698
886.3670, 6930.427
887.4940, 6167.128
888.6210, 5473.718
889.7480, 5018.052
890.8750, 4647.660
892.0020, 4481.406
893.1280, 4087.730
894.2540, 3636.087
895.3810, 3475.535
896.5070, 3211.191
897.6320, 2812.967
898.7580, 2522.502
899.8840, 2109.910
901.0090, 1678.497
902.1340, 1351.952
903.2590, 1268.138
904.3840, 990.3008
905.5090, 889.6938
906.6340, 760.3940
907.7580, 671.9810
908.8820, 674.5273
910.0060, 563.8335
911.1300, 508.7212
912.2540, 366.9595
913.3780, 519.5791
914.5010, 472.4873
915.6250, 465.5376
916.7480, 352.7905
917.8710, 406.6396
918.9940, 345.6851
920.1160, 312.4639
921.2390, 288.7520
922.3610, 317.9028
923.4840, 294.3140
924.6060, 279.7866
925.7280, 187.6465
926.8490, 181.5400
927.9710, 334.3545
929.0930, 348.5405
930.2140, 188.7334
931.3350, 349.8535
932.4560, 190.5903
933.5770, 292.1841
934.6980, 271.3921
935.8180, 319.8374
936.9380, 335.6470
938.0590, 270.1509
939.1790, 284.5166
940.2990, 291.0781
941.4180, 181.8794
942.5380, 200.7007
943.6570, 181.2285
944.7770, 93.64014
945.8960, 119.9497
947.0150, 162.0527
948.1340, 48.99854
949.2520, 158.7876
950.3710, 3.829102
951.4890, 153.5869
952.6070, 20.46191
953.7260, 66.59473
954.8430, 80.94531
955.9610, 5.541992
957.0790, 16.49707
958.1960, 78.73535
959.3130, 4.959961
960.4310, 18.90039
961.5480, 15.83105
962.6640, 27.03320
963.7810, 28.14746
964.8970, 29.55273
966.0140, 10.62598
967.1300, 7.810547
968.2460, 53.37988
969.3620, 3.552734
970.4780, 5.299805
971.5930, 0.7187500
972.7090, 104.7549
973.8240, 98.56738
974.9390, 116.2920
976.0540, 149.8613
977.1690, 167.9736
978.2830, 151.3467
979.3980, 226.0195
980.5120, 187.4150
981.6260, 206.4824
982.7400, 131.8965
983.8540, 285.6582
984.9680, 197.4268
986.0820, 251.2178
987.1950, 243.7520
988.3080, 288.7061
989.4210, 223.4307
990.5340, 182.1562
991.6470, 223.9014
992.7600, 221.6631
993.8720, 177.3906
994.9850, 338.8350
996.0970, 267.3145
997.2090, 249.1777
998.3210, 462.7812
999.4320, 465.2217
1000.544, 416.0449
1001.655, 320.1660
1002.767, 315.2910
1003.878, 334.3574
1004.989, 370.5889
1006.100, 395.7148
1007.210, 488.1025
1008.321, 621.2021
1009.431, 597.4883
1010.541, 689.5693
1011.651, 663.0850
1012.761, 778.1748
1013.871, 787.8008
1014.980, 836.4619
1016.090, 1019.291
1017.199, 958.6387
1018.308, 982.5225
1019.417, 896.4258
1020.526, 661.7764
1021.635, 564.3633
1022.743, 370.2256
1023.852, 330.2080
1024.960, 226.2920
1026.068, 341.9707
1027.176, 299.6367
1028.283, 292.6377
1029.391, 166.6904
1030.498, 171.2070
1031.606, 166.6699
1032.713, 285.4209
1033.820, 185.0889
1034.927, 168.8154
1036.033, 224.8955
1037.140, 208.0957
1038.246, 162.5625
1039.353, 119.0059
1040.459, 54.51172
1041.564, 150.3613
1042.670, 93.04297
1043.776, 200.9482
1044.881, 89.63184
1045.987, 165.7002
1047.092, 150.7773
1048.197, 105.9346
1049.302, 222.7354
1050.406, 288.4072
1051.511, 130.8691
1052.615, 159.5791
1053.720, 336.8926
1054.824, 263.9873
1055.928, 187.6025
1057.031, 140.2344
1058.135, 286.2061
1059.238, 238.7500
1060.342, 424.6709
1061.445, 303.3809
1062.548, 308.2529
1063.651, 305.4307
1064.754, 199.4570
1065.856, 322.6719
1066.959, 240.0146
1068.061, 61.13086
1069.163, 150.6006
1070.265, 187.7295
1071.367, 160.5430
1072.469, 164.2510
1073.570, 124.2842
1074.671, 108.6436
1075.773, 130.8213
1076.874, 131.5830
1077.975, 129.6660
1079.075, 141.0645
1080.176, 146.2373
1081.276, 150.7080
1082.377, 193.8086
1083.477, 59.11816
1084.577, 98.38086
1085.677, 14.97266
1086.777, 42.32520
1087.876, 101.7666
1088.975, 142.9775
1090.075, 29.47852
1091.174, 92.29688
1092.273, 111.5225
1093.372, 176.3066
1094.470, 25.28516
1095.569, 76.81641
1096.667, 31.42285
1097.765, 23.70410
1098.863, 8.579102
1099.961, 96.25684
1101.059, 34.31445
1102.157, 66.55469
1103.254, 65.00098
1104.351, 52.43066
1105.449, 5.432617
1106.546, 55.70312
1107.642, 12.03516
1108.739, 41.86719
1109.836, 53.08789
1110.932, 13.53516
1112.028, 121.0605
1113.124, 46.95020
1114.220, 31.83105
1115.316, 39.61426
1116.412, 25.98730
1117.507, 109.9668
1118.603, 124.1299
1119.698, 176.8770
1120.793, 17.96094
1121.888, 62.20996
1122.983, 50.03809
1124.077, 130.8047
1125.172, 117.3408
1126.266, 73.41211
1127.360, 112.1162
1128.454, 68.87891
1129.548, 193.8672
1130.642, 73.19629
1131.735, 124.5498
1132.829, 212.2305
1133.922, 415.2852
1135.015, 394.6758
1136.108, 318.5898
1137.201, 320.1133
1138.294, 474.9023
1139.386, 522.0156
1140.478, 457.1025
1141.571, 715.0361
1142.663, 671.8145
1143.755, 444.4326
1144.846, 705.5840
1145.938, 511.3174
1147.030, 447.2305
1148.121, 567.0283
1149.212, 385.4102
1150.303, 359.0732
1151.394, 226.0273
1152.485, 382.0977
1153.575, 288.9912
1154.666, 233.8096
1155.756, 419.0664
1156.846, 485.8359
1157.936, 462.3428
1159.026, 354.2344
1160.116, 311.5244
1161.205, 411.3809
1162.295, 393.4258
1163.384, 295.4170
1164.473, 529.2676
1165.562, 243.2812
1166.651, 367.5654
1167.739, 306.6807
1168.828, 450.3203
1169.916, 423.6338
1171.005, 374.6191
1172.093, 257.6738
1173.181, 263.5742
1174.268, 414.5273
1175.356, 431.4746
1176.443, 419.7266
1177.531, 497.6289
1178.618, 424.3926
1179.705, 463.8320
1180.792, 342.3398
1181.879, 395.6016
1182.965, 221.1172
1184.052, 205.8477
1185.138, 193.5352
1186.224, 289.3203
1187.310, 212.1016
1188.396, 298.2773
1189.482, 259.1582
1190.567, 123.2793
1191.653, 242.6270
1192.738, 42.60547
1193.823, 140.7012
1194.908, 89.85742
1195.993, 86.31641
1197.077, 292.3613
1198.162, 63.46484
1199.246, 28.97656
1200.331, 238.0723
1201.415, 210.7930
1202.499, 212.8496
1203.582, 6.998047
1204.666, 120.6094
1205.750, 144.8750
1206.833, 186.4727
1207.916, 212.3555
1208.999, 139.6406
1210.082, 184.2520
1211.165, 187.2656
1212.248, 114.8262
1213.330, 263.1152
1214.412, 36.36328
1215.495, 27.67773
1216.577, 261.4707
1217.658, 27.74609
1218.740, 327.0547
1219.822, 227.7148
1220.903, 213.7285
1221.985, 176.4121
1223.066, 302.5410
1224.147, 274.6562
1225.228, 178.3594
1226.308, 24.96680
1227.389, 207.3418
1228.469, 333.9727
1229.550, 365.5156
1230.630, 132.9160
1231.710, 360.5703
1232.790, 221.9062
1233.869, 320.6211
1234.949, 192.3145
1236.028, 131.2793
1237.108, 69.91016
1238.187, 70.04102
1239.266, 78.51758
1240.344, 145.0449
1241.423, 84.23242
1242.502, 158.2422
1243.580, 46.19922
1244.658, 286.6895
1245.736, 359.8730
1246.814, 206.3594
1247.892, 83.45312
1248.970, 153.1133
1250.047, 33.18945
1251.125, 261.6797
1252.202, 278.2969
1253.279, 192.0645
1254.356, 429.3574
1255.433, 55.78320
1256.509, 139.2441
1257.586, 228.7988
1258.662, 48.38477
1259.738, 68.99609
1260.814, 12.71875
1261.890, 102.0000
1262.966, 162.3574
1264.042, 0.9003910
1265.117, 0.0000000E+00
##END=



