##NAMES=Grossular
##RRUFFID=R050081
##IDEAL CHEMISTRY=Ca_3_Al_2_(SiO_4_)_3_
##LOCALITY=Kayes Region, Mali
##OWNER=RRUFF
##SOURCE=Rock Currier
##DESCRIPTION=Dark brown dodecahedron
##STATUS=The identification of this mineral has been confirmed by X-ray diffraction and chemical analysis
##URL=rruff.info/R050081
##MEASURED CHEMISTRY=(Ca_2.92_Mg_0.07_Mn_0.01_)_Σ=3_(Al_1.04_Fe^3+^_0.89_Ti_0.07_)_Σ=2_((Si_0.98_Al_0.02_)_Σ=1_O_4_)_3_; trace amounts of Y
##PIN_ID=L00149
##ORIENTATION=Laser parallel to c* (0 0 1). Fiducial mark perpendicular to laser is parallel to a [1 0 0]
98.492, 0.000
99.886, 1.059
101.281, 37.406
102.675, 12.830
104.069, 3.386
105.462, 65.938
106.856, 19.630
108.249, 119.144
109.642, 178.761
111.035, 155.720
112.427, 226.977
113.820, 202.550
115.212, 402.940
116.603, 475.122
117.995, 512.726
119.386, 454.855
120.778, 433.853
122.168, 367.942
123.559, 371.579
124.950, 295.631
126.340, 378.518
127.730, 385.667
129.119, 400.497
130.509, 492.250
131.898, 401.556
133.287, 380.574
134.676, 376.246
136.065, 402.387
137.453, 312.657
138.841, 250.211
140.229, 351.142
141.617, 405.908
143.004, 336.204
144.392, 295.257
145.779, 248.877
147.165, 222.125
148.552, 203.975
149.938, 260.188
151.324, 226.877
152.710, 299.942
154.096, 290.064
155.481, 353.924
156.866, 403.807
158.251, 470.774
159.636, 379.165
161.020, 432.533
162.405, 348.773
163.789, 375.208
165.172, 387.602
166.556, 492.899
167.939, 464.471
169.322, 534.959
170.705, 614.906
172.088, 856.116
173.470, 1110.472
174.853, 1388.594
176.234, 1478.546
177.616, 1417.893
178.998, 1237.641
180.379, 1060.252
181.760, 871.125
183.141, 585.639
184.521, 456.487
185.902, 298.517
187.282, 244.764
188.662, 196.208
190.042, 178.827
191.421, 108.601
192.800, 83.511
194.179, 97.537
195.558, 37.662
196.937, 89.868
198.315, 71.138
199.693, 8.543
201.071, 41.814
202.449, 4.807
203.826, 4.594
205.203, 47.001
206.580, 7.613
207.957, 48.250
209.333, 82.931
210.710, 42.671
212.086, 117.482
213.462, 142.371
214.837, 105.340
216.213, 71.375
217.588, 71.466
218.963, 123.405
220.337, 308.239
221.712, 61.039
223.086, 7.197
224.460, 108.525
225.834, 118.182
227.207, 157.757
228.581, 155.229
229.954, 170.588
231.327, 295.837
232.699, 254.943
234.072, 326.906
235.444, 352.694
236.816, 363.288
238.188, 403.069
239.559, 388.780
240.931, 398.691
242.302, 415.537
243.673, 316.335
245.043, 223.090
246.414, 299.826
247.784, 181.552
249.154, 181.280
250.523, 173.019
251.893, 103.771
253.262, 162.541
254.631, 198.324
256.000, 154.118
257.369, 187.917
258.737, 193.724
260.105, 193.595
261.473, 166.677
262.841, 204.679
264.208, 226.268
265.576, 282.755
266.943, 336.738
268.310, 422.192
269.676, 462.947
271.042, 534.011
272.409, 601.556
273.775, 654.116
275.140, 648.470
276.506, 713.615
277.871, 802.545
279.236, 829.255
280.601, 752.741
281.965, 781.008
283.330, 753.057
284.694, 724.285
286.058, 729.523
287.421, 681.939
288.785, 675.116
290.148, 658.052
291.511, 726.744
292.874, 732.185
294.236, 760.962
295.599, 812.309
296.961, 827.016
298.323, 874.532
299.684, 926.888
301.046, 960.114
302.407, 950.939
303.768, 981.350
305.129, 940.042
306.489, 953.808
307.850, 894.102
309.210, 1008.106
310.570, 950.571
311.929, 1008.826
313.289, 1038.582
314.648, 1058.604
316.007, 1113.728
317.366, 1216.862
318.724, 1260.378
320.083, 1299.783
321.441, 1375.821
322.799, 1355.747
324.156, 1351.084
325.514, 1313.693
326.871, 1380.624
328.228, 1411.772
329.585, 1468.037
330.941, 1502.827
332.298, 1464.507
333.654, 1555.497
335.010, 1591.838
336.365, 1654.555
337.721, 1823.256
339.076, 1812.939
340.431, 1946.602
341.786, 2087.248
343.140, 2277.883
344.495, 2542.505
345.849, 2728.119
347.203, 3136.406
348.556, 3539.177
349.910, 4195.155
351.263, 4964.723
352.616, 6031.876
353.969, 7350.862
355.321, 9028.886
356.674, 10626.473
358.026, 12394.421
359.378, 13550.835
360.729, 14088.770
362.081, 14026.373
363.432, 13990.714
364.783, 14067.669
366.134, 14742.465
367.484, 16077.950
368.835, 17850.318
370.185, 20045.262
371.535, 21197.766
372.884, 21718.209
374.234, 20701.293
375.583, 18679.807
376.932, 16096.898
378.281, 13406.446
379.630, 11088.257
380.978, 9020.194
382.326, 7439.626
383.674, 6180.425
385.022, 5258.166
386.369, 4478.672
387.717, 3776.229
389.064, 3299.975
390.411, 2829.107
391.757, 2595.274
393.104, 2342.632
394.450, 2190.750
395.796, 2118.744
397.141, 2103.098
398.487, 1904.613
399.832, 1819.237
401.177, 1609.089
402.522, 1370.953
403.867, 1122.926
405.211, 914.036
406.555, 758.781
407.899, 635.194
409.243, 510.976
410.587, 393.714
411.930, 284.672
413.273, 203.157
414.616, 174.247
415.959, 132.070
417.301, 55.112
418.644, 123.882
419.986, 52.226
421.327, 17.278
422.669, 11.870
424.010, 36.207
425.351, 39.545
426.692, 5.354
428.033, 60.368
429.374, 29.579
430.714, 69.121
432.054, 28.664
433.394, 136.180
434.733, 183.669
436.073, 210.132
437.412, 238.570
438.751, 273.984
440.090, 251.374
441.428, 296.740
442.767, 308.085
444.105, 362.408
445.443, 326.711
446.780, 356.995
448.118, 330.261
449.455, 391.508
450.792, 403.739
452.129, 385.217
453.465, 486.153
454.802, 369.339
456.138, 345.512
457.474, 377.674
458.809, 300.824
460.145, 257.964
461.480, 249.094
462.815, 247.215
464.150, 260.330
465.485, 143.438
466.819, 83.539
468.153, 65.632
469.487, 0.721
470.821, 19.828
472.155, 9.524
473.488, 2.129
474.821, 22.607
476.154, 4.859
477.487, 13.338
478.819, 100.661
480.151, 207.949
481.483, 333.172
482.815, 472.275
484.147, 503.541
485.478, 651.663
486.809, 668.795
488.140, 675.938
489.471, 843.093
490.802, 801.258
492.132, 716.432
493.462, 914.615
494.792, 810.806
496.122, 780.002
497.451, 784.203
498.780, 708.408
500.109, 658.617
501.438, 640.831
502.767, 655.049
504.095, 536.271
505.423, 584.498
506.751, 457.729
508.079, 482.966
509.406, 434.211
510.734, 446.467
512.061, 501.735
513.388, 452.018
514.714, 505.316
516.041, 560.632
517.367, 706.971
518.693, 928.328
520.019, 1089.802
521.344, 1444.294
522.670, 1897.955
523.995, 2437.640
525.320, 3252.517
526.644, 4090.375
527.969, 5102.386
529.293, 6284.568
530.617, 6838.158
531.941, 7032.891
533.265, 6427.272
534.588, 5545.058
535.911, 4290.270
537.234, 3194.079
538.557, 2306.174
539.880, 1720.054
541.202, 1296.083
542.524, 960.937
543.846, 809.738
545.168, 745.732
546.489, 553.815
547.811, 603.212
549.132, 557.417
550.453, 429.594
551.773, 493.737
553.094, 391.146
554.414, 443.764
555.734, 349.788
557.054, 300.581
558.374, 369.409
559.693, 338.136
561.012, 313.216
562.331, 293.573
563.650, 258.746
564.968, 222.976
566.287, 217.257
567.605, 210.825
568.923, 176.691
570.240, 153.095
571.558, 109.630
572.875, 94.041
574.192, 36.414
575.509, 27.662
576.825, 55.925
578.142, 6.038
579.458, 42.875
580.774, 97.636
582.090, 122.182
583.405, 153.362
584.721, 212.208
586.036, 199.908
587.351, 260.354
588.665, 191.609
589.980, 324.495
591.294, 342.272
592.608, 324.135
593.922, 453.985
595.236, 421.824
596.549, 494.652
597.862, 618.469
599.175, 668.274
600.488, 638.068
601.801, 682.851
603.113, 718.622
604.425, 779.383
605.737, 766.368
607.049, 768.871
608.361, 755.599
609.672, 727.315
610.983, 753.022
612.294, 850.717
613.605, 860.401
614.915, 794.075
616.225, 837.737
617.536, 802.389
618.845, 761.539
620.155, 645.660
621.464, 624.279
622.774, 617.888
624.083, 447.486
625.391, 380.073
626.700, 337.650
628.008, 156.127
629.317, 165.683
630.625, 129.050
631.932, 119.519
633.240, 70.703
634.547, 69.177
635.854, 107.669
637.161, 118.149
638.468, 135.616
639.774, 180.484
641.081, 130.515
642.387, 257.947
643.693, 237.368
644.998, 254.777
646.304, 322.175
647.609, 250.562
648.914, 279.938
650.219, 339.302
651.523, 350.654
652.828, 354.009
654.132, 353.323
655.436, 327.444
656.740, 310.581
658.043, 289.237
659.346, 308.518
660.650, 223.786
661.952, 298.043
663.255, 244.287
664.558, 270.519
665.860, 224.738
667.162, 194.945
668.464, 216.139
669.766, 257.321
671.067, 235.489
672.368, 249.645
673.669, 247.787
674.970, 233.917
676.271, 162.033
677.571, 162.824
678.871, 128.222
680.171, 131.293
681.471, 91.349
682.771, 104.387
684.070, 75.408
685.369, 45.410
686.668, 11.393
687.967, 6.651
689.266, 0.269
690.564, 52.844
691.862, 106.019
693.160, 66.284
694.458, 53.619
695.755, 65.018
697.053, 34.486
698.350, 63.009
699.646, 109.601
700.943, 80.288
702.240, 81.054
703.536, 37.900
704.832, 50.405
706.128, 33.771
707.423, 64.793
708.719, 52.888
710.014, 56.049
711.309, 94.277
712.604, 74.593
713.898, 106.986
715.193, 89.473
716.487, 127.046
717.781, 99.723
719.075, 96.956
720.368, 34.349
721.662, 67.262
722.955, 24.248
724.248, 1.285
725.541, 2.360
726.833, 61.526
728.125, 9.272
729.418, 95.916
730.709, 122.296
732.001, 103.619
733.293, 166.039
734.584, 230.040
735.875, 292.368
737.166, 398.908
738.457, 451.846
739.747, 521.450
741.037, 582.970
742.327, 638.667
743.617, 695.348
744.907, 749.020
746.196, 837.678
747.486, 850.323
748.775, 950.959
750.063, 1083.581
751.352, 1132.208
752.640, 1240.830
753.929, 1322.436
755.217, 1419.687
756.504, 1635.621
757.792, 1635.199
759.079, 1805.762
760.367, 1927.317
761.654, 1981.866
762.940, 1996.403
764.227, 2036.930
765.513, 2065.451
766.799, 2079.957
768.085, 2048.450
769.371, 1801.938
770.657, 1733.419
771.942, 1611.892
773.227, 1626.354
774.512, 1549.802
775.797, 1390.261
777.081, 1449.711
778.365, 1341.162
779.650, 1316.618
780.933, 1300.063
782.217, 1306.506
783.501, 1330.937
784.784, 1237.383
786.067, 1346.688
787.350, 1389.937
788.633, 1402.971
789.915, 1343.983
791.197, 1498.149
792.479, 1449.354
793.761, 1562.615
795.043, 1643.003
796.324, 1670.224
797.606, 1714.587
798.887, 1969.938
800.167, 2114.277
801.448, 2168.603
802.728, 2260.917
804.009, 2463.218
805.289, 2655.509
806.568, 2789.786
807.848, 2958.052
809.128, 3007.305
810.407, 3155.547
811.686, 3237.776
812.965, 3322.995
814.243, 3467.202
815.522, 3495.397
816.800, 3631.426
818.078, 3650.752
819.355, 3830.912
820.633, 3951.060
821.910, 4000.197
823.188, 3775.323
824.465, 3851.436
825.741, 3632.539
827.018, 3688.631
828.294, 3534.712
829.570, 3326.782
830.846, 3340.750
832.122, 3150.709
833.398, 3121.509
834.673, 3024.310
835.948, 3067.929
837.223, 3042.592
838.498, 2966.120
839.772, 3027.510
841.047, 3103.514
842.321, 3078.407
843.595, 3224.693
844.868, 3161.603
846.142, 3199.135
847.415, 3252.697
848.688, 3443.875
849.961, 3305.877
851.234, 3445.763
852.507, 3428.831
853.779, 3515.946
855.051, 3808.877
856.323, 3920.737
857.595, 4039.285
858.866, 4182.029
860.137, 4520.801
861.409, 4839.610
862.679, 5266.153
863.950, 5598.487
865.221, 6010.032
866.491, 6421.564
867.761, 6911.680
869.031, 7322.893
870.301, 7941.751
871.570, 8492.325
872.839, 8953.081
874.109, 9507.774
875.377, 9820.414
876.646, 10165.766
877.915, 10222.576
879.183, 10119.329
880.451, 9777.708
881.719, 9255.213
882.987, 8833.751
884.254, 8062.412
885.521, 7551.004
886.788, 6949.868
888.055, 6328.804
889.322, 5717.745
890.588, 5115.107
891.855, 4665.081
893.121, 4278.426
894.387, 3891.940
895.652, 3638.350
896.918, 3318.500
898.183, 3006.747
899.448, 2793.001
900.713, 2514.521
901.978, 2474.508
903.242, 2176.157
904.506, 2193.233
905.771, 1909.232
907.034, 1937.805
908.298, 1860.139
909.562, 1784.487
910.825, 1774.596
912.088, 1722.881
913.351, 1661.739
914.613, 1654.068
915.876, 1694.104
917.138, 1643.935
918.400, 1720.033
919.662, 1575.184
920.924, 1642.111
922.185, 1696.724
923.447, 1654.257
924.708, 1683.498
925.969, 1599.709
927.229, 1696.656
928.490, 1741.396
929.750, 1684.857
931.010, 1798.180
932.270, 1874.763
933.530, 1911.300
934.789, 1973.927
936.048, 1994.626
937.308, 2008.846
938.566, 1977.001
939.825, 1932.290
941.084, 1891.030
942.342, 1754.450
943.600, 1748.548
944.858, 1639.746
946.116, 1517.261
947.373, 1474.434
948.630, 1432.557
949.888, 1264.902
951.144, 1206.171
952.401, 1166.293
953.658, 1086.475
954.914, 1113.640
956.170, 1140.973
957.426, 1097.106
958.682, 1143.418
959.937, 1211.559
961.193, 1221.701
962.448, 1302.926
963.703, 1389.228
964.957, 1420.467
966.212, 1469.728
967.466, 1508.896
968.720, 1457.057
969.974, 1594.260
971.228, 1685.425
972.482, 1661.595
973.735, 1811.769
974.988, 1684.004
976.241, 1815.216
977.494, 1825.452
978.746, 1790.713
979.999, 1871.935
981.251, 1902.236
982.503, 1843.500
983.755, 1908.773
985.006, 1759.035
986.258, 1796.333
987.509, 1830.651
988.760, 1766.944
990.011, 1822.238
991.261, 1704.600
992.512, 1725.839
993.762, 1689.093
995.012, 1646.359
996.262, 1664.742
997.511, 1683.215
998.761, 1597.586
1000.010, 1554.265
1001.259, 1439.827
1002.508, 1340.289
1003.756, 1353.099
1005.005, 1135.762
1006.253, 986.618
1007.501, 737.236
1008.749, 681.919
1009.996, 590.883
1011.244, 492.723
1012.491, 535.721
1013.738, 453.645
1014.985, 481.566
1016.232, 511.775
1017.478, 550.875
1018.724, 636.103
1019.970, 650.350
1021.216, 665.417
1022.462, 793.983
1023.707, 722.463
1024.953, 738.777
1026.198, 598.275
1027.443, 566.806
1028.687, 400.131
1029.932, 301.540
1031.176, 213.028
1032.420, 232.366
1033.664, 104.866
1034.908, 175.226
1036.152, 103.738
1037.395, 69.096
1038.638, 54.567
1039.881, 51.061
1041.124, 6.152
1042.366, 66.639
1043.609, 64.539
1044.851, 56.716
1046.093, 26.073
1047.335, 5.786
1048.576, 5.571
1049.818, 31.305
1051.059, 74.922
1052.300, 82.929
1053.541, 39.823
1054.781, 49.259
1056.022, 29.658
1057.262, 4.595
1058.502, 24.539
1059.742, 7.500
1060.981, 22.378
1062.221, 32.359
1063.460, 2.330
1064.699, 16.342
1065.938, 30.343
1067.177, 22.606
1068.415, 12.552
1069.653, 30.509
1070.891, 24.593
1072.129, 22.696
1073.367, 3.181
1074.604, 8.049
1075.842, 93.087
1077.079, 6.282
1078.316, 52.491
1079.553, 65.736
1080.789, 2.024
1082.025, 36.323
1083.262, 81.648
1084.498, 15.025
1085.733, 39.344
1086.969, 39.229
1088.204, 8.795
1089.439, 8.356
1090.674, 22.099
1091.909, 25.770
1093.144, 38.626
1094.378, 31.869
1095.612, 47.802
1096.846, 61.245
1098.080, 9.914
1099.314, 29.501
1100.547, 101.912
1101.781, 53.794
1103.014, 59.385
1104.247, 20.996
1105.479, 73.660
1106.712, 29.411
1107.944, 80.037
1109.176, 84.585
1110.408, 55.239
1111.640, 38.817
1112.871, 55.180
1114.102, 51.926
1115.334, 75.575
1116.565, 82.256
1117.795, 71.054
1119.026, 82.982
1120.256, 89.538
1121.486, 90.666
1122.716, 70.799
1123.946, 78.045
1125.176, 74.436
1126.405, 70.364
1127.634, 81.550
1128.863, 64.417
1130.092, 75.358
1131.321, 75.141
1132.549, 80.048
1133.778, 73.507
1135.006, 70.429
1136.233, 78.512
1137.461, 80.167
1138.689, 67.370
1139.916, 112.952
1141.143, 144.409
1142.370, 164.088
1143.597, 81.673
1144.823, 73.463
1146.050, 142.043
1147.276, 43.130
1148.502, 81.627
1149.727, 119.331
1150.953, 38.353
1152.178, 85.347
1153.404, 49.104
1154.629, 115.636
1155.853, 107.162
1157.078, 47.795
1158.302, 84.548
1159.527, 54.876
1160.751, 80.176
1161.975, 90.296
1163.198, 33.228
1164.422, 67.410
1165.645, 59.675
1166.868, 71.500
1168.091, 126.546
1169.314, 38.492
1170.536, 53.490
1171.759, 99.802
1172.981, 64.166
1174.203, 62.426
1175.424, 115.705
1176.646, 99.889
1177.867, 82.764
1179.089, 121.752
1180.310, 84.714
1181.530, 119.570
1182.751, 88.356
1183.971, 126.026
1185.192, 99.613
1186.412, 124.466
1187.632, 155.604
1188.851, 183.766
1190.071, 171.520
1191.290, 191.083
1192.509, 155.538
1193.728, 133.692
1194.947, 151.649
1196.165, 138.687
1197.384, 143.551
1198.602, 173.573
1199.820, 193.407
1201.037, 198.396
1202.255, 209.411
1203.472, 173.768
1204.690, 192.812
1205.907, 188.477
1207.124, 144.445
1208.340, 228.315
1209.557, 156.399
1210.773, 201.175
1211.989, 158.862
1213.205, 168.929
1214.421, 228.762
1215.636, 169.605
1216.851, 224.524
1218.067, 166.929
1219.281, 208.360
1220.496, 189.753
1221.711, 165.827
1222.925, 166.415
1224.139, 207.268
1225.353, 182.618
1226.567, 221.106
1227.781, 185.976
1228.994, 197.332
1230.207, 176.046
1231.421, 133.277
1232.633, 201.301
1233.846, 161.939
1235.059, 151.101
1236.271, 183.984
1237.483, 86.245
1238.695, 46.371
1239.907, 146.360
1241.118, 97.888
1242.330, 151.833
1243.541, 94.793
1244.752, 112.627
1245.963, 153.387
1247.173, 39.183
1248.384, 106.347
1249.594, 100.197
1250.804, 85.064
1252.014, 62.791
1253.223, 90.284
1254.433, 107.036
1255.642, 79.894
1256.851, 95.998
1258.060, 109.814
1259.269, 86.262
1260.478, 71.664
1261.686, 62.355
1262.894, 102.899
1264.102, 105.257
1265.310, 45.619
1266.518, 67.947
1267.725, 29.240
1268.932, 79.771
1270.139, 46.965
1271.346, 47.379
1272.553, 58.666
1273.759, 83.896
1274.966, 53.804
1276.172, 51.717
1277.378, 49.771
1278.583, 133.824
1279.789, 120.324
1280.994, 94.600
1282.200, 163.045
1283.405, 25.196
1284.609, 51.867
1285.814, 71.591
1287.018, 38.212
1288.223, 46.831
1289.427, 2.603
1290.631, 43.750
1291.834, 7.800
1293.038, 1.333
1294.241, 29.579
1295.444, 12.964
1296.647, 13.421
1297.850, 23.552
1299.053, 37.486
1300.255, 36.653
1301.457, 27.744
1302.659, 20.191
1303.861, 51.089
1305.063, 51.815
1306.264, 4.890
1307.466, 9.670
1308.667, 58.286
1309.868, 78.870
1311.068, 40.389
1312.269, 68.187
1313.469, 27.166
1314.669, 66.982
1315.869, 31.218
1317.069, 26.604
1318.269, 31.532
1319.468, 28.676
1320.668, 33.471
1321.867, 62.227
1323.066, 45.328
1324.264, 45.546
1325.463, 54.527
1326.661, 13.541
1327.859, 75.673
1329.057, 88.667
1330.255, 42.633
1331.452, 82.660
1332.650, 22.368
1333.847, 24.631
1335.044, 48.548
1336.241, 4.424
1337.438, 101.844
1338.634, 9.516
1339.830, 93.219
1341.027, 66.935
1342.222, 23.479
1343.418, 49.141
1344.614, 124.808
1345.809, 11.374
1347.004, 144.003
1348.199, 49.479
1349.394, 112.915
1350.589, 91.366
1351.783, 66.999
1352.978, 111.293
1354.172, 66.523
1355.365, 150.854
1356.559, 103.005
1357.753, 88.709
1358.946, 67.790
1360.139, 95.787
1361.332, 57.916
1362.525, 60.825
1363.718, 126.689
1364.910, 25.485
1366.102, 136.224
1367.294, 115.928
1368.486, 61.625
1369.678, 58.176
1370.869, 9.801
1372.061, 41.230
1373.252, 22.570
1374.443, 77.863
1375.634, 39.032
1376.824, 39.098
1378.015, 87.244
1379.205, 148.090
1380.395, 158.733
1381.585, 130.605
1382.775, 135.246
1383.964, 165.763
1385.153, 143.290
1386.343, 147.498
1387.531, 119.871
1388.720, 151.089
1389.909, 201.344
1391.097, 69.255
1392.285, 140.450
1393.473, 91.132
1394.661, 166.624
1395.849, 210.064
1397.037, 148.644
1398.224, 116.971
1399.411, 229.593
1400.598, 190.334
1401.785, 204.599
1402.971, 190.682
1404.158, 122.353
1405.344, 150.492
1406.530, 246.914
1407.716, 187.485
1408.901, 225.842
1410.087, 185.911
1411.272, 91.371
1412.457, 178.646
1413.642, 101.816
1414.827, 28.127
1416.012, 124.744
1417.196, 210.704
1418.380, 235.337
1419.564, 3.313
1420.748, 103.113
1421.932, 70.042
1423.115, 28.768
1424.299, 175.662
1425.482, 18.593
1426.665, 120.355
1427.847, 127.324
1429.030, 196.631
1430.212, 133.399
1431.395, 106.648
1432.577, 217.173
1433.759, 254.704
1434.940, 176.066
1436.122, 250.114
1437.303, 51.157
1438.484, 91.717
1439.665, 235.449
1440.846, 162.479
1442.026, 237.983
1443.207, 258.082
1444.387, 19.690
1445.567, 227.025
1446.747, 241.796
1447.927, 57.688
1449.106, 252.098
1450.286, 97.373
1451.465, 67.333
1452.644, 130.938
1453.822, 96.349
1455.001, 215.604
1456.179, 185.979
1457.358, 143.996
1458.536, 159.083
1459.714, 10.653
1460.891, 166.764
1462.069, 113.865
1463.246, 165.217
1464.423, 239.964
1465.600, 134.217
1466.777, 209.619
1467.954, 0.324
1469.130, 33.320
1470.306, 125.077
1471.483, 70.222
1472.658, 56.343
1473.834, 142.048
1475.010, 78.426
1476.185, 91.315
1477.360, 161.116
1478.535, 0.927
1479.710, 185.500
1480.885, 130.003
1482.059, 8.081
1483.234, 108.132
1484.408, 95.886
1485.582, 65.926
1486.755, 118.336
1487.929, 54.145
1489.102, 91.231
1490.275, 91.507
1491.449, 61.695
1492.621, 8.945
1493.794, 150.450
1494.967, 65.695
1496.139, 37.920
1497.311, 136.521
1498.483, 2.142
1499.655, 106.251
1500.826, 94.363
1501.998, 13.195
1503.169, 233.234
1504.340, 78.061
1505.511, 45.725
1506.682, 142.659
1507.852, 115.443
1509.023, 9.104
1510.193, 98.856
1511.363, 0.259
1512.532, 39.884
1513.702, 20.137
1514.872, 54.148
1516.041, 0.131
1517.210, 0.000
##END=



