##NAMES=Grossular
##RRUFFID=R060442
##IDEAL CHEMISTRY=Ca_3_Al_2_(SiO_4_)_3_
##LOCALITY=Pakistan(?)
##OWNER=RRUFF
##SOURCE=Gemological Institute of America
##DESCRIPTION=Orange crystals
##STATUS=The identification of this mineral has been confirmed by X-ray diffraction and chemical analysis
##URL=rruff.info/R060442
##MEASURED CHEMISTRY=(Ca_2.85_Fe^2+^_0.15_)_Σ=3_(Al_1.85_Fe^3+^_0.15_)_Σ=2_(Si_1.00_O_4_)_3_; trace amounts of Ti, Mg
##PIN_ID=M01870
##ORIENTATION=Laser parallel to a* (1 0 0). Fiducial mark perpendicular to laser is parallel to c [0 0 1]
129.0000, 0.0000000E+00
130.2340, 12.68164
131.4670, 96.93555
132.7000, 34.26245
133.9330, 3.351074
135.1660, 43.25073
136.3990, 110.2278
137.6310, 103.1096
138.8640, 114.2561
140.0960, 186.6711
141.3280, 70.29053
142.5600, 63.82788
143.7910, 23.88501
145.0230, 46.03979
146.2540, 87.52344
147.4850, 121.5105
148.7160, 143.1606
149.9470, 156.1357
151.1780, 133.5544
152.4080, 172.7500
153.6380, 115.0564
154.8690, 139.4949
156.0980, 59.08130
157.3280, 60.82764
158.5580, 90.74146
159.7870, 74.82935
161.0170, 86.09497
162.2460, 93.54175
163.4750, 217.1719
164.7030, 326.9880
165.9320, 423.9907
167.1600, 623.1736
168.3890, 942.7925
169.6170, 1295.268
170.8450, 1506.199
172.0730, 1757.072
173.3000, 2126.284
174.5280, 2611.591
175.7550, 3227.094
176.9820, 3584.786
178.2090, 3854.661
179.4350, 3533.714
180.6620, 2978.937
181.8880, 2280.329
183.1150, 1639.885
184.3410, 1227.601
185.5670, 1005.475
186.7920, 693.5012
188.0180, 557.6750
189.2430, 442.9946
190.4690, 493.4580
191.6940, 373.0635
192.9180, 291.8105
194.1430, 263.6968
195.3680, 217.7227
196.5920, 200.8867
197.8160, 212.1885
199.0400, 203.6277
200.2640, 141.2043
201.4880, 168.9180
202.7110, 148.7463
203.9350, 37.61572
205.1580, 14.52075
206.3810, 36.53467
207.6040, 40.54224
208.8270, 57.19604
210.0490, 31.36450
211.2710, 54.13745
212.4940, 52.78369
213.7160, 26.25098
214.9370, 30.70483
216.1590, 5.884277
217.3810, 10.10547
218.6020, 28.73950
219.8230, 33.65234
221.0440, 44.63428
222.2650, 74.68677
223.4860, 105.8083
224.7060, 175.9985
225.9260, 251.2583
227.1470, 278.5894
228.3670, 464.9924
229.5860, 557.4683
230.8060, 744.0171
232.0260, 751.6409
233.2450, 943.3398
234.4640, 1156.113
235.6830, 1399.963
236.9020, 1591.889
238.1200, 1681.892
239.3390, 1715.972
240.5570, 1685.128
241.7750, 1851.343
242.9930, 1816.603
244.2110, 2044.910
245.4290, 2119.273
246.6460, 1932.710
247.8630, 1622.225
249.0810, 1171.819
250.2980, 859.4937
251.5140, 634.2483
252.7310, 583.0823
253.9470, 489.9971
255.1640, 429.9924
256.3800, 458.0708
257.5960, 375.2314
258.8120, 692.4756
260.0270, 908.8037
261.2430, 702.2168
262.4580, 649.7166
263.6730, 622.3025
264.8880, 736.9768
266.1030, 783.7395
267.3170, 897.5898
268.5320, 1018.530
269.7460, 1212.559
270.9600, 1361.677
272.1740, 1502.885
273.3880, 1668.182
274.6010, 1863.570
275.8150, 1945.713
277.0280, 1932.555
278.2410, 1871.399
279.4540, 1577.305
280.6670, 1344.757
281.8790, 1198.891
283.0920, 1029.010
284.3040, 979.2507
285.5160, 879.6067
286.7280, 732.0728
287.9400, 757.8574
289.1510, 571.8926
290.3630, 593.2314
291.5740, 478.7659
292.7850, 381.0027
293.9960, 281.9675
295.2070, 271.8108
296.4170, 290.2412
297.6280, 191.2820
298.8380, 252.4207
300.0480, 166.8618
301.2580, 278.3779
302.4680, 250.9688
303.6770, 380.6333
304.8870, 487.3713
306.0960, 495.1821
307.3050, 641.0659
308.5140, 597.0210
309.7230, 659.0466
310.9310, 721.1433
312.1400, 755.3093
313.3480, 801.1008
314.5560, 883.8101
315.7640, 844.1023
316.9720, 850.4148
318.1790, 818.7744
319.3870, 854.1973
320.5940, 971.6904
321.8010, 970.2517
323.0080, 1127.880
324.2150, 1094.577
325.4210, 1256.340
326.6280, 1322.168
327.8340, 1299.063
329.0400, 1272.022
330.2460, 1417.045
331.4510, 1253.131
332.6570, 1266.281
333.8620, 1226.492
335.0680, 1289.766
336.2730, 1328.101
337.4780, 1382.497
338.6820, 1468.953
339.8870, 1594.331
341.0910, 1729.043
342.2950, 1928.677
343.5000, 2125.368
344.7030, 2363.117
345.9070, 2567.924
347.1110, 2805.787
348.3140, 3141.707
349.5170, 3478.682
350.7200, 3896.713
351.9230, 4484.732
353.1260, 5244.695
354.3290, 6156.150
355.5310, 7466.567
356.7330, 8927.293
357.9350, 10915.13
359.1370, 13030.90
360.3390, 15308.59
361.5400, 18171.00
362.7420, 21792.37
363.9430, 25847.99
365.1440, 29776.68
366.3450, 33616.41
367.5460, 35717.21
368.7460, 37720.05
369.9470, 39738.95
371.1470, 41587.89
372.3470, 43000.88
373.5470, 41952.95
374.7460, 38916.08
375.9460, 33436.27
377.1450, 27585.54
378.3450, 21987.86
379.5440, 17410.26
380.7430, 13861.75
381.9410, 11119.33
383.1400, 8984.963
384.3380, 7390.667
385.5370, 6143.445
386.7350, 5216.288
387.9320, 4337.202
389.1300, 3833.195
390.3280, 3461.274
391.5250, 2965.443
392.7220, 2665.705
393.9190, 2417.047
395.1160, 2372.473
396.3130, 2122.969
397.5100, 2060.548
398.7060, 2049.207
399.9020, 2012.931
401.0980, 2109.725
402.2940, 2255.590
403.4900, 2296.522
404.6860, 2611.514
405.8810, 2801.572
407.0760, 3113.706
408.2710, 3421.899
409.4660, 3517.163
410.6610, 4070.493
411.8550, 4402.880
413.0500, 4507.337
414.2440, 4281.876
415.4380, 3716.484
416.6320, 2922.162
417.8260, 2189.895
419.0190, 1667.673
420.2130, 1218.525
421.4060, 854.4456
422.5990, 615.4231
423.7920, 478.4590
424.9850, 294.5508
426.1770, 139.6985
427.3700, 113.8982
428.5620, 75.14819
429.7540, 7.449707
430.9460, 14.20117
432.1380, 62.80688
433.3290, 52.37964
434.5210, 72.91064
435.7120, 59.40649
436.9030, 80.85474
438.0940, 104.2666
439.2850, 145.6582
440.4750, 133.0444
441.6660, 75.42163
442.8560, 27.23828
444.0460, 42.28052
445.2360, 93.78076
446.4260, 125.4678
447.6160, 145.2937
448.8050, 186.1587
449.9940, 205.0637
451.1830, 339.0127
452.3720, 327.9988
453.5610, 425.0210
454.7500, 393.0793
455.9380, 410.1733
457.1260, 470.3022
458.3150, 468.4663
459.5020, 366.6650
460.6900, 386.8977
461.8780, 399.1646
463.0650, 379.1804
464.2530, 397.7991
465.4400, 407.1655
466.6270, 437.5640
467.8130, 458.7725
469.0000, 486.1384
470.1870, 548.9492
471.3730, 589.4729
472.5590, 545.0261
473.7450, 680.6091
474.9310, 702.2217
476.1160, 638.8628
477.3020, 679.5325
478.4870, 576.2302
479.6720, 463.9551
480.8570, 439.7073
482.0420, 385.4861
483.2270, 429.2915
484.4110, 371.1223
485.5960, 446.9788
486.7800, 462.8604
487.9640, 513.7661
489.1480, 655.6965
490.3310, 772.6504
491.5150, 801.6284
492.6980, 872.6284
493.8810, 1040.652
495.0640, 1096.701
496.2470, 1158.779
497.4300, 1161.885
498.6120, 1150.017
499.7950, 1177.175
500.9770, 1182.003
502.1590, 1196.432
503.3410, 1195.802
504.5220, 1236.054
505.7040, 1204.326
506.8850, 1229.615
508.0660, 1150.922
509.2470, 1071.247
510.4280, 928.5881
511.6090, 745.9504
512.7890, 671.7192
513.9700, 565.8699
515.1500, 550.8564
516.3300, 581.6870
517.5100, 562.9709
518.6900, 695.3491
519.8690, 639.8765
521.0490, 780.0757
522.2280, 916.8242
523.4070, 912.5317
524.5860, 936.5190
525.7640, 869.1108
526.9430, 838.3267
528.1210, 719.9517
529.3000, 755.3269
530.4780, 889.3848
531.6560, 1031.760
532.8330, 1319.202
534.0110, 1702.336
535.1880, 2218.529
536.3650, 2938.673
537.5430, 3867.694
538.7190, 5024.932
539.8960, 6182.377
541.0730, 7498.457
542.2490, 8719.503
543.4250, 10214.21
544.6020, 11568.32
545.7780, 12013.21
546.9530, 11313.15
548.1290, 9516.948
549.3040, 7248.653
550.4800, 5490.667
551.6550, 4173.539
552.8300, 3030.149
554.0040, 2340.013
555.1790, 1852.325
556.3540, 1419.564
557.5280, 1192.123
558.7020, 1159.048
559.8760, 1066.110
561.0500, 1003.320
562.2230, 953.7876
563.3970, 909.7925
564.5700, 939.9773
565.7430, 922.3789
566.9160, 953.3755
568.0890, 892.5933
569.2620, 878.5613
570.4340, 947.9087
571.6070, 883.6689
572.7790, 863.2588
573.9510, 870.5496
575.1230, 832.0483
576.2940, 845.9753
577.4660, 817.9009
578.6370, 797.1331
579.8080, 781.2837
580.9790, 780.5608
582.1500, 797.2795
583.3210, 804.7256
584.4910, 861.3848
585.6620, 849.3572
586.8320, 895.5483
588.0020, 933.0186
589.1720, 958.1533
590.3410, 889.5222
591.5110, 771.5820
592.6800, 680.4812
593.8500, 631.3525
595.0190, 571.2104
596.1880, 468.0330
597.3560, 552.8613
598.5250, 464.6328
599.6930, 596.3784
600.8620, 669.0979
602.0300, 679.7910
603.1970, 788.4575
604.3650, 805.0967
605.5330, 836.7090
606.7000, 873.2939
607.8680, 908.2070
609.0350, 971.3799
610.2020, 1010.880
611.3680, 1015.353
612.5350, 1102.796
613.7010, 1239.211
614.8680, 1200.596
616.0340, 1266.952
617.2000, 1282.278
618.3660, 1312.574
619.5310, 1387.840
620.6970, 1499.075
621.8620, 1531.280
623.0270, 1626.454
624.1920, 1699.596
625.3570, 1714.708
626.5220, 1741.787
627.6860, 1688.835
628.8500, 1624.852
630.0140, 1400.835
631.1780, 1326.787
632.3420, 1068.705
633.5060, 897.5913
634.6700, 826.4446
635.8330, 665.2644
636.9960, 582.0508
638.1590, 538.8037
639.3220, 395.5227
640.4850, 386.2080
641.6470, 312.8586
642.8100, 304.4751
643.9720, 200.0566
645.1340, 148.6038
646.2960, 160.1160
647.4570, 101.8049
648.6190, 101.0354
649.7800, 87.44214
650.9420, 83.81348
652.1030, 56.46167
653.2640, 44.54419
654.4240, 4.692871
655.5850, 7.881104
656.7450, 1.009277
657.9060, 15.92651
659.0660, 15.06445
660.2260, 60.00122
661.3850, 116.1636
662.5450, 51.45239
663.7040, 7.833252
664.8640, 1.283936
666.0230, 58.80054
667.1820, 1.413818
668.3410, 45.09351
669.4990, 55.86279
670.6580, 92.72705
671.8160, 109.7058
672.9740, 120.8081
674.1320, 74.03931
675.2900, 89.37524
676.4480, 39.82324
677.6050, 91.35767
678.7630, 79.00464
679.9200, 25.75854
681.0770, 41.59082
682.2340, 52.50928
683.3900, 43.51953
684.5470, 8.616699
685.7030, 41.78223
686.8590, 72.03271
688.0150, 23.38428
689.1710, 60.81055
690.3270, 43.33105
691.4830, 23.93652
692.6380, 60.61597
693.7930, 116.3882
694.9480, 68.28223
696.1030, 74.27222
697.2580, 17.36084
698.4130, 13.48242
699.5670, 55.72583
700.7210, 29.02100
701.8750, 10.61133
703.0290, 5.192627
704.1830, 26.82642
705.3370, 6.204102
706.4900, 30.63623
707.6430, 41.02588
708.7970, 21.37549
709.9490, 49.05347
711.1020, 43.94946
712.2550, 52.18042
713.4070, 56.38135
714.5600, 3.551514
715.7120, 35.31812
716.8640, 13.24878
718.0160, 25.77466
719.1670, 47.77124
720.3190, 46.75146
721.4700, 24.28662
722.6210, 104.6252
723.7720, 8.506348
724.9230, 62.34644
726.0740, 31.15405
727.2250, 60.92627
728.3750, 32.66626
729.5250, 3.627930
730.6750, 95.03516
731.8250, 105.6685
732.9750, 90.27246
734.1240, 182.8469
735.2740, 82.39258
736.4230, 158.9092
737.5720, 134.3972
738.7210, 90.85718
739.8700, 149.2891
741.0190, 203.6934
742.1670, 242.0701
743.3150, 247.4197
744.4630, 269.7424
745.6110, 307.2190
746.7590, 347.3071
747.9070, 384.5498
749.0540, 424.7664
750.2020, 459.2808
751.3490, 420.1218
752.4960, 525.2615
753.6430, 557.3760
754.7890, 584.4656
755.9360, 674.5305
757.0820, 798.5710
758.2280, 841.3164
759.3740, 904.5801
760.5200, 1004.549
761.6660, 1050.495
762.8120, 1178.417
763.9570, 1235.316
765.1020, 1407.193
766.2470, 1401.048
767.3920, 1544.880
768.5370, 1559.691
769.6810, 1705.479
770.8260, 1626.248
771.9700, 1698.995
773.1140, 1692.721
774.2580, 1722.426
775.4020, 1774.111
776.5460, 1709.777
777.6890, 1560.423
778.8320, 1539.051
779.9750, 1515.661
781.1180, 1481.253
782.2610, 1444.828
783.4040, 1386.388
784.5460, 1364.082
785.6890, 1348.521
786.8310, 1333.997
787.9730, 1344.504
789.1150, 1394.009
790.2560, 1405.108
791.3980, 1407.828
792.5390, 1550.716
793.6810, 1523.773
794.8220, 1601.381
795.9630, 1904.898
797.1030, 2032.278
798.2440, 2178.992
799.3840, 2300.167
800.5240, 2593.387
801.6650, 2896.333
802.8040, 3249.677
803.9440, 3544.401
805.0840, 3902.712
806.2230, 4290.279
807.3630, 4751.174
808.5020, 5236.769
809.6410, 5744.302
810.7790, 6212.141
811.9180, 6693.552
813.0570, 7147.785
814.1950, 7703.764
815.3330, 8211.522
816.4710, 8862.082
817.6090, 9392.009
818.7470, 10142.96
819.8840, 10634.25
821.0220, 11298.16
822.1590, 11746.29
823.2960, 12223.36
824.4330, 12093.60
825.5690, 12082.93
826.7060, 11740.96
827.8420, 11016.12
828.9790, 10409.55
830.1150, 9837.729
831.2510, 9335.466
832.3860, 8787.273
833.5220, 8466.773
834.6570, 8102.922
835.7930, 7765.939
836.9280, 7567.832
838.0630, 7417.477
839.1980, 7207.602
840.3320, 7111.086
841.4670, 7051.967
842.6010, 7005.428
843.7350, 7023.368
844.8690, 7014.580
846.0030, 7190.404
847.1370, 7079.823
848.2700, 7133.197
849.4040, 7206.715
850.5370, 7173.314
851.6700, 7352.878
852.8030, 7381.122
853.9360, 7441.827
855.0680, 7700.110
856.2000, 7660.755
857.3330, 8167.417
858.4650, 8323.726
859.5970, 8785.785
860.7290, 9188.928
861.8600, 10073.85
862.9920, 10879.48
864.1230, 11826.44
865.2540, 13278.17
866.3850, 15011.19
867.5160, 17027.37
868.6460, 19695.57
869.7770, 22542.78
870.9070, 26165.01
872.0370, 30160.24
873.1670, 34967.52
874.2970, 39359.81
875.4270, 43651.11
876.5570, 48027.45
877.6860, 50998.79
878.8150, 52446.16
879.9440, 52236.56
881.0730, 50113.97
882.2020, 46564.39
883.3300, 41780.85
884.4590, 36883.31
885.5870, 32147.80
886.7150, 27295.32
887.8430, 23287.85
888.9710, 19529.41
890.0990, 16581.98
891.2260, 14021.58
892.3530, 12266.20
893.4810, 10546.84
894.6080, 9033.503
895.7340, 8202.188
896.8610, 7160.897
897.9880, 6433.628
899.1140, 5901.381
900.2400, 5479.158
901.3660, 4999.958
902.4920, 4818.781
903.6180, 4427.629
904.7430, 4177.499
905.8690, 3846.392
906.9940, 3769.310
908.1190, 3527.251
909.2440, 3299.217
910.3690, 3140.207
911.4930, 2877.221
912.6180, 2706.260
913.7420, 2597.464
914.8660, 2419.783
915.9900, 2332.896
917.1140, 2225.418
918.2380, 2027.050
919.3610, 1928.865
920.4850, 1832.303
921.6080, 1720.892
922.7310, 1595.223
923.8540, 1539.505
924.9760, 1490.095
926.0990, 1411.947
927.2210, 1385.184
928.3440, 1320.138
929.4660, 1243.887
930.5880, 1137.974
931.7090, 1228.538
932.8310, 1074.419
933.9520, 1219.197
935.0740, 1140.812
936.1950, 1127.333
937.3160, 1077.666
938.4360, 1124.302
939.5570, 1132.182
940.6780, 1200.396
941.7980, 1200.321
942.9180, 1351.290
944.0380, 1329.933
945.1580, 1400.089
946.2780, 1462.150
947.3970, 1366.521
948.5170, 1366.000
949.6360, 1318.396
950.7550, 1245.270
951.8740, 1017.786
952.9930, 988.6157
954.1110, 873.2253
955.2300, 845.5151
956.3480, 695.8826
957.4660, 624.9971
958.5840, 546.5342
959.7020, 466.5349
960.8190, 378.7991
961.9370, 333.5618
963.0540, 313.5540
964.1710, 280.2710
965.2880, 367.6606
966.4050, 436.8103
967.5220, 432.5039
968.6380, 557.6821
969.7550, 675.8887
970.8710, 711.3276
971.9870, 844.7354
973.1030, 916.8860
974.2190, 1041.556
975.3340, 1148.379
976.4500, 1239.622
977.5650, 1330.888
978.6800, 1408.570
979.7950, 1486.344
980.9100, 1562.939
982.0250, 1639.596
983.1390, 1692.225
984.2530, 1705.874
985.3680, 1816.542
986.4820, 1831.236
987.5950, 1943.964
988.7090, 1853.721
989.8230, 1904.500
990.9360, 1999.296
992.0490, 1982.113
993.1620, 2119.959
994.2750, 2161.823
995.3880, 2280.707
996.5010, 2317.609
997.6130, 2480.529
998.7250, 2527.466
999.8370, 2573.422
1000.949, 2779.400
1002.061, 2906.393
1003.173, 3043.402
1004.284, 3074.734
1005.396, 3177.465
1006.507, 3027.519
1007.618, 2908.588
1008.729, 2788.671
1009.839, 2410.769
1010.950, 2125.881
1012.060, 1736.008
1013.171, 1501.148
1014.281, 1241.302
1015.391, 1042.470
1016.500, 861.9988
1017.610, 677.8452
1018.719, 561.0532
1019.829, 491.2742
1020.938, 372.5100
1022.047, 338.7590
1023.156, 264.0222
1024.264, 191.2983
1025.373, 208.5874
1026.481, 211.9043
1027.589, 181.2417
1028.697, 162.5955
1029.805, 199.9600
1030.913, 112.3374
1032.020, 75.72632
1033.128, 149.1257
1034.235, 186.5361
1035.342, 152.9565
1036.449, 53.38745
1037.556, 91.82886
1038.663, 77.27979
1039.769, 44.73999
1040.875, 52.21021
1041.981, 117.6899
1043.087, 57.17969
1044.193, 59.67822
1045.299, 5.185547
1046.404, 9.297363
1047.510, 13.93213
1048.615, 12.75977
1049.720, 19.70142
1050.825, 22.16040
1051.930, 26.61597
1053.034, 62.06592
1054.139, 16.52100
1055.243, 2.976563
1056.347, 89.42090
1057.451, 10.89355
1058.555, 19.36353
1059.658, 27.83325
1060.762, 60.22974
1061.865, 35.62866
1062.968, 19.13037
1064.071, 64.56250
1065.174, 33.03418
1066.277, 47.79199
1067.380, 25.09668
1068.482, 35.65771
1069.584, 15.17554
1070.686, 18.32910
1071.788, 9.724121
1072.890, 25.85425
1073.992, 52.44434
1075.093, 67.06030
1076.194, 27.71118
1077.295, 38.62378
1078.396, 30.04102
1079.497, 80.72363
1080.598, 3.556396
1081.698, 21.83276
1082.799, 34.89233
1083.899, 22.35767
1084.999, 3.608643
1086.099, 70.85376
1087.199, 75.90186
1088.298, 13.29248
1089.398, 27.48242
1090.497, 70.33008
1091.596, 22.19214
1092.695, 7.922119
1093.794, 1.027588
1094.892, 60.11890
1095.991, 10.79443
1097.089, 19.72925
1098.187, 33.31299
1099.285, 52.65112
1100.383, 42.65942
1101.481, 9.709961
1102.579, 75.78540
1103.676, 31.92114
1104.773, 46.09473
1105.870, 4.685791
1106.967, 3.446533
1108.064, 49.81445
1109.161, 19.12427
1110.257, 36.46899
1111.353, 38.85669
1112.449, 41.71191
1113.545, 14.27148
1114.641, 108.8110
1115.737, 79.34204
1116.832, 162.8635
1117.928, 204.3760
1119.023, 267.8787
1120.118, 283.3718
1121.213, 243.8550
1122.308, 263.3286
1123.402, 276.7913
1124.497, 258.2434
1125.591, 246.6846
1126.685, 184.1152
1127.779, 155.5349
1128.873, 90.94287
1129.967, 86.34033
1131.060, 151.7332
1132.153, 149.1143
1133.247, 218.4834
1134.340, 160.8408
1135.433, 201.1860
1136.525, 186.5190
1137.618, 156.8403
1138.710, 229.1489
1139.802, 217.4448
1140.895, 300.7280
1141.987, 150.9983
1143.078, 273.2554
1144.170, 262.4993
1145.261, 283.7302
1146.353, 369.9473
1147.444, 250.1504
1148.535, 294.3396
1149.626, 355.6309
1150.716, 320.8730
1151.807, 314.4834
1152.897, 307.8303
1153.988, 334.3521
1155.078, 331.1621
1156.168, 307.8633
1157.257, 341.7798
1158.347, 340.8979
1159.436, 318.9226
1160.526, 292.9514
1161.615, 371.4431
1162.704, 278.4407
1163.793, 330.5193
1164.881, 280.5432
1165.970, 358.5249
1167.058, 290.5098
1168.147, 352.5486
1169.235, 239.4495
1170.323, 298.3333
1171.410, 262.4143
1172.498, 355.3572
1173.585, 259.4521
1174.673, 263.2693
1175.760, 238.1794
1176.847, 234.4360
1177.934, 298.7739
1179.020, 205.2917
1180.107, 226.0876
1181.193, 194.4167
1182.279, 250.9890
1183.365, 142.3813
1184.451, 135.2898
1185.537, 136.7764
1186.623, 212.7759
1187.708, 250.9863
1188.793, 190.4541
1189.878, 173.5952
1190.963, 118.3147
1192.048, 112.4355
1193.133, 146.5508
1194.217, 117.5393
1195.302, 119.1074
1196.386, 141.3901
1197.470, 123.9111
1198.554, 176.3867
1199.638, 140.5674
1200.721, 228.3337
1201.805, 103.6089
1202.888, 175.1697
1203.971, 132.3042
1205.054, 166.7439
1206.137, 242.1172
1207.219, 231.1685
1208.302, 267.4011
1209.384, 226.0078
1210.466, 247.1943
1211.548, 275.2842
1212.630, 185.4902
1213.712, 152.2971
1214.794, 156.9734
1215.875, 263.1316
1216.956, 213.6301
1218.037, 223.4924
1219.118, 155.6057
1220.199, 195.9082
1221.280, 192.8748
1222.360, 256.9536
1223.441, 141.8208
1224.521, 281.1011
1225.601, 268.1416
1226.681, 204.5498
1227.760, 296.1919
1228.840, 211.1543
1229.919, 239.0010
1230.999, 257.0088
1232.078, 221.0117
1233.157, 246.7500
1234.236, 212.5383
1235.314, 253.2644
1236.393, 250.0142
1237.471, 247.5640
1238.549, 223.9089
1239.627, 230.8794
1240.705, 233.8213
1241.783, 259.2241
1242.860, 246.0864
1243.938, 270.8020
1245.015, 250.6926
1246.092, 266.2998
1247.169, 275.5574
1248.246, 284.0220
1249.323, 286.8975
1250.399, 288.5842
1251.475, 271.4050
1252.552, 261.0662
1253.628, 252.7905
1254.703, 258.3779
1255.779, 242.0835
1256.855, 261.7937
1257.930, 282.3916
1259.005, 199.1240
1260.080, 292.3313
1261.155, 212.9072
1262.230, 209.4707
1263.305, 274.1621
1264.379, 255.7007
1265.454, 221.2271
1266.528, 209.9272
1267.602, 276.4614
1268.676, 231.3354
1269.750, 262.4348
1270.823, 205.9031
1271.897, 128.3589
1272.970, 110.8030
1274.043, 80.23511
1275.116, 80.65527
1276.189, 85.06348
1277.261, 101.4595
1278.334, 52.84424
1279.406, 61.21582
1280.478, 20.57544
1281.550, 37.91968
1282.622, 23.25049
1283.694, 37.56616
1284.766, 55.86816
1285.837, 41.84131
1286.908, 13.59619
1287.979, 3.619629
1289.050, 102.8149
1290.121, 17.99878
1291.192, 137.1672
1292.262, 56.32397
1293.333, 65.46899
1294.403, 71.60205
1295.473, 66.72729
1296.543, 49.84082
1297.613, 80.94214
1298.682, 90.03247
1299.752, 35.11182
1300.821, 56.17822
1301.890, 29.23291
1302.959, 106.2744
1304.028, 51.30493
1305.096, 14.32397
1306.165, 5.327637
1307.233, 89.31592
1308.301, 61.29492
1309.370, 81.26245
1310.437, 20.22168
1311.505, 6.830566
1312.573, 9.133057
1313.640, 34.00977
1314.708, 9.091064
1315.775, 4.793213
1316.842, 46.68433
1317.908, 55.56812
1318.975, 66.81812
1320.042, 68.54565
1321.108, 72.01929
1322.174, 51.88770
1323.240, 44.67847
1324.306, 40.48901
1325.372, 26.35352
1326.438, 58.18164
1327.503, 13.03516
1328.568, 77.88354
1329.634, 0.2744140
1330.699, 28.44702
1331.763, 50.27222
1332.828, 54.09497
1333.893, 67.92310
1334.957, 15.75635
1336.021, 58.58691
1337.085, 46.40845
1338.149, 22.77002
1339.213, 114.0574
1340.277, 71.87720
1341.340, 60.68408
1342.404, 2.494873
1343.467, 17.29541
1344.530, 10.08936
1345.593, 71.87305
1346.655, 59.67212
1347.718, 23.46509
1348.780, 85.24902
1349.843, 28.04785
1350.905, 24.83911
1351.967, 49.62402
1353.028, 59.40649
1354.090, 43.18018
1355.152, 8.045166
1356.213, 72.72876
1357.274, 5.495850
1358.335, 118.2739
1359.396, 68.06274
1360.457, 13.95801
1361.517, 92.76782
1362.578, 20.58667
1363.638, 35.41699
1364.698, 49.95288
1365.758, 14.29468
1366.818, 57.92749
1367.878, 10.77832
1368.937, 4.360352
1369.997, 42.51050
1371.056, 87.37500
1372.115, 31.23901
1373.174, 88.15381
1374.232, 28.04028
1375.291, 87.88574
1376.350, 24.72510
1377.408, 100.5586
1378.466, 29.38696
1379.524, 84.20972
1380.582, 89.02710
1381.640, 57.84961
1382.697, 44.65698
1383.754, 40.45923
1384.812, 83.25635
1385.869, 29.04907
1386.926, 18.39551
1387.983, 100.3804
1389.039, 124.1521
1390.096, 33.91992
1391.152, 151.7034
1392.208, 125.4626
1393.264, 26.21802
1394.320, 60.72681
1395.376, 104.4739
1396.431, 128.2180
1397.487, 132.9590
1398.542, 147.6970
1399.597, 148.5901
1400.652, 120.1863
1401.707, 127.9136
1402.762, 147.6394
1403.816, 104.3630
1404.871, 139.0842
1405.925, 95.68799
1406.979, 112.4412
1408.033, 129.6926
1409.086, 177.1917
1410.140, 106.5002
1411.194, 128.9956
1412.247, 136.6057
1413.300, 190.3953
1414.353, 168.9641
1415.406, 104.6072
1416.458, 109.2512
1417.511, 99.36914
1418.563, 140.9609
1419.616, 126.5112
1420.668, 142.0527
1421.720, 143.5613
1422.772, 127.9136
1423.823, 137.3530
1424.875, 165.8982
1425.926, 173.5093
1426.977, 179.7473
1428.028, 182.1760
1429.079, 124.4304
1430.130, 161.9355
1431.180, 166.2700
1432.231, 173.2266
1433.281, 200.1614
1434.331, 166.5630
1435.381, 138.8735
1436.431, 175.2314
1437.481, 113.1499
1438.530, 225.9836
1439.580, 134.1677
1440.629, 192.9050
1441.678, 154.5322
1442.727, 265.3020
1443.776, 159.0247
1444.824, 171.5781
1445.873, 105.0864
1446.921, 192.4934
1447.969, 157.3147
1449.017, 155.9402
1450.065, 192.3738
1451.113, 113.9988
1452.160, 125.5000
1453.208, 150.2205
1454.255, 78.09058
1455.302, 161.4219
1456.349, 133.8738
1457.396, 90.40649
1458.443, 135.8169
1459.489, 132.3862
1460.535, 160.9292
1461.582, 147.1528
1462.628, 129.5090
1463.674, 165.9253
1464.719, 139.3672
1465.765, 139.6604
1466.810, 151.0620
1467.856, 60.58081
1468.901, 187.0283
1469.946, 100.4463
1470.991, 78.82178
1472.035, 106.2246
1473.080, 90.78101
1474.124, 136.1128
1475.169, 113.4810
1476.213, 127.6863
1477.257, 148.7456
1478.300, 112.4421
1479.344, 160.5815
1480.388, 165.0227
1481.431, 116.4539
1482.474, 81.87500
1483.517, 110.2859
1484.560, 101.6863
1485.603, 24.07715
1486.645, 85.46558
1487.688, 73.85156
1488.730, 144.2573
1489.772, 139.7205
1490.814, 47.18848
1491.856, 68.65405
1492.898, 49.10913
1493.939, 110.5540
1494.981, 117.9941
1496.022, 69.43311
1497.063, 68.87207
1498.104, 35.31299
1499.145, 40.81567
1500.186, 76.21704
1501.226, 63.69043
1502.266, 73.49780
1503.307, 68.01074
1504.347, 68.27734
1505.387, 56.80225
1506.426, 47.33936
1507.466, 70.87354
1508.505, 180.4429
1509.545, 70.02417
1510.584, 100.6082
1511.623, 52.80737
1512.662, 56.80151
1513.700, 133.4187
1514.739, 61.04175
1515.777, 46.69556
1516.815, 178.3545
1517.854, 104.0220
1518.892, 3.304688
1519.929, 91.40747
1520.967, 81.16138
1522.004, 71.93481
1523.042, 53.72192
1524.079, 73.52515
1525.116, 49.00635
1526.153, 110.8386
1527.190, 71.66431
1528.226, 94.53174
1529.263, 75.41992
1530.299, 67.33154
1531.335, 31.90820
1532.371, 86.86035
1533.407, 72.83691
1534.443, 62.84009
1535.478, 104.8262
1536.514, 59.88574
1537.549, 82.60010
1538.584, 82.94263
1539.619, 67.14233
1540.654, 39.40308
1541.689, 52.19531
1542.723, 89.11206
1543.757, 26.92188
1544.792, 36.46533
1545.826, 4.995850
1546.860, 30.35327
1547.893, 37.52075
1548.927, 41.29224
1549.960, 68.65381
1550.994, 124.1926
1552.027, 185.2900
1553.060, 111.9211
1554.093, 53.33936
1555.126, 153.9011
1556.158, 87.36475
1557.191, 0.5712890
1558.223, 19.37598
1559.255, 67.31396
1560.287, 2.012695
1561.319, 11.16968
1562.350, 0.0000000E+00
##END=



