##NAMES=Grossular
##RRUFFID=R050312
##IDEAL CHEMISTRY=Ca_3_Al_2_(SiO_4_)_3_
##LOCALITY=Eden Mills mine, Vermont, USA
##OWNER=RRUFF
##SOURCE=Eugene Schlepp
##DESCRIPTION=Red crystal
##STATUS=The identification of this mineral has been confirmed by X-ray diffraction and chemical analysis
##URL=rruff.info/R050312
##MEASURED CHEMISTRY=Ca_3.00_(Al_1.75_Fe^3+^_0.23_Ti_0.02_)_Σ=2_((Si_0.99_Al_0.01_)_Σ=1_O_4_)_3_
##PIN_ID=L01494
##ORIENTATION=Laser parallel to a* (1 0 0). Fiducial mark perpendicular to laser is parallel to c [0 0 1]
144.7530, 0.0000000E+00
145.9830, 6.850342
147.2130, 21.61426
148.4440, 50.17529
149.6730, 6.306885
150.9030, 56.16602
152.1330, 9.252686
153.3630, 114.6921
154.5920, 17.02539
155.8210, 79.17139
157.0500, 3.341064
158.2790, 5.809326
159.5080, 137.5798
160.7360, 135.0059
161.9650, 214.4075
163.1930, 154.7798
164.4210, 473.4053
165.6490, 601.4858
166.8770, 779.5986
168.1040, 1097.796
169.3320, 1467.116
170.5590, 1864.591
171.7860, 2207.240
173.0130, 2559.083
174.2400, 3179.129
175.4670, 3888.387
176.6930, 4417.492
177.9200, 4697.479
179.1460, 4692.433
180.3720, 4159.844
181.5980, 3591.268
182.8230, 2957.350
184.0490, 2301.156
185.2740, 1658.758
186.5000, 1207.649
187.7250, 845.8164
188.9500, 650.2476
190.1740, 508.9331
191.3990, 482.8638
192.6230, 275.0327
193.8480, 309.4321
195.0720, 235.0566
196.2960, 240.9004
197.5200, 227.9595
198.7430, 140.2280
199.9670, 117.7026
201.1900, 103.3774
202.4130, 125.2461
203.6360, 127.3076
204.8590, 48.56055
206.0820, 23.00293
207.3050, 46.36621
208.5270, 49.45264
209.7490, 0.4580080
210.9710, 57.65088
212.1930, 7.969727
213.4150, 51.59473
214.6370, 51.34570
215.8580, 12.71826
217.0790, 2.597168
218.3010, 72.30615
219.5210, 87.79883
220.7420, 65.51172
221.9630, 100.9800
223.1830, 24.38232
224.4040, 50.28711
225.6240, 8.023438
226.8440, 85.84082
228.0640, 63.74414
229.2840, 130.7354
230.5030, 186.8159
231.7230, 243.9902
232.9420, 441.2593
234.1610, 393.6240
235.3800, 431.0869
236.5990, 506.6470
237.8170, 452.3047
239.0360, 589.0591
240.2540, 468.9121
241.4720, 443.8638
242.6900, 486.9160
243.9080, 500.0703
245.1250, 428.3281
246.3430, 472.6890
247.5600, 340.1543
248.7770, 313.7251
249.9940, 327.3794
251.2110, 328.1382
252.4280, 277.9995
253.6450, 311.9644
254.8610, 357.0190
256.0770, 392.1245
257.2930, 472.2871
258.5090, 668.5562
259.7250, 714.9365
260.9400, 678.4277
262.1560, 596.0312
263.3710, 622.7466
264.5860, 749.5762
265.8010, 718.5195
267.0160, 796.5786
268.2310, 814.7544
269.4450, 847.0483
270.6600, 764.4614
271.8740, 893.9941
273.0880, 987.6494
274.3020, 895.4263
275.5150, 990.3247
276.7290, 898.3457
277.9420, 1013.489
279.1550, 883.7544
280.3680, 876.1426
281.5810, 914.6533
282.7940, 965.2871
284.0070, 846.0420
285.2190, 901.9199
286.4310, 960.9180
287.6430, 852.0366
288.8550, 767.2759
290.0670, 751.6426
291.2790, 658.2007
292.4900, 617.9429
293.7020, 580.4946
294.9130, 547.8403
296.1240, 529.8765
297.3350, 542.8047
298.5450, 504.0757
299.7560, 547.6484
300.9660, 549.6416
302.1760, 741.4966
303.3860, 632.1177
304.5960, 759.7871
305.8060, 919.0254
307.0150, 933.3823
308.2250, 1017.854
309.4340, 1022.438
310.6430, 1097.122
311.8520, 1069.904
313.0610, 1101.193
314.2700, 1252.768
315.4780, 1150.849
316.6860, 1200.027
317.8940, 1285.303
319.1020, 1239.677
320.3100, 1184.146
321.5180, 1184.712
322.7250, 1273.338
323.9330, 1465.057
325.1400, 1514.862
326.3470, 1390.754
327.5540, 1458.695
328.7600, 1435.649
329.9670, 1504.638
331.1730, 1499.722
332.3800, 1447.899
333.5860, 1602.170
334.7920, 1676.534
335.9970, 1639.989
337.2030, 1839.535
338.4080, 1943.170
339.6140, 2139.896
340.8190, 2255.707
342.0240, 2425.606
343.2290, 2634.593
344.4330, 2903.664
345.6380, 3162.820
346.8420, 3461.061
348.0460, 3952.386
349.2500, 4457.792
350.4540, 5231.280
351.6580, 5964.850
352.8610, 6846.809
354.0650, 8240.538
355.2680, 9710.217
356.4710, 11537.11
357.6740, 13668.76
358.8760, 16269.80
360.0790, 19501.92
361.2810, 22950.74
362.4840, 26719.88
363.6860, 31030.96
364.8880, 35073.57
366.0900, 38618.11
367.2910, 41533.45
368.4930, 43977.49
369.6940, 45697.22
370.8950, 47062.01
372.0960, 46849.91
373.2970, 45486.87
374.4980, 42176.91
375.6980, 37576.07
376.8980, 32623.32
378.0990, 26867.65
379.2990, 21895.08
380.4980, 17693.59
381.6980, 14174.20
382.8980, 11633.88
384.0970, 9520.676
385.2960, 8008.590
386.4950, 6799.612
387.6940, 5930.720
388.8930, 5153.923
390.0920, 4528.264
391.2900, 4119.721
392.4880, 3645.271
393.6860, 3315.949
394.8840, 3038.738
396.0820, 2849.020
397.2800, 2793.656
398.4770, 2706.771
399.6750, 2754.972
400.8720, 2839.261
402.0690, 3099.633
403.2660, 3198.096
404.4620, 3659.653
405.6590, 3959.307
406.8550, 4326.032
408.0510, 4803.844
409.2480, 5286.727
410.4430, 5821.700
411.6390, 5917.760
412.8350, 6053.913
414.0300, 5396.171
415.2250, 4959.513
416.4200, 4099.930
417.6150, 3301.427
418.8100, 2384.990
420.0050, 1942.616
421.1990, 1403.312
422.3940, 984.0757
423.5880, 726.9170
424.7820, 567.8228
425.9750, 444.8052
427.1690, 260.8677
428.3630, 202.9897
429.5560, 113.1777
430.7490, 41.43506
431.9420, 67.23193
433.1350, 15.84229
434.3280, 4.594238
435.5200, 14.12695
436.7130, 54.26904
437.9050, 103.5918
439.0970, 107.8506
440.2890, 37.03467
441.4810, 37.83936
442.6720, 30.77881
443.8640, 28.22119
445.0550, 27.83887
446.2460, 107.9590
447.4370, 188.1396
448.6280, 99.40234
449.8180, 354.7217
451.0090, 436.0996
452.1990, 377.5352
453.3890, 532.0264
454.5790, 542.5737
455.7690, 529.1753
456.9590, 506.8301
458.1480, 485.5371
459.3380, 473.2700
460.5270, 453.7920
461.7160, 447.9683
462.9050, 429.8789
464.0940, 420.8379
465.2820, 424.8467
466.4700, 309.9038
467.6590, 427.0073
468.8470, 404.1592
470.0350, 439.3574
471.2220, 317.6016
472.4100, 263.8916
473.5970, 380.2275
474.7850, 378.6084
475.9720, 217.0337
477.1590, 214.5024
478.3460, 228.0156
479.5320, 280.5703
480.7190, 184.1675
481.9050, 237.8066
483.0910, 275.4858
484.2770, 306.5122
485.4630, 402.9653
486.6490, 474.7646
487.8340, 570.6025
489.0200, 666.9209
490.2050, 811.3906
491.3900, 860.3408
492.5750, 970.3276
493.7600, 1053.350
494.9440, 1133.408
496.1290, 1150.508
497.3130, 1099.642
498.4970, 1238.811
499.6810, 1127.013
500.8650, 1099.249
502.0480, 892.5166
503.2320, 994.8154
504.4150, 952.1475
505.5980, 841.5112
506.7810, 662.9141
507.9640, 611.3594
509.1460, 626.8413
510.3290, 572.5098
511.5110, 548.9038
512.6930, 492.4863
513.8750, 522.0815
515.0570, 518.6089
516.2390, 560.9141
517.4210, 598.8594
518.6020, 651.9712
519.7830, 749.8320
520.9640, 783.1362
522.1450, 875.6812
523.3260, 970.1753
524.5060, 1040.408
525.6870, 1036.440
526.8670, 928.4316
528.0470, 969.4326
529.2270, 1062.746
530.4070, 1280.908
531.5870, 1562.325
532.7660, 1921.073
533.9450, 2401.333
535.1240, 3130.234
536.3030, 4131.792
537.4820, 5244.415
538.6610, 6634.371
539.8390, 7888.721
541.0180, 9392.489
542.1960, 10704.64
543.3740, 11809.73
544.5520, 12488.77
545.7290, 12164.71
546.9070, 11042.98
548.0840, 9396.964
549.2620, 7495.337
550.4390, 5764.312
551.6160, 4149.998
552.7920, 3124.090
553.9690, 2425.350
555.1450, 1843.852
556.3220, 1570.316
557.4980, 1314.323
558.6740, 1240.885
559.8490, 1119.801
561.0250, 1071.310
562.2000, 1060.975
563.3760, 1066.514
564.5510, 1136.693
565.7260, 1085.690
566.9010, 1058.634
568.0750, 994.7812
569.2500, 1051.209
570.4240, 977.1904
571.5980, 1063.884
572.7720, 1084.547
573.9460, 972.6626
575.1200, 1027.195
576.2930, 947.7559
577.4670, 901.8706
578.6400, 1009.217
579.8130, 992.3999
580.9860, 950.7163
582.1590, 999.0732
583.3310, 979.3848
584.5040, 1004.098
585.6760, 1006.136
586.8480, 1076.850
588.0200, 1054.256
589.1920, 1062.547
590.3630, 1035.377
591.5350, 1017.219
592.7060, 988.2988
593.8770, 937.6836
595.0480, 801.4741
596.2190, 776.9600
597.3900, 825.4146
598.5600, 889.6875
599.7310, 915.9668
600.9010, 984.1816
602.0710, 1068.367
603.2410, 1129.926
604.4100, 1245.645
605.5800, 1272.738
606.7490, 1351.800
607.9190, 1383.605
609.0880, 1405.827
610.2570, 1489.792
611.4250, 1547.724
612.5940, 1591.623
613.7620, 1665.488
614.9310, 1754.319
616.0990, 1744.115
617.2670, 1848.877
618.4340, 1862.604
619.6020, 1901.294
620.7690, 1942.419
621.9370, 1979.570
623.1040, 1952.152
624.2710, 2027.698
625.4380, 1957.207
626.6040, 1933.678
627.7710, 1850.111
628.9370, 1887.507
630.1030, 1567.864
631.2690, 1556.183
632.4350, 1320.462
633.6010, 1129.702
634.7660, 938.9023
635.9320, 865.0625
637.0970, 798.1836
638.2620, 663.2632
639.4270, 606.4487
640.5920, 436.2998
641.7560, 444.2563
642.9210, 372.1719
644.0850, 280.0449
645.2490, 257.8765
646.4130, 199.6655
647.5770, 167.4116
648.7400, 136.1152
649.9040, 52.77588
651.0670, 12.38867
652.2300, 82.93896
653.3930, 36.55518
654.5560, 63.86035
655.7190, 24.22900
656.8810, 70.46289
658.0440, 8.264648
659.2060, 19.14453
660.3680, 41.10840
661.5300, 3.831055
662.6910, 26.30225
663.8530, 31.47461
665.0140, 96.80811
666.1750, 127.2188
667.3360, 94.77295
668.4970, 3.453613
669.6580, 48.21387
670.8190, 195.0771
671.9790, 136.1206
673.1390, 32.31396
674.2990, 169.6021
675.4590, 116.0576
676.6190, 164.6528
677.7790, 26.41357
678.9380, 112.2661
680.0970, 23.25684
681.2570, 29.33838
682.4160, 12.51318
683.5740, 43.77393
684.7330, 58.13525
685.8920, 63.60547
687.0500, 23.81201
688.2080, 33.83594
689.3660, 23.42090
690.5240, 55.38867
691.6820, 46.30420
692.8390, 65.32129
693.9960, 117.4497
695.1540, 37.71631
696.3110, 15.07812
697.4680, 24.52393
698.6240, 19.94238
699.7810, 30.34424
700.9370, 3.685059
702.0940, 4.954590
703.2500, 37.84717
704.4060, 13.25684
705.5610, 35.70459
706.7170, 55.75586
707.8720, 25.09082
709.0280, 7.122559
710.1830, 19.41016
711.3380, 51.77832
712.4920, 5.756348
713.6470, 48.22900
714.8020, 69.34961
715.9560, 24.96729
717.1100, 14.77246
718.2640, 13.58350
719.4180, 66.46045
720.5720, 119.5693
721.7250, 53.55908
722.8780, 113.5000
724.0320, 48.39795
725.1850, 100.2485
726.3380, 105.0566
727.4900, 48.17871
728.6430, 142.5000
729.7950, 68.13818
730.9470, 45.73145
732.1000, 140.2783
733.2510, 61.78516
734.4030, 96.24805
735.5550, 95.66943
736.7060, 142.0508
737.8570, 121.3931
739.0090, 171.6968
740.1600, 178.9624
741.3100, 159.1899
742.4610, 292.3794
743.6110, 221.5317
744.7620, 193.6470
745.9120, 355.7246
747.0620, 151.7661
748.2120, 253.7715
749.3610, 313.7397
750.5110, 366.6724
751.6600, 378.5693
752.8090, 407.4316
753.9580, 412.2583
755.1070, 458.0503
756.2560, 534.8071
757.4050, 551.5312
758.5530, 612.2202
759.7010, 737.8755
760.8490, 746.4980
761.9970, 853.1777
763.1450, 945.6431
764.2920, 997.1665
765.4400, 1103.658
766.5870, 1132.118
767.7340, 1337.546
768.8810, 1495.942
770.0280, 1581.308
771.1740, 1786.643
772.3210, 1890.948
773.4670, 1866.225
774.6130, 2109.472
775.7590, 2122.688
776.9050, 2254.875
778.0510, 2345.034
779.1960, 2379.165
780.3420, 2490.267
781.4870, 2586.345
782.6320, 2587.398
783.7770, 2669.427
784.9210, 2710.439
786.0660, 2631.438
787.2100, 2558.439
788.3540, 2450.272
789.4980, 2479.391
790.6420, 2481.318
791.7860, 2430.248
792.9300, 2622.030
794.0730, 2729.458
795.2160, 2873.702
796.3590, 2911.472
797.5020, 3208.168
798.6450, 3389.428
799.7880, 3640.471
800.9300, 4000.577
802.0720, 4438.950
803.2150, 5027.537
804.3560, 5305.178
805.4980, 5854.815
806.6400, 6230.141
807.7810, 6795.630
808.9230, 7429.867
810.0640, 7999.786
811.2050, 8239.201
812.3460, 8764.999
813.4860, 9122.147
814.6270, 9260.239
815.7670, 9859.009
816.9070, 9897.396
818.0470, 10466.37
819.1870, 10666.97
820.3270, 10671.65
821.4670, 10983.37
822.6060, 11224.20
823.7450, 11242.69
824.8840, 11125.50
826.0230, 11121.92
827.1620, 10962.78
828.3010, 10594.93
829.4390, 10524.68
830.5770, 10400.30
831.7150, 10182.69
832.8530, 10045.12
833.9910, 9816.021
835.1290, 9432.388
836.2660, 9367.402
837.4030, 9189.817
838.5410, 9007.094
839.6780, 8951.492
840.8140, 8712.247
841.9510, 8640.195
843.0870, 8882.198
844.2240, 8552.992
845.3600, 8776.499
846.4960, 8800.459
847.6320, 8890.701
848.7680, 8895.966
849.9030, 8990.229
851.0380, 9069.144
852.1740, 9175.483
853.3090, 9263.269
854.4440, 9391.160
855.5780, 9438.189
856.7130, 9659.968
857.8470, 10142.10
858.9820, 10446.65
860.1160, 10980.79
861.2500, 11657.33
862.3830, 12403.45
863.5170, 13351.61
864.6500, 14561.04
865.7840, 16021.39
866.9170, 18117.35
868.0500, 20325.06
869.1830, 23192.46
870.3150, 26425.45
871.4480, 30360.73
872.5800, 34423.03
873.7120, 38824.50
874.8440, 43189.96
875.9760, 46979.47
877.1080, 50657.00
878.2390, 52969.54
879.3710, 53493.11
880.5020, 53078.70
881.6330, 50748.32
882.7640, 47618.95
883.8940, 43334.59
885.0250, 38722.27
886.1550, 33795.96
887.2850, 29107.68
888.4160, 24887.41
889.5450, 21603.17
890.6750, 18660.95
891.8050, 16027.75
892.9340, 13936.58
894.0630, 12349.43
895.1930, 10843.30
896.3220, 9598.193
897.4500, 8667.111
898.5790, 7939.053
899.7070, 7125.020
900.8360, 6752.009
901.9640, 6217.022
903.0920, 5868.062
904.2200, 5582.125
905.3470, 5220.213
906.4750, 4944.464
907.6020, 4625.602
908.7290, 4330.782
909.8560, 4128.970
910.9830, 3832.186
912.1100, 3699.427
913.2360, 3547.695
914.3630, 3225.988
915.4890, 2917.308
916.6150, 2887.242
917.7410, 2684.271
918.8670, 2607.671
919.9920, 2394.854
921.1180, 2311.194
922.2430, 2151.605
923.3680, 2055.114
924.4930, 1969.182
925.6180, 1890.778
926.7420, 1975.389
927.8670, 1799.051
928.9910, 1777.943
930.1150, 1652.952
931.2390, 1558.158
932.3630, 1481.543
933.4860, 1458.462
934.6100, 1449.462
935.7330, 1478.936
936.8560, 1480.500
937.9790, 1512.836
939.1020, 1543.627
940.2250, 1637.894
941.3470, 1765.169
942.4700, 1796.881
943.5920, 1842.485
944.7140, 1815.623
945.8360, 1800.212
946.9570, 1790.412
948.0790, 1723.322
949.2000, 1624.564
950.3220, 1604.785
951.4430, 1588.453
952.5640, 1388.418
953.6840, 1268.243
954.8050, 1290.271
955.9250, 1152.379
957.0460, 914.9722
958.1660, 821.1895
959.2860, 742.2695
960.4050, 711.5259
961.5250, 683.6353
962.6440, 626.5220
963.7640, 581.0830
964.8830, 582.1714
966.0020, 693.5112
967.1210, 707.1396
968.2390, 838.7314
969.3580, 924.2056
970.4760, 1040.002
971.5940, 1066.793
972.7120, 1134.611
973.8300, 1186.210
974.9480, 1311.057
976.0650, 1405.350
977.1830, 1589.942
978.3000, 1678.587
979.4170, 1797.675
980.5340, 2013.799
981.6500, 2130.923
982.7670, 2130.086
983.8830, 2129.296
985.0000, 2309.537
986.1160, 2294.802
987.2320, 2336.117
988.3470, 2378.460
989.4630, 2400.839
990.5780, 2447.128
991.6940, 2484.712
992.8090, 2534.192
993.9240, 2536.696
995.0380, 2593.218
996.1530, 2714.762
997.2680, 2675.326
998.3820, 2745.910
999.4960, 2956.533
1000.610, 2849.175
1001.724, 3108.836
1002.837, 3224.518
1003.951, 3190.218
1005.064, 3204.938
1006.177, 3082.675
1007.291, 3019.430
1008.403, 2929.201
1009.516, 2687.989
1010.629, 2343.793
1011.741, 2008.613
1012.853, 1757.450
1013.965, 1449.301
1015.077, 1232.173
1016.189, 1024.731
1017.300, 787.9639
1018.412, 701.8818
1019.523, 566.8145
1020.634, 488.7617
1021.745, 510.7236
1022.856, 440.6992
1023.966, 220.6909
1025.077, 303.6958
1026.187, 229.7148
1027.297, 162.7461
1028.407, 346.7915
1029.517, 219.8506
1030.627, 236.9238
1031.736, 263.0098
1032.845, 157.1094
1033.955, 221.2217
1035.064, 146.3525
1036.172, 147.4951
1037.281, 132.6499
1038.390, 201.8184
1039.498, 10.00146
1040.606, 103.1885
1041.714, 3.392090
1042.822, 50.60596
1043.930, 67.83008
1045.037, 97.06396
1046.145, 87.30908
1047.252, 32.58154
1048.359, 29.86279
1049.466, 27.82666
1050.573, 29.50684
1051.679, 23.81445
1052.786, 75.73926
1053.892, 57.35840
1054.998, 141.0518
1056.104, 17.23193
1057.210, 46.50879
1058.315, 2.742188
1059.421, 41.71826
1060.526, 35.05957
1061.631, 7.618652
1062.736, 35.75293
1063.841, 37.55371
1064.946, 73.51514
1066.050, 24.90674
1067.154, 96.66504
1068.258, 52.46582
1069.362, 13.28857
1070.466, 62.11572
1071.570, 50.97021
1072.674, 21.84814
1073.777, 19.26465
1074.880, 55.62207
1075.983, 5.536621
1077.086, 44.45654
1078.189, 33.38623
1079.291, 88.33691
1080.394, 17.33887
1081.496, 36.35400
1082.598, 33.39502
1083.700, 54.46045
1084.802, 23.43652
1085.903, 36.66895
1087.005, 69.80420
1088.106, 31.01270
1089.207, 11.17334
1090.308, 26.62207
1091.409, 62.58594
1092.509, 31.84180
1093.610, 139.1304
1094.710, 6.508789
1095.810, 20.09131
1096.910, 149.3169
1098.010, 55.82227
1099.110, 29.62256
1100.209, 71.94043
1101.309, 36.56348
1102.408, 8.228027
1103.507, 56.08105
1104.606, 37.61719
1105.704, 16.64111
1106.803, 76.88135
1107.901, 41.88623
1108.999, 25.29785
1110.097, 23.46729
1111.195, 43.61963
1112.293, 0.2392580
1113.391, 66.87256
1114.488, 121.9741
1115.585, 174.0659
1116.682, 233.1470
1117.779, 297.2227
1118.876, 399.2881
1119.973, 561.3496
1121.069, 575.4009
1122.165, 577.4443
1123.261, 550.4771
1124.357, 523.4976
1125.453, 537.5063
1126.549, 405.5024
1127.644, 369.4863
1128.739, 332.4570
1129.835, 298.4155
1130.930, 267.5962
1132.024, 154.2910
1133.119, 233.2090
1134.214, 173.1138
1135.308, 205.0039
1136.402, 253.8799
1137.496, 210.7427
1138.590, 191.5908
1139.684, 272.4248
1140.777, 341.2446
1141.871, 299.0488
1142.964, 381.8394
1144.057, 288.6147
1145.150, 352.3745
1146.243, 310.0825
1147.335, 358.0010
1148.428, 348.5557
1149.520, 351.4121
1150.612, 352.0942
1151.704, 304.7598
1152.796, 341.4082
1153.887, 327.0410
1154.979, 331.0015
1156.070, 240.6011
1157.161, 353.1885
1158.252, 463.7549
1159.343, 375.4927
1160.433, 383.0249
1161.524, 396.8955
1162.614, 261.3931
1163.704, 371.2676
1164.794, 435.8970
1165.884, 314.7656
1166.974, 411.2407
1168.063, 322.6499
1169.153, 281.7178
1170.242, 360.1968
1171.331, 296.5928
1172.420, 248.6748
1173.508, 273.9761
1174.597, 231.4409
1175.685, 307.7207
1176.774, 250.2964
1177.862, 265.6177
1178.950, 332.8403
1180.037, 267.7354
1181.125, 187.1631
1182.212, 200.6724
1183.300, 130.8159
1184.387, 140.2637
1185.474, 258.1699
1186.560, 144.3281
1187.647, 249.5557
1188.733, 230.0767
1189.820, 54.96680
1190.906, 138.9546
1191.992, 145.9219
1193.078, 60.49561
1194.163, 148.1328
1195.249, 194.1572
1196.334, 180.4819
1197.419, 214.5786
1198.504, 230.6895
1199.589, 150.5513
1200.674, 256.8096
1201.758, 209.3105
1202.843, 178.4595
1203.927, 213.1357
1205.011, 196.8516
1206.095, 190.3442
1207.179, 149.7354
1208.262, 151.1909
1209.345, 188.7744
1210.429, 161.2432
1211.512, 220.3691
1212.595, 174.4702
1213.677, 179.6597
1214.760, 206.4321
1215.842, 142.9619
1216.925, 221.6631
1218.007, 223.1914
1219.089, 241.6699
1220.171, 260.8882
1221.252, 214.4404
1222.334, 261.0596
1223.415, 199.5210
1224.496, 220.1611
1225.577, 263.0415
1226.658, 240.2866
1227.738, 229.0386
1228.819, 130.5791
1229.899, 255.8857
1230.979, 193.2607
1232.060, 248.7812
1233.139, 238.2402
1234.219, 370.5840
1235.299, 221.9482
1236.378, 302.4609
1237.457, 290.6934
1238.536, 210.4517
1239.615, 223.2217
1240.694, 299.7529
1241.772, 214.8770
1242.851, 224.9800
1243.929, 283.1050
1245.007, 284.2173
1246.085, 312.5947
1247.163, 298.5957
1248.240, 326.7749
1249.318, 320.5391
1250.395, 271.7388
1251.472, 290.7344
1252.549, 318.7661
1253.626, 268.9214
1254.703, 315.1152
1255.779, 295.0952
1256.855, 270.0615
1257.931, 275.0146
1259.007, 281.9551
1260.083, 313.8823
1261.159, 291.7964
1262.234, 273.8105
1263.310, 168.7002
1264.385, 147.5767
1265.460, 189.4404
1266.535, 233.4692
1267.610, 170.3076
1268.684, 172.2163
1269.758, 197.0366
1270.833, 180.8442
1271.907, 100.7705
1272.981, 105.5581
1274.054, 102.3296
1275.128, 7.088867
1276.201, 41.82715
1277.275, 86.55176
1278.348, 90.26416
1279.421, 118.3320
1280.493, 106.6538
1281.566, 120.3330
1282.638, 85.00049
1283.711, 25.65723
1284.783, 111.2998
1285.855, 82.93164
1286.927, 167.5518
1287.998, 40.17383
1289.070, 156.7837
1290.141, 23.38232
1291.212, 99.96729
1292.283, 20.54150
1293.354, 43.10156
1294.425, 4.350586
1295.495, 71.17334
1296.566, 97.68652
1297.636, 8.189453
1298.706, 56.67529
1299.776, 39.15088
1300.845, 5.616699
1301.915, 135.0654
1302.984, 41.50342
1304.054, 169.9302
1305.123, 22.34668
1306.191, 49.25000
1307.260, 110.1079
1308.329, 59.54443
1309.397, 14.24756
1310.465, 119.0264
1311.534, 187.2944
1312.602, 102.4351
1313.669, 14.37061
1314.737, 76.87793
1315.804, 38.11377
1316.872, 75.37109
1317.939, 17.38037
1319.006, 155.1328
1320.073, 82.27295
1321.139, 17.57080
1322.206, 104.0386
1323.272, 13.81689
1324.338, 115.3623
1325.404, 33.55078
1326.470, 124.7197
1327.536, 115.9053
1328.601, 83.09521
1329.667, 140.2817
1330.732, 57.47754
1331.797, 100.6787
1332.862, 69.87842
1333.926, 113.0708
1334.991, 37.27246
1336.055, 47.53027
1337.120, 94.65918
1338.184, 82.85303
1339.248, 24.06348
1340.311, 130.2739
1341.375, 87.49072
1342.438, 129.7119
1343.502, 107.9448
1344.565, 125.1719
1345.628, 129.4004
1346.691, 65.63477
1347.753, 19.85596
1348.816, 39.07715
1349.878, 142.2915
1350.940, 104.5215
1352.002, 199.7607
1353.064, 67.03564
1354.126, 76.31299
1355.187, 164.5854
1356.248, 132.8975
1357.310, 67.22607
1358.371, 160.5493
1359.431, 239.8931
1360.492, 12.24951
1361.553, 41.60986
1362.613, 32.96436
1363.673, 55.33105
1364.733, 57.69775
1365.793, 100.0591
1366.853, 40.43555
1367.912, 80.80908
1368.972, 158.1821
1370.031, 86.55078
1371.090, 77.08105
1372.149, 106.6016
1373.208, 168.1084
1374.267, 16.44580
1375.325, 37.90430
1376.383, 24.75049
1377.441, 26.58398
1378.499, 13.08594
1379.557, 60.23633
1380.615, 27.55713
1381.672, 14.87354
1382.730, 149.1855
1383.787, 81.49512
1384.844, 142.8022
1385.901, 158.1074
1386.957, 68.41016
1388.014, 84.71191
1389.070, 36.17139
1390.126, 63.61230
1391.182, 73.90723
1392.238, 133.2007
1393.294, 20.49316
1394.349, 179.7832
1395.405, 43.27148
1396.460, 174.8569
1397.515, 86.14551
1398.570, 32.43311
1399.625, 62.86035
1400.679, 189.1484
1401.734, 139.4365
1402.788, 121.7617
1403.842, 95.86133
1404.896, 127.1523
1405.950, 77.44482
1407.003, 119.7363
1408.057, 66.39648
1409.110, 96.68604
1410.163, 164.0503
1411.216, 147.2690
1412.269, 173.5659
1413.322, 236.8618
1414.374, 120.2012
1415.427, 189.3643
1416.479, 155.6885
1417.531, 134.6406
1418.583, 89.95410
1419.634, 84.84180
1420.686, 180.9604
1421.737, 229.8223
1422.788, 137.0635
1423.839, 139.3574
1424.890, 107.9780
1425.941, 111.3003
1426.992, 198.4810
1428.042, 249.0215
1429.092, 90.18506
1430.142, 238.1738
1431.192, 107.3198
1432.242, 293.1416
1433.291, 175.1870
1434.341, 271.2842
1435.390, 146.6606
1436.439, 247.8887
1437.488, 265.9365
1438.537, 205.9746
1439.586, 170.6562
1440.634, 167.1392
1441.682, 205.3354
1442.731, 260.5552
1443.779, 126.0376
1444.826, 207.5571
1445.874, 123.3574
1446.922, 335.5752
1447.969, 327.9619
1449.016, 348.3516
1450.063, 74.68457
1451.110, 264.0771
1452.157, 201.5439
1453.203, 324.9043
1454.250, 266.0630
1455.296, 161.4238
1456.342, 236.7847
1457.388, 248.1450
1458.433, 226.1592
1459.479, 335.5200
1460.524, 196.8804
1461.570, 265.2412
1462.615, 280.6011
1463.660, 245.9600
1464.705, 207.9160
1465.749, 176.0645
1466.794, 317.3794
1467.838, 285.5996
1468.882, 372.9380
1469.926, 167.2710
1470.970, 123.0410
1472.013, 200.9565
1473.057, 190.7432
1474.100, 252.7822
1475.143, 242.1665
1476.186, 239.3813
1477.229, 204.2417
1478.272, 222.3188
1479.314, 184.5454
1480.357, 198.5117
1481.399, 236.6055
1482.441, 193.7964
1483.483, 205.1973
1484.525, 222.9546
1485.566, 193.1416
1486.608, 146.3237
1487.649, 170.4980
1488.690, 153.6636
1489.731, 120.8252
1490.771, 106.9580
1491.812, 71.06348
1492.853, 69.67773
1493.893, 77.26758
1494.933, 69.38477
1495.973, 14.50000
1497.013, 16.08203
1498.052, 18.09082
1499.092, 31.85156
1500.131, 68.00391
1501.170, 73.22656
1502.209, 142.5225
1503.248, 81.81641
1504.287, 86.14453
1505.325, 53.49902
1506.363, 104.9150
1507.402, 109.3477
1508.440, 102.7773
1509.478, 171.2432
1510.515, 136.7480
1511.553, 58.25879
1512.590, 123.7734
1513.627, 19.29297
1514.664, 23.81445
1515.701, 162.3438
1516.738, 128.8857
1517.775, 85.43359
1518.811, 176.0059
1519.847, 13.67969
1520.883, 20.60449
1521.919, 76.13281
1522.955, 104.8936
1523.991, 30.68359
1525.026, 71.50195
1526.061, 66.35352
1527.096, 150.2324
1528.131, 89.14746
1529.166, 102.1006
1530.201, 198.0957
1531.235, 81.57812
1532.270, 3.572266
1533.304, 164.3408
1534.338, 56.47363
1535.372, 18.65527
1536.405, 140.8770
1537.439, 112.1572
1538.472, 39.51074
1539.505, 69.87500
1540.538, 77.83691
1541.571, 195.2842
1542.604, 148.7998
1543.637, 176.0674
1544.669, 130.3096
1545.701, 205.7246
1546.733, 121.9756
1547.765, 117.2461
1548.797, 147.5430
1549.829, 59.07617
1550.860, 75.48145
1551.891, 203.4580
1552.922, 111.8848
1553.953, 264.0049
1554.984, 199.0488
1556.015, 212.8428
1557.045, 206.8027
1558.076, 238.5068
1559.106, 204.5840
1560.136, 93.04785
1561.165, 166.1006
1562.195, 138.2979
1563.225, 0.6289060
1564.254, 34.00391
1565.283, 0.0000000E+00
##END=



