##NAMES=Grossular
##RRUFFID=R060499
##IDEAL CHEMISTRY=Ca_3_Al_2_(SiO_4_)_3_
##LOCALITY=Lake Jaco, Chihuahua, Mexico
##OWNER=RRUFF
##SOURCE=Michael Scott
##DESCRIPTION=Tan colored single dodecahedral crystal
##STATUS=The identification of this mineral has been confirmed by X-ray diffraction and chemical analysis
##URL=rruff.info/R060499
##MEASURED CHEMISTRY=(Ca_2.90_Mg_0.10_)_Σ=3_(Al_1.78_Fe^3+^_0.19_Ti_0.03_)_Σ=2_(Si_1.00_O_4_)_3_
##PIN_ID=L01514
##ORIENTATION=Laser parallel to -a* (-1 0 0). Fiducial mark perpendicular to laser is parallel to -c [0 0 -1]
125.9590, 0.0000000E+00
127.1960, 3.386963
128.4330, 60.18115
129.6700, 28.48779
130.9060, 46.17871
132.1430, 83.50732
133.3790, 57.76904
134.6150, 16.45923
135.8500, 43.42700
137.0860, 54.45239
138.3210, 46.84253
139.5560, 106.2498
140.7910, 67.64648
142.0260, 11.07837
143.2610, 38.99341
144.4950, 7.799072
145.7290, 21.71289
146.9630, 35.85791
148.1970, 13.18164
149.4310, 8.189453
150.6640, 43.75635
151.8980, 54.84521
153.1310, 140.2944
154.3640, 40.09961
155.5970, 8.256836
156.8290, 70.76099
158.0620, 56.60718
159.2940, 27.79077
160.5260, 65.30688
161.7580, 131.1526
162.9890, 179.3225
164.2210, 219.8027
165.4520, 329.5718
166.6830, 376.2654
167.9140, 460.6338
169.1450, 528.8918
170.3760, 727.1560
171.6060, 1028.348
172.8360, 1195.900
174.0660, 1794.588
175.2960, 2818.220
176.5260, 4239.253
177.7550, 6137.020
178.9840, 7609.021
180.2130, 7657.247
181.4420, 5679.698
182.6710, 3567.372
183.9000, 2065.264
185.1280, 1345.369
186.3560, 734.6868
187.5840, 481.2126
188.8120, 226.9453
190.0400, 182.8823
191.2670, 170.0239
192.4950, 82.36865
193.7220, 105.9153
194.9490, 47.66431
196.1750, 90.61572
197.4020, 111.7683
198.6280, 51.12207
199.8540, 177.6414
201.0800, 23.21191
202.3060, 120.8396
203.5320, 98.52808
204.7570, 64.27173
205.9830, 48.91553
207.2080, 5.973389
208.4330, 6.2011998E-02
209.6570, 85.97681
210.8820, 2.232666
212.1060, 52.59741
213.3310, 81.10620
214.5550, 16.22144
215.7780, 29.45020
217.0020, 19.57715
218.2260, 18.59961
219.4490, 18.51611
220.6720, 12.67505
221.8950, 14.02515
223.1180, 43.61523
224.3400, 9.905029
225.5630, 32.46289
226.7850, 42.28223
228.0070, 31.14160
229.2290, 162.1160
230.4500, 282.2063
231.6720, 393.4131
232.8930, 485.7378
234.1140, 771.1797
235.3350, 927.7400
236.5560, 983.4194
237.7770, 984.2173
238.9970, 1049.134
240.2170, 1000.159
241.4370, 1115.291
242.6570, 1152.532
243.8770, 1111.892
245.0960, 1153.364
246.3160, 1077.950
247.5350, 975.6531
248.7540, 881.4685
249.9730, 805.3999
251.1910, 766.4551
252.4100, 690.6348
253.6280, 678.9409
254.8460, 675.3740
256.0640, 644.9358
257.2810, 737.6272
258.4990, 867.4497
259.7160, 1038.404
260.9330, 1099.492
262.1500, 1022.712
263.3670, 933.0669
264.5840, 1031.555
265.8000, 974.1758
267.0170, 1095.930
268.2330, 1160.817
269.4490, 1122.838
270.6640, 1311.992
271.8800, 1384.280
273.0950, 1475.787
274.3100, 1498.920
275.5260, 1516.730
276.7400, 1505.427
277.9550, 1498.567
279.1690, 1443.301
280.3840, 1429.742
281.5980, 1440.598
282.8120, 1420.492
284.0260, 1479.659
285.2390, 1510.981
286.4530, 1390.454
287.6660, 1351.074
288.8790, 1085.227
290.0920, 1025.131
291.3040, 841.8135
292.5170, 700.5483
293.7290, 621.1631
294.9410, 482.2031
296.1530, 277.7432
297.3650, 330.4746
298.5770, 242.3862
299.7880, 311.8335
301.0000, 423.9014
302.2110, 415.0513
303.4220, 523.3164
304.6320, 584.6948
305.8430, 753.1855
307.0530, 807.7881
308.2630, 864.5000
309.4730, 933.3208
310.6830, 1018.250
311.8930, 1012.284
313.1030, 1056.408
314.3120, 1104.605
315.5210, 1031.906
316.7300, 1007.308
317.9390, 1130.801
319.1470, 1268.389
320.3560, 1287.075
321.5640, 1316.853
322.7720, 1433.724
323.9800, 1446.695
325.1880, 1538.765
326.3950, 1649.934
327.6030, 1640.200
328.8100, 1600.563
330.0170, 1664.023
331.2240, 1593.821
332.4300, 1473.227
333.6370, 1529.970
334.8430, 1484.807
336.0490, 1512.734
337.2550, 1605.755
338.4610, 1586.866
339.6660, 1765.067
340.8720, 1902.357
342.0770, 1998.736
343.2820, 2214.204
344.4870, 2361.759
345.6920, 2394.399
346.8960, 2682.127
348.1010, 2804.941
349.3050, 3293.840
350.5090, 3541.828
351.7130, 3960.876
352.9160, 4465.034
354.1200, 5238.263
355.3230, 5992.537
356.5260, 7129.949
357.7290, 8455.447
358.9320, 10099.03
360.1350, 12414.47
361.3370, 15325.73
362.5390, 19207.29
363.7410, 23729.94
364.9430, 28117.68
366.1450, 32171.75
367.3470, 34906.72
368.5480, 36229.22
369.7490, 38439.54
370.9500, 40916.48
372.1510, 44208.04
373.3520, 46455.71
374.5520, 46443.48
375.7530, 43402.38
376.9530, 37775.39
378.1530, 31823.53
379.3520, 25854.78
380.5520, 20991.14
381.7510, 16791.61
382.9510, 13825.20
384.1500, 11251.91
385.3490, 9482.755
386.5480, 7973.718
387.7460, 6703.793
388.9440, 5819.979
390.1430, 4981.265
391.3410, 4511.674
392.5390, 3966.186
393.7360, 3523.813
394.9340, 3454.544
396.1310, 3049.377
397.3280, 2993.295
398.5250, 2826.317
399.7220, 2655.422
400.9190, 2789.606
402.1150, 2683.860
403.3120, 2836.204
404.5080, 2944.638
405.7040, 3308.161
406.8990, 3878.768
408.0950, 4606.465
409.2900, 5233.254
410.4860, 6125.153
411.6810, 6558.158
412.8760, 6620.274
414.0700, 5964.522
415.2650, 5042.883
416.4590, 3832.347
417.6540, 2955.932
418.8480, 2309.648
420.0420, 1790.472
421.2350, 1521.430
422.4290, 1011.504
423.6220, 678.6714
424.8150, 561.9243
426.0080, 379.2607
427.2010, 269.6782
428.3940, 199.1714
429.5860, 97.74170
430.7790, 124.3901
431.9710, 37.87158
433.1630, 68.93896
434.3540, 93.17725
435.5460, 95.22559
436.7370, 24.19775
437.9290, 123.0752
439.1200, 59.90625
440.3110, 137.6436
441.5010, 65.33057
442.6920, 36.68701
443.8820, 168.5312
445.0730, 42.94336
446.2630, 167.5044
447.4530, 167.1333
448.6420, 342.8242
449.8320, 383.5742
451.0210, 387.3838
452.2100, 560.2510
453.3990, 577.1763
454.5880, 623.1587
455.7770, 666.1973
456.9660, 602.2920
458.1540, 634.4419
459.3420, 611.6460
460.5300, 584.9043
461.7180, 621.0093
462.9050, 589.5806
464.0930, 659.9976
465.2800, 617.4658
466.4670, 612.9849
467.6540, 635.5547
468.8410, 607.1738
470.0280, 665.8418
471.2140, 692.5576
472.4000, 700.3218
473.5870, 689.1328
474.7720, 674.9907
475.9580, 675.8936
477.1440, 546.8418
478.3290, 551.8345
479.5140, 552.8716
480.6990, 520.9512
481.8840, 567.0737
483.0690, 621.2383
484.2540, 619.4438
485.4380, 597.6909
486.6220, 710.9775
487.8060, 681.3037
488.9900, 947.6689
490.1740, 1061.072
491.3570, 1201.513
492.5410, 1203.992
493.7240, 1399.506
494.9070, 1439.061
496.0900, 1490.650
497.2720, 1497.275
498.4550, 1506.943
499.6370, 1347.645
500.8190, 1345.379
502.0010, 1273.145
503.1830, 1247.944
504.3650, 1064.777
505.5460, 1038.228
506.7280, 944.5474
507.9090, 886.4600
509.0900, 760.4141
510.2710, 653.3042
511.4510, 495.9702
512.6320, 463.0664
513.8120, 536.0356
514.9920, 422.7285
516.1720, 503.7798
517.3520, 500.9636
518.5310, 424.8149
519.7110, 597.8835
520.8900, 856.0371
522.0690, 906.6462
523.2480, 969.3547
524.4270, 1011.031
525.6050, 935.0684
526.7840, 848.5757
527.9620, 779.7202
529.1400, 906.9502
530.3180, 1001.654
531.4960, 1215.761
532.6730, 1608.809
533.8510, 1930.004
535.0280, 2393.831
536.2050, 3071.947
537.3820, 4024.807
538.5590, 5280.476
539.7350, 6920.276
540.9120, 9141.055
542.0880, 11503.70
543.2640, 13614.55
544.4400, 14745.31
545.6150, 13876.60
546.7910, 11564.02
547.9660, 8989.710
549.1410, 6619.935
550.3170, 4934.000
551.4910, 3613.552
552.6660, 2722.953
553.8410, 2298.165
555.0150, 1914.550
556.1890, 1679.592
557.3630, 1560.991
558.5370, 1547.580
559.7110, 1588.486
560.8840, 1542.252
562.0570, 1559.492
563.2310, 1552.226
564.4040, 1517.020
565.5760, 1570.000
566.7490, 1542.285
567.9220, 1549.580
569.0940, 1626.088
570.2660, 1591.937
571.4380, 1579.990
572.6100, 1384.874
573.7820, 1467.771
574.9530, 1418.453
576.1240, 1293.642
577.2960, 1358.754
578.4670, 1225.876
579.6370, 1155.931
580.8080, 1125.035
581.9790, 1124.231
583.1490, 1123.861
584.3190, 1129.686
585.4890, 1136.070
586.6590, 1144.869
587.8280, 1138.375
588.9980, 1144.033
590.1670, 1056.581
591.3360, 1004.095
592.5050, 887.5737
593.6740, 832.0168
594.8430, 803.4243
596.0110, 807.9749
597.1790, 896.1306
598.3480, 924.4287
599.5160, 1031.689
600.6830, 1162.912
601.8510, 1287.096
603.0180, 1447.242
604.1860, 1604.350
605.3530, 1636.417
606.5200, 1765.445
607.6870, 1835.434
608.8530, 1872.381
610.0200, 1956.786
611.1860, 2082.154
612.3520, 2039.978
613.5180, 2125.761
614.6840, 2115.501
615.8500, 2165.200
617.0150, 2234.855
618.1800, 2399.468
619.3450, 2490.036
620.5100, 2525.562
621.6750, 2691.042
622.8400, 2709.479
624.0040, 2829.872
625.1690, 2833.219
626.3330, 2887.521
627.4970, 2826.778
628.6610, 2821.990
629.8240, 2694.153
630.9880, 2562.272
632.1510, 2475.344
633.3140, 2115.371
634.4770, 1906.349
635.6400, 1700.281
636.8020, 1438.164
637.9650, 1219.000
639.1270, 1052.788
640.2890, 801.5278
641.4510, 661.2192
642.6130, 538.8621
643.7750, 405.3730
644.9360, 382.0010
646.0980, 231.4966
647.2590, 195.9429
648.4200, 122.3396
649.5810, 66.68652
650.7410, 46.97192
651.9020, 13.81128
653.0620, 74.69312
654.2220, 37.70605
655.3820, 26.83081
656.5420, 92.06226
657.7020, 38.43408
658.8610, 115.9192
660.0200, 47.55811
661.1800, 49.31470
662.3390, 53.19019
663.4970, 79.18652
664.6560, 103.3171
665.8150, 142.5947
666.9730, 89.03955
668.1310, 58.62329
669.2890, 66.33008
670.4470, 25.16382
671.6050, 120.1018
672.7620, 27.19458
673.9200, 101.3926
675.0770, 42.73438
676.2340, 39.18896
677.3910, 11.24634
678.5470, 55.40186
679.7040, 26.83228
680.8600, 28.99170
682.0160, 85.07812
683.1720, 9.891113
684.3280, 18.95239
685.4840, 22.10962
686.6390, 4.635986
687.7950, 36.70068
688.9500, 35.14111
690.1050, 107.6836
691.2600, 106.3657
692.4150, 120.4695
693.5690, 204.1501
694.7240, 136.3022
695.8780, 95.60596
697.0320, 116.0386
698.1860, 138.6094
699.3400, 58.33008
700.4930, 163.1575
701.6470, 93.14502
702.8000, 16.25513
703.9530, 11.55347
705.1060, 29.29639
706.2590, 25.98267
707.4110, 58.61230
708.5640, 37.19312
709.7160, 19.72192
710.8680, 28.80518
712.0200, 48.58789
713.1720, 30.93677
714.3230, 22.76465
715.4750, 40.53052
716.6260, 82.36914
717.7770, 16.69189
718.9280, 113.2849
720.0790, 22.37231
721.2300, 90.48682
722.3800, 12.68677
723.5300, 31.91675
724.6810, 72.19629
725.8300, 1.563965
726.9800, 44.01831
728.1300, 96.56177
729.2790, 86.06885
730.4290, 136.5398
731.5780, 135.9753
732.7270, 209.3755
733.8760, 335.7412
735.0240, 353.0725
736.1730, 432.3696
737.3210, 528.6331
738.4700, 611.8638
739.6180, 702.0610
740.7650, 744.2261
741.9130, 920.3594
743.0610, 1001.461
744.2080, 1145.531
745.3550, 1314.571
746.5020, 1337.580
747.6490, 1386.559
748.7960, 1546.509
749.9430, 1621.429
751.0890, 1569.321
752.2350, 1632.185
753.3810, 1727.021
754.5270, 1811.830
755.6730, 1830.611
756.8190, 1960.367
757.9640, 2055.096
759.1090, 2203.801
760.2540, 2452.479
761.3990, 2595.133
762.5440, 2949.763
763.6890, 3298.369
764.8330, 3776.952
765.9780, 4158.511
767.1220, 4691.050
768.2660, 4996.565
769.4100, 5579.059
770.5530, 5973.533
771.6970, 6124.986
772.8400, 6233.418
773.9830, 6064.832
775.1260, 6048.226
776.2690, 5598.602
777.4120, 5266.958
778.5540, 4771.299
779.6970, 4530.621
780.8390, 4100.932
781.9810, 3709.224
783.1230, 3332.502
784.2650, 3169.767
785.4060, 2897.023
786.5480, 2863.275
787.6890, 2660.606
788.8300, 2614.195
789.9710, 2512.379
791.1120, 2467.711
792.2520, 2497.342
793.3930, 2591.630
794.5330, 2529.816
795.6730, 2577.349
796.8130, 2552.005
797.9530, 2556.966
799.0930, 2609.846
800.2320, 2653.442
801.3710, 2827.569
802.5110, 2818.147
803.6500, 3068.298
804.7880, 3207.845
805.9270, 3498.334
807.0660, 3648.380
808.2040, 3949.060
809.3420, 4237.820
810.4800, 4475.464
811.6180, 4653.521
812.7560, 4999.325
813.8930, 5178.416
815.0310, 5509.726
816.1680, 5759.938
817.3050, 6097.210
818.4420, 6364.651
819.5790, 6594.899
820.7150, 6605.265
821.8520, 6743.143
822.9880, 6832.893
824.1240, 6716.402
825.2600, 6679.415
826.3960, 6740.615
827.5320, 6456.364
828.6670, 6276.307
829.8020, 6246.458
830.9380, 5830.480
832.0730, 5766.882
833.2080, 5645.958
834.3420, 5408.879
835.4770, 5420.511
836.6110, 5332.197
837.7450, 5410.666
838.8790, 5316.546
840.0130, 5320.391
841.1470, 5375.067
842.2810, 5321.458
843.4140, 5481.857
844.5470, 5462.062
845.6800, 5461.947
846.8130, 5624.493
847.9460, 5741.542
849.0790, 5890.904
850.2110, 5934.017
851.3440, 6198.860
852.4760, 6210.729
853.6080, 6347.114
854.7400, 6630.277
855.8710, 6895.011
857.0030, 7210.602
858.1340, 7532.702
859.2650, 8088.201
860.3960, 8767.641
861.5270, 9554.708
862.6580, 10444.07
863.7890, 11554.29
864.9190, 13013.63
866.0490, 14693.00
867.1790, 16737.43
868.3090, 19064.88
869.4390, 22015.38
870.5690, 25147.92
871.6980, 28943.51
872.8270, 32570.14
873.9570, 36129.80
875.0860, 39174.52
876.2140, 40968.26
877.3430, 41691.07
878.4720, 40872.91
879.6000, 39028.80
880.7280, 35926.72
881.8560, 32366.69
882.9840, 29013.71
884.1120, 24704.78
885.2390, 21472.88
886.3670, 18727.04
887.4940, 16128.24
888.6210, 13862.48
889.7480, 12117.77
890.8750, 10726.11
892.0020, 9401.489
893.1280, 8422.918
894.2540, 7579.395
895.3810, 6940.918
896.5070, 6332.489
897.6320, 5825.056
898.7580, 5458.772
899.8840, 5103.487
901.0090, 4857.248
902.1340, 4727.058
903.2590, 4488.915
904.3840, 4468.820
905.5090, 4205.775
906.6340, 4103.778
907.7580, 4067.831
908.8820, 3850.933
910.0060, 3843.083
911.1300, 3779.282
912.2540, 3690.531
913.3780, 3751.830
914.5010, 3701.179
915.6250, 3628.053
916.7480, 3743.501
917.8710, 3894.077
918.9940, 3934.661
920.1160, 3827.553
921.2390, 3793.091
922.3610, 3908.810
923.4840, 3867.593
924.6060, 3901.674
925.7280, 3842.456
926.8490, 3798.857
927.9710, 3896.354
929.0930, 3760.660
930.2140, 3607.934
931.3350, 3655.905
932.4560, 3702.483
933.5770, 3682.220
934.6980, 3669.491
935.8180, 3631.407
936.9380, 3674.252
938.0590, 3737.598
939.1790, 3556.946
940.2990, 3618.847
941.4180, 3680.679
942.5380, 3528.261
943.6570, 3346.146
944.7770, 3269.516
945.8960, 3268.332
947.0150, 3077.831
948.1340, 3075.562
949.2520, 2796.531
950.3710, 2782.228
951.4890, 2666.302
952.6070, 2299.396
953.7260, 2150.962
954.8430, 2035.631
955.9610, 1893.602
957.0790, 1789.553
958.1960, 1572.506
959.3130, 1408.898
960.4310, 1327.523
961.5480, 1183.917
962.6640, 1068.768
963.7810, 1162.688
964.8970, 1216.656
966.0140, 1209.851
967.1300, 1316.514
968.2460, 1545.515
969.3620, 1679.354
970.4780, 2027.921
971.5930, 2271.439
972.7090, 2505.251
973.8240, 2783.154
974.9390, 2952.463
976.0540, 3125.146
977.1690, 3400.673
978.2830, 3533.710
979.3980, 3733.061
980.5120, 3764.601
981.6260, 3763.854
982.7400, 3820.060
983.8540, 3851.753
984.9680, 3763.475
986.0820, 3761.243
987.1950, 3730.274
988.3080, 3729.940
989.4210, 3707.854
990.5340, 3697.833
991.6470, 3677.951
992.7600, 3654.906
993.8720, 3618.994
994.9850, 3560.126
996.0970, 3497.310
997.2090, 3526.527
998.3210, 3517.771
999.4320, 3503.041
1000.544, 3522.337
1001.655, 3444.659
1002.767, 3449.005
1003.878, 3519.377
1004.989, 3339.772
1006.100, 3067.192
1007.210, 3120.636
1008.321, 2722.400
1009.431, 2438.593
1010.541, 2106.106
1011.651, 1920.641
1012.761, 1694.198
1013.871, 1526.777
1014.980, 1276.377
1016.090, 1249.998
1017.199, 1125.643
1018.308, 969.3086
1019.417, 977.9937
1020.526, 962.7153
1021.635, 939.4609
1022.743, 905.2261
1023.852, 958.0112
1024.960, 937.8142
1026.068, 1082.635
1027.176, 1020.474
1028.283, 1138.330
1029.391, 1219.205
1030.498, 1156.096
1031.606, 1055.005
1032.713, 1063.931
1033.820, 868.8730
1034.927, 817.8306
1036.033, 677.8025
1037.140, 459.7883
1038.246, 401.7876
1039.353, 259.7998
1040.459, 219.8259
1041.564, 200.8667
1042.670, 150.9199
1043.776, 79.98438
1044.881, 83.06006
1045.987, 16.15308
1047.092, 18.25586
1048.197, 29.62500
1049.302, 60.49683
1050.406, 3.366455
1051.511, 1.777588
1052.615, 55.07202
1053.720, 68.92871
1054.824, 4.201416
1055.928, 89.66211
1057.031, 72.43823
1058.135, 37.34399
1059.238, 50.25464
1060.342, 20.17700
1061.445, 82.05273
1062.548, 1.993164
1063.651, 24.73828
1064.754, 107.6982
1065.856, 154.3730
1066.959, 127.3916
1068.061, 118.1182
1069.163, 113.3198
1070.265, 117.5786
1071.367, 81.89893
1072.469, 55.26367
1073.570, 66.66064
1074.671, 91.09766
1075.773, 28.57690
1076.874, 64.94360
1077.975, 116.6475
1079.075, 76.27759
1080.176, 60.87085
1081.276, 45.59961
1082.377, 70.21289
1083.477, 89.03613
1084.577, 38.79712
1085.677, 11.72559
1086.777, 42.68164
1087.876, 44.68286
1088.975, 6.268799
1090.075, 22.80176
1091.174, 74.91089
1092.273, 12.08740
1093.372, 85.29956
1094.470, 73.58667
1095.569, 8.055420
1096.667, 101.3318
1097.765, 53.80664
1098.863, 42.34570
1099.961, 44.94458
1101.059, 23.60547
1102.157, 32.31885
1103.254, 13.08984
1104.351, 1.090820
1105.449, 2.228516
1106.546, 14.67139
1107.642, 10.38135
1108.739, 15.40601
1109.836, 27.39111
1110.932, 5.340820
1112.028, 4.275391
1113.124, 11.13013
1114.220, 60.93970
1115.316, 95.72412
1116.412, 135.4873
1117.507, 210.2310
1118.603, 194.9531
1119.698, 288.6541
1120.793, 303.3430
1121.888, 302.0098
1122.983, 303.6541
1124.077, 327.2754
1125.172, 258.8735
1126.266, 273.4480
1127.360, 261.9990
1128.454, 201.5251
1129.548, 246.0269
1130.642, 256.5037
1131.735, 158.9587
1132.829, 279.3882
1133.922, 295.7922
1135.015, 266.1707
1136.108, 298.5225
1137.201, 333.8496
1138.294, 314.1567
1139.386, 391.5115
1140.478, 413.7654
1141.571, 446.9922
1142.663, 428.1917
1143.755, 434.3643
1144.846, 433.5095
1145.938, 448.6270
1147.030, 440.2847
1148.121, 405.4980
1149.212, 430.7319
1150.303, 389.7373
1151.394, 388.6357
1152.485, 372.5588
1153.575, 336.6909
1154.666, 400.9578
1155.756, 449.9131
1156.846, 453.8662
1157.936, 362.8279
1159.026, 378.7261
1160.116, 354.8765
1161.205, 406.8240
1162.295, 417.9153
1163.384, 378.9219
1164.473, 359.9990
1165.562, 382.7981
1166.651, 347.4326
1167.739, 369.0022
1168.828, 356.6301
1169.916, 400.2046
1171.005, 365.8533
1172.093, 435.9600
1173.181, 431.5242
1174.268, 364.8538
1175.356, 326.3169
1176.443, 358.0391
1177.531, 374.3979
1178.618, 322.0781
1179.705, 280.8606
1180.792, 321.3140
1181.879, 321.5691
1182.965, 291.5908
1184.052, 287.3569
1185.138, 242.5227
1186.224, 270.5935
1187.310, 212.6938
1188.396, 264.4221
1189.482, 240.5808
1190.567, 252.9768
1191.653, 227.3250
1192.738, 299.9082
1193.823, 195.5852
1194.908, 245.6104
1195.993, 180.0977
1197.077, 212.4893
1198.162, 161.3804
1199.246, 237.6750
1200.331, 212.2014
1201.415, 221.1892
1202.499, 231.2488
1203.582, 243.8154
1204.666, 251.5029
1205.750, 191.4944
1206.833, 193.2258
1207.916, 221.6050
1208.999, 258.5164
1210.082, 158.8071
1211.165, 250.9111
1212.248, 139.8228
1213.330, 224.0388
1214.412, 134.9260
1215.495, 195.8203
1216.577, 215.2700
1217.658, 197.6345
1218.740, 196.7322
1219.822, 200.8884
1220.903, 245.0818
1221.985, 260.8674
1223.066, 249.4612
1224.147, 248.3269
1225.228, 241.8337
1226.308, 182.2922
1227.389, 171.7642
1228.469, 195.0945
1229.550, 214.0212
1230.630, 236.6643
1231.710, 133.6233
1232.790, 219.8267
1233.869, 243.3521
1234.949, 137.4216
1236.028, 214.6177
1237.108, 212.4741
1238.187, 157.7319
1239.266, 292.2075
1240.344, 226.1914
1241.423, 84.87378
1242.502, 236.4878
1243.580, 177.5349
1244.658, 261.7734
1245.736, 242.1907
1246.814, 129.9333
1247.892, 198.3152
1248.970, 250.7346
1250.047, 155.4119
1251.125, 220.7551
1252.202, 188.1377
1253.279, 194.4761
1254.356, 165.7661
1255.433, 239.0088
1256.509, 122.3115
1257.586, 290.5156
1258.662, 203.7004
1259.738, 160.8674
1260.814, 219.6567
1261.890, 152.7856
1262.966, 156.7520
1264.042, 157.9875
1265.117, 134.0601
1266.193, 114.2979
1267.268, 121.8853
1268.343, 70.90283
1269.418, 130.9019
1270.492, 143.8828
1271.567, 106.8459
1272.642, 108.8833
1273.716, 116.9460
1274.790, 154.8916
1275.864, 51.87573
1276.938, 22.85547
1278.012, 44.70850
1279.085, 118.6758
1280.159, 37.50659
1281.232, 10.26001
1282.305, 41.00098
1283.378, 27.72363
1284.451, 59.47827
1285.524, 52.16382
1286.597, 44.83252
1287.669, 49.74170
1288.741, 23.11841
1289.813, 33.73340
1290.885, 21.76099
1291.957, 23.76855
1293.029, 18.47314
1294.101, 34.01758
1295.172, 56.54541
1296.243, 63.78906
1297.315, 41.55566
1298.386, 46.03784
1299.456, 29.50610
1300.527, 6.958496
1301.598, 30.39062
1302.668, 70.80688
1303.738, 33.21021
1304.809, 7.401855
1305.879, 37.95972
1306.948, 8.690430
1308.018, 44.63281
1309.088, 7.052734
1310.157, 20.23657
1311.226, 74.51172
1312.296, 56.77393
1313.365, 49.02832
1314.433, 31.28052
1315.502, 20.25244
1316.571, 36.64966
1317.639, 19.89136
1318.707, 95.12671
1319.776, 152.3596
1320.844, 89.53638
1321.911, 120.7676
1322.979, 75.76831
1324.047, 117.9849
1325.114, 51.88354
1326.181, 59.07983
1327.249, 95.94409
1328.316, 29.24487
1329.382, 179.5649
1330.449, 89.90576
1331.516, 107.2598
1332.582, 155.6199
1333.648, 75.98999
1334.715, 101.3647
1335.781, 33.75220
1336.846, 162.1516
1337.912, 164.5752
1338.978, 50.92407
1340.043, 178.3633
1341.108, 79.65503
1342.174, 126.1182
1343.239, 111.4722
1344.303, 186.9600
1345.368, 111.4497
1346.433, 152.9365
1347.497, 128.4346
1348.561, 79.93164
1349.626, 53.43579
1350.690, 43.59937
1351.753, 79.48828
1352.817, 33.04053
1353.881, 86.61401
1354.944, 84.17920
1356.007, 66.77515
1357.071, 81.38965
1358.134, 79.01953
1359.196, 17.66577
1360.259, 39.32324
1361.322, 2.003906
1362.384, 102.6787
1363.447, 1.368408
1364.509, 0.9345700
1365.571, 33.23364
1366.633, 101.4658
1367.694, 86.17090
1368.756, 56.87939
1369.817, 13.56494
1370.879, 2.707520
1371.940, 6.595215
1373.001, 42.76050
1374.062, 6.510254
1375.122, 47.21338
1376.183, 23.93384
1377.244, 40.34912
1378.304, 32.35449
1379.364, 18.05493
1380.424, 23.75244
1381.484, 30.44653
1382.544, 42.33179
1383.603, 17.82642
1384.663, 101.5117
1385.722, 39.19458
1386.781, 104.5972
1387.840, 14.05176
1388.899, 97.62085
1389.958, 83.29150
1391.017, 44.95972
1392.075, 48.62646
1393.134, 1.708740
1394.192, 29.04565
1395.250, 96.60938
1396.308, 79.29614
1397.365, 48.99561
1398.423, 36.64868
1399.481, 13.30200
1400.538, 3.053711
1401.595, 26.70630
1402.652, 13.60815
1403.709, 10.11426
1404.766, 70.23315
1405.823, 2.801758
1406.879, 49.45752
1407.936, 69.19336
1408.992, 48.87695
1410.048, 62.32422
1411.104, 17.60962
1412.160, 61.17896
1413.215, 30.72266
1414.271, 61.22266
1415.326, 86.75854
1416.382, 99.01514
1417.437, 108.4873
1418.492, 118.7061
1419.546, 108.8054
1420.601, 100.0674
1421.656, 94.53760
1422.710, 111.1316
1423.764, 93.75928
1424.819, 117.3008
1425.873, 159.0833
1426.926, 156.6167
1427.980, 189.5962
1429.034, 170.0906
1430.087, 155.7476
1431.140, 139.2385
1432.194, 211.4385
1433.247, 124.5884
1434.299, 208.7341
1435.352, 188.5750
1436.405, 109.8660
1437.457, 122.1099
1438.510, 227.4780
1439.562, 135.4683
1440.614, 245.9839
1441.666, 188.3870
1442.717, 200.9119
1443.769, 192.6448
1444.821, 230.3857
1445.872, 192.1184
1446.923, 234.8799
1447.974, 216.5396
1449.025, 242.3137
1450.076, 252.0928
1451.127, 216.8052
1452.177, 213.5938
1453.227, 207.8601
1454.278, 213.4080
1455.328, 199.9897
1456.378, 224.7969
1457.428, 228.6069
1458.477, 187.4207
1459.527, 178.1919
1460.576, 232.0098
1461.625, 193.8289
1462.675, 322.5332
1463.724, 312.0601
1464.772, 264.6667
1465.821, 265.7490
1466.870, 223.5312
1467.918, 360.1777
1468.966, 178.1975
1470.015, 297.5146
1471.063, 197.1965
1472.110, 224.7695
1473.158, 259.2993
1474.206, 229.9724
1475.253, 262.5693
1476.301, 189.2708
1477.348, 243.0491
1478.395, 169.7307
1479.442, 244.1404
1480.488, 207.5090
1481.535, 212.1487
1482.582, 222.6440
1483.628, 135.0103
1484.674, 114.3247
1485.720, 140.7341
1486.766, 106.3743
1487.812, 116.7234
1488.858, 123.6543
1489.903, 100.3391
1490.949, 145.0273
1491.994, 99.72217
1493.039, 122.4143
1494.084, 146.1111
1495.129, 59.80664
1496.173, 110.4995
1497.218, 112.2041
1498.262, 70.90894
1499.307, 100.6340
1500.351, 92.37817
1501.395, 112.1475
1502.439, 89.93018
1503.483, 188.7229
1504.526, 37.51978
1505.570, 74.31372
1506.613, 33.10474
1507.656, 110.8926
1508.699, 93.67603
1509.742, 73.45435
1510.785, 59.22559
1511.827, 11.00977
1512.870, 71.74731
1513.912, 34.49731
1514.955, 129.2498
1515.997, 33.05957
1517.039, 90.87744
1518.080, 54.71460
1519.122, 122.6294
1520.164, 102.5525
1521.205, 6.494629
1522.246, 21.46021
1523.288, 78.50049
1524.329, 108.5630
1525.369, 10.65771
1526.410, 53.77295
1527.451, 4.090576
1528.491, 90.06421
1529.531, 28.23950
1530.572, 10.43701
1531.612, 93.65845
1532.652, 48.90479
1533.691, 42.17432
1534.731, 43.46924
1535.770, 127.7913
1536.810, 62.14429
1537.849, 131.5327
1538.888, 60.03467
1539.927, 56.43042
1540.966, 77.86816
1542.005, 55.34937
1543.043, 70.51660
1544.082, 9.499023
1545.120, 85.41675
1546.158, 47.27026
1547.196, 54.48682
1548.234, 137.0894
1549.272, 77.51636
1550.309, 12.93921
1551.347, 40.34741
1552.384, 82.90259
1553.421, 137.4460
1554.458, 92.57593
1555.495, 183.9336
1556.532, 133.3330
1557.568, 1.544189
1558.605, 161.7493
1559.641, 9.044922
1560.678, 65.36011
1561.714, 78.63501
1562.750, 5.510498
1563.785, 0.0000000E+00
##END=



