##NAMES=Grossular
##RRUFFID=R060443
##IDEAL CHEMISTRY=Ca_3_Al_2_(SiO_4_)_3_
##LOCALITY=unknown
##OWNER=RRUFF
##SOURCE=Gemological Institute of America
##DESCRIPTION=Yellowish tan colored single crystal
##STATUS=The identification of this mineral has been confirmed by X-ray diffraction and chemical analysis
##URL=rruff.info/R060443
##MEASURED CHEMISTRY=(Ca_2.92_Mn_0.03_Mg_0.03_Fe^2+^_0.02_)_Σ=3_(Al_1.86_Fe^3+^_0.14_)_Σ=2_(Si_1.00_O_4_)_3_; trace amounts of Ti
##PIN_ID=L01228
##ORIENTATION=Laser parallel to a* (1 0 0). Fiducial mark perpendicular to laser is parallel to c [0 0 1]
114.8180, 0.0000000E+00
116.0570, 13.98633
117.2950, 10.96655
118.5340, 32.51270
119.7720, 10.91260
121.0100, 34.61145
122.2470, 9.093506
123.4850, 23.28613
124.7220, 20.56714
125.9590, 30.77771
127.1960, 51.43567
128.4330, 28.20569
129.6700, 51.99292
130.9060, 38.62122
132.1430, 70.11108
133.3790, 45.93518
134.6150, 17.06665
135.8500, 33.48218
137.0860, 3.837891
138.3210, 25.44226
139.5560, 20.45959
140.7910, 18.84033
142.0260, 13.64453
143.2610, 38.97961
144.4950, 19.30042
145.7290, 10.52478
146.9630, 39.46265
148.1970, 36.51917
149.4310, 32.69946
150.6640, 52.39270
151.8980, 51.62915
153.1310, 72.01587
154.3640, 68.70776
155.5970, 69.51782
156.8290, 79.59082
158.0620, 74.56189
159.2940, 80.61707
160.5260, 64.81140
161.7580, 92.96863
162.9890, 75.43323
164.2210, 113.5957
165.4520, 178.4844
166.6830, 308.6648
167.9140, 393.1365
169.1450, 583.4675
170.3760, 864.1179
171.6060, 1232.893
172.8360, 1517.791
174.0660, 1808.810
175.2960, 2001.949
176.5260, 2671.206
177.7550, 3745.578
178.9840, 4898.066
180.2130, 5787.666
181.4420, 5506.380
182.6710, 4623.208
183.9000, 3554.148
185.1280, 2550.202
186.3560, 1666.369
187.5840, 1149.649
188.8120, 757.0251
190.0400, 446.4471
191.2670, 371.9142
192.4950, 266.4253
193.7220, 174.9813
194.9490, 154.5839
196.1750, 118.2317
197.4020, 139.9272
198.6280, 106.6719
199.8540, 40.46118
201.0800, 20.29932
202.3060, 49.18628
203.5320, 33.12524
204.7570, 54.15088
205.9830, 12.74658
207.2080, 85.55371
208.4330, 26.26050
209.6570, 42.87720
210.8820, 23.42871
212.1060, 5.082520
213.3310, 46.65601
214.5550, 15.70825
215.7780, 47.00928
217.0020, 15.24658
218.2260, 62.58081
219.4490, 19.47363
220.6720, 0.5681150
221.8950, 1.456787
223.1180, 15.45166
224.3400, 5.165771
225.5630, 38.93457
226.7850, 59.22949
228.0070, 88.59253
229.2290, 132.0244
230.4500, 222.5249
231.6720, 234.0947
232.8930, 270.7339
234.1140, 351.4409
235.3350, 528.1816
236.5560, 567.9734
237.7770, 626.8333
238.9970, 662.7534
240.2170, 628.7351
241.4370, 704.7876
242.6570, 702.9102
243.8770, 751.1025
245.0960, 697.3672
246.3160, 650.7048
247.5350, 682.1152
248.7540, 576.5999
249.9730, 481.1589
251.1910, 423.7930
252.4100, 381.0076
253.6280, 363.2910
254.8460, 361.1560
256.0640, 372.0991
257.2810, 402.1206
258.4990, 389.2207
259.7160, 486.3992
260.9330, 500.6562
262.1500, 521.1436
263.3670, 525.6592
264.5840, 596.1951
265.8000, 512.7444
267.0170, 575.3076
268.2330, 620.9460
269.4490, 725.4460
270.6640, 794.1641
271.8800, 825.2571
273.0950, 830.6697
274.3100, 880.5120
275.5260, 927.2637
276.7400, 954.1377
277.9550, 943.0708
279.1690, 890.0930
280.3840, 810.1892
281.5980, 869.1504
282.8120, 783.3911
284.0260, 785.8215
285.2390, 672.2009
286.4530, 742.6455
287.6660, 648.1538
288.8790, 707.5664
290.0920, 651.8530
291.3040, 559.2380
292.5170, 521.0083
293.7290, 516.4604
294.9410, 341.5469
296.1530, 281.3850
297.3650, 193.9495
298.5770, 226.7246
299.7880, 109.1841
301.0000, 201.3157
302.2110, 199.7883
303.4220, 246.4414
304.6320, 341.8101
305.8430, 395.2378
307.0530, 517.7192
308.2630, 539.2109
309.4730, 635.7378
310.6830, 758.3245
311.8930, 789.9490
313.1030, 853.6282
314.3120, 964.3657
315.5210, 950.1577
316.7300, 932.0078
317.9390, 985.9160
319.1470, 922.8813
320.3560, 854.9043
321.5640, 843.9839
322.7720, 830.0884
323.9800, 833.3108
325.1880, 882.5581
326.3950, 929.8608
327.6030, 1018.218
328.8100, 1061.630
330.0170, 999.0957
331.2240, 977.6152
332.4300, 948.1880
333.6370, 963.8140
334.8430, 1055.492
336.0490, 1036.224
337.2550, 1084.425
338.4610, 1002.843
339.6660, 1146.731
340.8720, 1209.671
342.0770, 1261.665
343.2820, 1396.709
344.4870, 1472.806
345.6920, 1683.955
346.8960, 1856.155
348.1010, 2062.407
349.3050, 2215.711
350.5090, 2460.066
351.7130, 2882.175
352.9160, 3281.806
354.1200, 3656.650
355.3230, 4496.021
356.5260, 5446.063
357.7290, 6637.723
358.9320, 8046.428
360.1350, 10076.85
361.3370, 12250.39
362.5390, 14880.94
363.7410, 18147.84
364.9430, 22140.79
366.1450, 26987.77
367.3470, 31401.82
368.5480, 34835.62
369.7490, 36997.79
370.9500, 38929.99
372.1510, 41307.27
373.3520, 43558.58
374.5520, 44937.98
375.7530, 44043.41
376.9530, 40159.92
378.1530, 34645.48
379.3520, 28495.11
380.5520, 22591.82
381.7510, 17597.59
382.9510, 13469.44
384.1500, 10420.36
385.3490, 8188.347
386.5480, 6599.409
387.7460, 5525.532
388.9440, 4476.740
390.1430, 3808.024
391.3410, 3140.379
392.5390, 2727.793
393.7360, 2357.280
394.9340, 2062.822
396.1310, 1877.425
397.3280, 1770.083
398.5250, 1545.793
399.7220, 1612.561
400.9190, 1600.382
402.1150, 1475.259
403.3120, 1582.181
404.5080, 1842.153
405.7040, 2110.166
406.8990, 2338.229
408.0950, 2763.350
409.2900, 3097.522
410.4860, 3564.743
411.6810, 4214.017
412.8760, 4873.344
414.0700, 5397.739
415.2650, 5460.189
416.4590, 5027.700
417.6540, 4252.275
418.8480, 3401.906
420.0420, 2506.616
421.2350, 1812.381
422.4290, 1235.210
423.6220, 925.1040
424.8150, 584.0581
426.0080, 419.0735
427.2010, 246.1492
428.3940, 160.2856
429.5860, 116.4795
430.7790, 127.7231
431.9710, 16.01929
433.1630, 39.63281
434.3540, 2.231445
435.5460, 91.77393
436.7370, 38.28418
437.9290, 15.74121
439.1200, 49.14941
440.3110, 34.52173
441.5010, 78.85645
442.6920, 23.16162
443.8820, 117.4265
445.0730, 16.67285
446.2630, 23.86597
447.4530, 42.98120
448.6420, 87.87598
449.8320, 139.8267
451.0210, 245.8191
452.2100, 244.8508
453.3990, 375.9207
454.5880, 471.0283
455.7770, 440.1733
456.9660, 477.3555
458.1540, 427.5737
459.3420, 452.8291
460.5300, 535.1208
461.7180, 465.4492
462.9050, 500.8135
464.0930, 460.2114
465.2800, 428.6443
466.4670, 434.1099
467.6540, 459.6079
468.8410, 449.1382
470.0280, 405.7000
471.2140, 395.2932
472.4000, 437.9172
473.5870, 381.5720
474.7720, 421.2571
475.9580, 416.9719
477.1440, 421.7166
478.3290, 362.4902
479.5140, 344.2927
480.6990, 325.1238
481.8840, 208.9829
483.0690, 236.8696
484.2540, 330.7842
485.4380, 269.7256
486.6220, 328.6936
487.8060, 379.6880
488.9900, 448.7083
490.1740, 488.7544
491.3570, 583.8254
492.5410, 649.9219
493.7240, 791.0422
494.9070, 814.1885
496.0900, 951.3711
497.2720, 1001.580
498.4550, 989.8176
499.6370, 1011.081
500.8190, 959.3652
502.0010, 948.6726
503.1830, 884.0029
504.3650, 845.3604
505.5460, 830.7405
506.7280, 776.1409
507.9090, 762.5615
509.0900, 727.0022
510.2710, 596.2720
511.4510, 607.7825
512.6320, 511.2815
513.8120, 419.1409
514.9920, 440.8562
516.1720, 439.3059
517.3520, 428.8108
518.5310, 475.9351
519.7110, 565.5388
520.8900, 695.9021
522.0690, 789.3328
523.2480, 868.3066
524.4270, 978.2358
525.6050, 958.0388
526.7840, 1036.727
527.9620, 892.2344
529.1400, 839.8721
530.3180, 775.9810
531.4960, 760.7314
532.6730, 716.6841
533.8510, 1042.711
535.0280, 1231.030
536.2050, 1592.799
537.3820, 2133.668
538.5590, 2887.002
539.7350, 3816.808
540.9120, 5126.284
542.0880, 6265.796
543.2640, 7549.603
544.4400, 9375.478
545.6150, 10985.12
546.7910, 12229.28
547.9660, 12319.49
549.1410, 10851.34
550.3170, 8964.669
551.4910, 6867.825
552.6660, 5175.743
553.8410, 3696.592
555.0150, 2547.305
556.1890, 1860.447
557.3630, 1398.403
558.5370, 1136.928
559.7110, 862.8274
560.8840, 709.8181
562.0570, 605.8623
563.2310, 607.3633
564.4040, 565.6333
565.5760, 533.6665
566.7490, 568.8459
567.9220, 588.1111
569.0940, 501.6484
570.2660, 560.3389
571.4380, 563.4727
572.6100, 617.0947
573.7820, 612.6670
574.9530, 624.6519
576.1240, 630.5901
577.2960, 607.7317
578.4670, 607.7949
579.6370, 638.4473
580.8080, 609.0432
581.9790, 649.7817
583.1490, 677.8315
584.3190, 707.0129
585.4890, 718.8237
586.6590, 767.9487
587.8280, 890.2896
588.9980, 962.7881
590.1670, 977.3115
591.3360, 1072.753
592.5050, 886.6702
593.6740, 778.3892
594.8430, 640.0684
596.0110, 602.7322
597.1790, 472.3647
598.3480, 464.9473
599.5160, 448.6396
600.6830, 480.2825
601.8510, 572.0293
603.0180, 600.7231
604.1860, 669.0210
605.3530, 796.5056
606.5200, 805.7334
607.6870, 877.8972
608.8530, 935.0391
610.0200, 984.1589
611.1860, 1034.826
612.3520, 992.3301
613.5180, 1098.381
614.6840, 1086.409
615.8500, 1070.413
617.0150, 1141.393
618.1800, 1244.348
619.3450, 1278.280
620.5100, 1275.186
621.6750, 1372.068
622.8400, 1361.925
624.0040, 1428.756
625.1690, 1476.561
626.3330, 1471.008
627.4970, 1529.094
628.6610, 1452.821
629.8240, 1402.522
630.9880, 1333.196
632.1510, 1208.842
633.3140, 1065.461
634.4770, 895.0535
635.6400, 819.6177
636.8020, 691.1536
637.9650, 586.6616
639.1270, 460.1411
640.2890, 403.5918
641.4510, 314.0139
642.6130, 276.4067
643.7750, 249.7703
644.9360, 138.1042
646.0980, 146.4086
647.2590, 151.6833
648.4200, 114.9279
649.5810, 17.14258
650.7410, 3.682495
651.9020, 67.44189
653.0620, 39.46460
654.2220, 37.55908
655.3820, 15.45166
656.5420, 31.52075
657.7020, 7.342896
658.8610, 0.1595460
660.0200, 59.07532
661.1800, 91.39307
662.3390, 19.81079
663.4970, 82.29126
664.6560, 53.86768
665.8150, 71.52527
666.9730, 58.27344
668.1310, 28.10559
669.2890, 99.00623
670.4470, 93.01233
671.6050, 64.12146
672.7620, 17.31775
673.9200, 69.57715
675.0770, 12.92725
676.2340, 30.33813
677.3910, 5.818848
678.5470, 2.643188
679.7040, 23.94739
680.8600, 8.604614
682.0160, 13.32056
683.1720, 21.90247
684.3280, 5.081787
685.4840, 49.20935
686.6390, 46.30420
687.7950, 1.353149
688.9500, 41.35303
690.1050, 50.31433
691.2600, 20.23853
692.4150, 22.11841
693.5690, 45.04529
694.7240, 13.71399
695.8780, 17.57275
697.0320, 26.92200
698.1860, 1.338257
699.3400, 82.80762
700.4930, 4.372803
701.6470, 27.99268
702.8000, 40.67896
703.9530, 21.43823
705.1060, 24.26025
706.2590, 26.14636
707.4110, 15.09668
708.5640, 18.10571
709.7160, 6.825684
710.8680, 2.288940
712.0200, 22.54529
713.1720, 35.66040
714.3230, 2.930664
715.4750, 5.250488
716.6260, 38.61169
717.7770, 10.03784
718.9280, 19.48462
720.0790, 26.97168
721.2300, 7.423706
722.3800, 14.84119
723.5300, 5.220459
724.6810, 38.42993
725.8300, 4.855591
726.9800, 10.59302
728.1300, 43.70398
729.2790, 9.424194
730.4290, 35.51270
731.5780, 51.56653
732.7270, 53.58777
733.8760, 52.57690
735.0240, 53.44446
736.1730, 56.45813
737.3210, 40.35120
738.4700, 43.21155
739.6180, 31.03955
740.7650, 32.81531
741.9130, 97.59607
743.0610, 49.32861
744.2080, 103.0303
745.3550, 140.7031
746.5020, 139.3479
747.6490, 131.9648
748.7960, 199.5542
749.9430, 174.1160
751.0890, 187.6501
752.2350, 245.1572
753.3810, 193.6372
754.5270, 293.0903
755.6730, 204.5164
756.8190, 298.9158
757.9640, 267.2891
759.1090, 257.6360
760.2540, 316.9565
761.3990, 356.2512
762.5440, 388.5198
763.6890, 404.7634
764.8330, 458.9812
765.9780, 522.1736
767.1220, 517.3408
768.2660, 697.4834
769.4100, 716.6011
770.5530, 889.6941
771.6970, 925.7629
772.8400, 980.8071
773.9830, 1039.828
775.1260, 1044.825
776.2690, 1091.798
777.4120, 963.7483
778.5540, 963.6748
779.6970, 909.5784
780.8390, 759.4590
781.9810, 806.3196
783.1230, 840.1685
784.2650, 734.0059
785.4060, 646.8213
786.5480, 677.6213
787.6890, 621.5945
788.8300, 664.3271
789.9710, 671.0757
791.1120, 576.4617
792.2520, 638.9980
793.3930, 685.7979
794.5330, 762.5393
795.6730, 733.6589
796.8130, 787.2954
797.9530, 916.1765
799.0930, 843.9866
800.2320, 1058.250
801.3710, 1091.578
802.5110, 1196.655
803.6500, 1400.593
804.7880, 1636.335
805.9270, 1725.958
807.0660, 1997.105
808.2040, 2250.606
809.3420, 2438.938
810.4800, 2800.189
811.6180, 3076.171
812.7560, 3410.698
813.8930, 3730.037
815.0310, 4093.094
816.1680, 4397.585
817.3050, 4687.419
818.4420, 5080.212
819.5790, 5403.707
820.7150, 5746.130
821.8520, 5987.778
822.9880, 6316.919
824.1240, 6506.996
825.2600, 6601.421
826.3960, 6593.379
827.5320, 6612.499
828.6670, 6424.867
829.8020, 6277.297
830.9380, 6076.876
832.0730, 5928.270
833.2080, 5775.300
834.3420, 5639.160
835.4770, 5465.582
836.6110, 5362.918
837.7450, 5172.201
838.8790, 5145.020
840.0130, 5052.070
841.1470, 5060.357
842.2810, 5091.514
843.4140, 5075.588
844.5470, 5160.394
845.6800, 5305.056
846.8130, 5273.272
847.9460, 5390.994
849.0790, 5407.768
850.2110, 5460.468
851.3440, 5709.265
852.4760, 5787.956
853.6080, 5941.587
854.7400, 6166.049
855.8710, 6330.865
857.0030, 6630.864
858.1340, 6887.390
859.2650, 7046.150
860.3960, 7644.658
861.5270, 8147.559
862.6580, 8814.110
863.7890, 9600.837
864.9190, 10615.53
866.0490, 11906.28
867.1790, 13509.55
868.3090, 15614.01
869.4390, 18177.49
870.5690, 21279.98
871.6980, 24842.48
872.8270, 28840.01
873.9570, 33495.43
875.0860, 38528.88
876.2140, 42947.21
877.3430, 47053.58
878.4720, 49479.34
879.6000, 50894.89
880.7280, 49942.69
881.8560, 47233.52
882.9840, 43238.36
884.1120, 38591.23
885.2390, 33372.09
886.3670, 28519.96
887.4940, 24215.84
888.6210, 20377.73
889.7480, 17089.63
890.8750, 14457.53
892.0020, 12369.44
893.1280, 10595.36
894.2540, 9133.284
895.3810, 7922.219
896.5070, 7092.166
897.6320, 6308.118
898.7580, 5739.081
899.8840, 5149.052
901.0090, 4764.034
902.1340, 4590.024
903.2590, 4318.024
904.3840, 4091.034
905.5090, 3860.052
906.6340, 3661.081
907.7580, 3490.120
908.8820, 3308.169
910.0060, 3130.311
911.1300, 2996.381
912.2540, 2820.204
913.3780, 2701.550
914.5010, 2532.649
915.6250, 2416.760
916.7480, 2339.335
917.8710, 2066.709
918.9940, 2023.075
920.1160, 1828.273
921.2390, 1843.797
922.3610, 1734.459
923.4840, 1631.563
924.6060, 1597.757
925.7280, 1545.140
926.8490, 1490.213
927.9710, 1453.828
929.0930, 1354.544
930.2140, 1361.507
931.3350, 1178.854
932.4560, 1102.743
933.5770, 1062.156
934.6980, 996.6201
935.8180, 1022.651
936.9380, 1000.385
938.0590, 1065.189
939.1790, 1134.624
940.2990, 1163.335
941.4180, 1155.218
942.5380, 1184.124
943.6570, 1224.480
944.7770, 1282.492
945.8960, 1235.030
947.0150, 1200.229
948.1340, 1251.866
949.2520, 1156.130
950.3710, 1174.556
951.4890, 1061.147
952.6070, 933.1636
953.7260, 905.6709
954.8430, 770.9480
955.9610, 691.8411
957.0790, 603.9214
958.1960, 519.2554
959.3130, 437.6162
960.4310, 387.7629
961.5480, 348.1062
962.6640, 257.9512
963.7810, 313.1372
964.8970, 260.0642
966.0140, 417.1973
967.1300, 348.2129
968.2460, 452.0159
969.3620, 487.5232
970.4780, 560.8677
971.5930, 634.6206
972.7090, 734.3450
973.8240, 901.7827
974.9390, 840.2566
976.0540, 1051.467
977.1690, 1117.014
978.2830, 1180.223
979.3980, 1303.975
980.5120, 1436.443
981.6260, 1367.568
982.7400, 1455.174
983.8540, 1530.073
984.9680, 1647.380
986.0820, 1615.356
987.1950, 1595.076
988.3080, 1685.122
989.4210, 1666.984
990.5340, 1654.792
991.6470, 1801.457
992.7600, 1903.299
993.8720, 1853.296
994.9850, 1772.002
996.0970, 1788.767
997.2090, 1874.496
998.3210, 1943.310
999.4320, 2018.995
1000.544, 2006.688
1001.655, 2178.472
1002.767, 2156.172
1003.878, 2208.875
1004.989, 2400.581
1006.100, 2377.291
1007.210, 2433.002
1008.321, 2272.718
1009.431, 2115.435
1010.541, 1921.156
1011.651, 1702.879
1012.761, 1398.604
1013.871, 1178.331
1014.980, 1009.058
1016.090, 857.7849
1017.199, 715.9873
1018.308, 612.1780
1019.417, 514.9678
1020.526, 431.6960
1021.635, 394.4246
1022.743, 300.1538
1023.852, 282.8872
1024.960, 237.6206
1026.068, 265.3650
1027.176, 223.1106
1028.283, 233.8562
1029.391, 199.6074
1030.498, 229.3586
1031.606, 212.1162
1032.713, 268.8730
1033.820, 164.6311
1034.927, 197.3879
1036.033, 146.3079
1037.140, 99.09668
1038.246, 83.65649
1039.353, 31.41089
1040.459, 68.16357
1041.564, 78.91260
1042.670, 1.660889
1043.776, 31.40576
1044.881, 52.14795
1045.987, 56.88721
1047.092, 67.62378
1048.197, 33.35864
1049.302, 14.90845
1050.406, 55.18408
1051.511, 53.89600
1052.615, 26.19043
1053.720, 36.13818
1054.824, 21.48071
1055.928, 1.163574
1057.031, 35.19702
1058.135, 8.530762
1059.238, 40.84033
1060.342, 20.21631
1061.445, 33.14844
1062.548, 7.128418
1063.651, 56.04980
1064.754, 31.36108
1065.856, 58.71313
1066.959, 9.495361
1068.061, 89.54663
1069.163, 16.22095
1070.265, 9.680420
1071.367, 13.36182
1072.469, 49.75781
1073.570, 22.87842
1074.671, 30.35864
1075.773, 135.0542
1076.874, 29.23022
1077.975, 87.46167
1079.075, 3.810547
1080.176, 22.59155
1081.276, 15.39893
1082.377, 0.7431640
1083.477, 66.12256
1084.577, 85.10889
1085.677, 2.168945
1086.777, 37.31519
1087.876, 2.658447
1088.975, 4.572510
1090.075, 39.40845
1091.174, 37.37329
1092.273, 18.58276
1093.372, 52.33252
1094.470, 43.76855
1095.569, 99.08228
1096.667, 59.08179
1097.765, 29.30249
1098.863, 10.55347
1099.961, 69.83643
1101.059, 32.18359
1102.157, 44.57666
1103.254, 2.021484
1104.351, 25.50317
1105.449, 10.99268
1106.546, 10.51514
1107.642, 69.07471
1108.739, 25.70264
1109.836, 19.37549
1110.932, 43.07178
1112.028, 5.823975
1113.124, 20.38867
1114.220, 22.42358
1115.316, 41.71973
1116.412, 0.1589360
1117.507, 10.06519
1118.603, 99.98730
1119.698, 35.02563
1120.793, 77.04663
1121.888, 93.04639
1122.983, 130.0264
1124.077, 90.98975
1125.172, 56.93213
1126.266, 129.8535
1127.360, 121.7529
1128.454, 133.6313
1129.548, 117.4890
1130.642, 161.3247
1131.735, 155.1399
1132.829, 135.9341
1133.922, 212.7109
1135.015, 210.4673
1136.108, 179.2021
1137.201, 183.9150
1138.294, 202.6077
1139.386, 280.3013
1140.478, 194.9490
1141.571, 257.5737
1142.663, 280.1755
1143.755, 257.7539
1144.846, 283.3093
1145.938, 258.8406
1147.030, 313.3613
1148.121, 351.8755
1149.212, 330.4836
1150.303, 306.9868
1151.394, 353.6067
1152.485, 313.1716
1153.575, 365.9116
1154.666, 380.3879
1155.756, 331.9468
1156.846, 366.9705
1157.936, 347.9902
1159.026, 334.5137
1160.116, 344.8337
1161.205, 343.0754
1162.295, 338.1511
1163.384, 338.6780
1164.473, 328.5195
1165.562, 330.9727
1166.651, 302.4917
1167.739, 317.3635
1168.828, 281.8418
1169.916, 236.3691
1171.005, 236.6309
1172.093, 268.6821
1173.181, 276.2246
1174.268, 313.3604
1175.356, 307.6160
1176.443, 290.7317
1177.531, 305.9492
1178.618, 222.4609
1179.705, 303.8245
1180.792, 242.5222
1181.879, 230.5430
1182.965, 245.3804
1184.052, 266.5916
1185.138, 224.0898
1186.224, 248.1646
1187.310, 206.3127
1188.396, 177.5129
1189.482, 199.8384
1190.567, 92.52051
1191.653, 120.9492
1192.738, 108.6841
1193.823, 178.2493
1194.908, 142.9875
1195.993, 85.09375
1197.077, 146.7332
1198.162, 103.1895
1199.246, 131.4426
1200.331, 216.6841
1201.415, 86.00244
1202.499, 162.2769
1203.582, 143.8481
1204.666, 178.7856
1205.750, 150.7500
1206.833, 243.3271
1207.916, 187.1318
1208.999, 176.6816
1210.082, 95.65625
1211.165, 185.0508
1212.248, 234.9758
1213.330, 188.7163
1214.412, 149.2651
1215.495, 230.3699
1216.577, 163.0344
1217.658, 208.6541
1218.740, 168.9929
1219.822, 205.9534
1220.903, 210.4546
1221.985, 166.0967
1223.066, 276.8438
1224.147, 222.2898
1225.228, 219.3091
1226.308, 282.9363
1227.389, 256.9849
1228.469, 268.4241
1229.550, 291.4036
1230.630, 241.4575
1231.710, 234.6001
1232.790, 243.1814
1233.869, 180.3040
1234.949, 284.3210
1236.028, 224.8281
1237.108, 173.1528
1238.187, 219.6580
1239.266, 319.0361
1240.344, 251.2290
1241.423, 231.2725
1242.502, 289.9111
1243.580, 221.5708
1244.658, 315.1550
1245.736, 186.0735
1246.814, 240.3223
1247.892, 225.0347
1248.970, 275.5408
1250.047, 208.7031
1251.125, 306.6353
1252.202, 289.9065
1253.279, 327.8430
1254.356, 257.8203
1255.433, 303.9941
1256.509, 290.7644
1257.586, 270.7573
1258.662, 292.6848
1259.738, 305.5881
1260.814, 243.6016
1261.890, 246.5325
1262.966, 227.0129
1264.042, 260.4878
1265.117, 192.2822
1266.193, 254.0962
1267.268, 238.1265
1268.343, 155.8384
1269.418, 168.4612
1270.492, 221.0076
1271.567, 175.4402
1272.642, 174.9438
1273.716, 165.3086
1274.790, 171.7483
1275.864, 158.1343
1276.938, 154.2278
1278.012, 126.7739
1279.085, 146.4131
1280.159, 113.0657
1281.232, 120.4949
1282.305, 72.89014
1283.378, 6.317139
1284.451, 104.6331
1285.524, 20.08521
1286.597, 19.57275
1287.669, 95.62646
1288.741, 4.441650
1289.813, 61.44971
1290.885, 7.500244
1291.957, 69.45288
1293.029, 20.24976
1294.101, 74.01514
1295.172, 51.75439
1296.243, 13.51221
1297.315, 48.19019
1298.386, 38.04980
1299.456, 86.66943
1300.527, 130.3123
1301.598, 25.87866
1302.668, 76.41479
1303.738, 60.99390
1304.809, 87.47437
1305.879, 62.03467
1306.948, 14.78442
1308.018, 26.17676
1309.088, 51.53833
1310.157, 30.99463
1311.226, 59.31299
1312.296, 24.62695
1313.365, 0.1062010
1314.433, 91.13550
1315.502, 11.35693
1316.571, 126.5515
1317.639, 162.6221
1318.707, 2.761475
1319.776, 121.4355
1320.844, 51.20215
1321.911, 55.89136
1322.979, 53.84644
1324.047, 72.62964
1325.114, 60.12964
1326.181, 44.89038
1327.249, 56.44336
1328.316, 83.13110
1329.382, 49.09375
1330.449, 157.5244
1331.516, 27.27393
1332.582, 123.9448
1333.648, 115.7388
1334.715, 104.3926
1335.781, 134.2642
1336.846, 68.07861
1337.912, 49.86963
1338.978, 82.28760
1340.043, 44.06982
1341.108, 47.83496
1342.174, 51.56836
1343.239, 55.14648
1344.303, 41.19678
1345.368, 105.4185
1346.433, 30.06055
1347.497, 64.59424
1348.561, 109.1851
1349.626, 64.75439
1350.690, 88.20459
1351.753, 108.7344
1352.817, 86.23242
1353.881, 94.72314
1354.944, 52.18799
1356.007, 32.34912
1357.071, 44.09277
1358.134, 75.52002
1359.196, 123.9473
1360.259, 55.36084
1361.322, 69.76562
1362.384, 99.15234
1363.447, 23.48340
1364.509, 83.85449
1365.571, 102.1807
1366.633, 50.50977
1367.694, 63.16943
1368.756, 78.12354
1369.817, 18.64160
1370.879, 79.03516
1371.940, 10.34473
1373.001, 63.59375
1374.062, 18.17969
1375.122, 90.02637
1376.183, 13.36670
1377.244, 13.19775
1378.304, 58.13135
1379.364, 12.37061
1380.424, 4.422363
1381.484, 38.65674
1382.544, 2.715820
1383.603, 111.7524
1384.663, 42.78076
1385.722, 62.77686
1386.781, 44.98584
1387.840, 47.93994
1388.899, 61.16357
1389.958, 7.809570
1391.017, 24.32520
1392.075, 75.19092
1393.134, 64.07227
1394.192, 20.89941
1395.250, 75.70703
1396.308, 90.47119
1397.365, 102.4033
1398.423, 123.4224
1399.481, 100.0806
1400.538, 126.7983
1401.595, 102.4995
1402.652, 78.41211
1403.709, 55.13770
1404.766, 5.815430
1405.823, 32.26660
1406.879, 27.39355
1407.936, 66.32275
1408.992, 67.68604
1410.048, 52.82764
1411.104, 70.18945
1412.160, 71.43945
1413.215, 4.170410
1414.271, 103.8774
1415.326, 142.0117
1416.382, 124.7061
1417.437, 79.65869
1418.492, 91.20459
1419.546, 141.2568
1420.601, 139.8691
1421.656, 167.1597
1422.710, 110.9673
1423.764, 170.4360
1424.819, 71.18994
1425.873, 152.9404
1426.926, 108.8203
1427.980, 193.9556
1429.034, 160.4644
1430.087, 103.2666
1431.140, 173.8779
1432.194, 93.56934
1433.247, 41.11719
1434.299, 133.2500
1435.352, 177.4756
1436.405, 89.11670
1437.457, 187.7490
1438.510, 113.9902
1439.562, 143.4419
1440.614, 136.0234
1441.666, 200.1836
1442.717, 211.9067
1443.769, 212.6274
1444.821, 246.7920
1445.872, 218.0342
1446.923, 185.1167
1447.974, 163.3120
1449.025, 167.6294
1450.076, 240.2710
1451.127, 192.8921
1452.177, 187.9336
1453.227, 256.9888
1454.278, 234.8882
1455.328, 219.7437
1456.378, 248.7192
1457.428, 198.8950
1458.477, 244.9458
1459.527, 240.1826
1460.576, 301.1582
1461.625, 257.7012
1462.675, 298.8604
1463.724, 228.6123
1464.772, 208.9556
1465.821, 261.9443
1466.870, 164.7256
1467.918, 139.0225
1468.966, 113.1172
1470.015, 154.2480
1471.063, 172.8447
1472.110, 167.1968
1473.158, 245.8091
1474.206, 187.1948
1475.253, 112.4927
1476.301, 152.4771
1477.348, 115.4229
1478.395, 106.5820
1479.442, 102.5996
1480.488, 200.2197
1481.535, 156.4883
1482.582, 231.9165
1483.628, 109.3545
1484.674, 190.1357
1485.720, 111.9697
1486.766, 104.3345
1487.812, 167.8877
1488.858, 133.5674
1489.903, 98.78711
1490.949, 153.2544
1491.994, 172.1772
1493.039, 101.6226
1494.084, 95.96484
1495.129, 30.00391
1496.173, 29.68994
1497.218, 71.68848
1498.262, 91.92334
1499.307, 150.4482
1500.351, 82.78857
1501.395, 0.8833010
1502.439, 122.1855
1503.483, 37.51123
1504.526, 53.80713
1505.570, 56.06592
1506.613, 151.2896
1507.656, 145.4688
1508.699, 158.5962
1509.742, 76.68604
1510.785, 101.7417
1511.827, 22.75342
1512.870, 111.7168
1513.912, 12.70605
1514.955, 49.68213
1515.997, 17.70850
1517.039, 152.7832
1518.080, 67.91797
1519.122, 102.1304
1520.164, 147.3784
1521.205, 88.63281
1522.246, 36.94434
1523.288, 30.27344
1524.329, 149.5962
1525.369, 106.9492
1526.410, 171.3564
1527.451, 20.80957
1528.491, 58.28369
1529.531, 61.76465
1530.572, 142.6338
1531.612, 26.66797
1532.652, 66.90479
1533.691, 92.47314
1534.731, 128.3818
1535.770, 72.03711
1536.810, 65.11572
1537.849, 72.13672
1538.888, 63.34180
1539.927, 113.0312
1540.966, 59.64160
1542.005, 101.2812
1543.043, 44.05566
1544.082, 12.38525
1545.120, 61.13037
1546.158, 1.976563
1547.196, 96.22021
1548.234, 52.35400
1549.272, 82.64014
1550.309, 47.02295
1551.347, 102.1758
1552.384, 48.26904
1553.421, 84.24170
1554.458, 42.37598
1555.495, 136.4863
1556.532, 176.2065
1557.568, 108.3716
1558.605, 60.63232
1559.641, 60.71289
1560.678, 7.458984
1561.714, 0.3085940
1562.750, 55.54883
1563.785, 0.0000000E+00
##END=



