##NAMES=Grossular
##RRUFFID=R040066
##IDEAL CHEMISTRY=Ca_3_Al_2_(SiO_4_)_3_
##LOCALITY=Redding, Connecticut, USA
##OWNER=RRUFF
##SOURCE=University of Arizona Mineral Museum
##DESCRIPTION=Reddish orange coarsely crystalline
##STATUS=The identification of this mineral has been confirmed by X-ray diffraction and chemical analysis
##URL=rruff.info/R040066
##MEASURED CHEMISTRY=(Ca_2.90_Fe^2+^_0.08_Mn_0.02_)_Σ=3_(Al_1.87_Fe^3+^_0.13_)_Σ=2_(Si_1.00_O_4_)_3_
##PIN_ID=M00416
##ORIENTATION=Laser parallel to a* (1 0 0). Fiducial mark perpendicular to laser is parallel to b [0 1 0]
123.649, 0.000
125.042, 50.749
126.434, 59.591
127.826, 98.132
129.218, 83.339
130.609, 11.501
132.001, 21.590
133.392, 28.693
134.782, 104.653
136.173, 149.995
137.564, 148.051
138.954, 202.104
140.344, 90.809
141.733, 87.347
143.123, 78.245
144.512, 55.385
145.901, 55.766
147.290, 75.281
148.679, 68.059
150.067, 88.820
151.455, 108.817
152.843, 80.656
154.231, 138.458
155.618, 49.305
157.005, 9.391
158.392, 15.116
159.779, 45.127
161.166, 6.283
162.552, 5.303
163.938, 52.042
165.324, 41.553
166.710, 136.589
168.095, 178.063
169.480, 209.320
170.865, 358.868
172.250, 627.711
173.635, 1088.997
175.019, 1777.260
176.403, 3127.933
177.787, 4159.191
179.171, 3700.644
180.554, 2717.111
181.937, 1624.590
183.320, 949.078
184.703, 652.571
186.086, 393.068
187.468, 359.564
188.850, 212.062
190.232, 205.561
191.614, 151.063
192.995, 109.570
194.376, 63.083
195.757, 49.602
197.138, 27.303
198.518, 2.688
199.899, 15.338
201.279, 34.068
202.659, 41.865
204.038, 0.281
205.418, 29.622
206.797, 6.566
208.176, 80.458
209.554, 49.462
210.933, 127.450
212.311, 18.580
213.689, 56.623
215.067, 5.333
216.445, 32.691
217.822, 36.309
219.199, 27.314
220.576, 60.317
221.953, 50.315
223.330, 70.313
224.706, 63.311
226.082, 5.689
227.458, 35.312
228.833, 63.688
230.209, 47.688
231.584, 138.688
232.959, 218.689
234.334, 274.683
235.708, 344.662
237.082, 367.625
238.456, 422.577
239.830, 437.353
241.204, 432.407
242.577, 440.243
243.951, 434.075
245.323, 398.159
246.696, 347.684
248.069, 289.434
249.441, 253.277
250.813, 210.450
252.185, 187.584
253.557, 147.320
254.928, 154.070
256.299, 141.836
257.670, 157.617
259.041, 197.415
260.411, 382.229
261.782, 285.152
263.152, 306.906
264.522, 190.769
265.891, 189.650
267.261, 170.547
268.630, 291.462
269.999, 335.394
271.368, 419.343
272.736, 469.745
274.104, 587.042
275.473, 610.229
276.840, 630.297
278.208, 646.262
279.576, 555.063
280.943, 489.795
282.310, 466.423
283.677, 518.991
285.043, 554.468
286.409, 515.876
287.776, 512.219
289.141, 424.450
290.507, 402.539
291.873, 377.457
293.238, 281.204
294.603, 244.905
295.968, 158.651
297.332, 161.315
298.697, 128.026
300.061, 173.783
301.425, 225.374
302.788, 251.078
304.152, 329.461
305.515, 316.989
306.878, 420.966
308.241, 486.601
309.603, 498.348
310.966, 714.810
312.328, 649.983
313.690, 754.029
315.052, 717.416
316.413, 607.731
317.774, 605.026
319.136, 544.292
320.496, 584.508
321.857, 625.666
323.217, 648.791
324.578, 671.899
325.938, 715.012
327.297, 727.177
328.657, 736.267
330.016, 766.407
331.375, 718.557
332.734, 738.715
334.093, 759.883
335.451, 706.059
336.810, 796.244
338.168, 786.438
339.525, 953.641
340.883, 926.692
342.240, 1002.542
343.597, 1129.309
344.954, 1205.890
346.311, 1326.125
347.668, 1486.594
349.024, 1574.298
350.380, 1825.092
351.736, 2011.355
353.091, 2365.072
354.447, 2629.515
355.802, 3237.978
357.157, 3795.181
358.512, 4839.592
359.866, 6183.291
361.221, 7823.302
362.575, 10740.615
363.928, 13738.499
365.282, 18165.137
366.636, 20582.014
367.989, 21898.148
369.342, 24374.537
370.695, 26270.490
372.047, 30736.639
373.400, 31484.408
374.752, 28331.268
376.104, 23809.510
377.455, 17447.703
378.807, 13186.202
380.158, 9594.718
381.509, 7373.249
382.860, 5757.795
384.211, 4459.356
385.561, 3840.926
386.911, 2942.514
388.261, 2581.120
389.611, 2139.744
390.961, 1805.388
392.310, 1628.047
393.659, 1377.724
395.008, 1335.417
396.357, 1180.124
397.705, 1114.844
399.053, 1107.578
400.401, 1093.327
401.749, 1081.090
403.097, 1024.871
404.444, 1269.665
405.791, 1305.475
407.138, 1584.295
408.485, 2085.131
409.832, 2688.982
411.178, 3800.850
412.524, 4289.732
413.870, 4262.626
415.216, 3476.532
416.561, 2377.446
417.906, 1712.374
419.251, 1148.301
420.596, 896.233
421.941, 743.164
423.285, 489.096
424.629, 476.030
425.973, 352.966
427.317, 337.904
428.661, 322.842
430.004, 239.779
431.347, 214.716
432.690, 223.653
434.032, 210.593
435.375, 245.535
436.717, 167.482
438.059, 205.434
439.401, 228.390
440.743, 185.353
442.084, 232.321
443.425, 203.296
444.766, 226.274
446.107, 217.253
447.447, 370.235
448.788, 388.219
450.128, 460.207
451.468, 495.203
452.807, 515.204
454.147, 535.217
455.486, 545.235
456.825, 574.262
458.164, 557.293
459.502, 513.329
460.841, 572.367
462.179, 547.409
463.517, 523.453
464.855, 449.501
466.192, 490.552
467.530, 525.606
468.867, 457.664
470.204, 465.725
471.540, 489.789
472.877, 521.857
474.213, 547.928
475.549, 466.002
476.885, 468.079
478.221, 441.159
479.556, 368.241
480.891, 399.326
482.226, 323.414
483.561, 388.503
484.895, 368.595
486.230, 402.690
487.564, 405.788
488.898, 511.891
490.232, 536.998
491.565, 664.111
492.898, 725.230
494.231, 775.353
495.564, 829.479
496.897, 784.611
498.229, 844.747
499.562, 789.887
500.894, 726.042
502.225, 800.222
503.557, 713.588
504.888, 753.776
506.220, 765.193
507.550, 647.638
508.881, 594.611
510.212, 481.104
511.542, 434.278
512.872, 467.136
514.202, 400.353
515.532, 494.907
516.861, 461.426
518.191, 500.206
519.520, 523.437
520.848, 630.275
522.177, 801.256
523.505, 826.077
524.834, 836.924
526.162, 690.542
527.489, 566.349
528.817, 562.895
530.144, 522.245
531.472, 566.786
532.798, 619.960
534.125, 782.581
535.452, 1040.464
536.778, 1237.608
538.104, 1772.434
539.430, 2357.824
540.756, 3465.850
542.081, 5058.441
543.406, 6845.761
544.731, 8986.090
546.056, 9177.427
547.381, 7867.539
548.705, 5860.615
550.030, 3879.167
551.354, 2697.052
552.677, 1791.623
554.001, 1254.878
555.324, 970.377
556.647, 691.655
557.970, 620.456
559.293, 556.972
560.616, 445.448
561.938, 451.402
563.260, 372.346
564.582, 398.907
565.904, 362.041
567.225, 393.909
568.546, 407.746
569.868, 383.713
571.188, 476.856
572.509, 441.141
573.829, 453.289
575.150, 467.425
576.470, 449.982
577.790, 464.842
579.109, 417.286
580.429, 473.754
581.748, 425.952
583.067, 428.106
584.385, 442.465
585.704, 581.284
587.022, 606.219
588.340, 651.081
589.658, 693.005
590.976, 597.874
592.294, 458.913
593.611, 397.804
594.928, 334.673
596.245, 286.453
597.562, 352.292
598.878, 314.132
600.194, 379.112
601.510, 370.840
602.826, 444.553
604.142, 537.254
605.457, 514.001
606.773, 588.674
608.088, 614.333
609.402, 582.013
610.717, 580.644
612.031, 637.262
613.346, 693.865
614.660, 640.454
615.973, 801.029
617.287, 703.595
618.600, 703.141
619.913, 817.671
621.226, 788.188
622.539, 909.690
623.852, 911.177
625.164, 980.648
626.476, 982.105
627.788, 827.547
629.100, 872.973
630.411, 752.384
631.722, 636.780
633.033, 555.161
634.344, 447.723
635.655, 356.875
636.965, 278.208
638.276, 213.526
639.586, 162.828
640.896, 118.508
642.205, 93.681
643.515, 83.637
644.824, 47.874
646.133, 92.092
647.442, 38.294
648.750, 33.478
650.059, 9.359
651.367, 31.220
652.675, 17.111
653.983, 3.028
655.290, 60.970
656.598, 74.948
657.905, 72.966
659.212, 41.023
660.518, 17.113
661.825, 43.231
663.131, 6.381
664.437, 85.557
665.743, 43.775
667.049, 34.027
668.354, 42.310
669.660, 22.374
670.965, 65.962
672.270, 74.337
673.574, 58.752
674.879, 78.204
676.183, 46.697
677.487, 58.224
678.791, 44.788
680.095, 26.385
681.398, 11.012
682.701, 35.666
684.005, 24.351
685.307, 25.065
686.610, 68.809
687.912, 16.591
689.215, 58.401
690.517, 7.753
691.818, 51.115
693.120, 38.018
694.421, 67.953
695.723, 35.926
697.024, 26.930
698.324, 6.964
699.625, 4.977
700.925, 37.103
702.226, 15.215
703.526, 58.353
704.825, 0.473
706.125, 24.724
707.424, 13.949
708.723, 13.199
710.022, 19.476
711.321, 47.221
712.620, 13.900
713.918, 40.558
715.216, 40.199
716.514, 5.179
717.812, 2.419
719.109, 23.004
720.407, 3.454
721.704, 12.074
723.001, 34.418
724.297, 0.938
725.594, 21.480
726.890, 55.952
728.186, 68.367
729.482, 51.766
730.778, 60.147
732.073, 20.513
733.369, 48.860
734.664, 50.191
735.959, 82.505
737.253, 49.803
738.548, 46.085
739.842, 12.350
741.136, 113.598
742.430, 78.830
743.724, 101.047
745.017, 48.249
746.310, 75.435
747.603, 78.606
748.896, 51.762
750.189, 76.903
751.481, 113.029
752.774, 97.140
754.066, 95.237
755.357, 142.320
756.649, 53.387
757.941, 207.441
759.232, 150.481
760.523, 84.506
761.814, 138.517
763.104, 116.515
764.395, 171.499
765.685, 145.469
766.975, 161.426
768.265, 219.369
769.554, 160.298
770.844, 177.215
772.133, 176.118
773.422, 141.009
774.711, 219.886
775.999, 188.751
777.288, 262.603
778.576, 218.442
779.864, 280.269
781.152, 311.083
782.439, 256.885
783.727, 240.661
785.014, 297.258
786.301, 285.024
787.588, 270.551
788.874, 341.043
790.161, 361.997
791.447, 391.430
792.733, 436.177
794.019, 430.238
795.304, 478.939
796.590, 499.303
797.875, 518.701
799.160, 581.831
800.445, 699.506
801.729, 749.563
803.014, 849.467
804.298, 1010.520
805.582, 1207.535
806.865, 1280.769
808.149, 1449.801
809.432, 1793.083
810.716, 2038.549
811.999, 2370.814
813.281, 2483.441
814.564, 2921.609
815.846, 3129.506
817.128, 3358.129
818.410, 3738.060
819.692, 3982.420
820.974, 4319.132
822.255, 4667.269
823.536, 4773.669
824.817, 4822.049
826.098, 4843.409
827.379, 4620.982
828.659, 4476.583
829.939, 4424.695
831.219, 4278.464
832.499, 4092.536
833.779, 4017.922
835.058, 3934.054
836.337, 3771.399
837.616, 3761.212
838.895, 3656.298
840.173, 3580.417
841.452, 3685.049
842.730, 3530.678
844.008, 3682.679
845.286, 3754.097
846.563, 3742.772
847.841, 3874.468
849.118, 3833.022
850.395, 3975.391
851.672, 3996.608
852.948, 4145.953
854.225, 4268.305
855.501, 4189.223
856.777, 4528.324
858.053, 4662.840
859.328, 4692.817
860.604, 5215.057
861.879, 5360.332
863.154, 5953.390
864.429, 6697.980
865.703, 7143.441
866.978, 8638.966
868.252, 9614.419
869.526, 11349.915
870.800, 13835.233
872.073, 16110.688
873.347, 19996.156
874.620, 23391.699
875.893, 27297.174
877.166, 31282.643
878.438, 32337.955
879.711, 33693.512
880.983, 31459.074
882.255, 27784.637
883.527, 25040.143
884.798, 20305.715
886.070, 17261.289
887.341, 14436.834
888.612, 11462.417
889.883, 9968.003
891.154, 8203.594
892.424, 6869.190
893.694, 5974.790
894.964, 5139.390
896.234, 4683.999
897.504, 4143.613
898.773, 3687.232
900.042, 3547.856
901.312, 3253.486
902.580, 3115.121
903.849, 2959.762
905.118, 2755.408
906.386, 2746.060
907.654, 2462.718
908.922, 2403.382
910.189, 2118.053
911.457, 2088.729
912.724, 2017.412
913.991, 1847.102
915.258, 1676.798
916.525, 1671.501
917.791, 1518.211
919.058, 1528.929
920.324, 1348.653
921.590, 1254.385
922.855, 1220.125
924.121, 1186.873
925.386, 1129.628
926.651, 1065.394
927.916, 990.170
929.181, 938.961
930.446, 865.765
931.710, 832.582
932.974, 853.416
934.238, 747.269
935.502, 734.170
936.765, 773.059
938.029, 839.961
939.292, 769.880
940.555, 780.812
941.818, 832.764
943.080, 847.771
944.343, 945.756
945.605, 964.758
946.867, 931.770
948.129, 878.801
949.390, 891.278
950.652, 858.349
951.913, 817.612
953.174, 691.721
954.435, 646.877
955.695, 539.006
956.956, 532.166
958.216, 463.340
959.476, 367.211
960.736, 451.417
961.995, 365.665
963.255, 430.905
964.514, 352.552
965.773, 394.826
967.032, 396.112
968.291, 346.417
969.549, 448.972
970.807, 550.313
972.066, 544.369
973.323, 549.123
974.581, 656.509
975.839, 683.813
977.096, 770.228
978.353, 797.657
979.610, 824.203
980.867, 930.664
982.123, 847.567
983.380, 1025.056
984.636, 963.559
985.892, 1006.519
987.147, 1100.046
988.403, 1041.820
989.658, 1133.408
990.914, 1149.967
992.169, 1156.539
993.423, 1186.122
994.678, 1130.721
995.932, 1252.228
997.187, 1308.849
998.441, 1306.486
999.694, 1438.169
1000.948, 1417.832
1002.201, 1571.505
1003.455, 1689.187
1004.708, 1796.880
1005.961, 1763.581
1007.213, 1819.294
1008.466, 1616.016
1009.718, 1520.748
1010.970, 1284.490
1012.222, 1050.242
1013.474, 808.004
1014.725, 649.776
1015.976, 593.560
1017.227, 419.352
1018.478, 352.153
1019.729, 336.970
1020.980, 295.795
1022.230, 210.631
1023.480, 252.477
1024.730, 252.332
1025.980, 233.200
1027.229, 134.075
1028.479, 199.960
1029.728, 162.861
1030.977, 168.770
1032.226, 218.691
1033.474, 220.622
1034.723, 223.563
1035.971, 130.519
1037.219, 105.483
1038.467, 84.459
1039.714, 149.455
1040.962, 102.458
1042.209, 100.483
1043.456, 131.518
1044.703, 108.561
1045.950, 125.662
1047.196, 105.735
1048.443, 145.817
1049.689, 80.920
1050.935, 15.031
1052.180, 121.194
1053.426, 88.324
1054.671, 102.462
1055.916, 72.612
1057.161, 65.258
1058.406, 59.939
1059.651, 46.124
1060.895, 35.316
1062.139, 30.516
1063.383, 77.725
1064.627, 40.941
1065.871, 53.272
1067.114, 27.507
1068.357, 92.748
1069.600, 2.002
1070.843, 27.255
1072.086, 87.575
1073.328, 49.849
1074.570, 36.128
1075.813, 46.417
1077.054, 4.282
1078.296, 121.025
1079.538, 8.338
1080.779, 57.657
1082.020, 77.982
1083.261, 83.675
1084.502, 86.659
1085.742, 19.002
1086.983, 22.343
1088.223, 2.307
1089.463, 62.952
1090.703, 33.400
1091.942, 7.756
1093.182, 48.882
1094.421, 15.476
1095.660, 2.163
1096.899, 46.208
1098.137, 33.417
1099.376, 7.970
1100.614, 108.351
1101.852, 13.762
1103.090, 112.852
1104.328, 14.520
1105.565, 46.107
1106.803, 30.736
1108.040, 24.632
1109.277, 53.997
1110.513, 61.367
1111.750, 51.733
1112.986, 9.898
1114.223, 60.471
1115.459, 31.159
1116.694, 14.212
1117.930, 7.584
1119.165, 31.042
1120.401, 43.329
1121.636, 19.300
1122.871, 55.930
1124.105, 59.432
1125.340, 5.793
1126.574, 23.157
1127.808, 78.521
1129.042, 48.115
1130.276, 72.242
1131.509, 19.600
1132.743, 2.043
1133.976, 150.318
1135.209, 54.680
1136.442, 101.041
1137.674, 227.403
1138.906, 18.765
1140.139, 108.126
1141.371, 65.487
1142.603, 74.024
1143.834, 210.383
1145.066, 37.965
1146.297, 165.322
1147.528, 186.711
1148.759, 85.328
1149.990, 250.680
1151.220, 121.067
1152.450, 115.648
1153.681, 174.995
1154.910, 59.615
1156.140, 158.047
1157.370, 124.558
1158.599, 95.465
1159.828, 189.799
1161.057, 133.309
1162.286, 180.802
1163.515, 169.196
1164.743, 138.260
1165.972, 188.840
1167.200, 162.302
1168.427, 104.985
1169.655, 163.460
1170.883, 102.165
1172.110, 111.049
1173.337, 170.340
1174.564, 66.198
1175.791, 141.811
1177.017, 159.218
1178.244, 21.164
1179.470, 238.657
1180.696, 67.222
1181.922, 128.145
1183.147, 95.464
1184.373, 26.082
1185.598, 116.724
1186.823, 157.013
1188.048, 52.173
1189.273, 115.753
1190.497, 47.048
1191.722, 82.330
1192.946, 91.686
1194.170, 63.872
1195.393, 141.575
1196.617, 100.745
1197.840, 23.503
1199.064, 134.981
1200.287, 60.127
1201.509, 69.987
1202.732, 116.087
1203.954, 38.208
1205.177, 141.344
1206.399, 87.501
1207.621, 82.094
1208.842, 106.781
1210.064, 104.833
1211.285, 199.146
1212.506, 176.300
1213.727, 76.457
1214.948, 83.293
1216.169, 160.895
1217.389, 128.156
1218.609, 187.723
1219.829, 102.721
1221.049, 141.186
1222.269, 161.544
1223.488, 82.511
1224.708, 99.850
1225.927, 159.114
1227.146, 118.048
1228.364, 148.347
1229.583, 206.260
1230.801, 65.975
1232.019, 194.608
1233.237, 64.488
1234.455, 220.355
1235.673, 119.665
1236.890, 140.510
1238.107, 254.056
1239.324, 162.498
1240.541, 134.310
1241.758, 218.388
1242.975, 145.177
1244.191, 209.152
1245.407, 231.823
1246.623, 209.580
1247.839, 274.708
1249.054, 214.443
1250.270, 152.167
1251.485, 246.783
1252.700, 141.481
1253.915, 222.933
1255.129, 241.846
1256.344, 174.509
1257.558, 286.475
1258.772, 217.113
1259.986, 149.737
1261.200, 276.025
1262.413, 122.626
1263.627, 146.214
1264.840, 264.876
1266.053, 94.440
1267.266, 244.075
1268.478, 138.025
1269.691, 132.549
1270.903, 211.336
1272.115, 87.833
1273.327, 49.322
1274.539, 174.051
1275.750, 40.519
1276.961, 166.976
1278.173, 82.657
1279.384, 34.087
1280.594, 169.503
1281.805, 83.909
1283.015, 22.701
1284.226, 117.668
1285.436, 34.058
1286.646, 74.396
1287.855, 57.708
1289.065, 7.993
1290.274, 109.250
1291.483, 57.493
1292.692, 18.292
1293.901, 81.903
1295.109, 0.234
1296.318, 41.395
1297.526, 66.529
1298.734, 26.352
1299.942, 62.745
1301.150, 23.827
1302.357, 78.109
1303.564, 126.924
1304.771, 77.059
1305.978, 32.924
1307.185, 73.890
1308.392, 81.175
1309.598, 53.695
1310.804, 37.583
1312.010, 80.549
1313.216, 88.290
1314.422, 30.116
1315.627, 26.874
1316.832, 91.651
1318.037, 5.584
1319.242, 32.156
1320.447, 86.878
1321.652, 54.417
1322.856, 71.264
1324.060, 141.929
1325.264, 17.573
1326.468, 120.198
1327.672, 12.807
1328.875, 38.292
1330.078, 198.862
1331.281, 5.413
1332.484, 168.944
1333.687, 160.451
1334.890, 8.120
1336.092, 97.343
1337.294, 20.789
1338.496, 32.786
1339.698, 106.614
1340.900, 56.996
1342.101, 89.360
1343.302, 86.707
1344.503, 83.964
1345.704, 155.335
1346.905, 58.625
1348.106, 5.895
1349.306, 157.147
1350.506, 21.382
1351.706, 36.599
1352.906, 155.802
1354.106, 34.990
1355.305, 161.159
1356.504, 120.315
1357.703, 23.544
1358.902, 145.574
1360.101, 68.676
1361.300, 5.751
1362.498, 252.819
1363.696, 117.844
1364.894, 8.882
1366.092, 163.910
1367.290, 32.922
1368.487, 156.977
1369.684, 164.963
1370.881, 74.209
1372.078, 166.170
1373.275, 71.115
1374.472, 113.517
1375.668, 209.433
1376.864, 2.334
1378.060, 230.749
1379.256, 200.621
1380.452, 40.479
1381.647, 190.324
1382.842, 158.157
1384.038, 54.978
1385.233, 240.788
1386.427, 46.573
1387.622, 147.320
1388.816, 238.052
1390.010, 17.735
1391.204, 170.724
1392.398, 115.364
1393.592, 11.023
1394.785, 245.937
1395.979, 96.448
1397.172, 33.969
1398.365, 243.969
1399.558, 54.330
1400.750, 143.935
1401.943, 280.339
1403.135, 61.673
1404.327, 199.908
1405.519, 212.391
1406.710, 64.586
1407.902, 247.665
1409.093, 221.311
1410.284, 170.536
1411.475, 321.576
1412.666, 207.823
1413.857, 107.451
1415.047, 219.102
1416.238, 119.406
1417.428, 297.265
1418.617, 205.145
1419.807, 115.635
1420.997, 301.439
1422.186, 123.531
1423.375, 75.318
1424.564, 310.736
1425.753, 153.873
1426.942, 146.111
1428.130, 271.224
1429.318, 132.656
1430.507, 266.532
1431.694, 312.965
1432.882, 135.981
1434.070, 322.504
1435.257, 248.719
1436.444, 164.299
1437.631, 271.548
1438.818, 157.064
1440.005, 220.327
1441.191, 300.260
1442.378, 172.734
1443.564, 327.051
1444.750, 394.990
1445.936, 186.353
1447.121, 324.602
1448.307, 280.241
1449.492, 166.210
1450.677, 365.120
1451.862, 204.321
1453.047, 294.101
1454.231, 339.618
1455.415, 107.708
1456.600, 292.271
1457.784, 304.719
1458.967, 166.643
1460.151, 353.586
1461.335, 324.330
1462.518, 153.191
1463.701, 411.429
1464.884, 192.175
1466.067, 257.331
1467.249, 330.435
1468.432, 172.992
1469.614, 286.499
1470.796, 320.895
1471.978, 126.362
1473.159, 272.896
1474.341, 288.445
1475.522, 134.620
1476.703, 323.158
1477.884, 175.688
1479.065, 158.185
1480.246, 321.670
1481.426, 113.165
1482.607, 206.717
1483.787, 343.264
1484.967, 97.790
1486.146, 202.346
1487.326, 251.890
1488.505, 117.428
1489.685, 342.935
1490.864, 145.454
1492.042, 84.951
1493.221, 299.458
1494.400, 121.991
1495.578, 72.588
1496.756, 299.193
1497.934, 24.829
1499.112, 224.473
1500.289, 186.132
1501.467, 4.809
1502.644, 188.506
1503.821, 108.220
1504.998, 0.955
1506.175, 248.708
1507.351, 141.483
1508.528, 98.286
1509.704, 237.112
1510.880, 127.992
1512.056, 118.434
1513.232, 275.776
1514.407, 98.665
1515.582, 183.867
1516.758, 193.248
1517.933, 19.209
1519.107, 238.570
1520.282, 105.294
1521.456, 14.045
1522.631, 235.516
1523.805, 68.945
1524.979, 5.292
1526.152, 0.000
##END=



