##NAMES=Grossular
##RRUFFID=R060453
##IDEAL CHEMISTRY=Ca_3_Al_2_(SiO_4_)_3_
##LOCALITY=unknown
##OWNER=RRUFF
##SOURCE=Gemological Institute of America
##DESCRIPTION=Green colored fragment
##STATUS=The identification of this mineral has been confirmed by X-ray diffraction and chemical analysis
##URL=rruff.info/R060453
##MEASURED CHEMISTRY=(Ca_2.91_Mg_0.05_Mn_0.04_)_Σ=3_(Al_1.96_Ti_0.02_[box]_0.02_)_Σ=2_(Si_1.00_O_4_)_3_; trace amounts of Fe and Cr
##PIN_ID=L01253
##ORIENTATION=Laser parallel to a* (1 0 0). Fiducial mark perpendicular to laser is parallel to b [0 1 0]
122.2470, 0.0000000E+00
123.4850, 38.94116
124.7220, 2.739502
125.9590, 16.21387
127.1960, 72.63696
128.4330, 59.56030
129.6700, 3.096680
130.9060, 51.60449
132.1430, 39.60449
133.3790, 93.85522
134.6150, 26.32178
135.8500, 34.99414
137.0860, 0.8645020
138.3210, 4.434082
139.5560, 118.0598
140.7910, 32.33936
142.0260, 80.71924
143.2610, 104.1875
144.4950, 51.73755
145.7290, 83.36206
146.9630, 48.10815
148.1970, 12.93774
149.4310, 31.03125
150.6640, 13.14014
151.8980, 79.26685
153.1310, 64.41309
154.3640, 117.5798
155.5970, 70.76733
156.8290, 92.97607
158.0620, 75.20776
159.2940, 75.46460
160.5260, 84.73975
161.7580, 66.03101
162.9890, 87.64673
164.2210, 126.6829
165.4520, 117.0574
166.6830, 140.4702
167.9140, 150.8933
169.1450, 260.3274
170.3760, 294.7678
171.6060, 458.2031
172.8360, 670.6572
174.0660, 788.3384
175.2960, 627.9624
176.5260, 819.3540
177.7550, 969.7690
178.9840, 1208.205
180.2130, 1283.664
181.4420, 1414.144
182.6710, 1468.645
183.9000, 1322.167
185.1280, 1084.708
186.3560, 761.2664
187.5840, 557.8406
188.8120, 375.4294
190.0400, 227.0308
191.2670, 208.6445
192.4950, 160.2688
193.7220, 114.0359
194.9490, 113.7397
196.1750, 148.4241
197.4020, 76.06836
198.6280, 108.7114
199.8540, 90.35156
201.0800, 132.9905
202.3060, 97.63159
203.5320, 98.27490
204.7570, 102.7837
205.9830, 127.4204
207.2080, 82.06348
208.4330, 70.84229
209.6570, 17.83984
210.8820, 40.57886
212.1060, 29.27222
213.3310, 23.07520
214.5550, 35.70947
215.7780, 24.45898
217.0020, 0.7805180
218.2260, 11.99268
219.4490, 41.82837
220.6720, 92.70703
221.8950, 77.60791
223.1180, 36.55078
224.3400, 14.48682
225.5630, 44.48486
226.7850, 35.53760
228.0070, 101.4412
229.2290, 64.42554
230.4500, 64.41382
231.6720, 32.40674
232.8930, 26.52441
234.1140, 48.40161
235.3350, 34.40942
236.5560, 39.43823
237.7770, 47.90112
238.9970, 67.50830
240.2170, 60.59790
241.4370, 54.68433
242.6570, 59.77319
243.8770, 91.86255
245.0960, 86.53784
246.3160, 91.76538
247.5350, 96.10645
248.7540, 77.16357
249.9730, 70.20605
251.1910, 44.27051
252.4100, 74.31299
253.6280, 69.34668
254.8460, 91.37231
256.0640, 65.38892
257.2810, 43.39697
258.4990, 56.39648
259.7160, 42.38770
260.9330, 85.37012
262.1500, 60.34375
263.3670, 0.3088380
264.5840, 1.265137
265.8000, 42.21313
267.0170, 2.151611
268.2330, 38.08130
269.4490, 5.904541
270.6640, 74.65576
271.8800, 51.33130
273.0950, 85.02197
274.3100, 121.7385
275.5260, 137.4722
276.7400, 154.1382
277.9550, 121.6973
279.1690, 136.4709
280.3840, 113.2551
281.5980, 31.04907
282.8120, 82.85132
284.0260, 57.66113
285.2390, 13.52197
286.4530, 66.29858
287.6660, 33.12476
288.8790, 56.00098
290.0920, 74.92432
291.3040, 40.92139
292.5170, 65.87842
293.7290, 17.04541
294.9410, 5.635498
296.1530, 87.51025
297.3650, 17.49707
298.5770, 10.62598
299.7880, 29.50464
301.0000, 53.90479
302.2110, 59.25879
303.4220, 93.74902
304.6320, 109.8613
305.8430, 145.7964
307.0530, 177.3247
308.2630, 179.5000
309.4730, 180.7500
310.6830, 177.0361
311.8930, 217.4673
313.1030, 263.7515
314.3120, 258.0593
315.5210, 330.6992
316.7300, 377.9712
317.9390, 257.2996
319.1470, 314.3853
320.3560, 272.0239
321.5640, 361.8511
322.7720, 308.9868
323.9800, 282.4626
325.1880, 283.4700
326.3950, 326.0295
327.6030, 247.3933
328.8100, 307.7932
330.0170, 312.7268
331.2240, 281.8423
332.4300, 315.0608
333.6370, 266.3606
334.8430, 253.6379
336.0490, 256.7539
337.2550, 259.0645
338.4610, 267.3606
339.6660, 312.4233
340.8720, 376.7439
342.0770, 351.9568
343.2820, 400.0295
344.4870, 480.1211
345.6920, 482.8047
346.8960, 543.1599
348.1010, 601.4172
349.3050, 660.4814
350.5090, 699.3533
351.7130, 798.4993
352.9160, 946.8687
354.1200, 1214.072
355.3230, 1322.974
356.5260, 1647.195
357.7290, 1925.101
358.9320, 2388.038
360.1350, 2770.463
361.3370, 3470.582
362.5390, 4081.968
363.7410, 4815.842
364.9430, 5787.860
366.1450, 6848.825
367.3470, 7736.721
368.5480, 8555.829
369.7490, 9269.309
370.9500, 9654.187
372.1510, 9888.590
373.3520, 9905.849
374.5520, 9852.815
375.7530, 9581.959
376.9530, 8869.603
378.1530, 7909.314
379.3520, 6566.944
380.5520, 4998.570
381.7510, 3942.189
382.9510, 2956.804
384.1500, 2317.413
385.3490, 1867.016
386.5480, 1418.613
387.7460, 1192.203
388.9440, 1045.786
390.1430, 908.3623
391.3410, 793.9321
392.5390, 744.4958
393.7360, 616.0532
394.9340, 583.6033
396.1310, 513.1448
397.3280, 546.6792
398.5250, 500.2063
399.7220, 411.7261
400.9190, 531.2390
402.1150, 491.7449
403.3120, 513.2412
404.5080, 572.7356
405.7040, 674.2214
406.8990, 854.7017
408.0950, 890.1392
409.2900, 1098.572
410.4860, 1185.026
411.6810, 1258.439
412.8760, 1420.875
414.0700, 1521.283
415.2650, 1665.703
416.4590, 1808.115
417.6540, 1762.523
418.8480, 1665.931
420.0420, 1435.331
421.2350, 1100.725
422.4290, 784.1099
423.6220, 632.4907
424.8150, 462.8628
426.0080, 310.2263
427.2010, 272.5808
428.3940, 222.9287
429.5860, 137.7788
430.7790, 142.1060
431.9710, 105.9590
433.1630, 96.72681
434.3540, 81.02100
435.5460, 92.30347
436.7370, 65.70703
437.9290, 1.306152
439.1200, 50.36938
440.3110, 89.74438
441.5010, 56.96802
442.6920, 25.84351
443.8820, 2.355957
445.0730, 6.538574
446.2630, 32.70557
447.4530, 8.855957
448.6420, 8.008057
449.8320, 0.1044920
451.0210, 54.19849
452.2100, 37.27832
453.3990, 29.34180
454.5880, 16.60303
455.7770, 31.43774
456.9660, 26.71582
458.1540, 53.24561
459.3420, 31.04639
460.5300, 23.35913
461.7180, 9.689453
462.9050, 1.091553
464.0930, 40.18823
465.2800, 66.84448
466.4670, 16.90723
467.6540, 99.16064
468.8410, 0.5847170
470.0280, 15.66455
471.2140, 7.713867
472.4000, 119.9248
473.5870, 76.81567
474.7720, 52.99072
475.9580, 34.13599
477.1440, 40.08350
478.3290, 79.10962
479.5140, 32.87769
480.6990, 36.87256
481.8840, 92.62427
483.0690, 31.50171
484.2540, 57.08960
485.4380, 91.00269
486.6220, 86.54541
487.8060, 0.8137210
488.9900, 23.70142
490.1740, 11.48779
491.3570, 7.899414
492.5410, 138.7156
493.7240, 73.29297
494.9070, 19.80737
496.0900, 58.16113
497.2720, 71.30591
498.4550, 53.48975
499.6370, 129.3013
500.8190, 121.9038
502.0010, 6.439941
503.1830, 77.96973
504.3650, 11.37378
505.5460, 59.96460
506.7280, 101.5200
507.9090, 113.8562
509.0900, 130.2717
510.2710, 79.26123
511.4510, 127.0413
512.6320, 133.7856
513.8120, 124.3970
514.9920, 41.90625
516.1720, 112.6992
517.3520, 69.35815
518.5310, 255.1882
519.7110, 172.7644
520.8900, 325.1533
522.0690, 305.9248
523.2480, 304.3252
524.4270, 424.1707
525.6050, 396.7834
526.7840, 412.4434
527.9620, 457.8875
529.1400, 516.4128
530.3180, 416.7891
531.4960, 345.2090
532.6730, 284.6890
533.8510, 271.3132
535.0280, 289.7793
536.2050, 335.0972
537.3820, 442.0066
538.5590, 588.3027
539.7350, 769.6841
540.9120, 968.7666
542.0880, 1210.077
543.2640, 1470.525
544.4400, 1783.150
545.6150, 2048.509
546.7910, 2419.433
547.9660, 2710.953
549.1410, 2846.889
550.3170, 2795.338
551.4910, 2696.333
552.6660, 2321.214
553.8410, 1807.790
555.0150, 1294.616
556.1890, 946.4739
557.3630, 779.2371
558.5370, 658.8140
559.7110, 502.1721
560.8840, 499.9844
562.0570, 442.8069
563.2310, 290.5464
564.4040, 372.1470
565.5760, 326.7505
566.7490, 319.4231
567.9220, 280.9897
569.0940, 298.1018
570.2660, 311.3306
571.4380, 301.6804
572.6100, 300.6985
573.7820, 259.9497
574.9530, 280.3125
576.1240, 278.3901
577.2960, 216.9629
578.4670, 289.9648
579.6370, 249.4346
580.8080, 222.4209
581.9790, 257.9106
583.1490, 325.9487
584.3190, 356.8350
585.4890, 349.2573
586.6590, 422.8120
587.8280, 425.1201
588.9980, 393.8794
590.1670, 417.3667
591.3360, 432.5015
592.5050, 447.2173
593.6740, 426.5366
594.8430, 374.6421
596.0110, 328.6475
597.1790, 217.0327
598.3480, 282.3994
599.5160, 232.3315
600.6830, 174.7642
601.8510, 285.7563
603.0180, 119.7368
604.1860, 288.3281
605.3530, 239.4976
606.5200, 185.8555
607.6870, 224.9443
608.8530, 136.6592
610.0200, 217.5303
611.1860, 220.9253
612.3520, 178.0596
613.5180, 262.4541
614.6840, 190.9004
615.8500, 193.9692
617.0150, 237.1411
618.1800, 214.2866
619.3450, 273.0303
620.5100, 219.5933
621.6750, 277.8970
622.8400, 244.1709
624.0040, 334.9619
625.1690, 226.7695
626.3330, 322.4365
627.4970, 283.1646
628.6610, 307.0171
629.8240, 231.1226
630.9880, 276.2896
632.1510, 262.6328
633.3140, 266.4336
634.4770, 276.2319
635.6400, 308.1631
636.8020, 259.3105
637.9650, 176.5830
639.1270, 166.7573
640.2890, 210.6499
641.4510, 220.7007
642.6130, 215.1489
643.7750, 239.0928
644.9360, 187.5283
646.0980, 190.0586
647.2590, 236.5728
648.4200, 157.5195
649.5810, 122.4980
650.7410, 112.1040
651.9020, 114.9136
653.0620, 140.9062
654.2220, 160.4834
655.3820, 85.76611
656.5420, 111.5337
657.7020, 63.67969
658.8610, 118.2852
660.0200, 156.8477
661.1800, 59.11182
662.3390, 141.2417
663.4970, 28.54492
664.6560, 77.56348
665.8150, 59.96729
666.9730, 104.7480
668.1310, 78.17871
669.2890, 106.5435
670.4470, 88.84473
671.6050, 67.08008
672.7620, 24.25049
673.9200, 56.35742
675.0770, 83.40088
676.2340, 173.3813
677.3910, 73.30078
678.5470, 45.15723
679.7040, 108.9473
680.8600, 17.67529
682.0160, 57.33643
683.1720, 171.9346
684.3280, 9.527344
685.4840, 106.9341
686.6390, 3.333008
687.7950, 87.66211
688.9500, 81.92676
690.1050, 171.1294
691.2600, 76.27051
692.4150, 140.3633
693.5690, 72.39453
694.7240, 56.36279
695.8780, 70.26709
697.0320, 3.881348
698.1860, 17.10254
699.3400, 32.59814
700.4930, 21.23193
701.6470, 32.26318
702.8000, 7.707031
703.9530, 46.71631
705.1060, 21.07178
706.2590, 37.36035
707.4110, 2.417480
708.5640, 99.72754
709.7160, 61.80713
710.8680, 131.8169
712.0200, 55.75977
713.1720, 12.63623
714.3230, 51.44189
715.4750, 16.82227
716.6260, 32.70410
717.7770, 39.71387
718.9280, 8.763672
720.0790, 148.0522
721.2300, 30.59912
722.3800, 59.65820
723.5300, 35.85303
724.6810, 10.97803
725.8300, 79.03027
726.9800, 0.9863280
728.1300, 90.92139
729.2790, 22.76172
730.4290, 0.5312500
731.5780, 24.22266
732.7270, 26.15820
733.8760, 43.63037
735.0240, 48.19727
736.1730, 65.10938
737.3210, 32.49707
738.4700, 2.963379
739.6180, 10.65625
740.7650, 52.63428
741.9130, 8.862793
743.0610, 39.68457
744.2080, 4.732422
745.3550, 23.46680
746.5020, 68.86523
747.6490, 23.25781
748.7960, 34.85303
749.9430, 75.89355
751.0890, 88.32959
752.2350, 43.64551
753.3810, 96.23779
754.5270, 38.76758
755.6730, 37.39893
756.8190, 5.141602
757.9640, 39.52246
759.1090, 36.23535
760.2540, 11.18457
761.3990, 44.39648
762.5440, 52.61035
763.6890, 105.7812
764.8330, 73.03320
765.9780, 127.0903
767.1220, 131.1738
768.2660, 125.8643
769.4100, 115.6738
770.5530, 276.3550
771.6970, 196.9775
772.8400, 336.5649
773.9830, 309.2188
775.1260, 336.6045
776.2690, 268.6099
777.4120, 396.5005
778.5540, 336.5078
779.6970, 348.6509
780.8390, 288.5347
781.9810, 328.4438
783.1230, 256.0649
784.2650, 213.6230
785.4060, 263.4551
786.5480, 256.8950
787.6890, 279.4692
788.8300, 263.1782
789.9710, 210.5610
791.1120, 285.0698
792.2520, 257.7847
793.3930, 196.4497
794.5330, 285.7637
795.6730, 280.5928
796.8130, 259.3765
797.9530, 334.0898
799.0930, 351.5654
800.2320, 295.8911
801.3710, 348.3691
802.5110, 241.3838
803.6500, 375.9604
804.7880, 558.9492
805.9270, 666.8345
807.0660, 569.0269
808.2040, 632.7358
809.3420, 715.8008
810.4800, 728.2632
811.6180, 845.4697
812.7560, 847.8291
813.8930, 758.2588
815.0310, 869.4780
816.1680, 843.0293
817.3050, 827.3262
818.4420, 854.4551
819.5790, 939.9829
820.7150, 862.4351
821.8520, 968.8052
822.9880, 1030.819
824.1240, 967.9839
825.2600, 1002.498
826.3960, 1101.499
827.5320, 1074.497
828.6670, 1081.624
829.8020, 1068.321
830.9380, 1012.284
832.0730, 975.9780
833.2080, 929.8662
834.3420, 907.9707
835.4770, 861.2529
836.6110, 878.2412
837.7450, 884.5942
838.8790, 885.3374
840.0130, 837.4355
841.1470, 903.8101
842.2810, 914.6416
843.4140, 957.1182
844.5470, 1059.361
845.6800, 1030.777
846.8130, 1082.509
847.9460, 1121.607
849.0790, 1215.877
850.2110, 1311.382
851.3440, 1277.841
852.4760, 1327.718
853.6080, 1392.984
854.7400, 1450.067
855.8710, 1555.901
857.0030, 1554.383
858.1340, 1700.917
859.2650, 1902.742
860.3960, 2049.291
861.5270, 2323.765
862.6580, 2501.440
863.7890, 2898.334
864.9190, 3255.747
866.0490, 3655.742
867.1790, 4182.349
868.3090, 4924.092
869.4390, 5623.783
870.5690, 6657.273
871.6980, 7802.014
872.8270, 9237.973
873.9570, 10721.47
875.0860, 12137.29
876.2140, 13755.55
877.3430, 15026.28
878.4720, 15913.69
879.6000, 16796.43
880.7280, 16802.27
881.8560, 16306.90
882.9840, 15361.22
884.1120, 14023.68
885.2390, 12350.67
886.3670, 10991.82
887.4940, 9546.760
888.6210, 8298.136
889.7480, 7242.340
890.8750, 6413.664
892.0020, 5542.643
893.1280, 5204.235
894.2540, 4383.402
895.3810, 3998.787
896.5070, 3425.814
897.6320, 3180.747
898.7580, 2770.619
899.8840, 2379.920
901.0090, 2027.851
902.1340, 1633.898
903.2590, 1481.963
904.3840, 1200.529
905.5090, 1172.249
906.6340, 830.1826
907.7580, 830.8135
908.8820, 699.6074
910.0060, 748.5107
911.1300, 755.2188
912.2540, 601.9717
913.3780, 741.8232
914.5010, 482.4004
915.6250, 607.1025
916.7480, 566.2461
917.8710, 678.3965
918.9940, 531.5791
920.1160, 490.0400
921.2390, 487.8486
922.3610, 403.3721
923.4840, 343.4111
924.6060, 406.3975
925.7280, 384.0088
926.8490, 336.7080
927.9710, 495.4219
929.0930, 347.8115
930.2140, 159.8506
931.3350, 207.6123
932.4560, 245.5156
933.5770, 187.5273
934.6980, 288.6465
935.8180, 361.6387
936.9380, 265.8516
938.0590, 96.31641
939.1790, 265.4883
940.2990, 247.6260
941.4180, 186.8164
942.5380, 268.8408
943.6570, 145.4346
944.7770, 24.15039
945.8960, 68.97266
947.0150, 46.01465
948.1340, 108.3066
949.2520, 47.39648
950.3710, 148.7637
951.4890, 40.93066
952.6070, 87.97559
953.7260, 23.48828
954.8430, 31.10156
955.9610, 78.58789
957.0790, 36.05371
958.1960, 54.11816
959.3130, 72.31250
960.4310, 2.378906
961.5480, 41.29492
962.6640, 68.36035
963.7810, 25.47949
964.8970, 7.275391
966.0140, 2.827148
967.1300, 50.08789
968.2460, 22.90039
969.3620, 24.24609
970.4780, 51.18066
971.5930, 134.6455
972.7090, 122.8975
973.8240, 12.45215
974.9390, 156.3916
976.0540, 75.97168
977.1690, 118.5684
978.2830, 245.5723
979.3980, 157.9004
980.5120, 265.4990
981.6260, 230.6963
982.7400, 118.7354
983.8540, 218.6934
984.9680, 252.6445
986.0820, 257.6611
987.1950, 280.4971
988.3080, 273.5547
989.4210, 278.4199
990.5340, 252.6348
991.6470, 285.7285
992.7600, 282.5127
993.8720, 306.3281
994.9850, 272.9395
996.0970, 277.5654
997.2090, 301.3242
998.3210, 312.4102
999.4320, 324.8721
1000.544, 331.3555
1001.655, 343.8965
1002.767, 365.9121
1003.878, 370.9551
1004.989, 461.5566
1006.100, 614.0977
1007.210, 476.5625
1008.321, 571.7656
1009.431, 525.6113
1010.541, 736.7295
1011.651, 730.3350
1012.761, 618.8291
1013.871, 809.5439
1014.980, 824.8145
1016.090, 757.4395
1017.199, 812.7109
1018.308, 841.8555
1019.417, 666.9248
1020.526, 491.7676
1021.635, 534.7598
1022.743, 149.3447
1023.852, 260.9893
1024.960, 125.6602
1026.068, 272.1855
1027.176, 134.2070
1028.283, 312.9746
1029.391, 13.53711
1030.498, 227.8350
1031.606, 228.1855
1032.713, 396.4453
1033.820, 190.4434
1034.927, 194.5537
1036.033, 176.0898
1037.140, 263.0977
1038.246, 193.1133
1039.353, 279.9932
1040.459, 249.8477
1041.564, 136.4619
1042.670, 19.89453
1043.776, 301.0049
1044.881, 198.9238
1045.987, 114.6426
1047.092, 261.1787
1048.197, 219.6729
1049.302, 268.4355
1050.406, 281.6260
1051.511, 184.7578
1052.615, 282.6484
1053.720, 224.1709
1054.824, 260.1699
1055.928, 372.8457
1057.031, 344.2607
1058.135, 356.4414
1059.238, 382.9219
1060.342, 329.4648
1061.445, 320.3711
1062.548, 229.2871
1063.651, 261.2881
1064.754, 195.2012
1065.856, 207.0557
1066.959, 187.0254
1068.061, 163.8213
1069.163, 150.2754
1070.265, 172.8008
1071.367, 141.1104
1072.469, 165.3477
1073.570, 144.9844
1074.671, 150.1475
1075.773, 187.4746
1076.874, 158.1211
1077.975, 130.0166
1079.075, 208.0615
1080.176, 162.9785
1081.276, 69.03516
1082.377, 273.5977
1083.477, 47.42969
1084.577, 130.9053
1085.677, 179.2109
1086.777, 57.54590
1087.876, 149.6494
1088.975, 50.90625
1090.075, 182.6582
1091.174, 122.3467
1092.273, 50.96680
1093.372, 11.75684
1094.470, 14.69434
1095.569, 5.298828
1096.667, 31.87988
1097.765, 41.29492
1098.863, 133.1191
1099.961, 9.389648
1101.059, 47.44336
1102.157, 104.4697
1103.254, 142.3887
1104.351, 100.3984
1105.449, 91.54102
1106.546, 147.8223
1107.642, 144.4062
1108.739, 61.15234
1109.836, 208.8232
1110.932, 35.97461
1112.028, 103.4287
1113.124, 49.06641
1114.220, 6.658203
1115.316, 122.8418
1116.412, 107.5859
1117.507, 29.36133
1118.603, 92.89062
1119.698, 104.3184
1120.793, 177.5742
1121.888, 59.37891
1122.983, 102.7852
1124.077, 163.0898
1125.172, 75.32422
1126.266, 258.1504
1127.360, 228.9941
1128.454, 191.7598
1129.548, 140.5293
1130.642, 100.6152
1131.735, 380.6309
1132.829, 364.4844
1133.922, 467.3281
1135.015, 439.7305
1136.108, 525.2500
1137.201, 520.6035
1138.294, 519.7988
1139.386, 558.4531
1140.478, 642.3164
1141.571, 524.0332
1142.663, 637.6133
1143.755, 660.1660
1144.846, 533.0859
1145.938, 636.6270
1147.030, 501.3340
1148.121, 558.1406
1149.212, 557.2012
1150.303, 308.2637
1151.394, 571.0039
1152.485, 511.4414
1153.575, 340.4531
1154.666, 533.4531
1155.756, 496.8867
1156.846, 500.4375
1157.936, 591.7988
1159.026, 383.9590
1160.116, 421.2422
1161.205, 412.8105
1162.295, 383.0977
1163.384, 370.0742
1164.473, 397.3906
1165.562, 335.3984
1166.651, 436.2070
1167.739, 526.7812
1168.828, 488.1309
1169.916, 480.2422
1171.005, 446.9121
1172.093, 463.6055
1173.181, 468.1465
1174.268, 495.8457
1175.356, 484.6426
1176.443, 472.7949
1177.531, 469.0508
1178.618, 380.5820
1179.705, 599.3223
1180.792, 402.2441
1181.879, 393.7207
1182.965, 243.2969
1184.052, 245.8066
1185.138, 313.5566
1186.224, 255.5586
1187.310, 67.11523
1188.396, 97.71484
1189.482, 382.9668
1190.567, 1.865234
1191.653, 181.6641
1192.738, 53.37695
1193.823, 332.5879
1194.908, 40.38281
1195.993, 338.2930
1197.077, 280.7051
1198.162, 8.722656
1199.246, 221.3828
1200.331, 104.2578
1201.415, 143.8125
1202.499, 283.9414
1203.582, 364.8672
1204.666, 428.0254
1205.750, 423.5586
1206.833, 357.0410
1207.916, 332.9141
1208.999, 322.2539
1210.082, 265.7383
1211.165, 256.5000
1212.248, 248.8887
1213.330, 247.1621
1214.412, 149.8086
1215.495, 206.8203
1216.577, 282.6211
1217.658, 307.3262
1218.740, 439.0059
1219.822, 375.8066
1220.903, 303.3730
1221.985, 403.9219
1223.066, 314.0293
1224.147, 106.7031
1225.228, 313.6016
1226.308, 121.4355
1227.389, 201.2891
1228.469, 282.9805
1229.550, 149.6172
1230.630, 368.7441
1231.710, 390.2461
1232.790, 391.4062
1233.869, 398.5078
1234.949, 380.7773
1236.028, 318.8633
1237.108, 349.1816
1238.187, 316.8730
1239.266, 297.3652
1240.344, 103.3633
1241.423, 212.7363
1242.502, 219.4629
1243.580, 184.2598
1244.658, 403.3418
1245.736, 13.40820
1246.814, 111.2891
1247.892, 159.1992
1248.970, 280.2695
1250.047, 13.34766
1251.125, 19.80469
1252.202, 36.30078
1253.279, 0.0000000E+00
##END=



