##NAMES=Grossular
##RRUFFID=R060453
##IDEAL CHEMISTRY=Ca_3_Al_2_(SiO_4_)_3_
##LOCALITY=unknown
##OWNER=RRUFF
##SOURCE=Gemological Institute of America
##DESCRIPTION=Green colored fragment
##STATUS=The identification of this mineral has been confirmed by X-ray diffraction and chemical analysis
##URL=rruff.info/R060453
##MEASURED CHEMISTRY=(Ca_2.91_Mg_0.05_Mn_0.04_)_Σ=3_(Al_1.96_Ti_0.02_[box]_0.02_)_Σ=2_(Si_1.00_O_4_)_3_; trace amounts of Fe and Cr
##PIN_ID=L01253
##ORIENTATION=Laser parallel to a* (1 0 0). Fiducial mark perpendicular to laser is parallel to b [0 1 0]
122.2470, 0.0000000E+00
123.4850, 16.06458
124.7220, 60.98901
125.9590, 2.010620
127.1960, 41.14478
128.4330, 44.18823
129.6700, 52.94409
130.9060, 69.39050
132.1430, 98.09155
133.3790, 68.29602
134.6150, 65.85022
135.8500, 33.73291
137.0860, 86.88940
138.3210, 67.27686
139.5560, 65.86243
140.7910, 53.62073
142.0260, 45.53088
143.2610, 40.88440
144.4950, 54.73730
145.7290, 25.08179
146.9630, 38.67920
148.1970, 23.43408
149.4310, 75.24316
150.6640, 82.44141
151.8980, 74.38086
153.1310, 134.9907
154.3640, 56.00757
155.5970, 78.07129
156.8290, 74.17896
158.0620, 32.32837
159.2940, 5.517334
160.5260, 52.74170
161.7580, 72.99780
162.9890, 3.283447
164.2210, 46.59619
165.4520, 114.9360
166.6830, 73.31006
167.9140, 72.78394
169.1450, 101.6938
170.3760, 104.1694
171.6060, 198.3989
172.8360, 234.8604
174.0660, 276.3628
175.2960, 259.9036
176.5260, 262.4802
177.7550, 326.0891
178.9840, 415.7280
180.2130, 445.3955
181.4420, 449.0898
182.6710, 461.2437
183.9000, 429.1628
185.1280, 405.3137
186.3560, 318.0942
187.5840, 248.8918
188.8120, 133.7048
190.0400, 125.5317
191.2670, 58.37183
192.4950, 57.22339
193.7220, 88.08569
194.9490, 96.95776
196.1750, 18.83838
197.4020, 64.71875
198.6280, 11.58374
199.8540, 61.44678
201.0800, 61.30981
202.3060, 16.17554
203.5320, 18.04688
204.7570, 20.92847
205.9830, 10.82129
207.2080, 13.05933
208.4330, 7.645752
209.6570, 6.795166
210.8820, 6.895264
212.1060, 0.1459960
213.3310, 0.7272950
214.5550, 49.50732
215.7780, 27.25464
217.0020, 48.95215
218.2260, 48.46362
219.4490, 37.24854
220.6720, 46.06152
221.8950, 80.42603
223.1180, 58.82568
224.3400, 73.23901
225.5630, 107.6575
226.7850, 102.0769
228.0070, 159.4924
229.2290, 194.9001
230.4500, 230.3000
231.6720, 298.6926
232.8930, 340.0801
234.1140, 328.4656
235.3350, 518.8521
236.5560, 538.2395
237.7770, 709.6289
238.9970, 774.0212
240.2170, 834.4148
241.4370, 813.8025
242.6570, 749.1768
243.8770, 758.5381
245.0960, 827.8774
246.3160, 779.2090
247.5350, 987.5317
248.7540, 945.8464
249.9730, 917.1536
251.1910, 703.4529
252.4100, 556.7446
253.6280, 353.0300
254.8460, 235.3086
256.0640, 193.5791
257.2810, 157.8430
258.4990, 108.1006
259.7160, 160.3496
260.9330, 78.59058
262.1500, 140.8230
263.3670, 41.04712
264.5840, 147.2629
265.8000, 144.4702
267.0170, 209.6689
268.2330, 309.8589
269.4490, 392.1138
270.6640, 437.0769
271.8800, 501.9028
273.0950, 565.0767
274.3100, 587.9644
275.5260, 727.8857
276.7400, 857.8306
277.9550, 990.7961
279.1690, 1020.781
280.3840, 1010.782
281.5980, 897.9517
282.8120, 649.0312
284.0260, 503.2754
285.2390, 346.6074
286.4530, 193.9172
287.6660, 188.3555
288.8790, 134.5859
290.0920, 130.9812
291.3040, 103.6997
292.5170, 50.93530
293.7290, 49.54688
294.9410, 51.36865
296.1530, 2.013672
297.3650, 13.37402
298.5770, 40.78760
299.7880, 7.474365
301.0000, 19.00659
302.2110, 30.04517
303.4220, 38.52588
304.6320, 16.02075
305.8430, 30.98291
307.0530, 25.33716
308.2630, 99.08838
309.4730, 45.37939
310.6830, 115.2327
311.8930, 86.90112
313.1030, 8.181396
314.3120, 87.62817
315.5210, 127.9265
316.7300, 121.5735
317.9390, 178.7395
319.1470, 233.7644
320.3560, 231.4429
321.5640, 207.1116
322.7720, 215.2734
323.9800, 292.9839
325.1880, 372.4614
326.3950, 376.2661
327.6030, 311.8052
328.8100, 341.3538
330.0170, 378.7734
331.2240, 404.1196
332.4300, 415.2354
333.6370, 395.3474
334.8430, 330.4565
336.0490, 315.5928
337.2550, 230.6953
338.4610, 287.7935
339.6660, 258.9365
340.8720, 278.1223
342.0770, 303.4380
343.2820, 326.7424
344.4870, 370.2275
345.6920, 403.0339
346.8960, 445.4165
348.1010, 488.6201
349.3050, 530.1709
350.5090, 581.6013
351.7130, 613.1831
352.9160, 777.8828
354.1200, 748.2437
355.3230, 884.8599
356.5260, 1030.271
357.7290, 1232.331
358.9320, 1399.321
360.1350, 1705.311
361.3370, 1988.519
362.5390, 2365.496
363.7410, 2934.467
364.9430, 3529.174
366.1450, 4313.136
367.3470, 5099.091
368.5480, 5752.040
369.7490, 6472.984
370.9500, 7063.836
372.1510, 7638.853
373.3520, 8116.776
374.5520, 8661.692
375.7530, 9026.767
376.9530, 8886.672
378.1530, 8040.570
379.3520, 6733.463
380.5520, 5284.456
381.7510, 3984.418
382.9510, 2981.446
384.1500, 2340.313
385.3490, 1750.293
386.5480, 1392.148
387.7460, 1179.999
388.9440, 934.0164
390.1430, 842.8545
391.3410, 681.8911
392.5390, 704.7422
393.7360, 556.5627
394.9340, 558.3765
396.1310, 471.1833
397.3280, 413.9817
398.5250, 456.7729
399.7220, 369.5571
400.9190, 360.3328
402.1150, 383.1035
403.3120, 324.8660
404.5080, 339.6213
405.7040, 369.3694
406.8990, 396.1089
408.0950, 404.8398
409.2900, 427.5623
410.4860, 448.2764
411.6810, 502.9827
412.8760, 491.6802
414.0700, 560.3696
415.2650, 663.0527
416.4590, 637.7361
417.6540, 592.4148
418.8480, 666.0859
420.0420, 521.7488
421.2350, 353.4031
422.4290, 333.0488
423.6220, 197.6873
424.8150, 95.31689
426.0080, 120.9453
427.2010, 85.56299
428.3940, 68.17700
429.5860, 76.78052
430.7790, 49.63989
431.9710, 102.2258
433.1630, 65.84277
434.3540, 42.56348
435.5460, 58.10864
436.7370, 21.72095
437.9290, 33.72290
439.1200, 17.90796
440.3110, 7.315430
441.5010, 77.43237
442.6920, 14.45752
443.8820, 9.834229
445.0730, 17.29370
446.2630, 45.00610
447.4530, 9.347168
448.6420, 35.00610
449.8320, 24.73047
451.0210, 63.24927
452.2100, 5.007568
453.3990, 32.81421
454.5880, 30.58423
455.7770, 22.96509
456.9660, 25.74341
458.1540, 4.888428
459.3420, 37.55249
460.5300, 21.06519
461.7180, 18.37085
462.9050, 45.72583
464.0930, 32.96289
465.2800, 20.68335
466.4670, 24.30444
467.6540, 80.46606
468.8410, 6.994873
470.0280, 67.54517
471.2140, 65.37793
472.4000, 96.68066
473.5870, 114.7900
474.7720, 187.3010
475.9580, 172.0718
477.1440, 227.0295
478.3290, 166.0129
479.5140, 189.9053
480.6990, 193.6052
481.8840, 164.2871
483.0690, 153.9475
484.2540, 122.5859
485.4380, 125.2034
486.6220, 81.79834
487.8060, 94.37891
488.9900, 85.93555
490.1740, 78.46899
491.3570, 64.97632
492.5410, 93.45825
493.7240, 56.91357
494.9070, 28.33936
496.0900, 108.7351
497.2720, 47.30078
498.4550, 95.89404
499.6370, 178.2041
500.8190, 205.9600
502.0010, 264.3564
503.1830, 304.0386
504.3650, 336.6497
505.5460, 368.5002
506.7280, 435.1072
507.9090, 448.5981
509.0900, 553.6069
510.2710, 589.6235
511.4510, 608.3752
512.6320, 590.3708
513.8120, 465.9570
514.9920, 400.6575
516.1720, 294.5054
517.3520, 166.3962
518.5310, 223.0994
519.7110, 215.0381
520.8900, 236.8857
522.0690, 183.4629
523.2480, 190.1997
524.4270, 174.1594
525.6050, 247.0862
526.7840, 185.1147
527.9620, 249.1238
529.1400, 220.0039
530.3180, 174.9148
531.4960, 238.8154
532.6730, 169.6582
533.8510, 213.5503
535.0280, 291.3359
536.2050, 369.9600
537.3820, 431.5564
538.5590, 533.7563
539.7350, 765.3184
540.9120, 1014.865
542.0880, 1282.021
543.2640, 1506.913
544.4400, 1813.177
545.6150, 2020.659
546.7910, 2358.086
547.9660, 2794.258
549.1410, 2965.333
550.3170, 3102.510
551.4910, 3051.723
552.6660, 2709.902
553.8410, 1975.008
555.0150, 1474.219
556.1890, 1114.446
557.3630, 887.1965
558.5370, 659.1316
559.7110, 457.0520
560.8840, 442.9004
562.0570, 379.7258
563.2310, 377.5920
564.4040, 383.6489
565.5760, 343.5330
566.7490, 263.0940
567.9220, 279.6536
569.0940, 296.6970
570.2660, 315.4390
571.4380, 193.8064
572.6100, 263.6592
573.7820, 250.9287
574.9530, 223.8982
576.1240, 270.8816
577.2960, 246.7649
578.4670, 261.9124
579.6370, 238.4136
580.8080, 175.0291
581.9790, 186.7014
583.1490, 133.3315
584.3190, 184.3796
585.4890, 229.0034
586.6590, 222.9893
587.8280, 207.7163
588.9980, 256.3865
590.1670, 280.4734
591.3360, 209.1606
592.5050, 265.3933
593.6740, 277.2087
594.8430, 213.4583
596.0110, 197.4326
597.1790, 204.2817
598.3480, 88.86646
599.5160, 182.1409
600.6830, 197.8120
601.8510, 115.2268
603.0180, 122.3040
604.1860, 98.96753
605.3530, 178.2478
606.5200, 257.1465
607.6870, 211.9951
608.8530, 121.0525
610.0200, 117.5066
611.1860, 285.1157
612.3520, 174.5083
613.5180, 217.3555
614.6840, 118.2544
615.8500, 308.9177
617.0150, 247.5552
618.1800, 238.4229
619.3450, 257.3835
620.5100, 301.3225
621.6750, 322.0596
622.8400, 368.9473
624.0040, 407.8743
625.1690, 418.1265
626.3330, 451.0552
627.4970, 469.3835
628.6610, 448.6147
629.8240, 477.4429
630.9880, 448.3989
632.1510, 483.0981
633.3140, 415.1572
634.4770, 379.7026
635.6400, 393.1738
636.8020, 271.2568
637.9650, 258.6506
639.1270, 321.9785
640.2890, 208.6843
641.4510, 289.2085
642.6130, 216.0791
643.7750, 228.8813
644.9360, 166.8833
646.0980, 97.12451
647.2590, 126.3418
648.4200, 113.5723
649.5810, 106.5747
650.7410, 164.0947
651.9020, 100.3164
653.0620, 192.6226
654.2220, 159.6304
655.3820, 118.7827
656.5420, 102.9067
657.7020, 141.6479
658.8610, 79.24805
660.0200, 95.06689
661.1800, 153.4565
662.3390, 108.5522
663.4970, 48.12012
664.6560, 48.54688
665.8150, 17.12305
666.9730, 14.34424
668.1310, 37.81543
669.2890, 23.11572
670.4470, 17.76025
671.6050, 24.12939
672.7620, 5.223145
673.9200, 22.22217
675.0770, 53.17725
676.2340, 52.06787
677.3910, 138.8931
678.5470, 44.65576
679.7040, 40.35156
680.8600, 125.9810
682.0160, 3.454590
683.1720, 84.04004
684.3280, 23.46777
685.4840, 28.83105
686.6390, 81.13086
687.7950, 96.36719
688.9500, 63.55029
690.1050, 46.70068
691.2600, 46.24512
692.4150, 55.80957
693.5690, 21.78369
694.7240, 11.69092
695.8780, 25.47266
697.0320, 62.28174
698.1860, 56.96680
699.3400, 65.58594
700.4930, 62.14990
701.6470, 43.64355
702.8000, 3.068848
703.9530, 21.42090
705.1060, 29.29932
706.2590, 68.89258
707.4110, 22.97705
708.5640, 1.931641
709.7160, 40.03369
710.8680, 24.33984
712.0200, 67.46680
713.1720, 92.15723
714.3230, 54.65625
715.4750, 10.75488
716.6260, 34.32764
717.7770, 27.94775
718.9280, 74.24707
720.0790, 119.0962
721.2300, 106.9209
722.3800, 3.557129
723.5300, 60.08887
724.6810, 9.150879
725.8300, 16.49854
726.9800, 27.99951
728.1300, 45.62354
729.2790, 37.25635
730.4290, 40.54199
731.5780, 15.00537
732.7270, 10.41016
733.8760, 90.49658
735.0240, 18.57471
736.1730, 17.71191
737.3210, 70.57471
738.4700, 39.83398
739.6180, 41.69727
740.7650, 22.19727
741.9130, 74.83643
743.0610, 21.29443
744.2080, 117.7939
745.3550, 11.13428
746.5020, 8.189941
747.6490, 45.23291
748.7960, 47.19922
749.9430, 41.76221
751.0890, 15.68408
752.2350, 12.21289
753.3810, 25.76904
754.5270, 77.87500
755.6730, 25.22998
756.8190, 4.458984
757.9640, 4.700195
759.1090, 23.02881
760.2540, 183.2720
761.3990, 150.4341
762.5440, 35.51514
763.6890, 94.50879
764.8330, 26.58252
765.9780, 79.22461
767.1220, 41.94385
768.2660, 159.5796
769.4100, 87.15625
770.5530, 188.6689
771.6970, 261.1323
772.8400, 236.5142
773.9830, 156.8315
775.1260, 245.8745
776.2690, 295.7793
777.4120, 273.8647
778.5540, 315.4033
779.6970, 219.2056
780.8390, 221.7422
781.9810, 160.2217
783.1230, 327.3413
784.2650, 318.0488
785.4060, 300.2461
786.5480, 229.6167
787.6890, 312.8682
788.8300, 259.6514
789.9710, 224.9028
791.1120, 283.0249
792.2520, 234.3867
793.3930, 226.5229
794.5330, 264.6011
795.6730, 322.3862
796.8130, 255.0591
797.9530, 342.9248
799.0930, 372.7954
800.2320, 523.4399
801.3710, 495.7002
802.5110, 476.8350
803.6500, 565.7891
804.7880, 712.0146
805.9270, 734.0972
807.0660, 804.2969
808.2040, 906.9453
809.3420, 933.1504
810.4800, 1023.446
811.6180, 1205.102
812.7560, 1284.095
813.8930, 1431.150
815.0310, 1607.200
816.1680, 1801.935
817.3050, 1960.592
818.4420, 2205.147
819.5790, 2410.704
820.7150, 2522.696
821.8520, 2784.799
822.9880, 2893.051
824.1240, 2960.516
825.2600, 3117.224
826.3960, 2957.367
827.5320, 2928.373
828.6670, 2736.809
829.8020, 2506.397
830.9380, 2265.718
832.0730, 2066.992
833.2080, 1946.377
834.3420, 1781.617
835.4770, 1566.825
836.6110, 1698.363
837.7450, 1528.369
838.8790, 1519.690
840.0130, 1396.539
841.1470, 1498.887
842.2810, 1548.810
843.4140, 1625.662
844.5470, 1669.361
845.6800, 1740.357
846.8130, 1783.642
847.9460, 1923.829
849.0790, 1890.585
850.2110, 1951.343
851.3440, 2012.026
852.4760, 1938.709
853.6080, 2000.697
854.7400, 1890.458
855.8710, 1998.761
857.0030, 1955.397
858.1340, 2151.953
859.2650, 2184.258
860.3960, 2424.527
861.5270, 2477.918
862.6580, 2680.502
863.7890, 2916.113
864.9190, 3299.250
866.0490, 3741.640
867.1790, 4447.417
868.3090, 4873.200
869.4390, 5593.833
870.5690, 6744.507
871.6980, 7708.542
872.8270, 9163.521
873.9570, 10661.79
875.0860, 12129.17
876.2140, 13873.11
877.3430, 14993.38
878.4720, 16481.25
879.6000, 17433.36
880.7280, 17645.19
881.8560, 17311.37
882.9840, 16248.42
884.1120, 14715.58
885.2390, 13253.69
886.3670, 11631.85
887.4940, 10240.74
888.6210, 8717.941
889.7480, 7645.842
890.8750, 6742.411
892.0020, 5912.461
893.1280, 5225.571
894.2540, 4781.580
895.3810, 4145.938
896.5070, 3773.230
897.6320, 3441.023
898.7580, 2978.246
899.8840, 2620.808
901.0090, 2257.473
902.1340, 1912.517
903.2590, 1656.765
904.3840, 1381.208
905.5090, 1250.090
906.6340, 1055.139
907.7580, 974.2900
908.8820, 849.1689
910.0060, 720.3848
911.1300, 781.5352
912.2540, 656.4443
913.3780, 734.0645
914.5010, 651.0352
915.6250, 589.9844
916.7480, 598.1436
917.8710, 602.7305
918.9940, 611.7949
920.1160, 503.5762
921.2390, 428.5820
922.3610, 428.0293
923.4840, 338.5635
924.6060, 380.4346
925.7280, 243.0928
926.8490, 371.0127
927.9710, 361.9766
929.0930, 337.7207
930.2140, 424.0674
931.3350, 367.3164
932.4560, 314.9170
933.5770, 351.0527
934.6980, 339.4551
935.8180, 351.8018
936.9380, 361.8945
938.0590, 355.8350
939.1790, 268.1064
940.2990, 305.1543
941.4180, 242.2383
942.5380, 134.7871
943.6570, 200.3379
944.7770, 150.2666
945.8960, 106.0000
947.0150, 73.89551
948.1340, 59.58008
949.2520, 89.67383
950.3710, 70.59570
951.4890, 69.91016
952.6070, 114.6543
953.7260, 32.70117
954.8430, 140.4561
955.9610, 12.70215
957.0790, 5.193359
958.1960, 24.41211
959.3130, 25.51465
960.4310, 107.2031
961.5480, 4.707031
962.6640, 24.95410
963.7810, 55.12891
964.8970, 16.80469
966.0140, 85.50977
967.1300, 26.17383
968.2460, 94.81543
969.3620, 14.76660
970.4780, 29.26953
971.5930, 91.33398
972.7090, 47.67773
973.8240, 59.58398
974.9390, 115.9131
976.0540, 59.59375
977.1690, 11.17773
978.2830, 101.1621
979.3980, 216.2549
980.5120, 74.29785
981.6260, 115.4199
982.7400, 126.0518
983.8540, 179.4258
984.9680, 61.12109
986.0820, 277.1035
987.1950, 307.9834
988.3080, 193.9414
989.4210, 284.9062
990.5340, 225.4443
991.6470, 207.4395
992.7600, 306.4658
993.8720, 179.8057
994.9850, 407.8477
996.0970, 239.2471
997.2090, 468.0400
998.3210, 334.1035
999.4320, 478.0156
1000.544, 608.7754
1001.655, 534.3799
1002.767, 533.8193
1003.878, 768.0889
1004.989, 755.1367
1006.100, 866.9961
1007.210, 938.6904
1008.321, 878.2031
1009.431, 963.5557
1010.541, 862.7471
1011.651, 855.7793
1012.761, 827.6396
1013.871, 901.3340
1014.980, 863.8643
1016.090, 700.2158
1017.199, 774.4043
1018.308, 815.4277
1019.417, 594.2783
1020.526, 520.9648
1021.635, 409.4854
1022.743, 312.8389
1023.852, 144.0312
1024.960, 51.06152
1026.068, 69.04590
1027.176, 128.8145
1028.283, 75.43457
1029.391, 157.7969
1030.498, 69.95703
1031.606, 189.9531
1032.713, 158.3125
1033.820, 116.9990
1034.927, 199.5225
1036.033, 83.89844
1037.140, 56.89160
1038.246, 44.08008
1039.353, 89.77930
1040.459, 205.8438
1041.564, 24.23340
1042.670, 22.22461
1043.776, 144.5547
1044.881, 11.73535
1045.987, 16.54102
1047.092, 9.693359
1048.197, 16.91895
1049.302, 17.28906
1050.406, 27.93848
1051.511, 127.9863
1052.615, 147.0215
1053.720, 271.5420
1054.824, 312.9365
1055.928, 118.2598
1057.031, 244.9629
1058.135, 190.1182
1059.238, 165.9385
1060.342, 314.9600
1061.445, 332.4463
1062.548, 437.9678
1063.651, 253.4189
1064.754, 313.2881
1065.856, 212.3848
1066.959, 198.1260
1068.061, 85.47949
1069.163, 269.0312
1070.265, 15.25391
1071.367, 167.4492
1072.469, 181.4902
1073.570, 147.3682
1074.671, 241.4238
1075.773, 204.8262
1076.874, 117.7764
1077.975, 126.2432
1079.075, 7.217773
1080.176, 218.8027
1081.276, 77.33496
1082.377, 54.71680
1083.477, 5.069336
1084.577, 168.4082
1085.677, 109.4600
1086.777, 131.0283
1087.876, 210.5566
1088.975, 137.9902
1090.075, 166.7539
1091.174, 176.4385
1092.273, 121.0479
1093.372, 155.8984
1094.470, 100.0674
1095.569, 127.4912
1096.667, 110.8682
1097.765, 0.3544920
1098.863, 28.39844
1099.961, 272.1592
1101.059, 1.003906
1102.157, 134.9727
1103.254, 180.4922
1104.351, 61.27246
1105.449, 261.7451
1106.546, 99.00781
1107.642, 192.0156
1108.739, 264.2363
1109.836, 190.0889
1110.932, 193.0898
1112.028, 160.9424
1113.124, 104.8213
1114.220, 190.5645
1115.316, 215.2148
1116.412, 101.6777
1117.507, 237.5859
1118.603, 229.6094
1119.698, 178.6699
1120.793, 139.4961
1121.888, 199.7090
1122.983, 342.8438
1124.077, 248.1543
1125.172, 136.1816
1126.266, 156.3633
1127.360, 333.4941
1128.454, 121.3633
1129.548, 299.1289
1130.642, 372.1875
1131.735, 369.9434
1132.829, 294.3574
1133.922, 445.7793
1135.015, 439.5332
1136.108, 503.4102
1137.201, 492.9316
1138.294, 554.7715
1139.386, 655.6875
1140.478, 562.3145
1141.571, 333.7148
1142.663, 489.8379
1143.755, 492.3477
1144.846, 396.4746
1145.938, 500.7207
1147.030, 499.1465
1148.121, 286.8184
1149.212, 376.3613
1150.303, 408.8164
1151.394, 330.2832
1152.485, 362.4961
1153.575, 371.2285
1154.666, 221.1406
1155.756, 108.7090
1156.846, 96.48242
1157.936, 54.06055
1159.026, 67.96484
1160.116, 85.89062
1161.205, 162.1250
1162.295, 183.9922
1163.384, 13.63477
1164.473, 100.1426
1165.562, 223.0723
1166.651, 78.84375
1167.739, 340.0527
1168.828, 148.4922
1169.916, 178.0078
1171.005, 0.6035160
1172.093, 0.0000000E+00
##END=



