##NAMES=Grossular
##RRUFFID=R060499
##IDEAL CHEMISTRY=Ca_3_Al_2_(SiO_4_)_3_
##LOCALITY=Lake Jaco, Chihuahua, Mexico
##OWNER=RRUFF
##SOURCE=Michael Scott
##DESCRIPTION=Tan colored single dodecahedral crystal
##STATUS=The identification of this mineral has been confirmed by X-ray diffraction and chemical analysis
##URL=rruff.info/R060499
##MEASURED CHEMISTRY=(Ca_2.90_Mg_0.10_)_Σ=3_(Al_1.78_Fe^3+^_0.19_Ti_0.03_)_Σ=2_(Si_1.00_O_4_)_3_
##PIN_ID=L01514
##ORIENTATION=Laser parallel to -a* (-1 0 0). Fiducial mark perpendicular to laser is parallel to -c [0 0 -1]
125.9590, 0.0000000E+00
127.1960, 6.443115
128.4330, 88.52271
129.6700, 117.2822
130.9060, 108.5752
132.1430, 52.38794
133.3790, 2.214111
134.6150, 33.73169
135.8500, 54.21094
137.0860, 37.02661
138.3210, 114.6685
139.5560, 79.24341
140.7910, 100.9001
142.0260, 18.98120
143.2610, 32.53784
144.4950, 22.44531
145.7290, 3.899658
146.9630, 53.88062
148.1970, 18.54248
149.4310, 86.61279
150.6640, 8.082031
151.8980, 65.93872
153.1310, 60.17017
154.3640, 70.76660
155.5970, 27.71729
156.8290, 24.01294
158.0620, 42.35547
159.2940, 14.60547
160.5260, 1.112061
161.7580, 8.486328
162.9890, 115.3950
164.2210, 135.5979
165.4520, 135.0742
166.6830, 165.9990
167.9140, 186.5693
169.1450, 295.3054
170.3760, 352.4160
171.6060, 441.8840
172.8360, 483.5818
174.0660, 671.5024
175.2960, 798.6404
176.5260, 1083.991
177.7550, 1557.549
178.9840, 2216.312
180.2130, 2525.275
181.4420, 2032.437
182.6710, 1324.794
183.9000, 928.3442
185.1280, 634.0830
186.3560, 373.0083
187.5840, 284.1191
188.8120, 210.4138
190.0400, 303.8916
191.2670, 163.5508
192.4950, 195.3916
193.7220, 134.4131
194.9490, 212.6152
196.1750, 183.9978
197.4020, 132.5605
198.6280, 146.3032
199.8540, 196.1938
201.0800, 140.1248
202.3060, 140.1008
203.5320, 144.1226
204.7570, 56.19678
205.9830, 23.65454
207.2080, 26.39185
208.4330, 73.94067
209.6570, 89.35571
210.8820, 9.351563
212.1060, 11.16504
213.3310, 3.610352
214.5550, 104.3611
215.7780, 60.15381
217.0020, 84.20483
218.2260, 129.3501
219.4490, 60.59229
220.6720, 15.93237
221.8950, 176.3708
223.1180, 158.9089
224.3400, 157.5483
225.5630, 271.2903
226.7850, 375.1353
228.0070, 511.0850
229.2290, 715.1396
230.4500, 1011.301
231.6720, 1375.569
232.8930, 1809.944
234.1140, 2408.426
235.3350, 2950.017
236.5560, 3691.715
237.7770, 4103.523
238.9970, 4228.440
240.2170, 4321.456
241.4370, 4254.544
242.6570, 4806.730
243.8770, 5404.023
245.0960, 6276.430
246.3160, 6123.945
247.5350, 5232.568
248.7540, 4128.303
249.9730, 3017.148
251.1910, 2252.103
252.4100, 1619.171
253.6280, 1185.352
254.8460, 985.6479
256.0640, 803.0605
257.2810, 780.5903
258.4990, 829.2388
259.7160, 771.2549
260.9330, 782.0630
262.1500, 847.9072
263.3670, 800.0371
264.5840, 923.2871
265.8000, 1023.657
267.0170, 1286.146
268.2330, 1483.754
269.4490, 1682.482
270.6640, 2060.331
271.8800, 2422.300
273.0950, 3378.813
274.3100, 4469.890
275.5260, 5679.299
276.7400, 6081.717
277.9550, 5510.291
279.1690, 4524.015
280.3840, 3401.117
281.5980, 2765.118
282.8120, 2251.225
284.0260, 1961.877
285.2390, 1734.256
286.4530, 1586.375
287.6660, 1439.826
288.8790, 1287.711
290.0920, 1029.700
291.3040, 968.1831
292.5170, 680.3423
293.7290, 386.9561
294.9410, 384.6787
296.1530, 249.7930
297.3650, 88.56543
298.5770, 21.21680
299.7880, 69.97168
301.0000, 13.89014
302.2110, 54.14062
303.4220, 77.07178
304.6320, 55.45605
305.8430, 252.7256
307.0530, 231.0264
308.2630, 265.4995
309.4730, 383.0723
310.6830, 428.7446
311.8930, 504.5146
313.1030, 494.3662
314.3120, 622.2480
315.5210, 640.2275
316.7300, 645.3027
317.9390, 894.4727
319.1470, 1075.736
320.3560, 1153.093
321.5640, 1304.541
322.7720, 1614.081
323.9800, 1821.712
325.1880, 2036.433
326.3950, 2358.242
327.6030, 2572.140
328.8100, 2546.126
330.0170, 2348.199
331.2240, 2032.359
332.4300, 1907.604
333.6370, 1745.934
334.8430, 1603.348
336.0490, 1511.847
337.2550, 1521.428
338.4610, 1553.091
339.6660, 1631.837
340.8720, 1888.664
342.0770, 2036.571
343.2820, 2267.558
344.4870, 2357.624
345.6920, 2405.769
346.8960, 2388.992
348.1010, 2434.293
349.3050, 2423.673
350.5090, 2623.131
351.7130, 2862.251
352.9160, 3001.388
354.1200, 3364.211
355.3230, 3958.610
356.5260, 4409.454
357.7290, 5191.374
358.9320, 6047.358
360.1350, 7154.407
361.3370, 8387.519
362.5390, 10248.71
363.7410, 12423.97
364.9430, 15005.30
366.1450, 18082.71
367.3470, 21063.20
368.5480, 24528.76
369.7490, 28951.40
370.9500, 33890.12
372.1510, 40612.95
373.3520, 46359.87
374.5520, 49412.89
375.7530, 48963.02
376.9530, 44111.26
378.1530, 38435.61
379.3520, 31698.07
380.5520, 25592.62
381.7510, 20763.29
382.9510, 16574.07
384.1500, 13593.96
385.3490, 11299.97
386.5480, 9414.099
387.7460, 8108.342
388.9440, 6917.699
390.1430, 5969.165
391.3410, 5277.721
392.5390, 4737.366
393.7360, 4330.095
394.9340, 3855.901
396.1310, 3647.780
397.3280, 3357.737
398.5250, 3402.766
399.7220, 3175.869
400.9190, 3149.041
402.1150, 2973.285
403.3120, 2838.602
404.5080, 2835.994
405.7040, 2843.467
406.8990, 2715.006
408.0950, 2721.631
409.2900, 2789.365
410.4860, 2780.189
411.6810, 2842.104
412.8760, 2632.253
414.0700, 2446.269
415.2650, 2088.508
416.4590, 1807.845
417.6540, 1372.284
418.8480, 1062.843
420.0420, 799.5254
421.2350, 527.3086
422.4290, 460.1768
423.6220, 246.1289
424.8150, 71.16162
426.0080, 96.26807
427.2010, 25.54980
428.3940, 15.69922
429.5860, 74.98633
430.7790, 81.60352
431.9710, 157.1748
433.1630, 154.7090
434.3540, 30.21094
435.5460, 107.6260
436.7370, 66.96924
437.9290, 24.23486
439.1200, 37.40918
440.3110, 59.50439
441.5010, 32.47510
442.6920, 0.4628910
443.8820, 83.15918
445.0730, 69.39062
446.2630, 236.6162
447.4530, 314.3071
448.6420, 364.7939
449.8320, 455.3403
451.0210, 621.9434
452.2100, 735.6040
453.3990, 789.3164
454.5880, 919.0796
455.7770, 893.8936
456.9660, 900.7568
458.1540, 938.6699
459.3420, 991.6318
460.5300, 996.6426
461.7180, 1011.214
462.9050, 949.8052
464.0930, 991.9565
465.2800, 1003.153
466.4670, 966.3960
467.6540, 1125.683
468.8410, 1007.014
470.0280, 1205.388
471.2140, 1370.805
472.4000, 1437.264
473.5870, 1495.765
474.7720, 1532.306
475.9580, 1516.888
477.1440, 1524.509
478.3290, 1456.170
479.5140, 1310.869
480.6990, 1200.606
481.8840, 1125.381
483.0690, 1118.192
484.2540, 984.0396
485.4380, 1058.923
486.6220, 1140.841
487.8060, 1126.793
488.9900, 1056.780
490.1740, 1318.799
491.3570, 1356.852
492.5410, 1603.937
493.7240, 1614.052
494.9070, 1747.201
496.0900, 1836.383
497.2720, 1950.603
498.4550, 1954.862
499.6370, 1949.150
500.8190, 1914.467
502.0010, 1927.811
503.1830, 1964.182
504.3650, 1850.579
505.5460, 2057.002
506.7280, 2035.450
507.9090, 2006.924
509.0900, 1869.421
510.2710, 1833.942
511.4510, 1665.381
512.6320, 1539.225
513.8120, 1349.003
514.9920, 1332.961
516.1720, 1300.793
517.3520, 1111.694
518.5310, 1124.535
519.7110, 1093.759
520.8900, 1026.805
522.0690, 1120.111
523.2480, 1141.502
524.4270, 1150.601
525.6050, 1183.611
526.7840, 1182.322
527.9620, 1131.209
529.1400, 1342.324
530.3180, 1428.290
531.4960, 1732.362
532.6730, 1954.784
533.8510, 2391.212
535.0280, 2936.053
536.2050, 3612.971
537.3820, 4623.798
538.5590, 5821.301
539.7350, 7495.955
540.9120, 9488.890
542.0880, 12148.14
543.2640, 15069.03
544.4400, 16997.00
545.6150, 17407.73
546.7910, 15314.11
547.9660, 12125.04
549.1410, 9462.844
550.3170, 6983.015
551.4910, 5129.390
552.6660, 3944.174
553.8410, 3146.524
555.0150, 2601.232
556.1890, 2403.916
557.3630, 2073.530
558.5370, 1972.441
559.7110, 1981.553
560.8840, 2048.301
562.0570, 1993.598
563.2310, 2028.204
564.4040, 1940.886
565.5760, 1942.985
566.7490, 1843.757
567.9220, 1721.778
569.0940, 1775.948
570.2660, 1730.482
571.4380, 1630.443
572.6100, 1593.072
573.7820, 1510.397
574.9530, 1406.714
576.1240, 1335.269
577.2960, 1239.036
578.4670, 1203.656
579.6370, 1072.580
580.8080, 1123.014
581.9790, 1044.947
583.1490, 890.3545
584.3190, 919.2021
585.4890, 891.7402
586.6590, 792.2690
587.8280, 787.6250
588.9980, 760.2329
590.1670, 711.9795
591.3360, 684.3394
592.5050, 630.9031
593.6740, 622.8137
594.8430, 565.6880
596.0110, 547.5249
597.1790, 647.3242
598.3480, 686.0854
599.5160, 841.8086
600.6830, 854.4929
601.8510, 1084.138
603.0180, 1105.744
604.1860, 1260.310
605.3530, 1280.837
606.5200, 1431.323
607.6870, 1461.768
608.8530, 1625.172
610.0200, 1614.535
611.1860, 1679.857
612.3520, 1781.136
613.5180, 1929.373
614.6840, 1784.568
615.8500, 2050.719
617.0150, 2043.829
618.1800, 2155.894
619.3450, 2345.915
620.5100, 2440.893
621.6750, 2636.827
622.8400, 2838.716
624.0040, 3081.560
625.1690, 3307.360
626.3330, 3406.114
627.4970, 3478.823
628.6610, 3353.487
629.8240, 3396.104
630.9880, 3156.676
632.1510, 2904.200
633.3140, 2659.679
634.4770, 2313.112
635.6400, 1976.496
636.8020, 1726.834
637.9650, 1498.125
639.1270, 1258.367
640.2890, 1103.562
641.4510, 902.4578
642.6130, 746.5015
643.7750, 593.8594
644.9360, 472.8616
646.0980, 383.2031
647.2590, 285.7202
648.4200, 210.5762
649.5810, 142.3831
650.7410, 49.14087
651.9020, 40.82910
653.0620, 10.55640
654.2220, 13.04077
655.3820, 26.62573
656.5420, 59.31787
657.7020, 58.13501
658.8610, 64.07593
660.0200, 61.14404
661.1800, 49.33789
662.3390, 66.65088
663.4970, 62.09204
664.6560, 108.6587
665.8150, 104.1179
666.9730, 107.2385
668.1310, 111.2502
669.2890, 93.41211
670.4470, 79.71436
671.6050, 22.14893
672.7620, 6.981201
673.9200, 1.684570
675.0770, 36.96680
676.2340, 38.17798
677.3910, 22.31982
678.5470, 40.38550
679.7040, 32.38330
680.8600, 49.31104
682.0160, 31.17578
683.1720, 27.97095
684.3280, 11.69604
685.4840, 15.69702
686.6390, 52.90039
687.7950, 40.60254
688.9500, 127.2085
690.1050, 67.96143
691.2600, 59.83008
692.4150, 149.8091
693.5690, 156.9448
694.7240, 110.2397
695.8780, 110.6692
697.0320, 69.23169
698.1860, 121.9048
699.3400, 149.7146
700.4930, 64.67529
701.6470, 7.740479
702.8000, 10.87939
703.9530, 13.90723
705.1060, 20.63403
706.2590, 10.30566
707.4110, 20.91748
708.5640, 79.47925
709.7160, 37.00073
710.8680, 111.4468
712.0200, 9.135986
713.1720, 8.236816
714.3230, 85.42505
715.4750, 92.18530
716.6260, 89.03711
717.7770, 111.9824
718.9280, 79.03687
720.0790, 82.18066
721.2300, 72.41187
722.3800, 66.72974
723.5300, 111.1296
724.6810, 81.63403
725.8300, 113.2266
726.9800, 71.92163
728.1300, 8.696289
729.2790, 1.483398
730.4290, 9.376953
731.5780, 102.7200
732.7270, 119.7842
733.8760, 149.8164
735.0240, 266.8171
736.1730, 236.7866
737.3210, 287.7256
738.4700, 467.6343
739.6180, 413.5132
740.7650, 518.3623
741.9130, 621.1826
743.0610, 716.9744
744.2080, 793.7383
745.3550, 895.4746
746.5020, 902.1836
747.6490, 1008.866
748.7960, 1133.522
749.9430, 1059.152
751.0890, 1210.756
752.2350, 1197.336
753.3810, 1176.892
754.5270, 1287.423
755.6730, 1251.932
756.8190, 1449.417
757.9640, 1518.879
759.1090, 1556.319
760.2540, 1809.738
761.3990, 1854.135
762.5440, 2015.512
763.6890, 2270.869
764.8330, 2517.206
765.9780, 2867.525
767.1220, 3169.824
768.2660, 3565.105
769.4100, 3934.368
770.5530, 4157.615
771.6970, 4400.845
772.8400, 4475.059
773.9830, 4522.257
775.1260, 4493.438
776.2690, 4141.606
777.4120, 4079.762
778.5540, 3699.901
779.6970, 3548.028
780.8390, 3308.142
781.9810, 2972.245
783.1230, 2669.335
784.2650, 2600.416
785.4060, 2334.485
786.5480, 2312.546
787.6890, 2241.596
788.8300, 2109.747
789.9710, 2142.507
791.1120, 2183.358
792.2520, 2176.044
793.3930, 2282.876
794.5330, 2356.661
795.6730, 2347.547
796.8130, 2471.082
797.9530, 2509.835
799.0930, 2730.351
800.2320, 2784.802
801.3710, 2962.581
802.5110, 3180.491
803.6500, 3454.730
804.7880, 3655.832
805.9270, 4065.761
807.0660, 4265.862
808.2040, 4810.896
809.3420, 5250.625
810.4800, 5802.388
811.6180, 6428.758
812.7560, 7020.090
813.8930, 7884.527
815.0310, 8625.321
816.1680, 9387.002
817.3050, 10449.44
818.4420, 11275.61
819.5790, 11912.19
820.7150, 12583.70
821.8520, 12912.48
822.9880, 12992.65
824.1240, 12685.30
825.2600, 12146.11
826.3960, 11604.59
827.5320, 10717.92
828.6670, 10022.87
829.8020, 9374.305
830.9380, 8704.424
832.0730, 8192.600
833.2080, 7681.892
834.3420, 7380.928
835.4770, 7069.804
836.6110, 6874.062
837.7450, 6681.427
838.8790, 6531.591
840.0130, 6445.690
841.1470, 6331.734
842.2810, 6284.136
843.4140, 6217.326
844.5470, 6236.977
845.6800, 6218.696
846.8130, 6265.400
847.9460, 6269.259
849.0790, 6372.009
850.2110, 6313.861
851.3440, 6422.120
852.4760, 6520.100
853.6080, 6645.607
854.7400, 6830.465
855.8710, 7079.729
857.0030, 7442.952
858.1340, 7830.948
859.2650, 8302.466
860.3960, 8939.357
861.5270, 9643.273
862.6580, 10595.37
863.7890, 11799.24
864.9190, 13069.98
866.0490, 15057.12
867.1790, 17174.06
868.3090, 19924.67
869.4390, 22952.33
870.5690, 26494.03
871.6980, 30352.63
872.8270, 34807.57
873.9570, 38228.41
875.0860, 42275.30
876.2140, 44875.24
877.3430, 46194.23
878.4720, 46469.26
879.6000, 44261.34
880.7280, 41471.49
881.8560, 37891.67
882.9840, 33529.91
884.1120, 28979.19
885.2390, 25008.53
886.3670, 21537.92
887.4940, 18514.35
888.6210, 15592.83
889.7480, 13552.38
890.8750, 11861.97
892.0020, 10231.61
893.1280, 9164.303
894.2540, 8012.049
895.3810, 7201.848
896.5070, 6663.701
897.6320, 6045.604
898.7580, 5642.562
899.8840, 5311.573
901.0090, 5015.638
902.1340, 4736.274
903.2590, 4464.928
904.3840, 4333.156
905.5090, 4181.436
906.6340, 4133.769
907.7580, 4013.157
908.8820, 3917.603
910.0060, 3778.100
911.1300, 3764.653
912.2540, 3917.261
913.3780, 3827.924
914.5010, 3861.642
915.6250, 3869.417
916.7480, 3918.245
917.8710, 4109.130
918.9940, 4162.070
920.1160, 4165.065
921.2390, 4147.369
922.3610, 4274.478
923.4840, 4257.893
924.6060, 4325.409
925.7280, 4237.295
926.8490, 4318.004
927.9710, 4225.451
929.0930, 4204.725
930.2140, 4172.581
931.3350, 4076.125
932.4560, 4157.162
933.5770, 4061.931
934.6980, 4134.058
935.8180, 4088.708
936.9380, 4209.183
938.0590, 4190.632
939.1790, 4135.194
940.2990, 4105.729
941.4180, 4152.245
942.5380, 4015.804
943.6570, 3936.942
944.7770, 3852.455
945.8960, 3917.526
947.0150, 3507.219
948.1340, 3588.302
949.2520, 3340.462
950.3710, 3082.497
951.4890, 2954.459
952.6070, 2723.591
953.7260, 2692.344
954.8430, 2382.940
955.9610, 2275.536
957.0790, 2014.262
958.1960, 1868.184
959.3130, 1837.355
960.4310, 1584.292
961.5480, 1540.157
962.6640, 1372.414
963.7810, 1307.391
964.8970, 1350.459
966.0140, 1378.159
967.1300, 1424.475
968.2460, 1712.397
969.3620, 2005.106
970.4780, 2184.742
971.5930, 2387.741
972.7090, 2855.214
973.8240, 2997.527
974.9390, 3409.499
976.0540, 3690.294
977.1690, 3872.433
978.2830, 3945.912
979.3980, 4223.960
980.5120, 4475.663
981.6260, 4383.922
982.7400, 4420.077
983.8540, 4514.852
984.9680, 4448.065
986.0820, 4481.346
987.1950, 4520.694
988.3080, 4472.105
989.4210, 4417.588
990.5340, 4446.326
991.6470, 4413.735
992.7600, 4471.397
993.8720, 4450.113
994.9850, 4483.895
996.0970, 4387.734
997.2090, 4562.637
998.3210, 4488.597
999.4320, 4566.591
1000.544, 4591.616
1001.655, 4763.676
1002.767, 4824.765
1003.878, 4724.883
1004.989, 4690.028
1006.100, 4479.202
1007.210, 4175.401
1008.321, 3940.629
1009.431, 3570.883
1010.541, 3237.163
1011.651, 2648.469
1012.761, 2502.800
1013.871, 2117.156
1014.980, 1871.536
1016.090, 1607.941
1017.199, 1452.370
1018.308, 1345.822
1019.417, 1217.821
1020.526, 1148.586
1021.635, 1123.326
1022.743, 1086.883
1023.852, 1141.468
1024.960, 1228.076
1026.068, 1262.711
1027.176, 1358.391
1028.283, 1388.093
1029.391, 1399.048
1030.498, 1402.414
1031.606, 1357.361
1032.713, 1300.158
1033.820, 1201.974
1034.927, 1049.809
1036.033, 851.6641
1037.140, 699.5381
1038.246, 539.4302
1039.353, 461.3398
1040.459, 336.2642
1041.564, 343.2036
1042.670, 219.1567
1043.776, 128.1240
1044.881, 120.1050
1045.987, 55.10059
1047.092, 205.1084
1048.197, 82.12891
1049.302, 105.1611
1050.406, 16.20459
1051.511, 24.28271
1052.615, 27.35791
1053.720, 15.55664
1054.824, 21.53955
1055.928, 14.52783
1057.031, 16.24756
1058.135, 59.13574
1059.238, 16.98535
1060.342, 39.88184
1061.445, 57.65479
1062.548, 120.5718
1063.651, 94.53467
1064.754, 115.3403
1065.856, 53.38477
1066.959, 35.23438
1068.061, 97.17725
1069.163, 122.2949
1070.265, 69.37207
1071.367, 99.57959
1072.469, 158.8364
1073.570, 41.17627
1074.671, 103.5396
1075.773, 108.9600
1076.874, 95.44336
1077.975, 18.98389
1079.075, 91.54248
1080.176, 27.83984
1081.276, 60.78223
1082.377, 87.44971
1083.477, 83.17822
1084.577, 82.81934
1085.677, 105.6685
1086.777, 20.50146
1087.876, 33.45703
1088.975, 32.50073
1090.075, 48.48926
1091.174, 65.57642
1092.273, 58.72534
1093.372, 101.9326
1094.470, 57.22388
1095.569, 81.57617
1096.667, 79.62842
1097.765, 38.50708
1098.863, 77.06592
1099.961, 67.70312
1101.059, 61.41357
1102.157, 24.80371
1103.254, 28.00781
1104.351, 16.87549
1105.449, 27.79590
1106.546, 51.77539
1107.642, 14.82764
1108.739, 49.93408
1109.836, 54.88477
1110.932, 3.678467
1112.028, 30.42358
1113.124, 22.13330
1114.220, 87.80176
1115.316, 37.44922
1116.412, 109.0601
1117.507, 180.6543
1118.603, 230.2351
1119.698, 306.7988
1120.793, 261.3418
1121.888, 268.8635
1122.983, 201.3623
1124.077, 220.4702
1125.172, 301.2915
1126.266, 230.7212
1127.360, 243.1272
1128.454, 225.5078
1129.548, 217.8643
1130.642, 268.1951
1131.735, 226.5005
1132.829, 238.7800
1133.922, 325.0342
1135.015, 256.2627
1136.108, 397.4641
1137.201, 429.6384
1138.294, 444.7874
1139.386, 467.9092
1140.478, 440.0032
1141.571, 458.9456
1142.663, 414.1079
1143.755, 475.1194
1144.846, 449.1025
1145.938, 480.0574
1147.030, 457.9834
1148.121, 535.8806
1149.212, 458.7480
1150.303, 495.5859
1151.394, 447.6003
1152.485, 400.8328
1153.575, 519.2917
1154.666, 479.6179
1155.756, 442.5496
1156.846, 425.8000
1157.936, 497.1882
1159.026, 432.0481
1160.116, 401.2310
1161.205, 502.4092
1162.295, 462.1611
1163.384, 408.8916
1164.473, 456.6519
1165.562, 444.3286
1166.651, 437.5737
1167.739, 509.4944
1168.828, 488.3032
1169.916, 393.0305
1171.005, 279.3518
1172.093, 404.5437
1173.181, 426.6995
1174.268, 375.9133
1175.356, 410.2234
1176.443, 392.0637
1177.531, 366.7444
1178.618, 383.8826
1179.705, 366.0647
1180.792, 375.1226
1181.879, 261.3762
1182.965, 365.4697
1184.052, 342.3706
1185.138, 324.1650
1186.224, 413.8916
1187.310, 315.3313
1188.396, 370.8652
1189.482, 261.9207
1190.567, 312.3298
1191.653, 243.9263
1192.738, 307.7168
1193.823, 350.9683
1194.908, 228.5867
1195.993, 285.7686
1197.077, 221.2771
1198.162, 232.4790
1199.246, 287.2148
1200.331, 232.2705
1201.415, 265.9275
1202.499, 273.9785
1203.582, 272.7266
1204.666, 280.9263
1205.750, 289.1455
1206.833, 258.8450
1207.916, 270.2163
1208.999, 332.0684
1210.082, 347.3372
1211.165, 275.2444
1212.248, 254.1018
1213.330, 342.1165
1214.412, 175.2324
1215.495, 287.3472
1216.577, 177.7236
1217.658, 262.2847
1218.740, 221.8738
1219.822, 297.3662
1220.903, 335.6995
1221.985, 309.8071
1223.066, 341.5630
1224.147, 399.7175
1225.228, 319.8103
1226.308, 307.4136
1227.389, 273.9053
1228.469, 312.8921
1229.550, 250.2690
1230.630, 251.0989
1231.710, 206.1936
1232.790, 147.4199
1233.869, 169.8196
1234.949, 230.1016
1236.028, 202.9539
1237.108, 247.1187
1238.187, 301.5298
1239.266, 232.5005
1240.344, 263.2026
1241.423, 206.3867
1242.502, 274.9360
1243.580, 205.8809
1244.658, 316.9336
1245.736, 204.4648
1246.814, 189.1826
1247.892, 221.7397
1248.970, 280.6763
1250.047, 295.7231
1251.125, 206.8008
1252.202, 255.6968
1253.279, 217.5708
1254.356, 272.5503
1255.433, 319.3804
1256.509, 243.1890
1257.586, 145.9756
1258.662, 358.7407
1259.738, 238.4854
1260.814, 190.2705
1261.890, 246.9961
1262.966, 214.9019
1264.042, 185.5620
1265.117, 233.2007
1266.193, 189.8477
1267.268, 193.7393
1268.343, 196.3174
1269.418, 171.8750
1270.492, 151.5215
1271.567, 126.0840
1272.642, 173.7515
1273.716, 126.4653
1274.790, 149.9229
1275.864, 500.4624
1276.938, 746.8813
1278.012, 703.2812
1279.085, 198.7603
1280.159, 59.12598
1281.232, 10.50781
1282.305, 23.79688
1283.378, 2.291016
1284.451, 52.53711
1285.524, 1.762207
1286.597, 65.04541
1287.669, 48.07910
1288.741, 15.81641
1289.813, 0.7534180
1290.885, 47.27734
1291.957, 45.28857
1293.029, 38.28076
1294.101, 42.28174
1295.172, 11.20752
1296.243, 20.13672
1297.315, 23.04492
1298.386, 24.93213
1299.456, 68.80322
1300.527, 90.65723
1301.598, 91.49512
1302.668, 67.31982
1303.738, 42.12793
1304.809, 20.91846
1305.879, 87.68994
1306.948, 48.44531
1308.018, 37.18506
1309.088, 48.90625
1310.157, 21.38867
1311.226, 32.26660
1312.296, 57.91748
1313.365, 5.448242
1314.433, 135.1621
1315.502, 113.7578
1316.571, 38.34180
1317.639, 70.91406
1318.707, 38.43262
1319.776, 65.99023
1320.844, 71.41016
1321.911, 140.9565
1322.979, 116.5166
1324.047, 142.8911
1325.114, 91.47168
1326.181, 69.83789
1327.249, 82.28076
1328.316, 47.57666
1329.382, 49.10645
1330.449, 36.98096
1331.516, 50.60352
1332.582, 84.25586
1333.648, 116.9087
1334.715, 133.5796
1335.781, 169.2700
1336.846, 150.9775
1337.912, 120.6812
1338.978, 192.4014
1340.043, 82.11133
1341.108, 207.8306
1342.174, 117.5679
1343.239, 24.17383
1344.303, 170.9409
1345.368, 196.6260
1346.433, 182.4038
1347.497, 120.1885
1348.561, 156.9805
1349.626, 128.7842
1350.690, 55.60547
1351.753, 93.44287
1352.817, 65.30615
1353.881, 136.1870
1354.944, 92.08936
1356.007, 39.01514
1357.071, 169.9526
1358.134, 97.91309
1359.196, 49.89502
1360.259, 57.89795
1361.322, 23.12500
1362.384, 16.91211
1363.447, 10.93604
1364.509, 24.97412
1365.571, 13.03369
1366.633, 41.10547
1367.694, 29.04004
1368.756, 21.29199
1369.817, 19.39307
1370.879, 38.49805
1371.940, 40.60791
1373.001, 22.71387
1374.062, 15.17725
1375.122, 29.07666
1376.183, 19.65771
1377.244, 21.09229
1378.304, 8.167480
1379.364, 85.23828
1380.424, 88.30615
1381.484, 15.36963
1382.544, 60.42920
1383.603, 65.48584
1384.663, 65.53906
1385.722, 67.53809
1386.781, 118.6353
1387.840, 29.67871
1388.899, 38.81934
1389.958, 1.143066
1391.017, 84.89062
1392.075, 51.92236
1393.134, 36.95166
1394.192, 5.020508
1395.250, 69.32373
1396.308, 132.3467
1397.365, 17.36865
1398.423, 32.38965
1399.481, 2.409668
1400.538, 2.571289
1401.595, 48.44629
1402.652, 18.46436
1403.709, 102.4985
1404.766, 72.57178
1405.823, 18.73145
1406.879, 104.5806
1407.936, 37.46045
1408.992, 90.02783
1410.048, 2.659668
1411.104, 45.79102
1412.160, 94.57373
1413.215, 120.0083
1414.271, 144.3242
1415.326, 103.0601
1416.382, 157.4976
1417.437, 103.8882
1418.492, 57.66748
1419.546, 76.44092
1420.601, 67.45752
1421.656, 61.74365
1422.710, 83.58936
1423.764, 65.11230
1424.819, 112.6592
1425.873, 117.1758
1426.926, 144.1123
1427.980, 152.1450
1429.034, 132.6118
1430.087, 101.5562
1431.140, 123.3521
1432.194, 161.8989
1433.247, 118.8218
1434.299, 167.5684
1435.352, 183.1602
1436.405, 92.79102
1437.457, 108.1396
1438.510, 185.7432
1439.562, 142.1060
1440.614, 239.8481
1441.666, 154.7065
1442.717, 178.5483
1443.769, 213.5312
1444.821, 233.5767
1445.872, 250.5225
1446.923, 263.5889
1447.974, 266.5811
1449.025, 266.4492
1450.076, 253.5249
1451.127, 234.6055
1452.177, 299.6895
1453.227, 259.7783
1454.278, 282.8701
1455.328, 357.8052
1456.378, 301.9043
1457.428, 272.0073
1458.477, 164.1118
1459.527, 232.2188
1460.576, 272.3267
1461.625, 285.3706
1462.675, 296.4736
1463.724, 294.1035
1464.772, 277.1709
1465.821, 257.9502
1466.870, 245.8965
1467.918, 211.6807
1468.966, 292.6675
1470.015, 264.6621
1471.063, 327.3135
1472.110, 268.9619
1473.158, 235.9600
1474.206, 203.7764
1475.253, 201.7617
1476.301, 241.7397
1477.348, 253.5884
1478.395, 192.2256
1479.442, 234.1382
1480.488, 193.6479
1481.535, 256.4165
1482.582, 216.0132
1483.628, 131.5610
1484.674, 117.3032
1485.720, 126.0366
1486.766, 122.8701
1487.812, 111.2900
1488.858, 189.3398
1489.903, 107.3198
1490.949, 102.3589
1491.994, 137.4424
1493.039, 29.52832
1494.084, 172.6221
1495.129, 157.7305
1496.173, 143.8340
1497.218, 65.93311
1498.262, 64.02881
1499.307, 61.13281
1500.351, 139.2427
1501.395, 118.3452
1502.439, 110.5601
1503.483, 95.76758
1504.526, 98.98145
1505.570, 86.98193
1506.613, 47.41113
1507.656, 62.63135
1508.699, 80.85059
1509.742, 50.06836
1510.785, 91.28760
1511.827, 65.50391
1512.870, 30.71924
1513.912, 2.932617
1514.955, 38.15137
1515.997, 80.37988
1517.039, 81.61865
1518.080, 111.9268
1519.122, 45.29346
1520.164, 8.325684
1521.205, 96.06982
1522.246, 43.48975
1523.288, 59.94141
1524.329, 87.42969
1525.369, 46.95361
1526.410, 76.51367
1527.451, 54.97754
1528.491, 30.72363
1529.531, 22.36279
1530.572, 4.025879
1531.612, 14.28516
1532.652, 22.43213
1533.691, 51.17822
1534.731, 60.95068
1535.770, 32.75244
1536.810, 72.58594
1537.849, 45.45557
1538.888, 62.36621
1539.927, 40.81641
1540.966, 40.80127
1542.005, 63.83545
1543.043, 64.05420
1544.082, 75.09082
1545.120, 2.168945
1546.158, 102.2847
1547.196, 14.91357
1548.234, 28.59570
1549.272, 42.73535
1550.309, 7.967773
1551.347, 84.53760
1552.384, 138.7739
1553.421, 2.794922
1554.458, 160.0469
1555.495, 156.7837
1556.532, 176.9653
1557.568, 82.02344
1558.605, 63.47070
1559.641, 38.27734
1560.678, 67.14795
1561.714, 37.64600
1562.750, 6.0059000E-02
1563.785, 0.0000000E+00
##END=



