##NAMES=Grossular
##RRUFFID=R060499
##IDEAL CHEMISTRY=Ca_3_Al_2_(SiO_4_)_3_
##LOCALITY=Lake Jaco, Chihuahua, Mexico
##OWNER=RRUFF
##SOURCE=Michael Scott
##DESCRIPTION=Tan colored single dodecahedral crystal
##STATUS=The identification of this mineral has been confirmed by X-ray diffraction and chemical analysis
##URL=rruff.info/R060499
##MEASURED CHEMISTRY=(Ca_2.90_Mg_0.10_)_Σ=3_(Al_1.78_Fe^3+^_0.19_Ti_0.03_)_Σ=2_(Si_1.00_O_4_)_3_
##PIN_ID=L01514
##ORIENTATION=Laser parallel to -a* (-1 0 0). Fiducial mark perpendicular to laser is parallel to -c [0 0 -1]
125.9590, 0.0000000E+00
127.1960, 30.00806
128.4330, 48.49072
129.6700, 102.4980
130.9060, 103.5513
132.1430, 91.43530
133.3790, 53.65405
134.6150, 2.463135
135.8500, 17.16943
137.0860, 52.43872
138.3210, 103.3120
139.5560, 132.2556
140.7910, 85.34937
142.0260, 36.83643
143.2610, 39.05859
144.4950, 15.04688
145.7290, 4.467773
146.9630, 4.787598
148.1970, 34.16724
149.4310, 32.84033
150.6640, 11.87891
151.8980, 33.98950
153.1310, 52.37598
154.3640, 45.04272
155.5970, 4.008545
156.8290, 5.223877
158.0620, 16.73877
159.2940, 27.93652
160.5260, 47.61377
161.7580, 100.9722
162.9890, 154.6096
164.2210, 213.5144
165.4520, 198.6689
166.6830, 250.2073
167.9140, 454.4526
169.1450, 448.8430
170.3760, 604.5669
171.6060, 840.4922
172.8360, 990.2422
174.0660, 1297.778
175.2960, 1759.817
176.5260, 2647.329
177.7550, 4007.064
178.9840, 5774.016
180.2130, 7159.180
181.4420, 6125.555
182.6710, 4143.136
183.9000, 2558.919
185.1280, 1492.903
186.3560, 846.0820
187.5840, 498.4543
188.8120, 257.0181
190.0400, 222.7708
191.2670, 121.7126
192.4950, 83.84155
193.7220, 100.1580
194.9490, 241.6616
196.1750, 198.3513
197.4020, 154.2278
198.6280, 160.2903
199.8540, 107.5044
201.0800, 167.7688
202.3060, 165.0859
203.5320, 69.45850
204.7570, 45.87598
205.9830, 1.641602
207.2080, 2.914795
208.4330, 49.44458
209.6570, 34.72046
210.8820, 16.85498
212.1060, 58.84351
213.3310, 17.65674
214.5550, 26.66528
215.7780, 69.08350
217.0020, 66.59595
218.2260, 57.79517
219.4490, 40.08813
220.6720, 37.28101
221.8950, 2.374023
223.1180, 6.365723
224.3400, 54.25586
225.5630, 54.95654
226.7850, 120.2722
228.0070, 105.6929
229.2290, 326.2195
230.4500, 386.8521
231.6720, 489.5923
232.8930, 793.4402
234.1140, 1045.396
235.3350, 1259.461
236.5560, 1617.635
237.7770, 1662.919
238.9970, 1800.312
240.2170, 1842.815
241.4370, 1744.409
242.6570, 1749.098
243.8770, 2031.886
245.0960, 2248.785
246.3160, 2179.777
247.5350, 2082.867
248.7540, 1633.062
249.9730, 1301.363
251.1910, 1101.776
252.4100, 909.3057
253.6280, 777.9514
254.8460, 729.7151
256.0640, 634.5977
257.2810, 664.6016
258.4990, 775.7266
259.7160, 788.7578
260.9330, 1187.344
262.1500, 940.8374
263.3670, 879.4551
264.5840, 915.1963
265.8000, 1327.062
267.0170, 1194.820
268.2330, 1289.161
269.4490, 1325.394
270.6640, 1318.750
271.8800, 1584.230
273.0950, 1681.034
274.3100, 2128.929
275.5260, 2453.894
276.7400, 2592.952
277.9550, 2497.980
279.1690, 2203.156
280.3840, 1923.479
281.5980, 1635.071
282.8120, 1529.399
284.0260, 1412.380
285.2390, 1392.791
286.4530, 1318.759
287.6660, 1305.850
288.8790, 1191.071
290.0920, 1019.025
291.3040, 905.5786
292.5170, 738.0127
293.7290, 689.2612
294.9410, 481.8413
296.1530, 283.6313
297.3650, 222.3081
298.5770, 218.7480
299.7880, 236.8140
301.0000, 257.8535
302.2110, 335.7896
303.4220, 410.3770
304.6320, 562.0684
305.8430, 620.8623
307.0530, 660.7573
308.2630, 662.7534
309.4730, 742.2007
310.6830, 786.0430
311.8930, 861.3345
313.1030, 925.6919
314.3120, 962.1685
315.5210, 1027.697
316.7300, 1057.310
317.9390, 1106.443
319.1470, 1168.533
320.3560, 1208.647
321.5640, 1288.580
322.7720, 1375.606
323.9800, 1431.725
325.1880, 1647.937
326.3950, 1666.239
327.6030, 1703.632
328.8100, 1792.115
330.0170, 1716.687
331.2240, 1657.347
332.4300, 1493.095
333.6370, 1508.930
334.8430, 1471.851
336.0490, 1464.857
337.2550, 1491.949
338.4610, 1531.125
339.6660, 1684.383
340.8720, 1727.726
342.0770, 1819.150
343.2820, 2101.655
344.4870, 2244.242
345.6920, 2265.909
346.8960, 2536.655
348.1010, 2630.482
349.3050, 2759.389
350.5090, 2915.375
351.7130, 3339.399
352.9160, 3734.546
354.1200, 4267.594
355.3230, 5029.158
356.5260, 5826.241
357.7290, 6904.296
358.9320, 8199.525
360.1350, 9988.141
361.3370, 11975.83
362.5390, 15187.60
363.7410, 18391.13
364.9430, 22887.24
366.1450, 26821.50
367.3470, 30097.53
368.5480, 32031.60
369.7490, 33727.66
370.9500, 36320.98
372.1510, 39497.38
373.3520, 42778.88
374.5520, 44511.48
375.7530, 43501.22
376.9530, 39404.07
378.1530, 33524.02
379.3520, 27448.08
380.5520, 22384.27
381.7510, 18106.57
382.9510, 14589.99
384.1500, 11796.52
385.3490, 9666.160
386.5480, 8118.890
387.7460, 6991.727
388.9440, 5955.672
390.1430, 5124.739
391.3410, 4539.908
392.5390, 3994.169
393.7360, 3586.526
394.9340, 3334.983
396.1310, 3141.522
397.3280, 2950.171
398.5250, 2773.890
399.7220, 2637.691
400.9190, 2589.576
402.1150, 2681.534
403.3120, 2601.556
404.5080, 2775.671
405.7040, 3047.850
406.8990, 3214.102
408.0950, 3546.419
409.2900, 4144.812
410.4860, 4960.279
411.6810, 5615.860
412.8760, 5837.548
414.0700, 5618.348
415.2650, 4824.263
416.4590, 3859.280
417.6540, 3053.417
418.8480, 2300.664
420.0420, 1728.378
421.2350, 1273.516
422.4290, 909.0986
423.6220, 673.7607
424.8150, 542.4985
426.0080, 372.3164
427.2010, 234.2124
428.3940, 90.17871
429.5860, 111.2129
430.7790, 32.31689
431.9710, 38.50928
433.1630, 40.20557
434.3540, 5.148926
435.5460, 54.39697
436.7370, 116.8643
437.9290, 46.27441
439.1200, 125.6118
440.3110, 39.90186
441.5010, 139.1011
442.6920, 154.2573
443.8820, 41.38086
445.0730, 42.42969
446.2630, 80.57861
447.4530, 113.6616
448.6420, 193.8052
449.8320, 365.0029
451.0210, 331.2568
452.2100, 544.5645
453.3990, 606.9238
454.5880, 624.3354
455.7770, 613.7983
456.9660, 617.3115
458.1540, 609.8755
459.3420, 582.4888
460.5300, 636.1514
461.7180, 597.8623
462.9050, 583.6211
464.0930, 552.4277
465.2800, 640.2808
466.4670, 630.1802
467.6540, 646.1260
468.8410, 650.1157
470.0280, 668.1504
471.2140, 725.2290
472.4000, 860.3506
473.5870, 745.5146
474.7720, 783.7207
475.9580, 754.9683
477.1440, 672.2568
478.3290, 663.5850
479.5140, 655.9531
480.6990, 599.3599
481.8840, 597.8052
483.0690, 655.2881
484.2540, 604.8086
485.4380, 623.3652
486.6220, 802.9590
487.8060, 666.5869
488.9900, 875.2500
490.1740, 879.9468
491.3570, 1092.678
492.5410, 1205.442
493.7240, 1215.239
494.9070, 1320.068
496.0900, 1483.928
497.2720, 1350.824
498.4550, 1352.754
499.6370, 1435.715
500.8190, 1334.711
502.0010, 1275.737
503.1830, 1268.792
504.3650, 1259.873
505.5460, 1143.980
506.7280, 1145.121
507.9090, 1004.290
509.0900, 944.4873
510.2710, 907.0947
511.4510, 768.1348
512.6320, 687.7925
513.8120, 699.2080
514.9920, 537.5220
516.1720, 514.5693
517.3520, 617.9746
518.5310, 565.2178
519.7110, 659.3628
520.8900, 672.1914
522.0690, 759.3772
523.2480, 910.6230
524.4270, 883.1641
525.6050, 892.0215
526.7840, 867.6802
527.9620, 815.9011
529.1400, 909.8306
530.3180, 911.1499
531.4960, 1143.127
532.6730, 1286.169
533.8510, 1616.354
535.0280, 2001.259
536.2050, 2633.202
537.3820, 3389.169
538.5590, 4425.888
539.7350, 5732.435
540.9120, 7418.842
542.0880, 9708.363
543.2640, 12081.28
544.4400, 13776.84
545.6150, 14027.54
546.7910, 12391.59
547.9660, 10063.32
549.1410, 7449.111
550.3170, 5494.732
551.4910, 4084.737
552.6660, 3022.413
553.8410, 2367.854
555.0150, 2021.251
556.1890, 1724.242
557.3630, 1538.439
558.5370, 1504.356
559.7110, 1493.430
560.8840, 1521.370
562.0570, 1508.383
563.2310, 1515.556
564.4040, 1511.074
565.5760, 1524.503
566.7490, 1517.235
567.9220, 1550.075
569.0940, 1546.866
570.2660, 1478.320
571.4380, 1498.290
572.6100, 1471.356
573.7820, 1454.624
574.9530, 1414.363
576.1240, 1321.633
577.2960, 1304.283
578.4670, 1249.535
579.6370, 1174.761
580.8080, 1135.420
581.9790, 1045.157
583.1490, 1089.624
584.3190, 1050.011
585.4890, 1053.296
586.6590, 998.3276
587.8280, 1024.976
588.9980, 980.4214
590.1670, 999.1152
591.3360, 954.0559
592.5050, 895.6790
593.6740, 802.2664
594.8430, 796.8174
596.0110, 789.3318
597.1790, 724.8093
598.3480, 833.2493
599.5160, 897.6514
600.6830, 945.0156
601.8510, 1143.341
603.0180, 1208.628
604.1860, 1335.875
605.3530, 1548.083
606.5200, 1521.251
607.6870, 1535.378
608.8530, 1662.466
610.0200, 1797.511
611.1860, 1835.517
612.3520, 1846.479
613.5180, 1904.401
614.6840, 1979.279
615.8500, 2047.116
617.0150, 2115.909
618.1800, 2162.660
619.3450, 2232.367
620.5100, 2300.030
621.6750, 2478.649
622.8400, 2600.224
624.0040, 2666.755
625.1690, 2620.240
626.3330, 2827.681
627.4970, 2924.075
628.6610, 2810.425
629.8240, 2782.729
630.9880, 2549.986
632.1510, 2339.197
633.3140, 2038.362
634.4770, 2002.480
635.6400, 1792.551
636.8020, 1536.574
637.9650, 1249.550
639.1270, 1014.479
640.2890, 898.3594
641.4510, 682.1917
642.6130, 577.9756
643.7750, 451.7112
644.9360, 321.3979
646.0980, 228.0359
647.2590, 134.6245
648.4200, 170.1643
649.5810, 86.65430
650.7410, 72.08911
651.9020, 56.46362
653.0620, 2.772217
654.2220, 4.990967
655.3820, 69.87988
656.5420, 122.8792
657.7020, 88.03564
658.8610, 38.33008
660.0200, 96.73730
661.1800, 86.28784
662.3390, 118.9761
663.4970, 75.81934
664.6560, 96.79492
665.8150, 45.91333
666.9730, 23.14771
668.1310, 66.48608
669.2890, 72.95068
670.4470, 131.5447
671.6050, 53.29834
672.7620, 24.17065
673.9200, 36.14551
675.0770, 53.22925
676.2340, 9.570313
677.3910, 98.71338
678.5470, 65.86255
679.7040, 0.3781740
680.8600, 2.192871
682.0160, 25.14819
683.1720, 115.4160
684.3280, 55.36597
685.4840, 80.73804
686.6390, 24.78735
687.7950, 48.76587
688.9500, 5.682861
690.1050, 1.479492
691.2600, 140.7246
692.4150, 138.1240
693.5690, 138.6763
694.7240, 165.3806
695.8780, 122.2505
697.0320, 119.2622
698.1860, 91.41284
699.3400, 138.6877
700.4930, 106.1104
701.6470, 60.66260
702.8000, 14.68066
703.9530, 31.95996
705.1060, 19.18286
706.2590, 13.34668
707.4110, 51.44897
708.5640, 70.50220
709.7160, 35.50977
710.8680, 47.53345
712.0200, 68.66553
713.1720, 8.896973
714.3230, 88.19141
715.4750, 63.59277
716.6260, 38.08228
717.7770, 42.63818
718.9280, 21.44312
720.0790, 116.9561
721.2300, 29.75464
722.3800, 6.607422
723.5300, 69.49878
724.6810, 0.4741210
725.8300, 53.49561
726.9800, 2.406006
728.1300, 99.26123
729.2790, 22.07983
730.4290, 137.8589
731.5780, 113.6028
732.7270, 214.3118
733.8760, 217.9858
735.0240, 318.6260
736.1730, 369.2322
737.3210, 417.8047
738.4700, 530.3447
739.6180, 596.0227
740.7650, 717.3269
741.9130, 797.7698
743.0610, 871.1816
744.2080, 1013.562
745.3550, 1080.913
746.5020, 1126.232
747.6490, 1296.523
748.7960, 1345.784
749.9430, 1466.016
751.0890, 1403.220
752.2350, 1569.395
753.3810, 1551.543
754.5270, 1643.664
755.6730, 1592.758
756.8190, 1642.825
757.9640, 1837.867
759.1090, 1919.883
760.2540, 2177.875
761.3990, 2270.842
762.5440, 2549.784
763.6890, 2892.703
764.8330, 3193.598
765.9780, 3653.472
767.1220, 4110.322
768.2660, 4635.152
769.4100, 4957.958
770.5530, 5313.745
771.6970, 5549.512
772.8400, 5614.257
773.9830, 5794.985
775.1260, 5578.692
776.2690, 5366.381
777.4120, 4857.052
778.5540, 4545.705
779.6970, 4270.342
780.8390, 3783.961
781.9810, 3547.564
783.1230, 3223.154
784.2650, 2952.728
785.4060, 2732.290
786.5480, 2562.390
787.6890, 2510.010
788.8300, 2369.764
789.9710, 2323.918
791.1120, 2337.344
792.2520, 2258.895
793.3930, 2306.747
794.5330, 2306.255
795.6730, 2318.949
796.8130, 2391.755
797.9530, 2446.899
799.0930, 2560.694
800.2320, 2540.443
801.3710, 2682.938
802.5110, 2900.181
803.6500, 2995.660
804.7880, 3231.605
805.9270, 3494.869
807.0660, 3742.777
808.2040, 4229.041
809.3420, 4256.284
810.4800, 4691.447
811.6180, 4871.932
812.7560, 5369.402
813.8930, 5792.888
815.0310, 6253.648
816.1680, 6487.598
817.3050, 6977.710
818.4420, 7448.727
819.5790, 7860.370
820.7150, 8012.387
821.8520, 8234.288
822.9880, 8380.853
824.1240, 8262.777
825.2600, 8103.666
826.3960, 7785.754
827.5320, 7433.493
828.6670, 7362.609
829.8020, 6909.985
830.9380, 6639.409
832.0730, 6410.279
833.2080, 6248.973
834.3420, 5951.963
835.4770, 5797.822
836.6110, 5797.842
837.7450, 5553.027
838.8790, 5476.209
840.0130, 5519.148
841.1470, 5406.775
842.2810, 5601.143
843.4140, 5557.430
844.5470, 5505.773
845.6800, 5689.467
846.8130, 5648.651
847.9460, 5650.744
849.0790, 5857.642
850.2110, 5873.425
851.3440, 5888.365
852.4760, 6047.986
853.6080, 6104.348
854.7400, 6296.567
855.8710, 6542.260
857.0030, 6855.102
858.1340, 7216.565
859.2650, 7622.592
860.3960, 8220.861
861.5270, 8738.361
862.6580, 9719.936
863.7890, 10746.72
864.9190, 11969.26
866.0490, 13558.56
867.1790, 15413.18
868.3090, 17710.83
869.4390, 20094.54
870.5690, 23097.27
871.6980, 26473.05
872.8270, 30356.87
873.9570, 33598.73
875.0860, 37256.62
876.2140, 39472.58
877.3430, 40713.55
878.4720, 40541.60
879.6000, 39132.67
880.7280, 36576.79
881.8560, 33538.94
882.9840, 29629.14
884.1120, 25876.38
885.2390, 22226.67
886.3670, 19110.01
887.4940, 16401.38
888.6210, 14213.80
889.7480, 12398.27
890.8750, 10736.78
892.0020, 9518.335
893.1280, 8393.936
894.2540, 7524.584
895.3810, 6928.277
896.5070, 6271.016
897.6320, 5792.802
898.7580, 5294.634
899.8840, 4992.514
901.0090, 4607.438
902.1340, 4495.412
903.2590, 4392.434
904.3840, 4095.501
905.5090, 3883.615
906.6340, 3922.779
907.7580, 3761.991
908.8820, 3658.250
910.0060, 3598.559
911.1300, 3549.915
912.2540, 3529.319
913.3780, 3406.773
914.5010, 3422.275
915.6250, 3468.827
916.7480, 3454.427
917.8710, 3532.220
918.9940, 3556.918
920.1160, 3641.077
921.2390, 3576.908
922.3610, 3700.215
923.4840, 3600.278
924.6060, 3683.771
925.7280, 3650.682
926.8490, 3605.956
927.9710, 3616.481
929.0930, 3575.558
930.2140, 3587.109
931.3350, 3540.465
932.4560, 3468.778
933.5770, 3470.392
934.6980, 3450.655
935.8180, 3416.315
936.9380, 3441.476
938.0590, 3536.654
939.1790, 3503.293
940.2990, 3401.522
941.4180, 3370.727
942.5380, 3279.681
943.6570, 3301.875
944.7770, 3162.620
945.8960, 3109.631
947.0150, 2912.036
948.1340, 2858.378
949.2520, 2785.362
950.3710, 2616.273
951.4890, 2578.158
952.6070, 2420.273
953.7260, 2233.342
954.8430, 1936.871
955.9610, 1739.981
957.0790, 1650.701
958.1960, 1523.254
959.3130, 1424.921
960.4310, 1271.612
961.5480, 1187.975
962.6640, 1140.203
963.7810, 1162.865
964.8970, 1060.507
966.0140, 1075.908
967.1300, 1177.955
968.2460, 1361.400
969.3620, 1463.975
970.4780, 1830.502
971.5930, 1949.277
972.7090, 2251.041
973.8240, 2508.227
974.9390, 2703.480
976.0540, 2918.791
977.1690, 3196.013
978.2830, 3354.763
979.3980, 3377.374
980.5120, 3570.126
981.6260, 3577.695
982.7400, 3670.354
983.8540, 3667.037
984.9680, 3621.763
986.0820, 3644.551
987.1950, 3599.396
988.3080, 3579.290
989.4210, 3561.652
990.5340, 3523.197
991.6470, 3525.271
992.7600, 3466.367
993.8720, 3485.500
994.9850, 3474.542
996.0970, 3478.905
997.2090, 3500.171
998.3210, 3515.468
999.4320, 3516.667
1000.544, 3589.143
1001.655, 3520.521
1002.767, 3488.923
1003.878, 3487.351
1004.989, 3563.803
1006.100, 3413.280
1007.210, 3144.780
1008.321, 2827.304
1009.431, 2686.851
1010.541, 2353.421
1011.651, 2031.014
1012.761, 1910.632
1013.871, 1544.271
1014.980, 1487.932
1016.090, 1273.614
1017.199, 1231.319
1018.308, 1046.050
1019.417, 1018.807
1020.526, 916.5884
1021.635, 947.3896
1022.743, 934.2185
1023.852, 874.0693
1024.960, 939.9604
1026.068, 1010.876
1027.176, 1028.808
1028.283, 1193.759
1029.391, 2115.743
1030.498, 1834.746
1031.606, 2153.765
1032.713, 2540.801
1033.820, 1775.409
1034.927, 1572.946
1036.033, 621.0457
1037.140, 522.1646
1038.246, 423.3010
1039.353, 286.4558
1040.459, 268.6252
1041.564, 150.8081
1042.670, 162.0034
1043.776, 127.2109
1044.881, 135.4299
1045.987, 75.65942
1047.092, 111.9001
1048.197, 91.15210
1049.302, 14.41528
1050.406, 8.312988
1051.511, 36.96484
1052.615, 22.74927
1053.720, 44.46143
1054.824, 78.11377
1055.928, 45.84912
1057.031, 25.08960
1058.135, 99.83325
1059.238, 65.60938
1060.342, 119.3203
1061.445, 27.16138
1062.548, 63.00806
1063.651, 30.50073
1064.754, 48.81104
1065.856, 45.70679
1066.959, 17.01709
1068.061, 126.8481
1069.163, 210.8108
1070.265, 111.8494
1071.367, 67.98022
1072.469, 74.06055
1073.570, 86.16870
1074.671, 10.42896
1075.773, 126.7017
1076.874, 195.9114
1077.975, 117.3711
1079.075, 40.90381
1080.176, 100.4707
1081.276, 44.10425
1082.377, 23.77637
1083.477, 36.63867
1084.577, 5.662598
1085.677, 33.97778
1086.777, 6.777832
1087.876, 13.60400
1088.975, 52.23267
1090.075, 31.18335
1091.174, 62.32056
1092.273, 44.33203
1093.372, 68.39502
1094.470, 111.5242
1095.569, 19.74268
1096.667, 48.99634
1097.765, 73.27808
1098.863, 48.62598
1099.961, 11.96436
1101.059, 19.47656
1102.157, 31.96680
1103.254, 15.48633
1104.351, 62.09375
1105.449, 34.25122
1106.546, 49.43115
1107.642, 80.18164
1108.739, 29.00244
1109.836, 60.09790
1110.932, 38.17651
1112.028, 67.22461
1113.124, 111.2505
1114.220, 85.25757
1115.316, 128.2456
1116.412, 117.2153
1117.507, 216.1650
1118.603, 299.0952
1119.698, 303.0054
1120.793, 319.8975
1121.888, 421.7690
1122.983, 444.6187
1124.077, 432.2363
1125.172, 357.2520
1126.266, 354.0347
1127.360, 283.7944
1128.454, 192.5305
1129.548, 244.2427
1130.642, 230.9309
1131.735, 273.5950
1132.829, 290.2346
1133.922, 255.8499
1135.015, 260.4409
1136.108, 343.1016
1137.201, 288.6418
1138.294, 320.1565
1139.386, 369.6453
1140.478, 377.1130
1141.571, 401.5500
1142.663, 410.1331
1143.755, 412.8674
1144.846, 383.3772
1145.938, 390.7537
1147.030, 443.0720
1148.121, 398.5928
1149.212, 436.1016
1150.303, 418.8689
1151.394, 372.7791
1152.485, 379.1663
1153.575, 407.3040
1154.666, 341.0256
1155.756, 359.3442
1156.846, 426.5496
1157.936, 383.6819
1159.026, 375.8767
1160.116, 440.9146
1161.205, 398.0239
1162.295, 418.5144
1163.384, 456.2224
1164.473, 413.0576
1165.562, 414.6094
1166.651, 395.1240
1167.739, 414.0459
1168.828, 404.4570
1169.916, 415.2991
1171.005, 359.4094
1172.093, 441.3108
1173.181, 410.9895
1174.268, 427.7097
1175.356, 315.2876
1176.443, 378.7668
1177.531, 335.4631
1178.618, 381.1665
1179.705, 276.9619
1180.792, 366.3066
1181.879, 278.4739
1182.965, 350.7505
1184.052, 300.5835
1185.138, 238.9487
1186.224, 269.6614
1187.310, 180.6367
1188.396, 273.2466
1189.482, 270.4148
1190.567, 230.2551
1191.653, 254.9421
1192.738, 256.1887
1193.823, 181.7883
1194.908, 166.7598
1195.993, 177.8203
1197.077, 205.6667
1198.162, 229.8928
1199.246, 240.7881
1200.331, 222.2827
1201.415, 257.8528
1202.499, 201.9558
1203.582, 195.4890
1204.666, 223.0979
1205.750, 263.0120
1206.833, 176.7551
1207.916, 240.9956
1208.999, 224.0112
1210.082, 286.6753
1211.165, 258.4509
1212.248, 296.6169
1213.330, 255.9133
1214.412, 277.2573
1215.495, 204.4028
1216.577, 214.6287
1217.658, 248.4202
1218.740, 194.6436
1219.822, 238.3035
1220.903, 213.1475
1221.985, 186.9016
1223.066, 238.6514
1224.147, 214.7590
1225.228, 229.0305
1226.308, 205.9358
1227.389, 237.9260
1228.469, 226.2222
1229.550, 179.9438
1230.630, 232.3975
1231.710, 158.7097
1232.790, 182.1716
1233.869, 216.4236
1234.949, 158.7451
1236.028, 219.7202
1237.108, 206.0723
1238.187, 105.0500
1239.266, 265.0007
1240.344, 242.5820
1241.423, 193.1555
1242.502, 181.6362
1243.580, 119.2781
1244.658, 155.1125
1245.736, 259.9768
1246.814, 252.5552
1247.892, 212.3235
1248.970, 291.9460
1250.047, 216.2490
1251.125, 267.8318
1252.202, 167.3054
1253.279, 270.8030
1254.356, 173.3049
1255.433, 208.7249
1256.509, 132.1338
1257.586, 249.5049
1258.662, 296.8562
1259.738, 175.1873
1260.814, 187.5273
1261.890, 190.8735
1262.966, 125.7366
1264.042, 124.6401
1265.117, 81.87305
1266.193, 110.0854
1267.268, 143.2786
1268.343, 168.4536
1269.418, 102.7598
1270.492, 151.8972
1271.567, 62.03564
1272.642, 41.35376
1273.716, 68.44092
1274.790, 93.50830
1275.864, 100.5564
1276.938, 51.58667
1278.012, 4.687256
1279.085, 0.3308110
1280.159, 17.61890
1281.232, 52.54419
1282.305, 8.548340
1283.378, 20.32471
1284.451, 60.82520
1285.524, 3.962402
1286.597, 72.72241
1287.669, 51.46411
1288.741, 43.81226
1289.813, 54.86206
1290.885, 33.51807
1291.957, 75.15796
1293.029, 28.21899
1294.101, 9.389893
1295.172, 8.947510
1296.243, 0.5180660
1297.315, 8.989746
1298.386, 1.524414
1299.456, 20.09473
1300.527, 33.37476
1301.598, 66.79639
1302.668, 48.20166
1303.738, 73.58960
1304.809, 116.9617
1305.879, 34.31763
1306.948, 28.65649
1308.018, 15.97729
1309.088, 100.2783
1310.157, 88.56567
1311.226, 85.83862
1312.296, 88.09595
1313.365, 36.34033
1314.433, 118.5120
1315.502, 100.7471
1316.571, 68.47534
1317.639, 94.69556
1318.707, 94.00928
1319.776, 62.06567
1320.844, 121.3064
1321.911, 162.5393
1322.979, 150.3977
1324.047, 179.0593
1325.114, 65.87378
1326.181, 94.92090
1327.249, 105.0608
1328.316, 42.29028
1329.382, 90.18311
1330.449, 63.82373
1331.516, 116.0361
1332.582, 132.2446
1333.648, 117.5693
1334.715, 78.88916
1335.781, 149.0972
1336.846, 106.4878
1337.912, 176.9023
1338.978, 186.3218
1340.043, 186.7588
1341.108, 175.2026
1342.174, 106.6479
1343.239, 136.0986
1344.303, 105.5474
1345.368, 96.23145
1346.433, 152.4482
1347.497, 78.89893
1348.561, 100.3618
1349.626, 72.83252
1350.690, 74.32080
1351.753, 117.8208
1352.817, 90.33936
1353.881, 155.8892
1354.944, 147.4468
1356.007, 80.99658
1357.071, 148.5601
1358.134, 40.13965
1359.196, 61.72119
1360.259, 44.31104
1361.322, 49.91455
1362.384, 48.52051
1363.447, 40.24561
1364.509, 9.224609
1365.571, 18.42041
1366.633, 50.07764
1367.694, 16.76807
1368.756, 55.45459
1369.817, 46.14160
1370.879, 66.82617
1371.940, 1.505371
1373.001, 0.2587890
1374.062, 59.92676
1375.122, 5.590820
1376.183, 33.25049
1377.244, 17.09473
1378.304, 32.55273
1379.364, 62.19629
1380.424, 42.63184
1381.484, 36.47266
1382.544, 51.21387
1383.603, 48.84326
1384.663, 81.53320
1385.722, 54.15625
1386.781, 70.77637
1387.840, 45.55176
1388.899, 39.26416
1389.958, 35.77832
1391.017, 10.55518
1392.075, 128.1606
1393.134, 105.6719
1394.192, 100.2744
1395.250, 136.1689
1396.308, 15.94678
1397.365, 133.5405
1398.423, 47.78369
1399.481, 23.93164
1400.538, 56.31396
1401.595, 130.7568
1402.652, 65.30615
1403.709, 53.99658
1404.766, 31.80029
1405.823, 127.1357
1406.879, 90.18457
1407.936, 96.12256
1408.992, 50.90918
1410.048, 88.75049
1411.104, 73.79932
1412.160, 71.15967
1413.215, 70.70947
1414.271, 89.19678
1415.326, 129.6240
1416.382, 145.8135
1417.437, 137.7031
1418.492, 75.16113
1419.546, 122.8286
1420.601, 31.36279
1421.656, 46.15527
1422.710, 158.9282
1423.764, 153.3418
1424.819, 46.31396
1425.873, 126.6367
1426.926, 164.7080
1427.980, 147.8706
1429.034, 176.1792
1430.087, 182.7646
1431.140, 188.4736
1432.194, 196.9092
1433.247, 181.9136
1434.299, 182.8384
1435.352, 122.6133
1436.405, 154.0073
1437.457, 112.1255
1438.510, 226.1309
1439.562, 197.0273
1440.614, 219.4141
1441.666, 168.9512
1442.717, 237.5420
1443.769, 203.0718
1444.821, 273.6724
1445.872, 263.2554
1446.923, 240.8774
1447.974, 300.3779
1449.025, 355.9839
1450.076, 318.3984
1451.127, 227.2568
1452.177, 289.8984
1453.227, 218.5400
1454.278, 242.1841
1455.328, 296.8281
1456.378, 261.4727
1457.428, 270.1187
1458.477, 234.7637
1459.527, 235.4092
1460.576, 291.0532
1461.625, 216.6958
1462.675, 329.2495
1463.724, 339.7915
1464.772, 207.3047
1465.821, 239.1182
1466.870, 243.5015
1467.918, 261.0625
1468.966, 279.3364
1470.015, 236.5771
1471.063, 218.7622
1472.110, 300.1509
1473.158, 239.6416
1474.206, 336.0796
1475.253, 277.5923
1476.301, 230.1221
1477.348, 253.5254
1478.395, 243.6880
1479.442, 178.1914
1480.488, 169.6865
1481.535, 176.9463
1482.582, 204.5352
1483.628, 187.9531
1484.674, 140.3638
1485.720, 150.6304
1486.766, 128.0649
1487.812, 115.5059
1488.858, 185.9976
1489.903, 163.5376
1490.949, 138.1001
1491.994, 161.6831
1493.039, 113.2324
1494.084, 128.8696
1495.129, 116.5361
1496.173, 130.2314
1497.218, 85.93848
1498.262, 15.65625
1499.307, 79.38574
1500.351, 110.1367
1501.395, 45.90283
1502.439, 52.68945
1503.483, 90.48682
1504.526, 163.2876
1505.570, 60.09082
1506.613, 168.8955
1507.656, 11.70312
1508.699, 40.51123
1509.742, 23.31982
1510.785, 56.12842
1511.827, 112.9375
1512.870, 3.747070
1513.912, 53.55811
1514.955, 93.37402
1515.997, 4.214355
1517.039, 87.06641
1518.080, 41.94043
1519.122, 116.8579
1520.164, 3.209961
1521.205, 5.736816
1522.246, 46.70752
1523.288, 9.301270
1524.329, 28.23389
1525.369, 65.86377
1526.410, 180.9922
1527.451, 120.1489
1528.491, 22.33154
1529.531, 3.458984
1530.572, 111.7744
1531.612, 72.73193
1532.652, 38.00391
1533.691, 0.7016600
1534.731, 8.617188
1535.770, 39.96143
1536.810, 62.84375
1537.849, 31.93115
1538.888, 91.56689
1539.927, 51.97803
1540.966, 0.4609380
1542.005, 107.9775
1543.043, 0.7021480
1544.082, 24.11377
1545.120, 112.2627
1546.158, 50.73145
1547.196, 65.00977
1548.234, 31.97754
1549.272, 14.86572
1550.309, 41.17285
1551.347, 38.04443
1552.384, 85.89404
1553.421, 99.86523
1554.458, 94.64941
1555.495, 131.2432
1556.532, 108.8179
1557.568, 104.9541
1558.605, 63.95068
1559.641, 24.29980
1560.678, 0.5898440
1561.714, 36.11768
1562.750, 625.2939
1563.785, 0.0000000E+00
##END=



