##NAMES=Grossular
##RRUFFID=R060443
##IDEAL CHEMISTRY=Ca_3_Al_2_(SiO_4_)_3_
##LOCALITY=unknown
##OWNER=RRUFF
##SOURCE=Gemological Institute of America
##DESCRIPTION=Yellowish tan colored single crystal
##STATUS=The identification of this mineral has been confirmed by X-ray diffraction and chemical analysis
##URL=rruff.info/R060443
##MEASURED CHEMISTRY=(Ca_2.92_Mn_0.03_Mg_0.03_Fe^2+^_0.02_)_Σ=3_(Al_1.86_Fe^3+^_0.14_)_Σ=2_(Si_1.00_O_4_)_3_; trace amounts of Ti
##PIN_ID=L01228
##ORIENTATION=Laser parallel to a* (1 0 0). Fiducial mark perpendicular to laser is parallel to c [0 0 1]
114.8180, 0.0000000E+00
116.0570, 21.19556
117.2950, 95.00659
118.5340, 70.22058
119.7720, 84.39111
121.0100, 5.947144
122.2470, 1.347656
123.4850, 59.09924
124.7220, 79.98645
125.9590, 33.63989
127.1960, 48.62817
128.4330, 23.63977
129.6700, 57.75562
130.9060, 52.37183
132.1430, 78.03223
133.3790, 7.109253
134.6150, 55.44690
135.8500, 13.20691
137.0860, 2.581909
138.3210, 31.04895
139.5560, 60.37695
140.7910, 62.63794
142.0260, 58.08386
143.2610, 6.710083
144.4950, 7.511963
145.7290, 19.51477
146.9630, 12.37366
148.1970, 13.93164
149.4310, 0.3979490
150.6640, 14.02234
151.8980, 1.197632
153.1310, 39.73083
154.3640, 2.202148
155.5970, 8.004883
156.8290, 18.31604
158.0620, 66.75513
159.2940, 55.31238
160.5260, 34.98792
161.7580, 45.80481
162.9890, 8.3374001E-02
164.2210, 34.89307
165.4520, 36.97559
166.6830, 89.16235
167.9140, 85.45129
169.1450, 222.8411
170.3760, 249.3301
171.6060, 377.9172
172.8360, 496.6016
174.0660, 650.3820
175.2960, 711.2577
176.5260, 1028.226
177.7550, 1328.289
178.9840, 1764.443
180.2130, 2089.689
181.4420, 2131.026
182.6710, 1563.455
183.9000, 1056.974
185.1280, 683.5835
186.3560, 458.2836
187.5840, 355.0745
188.8120, 260.9409
190.0400, 232.8378
191.2670, 195.7637
192.4950, 126.7151
193.7220, 83.69678
194.9490, 94.71167
196.1750, 100.7620
197.4020, 83.84839
198.6280, 46.96826
199.8540, 89.12354
201.0800, 79.36279
202.3060, 48.69409
203.5320, 91.11450
204.7570, 29.59985
205.9830, 38.13501
207.2080, 53.26440
208.4330, 22.82178
209.6570, 39.83667
210.8820, 19.19214
212.1060, 27.55884
213.3310, 81.35913
214.5550, 38.20947
215.7780, 42.11157
217.0020, 119.0654
218.2260, 115.0715
219.4490, 91.13110
220.6720, 81.24365
221.8950, 181.4104
223.1180, 233.6313
224.3400, 255.9067
225.5630, 310.2368
226.7850, 448.6221
228.0070, 493.0623
229.2290, 721.5581
230.4500, 970.1094
231.6720, 1116.716
232.8930, 1310.380
234.1140, 1668.099
235.3350, 2047.855
236.5560, 2579.663
237.7770, 2904.524
238.9970, 3278.440
240.2170, 3331.413
241.4370, 3297.443
242.6570, 3360.529
243.8770, 3690.671
245.0960, 4148.870
246.3160, 4573.125
247.5350, 4388.438
248.7540, 3482.807
249.9730, 2424.234
251.1910, 1686.720
252.4100, 1104.265
253.6280, 812.8706
254.8460, 636.5361
256.0640, 527.2629
257.2810, 453.0513
258.4990, 466.9014
259.7160, 451.8142
260.9330, 481.7893
262.1500, 466.1929
263.3670, 463.6052
264.5840, 631.0193
265.8000, 685.4028
267.0170, 833.8398
268.2330, 1015.169
269.4490, 1324.446
270.6640, 1516.031
271.8800, 1887.649
273.0950, 2129.289
274.3100, 2715.990
275.5260, 3257.751
276.7400, 3735.572
277.9550, 4006.390
279.1690, 3704.270
280.3840, 3008.924
281.5980, 2279.925
282.8120, 1738.923
284.0260, 1414.488
285.2390, 1117.469
286.4530, 894.9971
287.6660, 830.4875
288.8790, 745.4180
290.0920, 639.4468
291.3040, 526.0117
292.5170, 443.8855
293.7290, 322.6416
294.9410, 264.6218
296.1530, 186.3220
297.3650, 98.09619
298.5770, 26.20288
299.7880, 6.810791
301.0000, 41.47144
302.2110, 37.79468
303.4220, 41.82178
304.6320, 9.804199
305.8430, 39.26172
307.0530, 59.37646
308.2630, 125.5122
309.4730, 164.6477
310.6830, 185.8733
311.8930, 196.1465
313.1030, 263.4668
314.3120, 302.0369
315.5210, 359.2480
316.7300, 422.7080
317.9390, 448.2139
319.1470, 508.7656
320.3560, 541.3628
321.5640, 630.0046
322.7720, 754.6909
323.9800, 883.4221
325.1880, 968.1968
326.3950, 1128.016
327.6030, 1431.877
328.8100, 1550.783
330.0170, 1570.730
331.2240, 1428.721
332.4300, 1212.754
333.6370, 1070.828
334.8430, 948.9438
336.0490, 926.1013
337.2550, 911.3003
338.4610, 919.5405
339.6660, 987.8223
340.8720, 1141.146
342.0770, 1197.510
343.2820, 1351.916
344.4870, 1494.363
345.6920, 1662.851
346.8960, 1770.380
348.1010, 1930.949
349.3050, 1882.558
350.5090, 1959.207
351.7130, 2120.895
352.9160, 2401.161
354.1200, 2594.450
355.3230, 2970.234
356.5260, 3467.653
357.7290, 4039.513
358.9320, 4852.414
360.1350, 5790.353
361.3370, 6946.330
362.5390, 8532.345
363.7410, 10676.40
364.9430, 13159.49
366.1450, 16301.62
367.3470, 19270.93
368.5480, 23236.99
369.7490, 26559.24
370.9500, 30587.54
372.1510, 35383.86
373.3520, 40670.23
374.5520, 44222.65
375.7530, 44606.10
376.9530, 40698.60
378.1530, 33966.15
379.3520, 27001.75
380.5520, 20920.39
381.7510, 16052.10
382.9510, 12527.86
384.1500, 9824.681
385.3490, 7917.560
386.5480, 6340.498
387.7460, 5205.490
388.9440, 4198.547
390.1430, 3609.658
391.3410, 3132.816
392.5390, 2747.034
393.7360, 2397.307
394.9340, 2120.636
396.1310, 1884.021
397.3280, 1778.461
398.5250, 1643.958
399.7220, 1578.508
400.9190, 1455.112
402.1150, 1503.763
403.3120, 1457.449
404.5080, 1550.171
405.7040, 1508.923
406.8990, 1525.715
408.0950, 1629.546
409.2900, 1620.416
410.4860, 1749.327
411.6810, 1795.281
412.8760, 1970.286
414.0700, 2146.346
415.2650, 2076.451
416.4590, 1856.604
417.6540, 1410.800
418.8480, 1064.049
420.0420, 740.3398
421.2350, 560.6760
422.4290, 385.0667
423.6220, 208.5076
424.8150, 74.99316
426.0080, 37.53882
427.2010, 17.13013
428.3940, 64.23706
429.5860, 77.57764
430.7790, 45.89453
431.9710, 57.17529
433.1630, 58.42383
434.3540, 42.63306
435.5460, 66.81641
436.7370, 11.96338
437.9290, 16.06885
439.1200, 2.142578
440.3110, 40.17847
441.5010, 17.17920
442.6920, 43.15015
443.8820, 22.47681
445.0730, 22.54468
446.2630, 48.05103
447.4530, 131.1714
448.6420, 230.1677
449.8320, 285.3677
451.0210, 453.5996
452.2100, 510.8684
453.3990, 539.1721
454.5880, 550.5059
455.7770, 561.8691
456.9660, 634.2620
458.1540, 526.6855
459.3420, 643.1421
460.5300, 652.6267
461.7180, 611.1372
462.9050, 638.6736
464.0930, 641.2349
465.2800, 602.8215
466.4670, 637.4321
467.6540, 658.0669
468.8410, 639.7251
470.0280, 699.4067
471.2140, 744.1113
472.4000, 824.8389
473.5870, 939.5884
474.7720, 1044.361
475.9580, 1127.155
477.1440, 1143.970
478.3290, 1068.806
479.5140, 983.6631
480.6990, 813.5405
481.8840, 805.4385
483.0690, 675.3562
484.2540, 653.2939
485.4380, 594.2505
486.6220, 668.2261
487.8060, 607.2207
488.9900, 658.2339
490.1740, 737.2649
491.3570, 755.3135
492.5410, 764.3801
493.7240, 956.4636
494.9070, 1004.564
496.0900, 1141.688
497.2720, 1168.831
498.4550, 1271.989
499.6370, 1292.166
500.8190, 1297.357
502.0010, 1368.564
503.1830, 1432.787
504.3650, 1606.024
505.5460, 1695.275
506.7280, 1834.540
507.9090, 1805.819
509.0900, 1828.111
510.2710, 1680.444
511.4510, 1462.817
512.6320, 1291.148
513.8120, 1069.491
514.9920, 1006.385
516.1720, 879.4075
517.3520, 820.8228
518.5310, 755.9717
519.7110, 798.5337
520.8900, 692.6895
522.0690, 762.1528
523.2480, 763.2314
524.4270, 770.9817
525.6050, 833.0457
526.7840, 760.0210
527.9620, 762.3110
529.1400, 707.2791
530.3180, 752.7549
531.4960, 869.7205
532.6730, 1027.058
533.8510, 1230.475
535.0280, 1426.146
536.2050, 1970.640
537.3820, 2418.459
538.5590, 3229.231
539.7350, 4243.226
540.9120, 5472.517
542.0880, 6866.098
543.2640, 8541.821
544.4400, 10550.44
545.6150, 12684.65
546.7910, 13943.31
547.9660, 13768.11
549.1410, 11927.83
550.3170, 9410.642
551.4910, 6916.858
552.6660, 4928.299
553.8410, 3576.625
555.0150, 2575.058
556.1890, 2019.917
557.3630, 1479.117
558.5370, 1285.756
559.7110, 1083.803
560.8840, 933.6411
562.0570, 827.9685
563.2310, 789.7336
564.4040, 810.4241
565.5760, 739.6028
566.7490, 730.7314
567.9220, 747.4702
569.0940, 718.9473
570.2660, 713.3823
571.4380, 756.9583
572.6100, 689.3247
573.7820, 732.2537
574.9530, 726.7776
576.1240, 677.9583
577.2960, 609.3359
578.4670, 590.5771
579.6370, 596.3943
580.8080, 582.2324
581.9790, 582.6816
583.1490, 631.2339
584.3190, 544.0923
585.4890, 544.2070
586.6590, 505.5476
587.8280, 552.0879
588.9980, 502.6802
590.1670, 561.1089
591.3360, 439.9126
592.5050, 456.8560
593.6740, 435.3320
594.8430, 346.9246
596.0110, 319.4753
597.1790, 328.1277
598.3480, 330.9038
599.5160, 389.3230
600.6830, 416.6448
601.8510, 491.7405
603.0180, 588.8958
604.1860, 584.8013
605.3530, 658.8069
606.5200, 647.7588
607.6870, 710.6030
608.8530, 807.4268
610.0200, 755.2295
611.1860, 764.0112
612.3520, 871.9036
613.5180, 898.6423
614.6840, 952.3594
615.8500, 1030.054
617.0150, 1076.727
618.1800, 1092.378
619.3450, 1272.006
620.5100, 1303.611
621.6750, 1443.193
622.8400, 1549.752
624.0040, 1722.289
625.1690, 1962.801
626.3330, 2003.290
627.4970, 2105.755
628.6610, 2012.197
629.8240, 1877.614
630.9880, 1709.006
632.1510, 1438.375
633.3140, 1295.718
634.4770, 1126.037
635.6400, 911.3306
636.8020, 767.5996
637.9650, 643.8430
639.1270, 503.0610
640.2890, 414.7896
641.4510, 328.4202
642.6130, 272.5608
643.7750, 218.6758
644.9360, 202.7644
646.0980, 191.8264
647.2590, 123.8625
648.4200, 60.87158
649.5810, 51.85376
650.7410, 0.1916500
651.9020, 89.71631
653.0620, 78.59692
654.2220, 32.45044
655.3820, 7.270508
656.5420, 20.04688
657.7020, 10.21509
658.8610, 0.5305180
660.0200, 9.688965
661.1800, 14.31079
662.3390, 39.78296
663.4970, 34.32495
664.6560, 86.93335
665.8150, 21.63599
666.9730, 58.39844
668.1310, 37.24048
669.2890, 77.15015
670.4470, 37.14917
671.6050, 11.21631
672.7620, 60.33789
673.9200, 48.53979
675.0770, 45.81543
676.2340, 51.16357
677.3910, 50.58667
678.5470, 54.35425
679.7040, 43.38550
680.8600, 48.30322
682.0160, 19.02100
683.1720, 17.20386
684.3280, 29.38940
685.4840, 58.54004
686.6390, 47.66089
687.7950, 52.34961
688.9500, 46.22363
690.1050, 26.83765
691.2600, 18.83057
692.4150, 16.21387
693.5690, 34.31226
694.7240, 6.526123
695.8780, 15.67700
697.0320, 10.06689
698.1860, 30.22852
699.3400, 4.416260
700.4930, 3.980957
701.6470, 43.42334
702.8000, 26.93188
703.9530, 3.497070
705.1060, 67.10645
706.2590, 13.79297
707.4110, 6.471436
708.5640, 7.302002
709.7160, 18.11157
710.8680, 29.96021
712.0200, 29.85962
713.1720, 56.80640
714.3230, 5.185303
715.4750, 44.85400
716.6260, 16.94580
717.7770, 4.916992
718.9280, 9.253174
720.0790, 35.46484
721.2300, 9.273926
722.3800, 4.982178
723.5300, 21.66309
724.6810, 53.31738
725.8300, 25.94556
726.9800, 12.54517
728.1300, 51.11475
729.2790, 4.658447
730.4290, 18.82886
731.5780, 12.35889
732.7270, 10.07227
733.8760, 10.47485
735.0240, 2.848389
736.1730, 2.807861
737.3210, 16.49609
738.4700, 17.77734
739.6180, 50.02466
740.7650, 30.24731
741.9130, 93.44507
743.0610, 54.62012
744.2080, 61.77173
745.3550, 93.89966
746.5020, 104.0059
747.6490, 100.0901
748.7960, 170.1521
749.9430, 46.19263
751.0890, 167.2104
752.2350, 157.2068
753.3810, 97.18188
754.5270, 240.1360
755.6730, 212.0691
756.8190, 223.9819
757.9640, 139.8738
759.1090, 207.7456
760.2540, 209.5969
761.3990, 247.4282
762.5440, 309.2397
763.6890, 328.0312
764.8330, 357.8035
765.9780, 361.5562
767.1220, 428.2896
768.2660, 527.0039
769.4100, 555.6997
770.5530, 629.3765
771.6970, 765.0347
772.8400, 706.6753
773.9830, 777.2974
775.1260, 735.9011
776.2690, 786.4878
777.4120, 734.0562
778.5540, 695.6074
779.6970, 673.1416
780.8390, 652.6582
781.9810, 622.1582
783.1230, 634.6426
784.2650, 623.1099
785.4060, 582.5613
786.5480, 596.9966
787.6890, 544.3889
788.8300, 614.7397
789.9710, 628.1304
791.1120, 615.5205
792.2520, 658.3652
793.3930, 687.0903
794.5330, 781.4312
795.6730, 779.0356
796.8130, 846.2354
797.9530, 998.8396
799.0930, 1037.149
800.2320, 1183.842
801.3710, 1281.869
802.5110, 1342.591
803.6500, 1560.417
804.7880, 1775.933
805.9270, 2028.789
807.0660, 2281.137
808.2040, 2654.999
809.3420, 3035.489
810.4800, 3354.913
811.6180, 3780.091
812.7560, 4336.456
813.8930, 4947.925
815.0310, 5649.588
816.1680, 6457.454
817.3050, 7305.030
818.4420, 8226.312
819.5790, 9445.450
820.7150, 10578.68
821.8520, 11372.34
822.9880, 12269.54
824.1240, 12739.61
825.2600, 12691.74
826.3960, 11926.78
827.5320, 11117.42
828.6670, 10277.84
829.8020, 9409.389
830.9380, 8585.832
832.0730, 7879.852
833.2080, 7335.526
834.3420, 6741.757
835.4770, 6424.574
836.6110, 6192.618
837.7450, 5793.176
838.8790, 5895.298
840.0130, 5704.511
841.1470, 5280.237
842.2810, 5541.018
843.4140, 5445.184
844.5470, 5525.611
845.6800, 5554.268
846.8130, 5719.296
847.9460, 5802.628
849.0790, 5745.011
850.2110, 5672.756
851.3440, 5811.362
852.4760, 5935.946
853.6080, 5892.330
854.7400, 5966.028
855.8710, 6079.991
857.0030, 6327.355
858.1340, 6488.261
859.2650, 6993.091
860.3960, 7354.282
861.5270, 7945.774
862.6580, 8662.062
863.7890, 9457.168
864.9190, 10602.68
866.0490, 11740.69
867.1790, 13531.54
868.3090, 15712.86
869.4390, 18195.05
870.5690, 21291.27
871.6980, 24988.38
872.8270, 29200.35
873.9570, 33987.67
875.0860, 39241.09
876.2140, 43872.71
877.3430, 48257.27
878.4720, 51006.06
879.6000, 51663.74
880.7280, 50301.47
881.8560, 47274.29
882.9840, 42517.12
884.1120, 37543.95
885.2390, 31989.81
886.3670, 27063.54
887.4940, 22852.41
888.6210, 19143.29
889.7480, 16043.18
890.8750, 13770.08
892.0020, 11430.99
893.1280, 9811.911
894.2540, 8508.844
895.3810, 7382.787
896.5070, 6529.739
897.6320, 5806.706
898.7580, 5252.680
899.8840, 4672.667
901.0090, 4405.664
902.1340, 4084.672
903.2590, 3788.693
904.3840, 3595.726
905.5090, 3334.768
906.6340, 3233.823
907.7580, 3086.890
908.8820, 2859.968
910.0060, 2691.058
911.1300, 2557.277
912.2540, 2452.274
913.3780, 2320.400
914.5010, 2206.539
915.6250, 2126.689
916.7480, 2045.853
917.8710, 1937.107
918.9940, 1841.295
920.1160, 1727.540
921.2390, 1606.753
922.3610, 1600.979
923.4840, 1528.500
924.6060, 1517.893
925.7280, 1403.298
926.8490, 1340.362
927.9710, 1323.147
929.0930, 1263.085
930.2140, 1172.557
931.3350, 1213.446
932.4560, 1146.188
933.5770, 1075.157
934.6980, 1102.000
935.8180, 1097.679
936.9380, 1104.961
938.0590, 1117.880
939.1790, 1132.955
940.2990, 1187.800
941.4180, 1181.562
942.5380, 1277.440
943.6570, 1311.050
944.7770, 1352.991
945.8960, 1352.751
947.0150, 1336.270
948.1340, 1368.610
949.2520, 1257.717
950.3710, 1163.872
951.4890, 1071.076
952.6070, 1065.378
953.7260, 946.2361
954.8430, 867.5630
955.9610, 742.0537
957.0790, 654.6270
958.1960, 544.2407
959.3130, 513.6084
960.4310, 439.5359
961.5480, 397.6838
962.6640, 352.5813
963.7810, 346.4167
964.8970, 340.2561
966.0140, 324.9905
967.1300, 444.3347
968.2460, 455.8931
969.3620, 501.4861
970.4780, 632.3740
971.5930, 694.0808
972.7090, 773.1221
973.8240, 908.2148
974.9390, 1020.262
976.0540, 1064.404
977.1690, 1226.269
978.2830, 1378.360
979.3980, 1413.146
980.5120, 1469.361
981.6260, 1571.241
982.7400, 1614.096
983.8540, 1701.625
984.9680, 1707.521
986.0820, 1752.467
987.1950, 1821.385
988.3080, 1784.028
989.4210, 1900.879
990.5340, 1851.689
991.6470, 1972.282
992.7600, 1962.990
993.8720, 2054.033
994.9850, 2154.924
996.0970, 2267.585
997.2090, 2338.207
998.3210, 2509.196
999.4320, 2610.026
1000.544, 2827.339
1001.655, 2997.989
1002.767, 3114.792
1003.878, 3423.455
1004.989, 3453.123
1006.100, 3523.942
1007.210, 3591.620
1008.321, 3331.308
1009.431, 3035.999
1010.541, 2754.691
1011.651, 2219.386
1012.761, 2013.082
1013.871, 1636.780
1014.980, 1346.479
1016.090, 1138.179
1017.199, 902.8801
1018.308, 856.5820
1019.417, 640.2849
1020.526, 560.9900
1021.635, 427.6965
1022.743, 392.4048
1023.852, 402.1143
1024.960, 240.8262
1026.068, 243.5403
1027.176, 280.2539
1028.283, 326.9685
1029.391, 340.6826
1030.498, 367.3955
1031.606, 358.9424
1032.713, 332.5222
1033.820, 299.5383
1034.927, 257.2515
1036.033, 172.9658
1037.140, 149.6787
1038.246, 104.9688
1039.353, 80.87451
1040.459, 53.82837
1041.564, 64.54785
1042.670, 66.26636
1043.776, 74.76221
1044.881, 70.70020
1045.987, 76.42627
1047.092, 55.15186
1048.197, 53.87402
1049.302, 59.59229
1050.406, 5.355469
1051.511, 48.06543
1052.615, 17.76978
1053.720, 38.50879
1054.824, 104.2046
1055.928, 5.916748
1057.031, 5.807129
1058.135, 62.45093
1059.238, 39.80957
1060.342, 50.19214
1061.445, 51.34033
1062.548, 16.28516
1063.651, 48.00439
1064.754, 4.293213
1065.856, 62.60449
1066.959, 4.852783
1068.061, 39.28784
1069.163, 47.47339
1070.265, 71.94995
1071.367, 25.32471
1072.469, 83.94263
1073.570, 17.29443
1074.671, 17.84888
1075.773, 11.62451
1076.874, 64.15723
1077.975, 43.97534
1079.075, 38.81494
1080.176, 18.72876
1081.276, 29.66846
1082.377, 25.36011
1083.477, 28.62524
1084.577, 9.356689
1085.677, 4.677490
1086.777, 20.29419
1087.876, 28.59570
1088.975, 3.305908
1090.075, 12.81128
1091.174, 29.04272
1092.273, 0.1188960
1093.372, 25.81592
1094.470, 41.38574
1095.569, 75.63257
1096.667, 5.109375
1097.765, 8.196289
1098.863, 1.080811
1099.961, 27.20654
1101.059, 23.81470
1102.157, 70.59424
1103.254, 19.06714
1104.351, 7.577881
1105.449, 71.12085
1106.546, 5.729492
1107.642, 22.36816
1108.739, 18.95605
1109.836, 3.740723
1110.932, 32.54150
1112.028, 4.196289
1113.124, 13.96826
1114.220, 32.22461
1115.316, 22.60254
1116.412, 35.52563
1117.507, 31.63232
1118.603, 40.71851
1119.698, 11.78711
1120.793, 64.82617
1121.888, 78.84521
1122.983, 136.8455
1124.077, 111.8264
1125.172, 38.78833
1126.266, 73.73560
1127.360, 130.6621
1128.454, 153.5691
1129.548, 57.46924
1130.642, 97.34619
1131.735, 30.20166
1132.829, 163.0308
1133.922, 113.8413
1135.015, 174.6316
1136.108, 151.4004
1137.201, 117.1514
1138.294, 259.8796
1139.386, 234.5854
1140.478, 292.2700
1141.571, 184.9424
1142.663, 251.6223
1143.755, 294.2893
1144.846, 315.9749
1145.938, 277.6267
1147.030, 223.2954
1148.121, 310.9893
1149.212, 335.7041
1150.303, 263.4395
1151.394, 359.3169
1152.485, 407.1692
1153.575, 311.1094
1154.666, 311.9778
1155.756, 380.0908
1156.846, 369.2266
1157.936, 311.7388
1159.026, 318.5781
1160.116, 268.0984
1161.205, 275.5171
1162.295, 281.3164
1163.384, 337.1143
1164.473, 346.0347
1165.562, 349.3760
1166.651, 324.3176
1167.739, 302.7490
1168.828, 311.0581
1169.916, 274.3362
1171.005, 281.9048
1172.093, 291.3621
1173.181, 355.9084
1174.268, 239.6567
1175.356, 308.0271
1176.443, 279.3115
1177.531, 286.1069
1178.618, 220.1470
1179.705, 241.1980
1180.792, 186.4233
1181.879, 274.2798
1182.965, 274.0581
1184.052, 191.1597
1185.138, 220.1274
1186.224, 156.9807
1187.310, 192.5720
1188.396, 187.2336
1189.482, 205.9597
1190.567, 220.9717
1191.653, 136.1577
1192.738, 181.2632
1193.823, 159.5862
1194.908, 150.4878
1195.993, 153.5298
1197.077, 126.5781
1198.162, 168.7537
1199.246, 101.0283
1200.331, 160.7773
1201.415, 121.8801
1202.499, 173.9089
1203.582, 93.35571
1204.666, 136.8628
1205.750, 189.2729
1206.833, 121.8394
1207.916, 232.1580
1208.999, 164.4807
1210.082, 178.1968
1211.165, 185.9634
1212.248, 249.0388
1213.330, 183.9092
1214.412, 194.8796
1215.495, 190.4421
1216.577, 172.7783
1217.658, 136.3181
1218.740, 216.8613
1219.822, 224.4917
1220.903, 187.7632
1221.985, 245.4785
1223.066, 147.4497
1224.147, 206.8870
1225.228, 246.4561
1226.308, 158.6309
1227.389, 221.4473
1228.469, 242.0913
1229.550, 137.1162
1230.630, 231.4116
1231.710, 181.0234
1232.790, 229.2900
1233.869, 222.4866
1234.949, 197.5037
1236.028, 280.4985
1237.108, 159.9197
1238.187, 314.7581
1239.266, 303.9988
1240.344, 211.6992
1241.423, 233.8726
1242.502, 182.5310
1243.580, 223.5049
1244.658, 209.9082
1245.736, 241.3179
1246.814, 252.3945
1247.892, 232.6685
1248.970, 248.7239
1250.047, 256.6516
1251.125, 235.9211
1252.202, 304.6128
1253.279, 292.7271
1254.356, 303.1519
1255.433, 247.9175
1256.509, 291.0930
1257.586, 329.4490
1258.662, 267.5654
1259.738, 368.3284
1260.814, 363.2600
1261.890, 293.7549
1262.966, 321.1792
1264.042, 234.4834
1265.117, 196.3613
1266.193, 210.9722
1267.268, 192.7476
1268.343, 201.3489
1269.418, 186.4463
1270.492, 177.9773
1271.567, 161.4856
1272.642, 159.3855
1273.716, 150.7959
1274.790, 153.4639
1275.864, 144.1558
1276.938, 132.9839
1278.012, 122.4773
1279.085, 112.0740
1280.159, 72.67358
1281.232, 73.30811
1282.305, 49.54077
1283.378, 57.82056
1284.451, 25.01318
1285.524, 21.52588
1286.597, 126.2014
1287.669, 47.30566
1288.741, 112.9702
1289.813, 131.2324
1290.885, 43.52441
1291.957, 40.62964
1293.029, 24.71753
1294.101, 125.8816
1295.172, 18.87061
1296.243, 91.82764
1297.315, 114.8052
1298.386, 13.37549
1299.456, 2.601563
1300.527, 60.13452
1301.598, 42.36353
1302.668, 19.04004
1303.738, 61.68359
1304.809, 32.57153
1305.879, 10.98901
1306.948, 120.5356
1308.018, 111.0337
1309.088, 62.66650
1310.157, 125.0571
1311.226, 155.4683
1312.296, 60.85205
1313.365, 96.27539
1314.433, 116.8071
1315.502, 104.9263
1316.571, 117.1709
1317.639, 94.38086
1318.707, 103.8691
1319.776, 125.4497
1320.844, 105.8550
1321.911, 171.0117
1322.979, 164.0518
1324.047, 164.6313
1325.114, 105.0347
1326.181, 103.9111
1327.249, 119.9409
1328.316, 101.6807
1329.382, 107.6587
1330.449, 87.48584
1331.516, 46.51807
1332.582, 50.22998
1333.648, 48.39941
1334.715, 76.15137
1335.781, 54.91113
1336.846, 98.92822
1337.912, 63.87158
1338.978, 95.86523
1340.043, 78.83447
1341.108, 117.7734
1342.174, 83.69043
1343.239, 252.5859
1344.303, 19.54053
1345.368, 162.2798
1346.433, 114.9224
1347.497, 70.72168
1348.561, 142.4854
1349.626, 91.22949
1350.690, 130.9326
1351.753, 137.4937
1352.817, 51.14697
1353.881, 3.214355
1354.944, 13.62646
1356.007, 25.10400
1357.071, 24.66650
1358.134, 123.0635
1359.196, 41.58398
1360.259, 47.07080
1361.322, 103.5552
1362.384, 64.15479
1363.447, 56.60742
1364.509, 11.08545
1365.571, 4.503418
1366.633, 48.93066
1367.694, 32.68018
1368.756, 81.68311
1369.817, 99.02295
1370.879, 2.418945
1371.940, 25.88818
1373.001, 78.17188
1374.062, 69.50342
1375.122, 27.75586
1376.183, 0.9228520
1377.244, 98.28271
1378.304, 35.47070
1379.364, 3.636230
1380.424, 116.1343
1381.484, 29.25391
1382.544, 19.63721
1383.603, 32.42920
1384.663, 35.47266
1385.722, 35.49854
1386.781, 75.66455
1387.840, 67.83887
1388.899, 51.77930
1389.958, 18.86230
1391.017, 14.75781
1392.075, 102.6660
1393.134, 2.515625
1394.192, 79.35059
1395.250, 164.1538
1396.308, 76.99170
1397.365, 23.13428
1398.423, 10.37109
1399.481, 52.30908
1400.538, 2.960449
1401.595, 94.73242
1402.652, 82.31250
1403.709, 45.83447
1404.766, 116.2593
1405.823, 84.61719
1406.879, 76.91162
1407.936, 66.25391
1408.992, 182.3442
1410.048, 131.3027
1411.104, 151.3315
1412.160, 11.02490
1413.215, 112.6514
1414.271, 147.6621
1415.326, 25.48730
1416.382, 91.77832
1417.437, 77.93457
1418.492, 114.6655
1419.546, 111.5918
1420.601, 85.10840
1421.656, 120.1533
1422.710, 119.6733
1423.764, 107.6084
1424.819, 170.1045
1425.873, 148.1187
1426.926, 149.0298
1427.980, 30.64697
1429.034, 158.1182
1430.087, 185.3257
1431.140, 105.8599
1432.194, 195.4766
1433.247, 128.3350
1434.299, 142.8584
1435.352, 93.33447
1436.405, 176.4805
1437.457, 188.7578
1438.510, 134.0635
1439.562, 103.8135
1440.614, 81.48340
1441.666, 246.1675
1442.717, 295.7256
1443.769, 126.4028
1444.821, 246.4658
1445.872, 177.2607
1446.923, 152.8467
1447.974, 217.3467
1449.025, 221.4736
1450.076, 218.4194
1451.127, 216.4800
1452.177, 298.6553
1453.227, 209.8545
1454.278, 243.1499
1455.328, 265.3105
1456.378, 197.8760
1457.428, 168.1279
1458.477, 248.3975
1459.527, 291.4766
1460.576, 193.3252
1461.625, 262.3799
1462.675, 298.1792
1463.724, 182.9028
1464.772, 234.4360
1465.821, 206.2534
1466.870, 218.1250
1467.918, 262.7720
1468.966, 182.6626
1470.015, 188.0366
1471.063, 194.9434
1472.110, 150.9746
1473.158, 200.7109
1474.206, 115.8130
1475.253, 159.2817
1476.301, 167.1670
1477.348, 185.9619
1478.395, 193.7256
1479.442, 142.8232
1480.488, 152.1328
1481.535, 69.64160
1482.582, 196.0845
1483.628, 185.8545
1484.674, 97.25537
1485.720, 183.1089
1486.766, 126.5425
1487.812, 67.84619
1488.858, 115.9570
1489.903, 91.08252
1490.949, 146.0283
1491.994, 136.6284
1493.039, 22.76709
1494.084, 165.1328
1495.129, 124.0630
1496.173, 38.23926
1497.218, 105.4399
1498.262, 148.3394
1499.307, 78.47803
1500.351, 99.33105
1501.395, 69.49023
1502.439, 196.4263
1503.483, 107.1265
1504.526, 99.15039
1505.570, 18.13379
1506.613, 173.0562
1507.656, 84.92920
1508.699, 147.7549
1509.742, 119.5254
1510.785, 84.27393
1511.827, 42.95605
1512.870, 34.61133
1513.912, 148.2637
1514.955, 44.86963
1515.997, 181.5112
1517.039, 74.16797
1518.080, 103.8252
1519.122, 79.47705
1520.164, 86.19141
1521.205, 67.99854
1522.246, 53.83789
1523.288, 72.29590
1524.329, 137.2827
1525.369, 105.2729
1526.410, 35.88770
1527.451, 132.8413
1528.491, 85.90479
1529.531, 76.85840
1530.572, 118.8716
1531.612, 74.72021
1532.652, 23.33252
1533.691, 182.7749
1534.731, 79.56250
1535.770, 59.77783
1536.810, 195.4160
1537.849, 81.05859
1538.888, 3.173828
1539.927, 102.5835
1540.966, 27.93066
1542.005, 100.3901
1543.043, 101.5566
1544.082, 22.09766
1545.120, 80.42725
1546.158, 73.44482
1547.196, 40.08984
1548.234, 52.24902
1549.272, 12.21191
1550.309, 46.69531
1551.347, 17.98145
1552.384, 105.9458
1553.421, 118.3628
1554.458, 90.55273
1555.495, 124.8174
1556.532, 48.58887
1557.568, 80.68799
1558.605, 29.28809
1559.641, 11.49854
1560.678, 7.312988
1561.714, 29.88184
1562.750, 0.4199220
1563.785, 0.0000000E+00
##END=



