##NAMES=Grossular
##RRUFFID=R060444
##IDEAL CHEMISTRY=Ca_3_Al_2_(SiO_4_)_3_
##LOCALITY=Pakistan (?)
##OWNER=RRUFF
##SOURCE=Gemological Institute of America
##DESCRIPTION=Tan colored crystals coating a surface
##STATUS=The identification of this mineral has been confirmed by X-ray diffraction and chemical analysis
##URL=rruff.info/R060444
##MEASURED CHEMISTRY=(Ca_2.98_Mn_0.02_)_Σ=3_(Al_1.84_Fe^3+^_0.13_Ti_0.03_)_Σ=2_((Si_0.99_Al_0.01_)_Σ=1_O_4_)_3_
##PIN_ID=M00607
##ORIENTATION=Laser parallel to a* (1 0 0). Fiducial mark perpendicular to laser is parallel to 0 0 -1
129.0000, 0.0000000E+00
130.2340, 35.33887
131.4670, 3.155762
132.7000, 90.77295
133.9330, 3.609863
135.1660, 42.34229
136.3990, 48.54395
137.6310, 2.477539
138.8640, 52.48682
140.0960, 19.72998
141.3280, 42.43213
142.5600, 7.420410
143.7910, 12.58789
145.0230, 53.87451
146.2540, 20.24658
147.4850, 70.68555
148.7160, 61.57471
149.9470, 12.45459
151.1780, 77.25732
152.4080, 85.69141
153.6380, 146.9102
154.8690, 58.96191
156.0980, 115.8848
157.3280, 61.70898
158.5580, 96.45801
159.7870, 127.1514
161.0170, 11.80469
162.2460, 65.43115
163.4750, 25.04150
164.7030, 68.64453
165.9320, 162.2485
167.1600, 117.9990
168.3890, 255.0610
169.6170, 369.6470
170.8450, 506.5684
172.0730, 608.3931
173.3000, 785.2778
174.5280, 860.4985
175.7550, 1152.347
176.9820, 1357.291
178.2090, 1564.326
179.4350, 1589.446
180.6620, 1297.647
181.8880, 1188.927
183.1150, 958.2803
184.3410, 681.7051
185.5670, 476.1982
186.7920, 263.7524
188.0180, 212.3652
189.2430, 144.0356
190.4690, 107.7632
191.6940, 97.54541
192.9180, 111.3818
194.1430, 88.27197
195.3680, 97.21387
196.5920, 86.20801
197.8160, 64.25293
199.0400, 59.34766
200.2640, 73.49316
201.4880, 76.68896
202.7110, 73.92822
203.9350, 40.80518
205.1580, 4.486816
206.3810, 56.19531
207.6040, 105.8320
208.8270, 32.39307
210.0490, 1.826172
211.2710, 50.84521
212.4940, 19.39307
213.7160, 1.451660
214.9370, 42.38916
216.1590, 135.3979
217.3810, 62.49365
218.6020, 121.6255
219.8230, 72.77393
221.0440, 145.9385
222.2650, 278.1187
223.4860, 202.3115
224.7060, 290.5190
225.9260, 452.7407
227.1470, 569.9785
228.3670, 649.2324
229.5860, 862.5044
230.8060, 1009.794
232.0260, 1296.103
233.2450, 1487.430
234.4640, 2001.777
235.6830, 2403.145
236.9020, 2638.533
238.1200, 2839.942
239.3390, 3044.374
240.5570, 3208.804
241.7750, 3459.197
242.9930, 3689.566
244.2110, 3976.956
245.4290, 4093.366
246.6460, 3894.801
247.8630, 3353.261
249.0810, 2666.747
250.2980, 1995.258
251.5140, 1456.795
252.7310, 1076.356
253.9470, 676.9424
255.1640, 606.5542
256.3800, 526.1904
257.5960, 626.8516
258.8120, 558.5381
260.0270, 688.2500
261.2430, 631.9863
262.4580, 594.7495
263.6730, 665.5381
264.8880, 789.3540
266.1030, 918.1982
267.3170, 1068.072
268.5320, 1292.481
269.7460, 1557.907
270.9600, 1864.873
272.1740, 2235.872
273.3880, 2704.905
274.6010, 2968.971
275.8150, 3424.470
277.0280, 3415.978
278.2410, 3390.489
279.4540, 3065.024
280.6670, 2476.512
281.8790, 2008.074
283.0920, 1497.666
284.3040, 1121.050
285.5160, 949.3276
286.7280, 770.9688
287.9400, 586.7275
289.1510, 516.0508
290.3630, 396.7832
291.5740, 427.7559
292.7850, 227.9092
293.9960, 240.5088
295.2070, 99.67236
296.4170, 121.1274
297.6280, 124.9961
298.8380, 84.66016
300.0480, 8.264648
301.2580, 156.2310
302.4680, 217.0308
303.6770, 121.3779
304.8870, 146.6445
306.0960, 178.7505
307.3050, 140.8145
308.5140, 293.9023
309.7230, 294.0137
310.9310, 230.1484
312.1400, 312.3076
313.3480, 436.4580
314.5560, 413.5039
315.7640, 447.5537
316.9720, 550.6196
318.1790, 472.7139
319.3870, 516.8359
320.5940, 589.9863
321.8010, 575.1631
323.0080, 758.3667
324.2150, 869.5962
325.4210, 901.8521
326.6280, 1161.133
327.8340, 1263.440
329.0400, 1254.771
330.2460, 1254.126
331.4510, 1199.506
332.6570, 1139.910
333.8620, 1113.338
335.0680, 982.7891
336.2730, 943.2627
337.4780, 941.7593
338.6820, 964.2788
339.8870, 1017.820
341.0910, 1053.384
342.2950, 1258.969
343.5000, 1415.576
344.7030, 1580.204
345.9070, 1742.854
347.1110, 1932.523
348.3140, 2049.214
349.5170, 2146.043
350.7200, 2299.774
351.9230, 2481.902
353.1260, 2796.231
354.3290, 3044.681
355.5310, 3620.419
356.7330, 4204.250
357.9350, 4959.396
359.1370, 5729.255
360.3390, 7061.138
361.5400, 8450.039
362.7420, 10470.96
363.9430, 12586.89
365.1440, 15374.84
366.3450, 18281.80
367.5460, 21401.78
368.7460, 24923.78
369.9470, 28497.79
371.1470, 32113.82
372.3470, 34939.86
373.5470, 36443.93
374.7460, 35323.99
375.9460, 32056.09
377.1450, 27178.19
378.3450, 22313.31
379.5440, 17624.45
380.7430, 13735.60
381.9410, 10744.77
383.1400, 8676.960
384.3380, 6828.169
385.5370, 5706.392
386.7350, 4785.635
387.9320, 4163.896
389.1300, 3476.175
390.3280, 3003.474
391.5250, 2749.801
392.7220, 2548.156
393.9190, 2249.557
395.1160, 2099.979
396.3130, 1856.434
397.5100, 1791.926
398.7060, 1704.468
399.9020, 1664.062
401.0980, 1606.151
402.2940, 1494.360
403.4900, 1509.072
404.6860, 1582.819
405.8810, 1526.620
407.0760, 1640.463
408.2710, 1733.364
409.4660, 1740.323
410.6610, 1861.331
411.8550, 2031.380
413.0500, 2178.462
414.2440, 2179.600
415.4380, 2065.333
416.6320, 1935.984
417.8260, 1567.246
419.0190, 1238.552
420.2130, 807.8970
421.4060, 722.2725
422.5990, 556.6846
423.7920, 360.1265
424.9850, 194.5962
426.1770, 48.11328
427.3700, 73.67139
428.5620, 64.72803
429.7540, 12.89355
430.9460, 73.43652
432.1380, 83.75342
433.3290, 50.06787
434.5210, 54.38086
435.7120, 77.69482
436.9030, 21.01807
438.0940, 76.33496
439.2850, 9.665039
440.4750, 105.9800
441.6660, 43.32471
442.8560, 17.67578
444.0460, 26.01904
445.2360, 84.36426
446.4260, 33.73633
447.6160, 53.11279
448.8050, 1.498047
449.9940, 95.11572
451.1830, 146.7402
452.3720, 191.3711
453.5610, 192.0073
454.7500, 241.6489
455.9380, 237.3374
457.1260, 246.8252
458.3150, 245.6069
459.5020, 274.2695
460.6900, 304.9355
461.8780, 376.6055
463.0650, 326.2778
464.2530, 349.9536
465.4400, 276.6313
466.6270, 458.3110
467.8130, 422.9922
469.0000, 434.6753
470.1870, 593.3584
471.3730, 551.0420
472.5590, 672.7266
473.7450, 742.4111
474.9310, 888.0952
476.1160, 855.7783
477.3020, 907.4609
478.4870, 904.1416
479.6720, 809.8218
480.8570, 703.5000
482.0420, 622.1763
483.2270, 492.8501
484.4110, 548.5210
485.5960, 486.1890
486.7800, 339.8535
487.9640, 417.5151
489.1480, 473.1729
490.3310, 439.8267
491.5150, 505.4761
492.6980, 625.1289
493.8810, 644.7769
495.0640, 754.4312
496.2470, 751.1040
497.4300, 840.7773
498.6120, 890.4448
499.7950, 1033.106
500.9770, 1096.765
502.1590, 1212.416
503.3410, 1396.060
504.5220, 1597.697
505.7040, 1833.326
506.8850, 2017.947
508.0660, 2173.560
509.2470, 2088.165
510.4280, 1950.760
511.6090, 1440.348
512.7890, 1321.925
513.9700, 1014.493
515.1500, 968.0518
516.3300, 858.5996
517.5100, 738.1377
518.6900, 605.7632
519.8690, 694.2803
521.0490, 734.1709
522.2280, 680.1665
523.4070, 690.0527
524.5860, 750.1909
525.7640, 713.7007
526.9430, 734.9385
528.1210, 720.3667
529.3000, 651.7285
530.4780, 681.0347
531.6560, 757.6768
532.8330, 836.0215
534.0110, 907.6631
535.1880, 1155.659
536.3650, 1595.204
537.5430, 1996.331
538.7190, 2754.197
539.8960, 3550.561
541.0730, 4728.856
542.2490, 5857.073
543.4250, 7197.595
544.6020, 8892.635
545.7780, 10648.73
546.9530, 11595.55
548.1290, 11522.56
549.3040, 10229.41
550.4800, 8475.171
551.6550, 6691.016
552.8300, 5015.637
554.0040, 3791.789
555.1790, 2858.446
556.3540, 2221.060
557.5280, 1915.813
558.7020, 1592.490
559.8760, 1519.417
561.0500, 1442.087
562.2230, 1349.006
563.3970, 1193.443
564.5700, 1191.137
565.7430, 1160.472
566.9160, 1144.409
568.0890, 1164.803
569.2620, 1078.540
570.4340, 1071.630
571.6070, 1095.008
572.7790, 1001.524
573.9510, 913.2354
575.1230, 925.1670
576.2940, 925.7505
577.4660, 974.3047
578.6370, 885.4146
579.8080, 884.3726
580.9790, 815.8047
582.1500, 816.6338
583.3210, 808.0293
584.4910, 813.1440
585.6620, 863.0146
586.8320, 924.8770
588.0020, 900.4648
589.1720, 869.1509
590.3410, 839.7856
591.5110, 787.3970
592.6800, 755.6680
593.8500, 694.7246
595.0190, 715.9229
596.1880, 617.2617
597.3560, 639.3149
598.5250, 612.3960
599.6930, 736.3623
600.8620, 639.9844
602.0300, 692.6846
603.1970, 715.2495
604.3650, 713.9219
605.5330, 783.3823
606.7000, 802.8545
607.8680, 829.2339
609.0350, 871.1152
610.2020, 893.8701
611.3680, 929.1265
612.5350, 925.3418
613.7010, 944.5151
614.8680, 1040.647
616.0340, 1252.738
617.2000, 1377.787
618.3660, 1460.793
619.5310, 1668.758
620.6970, 1808.680
621.8620, 1866.561
623.0270, 2154.398
624.1920, 2391.194
625.3570, 2474.946
626.5220, 2679.656
627.6860, 2672.323
628.8500, 2473.947
630.0140, 2307.529
631.1780, 1981.067
632.3420, 1863.562
633.5060, 1498.014
634.6700, 1414.423
635.8330, 1260.788
636.9960, 1233.109
638.1590, 1070.387
639.3220, 950.6206
640.4850, 1010.812
641.6470, 930.9570
642.8100, 1013.061
643.9720, 918.1191
645.1340, 1000.134
646.2960, 848.1055
647.4570, 941.0322
648.6190, 780.9150
649.7800, 864.7539
650.9420, 799.5493
652.1030, 791.3008
653.2640, 755.0088
654.4240, 597.6733
655.5850, 556.2949
656.7450, 485.8730
657.9060, 316.4077
659.0660, 423.8984
660.2260, 248.3467
661.3850, 220.7480
662.5450, 244.1035
663.7040, 181.4121
664.8640, 101.6733
666.0230, 151.8828
667.1820, 108.0435
668.3410, 116.1538
669.4990, 126.2134
670.6580, 79.22363
671.8160, 14.18066
672.9740, 8.067383
674.1320, 46.11914
675.2900, 30.59277
676.4480, 1.758789
677.6050, 30.18750
678.7630, 70.70850
679.9200, 86.34277
681.0770, 38.09814
682.2340, 11.94971
683.3900, 68.88330
684.5470, 22.92822
685.7030, 99.05957
686.8590, 55.31689
688.0150, 117.6777
689.1710, 117.1738
690.3270, 87.80469
691.4830, 53.55420
692.6380, 31.40381
693.7930, 120.3418
694.9480, 9.413574
696.1030, 108.5610
697.2580, 76.83447
698.4130, 82.21826
699.5670, 47.71338
700.7210, 21.30127
701.8750, 46.96826
703.0290, 20.72656
704.1830, 16.56104
705.3370, 91.46973
706.4900, 68.49072
707.6430, 75.61133
708.7970, 92.83496
709.9490, 105.1572
711.1020, 78.59619
712.2550, 60.12305
713.4070, 7.725098
714.5600, 7.340332
715.7120, 11.08691
716.8640, 6.158203
718.0160, 1.645508
719.1670, 1.490234
720.3190, 0.6118160
721.4700, 59.68262
722.6210, 3.282227
723.7720, 100.7021
724.9230, 136.6499
726.0740, 65.57422
727.2250, 55.46240
728.3750, 100.3174
729.5250, 110.1328
730.6750, 179.9072
731.8250, 219.6440
732.9750, 174.3447
734.1240, 129.0078
735.2740, 185.6323
736.4230, 167.2202
737.5720, 182.7720
738.7210, 272.2866
739.8700, 222.7690
741.0190, 243.2163
742.1670, 205.6318
743.3150, 248.0132
744.4630, 229.3628
745.6110, 438.6797
746.7590, 300.9653
747.9070, 442.2192
749.0540, 467.4429
750.2020, 494.6357
751.3490, 640.7974
752.4960, 635.9292
753.6430, 658.0303
754.7890, 706.1025
755.9360, 845.1445
757.0820, 908.1572
758.2280, 984.1411
759.3740, 1099.096
760.5200, 1189.023
761.6660, 1273.920
762.8120, 1423.790
763.9570, 1588.632
765.1020, 1651.447
766.2470, 1825.235
767.3920, 1910.997
768.5370, 2045.732
769.6810, 2114.447
770.8260, 2213.138
771.9700, 2247.167
773.1140, 2254.453
774.2580, 2248.074
775.4020, 2164.672
776.5460, 2078.254
777.6890, 1921.814
778.8320, 1924.358
779.9750, 1767.888
781.1180, 1829.396
782.2610, 1625.893
783.4040, 1521.377
784.5460, 1581.852
785.6890, 1569.311
786.8310, 1496.762
787.9730, 1485.221
789.1150, 1471.683
790.2560, 1507.170
791.3980, 1549.684
792.5390, 1630.640
793.6810, 1743.739
794.8220, 1844.273
795.9630, 1934.717
797.1030, 2045.290
798.2440, 2343.473
799.3840, 2417.569
800.5240, 2802.794
801.6650, 2928.797
802.8040, 3262.416
803.9440, 3460.281
805.0840, 3846.949
806.2230, 4022.658
807.3630, 4481.402
808.5020, 4996.792
809.6410, 5432.451
810.7790, 5792.785
811.9180, 6413.736
813.0570, 6849.106
814.1950, 7400.865
815.3330, 8150.851
816.4710, 8769.308
817.6090, 9718.803
818.7470, 10533.35
819.8840, 11648.56
821.0220, 12677.22
822.1590, 13493.79
823.2960, 13875.62
824.4330, 14243.22
825.5690, 13729.94
826.7060, 13254.74
827.8420, 12338.42
828.9790, 11419.30
830.1150, 10445.63
831.2510, 9618.419
832.3860, 8908.091
833.5220, 8239.671
834.6570, 7731.561
835.7930, 7277.972
836.9280, 6950.614
838.0630, 6713.525
839.1980, 6700.795
840.3320, 6527.324
841.4670, 6597.187
842.6010, 6748.412
843.7350, 6677.152
844.8690, 6793.516
846.0030, 7017.872
847.1370, 6922.530
848.2700, 7177.935
849.4040, 7023.577
850.5370, 7042.591
851.6700, 7272.710
852.8030, 7118.680
853.9360, 7204.647
855.0680, 7260.375
856.2000, 7550.182
857.3330, 7631.130
858.4650, 8009.708
859.5970, 8289.621
860.7290, 8804.404
861.8600, 9218.358
862.9920, 10137.03
864.1230, 11077.68
865.2540, 12233.54
866.3850, 13620.46
867.5160, 15548.69
868.6460, 17637.10
869.7770, 20382.35
870.9070, 23782.42
872.0370, 27629.75
873.1670, 31942.03
874.2970, 37081.38
875.4270, 42378.06
876.5570, 47441.62
877.6860, 51390.30
878.8150, 53947.83
879.9440, 54759.55
881.0730, 53222.23
882.2020, 50293.97
883.3300, 45988.71
884.4590, 40367.49
885.5870, 35311.25
886.7150, 30174.03
887.8430, 25603.81
888.9710, 21842.61
890.0990, 18369.41
891.2260, 15753.23
892.3530, 13216.05
893.4810, 11435.88
894.6080, 9855.726
895.7340, 8512.576
896.8610, 7496.438
897.9880, 6446.310
899.1140, 6024.189
900.2400, 5313.078
901.3660, 4881.340
902.4920, 4444.328
903.6180, 4056.346
904.7430, 3811.340
905.8690, 3646.803
906.9940, 3391.625
908.1190, 3269.077
909.2440, 2994.389
910.3690, 2905.886
911.4930, 2761.649
912.6180, 2476.086
913.7420, 2507.830
914.8660, 2326.947
915.9900, 2242.394
917.1140, 2205.994
918.2380, 1944.456
919.3610, 1746.197
920.4850, 1672.696
921.6080, 1604.716
922.7310, 1461.848
923.8540, 1562.112
924.9760, 1426.350
926.0990, 1353.343
927.2210, 1490.261
928.3440, 1228.170
929.4660, 1130.243
930.5880, 1284.025
931.7090, 961.6650
932.8310, 1171.229
933.9520, 1041.798
935.0740, 1049.498
936.1950, 1031.924
937.3160, 1007.415
938.4360, 1036.580
939.5570, 902.7568
940.6780, 943.9307
941.7980, 1061.730
942.9180, 826.4946
944.0380, 1072.580
945.1580, 1103.865
946.2780, 1048.653
947.3970, 950.1274
948.5170, 1017.748
949.6360, 887.2544
950.7550, 997.7861
951.8740, 864.3643
952.9930, 777.9722
954.1110, 842.9834
955.2300, 659.1064
956.3480, 548.2041
957.4660, 472.6846
958.5840, 409.8198
959.7020, 385.1582
960.8190, 251.7461
961.9370, 300.0176
963.0540, 161.7554
964.1710, 167.1768
965.2880, 169.7778
966.4050, 158.7188
967.5220, 203.6650
968.6380, 284.2881
969.7550, 351.2773
970.8710, 396.5171
971.9870, 591.4355
973.1030, 503.5166
974.2190, 576.1685
975.3340, 704.1694
976.4500, 596.7412
977.5650, 711.1533
978.6800, 903.6382
979.7950, 1052.993
980.9100, 1078.297
982.0250, 1128.635
983.1390, 1072.357
984.2530, 1179.796
985.3680, 1281.617
986.4820, 1273.831
987.5950, 1379.656
988.7090, 1410.284
989.8230, 1451.762
990.9360, 1467.258
992.0490, 1552.424
993.1620, 1649.839
994.2750, 1732.783
995.3880, 1838.746
996.5010, 2065.572
997.6130, 2278.925
998.7250, 2369.954
999.8370, 2771.780
1000.949, 3066.604
1002.061, 3386.396
1003.173, 3438.538
1004.284, 3547.755
1005.396, 3398.509
1006.507, 3373.223
1007.618, 3369.508
1008.729, 3057.386
1009.839, 2854.291
1010.950, 2520.683
1012.060, 2197.894
1013.171, 1824.977
1014.281, 1529.706
1015.391, 1184.312
1016.500, 1038.810
1017.610, 804.4717
1018.719, 716.9346
1019.829, 657.0679
1020.938, 545.4404
1022.047, 446.9424
1023.156, 402.0269
1024.264, 329.2842
1025.373, 255.3901
1026.481, 330.7441
1027.589, 220.8594
1028.697, 236.3135
1029.805, 160.3154
1030.913, 125.2759
1032.020, 168.5024
1033.128, 202.4487
1034.235, 45.43945
1035.342, 116.4585
1036.449, 114.3149
1037.556, 16.67822
1038.663, 18.22656
1039.769, 8.699707
1040.875, 31.44824
1041.981, 70.70947
1043.087, 32.17285
1044.193, 29.53516
1045.299, 57.76855
1046.404, 26.63184
1047.510, 33.48145
1048.615, 71.32129
1049.720, 40.51562
1050.825, 36.51172
1051.930, 40.53320
1053.034, 13.99707
1054.139, 43.11719
1055.243, 108.0332
1056.347, 76.88477
1057.451, 170.7236
1058.555, 165.5117
1059.658, 83.40039
1060.762, 129.7637
1061.865, 51.39746
1062.968, 93.28516
1064.071, 169.4648
1065.174, 39.17773
1066.277, 163.0664
1067.380, 159.6504
1068.482, 197.8682
1069.584, 38.53516
1070.686, 53.43750
1071.788, 61.00586
1072.890, 60.76465
1073.992, 5.246094
1075.093, 2.454102
1076.194, 100.0371
1077.295, 59.13281
1078.396, 185.0264
1079.497, 347.7617
1080.598, 240.0986
1081.698, 346.0010
1082.799, 340.9238
1083.899, 275.6875
1084.999, 310.4053
1086.099, 192.3398
1087.199, 171.7617
1088.298, 187.9238
1089.398, 103.3115
1090.497, 198.1230
1091.596, 158.2676
1092.695, 111.4365
1093.794, 199.8379
1094.892, 98.75293
1095.991, 5.302734
1097.089, 146.6797
1098.187, 78.07520
1099.285, 163.8613
1100.383, 88.56641
1101.481, 92.22461
1102.579, 50.83984
1103.676, 125.4033
1104.773, 91.92871
1105.870, 201.5879
1106.967, 123.0400
1108.064, 230.4443
1109.161, 277.8076
1110.257, 268.1475
1111.353, 307.4463
1112.449, 342.6992
1113.545, 340.2178
1114.641, 246.1279
1115.737, 320.2783
1116.832, 232.3857
1117.928, 141.4453
1119.023, 237.4531
1120.118, 286.4111
1121.213, 86.32422
1122.308, 322.1816
1123.402, 163.9922
1124.497, 104.7480
1125.591, 219.4512
1126.685, 215.1113
1127.779, 247.7217
1128.873, 122.2803
1129.967, 199.7812
1131.060, 248.2314
1132.153, 248.6299
1133.247, 72.97656
1134.340, 171.2637
1135.433, 152.4941
1136.525, 262.6689
1137.618, 251.7920
1138.710, 152.8623
1139.802, 229.8799
1140.895, 221.8506
1141.987, 109.7695
1143.078, 145.6309
1144.170, 174.4346
1145.261, 257.1797
1146.353, 284.8691
1147.444, 308.5000
1148.535, 267.0752
1149.626, 312.5977
1150.716, 393.0654
1151.807, 329.4805
1152.897, 295.9893
1153.988, 487.4629
1155.078, 350.0381
1156.168, 383.3760
1157.257, 321.6738
1158.347, 375.7637
1159.436, 291.7959
1160.526, 396.9824
1161.615, 449.9092
1162.704, 336.8418
1163.793, 400.7510
1164.881, 386.5117
1165.970, 375.8535
1167.058, 452.4287
1168.147, 370.9297
1169.235, 388.4062
1170.323, 343.6748
1171.410, 319.3086
1172.498, 287.1836
1173.585, 234.1494
1174.673, 269.8760
1175.760, 257.2832
1176.847, 425.9639
1177.934, 279.2891
1179.020, 351.1865
1180.107, 259.7031
1181.193, 285.0137
1182.279, 279.4062
1183.365, 371.4688
1184.451, 394.7207
1185.537, 342.3984
1186.623, 440.9131
1187.708, 391.2441
1188.793, 340.5498
1189.878, 327.0469
1190.963, 178.5654
1192.048, 64.03711
1193.133, 72.28711
1194.217, 85.76660
1195.302, 15.33301
1196.386, 48.99707
1197.470, 108.4893
1198.554, 105.2197
1199.638, 36.72852
1200.721, 55.44238
1201.805, 19.29883
1202.888, 76.57031
1203.971, 42.51465
1205.054, 26.38477
1206.137, 108.7920
1207.219, 22.88184
1208.302, 33.99121
1209.384, 47.49023
1210.466, 113.2529
1211.548, 209.7773
1212.630, 197.3086
1213.712, 227.9121
1214.794, 231.4043
1215.875, 171.6797
1216.956, 285.6309
1218.037, 347.6436
1219.118, 276.5029
1220.199, 164.8076
1221.280, 315.4736
1222.360, 299.6719
1223.441, 234.2578
1224.521, 459.3262
1225.601, 323.4463
1226.681, 298.5078
1227.760, 194.2998
1228.840, 339.6016
1229.919, 378.8242
1230.999, 424.4082
1232.078, 393.1055
1233.157, 413.3691
1234.236, 552.4697
1235.314, 316.1113
1236.393, 358.6885
1237.471, 483.5146
1238.549, 436.4863
1239.627, 497.0420
1240.705, 443.0986
1241.783, 475.7002
1242.860, 519.5713
1243.938, 422.6211
1245.015, 407.0811
1246.092, 419.1855
1247.169, 505.8848
1248.246, 416.0186
1249.323, 479.2891
1250.399, 499.6914
1251.475, 440.8379
1252.552, 516.2588
1253.628, 588.9141
1254.703, 558.8594
1255.779, 664.0137
1256.855, 554.0928
1257.930, 473.8242
1259.005, 585.0117
1260.080, 503.9053
1261.155, 694.9561
1262.230, 460.6621
1263.305, 656.6221
1264.379, 612.7070
1265.454, 553.8203
1266.528, 632.5645
1267.602, 559.3291
1268.676, 754.1650
1269.750, 597.2012
1270.823, 645.8223
1271.897, 567.0215
1272.970, 485.7109
1274.043, 598.1572
1275.116, 485.8271
1276.189, 557.1309
1277.261, 516.7920
1278.334, 525.8174
1279.406, 400.6436
1280.478, 412.7393
1281.550, 340.0781
1282.622, 336.3682
1283.694, 298.5498
1284.766, 342.6191
1285.837, 339.2383
1286.908, 430.1006
1287.979, 409.9727
1289.050, 327.5391
1290.121, 420.9854
1291.192, 361.2783
1292.262, 353.3242
1293.333, 459.6113
1294.403, 462.9111
1295.473, 530.9346
1296.543, 516.7207
1297.613, 399.9082
1298.682, 301.5449
1299.752, 355.1992
1300.821, 419.4814
1301.890, 561.4365
1302.959, 459.7910
1304.028, 603.2334
1305.096, 392.5762
1306.165, 485.5420
1307.233, 415.8652
1308.301, 563.4434
1309.370, 539.5781
1310.437, 580.7734
1311.505, 477.9023
1312.573, 459.3730
1313.640, 524.9053
1314.708, 645.1953
1315.775, 628.7969
1316.842, 539.2959
1317.908, 566.6240
1318.975, 463.9365
1320.042, 457.3184
1321.108, 483.4805
1322.174, 407.4893
1323.240, 385.6836
1324.306, 341.2822
1325.372, 353.9648
1326.438, 263.2129
1327.503, 306.9688
1328.568, 221.0352
1329.634, 70.36230
1330.699, 153.0234
1331.763, 219.3682
1332.828, 51.41016
1333.893, 35.54590
1334.957, 160.8506
1336.021, 96.46484
1337.085, 111.1904
1338.149, 115.9541
1339.213, 126.0264
1340.277, 142.2559
1341.340, 110.6982
1342.404, 121.0078
1343.467, 161.2773
1344.530, 134.5898
1345.593, 83.62109
1346.655, 121.1699
1347.718, 153.4033
1348.780, 145.1016
1349.843, 201.3770
1350.905, 65.53027
1351.967, 242.3506
1353.028, 113.5645
1354.090, 9.353516
1355.152, 24.43848
1356.213, 70.04492
1357.274, 90.86035
1358.335, 152.7500
1359.396, 4.587891
1360.457, 151.3691
1361.517, 20.90430
1362.578, 48.64746
1363.638, 24.77930
1364.698, 61.30664
1365.758, 1.449219
1366.818, 60.13672
1367.878, 15.67090
1368.937, 215.7617
1369.997, 58.50195
1371.056, 28.22363
1372.115, 162.7432
1373.174, 84.51270
1374.232, 81.75195
1375.291, 96.54297
1376.350, 143.7881
1377.408, 19.41016
1378.466, 229.6025
1379.524, 149.1230
1380.582, 157.8799
1381.640, 55.94629
1382.697, 13.33105
1383.754, 79.54395
1384.812, 161.0479
1385.869, 149.7822
1386.926, 70.92480
1387.983, 68.37402
1389.039, 105.6885
1390.096, 67.29688
1391.152, 145.9229
1392.208, 104.5781
1393.264, 73.51562
1394.320, 57.60449
1395.376, 15.05176
1396.431, 7.912109
1397.487, 41.03320
1398.542, 30.19531
1399.597, 95.05371
1400.652, 162.8711
1401.707, 176.6416
1402.762, 276.3613
1403.816, 199.0371
1404.871, 76.60352
1405.925, 131.9648
1406.979, 128.2119
1408.033, 233.3877
1409.086, 34.33984
1410.140, 302.1865
1411.194, 63.81250
1412.247, 173.5596
1413.300, 48.21387
1414.353, 292.9590
1415.406, 0.6279300
1416.458, 144.0166
1417.511, 171.5342
1418.563, 146.8945
1419.616, 137.1436
1420.668, 103.4170
1421.720, 18.59766
1422.772, 40.69922
1423.823, 80.72656
1424.875, 200.6836
1425.926, 135.2656
1426.977, 185.0059
1428.028, 214.7578
1429.079, 391.4434
1430.130, 304.0693
1431.180, 297.4414
1432.231, 397.9551
1433.281, 296.4482
1434.331, 405.8662
1435.381, 588.1152
1436.431, 556.2754
1437.481, 778.3359
1438.530, 884.3223
1439.580, 888.1797
1440.629, 897.9922
1441.678, 1003.753
1442.727, 893.4717
1443.776, 1097.164
1444.824, 973.7383
1445.873, 1083.076
1446.921, 1096.210
1447.969, 1139.965
1449.017, 1191.785
1450.065, 1417.192
1451.113, 1216.805
1452.160, 1365.519
1453.208, 1328.218
1454.255, 1271.989
1455.302, 1200.387
1456.349, 1221.223
1457.396, 1178.800
1458.443, 1241.408
1459.489, 1152.584
1460.535, 1105.863
1461.582, 1082.846
1462.628, 969.6279
1463.674, 840.1904
1464.719, 1007.488
1465.765, 745.3623
1466.810, 822.1621
1467.856, 829.0625
1468.901, 634.8359
1469.946, 644.6260
1470.991, 656.5576
1472.035, 501.7861
1473.080, 384.7275
1474.124, 382.4902
1475.169, 360.0117
1476.213, 340.1250
1477.257, 320.3789
1478.300, 373.2344
1479.344, 508.8477
1480.388, 566.0645
1481.431, 376.4316
1482.474, 260.8047
1483.517, 359.3750
1484.560, 484.5586
1485.603, 341.6934
1486.645, 281.2598
1487.688, 72.71680
1488.730, 220.9902
1489.772, 215.5156
1490.814, 60.61328
1491.856, 249.4102
1492.898, 89.08984
1493.939, 4.080078
1494.981, 15.15234
1496.022, 56.75977
1497.063, 52.69531
1498.104, 18.35352
1499.145, 9.308594
1500.186, 34.94531
1501.226, 109.5605
1502.266, 41.05859
1503.307, 97.40430
1504.347, 2.412109
1505.387, 177.6191
1506.426, 91.52930
1507.466, 161.3340
1508.505, 110.0254
1509.545, 245.5898
1510.584, 118.0293
1511.623, 41.35938
1512.662, 160.8008
1513.700, 213.2441
1514.739, 97.79688
1515.777, 82.47656
1516.815, 155.2246
1517.854, 133.9473
1518.892, 226.6797
1519.929, 79.43164
1520.967, 20.19336
1522.004, 210.0352
1523.042, 111.0059
1524.079, 339.9707
1525.116, 290.9805
1526.153, 247.0547
1527.190, 254.8555
1528.226, 248.2852
1529.263, 198.5137
1530.299, 243.2090
1531.335, 231.3164
1532.371, 201.8301
1533.407, 293.2793
1534.443, 204.3496
1535.478, 202.4629
1536.514, 184.0703
1537.549, 269.9180
1538.584, 226.7148
1539.619, 159.5820
1540.654, 273.2227
1541.689, 220.4199
1542.723, 297.8184
1543.757, 146.7559
1544.792, 66.35938
1545.826, 173.0371
1546.860, 231.7129
1547.893, 163.8789
1548.927, 200.0996
1549.960, 156.1855
1550.994, 152.1211
1552.027, 91.95508
1553.060, 151.0645
1554.093, 160.6602
1555.126, 8.966797
1556.158, 50.80859
1557.191, 26.38477
1558.223, 33.19922
1559.255, 50.06055
1560.287, 101.1191
1561.319, 140.1484
1562.350, 0.0000000E+00
##END=



