##NAMES=Grossular
##RRUFFID=R060278
##IDEAL CHEMISTRY=Ca_3_Al_2_(SiO_4_)_3_
##LOCALITY=Diakon, Kayes Region, Mali
##OWNER=RRUFF
##SOURCE=Herb Obodda
##DESCRIPTION=Dark brown dodecahedral single crystal
##STATUS=The identification of this mineral has been confirmed by X-ray diffraction and chemical analysis
##URL=rruff.info/R060278
##MEASURED CHEMISTRY=(Ca_2.93_Mg_0.05_Mn_0.02_)_Σ=3_(Al_1.19_Fe^3+^_0.78_Ti_0.03_)_Σ=2_((Si_0.99_Al_0.01_)_Σ=1_O_4_)_3_
##PIN_ID=L01488
##ORIENTATION=Laser parallel to -a* (-1 0 0). Fiducial mark perpendicular to laser is parallel to b [0 1 0]
197.5200, 0.0000000E+00
198.7430, 6.565186
199.9670, 67.80200
201.1900, 64.77930
202.4130, 170.3867
203.6360, 272.4680
204.8590, 158.7256
206.0820, 156.0623
207.3050, 90.92773
208.5270, 26.27808
209.7490, 52.30566
210.9710, 17.53491
212.1930, 3.719971
213.4150, 52.54956
214.6370, 61.96240
215.8580, 55.72607
217.0790, 116.6553
218.3010, 168.6616
219.5210, 223.6611
220.7420, 351.5767
221.9630, 483.3423
223.1830, 695.8975
224.4040, 895.1914
225.6240, 1141.188
226.8440, 1467.933
228.0640, 1724.438
229.2840, 2166.644
230.5030, 2361.499
231.7230, 2765.959
232.9420, 3056.988
234.1610, 3364.556
235.3800, 3781.620
236.5990, 4135.140
237.8170, 4553.074
239.0360, 4848.393
240.2540, 4601.069
241.4720, 4227.086
242.6900, 3377.428
243.9080, 2739.079
245.1250, 2130.031
246.3430, 1563.272
247.5600, 1207.793
248.7770, 750.5889
249.9940, 645.6504
251.2110, 527.9727
252.4280, 379.5503
253.6450, 387.7793
254.8610, 400.9409
256.0770, 433.9365
257.2930, 410.2510
258.5090, 546.7012
259.7250, 584.1245
260.9400, 645.0327
262.1560, 802.9243
263.3710, 832.9736
264.5860, 1040.184
265.8010, 1304.557
267.0160, 1520.096
268.2310, 1983.804
269.4450, 2158.681
270.6600, 2220.697
271.8740, 2215.749
273.0880, 2119.834
274.3020, 1971.941
275.5150, 1954.072
276.7290, 1807.173
277.9420, 1753.316
279.1550, 1621.472
280.3680, 1339.697
281.5810, 1294.000
282.7940, 1147.388
284.0070, 1097.865
285.2190, 875.4375
286.4310, 764.1074
287.6430, 711.8799
288.8550, 470.7583
290.0670, 611.7441
291.2790, 487.8398
292.4900, 463.0479
293.7020, 614.3696
294.9130, 594.8066
296.1240, 517.3599
297.3350, 625.0303
298.5450, 566.8198
299.7560, 817.7280
300.9660, 739.7554
302.1760, 830.9023
303.3860, 852.1689
304.5960, 978.5562
305.8060, 1023.065
307.0150, 1170.700
308.2250, 1294.345
309.4340, 1532.043
310.6430, 1683.480
311.8520, 1880.272
313.0610, 2304.234
314.2700, 2585.893
315.4780, 3014.728
316.6860, 3404.620
317.8940, 3732.677
319.1020, 3891.896
320.3100, 3910.284
321.5180, 3652.839
322.7250, 3515.560
323.9330, 3269.449
325.1400, 3024.501
326.3470, 2824.715
327.5540, 2812.087
328.7600, 2744.611
329.9670, 2703.285
331.1730, 2731.106
332.3800, 2869.074
333.5860, 2979.188
334.7920, 2927.444
335.9970, 3015.844
337.2030, 2963.382
338.4080, 3071.059
339.6140, 3140.874
340.8190, 3299.823
342.0240, 3407.906
343.2290, 3683.759
344.4330, 4017.288
345.6380, 4492.896
346.8420, 5274.383
348.0460, 6224.865
349.2500, 6446.050
350.4540, 7266.356
351.6580, 8441.660
352.8610, 9585.996
354.0650, 11134.63
355.2680, 13202.57
356.4710, 15217.56
357.6740, 16991.41
358.8760, 19245.11
360.0790, 21457.79
361.2810, 24090.63
362.4840, 27048.64
363.6860, 30784.81
364.8880, 35341.13
366.0900, 40839.61
367.2910, 46140.24
368.4930, 50736.00
369.6940, 53624.91
370.8950, 53957.96
372.0960, 51930.14
373.2970, 47689.45
374.4980, 42449.89
375.6980, 36794.46
376.8980, 30937.15
378.0990, 25900.95
379.2990, 21740.88
380.4980, 18068.92
381.6980, 15265.07
382.8980, 12988.33
384.0970, 11271.71
385.2960, 9872.194
386.4950, 8528.785
387.6940, 7614.482
388.8930, 6734.283
390.0920, 5988.189
391.2900, 5290.197
392.4880, 4911.306
393.6860, 4403.515
394.8840, 4023.824
396.0820, 3609.229
397.2800, 3420.731
398.4770, 2908.328
399.6750, 2820.014
400.8720, 2420.786
402.0690, 2148.643
403.2660, 1832.584
404.4620, 1595.609
405.6590, 1318.717
406.8550, 974.9136
408.0510, 725.2134
409.2480, 567.6128
410.4430, 468.1191
411.6390, 269.7383
412.8350, 163.4951
414.0300, 109.4087
415.2250, 48.46631
416.4200, 51.31348
417.6150, 204.9365
418.8100, 246.4160
420.0050, 263.7705
421.1990, 210.9922
422.3940, 208.0781
423.5880, 244.0176
424.7820, 254.8193
425.9750, 249.4912
427.1690, 211.0288
428.3630, 225.4258
429.5560, 131.6992
430.7490, 81.81836
431.9420, 4.770996
433.1350, 16.44336
434.3280, 96.81104
435.5200, 243.3408
436.7130, 418.0132
437.9050, 442.8467
439.0970, 576.8311
440.2890, 628.9614
441.4810, 713.2368
442.6720, 654.6260
443.8640, 714.1426
445.0550, 743.7646
446.2460, 795.4932
447.4370, 861.3027
448.6280, 835.1860
449.8180, 965.1372
451.0090, 925.1543
452.1990, 967.1992
453.3890, 990.2290
454.5790, 957.2612
455.7690, 949.2817
456.9590, 934.2979
458.1480, 936.3281
459.3380, 907.4126
460.5270, 898.5615
461.7160, 858.6626
462.9050, 806.1616
464.0940, 775.3857
465.2820, 674.7837
466.4700, 639.2422
467.6590, 563.5933
468.8470, 539.3950
470.0350, 491.9712
471.2220, 505.6621
472.4100, 498.4092
473.5970, 478.2119
474.7850, 526.0693
475.9720, 594.9800
477.1590, 703.9443
478.3460, 815.9604
479.5320, 1089.028
480.7190, 1274.146
481.9050, 1574.314
483.0910, 1650.532
484.2770, 2011.799
485.4630, 2083.112
486.6490, 2318.489
487.8340, 2468.931
489.0200, 2565.436
490.2050, 2604.005
491.3900, 2691.639
492.5750, 2618.338
493.7600, 2701.102
494.9440, 2536.929
496.1290, 2552.820
497.3130, 2436.792
498.4970, 2430.825
499.6810, 2246.918
500.8650, 2017.073
502.0480, 1841.299
503.2320, 1704.582
504.4150, 1590.920
505.5980, 1421.314
506.7810, 1372.763
507.9640, 1331.265
509.1460, 1197.819
510.3290, 1279.425
511.5110, 1263.083
512.6930, 1325.790
513.8750, 1491.546
515.0570, 1660.352
516.2390, 1803.205
517.4210, 2180.105
518.6020, 2733.053
519.7830, 3003.046
520.9640, 3764.082
522.1450, 4597.166
523.3260, 5581.292
524.5060, 6912.458
525.6870, 8251.671
526.8670, 9813.922
528.0470, 11840.22
529.2270, 13893.55
530.4070, 15676.93
531.5870, 16817.34
532.7660, 17031.79
533.9450, 15789.28
535.1240, 14018.81
536.3030, 11510.37
537.4820, 9307.969
538.6610, 7340.603
539.8390, 5707.272
541.0180, 4393.976
542.1960, 3451.714
543.3740, 2784.485
544.5520, 2296.289
545.7290, 2051.124
546.9070, 1775.991
548.0840, 1666.583
549.2620, 1611.322
550.4390, 1575.428
551.6160, 1585.314
552.7920, 1560.625
553.9690, 1563.388
555.1450, 1581.635
556.3220, 1569.021
557.4980, 1593.975
558.6740, 1588.879
559.8490, 1527.587
561.0250, 1546.252
562.2000, 1383.528
563.3760, 1433.671
564.5510, 1256.377
565.7260, 1166.949
566.9010, 1024.887
568.0750, 835.0024
569.2500, 725.5322
570.4240, 653.1958
571.5980, 532.2485
572.7720, 448.1567
573.9460, 327.0903
575.1200, 275.7742
576.2930, 196.8052
577.4670, 146.0977
578.6400, 57.88306
579.8130, 149.4526
580.9860, 137.1299
582.1590, 149.4236
583.3310, 280.6230
584.5040, 191.9631
585.6760, 244.2896
586.8480, 404.1917
588.0200, 500.4609
589.1920, 548.6743
590.3630, 735.8154
591.5350, 930.9395
592.7060, 1043.046
593.8770, 1107.135
595.0480, 1184.207
596.2190, 1369.260
597.3900, 1556.295
598.5600, 1676.313
599.7310, 1576.313
600.9010, 1734.293
602.0710, 1786.256
603.2410, 1868.198
604.4100, 1910.121
605.5800, 1941.023
606.7490, 2009.005
607.9190, 2051.766
609.0880, 2107.606
610.2570, 2126.423
611.4250, 2153.219
612.5940, 2139.992
613.7620, 2193.743
614.9310, 2145.469
616.0990, 2071.173
617.2670, 2193.853
618.4340, 2083.507
619.6020, 2042.138
620.7690, 1879.743
621.9370, 1668.324
623.1040, 1575.878
624.2710, 1322.407
625.4380, 1252.909
626.6040, 1115.385
627.7710, 1055.833
628.9370, 849.2546
630.1030, 740.6482
631.2690, 666.0137
632.4350, 584.3503
633.6010, 536.6582
634.7660, 525.6687
635.9320, 540.1860
637.0970, 544.4048
638.2620, 573.3755
639.4270, 600.3635
640.5920, 651.8792
641.7560, 683.9756
642.9210, 739.0403
644.0850, 809.0737
645.2490, 908.0752
646.4130, 899.0444
647.5770, 978.9817
648.7400, 1036.887
649.9040, 1052.759
651.0670, 1073.599
652.2300, 1088.406
653.3930, 1040.180
654.5560, 1063.921
655.7190, 1067.628
656.8810, 962.3022
658.0440, 946.9424
659.2060, 952.5493
660.3680, 811.1223
661.5300, 757.6616
662.6910, 737.1667
663.8530, 791.6382
665.0140, 772.0752
666.1750, 812.4780
667.3360, 813.8467
668.4970, 868.1807
669.6580, 938.4800
670.8190, 833.7451
671.9790, 856.9756
673.1390, 930.1709
674.2990, 966.3318
675.4590, 951.4580
676.6190, 914.5493
677.7790, 779.6047
678.9380, 725.6252
680.0970, 652.6104
681.2570, 591.5598
682.4160, 414.4739
683.5740, 385.3518
684.7330, 277.1943
685.8920, 188.0005
687.0500, 118.7705
688.2080, 31.49316
689.3660, 46.13696
690.5240, 13.70850
691.6820, 10.80933
692.8390, 106.4297
693.9960, 181.2029
695.1540, 134.1692
696.3110, 206.3032
697.4680, 202.6440
698.6240, 220.1846
699.7810, 177.9155
700.9370, 213.8086
702.0940, 197.8796
703.2500, 237.1284
704.4060, 222.5762
705.5610, 203.2097
706.7170, 219.0166
707.8720, 220.6980
709.0280, 167.1848
710.1830, 237.5220
711.3380, 262.0674
712.4920, 239.8396
713.6470, 186.8335
714.8020, 225.0215
715.9560, 150.4233
717.1100, 222.9995
718.2640, 188.7878
719.4180, 175.7695
720.5720, 170.9365
721.7250, 59.28638
722.8780, 110.7588
724.0320, 32.38062
725.1850, 43.10913
726.3380, 64.05029
727.4900, 105.1506
728.6430, 230.2029
729.7950, 236.2205
730.9470, 337.2036
732.1000, 379.1531
733.2510, 381.0686
734.4030, 483.9507
735.5550, 548.7996
736.7060, 619.6152
737.8570, 684.3984
739.0090, 786.3779
740.1600, 904.8662
741.3100, 1001.553
742.4610, 1153.208
743.6110, 1272.831
744.7620, 1340.423
745.9120, 1482.984
747.0620, 1580.514
748.2120, 1780.014
749.3610, 1880.483
750.5110, 2014.924
751.6600, 2153.334
752.8090, 2239.715
753.9580, 2376.067
755.1070, 2529.390
756.2560, 2636.685
757.4050, 2762.953
758.5530, 2959.191
759.7010, 3148.403
760.8490, 3324.587
761.9970, 3519.745
763.1450, 3620.876
764.2920, 3716.226
765.4400, 3753.386
766.5870, 3775.112
767.7340, 3732.139
768.8810, 3647.142
770.0280, 3603.120
771.1740, 3362.074
772.3210, 3357.006
773.4670, 3150.919
774.6130, 2940.817
775.7590, 2941.707
776.9050, 2794.609
778.0510, 2706.499
779.1960, 2663.371
780.3420, 2610.244
781.4870, 2542.120
782.6320, 2500.007
783.7770, 2581.904
784.9210, 2667.812
786.0660, 2666.733
787.2100, 2823.656
788.3540, 2936.587
789.4980, 2988.520
790.6420, 3145.456
791.7860, 3292.410
792.9300, 3477.367
794.0730, 3729.344
795.2160, 3997.959
796.3590, 4335.659
797.5020, 4675.379
798.6450, 5099.422
799.7880, 5541.483
800.9300, 5949.565
802.0720, 6600.655
803.2150, 7188.753
804.3560, 7674.866
805.4980, 8358.002
806.6400, 9074.154
807.7810, 9613.329
808.9230, 10598.53
810.0640, 11374.74
811.2050, 12194.96
812.3460, 12938.19
813.4860, 13881.42
814.6270, 14818.65
815.7670, 15422.88
816.9070, 16022.11
818.0470, 16662.34
819.1870, 16618.56
820.3270, 16842.79
821.4670, 16415.01
822.6060, 15933.24
823.7450, 15598.46
824.8840, 15043.99
826.0230, 14384.40
827.1620, 13617.46
828.3010, 13203.78
829.4390, 12361.50
830.5770, 11842.20
831.7150, 11224.16
832.8530, 10671.05
833.9910, 10284.39
835.1290, 9938.946
836.2660, 9562.392
837.4030, 9513.483
838.5410, 9108.321
839.6780, 8961.163
840.8140, 9034.557
841.9510, 8739.874
843.0870, 8861.431
844.2240, 8744.019
845.3600, 8614.533
846.4960, 8687.440
847.6320, 8672.972
848.7680, 8640.014
849.9030, 8411.502
851.0380, 8448.374
852.1740, 8376.920
853.3090, 8379.218
854.4440, 8338.039
855.5780, 8435.093
856.7130, 8561.052
857.8470, 8757.411
858.9820, 9082.877
860.1160, 9558.220
861.2500, 9900.587
862.3830, 10533.39
863.5170, 11067.85
864.6500, 11935.38
865.7840, 12703.99
866.9170, 13569.63
868.0500, 14504.30
869.1830, 15161.00
870.3150, 16106.73
871.4480, 17173.50
872.5800, 17923.29
873.7120, 18273.11
874.8440, 18658.97
875.9760, 18552.86
877.1080, 18330.78
878.2390, 17541.74
879.3710, 16844.72
880.5020, 15746.74
881.6330, 14581.79
882.7640, 13419.88
883.8940, 12248.00
885.0250, 11226.15
886.1550, 10376.33
887.2850, 9384.553
888.4160, 8573.806
889.5450, 7904.091
890.6750, 7096.414
891.8050, 6774.770
892.9340, 6083.160
894.0630, 5661.585
895.1930, 5333.046
896.3220, 5116.541
897.4500, 4757.073
898.5790, 4419.639
899.7070, 4164.241
900.8360, 3947.878
901.9640, 3648.553
903.0920, 3523.262
904.2200, 3343.438
905.3470, 3201.790
906.4750, 3121.799
907.6020, 3027.654
908.7290, 2993.331
909.8560, 2957.676
910.9830, 2916.309
912.1100, 2926.782
913.2360, 2857.578
914.3630, 2962.238
915.4890, 2889.104
916.6150, 3042.854
917.7410, 3056.001
918.8670, 3054.037
919.9920, 3170.711
921.1180, 3040.282
922.2430, 3134.109
923.3680, 3217.149
924.4930, 3185.893
925.6180, 3257.723
926.7420, 3384.966
927.8670, 3449.223
928.9910, 3601.896
930.1150, 3670.338
931.2390, 3748.332
932.3630, 3938.656
933.4860, 4017.452
934.6100, 4146.854
935.7330, 4209.484
936.8560, 4311.521
937.9790, 4372.163
939.1020, 4435.104
940.2250, 4382.728
941.3470, 4358.394
942.4700, 4225.614
943.5920, 4088.452
944.7140, 3900.096
945.8360, 3612.029
946.9570, 3399.782
948.0790, 3156.958
949.2000, 3010.887
950.3220, 2812.822
951.4430, 2642.637
952.5640, 2465.920
953.6840, 2267.718
954.8050, 2172.857
955.9250, 2114.310
957.0460, 2192.334
958.1660, 2172.496
959.2860, 2291.336
960.4050, 2481.550
961.5250, 2571.987
962.6440, 2861.826
963.7640, 2963.420
964.8830, 3153.031
966.0020, 3361.595
967.1210, 3463.265
968.2390, 3617.082
969.3580, 3794.990
970.4760, 3924.906
971.5940, 4175.932
972.7120, 4288.057
973.8300, 4425.291
974.9480, 4457.626
976.0650, 4627.077
977.1830, 4669.059
978.3000, 4772.302
979.4170, 4782.075
980.5340, 4817.957
981.6500, 4861.933
982.7670, 4755.020
983.8830, 4865.227
985.0000, 4873.545
986.1160, 4747.963
987.2320, 4859.488
988.3470, 4725.099
989.4630, 4720.817
990.5780, 4737.633
991.6940, 4690.542
992.8090, 4731.541
993.9240, 4766.599
995.0380, 4653.733
996.1530, 4858.920
997.2680, 4771.162
998.3820, 4574.432
999.4960, 4629.726
1000.610, 4517.036
1001.724, 4243.358
1002.837, 4047.710
1003.951, 3727.079
1005.064, 3375.466
1006.177, 2957.867
1007.291, 2674.283
1008.403, 2257.715
1009.516, 2026.161
1010.629, 1595.620
1011.741, 1334.092
1012.853, 1202.576
1013.965, 1077.072
1015.077, 963.5806
1016.189, 997.1079
1017.300, 1012.648
1018.412, 1104.202
1019.523, 1183.769
1020.634, 1261.359
1021.745, 1372.960
1022.856, 1373.570
1023.966, 1458.206
1025.077, 1361.851
1026.187, 1277.505
1027.297, 1226.176
1028.407, 992.8560
1029.517, 817.5452
1030.627, 669.2581
1031.736, 505.9780
1032.845, 384.7070
1033.955, 203.4419
1035.064, 166.1848
1036.172, 62.93237
1037.281, 69.68408
1038.390, 43.43970
1039.498, 9.800537
1040.606, 15.95996
1041.714, 35.27612
1042.822, 51.51611
1043.930, 73.77075
1045.037, 148.0503
1046.145, 53.39795
1047.252, 23.76636
1048.359, 98.14331
1049.466, 93.56665
1050.573, 129.0352
1051.679, 124.5693
1052.786, 116.1685
1053.892, 127.8293
1054.998, 81.55957
1056.104, 98.33545
1057.210, 75.16772
1058.315, 74.04565
1059.421, 125.9675
1060.526, 75.95972
1061.631, 127.9946
1062.736, 90.10864
1063.841, 160.2822
1064.946, 99.55469
1066.050, 88.89087
1067.154, 112.2896
1068.258, 113.7649
1069.362, 70.31909
1070.466, 61.92480
1071.570, 80.58374
1072.674, 121.3018
1073.777, 88.10669
1074.880, 94.98242
1075.983, 102.9331
1077.086, 97.96387
1078.189, 21.07300
1079.291, 64.22095
1080.394, 5.427490
1081.496, 15.66650
1082.598, 19.05591
1083.700, 42.24365
1084.802, 50.40186
1085.903, 29.03467
1087.005, 26.35278
1088.106, 19.21021
1089.207, 5.253174
1090.308, 10.24341
1091.409, 40.70703
1092.509, 33.15112
1093.610, 30.57153
1094.710, 50.96948
1095.810, 74.34766
1096.910, 85.54590
1098.010, 118.0591
1099.110, 119.3928
1100.209, 107.7107
1101.309, 114.0122
1102.408, 155.2969
1103.507, 151.5649
1104.606, 168.8157
1105.704, 203.0483
1106.803, 160.2632
1107.901, 189.2017
1108.999, 258.6348
1110.097, 210.7903
1111.195, 243.9250
1112.293, 280.0386
1113.391, 295.1299
1114.488, 330.1985
1115.585, 370.2444
1116.682, 351.2656
1117.779, 328.2627
1118.876, 371.2344
1119.973, 365.1802
1121.069, 358.0999
1122.165, 404.9927
1123.261, 389.0256
1124.357, 447.8630
1125.453, 343.6716
1126.549, 409.4512
1127.644, 387.2046
1128.739, 456.0093
1129.835, 460.7773
1130.930, 371.5669
1132.024, 402.2942
1133.119, 390.9717
1134.214, 365.2397
1135.308, 417.2266
1136.402, 378.5957
1137.496, 405.1929
1138.590, 386.9229
1139.684, 391.8372
1140.777, 360.5369
1141.871, 378.0808
1142.964, 388.3928
1144.057, 355.7500
1145.150, 388.1807
1146.243, 336.5889
1147.335, 336.4634
1148.428, 373.2710
1149.520, 455.9617
1150.612, 355.5188
1151.704, 304.9468
1152.796, 412.2520
1153.887, 309.5198
1154.979, 334.1677
1156.070, 357.4460
1157.161, 301.6099
1158.252, 341.4797
1159.343, 349.9121
1160.433, 319.0527
1161.524, 335.8569
1162.614, 320.7607
1163.704, 322.0735
1164.794, 338.9290
1165.884, 347.0818
1166.974, 329.7881
1168.063, 276.2932
1169.153, 285.8396
1170.242, 282.4775
1171.331, 324.0261
1172.420, 309.6460
1173.508, 343.2219
1174.597, 332.8098
1175.685, 291.5215
1176.774, 310.3936
1177.862, 293.7979
1178.950, 298.3623
1180.037, 302.0718
1181.125, 293.5803
1182.212, 300.6360
1183.300, 318.8813
1184.387, 319.0112
1185.474, 327.2900
1186.560, 307.8391
1187.647, 310.1318
1188.733, 307.6653
1189.820, 305.5647
1190.906, 291.6406
1191.992, 321.2290
1193.078, 311.7432
1194.163, 276.5776
1195.249, 318.7727
1196.334, 279.4478
1197.419, 253.9963
1198.504, 294.7681
1199.589, 274.3101
1200.674, 346.6133
1201.758, 292.2847
1202.843, 269.6628
1203.927, 194.2551
1205.011, 256.7534
1206.095, 287.8057
1207.179, 325.1289
1208.262, 216.8081
1209.345, 254.1633
1210.429, 251.5498
1211.512, 216.6836
1212.595, 251.1003
1213.677, 243.4343
1214.760, 279.7852
1215.842, 261.6482
1216.925, 260.0383
1218.007, 259.0415
1219.089, 284.8518
1220.171, 280.9658
1221.252, 278.9602
1222.334, 226.3401
1223.415, 254.3640
1224.496, 276.7153
1225.577, 222.0491
1226.658, 257.7473
1227.738, 217.5034
1228.819, 244.2217
1229.899, 235.9414
1230.979, 224.5461
1232.060, 240.1428
1233.139, 268.8113
1234.219, 222.4561
1235.299, 287.0769
1236.378, 257.6736
1237.457, 236.2466
1238.536, 246.7959
1239.615, 202.3213
1240.694, 203.8232
1241.772, 186.3018
1242.851, 254.7563
1243.929, 190.1877
1245.007, 234.6611
1246.085, 165.0459
1247.163, 163.4075
1248.240, 142.7461
1249.318, 153.0618
1250.395, 112.3547
1251.472, 176.6245
1252.549, 64.87207
1253.626, 137.0955
1254.703, 115.2966
1255.779, 139.4753
1256.855, 102.6321
1257.931, 82.76636
1259.007, 83.87817
1260.083, 70.96729
1261.159, 78.03394
1262.234, 82.07812
1263.310, 18.89990
1264.385, 24.07690
1265.460, 11.02808
1266.535, 68.94995
1267.610, 35.85010
1268.684, 19.72705
1269.758, 30.57861
1270.833, 48.40698
1271.907, 95.21338
1272.981, 76.00000
1274.054, 49.76587
1275.128, 46.51050
1276.201, 6.766357
1277.275, 10.92163
1278.348, 12.58398
1279.421, 15.22168
1280.493, 35.16382
1281.566, 26.40186
1282.638, 25.94629
1283.711, 41.52979
1284.783, 16.94312
1285.855, 23.39478
1286.927, 16.17383
1287.998, 6.221436
1289.070, 13.59277
1290.141, 50.05664
1291.212, 29.24146
1292.283, 3.520996
1293.354, 23.77734
1294.425, 4.014893
1295.495, 37.23022
1296.566, 75.42847
1297.636, 55.61060
1298.706, 23.77661
1299.776, 6.925293
1300.845, 14.05786
1301.915, 7.102539
1302.984, 30.27368
1304.054, 2.635254
1305.123, 33.44922
1306.191, 82.55371
1307.260, 59.65527
1308.329, 28.74756
1309.397, 3.848877
1310.465, 60.95703
1311.534, 41.08545
1312.602, 40.23218
1313.669, 16.39746
1314.737, 14.58301
1315.804, 23.77588
1316.872, 35.98242
1317.939, 5.810547
1319.006, 15.60449
1320.073, 24.38037
1321.139, 52.84277
1322.206, 30.09155
1323.272, 50.34961
1324.338, 12.36304
1325.404, 10.93970
1326.470, 67.25830
1327.536, 51.59595
1328.601, 19.04321
1329.667, 14.32593
1330.732, 19.29346
1331.797, 35.09912
1332.862, 90.52075
1333.926, 19.96240
1334.991, 45.42310
1336.055, 5.908203
1337.120, 13.41748
1338.184, 18.06885
1339.248, 6.456787
1340.311, 1.6113000E-02
1341.375, 14.51489
1342.438, 38.04150
1343.502, 56.58105
1344.565, 31.11206
1345.628, 59.63770
1346.691, 11.17310
1347.753, 50.70654
1348.816, 35.24487
1349.878, 18.78467
1350.940, 15.31860
1352.002, 14.15063
1353.064, 45.37451
1354.126, 14.89404
1355.187, 4.406006
1356.248, 48.90942
1357.310, 29.40503
1358.371, 70.89233
1359.431, 45.37231
1360.492, 67.84473
1361.553, 62.30957
1362.613, 37.76660
1363.673, 38.21680
1364.733, 45.65967
1365.793, 49.09619
1366.853, 77.52588
1367.912, 65.94971
1368.972, 46.36719
1370.031, 83.77905
1371.090, 49.18530
1372.149, 15.58569
1373.208, 37.98047
1374.267, 100.3701
1375.325, 106.7546
1376.383, 53.13403
1377.441, 102.5085
1378.499, 43.87793
1379.557, 98.24268
1380.615, 78.43530
1381.672, 115.7913
1382.730, 89.14307
1383.787, 61.49121
1384.844, 109.8330
1385.901, 130.0901
1386.957, 51.35034
1388.014, 163.5557
1389.070, 94.79028
1390.126, 127.0408
1391.182, 104.6672
1392.238, 91.54126
1393.294, 141.0000
1394.349, 139.1965
1395.405, 156.2271
1396.460, 152.0398
1397.515, 155.3994
1398.570, 157.1499
1399.625, 144.4644
1400.679, 143.7009
1401.734, 112.8306
1402.788, 135.9495
1403.842, 87.56885
1404.896, 137.2224
1405.950, 127.9600
1407.003, 163.7983
1408.057, 97.73315
1409.110, 158.7581
1410.163, 117.7876
1411.216, 103.4050
1412.269, 132.3596
1413.322, 89.39673
1414.374, 156.6958
1415.427, 89.40063
1416.479, 85.36597
1417.531, 144.6360
1418.583, 144.7756
1419.634, 110.4812
1420.686, 194.6074
1421.737, 155.4065
1422.788, 101.6221
1423.839, 162.0098
1424.890, 109.3271
1425.941, 136.5244
1426.992, 79.59180
1428.042, 103.1965
1429.092, 132.5874
1430.142, 101.8718
1431.192, 85.63037
1432.242, 119.9624
1433.291, 120.4551
1434.341, 64.93579
1435.390, 79.27271
1436.439, 95.48340
1437.488, 69.98657
1438.537, 79.41846
1439.586, 73.11646
1440.634, 91.48682
1441.682, 59.62280
1442.731, 75.80200
1443.779, 66.51099
1444.826, 118.2012
1445.874, 106.4771
1446.922, 64.82764
1447.969, 129.2019
1449.016, 102.1799
1450.063, 65.24634
1451.110, 36.46826
1452.157, 51.66040
1453.203, 48.48779
1454.250, 89.63843
1455.296, 74.78174
1456.342, 86.01978
1457.388, 70.15723
1458.433, 61.40405
1459.479, 90.44678
1460.524, 56.95239
1461.570, 74.90527
1462.615, 49.08960
1463.660, 68.30225
1464.705, 44.50586
1465.749, 94.70093
1466.794, 44.88745
1467.838, 80.06567
1468.882, 22.23511
1469.926, 59.31226
1470.970, 31.46411
1472.013, 119.6077
1473.057, 85.74268
1474.100, 81.87036
1475.143, 75.99072
1476.186, 27.10254
1477.229, 128.2075
1478.272, 71.30640
1479.314, 75.12793
1480.357, 163.5466
1481.399, 74.67944
1482.441, 7.815674
1483.483, 74.94873
1484.525, 68.07642
1485.566, 62.21191
1486.608, 69.36621
1487.649, 77.54883
1488.690, 34.75439
1489.731, 48.01074
1490.771, 70.28394
1491.812, 116.5811
1492.853, 151.9380
1493.893, 92.30640
1494.933, 131.6851
1495.973, 132.0615
1497.013, 64.43994
1498.052, 135.8223
1499.092, 151.2173
1500.131, 97.61475
1501.170, 112.0063
1502.209, 137.3967
1503.248, 186.7786
1504.287, 122.1553
1505.325, 173.5496
1506.363, 159.9897
1507.402, 181.4490
1508.440, 179.9480
1509.478, 166.2554
1510.515, 143.0171
1511.553, 142.5815
1512.590, 140.1562
1513.627, 142.7524
1514.664, 168.3743
1515.701, 143.0090
1516.738, 170.6584
1517.775, 203.3237
1518.811, 139.0093
1519.847, 170.7151
1520.883, 181.4438
1521.919, 149.1975
1522.955, 75.97827
1523.991, 137.7876
1525.026, 97.62695
1526.061, 220.4988
1527.096, 120.4043
1528.131, 138.3430
1529.166, 110.3140
1530.201, 184.3154
1531.235, 57.34888
1532.270, 67.41602
1533.304, 110.5198
1534.338, 26.66333
1535.372, 60.85181
1536.405, 54.08838
1537.439, 54.37329
1538.472, 36.70776
1539.505, 84.09326
1540.538, 57.53369
1541.571, 134.0325
1542.604, 107.5945
1543.637, 0.7761230
1544.669, 135.9263
1545.701, 11.70630
1546.733, 65.56909
1547.765, 104.5205
1548.797, 57.56836
1549.829, 56.72144
1550.860, 54.99048
1551.891, 10.61426
1552.922, 75.92017
1553.953, 139.6091
1554.984, 98.40698
1556.015, 151.4561
1557.045, 114.7239
1558.076, 41.24194
1559.106, 24.86890
1560.136, 26.52173
1561.165, 35.92847
1562.195, 36.58081
1563.225, 0.1413570
1564.254, 46.78345
1565.283, 0.0000000E+00
##END=



