##NAMES=Grossular
##RRUFFID=R060382
##IDEAL CHEMISTRY=Ca_3_Al_2_(SiO_4_)_3_
##LOCALITY=Lalatema, near Mount Kilimanjaro, Tanzania
##OWNER=RRUFF
##SOURCE=Herb Obodda
##DESCRIPTION=Pale tan colored fragment
##STATUS=The identification of this mineral has been confirmed by X-ray diffraction and chemical analysis
##URL=rruff.info/R060382
##MEASURED CHEMISTRY=(Ca_2.95_Mg_0.03_Mn_0.02_)_Σ=3_Al_2.00_((Si_0.99_Ti_0.01_)_Σ=1_O_4_)_3_; trace amounts of Fe
##PIN_ID=L01581
##ORIENTATION=Laser parallel to -a* (-1 0 0). Fiducial mark perpendicular to laser is parallel to 0 1 0
118.5340, 0.0000000E+00
119.7720, 9.521606
121.0100, 26.28906
122.2470, 26.25464
123.4850, 91.00073
124.7220, 3.614014
125.9590, 57.29529
127.1960, 73.63293
128.4330, 62.31738
129.6700, 45.28552
130.9060, 59.52283
132.1430, 17.02380
133.3790, 23.73010
134.6150, 34.60327
135.8500, 68.61597
137.0860, 47.74768
138.3210, 55.38269
139.5560, 24.30786
140.7910, 44.71277
142.0260, 37.30029
143.2610, 45.27319
144.4950, 37.25317
145.7290, 38.24170
146.9630, 4.244019
148.1970, 18.14978
149.4310, 49.30310
150.6640, 23.36316
151.8980, 68.44519
153.1310, 61.54871
154.3640, 66.67407
155.5970, 4.820435
156.8290, 59.98694
158.0620, 44.17114
159.2940, 88.37170
160.5260, 53.58801
161.7580, 47.81982
162.9890, 111.0676
164.2210, 75.49609
165.4520, 66.48816
166.6830, 53.53333
167.9140, 100.6549
169.1450, 100.8823
170.3760, 133.0801
171.6060, 144.3143
172.8360, 115.5829
174.0660, 190.8835
175.2960, 176.2136
176.5260, 185.5715
177.7550, 260.9558
178.9840, 315.3650
180.2130, 447.7963
181.4420, 415.4669
182.6710, 453.7183
183.9000, 350.2056
185.1280, 211.7090
186.3560, 121.2272
187.5840, 91.75903
188.8120, 57.30334
190.0400, 50.85925
191.2670, 37.52673
192.4950, 37.00098
193.7220, 37.58044
194.9490, 48.15942
196.1750, 57.72925
197.4020, 34.30127
198.6280, 5.875977
199.8540, 90.45435
201.0800, 71.03796
202.3060, 69.63123
203.5320, 10.23682
204.7570, 14.85596
205.9830, 28.48962
207.2080, 13.13647
208.4330, 4.201904
209.6570, 42.50122
210.8820, 16.24609
212.1060, 31.97485
213.3310, 36.86914
214.5550, 39.23474
215.7780, 28.70947
217.0020, 47.70386
218.2260, 51.73792
219.4490, 2.213379
220.6720, 12.83850
221.8950, 51.89465
223.1180, 23.96765
224.3400, 99.04504
225.5630, 79.12451
226.7850, 80.20081
228.0070, 92.27454
229.2290, 98.36292
230.4500, 122.6051
231.6720, 142.4742
232.8930, 184.1477
234.1140, 226.4910
235.3350, 273.6747
236.5560, 358.7450
237.7770, 450.8171
238.9970, 527.8838
240.2170, 554.9309
241.4370, 474.9646
242.6570, 486.9915
243.8770, 534.0107
245.0960, 614.0227
246.3160, 733.0275
247.5350, 752.0253
248.7540, 631.0188
249.9730, 471.0105
251.1910, 338.9988
252.4100, 268.9816
253.6280, 170.9596
254.8460, 121.9318
256.0640, 77.90015
257.2810, 99.86377
258.4990, 80.82068
259.7160, 78.19177
260.9330, 77.71130
262.1500, 80.64502
263.3670, 82.57080
264.5840, 84.48901
265.8000, 105.3961
267.0170, 97.17798
268.2330, 158.9351
269.4490, 151.5630
270.6640, 192.2450
271.8800, 250.3391
273.0950, 267.0579
274.3100, 382.7919
275.5260, 572.5391
276.7400, 746.2986
277.9550, 824.0687
279.1690, 830.8484
280.3840, 688.6367
281.5980, 493.4329
282.8120, 329.4143
284.0260, 217.3120
285.2390, 243.5188
286.4530, 116.6578
287.6660, 90.59460
288.8790, 57.85571
290.0920, 50.02502
291.3040, 35.97559
292.5170, 30.45679
293.7290, 27.64502
294.9410, 51.85742
296.1530, 53.11584
297.3650, 47.41199
298.5770, 27.62317
299.7880, 27.82703
301.0000, 51.41565
302.2110, 34.10364
303.4220, 63.28516
304.6320, 57.53687
305.8430, 70.95276
307.0530, 69.99670
308.2630, 92.71729
309.4730, 75.52637
310.6830, 53.32336
311.8930, 90.98621
313.1030, 76.06873
314.3120, 123.9449
315.5210, 115.0273
316.7300, 144.3723
317.9390, 168.3496
319.1470, 148.6625
320.3560, 263.8232
321.5640, 262.1455
322.7720, 293.4243
323.9800, 275.7260
325.1880, 322.0515
326.3950, 298.2448
327.6030, 433.3019
328.8100, 414.1846
330.0170, 423.1367
331.2240, 357.1453
332.4300, 345.1304
333.6370, 220.1633
334.8430, 299.1797
336.0490, 209.1959
337.2550, 149.1458
338.4610, 193.1268
339.6660, 253.0046
340.8720, 202.8119
342.0770, 210.9150
343.2820, 232.1702
344.4870, 264.4019
345.6920, 310.5516
346.8960, 292.6443
348.1010, 337.8267
349.3050, 319.9349
350.5090, 390.2415
351.7130, 445.4991
352.9160, 416.6619
354.1200, 450.9004
355.3230, 493.1196
356.5260, 607.3403
357.7290, 691.1399
358.9320, 813.9561
360.1350, 1040.299
361.3370, 1155.083
362.5390, 1429.878
363.7410, 1718.594
364.9430, 2117.281
366.1450, 2583.984
367.3470, 3095.682
368.5480, 3681.373
369.7490, 4278.057
370.9500, 4835.736
372.1510, 5552.408
373.3520, 6385.074
374.5520, 6828.800
375.7530, 6794.667
376.9530, 6032.471
378.1530, 4886.542
379.3520, 3770.421
380.5520, 2861.195
381.7510, 2186.090
382.9510, 1828.720
384.1500, 1436.564
385.3490, 1134.291
386.5480, 875.0044
387.7460, 772.6843
388.9440, 630.4104
390.1430, 567.3123
391.3410, 509.9836
392.5390, 464.7722
393.7360, 369.4651
394.9340, 371.0950
396.1310, 385.6528
397.3280, 314.2039
398.5250, 325.7483
399.7220, 285.2900
400.9190, 316.8257
402.1150, 295.3535
403.3120, 257.8752
404.5080, 261.3892
405.7040, 255.8958
406.8990, 281.3958
408.0950, 301.8882
409.2900, 326.3735
410.4860, 330.8516
411.6810, 355.3235
412.8760, 389.7893
414.0700, 469.2510
415.2650, 572.7065
416.4590, 588.1575
417.6540, 596.6013
418.8480, 460.0381
420.0420, 351.4675
421.2350, 277.8894
422.4290, 176.3103
423.6220, 146.7354
424.8150, 140.1956
426.0080, 63.60718
427.2010, 86.15771
428.3940, 14.56079
429.5860, 32.96216
430.7790, 83.35132
431.9710, 7.731689
433.1630, 31.17798
434.3540, 11.53223
435.5460, 33.13232
436.7370, 31.18848
437.9290, 26.83154
439.1200, 17.49194
440.3110, 10.19751
441.5010, 32.06494
442.6920, 35.62256
443.8820, 20.78247
445.0730, 22.47559
446.2630, 44.72632
447.4530, 32.08545
448.6420, 34.77612
449.8320, 26.64502
451.0210, 24.36060
452.2100, 24.07080
453.3990, 23.80151
454.5880, 21.54492
455.7770, 29.24438
456.9660, 25.64380
458.1540, 29.09692
459.3420, 7.620850
460.5300, 8.927490
461.7180, 17.09546
462.9050, 54.55249
464.0930, 16.90454
465.2800, 28.10474
466.4670, 23.72290
467.6540, 14.98218
468.8410, 51.27783
470.0280, 84.50000
471.2140, 6.489746
472.4000, 110.5271
473.5870, 97.37646
474.7720, 103.5359
475.9580, 92.47803
477.1440, 96.58081
478.3290, 96.70825
479.5140, 112.8303
480.6990, 105.4736
481.8840, 130.0996
483.0690, 147.7090
484.2540, 76.30029
485.4380, 39.87109
486.6220, 45.41992
487.8060, 64.94702
488.9900, 78.45166
490.1740, 56.93506
491.3570, 74.39502
492.5410, 26.83179
493.7240, 38.24268
494.9070, 60.62891
496.0900, 29.98975
497.2720, 46.42798
498.4550, 45.79468
499.6370, 99.32397
500.8190, 141.7708
502.0010, 111.1265
503.1830, 148.9250
504.3650, 145.3398
505.5460, 235.9690
506.7280, 283.5452
507.9090, 342.1440
509.0900, 430.5645
510.2710, 394.9946
511.4510, 397.6357
512.6320, 316.0693
513.8120, 219.7844
514.9920, 223.4346
516.1720, 156.8982
517.3520, 122.0869
518.5310, 136.5229
519.7110, 72.23657
520.8900, 118.2180
522.0690, 142.9280
523.2480, 113.6016
524.4270, 176.3098
525.6050, 125.0862
526.7840, 152.8054
527.9620, 155.3291
529.1400, 163.0176
530.3180, 151.5527
531.4960, 109.2317
532.6730, 164.0667
533.8510, 135.7102
535.0280, 158.3381
536.2050, 172.7751
537.3820, 280.2310
538.5590, 304.6260
539.7350, 451.8809
540.9120, 520.1450
542.0880, 680.5212
543.2640, 939.6614
544.4400, 1064.071
545.6150, 1422.153
546.7910, 1835.275
547.9660, 2134.575
549.1410, 2327.656
550.3170, 2241.835
551.4910, 1833.967
552.6660, 1459.193
553.8410, 1068.380
555.0150, 807.8296
556.1890, 664.9556
557.3630, 523.9175
558.5370, 446.9026
559.7110, 337.7778
560.8840, 285.7986
562.0570, 246.6094
563.2310, 269.0161
564.4040, 285.5481
565.5760, 207.8271
566.7490, 250.6746
567.9220, 188.6660
569.0940, 243.1934
570.2660, 232.9451
571.4380, 253.0815
572.6100, 247.8196
573.7820, 209.7864
574.9530, 295.8672
576.1240, 168.6853
577.2960, 265.7539
578.4670, 230.8696
579.6370, 158.2349
580.8080, 145.1440
581.9790, 135.4116
583.1490, 139.1213
584.3190, 159.0159
585.4890, 221.5762
586.6590, 259.3438
587.8280, 258.8696
588.9980, 207.7119
590.1670, 243.3752
591.3360, 197.1909
592.5050, 171.7314
593.6740, 255.9087
594.8430, 151.0986
596.0110, 172.3833
597.1790, 158.7249
598.3480, 135.3569
599.5160, 191.6746
600.6830, 117.6245
601.8510, 217.3872
603.0180, 110.3892
604.1860, 132.8599
605.3530, 172.0725
606.5200, 69.10620
607.6870, 143.3184
608.8530, 145.2236
610.0200, 151.1548
611.1860, 201.6609
612.3520, 195.0027
613.5180, 242.3721
614.6840, 165.1682
615.8500, 214.1362
617.0150, 260.2734
618.1800, 281.0681
619.3450, 206.6934
620.5100, 314.3699
621.6750, 315.0632
622.8400, 402.0212
624.0040, 425.4111
625.1690, 404.7332
626.3330, 483.6035
627.4970, 475.5959
628.6610, 486.4419
629.8240, 566.4011
630.9880, 641.9216
632.1510, 480.5100
633.3140, 402.6418
634.4770, 333.9038
635.6400, 310.0657
636.8020, 262.9185
637.9650, 274.8298
639.1270, 230.6704
640.2890, 246.6780
641.4510, 263.6909
642.6130, 154.5908
643.7750, 241.3530
644.9360, 184.7764
646.0980, 192.7820
647.2590, 182.6345
648.4200, 220.3464
649.5810, 212.9602
650.7410, 157.4717
651.9020, 202.2236
653.0620, 129.8940
654.2220, 140.8916
655.3820, 180.5186
656.5420, 241.2712
657.7020, 176.5054
658.8610, 104.6978
660.0200, 34.41772
661.1800, 93.50171
662.3390, 96.30542
663.4970, 81.52026
664.6560, 59.13623
665.8150, 66.65210
666.9730, 107.0259
668.1310, 61.15967
669.2890, 91.26270
670.4470, 50.25586
671.6050, 7.009033
672.7620, 44.92578
673.9200, 41.65894
675.0770, 80.42188
676.2340, 69.18213
677.3910, 76.95264
678.5470, 103.6633
679.7040, 8.683838
680.8600, 60.90527
682.0160, 110.4360
683.1720, 38.90991
684.3280, 110.3289
685.4840, 93.69580
686.6390, 44.01782
687.7950, 89.29297
688.9500, 58.52148
690.1050, 62.69312
691.2600, 32.80811
692.4150, 34.87817
693.5690, 0.1101070
694.7240, 34.87817
695.8780, 66.80713
697.0320, 53.67529
698.1860, 72.49023
699.3400, 30.25903
700.4930, 72.96997
701.6470, 20.37842
702.8000, 38.80396
703.9530, 2.316895
705.1060, 33.06348
706.2590, 34.57935
707.4110, 72.55615
708.5640, 35.23071
709.7160, 94.89697
710.8680, 5.965088
712.0200, 91.96973
713.1720, 78.83179
714.3230, 112.7148
715.4750, 58.72559
716.6260, 41.99585
717.7770, 17.36914
718.9280, 57.87500
720.0790, 12.99634
721.2300, 50.00684
722.3800, 47.97949
723.5300, 26.96533
724.6810, 1.847168
725.8300, 41.35596
726.9800, 25.50757
728.1300, 16.40771
729.2790, 75.41040
730.4290, 3.831543
731.5780, 15.25000
732.7270, 9.545410
733.8760, 32.10645
735.0240, 99.23486
736.1730, 69.45752
737.3210, 73.48242
738.4700, 100.6899
739.6180, 16.52539
740.7650, 75.58789
741.9130, 9.175781
743.0610, 47.22510
744.2080, 44.41797
745.3550, 7.551758
746.5020, 41.91211
747.6490, 56.20898
748.7960, 19.54980
749.9430, 20.80273
751.0890, 80.95068
752.2350, 88.34668
753.3810, 41.24023
754.5270, 5.258301
755.6730, 52.38770
756.8190, 81.48438
757.9640, 73.23584
759.1090, 50.18994
760.2540, 17.07031
761.3990, 140.8799
762.5440, 74.62158
763.6890, 134.2910
764.8330, 98.89355
765.9780, 141.4453
767.1220, 115.9346
768.2660, 187.3589
769.4100, 176.5513
770.5530, 226.0122
771.6970, 194.2461
772.8400, 228.4150
773.9830, 259.5229
775.1260, 249.4609
776.2690, 253.4775
777.4120, 254.3306
778.5540, 283.0845
779.6970, 266.7432
780.8390, 324.4990
781.9810, 389.1816
783.1230, 255.8076
784.2650, 280.0459
785.4060, 301.8237
786.5480, 314.1523
787.6890, 326.6523
788.8300, 257.1621
789.9710, 264.9263
791.1120, 174.9194
792.2520, 251.3745
793.3930, 193.5640
794.5330, 270.4121
795.6730, 281.5337
796.8130, 316.5693
797.9530, 260.7881
799.0930, 338.5488
800.2320, 437.7642
801.3710, 388.1670
802.5110, 346.6562
803.6500, 393.8071
804.7880, 538.2197
805.9270, 578.7266
807.0660, 717.4448
808.2040, 714.0146
809.3420, 839.0933
810.4800, 818.1543
811.6180, 901.1904
812.7560, 1035.625
813.8930, 1090.621
815.0310, 1200.799
816.1680, 1293.167
817.3050, 1458.471
818.4420, 1592.896
819.5790, 1728.426
820.7150, 1821.656
821.8520, 2126.254
822.9880, 2219.529
824.1240, 2260.444
825.2600, 2142.118
826.3960, 2157.649
827.5320, 1971.348
828.6670, 1879.656
829.8020, 1687.866
830.9380, 1512.662
832.0730, 1430.662
833.2080, 1188.097
834.3420, 1232.097
835.4770, 1162.917
836.6110, 1239.972
837.7450, 1180.560
838.8790, 1123.788
840.0130, 1090.772
841.1470, 1140.491
842.2810, 1101.059
843.4140, 1148.548
844.5470, 1214.422
845.6800, 1219.928
846.8130, 1279.849
847.9460, 1289.388
849.0790, 1327.258
850.2110, 1359.199
851.3440, 1322.000
852.4760, 1349.894
853.6080, 1216.639
854.7400, 1345.771
855.8710, 1353.347
857.0030, 1334.665
858.1340, 1482.867
859.2650, 1567.125
860.3960, 1679.064
861.5270, 1834.136
862.6580, 1968.335
863.7890, 2158.161
864.9190, 2295.570
866.0490, 2496.958
867.1790, 2857.878
868.3090, 3386.827
869.4390, 3869.419
870.5690, 4491.903
871.6980, 5163.762
872.8270, 5976.405
873.9570, 6990.025
875.0860, 8286.620
876.2140, 9514.637
877.3430, 10751.95
878.4720, 11375.80
879.6000, 11834.63
880.7280, 11883.53
881.8560, 11161.10
882.9840, 10076.82
884.1120, 8798.506
885.2390, 7969.614
886.3670, 6839.921
887.4940, 6188.991
888.6210, 5406.438
889.7480, 5024.181
890.8750, 4727.946
892.0020, 4436.205
893.1280, 4165.787
894.2540, 3966.311
895.3810, 3540.520
896.5070, 3199.300
897.6320, 2919.481
898.7580, 2460.536
899.8840, 2072.213
901.0090, 1791.057
902.1340, 1497.421
903.2590, 1160.222
904.3840, 1061.122
905.5090, 839.0298
906.6340, 633.6484
907.7580, 755.4526
908.8820, 606.9619
910.0060, 622.8789
911.1300, 504.3711
912.2540, 509.1069
913.3780, 480.4629
914.5010, 533.2441
915.6250, 383.0200
916.7480, 471.0098
917.8710, 426.3882
918.9940, 511.9316
920.1160, 356.6777
921.2390, 246.1577
922.3610, 420.7769
923.4840, 345.5781
924.6060, 312.5361
925.7280, 168.5010
926.8490, 289.1821
927.9710, 373.8950
929.0930, 258.2705
930.2140, 348.9360
931.3350, 279.3472
932.4560, 388.0303
933.5770, 299.5342
934.6980, 424.3608
935.8180, 349.2109
936.9380, 293.9917
938.0590, 366.4565
939.1790, 327.6450
940.2990, 242.7891
941.4180, 205.7637
942.5380, 196.3979
943.6570, 253.3481
944.7770, 280.5942
945.8960, 267.8994
947.0150, 194.1768
948.1340, 79.52881
949.2520, 220.0498
950.3710, 184.1021
951.4890, 34.73877
952.6070, 111.5986
953.7260, 122.8467
954.8430, 13.78711
955.9610, 6.296875
957.0790, 26.46094
958.1960, 23.87598
959.3130, 18.15234
960.4310, 49.55762
961.5480, 32.35156
962.6640, 33.47461
963.7810, 58.42188
964.8970, 126.8887
966.0140, 66.72168
967.1300, 141.2900
968.2460, 0.1093750
969.3620, 29.00879
970.4780, 33.31055
971.5930, 91.86621
972.7090, 185.1602
973.8240, 191.9961
974.9390, 98.24512
976.0540, 160.8604
977.1690, 145.5566
978.2830, 83.63867
979.3980, 261.4805
980.5120, 104.6621
981.6260, 89.43652
982.7400, 269.9756
983.8540, 65.45508
984.9680, 267.7090
986.0820, 177.7393
987.1950, 170.7334
988.3080, 223.4053
989.4210, 186.6865
990.5340, 173.9014
991.6470, 227.8818
992.7600, 191.9277
993.8720, 226.7129
994.9850, 254.2354
996.0970, 213.8828
997.2090, 251.4824
998.3210, 250.2002
999.4320, 301.2822
1000.544, 477.7832
1001.655, 529.3506
1002.767, 614.5830
1003.878, 750.6689
1004.989, 709.6445
1006.100, 805.4365
1007.210, 638.0977
1008.321, 733.6504
1009.431, 818.0645
1010.541, 707.3516
1011.651, 757.4473
1012.761, 991.3984
1013.871, 933.2012
1014.980, 883.8770
1016.090, 1051.362
1017.199, 959.6709
1018.308, 1022.834
1019.417, 880.8545
1020.526, 682.7275
1021.635, 576.4668
1022.743, 429.0684
1023.852, 337.5215
1024.960, 269.8174
1026.068, 197.9521
1027.176, 179.9229
1028.283, 207.7314
1029.391, 77.38379
1030.498, 87.87793
1031.606, 196.2100
1032.713, 120.3818
1033.820, 41.60547
1034.927, 12.22949
1036.033, 23.90723
1037.140, 70.42773
1038.246, 57.79492
1039.353, 18.00586
1040.459, 55.05859
1041.564, 13.95605
1042.670, 162.6963
1043.776, 73.28711
1044.881, 152.6279
1045.987, 67.83887
1047.092, 135.7754
1048.197, 25.76953
1049.302, 104.9932
1050.406, 87.56152
1051.511, 18.48926
1052.615, 71.74805
1053.720, 100.2129
1054.824, 79.40625
1055.928, 180.8584
1057.031, 102.2080
1058.135, 90.94141
1059.238, 210.9531
1060.342, 251.3389
1061.445, 245.9629
1062.548, 223.6846
1063.651, 266.5732
1064.754, 66.95410
1065.856, 165.5449
1066.959, 44.43359
1068.061, 63.89648
1069.163, 11.35742
1070.265, 53.40723
1071.367, 88.94922
1072.469, 107.1953
1073.570, 118.2979
1074.671, 74.46680
1075.773, 100.9609
1076.874, 63.50293
1077.975, 51.43945
1079.075, 143.6709
1080.176, 30.16016
1081.276, 83.77246
1082.377, 122.9717
1083.477, 41.20996
1084.577, 21.78711
1085.677, 61.16504
1086.777, 67.56055
1087.876, 21.13770
1088.975, 124.8047
1090.075, 24.87012
1091.174, 170.2529
1092.273, 145.9443
1093.372, 30.40625
1094.470, 40.61621
1095.569, 6.031250
1096.667, 19.65039
1097.765, 89.45117
1098.863, 81.95898
1099.961, 68.74023
1101.059, 113.8760
1102.157, 75.40723
1103.254, 161.5635
1104.351, 63.23340
1105.449, 101.7920
1106.546, 175.2412
1107.642, 305.5850
1108.739, 264.8252
1109.836, 153.9678
1110.932, 189.0176
1112.028, 119.6436
1113.124, 158.2451
1114.220, 188.1680
1115.316, 172.4795
1116.412, 198.3047
1117.507, 206.4727
1118.603, 186.1182
1119.698, 229.5146
1120.793, 290.4062
1121.888, 276.1143
1122.983, 302.4941
1124.077, 254.2139
1125.172, 262.1455
1126.266, 290.0605
1127.360, 228.6328
1128.454, 210.3516
1129.548, 461.9590
1130.642, 278.5020
1131.735, 399.9004
1132.829, 344.2754
1133.922, 402.1338
1135.015, 586.1006
1136.108, 510.5439
1137.201, 616.8672
1138.294, 678.2246
1139.386, 880.5840
1140.478, 880.9072
1141.571, 702.4336
1142.663, 791.9229
1143.755, 732.7334
1144.846, 629.5166
1145.938, 638.1309
1147.030, 497.2441
1148.121, 412.1650
1149.212, 335.7217
1150.303, 324.6699
1151.394, 281.9326
1152.485, 359.5293
1153.575, 368.6602
1154.666, 399.1787
1155.756, 292.9814
1156.846, 361.8057
1157.936, 277.2100
1159.026, 280.6504
1160.116, 399.4014
1161.205, 248.4316
1162.295, 292.3574
1163.384, 289.1973
1164.473, 324.7148
1165.562, 396.5176
1166.651, 273.9121
1167.739, 282.8438
1168.828, 374.7793
1169.916, 208.3398
1171.005, 234.8027
1172.093, 316.4121
1173.181, 389.0312
1174.268, 399.1055
1175.356, 430.0195
1176.443, 456.2637
1177.531, 413.3438
1178.618, 296.6680
1179.705, 246.2676
1180.792, 358.0820
1181.879, 243.2363
1182.965, 314.6855
1184.052, 197.3516
1185.138, 33.68945
1186.224, 277.6465
1187.310, 46.38086
1188.396, 217.6074
1189.482, 113.4258
1190.567, 227.9258
1191.653, 208.2227
1192.738, 73.12305
1193.823, 215.4199
1194.908, 103.3164
1195.993, 35.04688
1197.077, 1.591797
1198.162, 0.0000000E+00
##END=



