##NAMES=Grossular
##RRUFFID=R060452
##IDEAL CHEMISTRY=Ca_3_Al_2_(SiO_4_)_3_
##LOCALITY=unknown
##OWNER=RRUFF
##SOURCE=Gemological Institute of America
##DESCRIPTION=Yellowish-brown colored fragment
##STATUS=The identification of this mineral has been confirmed by X-ray diffraction and chemical analysis
##URL=rruff.info/R060452
##MEASURED CHEMISTRY=(Ca_2.94_Mn_0.03_Mg_0.03_)_Σ=3_(Al_1.91_Fe^3+^_0.06_Ti_0.03_)_Σ=2_((Si_0.99_Al_0.01_)_Σ=1_O_4_)_3_
##PIN_ID=L01823
##ORIENTATION=Laser parallel to a* (1 0 0). Fiducial mark perpendicular to laser is parallel to c [0 0 1]
127.1960, 0.0000000E+00
128.4330, 7.072998
129.6700, 60.41125
130.9060, 48.38501
132.1430, 97.02051
133.3790, 32.71021
134.6150, 87.33801
135.8500, 27.74658
137.0860, 12.18530
138.3210, 89.44629
139.5560, 37.56738
140.7910, 94.11938
142.0260, 72.05310
143.2610, 93.32715
144.4950, 69.90625
145.7290, 72.75989
146.9630, 74.86145
148.1970, 48.18713
149.4310, 42.71985
150.6640, 72.45068
151.8980, 104.3643
153.1310, 97.44727
154.3640, 28.68701
155.5970, 33.07214
156.8290, 69.59192
158.0620, 110.2375
159.2940, 44.99976
160.5260, 99.87109
161.7580, 87.84448
162.9890, 64.91296
164.2210, 116.0709
165.4520, 73.31079
166.6830, 66.62476
167.9140, 105.0068
169.1450, 186.4565
170.3760, 187.9767
171.6060, 211.6538
172.8360, 175.3977
174.0660, 265.2073
175.2960, 293.0796
176.5260, 459.0110
177.7550, 626.9978
178.9840, 786.0369
180.2130, 795.2815
181.4420, 909.2585
182.6710, 687.4360
183.9000, 524.6550
185.1280, 284.9133
186.3560, 221.2085
187.5840, 167.5391
188.8120, 145.9036
190.0400, 96.29980
191.2670, 94.72632
192.4950, 11.18213
193.7220, 34.66577
194.9490, 35.17603
196.1750, 102.7117
197.4020, 46.27173
198.6280, 37.85547
199.8540, 51.46167
201.0800, 60.08398
202.3060, 79.70581
203.5320, 76.32593
204.7570, 39.94434
205.9830, 27.55688
207.2080, 36.16919
208.4330, 25.82520
209.6570, 24.78027
210.8820, 12.30371
212.1060, 21.13135
213.3310, 30.07446
214.5550, 33.97583
215.7780, 30.93604
217.0020, 51.02979
218.2260, 58.14868
219.4490, 90.28833
220.6720, 65.43970
221.8950, 90.81152
223.1180, 94.41040
224.3400, 120.9883
225.5630, 119.1841
226.7850, 147.3855
228.0070, 185.5925
229.2290, 245.8027
230.4500, 310.0156
231.6720, 331.2319
232.8930, 462.4509
234.1140, 558.6741
235.3350, 741.9011
236.5560, 844.1355
237.7770, 1051.374
238.9970, 1084.619
240.2170, 1234.870
241.4370, 1180.125
242.6570, 1243.384
243.8770, 1318.646
245.0960, 1513.911
246.3160, 1744.180
247.5350, 1739.452
248.7540, 1473.727
249.9730, 1079.005
251.1910, 729.2856
252.4100, 529.5703
253.6280, 325.8584
254.8460, 227.1492
256.0640, 121.4434
257.2810, 148.7410
258.4990, 171.0420
259.7160, 155.3459
260.9330, 187.6538
262.1500, 162.9644
263.3670, 161.2783
264.5840, 151.5959
265.8000, 181.9167
267.0170, 232.2407
268.2330, 335.5674
269.4490, 395.8975
270.6640, 489.2310
271.8800, 611.5674
273.0950, 849.9070
274.3100, 1000.681
275.5260, 1289.459
276.7400, 1622.222
277.9550, 1815.988
279.1690, 1732.666
280.3840, 1474.390
281.5980, 1077.158
282.8120, 800.9636
284.0260, 598.8655
285.2390, 363.8667
286.4530, 300.0059
287.6660, 299.1726
288.8790, 212.2634
290.0920, 142.0442
291.3040, 98.31592
292.5170, 53.89185
293.7290, 97.01440
294.9410, 29.40552
296.1530, 3.250732
297.3650, 35.57129
298.5770, 3.987549
299.7880, 51.40234
301.0000, 56.39233
302.2110, 39.20752
303.4220, 45.78149
304.6320, 32.67017
305.8430, 87.53345
307.0530, 41.06323
308.2630, 32.32275
309.4730, 36.15527
310.6830, 97.79248
311.8930, 85.21265
313.1030, 198.1826
314.3120, 136.7136
315.5210, 209.0308
316.7300, 212.5947
317.9390, 201.1792
319.1470, 173.7798
320.3560, 174.3618
321.5640, 187.9778
322.7720, 171.3296
323.9800, 247.7852
325.1880, 255.1633
326.3950, 308.8071
327.6030, 407.1909
328.8100, 475.5803
330.0170, 533.9761
331.2240, 481.3767
332.4300, 450.7827
333.6370, 429.1943
334.8430, 372.6104
336.0490, 386.0308
337.2550, 371.0793
338.4610, 352.8840
339.6660, 389.3162
340.8720, 367.7522
342.0770, 394.2686
343.2820, 401.9812
344.4870, 478.5015
345.6920, 574.9497
346.8960, 654.4014
348.1010, 731.0376
349.3050, 759.7402
350.5090, 822.2549
351.7130, 835.7168
352.9160, 1015.248
354.1200, 995.7236
355.3230, 1147.192
356.5260, 1297.662
357.7290, 1548.132
358.9320, 1797.604
360.1350, 2235.063
361.3370, 2681.525
362.5390, 3214.988
363.7410, 3914.453
364.9430, 4820.920
366.1450, 5876.390
367.3470, 7045.901
368.5480, 8412.420
369.7490, 9867.815
370.9500, 11618.29
372.1510, 13424.77
373.3520, 15504.26
374.5520, 16407.74
375.7530, 16110.23
376.9530, 14097.72
378.1530, 11527.21
379.3520, 8816.708
380.5520, 6752.208
381.7510, 4979.708
382.9510, 3886.213
384.1500, 3077.720
385.3490, 2501.228
386.5480, 2024.739
387.7460, 1684.250
388.9440, 1371.764
390.1430, 1262.279
391.3410, 1108.795
392.5390, 941.3137
393.7360, 847.8333
394.9340, 759.3552
396.1310, 669.6155
397.3280, 706.4070
398.5250, 583.9360
399.7220, 546.4644
400.9190, 590.9946
402.1150, 554.5249
403.3120, 535.0569
404.5080, 580.5896
405.7040, 526.1226
406.8990, 561.6558
408.0950, 641.1880
409.2900, 567.7263
410.4860, 625.2656
411.6810, 656.8059
412.8760, 789.3447
414.0700, 914.8833
415.2650, 1015.426
416.4590, 983.9253
417.6540, 1061.542
418.8480, 794.1082
420.0420, 628.6848
421.2350, 388.2639
422.4290, 322.8674
423.6220, 202.4731
424.8150, 152.0840
426.0080, 114.6960
427.2010, 75.32056
428.3940, 38.95459
429.5860, 14.59058
430.7790, 16.22974
431.9710, 69.13452
433.1630, 7.535645
434.3540, 13.05542
435.5460, 13.35669
436.7370, 74.76099
437.9290, 4.793945
439.1200, 25.61084
440.3110, 31.91968
441.5010, 35.55371
442.6920, 19.09082
443.8820, 42.37695
445.0730, 23.89697
446.2630, 55.43506
447.4530, 109.0022
448.6420, 23.62402
449.8320, 15.73389
451.0210, 10.87939
452.2100, 1.442871
453.3990, 4.084229
454.5880, 57.86987
455.7770, 3.280762
456.9660, 14.51855
458.1540, 94.39697
459.3420, 39.10229
460.5300, 37.74561
461.7180, 37.58105
462.9050, 45.18213
464.0930, 114.8267
465.2800, 42.43042
466.4670, 84.80029
467.6540, 106.4800
468.8410, 45.93848
470.0280, 134.6729
471.2140, 141.9639
472.4000, 141.3953
473.5870, 246.6687
474.7720, 275.9841
475.9580, 284.4751
477.1440, 289.7185
478.3290, 281.1775
479.5140, 324.1726
480.6990, 270.3828
481.8840, 254.5806
483.0690, 306.7659
484.2540, 108.9387
485.4380, 64.09717
486.6220, 112.2402
487.8060, 141.3679
488.9900, 148.4805
490.1740, 90.57739
491.3570, 76.65674
492.5410, 123.7183
493.7240, 174.7620
494.9070, 123.7881
496.0900, 138.7937
497.2720, 153.7783
498.4550, 177.7419
499.6370, 213.6841
500.8190, 260.6050
502.0010, 391.7354
503.1830, 383.0874
504.3650, 474.3975
505.5460, 596.0173
506.7280, 811.4614
507.9090, 901.9258
509.0900, 971.6499
510.2710, 874.4614
511.4510, 823.8005
512.6320, 620.4653
513.8120, 468.9753
514.9920, 362.4932
516.1720, 290.2622
517.3520, 336.9470
518.5310, 268.6814
519.7110, 257.2861
520.8900, 259.1753
522.0690, 197.9507
523.2480, 269.7261
524.4270, 264.5217
525.6050, 362.2114
526.7840, 312.8848
527.9620, 354.4370
529.1400, 331.9673
530.3180, 210.4551
531.4960, 285.9675
532.6730, 257.6387
533.8510, 287.1458
535.0280, 376.6733
536.2050, 465.3535
537.3820, 528.8091
538.5590, 713.1631
539.7350, 895.4875
540.9120, 1174.552
542.0880, 1564.095
543.2640, 2059.405
544.4400, 2594.935
545.6150, 3437.297
546.7910, 4295.668
547.9660, 5360.886
549.1410, 5723.967
550.3170, 5170.439
551.4910, 4239.922
552.6660, 3192.331
553.8410, 2329.335
555.0150, 1680.378
556.1890, 1271.611
557.3630, 971.5603
558.5370, 755.0442
559.7110, 633.7859
560.8840, 561.8315
562.0570, 481.0217
563.2310, 484.2268
564.4040, 486.2949
565.5760, 332.8953
566.7490, 470.7922
567.9220, 460.2061
569.0940, 363.0544
570.2660, 368.2197
571.4380, 366.7925
572.6100, 366.9978
573.7820, 347.4998
574.9530, 321.5215
576.1240, 315.9004
577.2960, 259.8748
578.4670, 260.9377
579.6370, 247.9438
580.8080, 304.5466
581.9790, 285.7092
583.1490, 287.8228
584.3190, 296.3997
585.4890, 314.5503
586.6590, 284.3369
587.8280, 290.9636
588.9980, 274.8721
590.1670, 267.5352
591.3360, 254.9175
592.5050, 240.4590
593.6740, 222.2878
594.8430, 159.9253
596.0110, 144.6140
597.1790, 164.0664
598.3480, 127.3367
599.5160, 187.0027
600.6830, 205.6968
601.8510, 159.0359
603.0180, 214.1565
604.1860, 203.9719
605.3530, 213.6826
606.5200, 269.1118
607.6870, 194.3669
608.8530, 259.1226
610.0200, 194.2778
611.1860, 322.9106
612.3520, 272.3000
613.5180, 340.4363
614.6840, 298.4502
615.8500, 255.4412
617.0150, 336.2827
618.1800, 383.1113
619.3450, 433.7368
620.5100, 466.3779
621.6750, 490.9009
622.8400, 530.2673
624.0040, 601.6707
625.1690, 737.7109
626.3330, 836.6658
627.4970, 833.5518
628.6610, 894.2307
629.8240, 859.0176
630.9880, 778.3828
632.1510, 777.7583
633.3140, 591.9858
634.4770, 545.2007
635.6400, 566.8633
636.8020, 454.2366
637.9650, 439.3618
639.1270, 342.0374
640.2890, 343.2534
641.4510, 288.4141
642.6130, 231.5271
643.7750, 237.5688
644.9360, 159.5513
646.0980, 197.4707
647.2590, 188.3281
648.4200, 122.1240
649.5810, 96.85498
650.7410, 205.5212
651.9020, 123.1316
653.0620, 155.8350
654.2220, 149.3362
655.3820, 84.74878
656.5420, 100.0984
657.7020, 83.38330
658.8610, 109.6045
660.0200, 36.88281
661.1800, 58.97070
662.3390, 53.99268
663.4970, 43.94775
664.6560, 64.09717
665.8150, 62.66113
666.9730, 86.42090
668.1310, 86.11523
669.2890, 90.74756
670.4470, 79.31592
671.6050, 35.81982
672.7620, 69.25830
673.9200, 58.63037
675.0770, 22.93555
676.2340, 64.17188
677.3910, 4.659180
678.5470, 83.43408
679.7040, 139.4614
680.8600, 25.42578
682.0160, 68.32031
683.1720, 21.15186
684.3280, 42.91602
685.4840, 34.61475
686.6390, 64.24951
687.7950, 90.82373
688.9500, 10.66357
690.1050, 8.776855
691.2600, 14.14941
692.4150, 81.46143
693.5690, 65.72607
694.7240, 9.068848
695.8780, 20.91992
697.0320, 45.82715
698.1860, 109.1963
699.3400, 23.83691
700.4930, 14.04541
701.6470, 75.13965
702.8000, 21.56348
703.9530, 2.799316
705.1060, 34.76172
706.2590, 32.74805
707.4110, 8.352539
708.5640, 4.0038999E-02
709.7160, 8.806152
710.8680, 96.34375
712.0200, 43.42236
713.1720, 17.44434
714.3230, 34.39355
715.4750, 63.73096
716.6260, 34.03271
717.7770, 72.74023
718.9280, 56.32764
720.0790, 45.89502
721.2300, 8.615234
722.3800, 30.79639
723.5300, 40.86475
724.6810, 22.37842
725.8300, 4.453125
726.9800, 14.35889
728.1300, 93.66992
729.2790, 1.373047
730.4290, 60.46533
731.5780, 29.83643
732.7270, 40.67090
733.8760, 42.83057
735.0240, 29.83887
736.1730, 18.15723
737.3210, 69.40820
738.4700, 26.55859
739.6180, 63.25293
740.7650, 102.7822
741.9130, 1.456055
743.0610, 30.99365
744.2080, 27.47998
745.3550, 69.10742
746.5020, 92.66650
747.6490, 8.337891
748.7960, 44.38330
749.9430, 36.91016
751.0890, 62.97607
752.2350, 81.11230
753.3810, 75.11963
754.5270, 98.94678
755.6730, 90.77246
756.8190, 127.6050
757.9640, 112.3638
759.1090, 129.0508
760.2540, 154.6636
761.3990, 134.2041
762.5440, 190.6719
763.6890, 153.0693
764.8330, 204.3970
765.9780, 259.6582
767.1220, 221.8560
768.2660, 266.9966
769.4100, 237.0771
770.5530, 306.1152
771.6970, 310.0918
772.8400, 414.0220
773.9830, 504.8901
775.1260, 459.6943
776.2690, 464.4370
777.4120, 552.1152
778.5540, 551.7305
779.6970, 487.0542
780.8390, 577.0786
781.9810, 568.0884
783.1230, 653.7012
784.2650, 613.4541
785.4060, 553.1182
786.5480, 544.4321
787.6890, 500.8560
788.8300, 496.4282
789.9710, 459.5928
791.1120, 493.7783
792.2520, 514.3828
793.3930, 509.1626
794.5330, 545.3428
795.6730, 522.8198
796.8130, 476.0918
797.9530, 538.7285
799.0930, 528.6401
800.2320, 693.4995
801.3710, 581.5127
802.5110, 790.6558
803.6500, 777.9980
804.7880, 1002.976
805.9270, 1162.687
807.0660, 1249.810
808.2040, 1297.135
809.3420, 1494.100
810.4800, 1688.945
811.6180, 1862.208
812.7560, 1978.547
813.8930, 2227.898
815.0310, 2559.690
816.1680, 2771.128
817.3050, 3188.097
818.4420, 3359.348
819.5790, 3778.216
820.7150, 4247.896
821.8520, 4753.632
822.9880, 5024.562
824.1240, 5233.490
825.2600, 5374.835
826.3960, 5203.409
827.5320, 4919.835
828.6670, 4463.543
829.8020, 4157.052
830.9380, 3651.867
832.0730, 3342.061
833.2080, 3027.483
834.3420, 2849.797
835.4770, 2628.718
836.6110, 2488.119
837.7450, 2432.985
838.8790, 2363.062
840.0130, 2354.276
841.1470, 2490.090
842.2810, 2377.139
843.4140, 2428.227
844.5470, 2437.585
845.6800, 2686.331
846.8130, 2740.221
847.9460, 2724.411
849.0790, 2741.252
850.2110, 2788.645
851.3440, 2868.417
852.4760, 2797.084
853.6080, 2760.412
854.7400, 2881.773
855.8710, 2904.230
857.0030, 2950.117
858.1340, 3012.562
859.2650, 3203.124
860.3960, 3370.905
861.5270, 3563.972
862.6580, 3887.098
863.7890, 4283.516
864.9190, 4646.507
866.0490, 5199.566
867.1790, 5886.245
868.3090, 6767.340
869.4390, 7849.708
870.5690, 9051.006
871.6980, 10682.11
872.8270, 12374.59
873.9570, 14750.77
875.0860, 17154.56
876.2140, 19913.55
877.3430, 22589.63
878.4720, 25050.90
879.6000, 26406.38
880.7280, 26344.75
881.8560, 25071.32
882.9840, 23232.35
884.1120, 20673.58
885.2390, 18001.13
886.3670, 15338.52
887.4940, 13042.95
888.6210, 11084.38
889.7480, 9528.013
890.8750, 7856.438
892.0020, 6800.826
893.1280, 5854.899
894.2540, 4993.320
895.3810, 4497.036
896.5070, 3902.000
897.6320, 3293.134
898.7580, 2905.198
899.8840, 2494.553
901.0090, 2090.157
902.1340, 1835.750
903.2590, 1802.793
904.3840, 1591.376
905.5090, 1434.288
906.6340, 1371.853
907.7580, 1215.649
908.8820, 1171.324
910.0060, 1078.520
911.1300, 1127.000
912.2540, 1079.986
913.3780, 945.1035
914.5010, 832.9404
915.6250, 850.6328
916.7480, 818.0801
917.8710, 731.8379
918.9940, 773.4863
920.1160, 629.2939
921.2390, 710.0117
922.3610, 533.4121
923.4840, 707.4551
924.6060, 597.1631
925.7280, 644.5117
926.8490, 499.3594
927.9710, 375.8613
929.0930, 525.7578
930.2140, 420.5947
931.3350, 479.0830
932.4560, 541.4775
933.5770, 480.2500
934.6980, 478.3838
935.8180, 416.7139
936.9380, 388.5439
938.0590, 322.3828
939.1790, 415.7695
940.2990, 223.4756
941.4180, 351.1406
942.5380, 275.0088
943.6570, 299.9277
944.7770, 343.8896
945.8960, 454.7119
947.0150, 376.1924
948.1340, 403.7520
949.2520, 299.5820
950.3710, 368.8564
951.4890, 281.0664
952.6070, 315.0166
953.7260, 199.4844
954.8430, 167.9092
955.9610, 170.1221
957.0790, 133.0342
958.1960, 36.85645
959.3130, 93.77344
960.4310, 30.76367
961.5480, 131.3105
962.6640, 15.79395
963.7810, 31.04395
964.8970, 18.63379
966.0140, 48.63574
967.1300, 65.33301
968.2460, 73.73047
969.3620, 9.071289
970.4780, 85.17285
971.5930, 118.7158
972.7090, 78.59961
973.8240, 68.59570
974.9390, 155.8018
976.0540, 223.3701
977.1690, 301.8174
978.2830, 345.9336
979.3980, 358.4766
980.5120, 412.2461
981.6260, 399.9775
982.7400, 408.8936
983.8540, 443.9570
984.9680, 366.7646
986.0820, 498.3545
987.1950, 430.4932
988.3080, 453.2842
989.4210, 393.0635
990.5340, 495.6055
991.6470, 558.1260
992.7600, 499.9111
993.8720, 674.3779
994.9850, 643.3770
996.0970, 683.8682
997.2090, 697.4932
998.3210, 759.3184
999.4320, 838.7373
1000.544, 937.0488
1001.655, 1029.759
1002.767, 1164.922
1003.878, 1259.354
1004.989, 1422.126
1006.100, 1456.260
1007.210, 1485.236
1008.321, 1430.089
1009.431, 1364.797
1010.541, 1264.348
1011.651, 946.7344
1012.761, 961.3389
1013.871, 852.3789
1014.980, 675.3008
1016.090, 714.0117
1017.199, 704.6514
1018.308, 425.0625
1019.417, 245.3564
1020.526, 265.4365
1021.635, 256.3389
1022.743, 180.1709
1023.852, 80.09473
1024.960, 206.6729
1026.068, 111.9043
1027.176, 58.95605
1028.283, 130.8418
1029.391, 101.5605
1030.498, 64.10059
1031.606, 82.62207
1032.713, 37.01562
1033.820, 28.60059
1034.927, 0.1425780
1036.033, 27.46289
1037.140, 2.918945
1038.246, 75.59277
1039.353, 3.451172
1040.459, 56.40137
1041.564, 31.37598
1042.670, 85.12891
1043.776, 41.63672
1044.881, 73.67578
1045.987, 62.68848
1047.092, 12.00195
1048.197, 5.927734
1049.302, 82.03906
1050.406, 70.60938
1051.511, 166.2021
1052.615, 41.88477
1053.720, 178.8232
1054.824, 83.38672
1055.928, 118.7627
1057.031, 11.45996
1058.135, 58.52539
1059.238, 47.49902
1060.342, 151.9795
1061.445, 33.78418
1062.548, 259.3633
1063.651, 128.2402
1064.754, 116.3389
1065.856, 222.9912
1066.959, 26.21191
1068.061, 30.51367
1069.163, 160.1738
1070.265, 147.0537
1071.367, 205.7100
1072.469, 132.4385
1073.570, 108.4785
1074.671, 63.67188
1075.773, 169.0234
1076.874, 143.4688
1077.975, 148.9365
1079.075, 205.7637
1080.176, 81.09375
1081.276, 78.48047
1082.377, 61.71680
1083.477, 60.45508
1084.577, 74.27734
1085.677, 122.9062
1086.777, 118.4209
1087.876, 134.5283
1088.975, 166.5488
1090.075, 169.4863
1091.174, 141.3467
1092.273, 123.1328
1093.372, 176.8525
1094.470, 173.5107
1095.569, 230.1191
1096.667, 120.6738
1097.765, 104.1895
1098.863, 368.5713
1099.961, 269.4414
1101.059, 194.6855
1102.157, 334.0967
1103.254, 201.8281
1104.351, 332.4121
1105.449, 281.4785
1106.546, 198.4512
1107.642, 110.5449
1108.739, 277.1768
1109.836, 83.39355
1110.932, 207.1221
1112.028, 327.7666
1113.124, 304.7637
1114.220, 195.9248
1115.316, 72.61914
1116.412, 128.0840
1117.507, 113.8984
1118.603, 181.4121
1119.698, 210.8760
1120.793, 163.4004
1121.888, 184.9482
1122.983, 139.2764
1124.077, 46.51562
1125.172, 78.95508
1126.266, 157.5654
1127.360, 242.0967
1128.454, 176.6582
1129.548, 212.8682
1130.642, 201.4131
1131.735, 198.8613
1132.829, 250.9863
1133.922, 90.41406
1135.015, 227.0029
1136.108, 101.1094
1137.201, 258.8350
1138.294, 210.6748
1139.386, 241.1963
1140.478, 243.2441
1141.571, 257.5117
1142.663, 227.1367
1143.755, 74.70117
1144.846, 341.8203
1145.938, 143.6211
1147.030, 307.0195
1148.121, 120.8750
1149.212, 287.5449
1150.303, 118.7930
1151.394, 293.7344
1152.485, 202.2695
1153.575, 87.19727
1154.666, 19.79492
1155.756, 57.08203
1156.846, 150.3691
1157.936, 197.5664
1159.026, 126.5957
1160.116, 128.3125
1161.205, 295.0508
1162.295, 32.51953
1163.384, 162.8555
1164.473, 78.61719
1165.562, 27.15234
1166.651, 137.8477
1167.739, 40.12891
1168.828, 59.84375
1169.916, 97.88867
1171.005, 27.75195
1172.093, 174.5605
1173.181, 17.69336
1174.268, 43.52930
1175.356, 81.32227
1176.443, 1.152344
1177.531, 0.0000000E+00
##END=



