##NAMES=Grossular
##RRUFFID=R050036
##IDEAL CHEMISTRY=Ca_3_Al_2_(SiO_4_)_3_
##LOCALITY=Wah Wah Mountains, Utah, USA
##OWNER=RRUFF
##SOURCE=Eugene Schlepp
##DESCRIPTION=Colorless single crystal in rhyolite matrix
##STATUS=The identification of this mineral has been confirmed by X-ray diffraction and chemical analysis
##URL=rruff.info/R050036
##MEASURED CHEMISTRY=(Ca_2.95_Mg_0.05_)_Σ=3_(Al_1.70_Fe^3+^_0.30_)_Σ=2_(Si_1.00_O_4_)_3_; trace amounts of P
##PIN_ID=L00123
##ORIENTATION=Laser parallel to c* (0 0 1). Fiducial mark perpendicular to laser is parallel to a [1 0 0]
118.527, 0.000
119.919, 0.201
121.310, 135.583
122.701, 1.457
124.092, 151.310
125.482, 0.816
126.873, 107.942
128.263, 203.925
129.653, 111.656
131.042, 170.248
132.432, 140.512
133.821, 52.761
135.210, 57.486
136.599, 60.731
137.987, 163.172
139.376, 138.036
140.764, 216.901
142.152, 97.508
143.539, 102.161
144.927, 127.286
146.314, 126.456
147.701, 138.768
149.088, 76.337
150.474, 203.271
151.861, 31.662
153.247, 160.588
154.633, 5.111
156.018, 46.288
157.404, 11.277
158.789, 77.980
160.174, 55.722
161.559, 55.288
162.943, 132.079
164.327, 120.723
165.711, 92.272
167.095, 139.830
168.479, 189.416
169.862, 245.036
171.246, 341.152
172.628, 444.933
174.011, 532.861
175.394, 998.745
176.776, 1477.637
178.158, 3066.612
179.540, 5605.670
180.922, 6474.809
182.303, 4744.026
183.684, 2053.315
185.065, 922.677
186.446, 482.108
187.826, 255.611
189.207, 249.183
190.587, 125.824
191.967, 300.537
193.346, 149.323
194.726, 44.185
196.105, 178.121
197.484, 7.863
198.862, 123.230
200.241, 43.596
201.619, 8.664
202.997, 54.007
204.375, 103.416
205.753, 6.109
207.130, 158.569
208.507, 29.035
209.884, 71.299
211.261, 26.578
212.638, 5.801
214.014, 76.029
215.390, 46.909
216.766, 70.697
218.141, 88.812
219.517, 49.823
220.892, 20.868
222.267, 18.049
223.642, 66.926
225.016, 34.233
226.391, 185.571
227.765, 3.340
229.139, 17.929
230.512, 0.766
231.886, 170.576
233.259, 151.957
234.632, 393.377
236.005, 394.839
237.377, 666.343
238.749, 547.891
240.122, 549.483
241.493, 611.105
242.865, 452.733
244.237, 574.411
245.608, 456.077
246.979, 717.721
248.350, 409.379
249.720, 421.094
251.090, 422.870
252.461, 304.706
253.830, 346.580
255.200, 208.449
256.570, 400.330
257.939, 322.274
259.308, 434.282
260.677, 456.355
262.045, 1558.494
263.414, 1280.615
264.782, 1282.961
266.150, 1305.290
267.517, 1097.682
268.885, 910.135
270.252, 642.650
271.619, 585.227
272.986, 797.864
274.353, 790.651
275.719, 913.407
277.085, 906.223
278.451, 839.343
279.817, 882.271
281.182, 685.256
282.548, 718.297
283.913, 752.436
285.278, 765.515
286.642, 858.852
288.007, 821.700
289.371, 844.959
290.735, 717.802
292.099, 581.055
293.462, 514.300
294.826, 367.543
296.189, 380.784
297.552, 154.025
298.914, 317.206
300.277, 230.398
301.639, 333.543
303.001, 396.724
304.363, 389.909
305.724, 543.098
307.086, 496.280
308.447, 689.466
309.808, 682.746
311.168, 760.197
312.529, 789.043
313.889, 812.222
315.249, 836.516
316.609, 858.434
317.969, 841.678
319.328, 873.877
320.687, 867.030
322.046, 889.641
323.405, 944.594
324.764, 1096.055
326.122, 1109.212
327.480, 1132.345
328.838, 1305.422
330.196, 978.384
331.553, 1181.538
332.910, 1104.730
334.267, 1177.957
335.624, 1091.199
336.981, 1084.348
338.337, 1217.557
339.693, 1110.803
341.049, 1444.097
342.405, 1357.432
343.760, 1470.807
345.116, 1674.241
346.471, 1537.733
347.826, 2061.270
349.180, 1904.864
350.535, 2248.498
351.889, 2372.195
353.243, 2735.929
354.597, 3319.711
355.950, 3553.563
357.304, 4417.451
358.657, 5051.430
360.010, 6665.485
361.362, 8088.094
362.715, 10452.301
364.067, 14933.081
365.419, 18657.139
366.771, 21301.574
368.123, 25835.906
369.474, 26529.711
370.825, 27504.232
372.176, 29008.869
373.527, 35919.262
374.877, 36912.594
376.228, 37547.039
377.578, 32281.854
378.928, 24276.748
380.277, 19831.684
381.627, 13906.664
382.976, 11331.707
384.325, 8596.780
385.674, 6461.406
387.023, 5723.761
388.371, 4238.982
389.719, 3904.223
391.067, 3069.460
392.415, 2764.864
393.762, 2470.271
395.110, 1895.736
396.457, 2061.242
397.804, 1606.804
399.150, 1582.395
400.497, 1508.013
401.843, 1363.681
403.189, 1559.406
404.535, 1515.160
405.881, 1860.947
407.226, 2066.763
408.571, 2412.604
409.916, 3318.473
411.261, 4234.367
412.605, 5250.287
413.950, 4546.230
415.294, 3482.199
416.638, 2428.193
417.981, 1504.229
419.325, 1280.291
420.668, 816.375
422.011, 592.499
423.354, 328.646
424.697, 224.815
426.039, 159.044
427.381, 12.744
428.723, 163.509
430.065, 129.784
431.406, 116.080
432.748, 62.396
434.089, 31.267
435.430, 175.088
436.770, 161.461
438.111, 97.854
439.451, 274.264
440.791, 10.690
442.131, 207.133
443.471, 53.594
444.810, 190.071
446.149, 156.560
447.488, 283.066
448.827, 329.587
450.166, 346.125
451.504, 562.678
452.842, 579.248
454.180, 545.834
455.518, 652.436
456.855, 499.051
458.193, 775.681
459.530, 592.326
460.867, 628.986
462.203, 595.661
463.540, 552.351
464.876, 639.055
466.212, 505.772
467.548, 622.504
468.883, 589.252
470.219, 526.013
471.554, 712.785
472.889, 359.573
474.224, 686.374
475.558, 563.188
476.892, 440.016
478.227, 616.857
479.561, 623.711
480.894, 760.582
482.228, 337.467
483.561, 374.366
484.894, 561.277
486.227, 358.201
487.559, 575.137
488.892, 642.214
490.224, 649.175
491.556, 759.298
492.888, 1006.609
494.220, 983.605
495.551, 1017.252
496.882, 1244.270
498.213, 1166.092
499.544, 1043.130
500.874, 1161.939
502.205, 949.408
503.535, 1097.140
504.865, 918.828
506.194, 910.243
507.524, 1038.628
508.853, 782.532
510.182, 748.142
511.511, 511.254
512.840, 468.916
514.168, 538.147
515.496, 463.370
516.824, 530.685
518.152, 436.700
519.480, 578.035
520.807, 749.126
522.134, 581.281
523.461, 828.781
524.788, 852.949
526.114, 873.751
527.441, 804.952
528.767, 645.342
530.093, 862.954
531.418, 727.342
532.744, 1144.861
534.069, 1172.566
535.394, 1620.152
536.719, 2179.348
538.044, 2875.812
539.368, 3988.312
540.693, 5226.217
542.017, 7781.458
543.340, 10118.616
544.664, 11369.747
545.987, 11377.072
547.311, 8194.211
548.634, 5866.646
549.956, 3964.700
551.279, 2438.112
552.601, 2045.711
553.923, 1323.365
555.245, 1223.080
556.567, 986.393
557.889, 834.010
559.210, 801.281
560.531, 683.472
561.852, 797.384
563.173, 634.690
564.493, 663.296
565.813, 780.665
567.133, 547.921
568.453, 795.060
569.773, 432.042
571.092, 658.949
572.412, 725.909
573.731, 652.836
575.049, 799.772
576.368, 590.780
577.686, 627.590
579.005, 644.384
580.323, 544.344
581.640, 681.281
582.958, 668.007
584.275, 578.813
585.593, 685.496
586.909, 662.069
588.226, 789.179
589.543, 545.792
590.859, 702.612
592.175, 549.180
593.491, 615.483
594.807, 632.319
596.122, 408.815
597.438, 475.288
598.753, 691.736
600.068, 558.160
601.382, 744.559
602.697, 720.934
604.011, 877.281
605.325, 1023.606
606.639, 829.905
607.952, 1216.180
609.266, 942.427
610.579, 1158.648
611.892, 1104.845
613.205, 1051.014
614.518, 1227.157
615.830, 1043.274
617.142, 1299.364
618.454, 1435.428
619.766, 1301.464
621.078, 1587.475
622.389, 1263.456
623.700, 1569.410
625.011, 1545.338
626.322, 1551.237
627.632, 1637.107
628.943, 1262.951
630.253, 1458.766
631.563, 1064.552
632.872, 770.311
634.182, 906.040
635.491, 561.740
636.800, 647.411
638.109, 503.053
639.418, 318.665
640.726, 364.249
642.035, 219.803
643.343, 295.326
644.651, 290.820
645.958, 136.285
647.266, 341.719
648.573, 12.878
649.880, 92.465
651.187, 207.773
652.494, 66.947
653.800, 288.241
655.106, 36.602
656.412, 188.482
657.718, 13.534
659.024, 78.538
660.329, 53.506
661.634, 31.562
662.939, 26.705
664.244, 28.080
665.549, 37.178
666.853, 67.487
668.157, 47.885
669.461, 66.660
670.765, 11.168
672.069, 84.377
673.372, 139.975
674.675, 255.706
675.978, 21.581
677.281, 17.526
678.583, 193.541
679.886, 100.284
681.188, 65.927
682.490, 12.229
683.792, 18.600
685.093, 165.040
686.394, 78.375
687.696, 228.247
688.997, 104.951
690.297, 121.886
691.598, 91.155
692.898, 14.160
694.198, 102.887
695.498, 40.049
696.798, 52.711
698.097, 84.569
699.397, 178.048
700.696, 179.367
701.995, 133.064
703.293, 175.464
704.592, 42.168
705.890, 40.120
707.188, 217.632
708.486, 64.443
709.784, 56.483
711.081, 1.513
712.378, 59.566
713.675, 52.293
714.972, 114.116
716.269, 44.094
717.565, 72.381
718.862, 89.239
720.158, 10.827
721.453, 62.367
722.749, 83.872
724.045, 105.347
725.340, 136.790
726.635, 155.082
727.930, 129.585
729.224, 130.938
730.519, 122.260
731.813, 36.447
733.107, 164.777
734.401, 135.974
735.694, 22.858
736.988, 88.268
738.281, 239.364
739.574, 39.567
740.867, 151.435
742.160, 242.408
743.452, 23.359
744.744, 324.276
746.036, 65.167
747.328, 216.028
748.620, 316.862
749.911, 37.673
751.202, 468.467
752.493, 259.234
753.784, 229.976
755.075, 290.691
756.365, 131.383
757.655, 362.050
758.945, 212.690
760.235, 183.308
761.525, 443.899
762.814, 234.469
764.103, 375.039
765.392, 315.585
766.681, 286.107
767.969, 296.609
769.258, 377.090
770.546, 567.547
771.834, 297.981
773.122, 578.394
774.409, 488.784
775.697, 379.151
776.984, 469.499
778.271, 499.822
779.558, 260.127
780.844, 610.412
782.131, 430.676
783.417, 570.920
784.703, 531.145
785.989, 491.350
787.274, 831.537
788.560, 371.703
789.845, 661.854
791.130, 701.994
792.415, 592.119
793.699, 862.223
794.983, 542.324
796.268, 1012.408
797.552, 952.475
798.835, 802.521
800.119, 1322.551
801.402, 1052.455
802.686, 1652.471
803.969, 1789.318
805.251, 1988.977
806.534, 2358.939
807.816, 2352.260
809.098, 3002.199
810.380, 3177.334
811.662, 3487.283
812.944, 4385.457
814.225, 4044.979
815.506, 4834.275
816.787, 5169.609
818.068, 5235.238
819.349, 5743.895
820.629, 5718.795
821.909, 6308.207
823.189, 6622.385
824.469, 6331.758
825.749, 6739.555
827.028, 6041.355
828.307, 6291.068
829.586, 6282.076
830.865, 5547.758
832.144, 6063.711
833.422, 5288.605
834.700, 5458.158
835.978, 5601.053
837.256, 4957.312
838.534, 5223.170
839.811, 5169.832
841.088, 4859.270
842.365, 5261.971
843.642, 4811.537
844.919, 5320.930
846.195, 4910.445
847.472, 4958.348
848.748, 5218.977
850.023, 4803.562
851.299, 5472.742
852.575, 5284.580
853.850, 5124.494
855.125, 5690.430
856.400, 5360.176
857.674, 5880.107
858.949, 6224.746
860.223, 6173.801
861.497, 7197.492
862.771, 7066.996
864.045, 8296.434
865.318, 9213.812
866.591, 9587.586
867.864, 12427.051
869.137, 13236.859
870.410, 16001.738
871.682, 19184.891
872.955, 21344.650
874.227, 26433.102
875.499, 29112.785
876.770, 32122.580
878.042, 35732.484
879.313, 33602.539
880.584, 34362.664
881.855, 30492.744
883.126, 26182.844
884.396, 24662.939
885.667, 18858.951
886.937, 17079.154
888.207, 14499.371
889.476, 11300.375
890.746, 11160.443
892.015, 8680.719
893.284, 7746.908
894.553, 6987.217
895.822, 5777.977
897.090, 5747.867
898.359, 4948.250
899.627, 4678.465
900.895, 4778.926
902.163, 3879.410
903.430, 4162.014
904.698, 3652.535
905.965, 3163.080
907.232, 3493.645
908.499, 2734.229
909.765, 2844.832
911.032, 2705.457
912.298, 2356.104
913.564, 2466.770
914.830, 2217.459
916.095, 1923.887
917.361, 1964.617
918.626, 1785.375
919.891, 1806.834
921.156, 1727.633
922.420, 1368.455
923.685, 1799.299
924.949, 1140.162
926.213, 1471.053
927.477, 1461.967
928.740, 1162.902
930.004, 1393.863
931.267, 1094.848
932.530, 1116.260
933.793, 1487.291
935.056, 788.348
936.318, 1159.955
937.581, 1141.062
938.843, 1022.193
940.104, 1513.350
941.366, 1184.531
942.628, 1238.713
943.889, 1329.949
945.150, 1221.207
946.411, 1715.693
947.672, 1207.004
948.932, 1588.352
950.193, 1329.715
951.453, 971.105
952.713, 1256.402
953.973, 987.848
955.232, 839.318
956.491, 1060.830
957.751, 582.371
959.010, 775.365
960.268, 726.990
961.527, 508.641
962.785, 578.070
964.044, 519.799
965.302, 434.480
966.559, 594.967
967.817, 366.789
969.075, 574.439
970.332, 566.354
971.589, 648.299
972.846, 842.752
974.102, 734.779
975.359, 1146.859
976.615, 938.967
977.871, 1051.111
979.127, 1364.643
980.383, 1006.881
981.638, 1419.230
982.893, 1279.045
984.149, 1291.508
985.404, 1626.205
986.658, 1398.787
987.913, 1551.428
989.167, 1654.113
990.421, 1336.844
991.675, 1699.662
992.929, 1572.859
994.183, 1425.820
995.436, 1798.809
996.689, 1451.869
997.942, 1714.969
999.195, 1768.104
1000.448, 1821.328
1001.700, 2364.609
1002.952, 2197.918
1004.204, 2331.291
1005.456, 2244.689
1006.708, 1788.174
1007.959, 2141.744
1009.210, 1795.504
1010.461, 1399.150
1011.712, 1422.830
1012.963, 976.609
1014.213, 960.449
1015.464, 924.318
1016.714, 358.225
1017.964, 932.193
1019.214, 526.188
1020.463, 540.211
1021.712, 634.289
1022.962, 238.420
1024.210, 632.602
1025.459, 436.816
1026.708, 101.055
1027.956, 685.357
1029.204, 259.969
1030.452, 304.316
1031.700, 548.695
1032.948, 173.229
1034.195, 367.680
1035.442, 192.301
1036.689, 6.818
1037.936, 471.420
1039.183, 133.592
1040.429, 481.033
1041.676, 235.727
1042.922, 20.441
1044.168, 555.197
1045.413, 26.033
1046.659, 328.814
1047.904, 213.688
1049.149, 27.297
1050.394, 442.215
1051.639, 297.463
1052.884, 87.365
1054.128, 497.605
1055.372, 182.615
1056.616, 267.625
1057.860, 152.660
1059.104, 17.715
1060.347, 442.789
1061.590, 87.896
1062.833, 233.113
1064.076, 378.256
1065.319, 156.537
1066.561, 78.637
1067.803, 303.836
1069.046, 30.945
1070.287, 424.281
1071.529, 79.527
1072.771, 164.789
1074.012, 380.068
1075.253, 55.389
1076.494, 400.727
1077.735, 176.076
1078.975, 81.852
1080.216, 437.240
1081.456, 17.346
1082.696, 328.090
1083.936, 373.541
1085.175, 20.941
1086.415, 404.584
1087.654, 300.123
1088.893, 85.742
1090.132, 271.371
1091.371, 82.988
1092.609, 452.822
1093.847, 428.463
1095.085, 85.887
1096.323, 349.748
1097.561, 5.391
1098.799, 181.455
1100.036, 347.127
1101.273, 97.193
1102.510, 108.576
1103.747, 14.262
1104.983, 90.000
1106.220, 445.707
1107.456, 38.574
1108.692, 217.543
1109.928, 223.266
1111.163, 161.002
1112.399, 304.672
1113.634, 69.646
1114.869, 173.982
1116.104, 341.611
1117.339, 122.785
1118.573, 192.771
1119.808, 178.334
1121.042, 56.098
1122.276, 739.896
1123.509, 295.455
1124.743, 311.016
1125.976, 486.588
1127.210, 27.838
1128.443, 288.920
1129.675, 344.492
1130.908, 139.934
1132.141, 341.869
1133.373, 42.619
1134.605, 322.873
1135.837, 358.646
1137.068, 34.139
1138.300, 280.576
1139.531, 496.070
1140.762, 1.564
1141.993, 430.711
1143.224, 226.193
1144.455, 161.932
1145.685, 719.916
1146.915, 85.383
1148.145, 506.232
1149.375, 342.508
1150.605, 237.959
1151.834, 584.217
1153.063, 169.654
1154.292, 405.084
1155.521, 614.799
1156.750, 20.213
1157.978, 555.871
1159.207, 252.312
1160.435, 367.695
1161.663, 471.365
1162.891, 336.721
1164.118, 242.533
1165.345, 589.301
1166.573, 204.617
1167.800, 601.143
1169.026, 197.320
1170.253, 272.594
1171.480, 603.354
1172.706, 188.596
1173.932, 463.820
1175.158, 307.617
1176.383, 42.809
1177.609, 747.979
1178.834, 214.725
1180.059, 89.855
1181.284, 560.414
1182.509, 96.043
1183.734, 201.117
1184.958, 420.438
1186.182, 65.467
1187.406, 536.516
1188.630, 332.104
1189.854, 257.062
1191.077, 582.354
1192.301, 10.771
1193.524, 393.676
1194.747, 289.766
1195.969, 84.492
1197.192, 810.211
1198.414, 126.668
1199.636, 151.320
1200.858, 444.594
1202.080, 199.758
1203.302, 394.326
1204.523, 360.479
1205.744, 285.578
1206.966, 620.062
1208.186, 278.109
1209.407, 202.541
1210.628, 806.939
1211.848, 272.951
1213.068, 541.578
1214.288, 397.785
1215.508, 302.623
1216.727, 756.195
1217.947, 461.580
1219.166, 405.803
1220.385, 849.969
1221.604, 350.248
1222.822, 614.354
1224.041, 698.432
1225.259, 174.809
1226.477, 888.818
1227.695, 564.848
1228.913, 481.840
1230.130, 845.777
1231.348, 392.275
1232.565, 775.938
1233.782, 639.762
1234.999, 329.045
1236.215, 842.834
1237.432, 856.604
1238.648, 277.762
1239.864, 1041.490
1241.080, 415.289
1242.296, 705.773
1243.511, 949.441
1244.726, 234.234
1245.942, 837.855
1247.156, 611.457
1248.371, 316.141
1249.586, 1169.699
1250.800, 333.240
1252.014, 627.330
1253.228, 1030.826
1254.442, 253.242
1255.656, 966.684
1256.869, 840.074
1258.083, 406.316
1259.296, 939.654
1260.509, 730.055
1261.722, 715.498
1262.934, 618.734
1264.147, 486.137
1265.359, 579.293
1266.571, 622.422
1267.783, 243.297
1268.994, 1066.293
1270.206, 549.262
1271.417, 453.303
1272.628, 986.162
1273.839, 127.666
1275.050, 601.426
1276.260, 794.152
1277.471, 20.424
1278.681, 692.625
1279.891, 603.039
1281.101, 295.975
1282.310, 558.346
1283.520, 160.684
1284.729, 563.498
1285.938, 685.625
1287.147, 27.355
1288.356, 409.389
1289.564, 311.375
1290.773, 63.318
1291.981, 915.209
1293.189, 2.938
1294.397, 188.834
1295.604, 700.482
1296.812, 192.086
1298.019, 503.643
1299.226, 485.160
1300.433, 143.408
1301.640, 718.494
1302.846, 329.611
1304.053, 170.811
1305.259, 491.861
1306.465, 47.131
1307.671, 533.666
1308.876, 284.420
1310.082, 135.127
1311.287, 585.783
1312.492, 156.383
1313.697, 196.885
1314.902, 517.334
1316.106, 2.273
1317.310, 558.043
1318.515, 528.301
1319.719, 51.494
1320.922, 618.613
1322.126, 448.385
1323.329, 128.379
1324.533, 588.562
1325.736, 1.697
1326.939, 278.078
1328.141, 627.648
1329.344, 142.697
1330.546, 656.836
1331.748, 445.939
1332.950, 84.625
1334.152, 464.707
1335.354, 323.986
1336.555, 106.793
1337.757, 918.729
1338.958, 157.791
1340.159, 196.785
1341.359, 637.264
1342.560, 106.148
1343.760, 574.678
1344.960, 173.256
1346.160, 261.998
1347.360, 580.672
1348.560, 119.322
1349.759, 257.922
1350.959, 816.477
1352.158, 24.982
1353.357, 443.434
1354.555, 581.799
1355.754, 109.826
1356.952, 848.465
1358.151, 97.326
1359.349, 265.562
1360.546, 833.760
1361.744, 161.936
1362.941, 390.084
1364.139, 788.215
1365.336, 23.670
1366.533, 754.404
1367.730, 482.934
1368.926, 70.967
1370.123, 618.596
1371.319, 90.445
1372.515, 28.496
1373.711, 576.502
1374.906, 125.928
1376.102, 320.797
1377.297, 616.822
1378.492, 171.895
1379.687, 629.277
1380.882, 430.234
1382.077, 311.342
1383.271, 1121.986
1384.465, 383.000
1385.659, 553.852
1386.853, 924.699
1388.047, 175.111
1389.240, 535.904
1390.434, 676.715
1391.627, 2.455
1392.820, 888.393
1394.013, 659.219
1395.205, 279.518
1396.398, 960.262
1397.590, 329.564
1398.782, 570.203
1399.974, 1023.389
1401.166, 273.625
1402.357, 723.000
1403.549, 833.461
1404.740, 219.355
1405.931, 1076.230
1407.122, 529.688
1408.313, 518.801
1409.503, 847.863
1410.693, 329.260
1411.883, 518.738
1413.073, 937.117
1414.263, 165.639
1415.453, 952.615
1416.642, 860.441
1417.831, 188.664
1419.020, 1020.307
1420.209, 337.318
1421.398, 276.449
1422.587, 1063.219
1423.775, 273.393
1424.963, 790.857
1426.151, 999.482
1427.339, 211.736
1428.526, 770.865
1429.714, 627.008
1430.901, 333.650
1432.088, 1108.918
1433.275, 504.312
1434.462, 439.662
1435.648, 1026.650
1436.835, 418.424
1438.021, 595.953
1439.207, 870.111
1440.393, 326.549
1441.579, 991.766
1442.764, 947.703
1443.949, 164.799
1445.135, 1307.398
1446.320, 433.674
1447.504, 475.457
1448.689, 1261.035
1449.873, 365.506
1451.058, 960.061
1452.242, 1084.996
1453.426, 299.908
1454.609, 1062.062
1455.793, 895.334
1456.976, 349.270
1458.159, 1161.605
1459.342, 774.098
1460.525, 475.867
1461.708, 1378.770
1462.890, 499.311
1464.073, 771.844
1465.255, 1163.482
1466.437, 135.793
1467.619, 874.918
1468.800, 1034.121
1469.982, 335.418
1471.163, 1055.736
1472.344, 646.170
1473.525, 346.252
1474.706, 1238.492
1475.886, 500.504
1477.066, 352.312
1478.247, 1233.912
1479.427, 75.893
1480.607, 897.637
1481.786, 917.279
1482.966, 88.965
1484.145, 1091.359
1485.324, 554.639
1486.503, 287.793
1487.682, 1261.129
1488.860, 544.654
1490.039, 288.262
1491.217, 1151.990
1492.395, 285.865
1493.573, 578.564
1494.751, 922.994
1495.928, 127.789
1497.106, 1052.994
1498.283, 638.525
1499.460, 21.979
1500.637, 888.320
1501.814, 313.223
1502.990, 360.557
1504.166, 938.445
1505.342, 406.973
1506.518, 556.324
1507.694, 776.059
1508.870, 77.291
1510.045, 790.680
1511.221, 633.719
1512.396, 21.857
1513.571, 1074.164
1514.745, 577.457
1515.920, 62.527
1517.094, 580.713
1518.269, 0.000
##END=



