##NAMES=Grossular
##RRUFFID=R060443
##IDEAL CHEMISTRY=Ca_3_Al_2_(SiO_4_)_3_
##LOCALITY=unknown
##OWNER=RRUFF
##SOURCE=Gemological Institute of America
##DESCRIPTION=Yellowish tan colored single crystal
##STATUS=The identification of this mineral has been confirmed by X-ray diffraction and chemical analysis
##URL=rruff.info/R060443
##MEASURED CHEMISTRY=(Ca_2.92_Mn_0.03_Mg_0.03_Fe^2+^_0.02_)_Σ=3_(Al_1.86_Fe^3+^_0.14_)_Σ=2_(Si_1.00_O_4_)_3_; trace amounts of Ti
##PIN_ID=L01228
##ORIENTATION=Laser parallel to a* (1 0 0). Fiducial mark perpendicular to laser is parallel to c [0 0 1]
114.8180, 0.0000000E+00
116.0570, 45.19678
117.2950, 33.45386
118.5340, 35.25818
119.7720, 21.44226
121.0100, 43.85876
122.2470, 27.04858
123.4850, 76.03357
124.7220, 103.3026
125.9590, 103.4584
127.1960, 2.011841
128.4330, 60.70239
129.6700, 56.08826
130.9060, 47.14600
132.1430, 71.45483
133.3790, 2.264893
134.6150, 54.14209
135.8500, 16.81848
137.0860, 11.76587
138.3210, 30.33435
139.5560, 39.89722
140.7910, 46.63257
142.0260, 26.46729
143.2610, 31.43506
144.4950, 19.50073
145.7290, 46.67004
146.9630, 41.95569
148.1970, 7.637329
149.4310, 62.89673
150.6640, 131.5624
151.8980, 63.36353
153.1310, 5.701904
154.3640, 50.36035
155.5970, 52.54492
156.8290, 19.84680
158.0620, 80.26221
159.2940, 72.78870
160.5260, 74.58813
161.7580, 104.0068
162.9890, 109.0837
164.2210, 162.1941
165.4520, 90.72339
166.6830, 206.4570
167.9140, 368.4966
169.1450, 417.4346
170.3760, 670.2949
171.6060, 973.4651
172.8360, 1253.764
174.0660, 1432.189
175.2960, 1851.740
176.5260, 2618.414
177.7550, 3834.207
178.9840, 5020.121
180.2130, 5950.153
181.4420, 6018.305
182.6710, 4981.573
183.9000, 3741.959
185.1280, 2629.465
186.3560, 1701.088
187.5840, 1048.830
188.8120, 681.6729
190.0400, 463.5659
191.2670, 359.5081
192.4950, 239.4978
193.7220, 191.5349
194.9490, 117.6140
196.1750, 130.7373
197.4020, 146.9119
198.6280, 63.12476
199.8540, 62.38989
201.0800, 31.71191
202.3060, 36.09375
203.5320, 25.53223
204.7570, 26.96167
205.9830, 45.38428
207.2080, 12.69556
208.4330, 19.10059
209.6570, 92.01270
210.8820, 54.05225
212.1060, 23.02637
213.3310, 30.93530
214.5550, 31.22070
215.7780, 12.44312
217.0020, 52.73218
218.2260, 0.9113770
219.4490, 5.486572
220.6720, 99.00708
221.8950, 1.570068
223.1180, 33.20312
224.3400, 44.90649
225.5630, 17.31958
226.7850, 76.52563
228.0070, 55.44214
229.2290, 111.4304
230.4500, 128.4907
231.6720, 211.6230
232.8930, 294.8276
234.1140, 487.0906
235.3350, 530.4160
236.5560, 681.7761
237.7770, 767.1929
238.9970, 891.6799
240.2170, 845.2417
241.4370, 856.8767
242.6570, 891.5864
243.8770, 936.3691
245.0960, 973.2253
246.3160, 1019.157
247.5350, 945.1653
248.7540, 887.2505
249.9730, 737.4131
251.1910, 558.6550
252.4100, 444.9761
253.6280, 472.3770
254.8460, 326.8586
256.0640, 371.4219
257.2810, 427.0664
258.4990, 408.7930
259.7160, 469.6013
260.9330, 486.4922
262.1500, 509.6040
263.3670, 494.7527
264.5840, 534.9246
265.8000, 548.1038
267.0170, 591.3120
268.2330, 652.4827
269.4490, 773.6785
270.6640, 766.9619
271.8800, 928.2439
273.0950, 944.5769
274.3100, 1020.213
275.5260, 1136.693
276.7400, 1251.189
277.9550, 1217.763
279.1690, 1110.389
280.3840, 1037.095
281.5980, 1034.858
282.8120, 937.5618
284.0260, 953.2871
285.2390, 901.2705
286.4530, 830.3208
287.6660, 746.4380
288.8790, 721.8625
290.0920, 650.5063
291.3040, 584.0164
292.5170, 531.9209
293.7290, 443.1458
294.9410, 351.3738
296.1530, 268.4741
297.3650, 214.5549
298.5770, 185.0466
299.7880, 130.2112
301.0000, 108.2261
302.2110, 156.2083
303.4220, 160.2710
304.6320, 299.2859
305.8430, 318.3625
307.0530, 454.4717
308.2630, 519.6382
309.4730, 607.8066
310.6830, 725.0205
311.8930, 797.2964
313.1030, 870.4019
314.3120, 912.0308
315.5210, 966.4885
316.7300, 1006.003
317.9390, 998.5776
319.1470, 847.2124
320.3560, 865.9065
321.5640, 814.6599
322.7720, 818.4719
323.9800, 852.3418
325.1880, 958.2700
326.3950, 949.2556
327.6030, 984.2986
328.8100, 1113.398
330.0170, 1041.554
331.2240, 1052.766
332.4300, 1078.033
333.6370, 969.3555
334.8430, 974.7322
336.0490, 1042.165
337.2550, 1024.651
338.4610, 1099.192
339.6660, 1139.787
340.8720, 1228.437
342.0770, 1247.142
343.2820, 1323.900
344.4870, 1473.712
345.6920, 1591.588
346.8960, 1789.500
348.1010, 1954.474
349.3050, 2175.501
350.5090, 2411.906
351.7130, 2767.783
352.9160, 3068.703
354.1200, 3513.943
355.3230, 4098.299
356.5260, 5038.152
357.7290, 6015.045
358.9320, 7355.765
360.1350, 9201.265
361.3370, 11147.81
362.5390, 13672.41
363.7410, 16917.04
364.9430, 20972.66
366.1450, 25718.41
367.3470, 30305.20
368.5480, 34184.07
369.7490, 36886.97
370.9500, 39261.64
372.1510, 41906.66
373.3520, 44675.73
374.5520, 46514.86
375.7530, 46376.05
376.9530, 42654.33
378.1530, 36892.68
379.3520, 30210.10
380.5520, 23810.59
381.7510, 18109.16
382.9510, 13890.78
384.1500, 10899.49
385.3490, 8673.275
386.5480, 6721.126
387.7460, 5487.041
388.9440, 4784.030
390.1430, 3922.100
391.3410, 3320.251
392.5390, 2848.470
393.7360, 2495.757
394.9340, 2114.110
396.1310, 1863.519
397.3280, 1757.985
398.5250, 1626.519
399.7220, 1531.112
400.9190, 1549.775
402.1150, 1524.484
403.3120, 1655.250
404.5080, 1807.072
405.7040, 1986.938
406.8990, 2215.867
408.0950, 2549.848
409.2900, 2864.897
410.4860, 3378.024
411.6810, 4011.222
412.8760, 4950.479
414.0700, 5629.795
415.2650, 5690.168
416.4590, 5318.600
417.6540, 4499.088
418.8480, 3448.646
420.0420, 2504.264
421.2350, 1809.945
422.4290, 1335.703
423.6220, 912.5193
424.8150, 630.4014
426.0080, 447.3601
427.2010, 310.3713
428.3940, 183.4397
429.5860, 91.55713
430.7790, 61.74170
431.9710, 26.98828
433.1630, 54.28247
434.3540, 33.37720
435.5460, 13.99219
436.7370, 46.56543
437.9290, 18.10010
439.1200, 38.58936
440.3110, 106.0391
441.5010, 46.46631
442.6920, 83.85474
443.8820, 97.21411
445.0730, 7.544434
446.2630, 58.81982
447.4530, 89.93701
448.6420, 76.73999
449.8320, 223.5911
451.0210, 310.4824
452.2100, 285.4136
453.3990, 299.3904
454.5880, 466.4126
455.7770, 414.4731
456.9660, 516.5728
458.1540, 488.7095
459.3420, 451.8833
460.5300, 490.0952
461.7180, 403.3442
462.9050, 466.6301
464.0930, 492.9504
465.2800, 415.3059
466.4670, 410.6956
467.6540, 486.1187
468.8410, 358.5752
470.0280, 332.0647
471.2140, 406.5859
472.4000, 474.1394
473.5870, 487.7244
474.7720, 430.3403
475.9580, 464.9868
477.1440, 412.6638
478.3290, 393.3708
479.5140, 467.1072
480.6990, 355.8733
481.8840, 307.6680
483.0690, 238.4912
484.2540, 279.3428
485.4380, 249.2219
486.6220, 302.1284
487.8060, 349.0618
488.9900, 325.0220
490.1740, 551.0083
491.3570, 562.0208
492.5410, 630.0581
493.7240, 766.1243
494.9070, 759.2205
496.0900, 970.3428
497.2720, 1035.488
498.4550, 1008.671
499.6370, 1022.884
500.8190, 940.1211
502.0010, 889.3845
503.1830, 945.6704
504.3650, 921.9775
505.5460, 817.3062
506.7280, 846.6560
507.9090, 904.0269
509.0900, 809.4182
510.2710, 724.9976
511.4510, 655.1743
512.6320, 601.6353
513.8120, 532.4773
514.9920, 446.1099
516.1720, 461.8015
517.3520, 432.0410
518.5310, 502.7949
519.7110, 466.7512
520.8900, 658.3274
522.0690, 719.5557
523.2480, 915.6011
524.4270, 935.9653
525.6050, 1065.743
526.7840, 999.4160
527.9620, 980.2910
529.1400, 837.5708
530.3180, 765.0107
531.4960, 769.0569
532.6730, 835.8262
533.8510, 877.4976
535.0280, 1103.776
536.2050, 1441.909
537.3820, 1859.521
538.5590, 2524.931
539.7350, 3515.156
540.9120, 4520.302
542.0880, 5860.205
543.2640, 7399.910
544.4400, 9314.860
545.6150, 11351.44
546.7910, 12843.83
547.9660, 13147.54
549.1410, 11839.81
550.3170, 9814.670
551.4910, 7458.928
552.6660, 5456.508
553.8410, 3816.531
555.0150, 2678.513
556.1890, 1987.747
557.3630, 1448.424
558.5370, 1179.827
559.7110, 893.5425
560.8840, 816.2222
562.0570, 682.1230
563.2310, 688.4492
564.4040, 591.7974
565.5760, 560.6890
566.7490, 603.3267
567.9220, 597.1990
569.0940, 617.1621
570.2660, 646.6685
571.4380, 582.3081
572.6100, 593.8105
573.7820, 614.2566
574.9530, 605.3838
576.1240, 653.7280
577.2960, 613.3179
578.4670, 685.9666
579.6370, 676.8921
580.8080, 666.7578
581.9790, 632.4851
583.1490, 678.3796
584.3190, 736.7749
585.4890, 723.8018
586.6590, 803.6941
587.8280, 867.7427
588.9980, 896.5203
590.1670, 961.6729
591.3360, 939.5420
592.5050, 870.1616
593.6740, 810.0059
594.8430, 661.8137
596.0110, 572.2800
597.1790, 497.0547
598.3480, 434.3752
599.5160, 427.8423
600.6830, 481.4934
601.8510, 565.0278
603.0180, 623.5649
604.1860, 671.7104
605.3530, 747.9556
606.5200, 804.1738
607.6870, 874.2163
608.8530, 910.2925
610.0200, 995.3032
611.1860, 971.2747
612.3520, 1088.222
613.5180, 1079.144
614.6840, 1089.042
615.8500, 1149.914
617.0150, 1098.761
618.1800, 1217.583
619.3450, 1259.378
620.5100, 1268.147
621.6750, 1390.891
622.8400, 1464.607
624.0040, 1494.296
625.1690, 1580.958
626.3330, 1569.593
627.4970, 1632.200
628.6610, 1548.780
629.8240, 1499.330
630.9880, 1432.497
632.1510, 1357.347
633.3140, 1169.813
634.4770, 1026.249
635.6400, 760.6550
636.8020, 751.0325
637.9650, 590.3801
639.1270, 517.6973
640.2890, 427.9846
641.4510, 353.2412
642.6130, 284.4670
643.7750, 242.6619
644.9360, 218.8254
646.0980, 170.9580
647.2590, 112.0586
648.4200, 88.12793
649.5810, 36.16528
650.7410, 21.07642
651.9020, 16.12817
653.0620, 5.045166
654.2220, 1.912842
655.3820, 14.72925
656.5420, 10.50000
657.7020, 49.78784
658.8610, 84.15552
660.0200, 29.62158
661.1800, 87.15771
662.3390, 51.79395
663.4970, 8.512451
664.6560, 78.29077
665.8150, 76.16553
666.9730, 31.13623
668.1310, 37.17871
669.2890, 55.29712
670.4470, 96.50024
671.6050, 91.81055
672.7620, 42.22559
673.9200, 51.71924
675.0770, 33.29663
676.2340, 8.947998
677.3910, 5.661133
678.5470, 50.43384
679.7040, 17.29028
680.8600, 61.21240
682.0160, 28.77612
683.1720, 14.27979
684.3280, 8.399902
685.4840, 40.41821
686.6390, 10.80493
687.7950, 45.90942
688.9500, 29.41675
690.1050, 67.81494
691.2600, 41.30518
692.4150, 0.8740230
693.5690, 0.4992680
694.7240, 12.81934
695.8780, 3.696533
697.0320, 8.222656
698.1860, 29.53198
699.3400, 13.43848
700.4930, 17.40723
701.6470, 72.43970
702.8000, 9.565186
703.9530, 18.74976
705.1060, 78.99805
706.2590, 16.65820
707.4110, 5.731201
708.5640, 27.82373
709.7160, 49.66357
710.8680, 32.22925
712.0200, 27.13599
713.1720, 42.45996
714.3230, 64.74561
715.4750, 74.99854
716.6260, 23.21802
717.7770, 35.39966
718.9280, 18.54395
720.0790, 31.64966
721.2300, 8.727295
722.3800, 27.76465
723.5300, 4.229004
724.6810, 33.26245
725.8300, 24.63989
726.9800, 0.5083010
728.1300, 6.669434
729.2790, 37.10303
730.4290, 58.83911
731.5780, 4.458984
732.7270, 4.804199
733.8760, 75.80347
735.0240, 33.37866
736.1730, 99.91821
737.3210, 59.42578
738.4700, 35.90063
739.6180, 44.34033
740.7650, 40.73169
741.9130, 113.1191
743.0610, 83.46118
744.2080, 83.77173
745.3550, 125.0518
746.5020, 105.3025
747.6490, 114.5234
748.7960, 135.7148
749.9430, 186.8772
751.0890, 189.0107
752.2350, 188.1157
753.3810, 230.1924
754.5270, 228.2410
755.6730, 273.2615
756.8190, 216.2542
757.9640, 259.2188
759.1090, 288.1558
760.2540, 351.0654
761.3990, 318.9480
762.5440, 349.8035
763.6890, 354.6318
764.8330, 457.4336
765.9780, 516.2087
767.1220, 602.9575
768.2660, 677.6804
769.4100, 754.3772
770.5530, 829.0483
771.6970, 869.6938
772.8400, 1026.313
773.9830, 1072.911
775.1260, 1109.483
776.2690, 1024.030
777.4120, 1070.553
778.5540, 1021.051
779.6970, 951.5254
780.8390, 884.9785
781.9810, 756.4111
783.1230, 756.8208
784.2650, 729.2075
785.4060, 740.5715
786.5480, 730.9128
787.6890, 669.0640
788.8300, 686.6152
789.9710, 663.9358
791.1120, 663.5256
792.2520, 676.9304
793.3930, 720.0132
794.5330, 783.5593
795.6730, 783.5906
796.8130, 843.4241
797.9530, 843.6411
799.0930, 919.1658
800.2320, 1015.950
801.3710, 1129.394
802.5110, 1255.186
803.6500, 1417.596
804.7880, 1579.567
805.9270, 1771.131
807.0660, 2020.549
808.2040, 2274.721
809.3420, 2501.465
810.4800, 2889.662
811.6180, 3223.253
812.7560, 3583.984
813.8930, 3907.230
815.0310, 4262.672
816.1680, 4681.292
817.3050, 5038.984
818.4420, 5368.913
819.5790, 5935.029
820.7150, 6379.895
821.8520, 6637.128
822.9880, 7121.542
824.1240, 7255.622
825.2600, 7339.132
826.3960, 7295.068
827.5320, 7156.609
828.6670, 6912.835
829.8020, 6767.607
830.9380, 6399.433
832.0730, 6263.015
833.2080, 6057.154
834.3420, 5950.563
835.4770, 5648.660
836.6110, 5714.787
837.7450, 5406.700
838.8790, 5291.189
840.0130, 5388.646
841.1470, 5236.560
842.2810, 5333.721
843.4140, 5271.652
844.5470, 5404.496
845.6800, 5458.804
846.8130, 5469.989
847.9460, 5600.311
849.0790, 5636.682
850.2110, 5783.366
851.3440, 5897.333
852.4760, 5936.374
853.6080, 5994.733
854.7400, 6303.353
855.8710, 6425.635
857.0030, 6581.216
858.1340, 6892.270
859.2650, 7248.811
860.3960, 7739.312
861.5270, 8068.030
862.6580, 8797.561
863.7890, 9583.459
864.9190, 10397.97
866.0490, 11760.75
867.1790, 13427.76
868.3090, 15171.54
869.4390, 17769.35
870.5690, 20518.48
871.6980, 24097.28
872.8270, 28466.53
873.9570, 33040.61
875.0860, 38155.51
876.2140, 43153.48
877.3430, 47571.45
878.4720, 50691.80
879.6000, 52455.04
880.7280, 52303.26
881.8560, 49415.66
882.9840, 45784.01
884.1120, 40689.42
885.2390, 35206.82
886.3670, 30040.26
887.4940, 25530.69
888.6210, 21394.13
889.7480, 17914.58
890.8750, 15214.04
892.0020, 12713.51
893.1280, 11055.99
894.2540, 9473.473
895.3810, 8337.968
896.5070, 7350.467
897.6320, 6643.978
898.7580, 5967.497
899.8840, 5385.026
901.0090, 5036.563
902.1340, 4623.110
903.2590, 4425.666
904.3840, 4112.232
905.5090, 4007.809
906.6340, 3800.394
907.7580, 3582.988
908.8820, 3374.012
910.0060, 3259.628
911.1300, 2963.254
912.2540, 2960.890
913.3780, 2736.536
914.5010, 2533.193
915.6250, 2514.476
916.7480, 2357.682
917.8710, 2242.540
918.9940, 2089.277
920.1160, 1994.144
921.2390, 1940.893
922.3610, 1835.777
923.4840, 1704.705
924.6060, 1588.737
925.7280, 1554.074
926.8490, 1473.850
927.9710, 1479.542
929.0930, 1363.785
930.2140, 1278.230
931.3350, 1337.975
932.4560, 1130.540
933.5770, 1130.716
934.6980, 1150.245
935.8180, 1012.859
936.9380, 1045.163
938.0590, 1139.434
939.1790, 1154.917
940.2990, 1111.788
941.4180, 1223.802
942.5380, 1197.705
943.6570, 1207.204
944.7770, 1286.448
945.8960, 1330.258
947.0150, 1254.795
948.1340, 1147.428
949.2520, 1192.129
950.3710, 1208.735
951.4890, 1164.265
952.6070, 976.8188
953.7260, 919.4089
954.8430, 725.0129
955.9610, 705.6404
957.0790, 612.2908
958.1960, 551.9531
959.3130, 494.6382
960.4310, 434.9922
961.5480, 403.1333
962.6640, 376.3840
963.7810, 358.7375
964.8970, 360.3748
966.0140, 346.1523
967.1300, 361.8394
968.2460, 398.1560
969.3620, 450.6636
970.4780, 527.5068
971.5930, 615.4717
972.7090, 745.7368
973.8240, 784.0200
974.9390, 896.8513
976.0540, 1004.304
977.1690, 1049.717
978.2830, 1234.933
979.3980, 1319.278
980.5120, 1277.433
981.6260, 1449.840
982.7400, 1479.694
983.8540, 1479.457
984.9680, 1670.873
986.0820, 1632.336
987.1950, 1751.869
988.3080, 1683.211
989.4210, 1740.684
990.5340, 1788.917
991.6470, 1833.343
992.7600, 1820.893
993.8720, 1831.394
994.9850, 1817.760
996.0970, 1875.131
997.2090, 1950.662
998.3210, 2024.004
999.4320, 2105.504
1000.544, 2235.098
1001.655, 2216.923
1002.767, 2322.271
1003.878, 2538.685
1004.989, 2514.976
1006.100, 2588.399
1007.210, 2556.696
1008.321, 2541.994
1009.431, 2378.295
1010.541, 2170.599
1011.651, 1824.906
1012.761, 1574.213
1013.871, 1330.523
1014.980, 1079.834
1016.090, 869.1465
1017.199, 730.4612
1018.308, 571.7117
1019.417, 497.0974
1020.526, 393.4180
1021.635, 325.7393
1022.743, 339.0605
1023.852, 270.3818
1024.960, 275.0974
1026.068, 253.0879
1027.176, 287.3525
1028.283, 218.6775
1029.391, 244.0024
1030.498, 226.3279
1031.606, 179.6543
1032.713, 162.9800
1033.820, 187.3049
1034.927, 121.6277
1036.033, 153.9490
1037.140, 136.2771
1038.246, 80.60352
1039.353, 65.92896
1040.459, 28.25928
1041.564, 16.41187
1042.670, 68.90918
1043.776, 41.22754
1044.881, 35.54443
1045.987, 40.85938
1047.092, 63.17212
1048.197, 19.51758
1049.302, 16.21582
1050.406, 7.6660000E-02
1051.511, 27.36353
1052.615, 2.886719
1053.720, 34.16260
1054.824, 6.635254
1055.928, 2.900879
1057.031, 47.59033
1058.135, 67.15991
1059.238, 72.84814
1060.342, 54.31909
1061.445, 61.87402
1062.548, 10.56689
1063.651, 35.23218
1064.754, 30.75635
1065.856, 14.52783
1066.959, 27.20239
1068.061, 74.91016
1069.163, 52.76978
1070.265, 82.59937
1071.367, 52.60596
1072.469, 7.521484
1073.570, 74.40405
1074.671, 23.45435
1075.773, 47.35107
1076.874, 9.478516
1077.975, 17.66821
1079.075, 56.23022
1080.176, 42.06958
1081.276, 32.83716
1082.377, 62.58813
1083.477, 155.1565
1084.577, 270.7122
1085.677, 470.3550
1086.777, 691.8821
1087.876, 663.3950
1088.975, 413.1475
1090.075, 145.6318
1091.174, 103.1023
1092.273, 59.44189
1093.372, 23.04175
1094.470, 27.67993
1095.569, 32.65088
1096.667, 59.04443
1097.765, 44.67920
1098.863, 10.47534
1099.961, 1.695068
1101.059, 11.16333
1102.157, 5.989014
1103.254, 42.97705
1104.351, 14.94092
1105.449, 49.06128
1106.546, 5.953857
1107.642, 1.019531
1108.739, 29.03906
1109.836, 25.13770
1110.932, 42.28076
1112.028, 54.47974
1113.124, 9.742676
1114.220, 4.0771000E-02
1115.316, 22.62891
1116.412, 7.726318
1117.507, 63.87866
1118.603, 49.47290
1119.698, 98.04541
1120.793, 69.59839
1121.888, 130.1294
1122.983, 86.63965
1124.077, 60.12769
1125.172, 74.59180
1126.266, 111.0327
1127.360, 88.45142
1128.454, 106.8462
1129.548, 128.2178
1130.642, 94.56860
1131.735, 73.89697
1132.829, 38.19946
1133.922, 138.4758
1135.015, 125.7292
1136.108, 188.9600
1137.201, 127.1675
1138.294, 208.3508
1139.386, 263.5112
1140.478, 211.6487
1141.571, 284.7625
1142.663, 192.9922
1143.755, 314.1611
1144.846, 277.4595
1145.938, 362.6929
1147.030, 295.9570
1148.121, 328.6323
1149.212, 303.1292
1150.303, 327.6506
1151.394, 337.0525
1152.485, 386.3618
1153.575, 361.4846
1154.666, 367.5874
1155.756, 367.8301
1156.846, 278.5579
1157.936, 354.7817
1159.026, 326.1143
1160.116, 260.2402
1161.205, 295.4951
1162.295, 358.0164
1163.384, 320.0073
1164.473, 242.1064
1165.562, 380.8108
1166.651, 262.7756
1167.739, 290.5598
1168.828, 312.4548
1169.916, 226.4836
1171.005, 286.0879
1172.093, 330.9014
1173.181, 249.2517
1174.268, 310.9868
1175.356, 244.9856
1176.443, 261.0469
1177.531, 248.8459
1178.618, 233.7175
1179.705, 228.1548
1180.792, 289.2327
1181.879, 261.8181
1182.965, 142.2317
1184.052, 224.5645
1185.138, 153.1521
1186.224, 226.4529
1187.310, 142.7390
1188.396, 153.8840
1189.482, 170.7913
1190.567, 106.0762
1191.653, 144.6682
1192.738, 110.2068
1193.823, 128.4248
1194.908, 87.40479
1195.993, 126.8098
1197.077, 128.9104
1198.162, 117.5076
1199.246, 138.5054
1200.331, 120.4329
1201.415, 145.3059
1202.499, 112.3442
1203.582, 100.8699
1204.666, 124.8538
1205.750, 80.66455
1206.833, 124.3391
1207.916, 134.0479
1208.999, 106.2188
1210.082, 117.8923
1211.165, 132.5356
1212.248, 133.5669
1213.330, 190.2063
1214.412, 174.6121
1215.495, 150.7927
1216.577, 198.0884
1217.658, 243.3127
1218.740, 115.4575
1219.822, 201.8647
1220.903, 185.2258
1221.985, 198.6245
1223.066, 175.2402
1224.147, 233.7988
1225.228, 168.7278
1226.308, 271.5156
1227.389, 139.3096
1228.469, 244.9983
1229.550, 164.0669
1230.630, 181.0398
1231.710, 190.1545
1232.790, 274.3542
1233.869, 176.3906
1234.949, 239.0750
1236.028, 217.3003
1237.108, 282.9849
1238.187, 221.4688
1239.266, 215.9302
1240.344, 231.1404
1241.423, 171.7546
1242.502, 192.2996
1243.580, 228.8752
1244.658, 226.5967
1245.736, 309.9653
1246.814, 208.5398
1247.892, 302.5149
1248.970, 260.1135
1250.047, 243.9663
1251.125, 235.4360
1252.202, 292.9299
1253.279, 301.3254
1254.356, 299.3799
1255.433, 342.5693
1256.509, 328.4177
1257.586, 340.8867
1258.662, 314.1123
1259.738, 323.7285
1260.814, 298.1318
1261.890, 238.8098
1262.966, 261.8303
1264.042, 315.9807
1265.117, 243.3010
1266.193, 264.2422
1267.268, 257.2024
1268.343, 199.4197
1269.418, 172.4036
1270.492, 180.4402
1271.567, 123.3699
1272.642, 132.4563
1273.716, 97.32446
1274.790, 107.0498
1275.864, 93.97363
1276.938, 17.85254
1278.012, 34.44092
1279.085, 28.59961
1280.159, 39.88037
1281.232, 53.75586
1282.305, 92.38135
1283.378, 90.92090
1284.451, 51.34473
1285.524, 4.995117
1286.597, 43.33789
1287.669, 26.71094
1288.741, 54.28564
1289.813, 29.77783
1290.885, 6.994141
1291.957, 67.37305
1293.029, 38.73730
1294.101, 123.2002
1295.172, 54.29150
1296.243, 17.56641
1297.315, 57.44775
1298.386, 30.45703
1299.456, 16.29688
1300.527, 56.74414
1301.598, 60.84521
1302.668, 61.99121
1303.738, 17.91699
1304.809, 10.92822
1305.879, 33.83936
1306.948, 21.55859
1308.018, 6.261719
1309.088, 50.92676
1310.157, 24.55371
1311.226, 73.14844
1312.296, 56.61475
1313.365, 30.14746
1314.433, 50.56201
1315.502, 40.10156
1316.571, 44.26221
1317.639, 32.50391
1318.707, 65.81885
1319.776, 24.86768
1320.844, 126.0728
1321.911, 169.5723
1322.979, 138.6860
1324.047, 82.61865
1325.114, 24.70264
1326.181, 47.76758
1327.249, 84.81250
1328.316, 20.91309
1329.382, 169.9385
1330.449, 6.087402
1331.516, 34.09473
1332.582, 41.03271
1333.648, 163.0981
1334.715, 44.94824
1335.781, 100.9722
1336.846, 95.01855
1337.912, 40.92090
1338.978, 32.83740
1340.043, 77.75732
1341.108, 103.6421
1342.174, 103.5337
1343.239, 160.6650
1344.303, 115.5298
1345.368, 125.4546
1346.433, 137.3511
1347.497, 66.96729
1348.561, 70.81201
1349.626, 54.63037
1350.690, 77.50391
1351.753, 141.2881
1352.817, 8.057129
1353.881, 95.80273
1354.944, 9.530762
1356.007, 13.86426
1357.071, 120.8857
1358.134, 70.65527
1359.196, 66.35107
1360.259, 44.99805
1361.322, 23.21289
1362.384, 6.566895
1363.447, 1.024414
1364.509, 79.36182
1365.571, 64.16211
1366.633, 21.33203
1367.694, 3.568848
1368.756, 54.19775
1369.817, 111.7690
1370.879, 7.486816
1371.940, 1.041504
1373.001, 31.11865
1374.062, 45.67432
1375.122, 28.93604
1376.183, 23.42139
1377.244, 16.85156
1378.304, 41.25244
1379.364, 81.54541
1380.424, 53.81104
1381.484, 101.2051
1382.544, 75.42432
1383.603, 82.62158
1384.663, 83.79590
1385.722, 101.9487
1386.781, 23.07959
1387.840, 27.18652
1388.899, 170.2695
1389.958, 28.42334
1391.017, 86.46631
1392.075, 37.48779
1393.134, 139.4878
1394.192, 97.66748
1395.250, 60.62842
1396.308, 109.5664
1397.365, 90.48486
1398.423, 109.3838
1399.481, 65.12158
1400.538, 0.1230470
1401.595, 137.4565
1402.652, 83.18164
1403.709, 86.70850
1404.766, 153.7725
1405.823, 66.59717
1406.879, 175.6147
1407.936, 58.72070
1408.992, 110.9771
1410.048, 124.2466
1411.104, 144.4854
1412.160, 82.53711
1413.215, 157.0552
1414.271, 132.0278
1415.326, 75.84131
1416.382, 87.90430
1417.437, 151.7607
1418.492, 98.38477
1419.546, 94.33350
1420.601, 63.12109
1421.656, 217.2471
1422.710, 125.0586
1423.764, 174.9443
1424.819, 135.6616
1425.873, 71.19189
1426.926, 107.0923
1427.980, 85.07861
1429.034, 67.34570
1430.087, 113.8833
1431.140, 85.24121
1432.194, 100.4463
1433.247, 139.8633
1434.299, 134.0801
1435.352, 135.1011
1436.405, 138.3179
1437.457, 151.2905
1438.510, 101.3711
1439.562, 148.2324
1440.614, 108.5347
1441.666, 178.8618
1442.717, 131.1870
1443.769, 241.6772
1444.821, 144.8184
1445.872, 203.0654
1446.923, 193.4634
1447.974, 41.92529
1449.025, 284.5986
1450.076, 236.1753
1451.127, 176.5127
1452.177, 269.7729
1453.227, 124.8462
1454.278, 269.3799
1455.328, 317.1685
1456.378, 180.9224
1457.428, 166.0493
1458.477, 238.1162
1459.527, 131.0244
1460.576, 176.6924
1461.625, 178.1558
1462.675, 236.0947
1463.724, 210.3203
1464.772, 218.1680
1465.821, 238.8594
1466.870, 222.3774
1467.918, 154.1255
1468.966, 269.3213
1470.015, 238.2319
1471.063, 266.6997
1472.110, 139.2056
1473.158, 187.3413
1474.206, 174.6655
1475.253, 228.8872
1476.301, 95.65918
1477.348, 130.7222
1478.395, 146.3633
1479.442, 270.3828
1480.488, 201.3105
1481.535, 196.4517
1482.582, 103.3882
1483.628, 92.21191
1484.674, 105.0156
1485.720, 136.0635
1486.766, 73.02148
1487.812, 103.1372
1488.858, 240.1714
1489.903, 99.55908
1490.949, 121.1196
1491.994, 142.2310
1493.039, 29.69482
1494.084, 72.95166
1495.129, 85.31641
1496.173, 4.054688
1497.218, 169.3770
1498.262, 74.87646
1499.307, 72.18213
1500.351, 119.4966
1501.395, 121.8623
1502.439, 84.94873
1503.483, 86.06934
1504.526, 106.3398
1505.570, 110.5894
1506.613, 69.85449
1507.656, 161.0078
1508.699, 109.1113
1509.742, 227.0718
1510.785, 147.0596
1511.827, 159.9932
1512.870, 129.8428
1513.912, 108.7217
1514.955, 82.63574
1515.997, 175.7236
1517.039, 113.8452
1518.080, 144.3379
1519.122, 56.27979
1520.164, 158.5220
1521.205, 173.5352
1522.246, 190.7974
1523.288, 214.3120
1524.329, 120.9658
1525.369, 190.1875
1526.410, 126.8677
1527.451, 75.02344
1528.491, 130.3574
1529.531, 169.6836
1530.572, 5.086426
1531.612, 94.34229
1532.652, 78.21875
1533.691, 52.22314
1534.731, 109.1431
1535.770, 84.72119
1536.810, 121.5537
1537.849, 120.9932
1538.888, 148.0205
1539.927, 126.5034
1540.966, 55.32471
1542.005, 59.89648
1543.043, 39.36963
1544.082, 83.65479
1545.120, 120.7349
1546.158, 99.74658
1547.196, 177.3022
1548.234, 63.91016
1549.272, 83.77197
1550.309, 165.5786
1551.347, 93.17041
1552.384, 74.50928
1553.421, 56.77344
1554.458, 6.519531
1555.495, 27.56982
1556.532, 34.06934
1557.568, 32.20605
1558.605, 119.0981
1559.641, 5.116699
1560.678, 104.3232
1561.714, 8.287598
1562.750, 107.8174
1563.785, 0.0000000E+00
##END=



