##NAMES=Gypsum
##RRUFFID=R060509
##IDEAL CHEMISTRY=CaS^6+^O_4_&#183;2H_2_O
##LOCALITY=Pierre Shale, Hermosa, Custer County, South Dakota, USA
##OWNER=RRUFF
##SOURCE=Michael Scott
##DESCRIPTION=Colorless tabular single crystal
##STATUS=The identification of this mineral has been confirmed by X-ray diffraction and chemical analysis
##URL=rruff.info/R060509
##PIN_ID=L01293
##ORIENTATION=Laser parallel to b* (0 1 0). Fiducial mark perpendicular to laser is parallel to c [0 0 1]
165.7710, 0.0000000E+00
167.0050, 39.05542
168.2380, 20.68628
169.4720, 75.02490
170.7050, 87.76782
171.9380, 165.5532
173.1700, 276.7087
174.4030, 190.9885
175.6350, 333.4458
176.8680, 405.0520
178.1000, 414.5867
179.3310, 494.4597
180.5630, 531.2944
181.7940, 591.7505
183.0260, 525.3037
184.2570, 473.1047
185.4870, 352.6145
186.7180, 299.7869
187.9480, 168.5291
189.1790, 98.51343
190.4090, 105.6929
191.6390, 50.13525
192.8680, 39.67920
194.0980, 4.777588
195.3270, 22.98975
196.5560, 67.98071
197.7850, 17.56714
199.0140, 3.103271
200.2420, 60.68994
201.4710, 18.83887
202.6990, 7.738770
203.9270, 110.4768
205.1550, 64.99609
206.3820, 74.86475
207.6090, 57.88940
208.8370, 64.86450
210.0640, 125.2141
211.2900, 135.6023
212.5170, 73.79614
213.7440, 108.1443
214.9700, 42.21362
216.1960, 98.29028
217.4220, 50.91797
218.6470, 34.52686
219.8730, 19.05737
221.0980, 26.20996
222.3230, 44.67798
223.5480, 17.81714
224.7730, 3.636230
225.9970, 24.26782
227.2220, 6.800293
228.4460, 20.99805
229.6700, 43.87720
230.8940, 45.29004
232.1170, 32.11890
233.3400, 58.50708
234.5640, 11.95386
235.7870, 66.07959
237.0100, 11.00757
238.2320, 21.09204
239.4550, 37.11646
240.6770, 32.79639
241.8990, 3.261719
243.1210, 22.70728
244.3420, 36.72192
245.5640, 42.90747
246.7850, 40.50781
248.0060, 7.902344
249.2270, 48.55713
250.4480, 4.514160
251.6690, 36.87573
252.8890, 104.2473
254.1090, 16.17871
255.3290, 103.7961
256.5490, 19.64209
257.7680, 67.67017
258.9880, 92.41699
260.2070, 129.1609
261.4260, 54.89648
262.6450, 31.22388
263.8640, 69.88013
265.0820, 81.77441
266.3000, 82.98950
267.5180, 34.52026
268.7360, 90.90796
269.9540, 62.72119
271.1720, 44.23047
272.3890, 94.28003
273.6060, 37.87720
274.8230, 24.34595
276.0400, 34.81250
277.2560, 9.873291
278.4730, 15.49536
279.6890, 11.83057
280.9050, 3.150146
282.1210, 18.45386
283.3370, 32.75488
284.5520, 51.05054
285.7670, 80.34229
286.9820, 53.63257
288.1970, 77.91772
289.4120, 70.96387
290.6270, 11.47998
291.8410, 56.75586
293.0550, 24.02881
294.2690, 2.294922
295.4830, 55.55005
296.6970, 57.79248
297.9100, 46.02588
299.1230, 57.25684
300.3360, 40.60840
301.5490, 65.71558
302.7620, 20.94092
303.9740, 51.15894
305.1860, 60.37695
306.3990, 67.59521
307.6110, 154.8135
308.8220, 100.0322
310.0340, 150.2527
311.2450, 50.47510
312.4560, 178.2087
313.6670, 89.04932
314.8780, 102.9302
316.0890, 170.8225
317.2990, 114.7092
318.5090, 134.5808
319.7200, 192.4304
320.9290, 100.2524
322.1390, 59.04126
323.3490, 119.7966
324.5580, 39.51831
325.7670, 30.20410
326.9760, 61.84497
328.1850, 15.55249
329.3930, 26.99634
330.6020, 17.51270
331.8100, 43.83496
333.0180, 57.76221
334.2260, 114.6465
335.4340, 129.2234
336.6410, 25.13379
337.8480, 38.57056
339.0550, 14.79199
340.2620, 12.76636
341.4690, 81.47485
342.6760, 48.54980
343.8820, 43.64258
345.0880, 46.82739
346.2940, 90.82373
347.5000, 46.74658
348.7060, 29.41650
349.9110, 100.4565
351.1160, 122.7708
352.3210, 68.53027
353.5260, 114.8655
354.7310, 18.63892
355.9360, 13.16284
357.1400, 30.48169
358.3440, 21.88135
359.5480, 64.74048
360.7520, 6.775146
361.9550, 6.174072
363.1590, 3.324219
364.3620, 87.74146
365.5650, 2.789063
366.7680, 59.53687
367.9710, 40.95459
369.1730, 17.86865
370.3760, 32.91260
371.5780, 19.14746
372.7800, 24.07007
373.9810, 85.26562
375.1830, 47.61670
376.3840, 67.34497
377.5860, 7.379395
378.7870, 26.98511
379.9880, 80.06519
381.1880, 29.81738
382.3890, 41.52515
383.5890, 18.82056
384.7890, 108.1213
385.9890, 44.40063
387.1890, 104.8506
388.3880, 97.05396
389.5880, 117.3513
390.7870, 152.6733
391.9860, 93.98462
393.1850, 174.1221
394.3840, 229.3796
395.5820, 175.5049
396.7800, 272.6819
397.9790, 307.0742
399.1770, 400.0139
400.3740, 493.3416
401.5720, 612.2583
402.7690, 834.5156
403.9670, 1056.841
405.1640, 1365.167
406.3600, 1716.346
407.5570, 2032.357
408.7540, 2421.148
409.9500, 2746.844
411.1460, 3238.115
412.3420, 3715.154
413.5380, 4188.432
414.7330, 4465.615
415.9290, 4534.725
417.1240, 4195.002
418.3190, 3418.058
419.5140, 2710.995
420.7090, 2071.039
421.9030, 1518.676
423.0970, 1135.510
424.2920, 843.2600
425.4860, 664.6494
426.6790, 508.5789
427.8730, 515.6594
429.0660, 377.8362
430.2600, 294.1289
431.4530, 254.3276
432.6460, 235.6250
433.8380, 226.9097
435.0310, 251.8250
436.2230, 186.0610
437.4150, 193.1453
438.6070, 167.7837
439.7990, 136.0559
440.9910, 121.3542
442.1820, 96.61304
443.3730, 131.9304
444.5640, 134.1843
445.7550, 98.54858
446.9460, 64.71704
448.1370, 20.03247
449.3270, 70.39233
450.5170, 81.77588
451.7070, 59.16211
452.8970, 57.55103
454.0870, 68.94263
455.2760, 87.29248
456.4650, 78.68384
457.6550, 47.07153
458.8430, 28.47119
460.0320, 71.86670
461.2210, 78.25879
462.4090, 104.6499
463.5970, 95.03613
464.7850, 130.4189
465.9730, 59.79370
467.1610, 97.17578
468.3480, 73.46069
469.5360, 56.71191
470.7230, 126.0923
471.9100, 164.9912
473.0970, 147.2305
474.2830, 230.0186
475.4700, 117.1558
476.6560, 156.5288
477.8420, 253.9175
479.0280, 208.3044
480.2140, 350.6360
481.3990, 375.9241
482.5850, 500.1011
483.7700, 591.2292
484.9550, 706.6157
486.1400, 792.5217
487.3240, 951.8572
488.5090, 1137.219
489.6930, 1199.634
490.8770, 1334.007
492.0610, 1597.312
493.2450, 1600.739
494.4290, 1644.167
495.6120, 1619.596
496.7950, 1447.027
497.9780, 1193.967
499.1610, 986.2654
500.3440, 854.5957
501.5260, 726.3765
502.7090, 525.8127
503.8910, 429.5723
505.0730, 367.3853
506.2550, 324.5942
507.4360, 273.0391
508.6180, 218.1294
509.7990, 239.5876
510.9800, 159.0144
512.1610, 104.2458
513.3420, 173.6541
514.5230, 100.0105
515.7030, 59.39551
516.8830, 66.87573
518.0630, 80.35815
519.2430, 119.8594
520.4230, 97.93286
521.6020, 74.85083
522.7820, 66.36768
523.9610, 119.8489
525.1400, 59.37183
526.3190, 99.83496
527.4970, 98.38550
528.6760, 73.93848
529.8540, 52.49854
531.0320, 73.06152
532.2100, 74.62744
533.3880, 34.19629
534.5660, 49.76807
535.7430, 97.34717
536.9200, 59.92993
538.0970, 85.52026
539.2740, 3.885986
540.4510, 16.71021
541.6270, 126.3110
542.8040, 85.91431
543.9800, 2.521729
545.1560, 98.13550
546.3320, 141.7520
547.5080, 128.3711
548.6830, 154.9934
549.8580, 156.6196
551.0340, 136.1809
552.2090, 82.88110
553.3830, 96.51611
554.5580, 108.1545
555.7320, 102.0706
556.9070, 156.7153
558.0810, 114.5103
559.2550, 135.1609
560.4280, 134.8149
561.6020, 103.4819
562.7750, 198.1440
563.9490, 176.8118
565.1220, 255.4839
566.2950, 185.1611
567.4670, 218.8447
568.6400, 209.0898
569.8120, 277.7808
570.9840, 213.5044
572.1560, 255.2009
573.3280, 254.9001
574.5000, 300.9807
575.6710, 276.6851
576.8430, 304.3933
578.0140, 376.2561
579.1850, 319.7827
580.3560, 417.9634
581.5260, 321.2429
582.6970, 389.7983
583.8670, 405.7639
585.0370, 462.4912
586.2070, 438.2202
587.3770, 454.9507
588.5460, 461.6836
589.7160, 488.4189
590.8850, 474.4612
592.0540, 453.1985
593.2230, 530.9487
594.3920, 476.6892
595.5600, 488.4893
596.7290, 558.2319
597.8970, 557.0684
599.0650, 548.6807
600.2330, 580.4270
601.4000, 615.4004
602.5680, 636.7334
603.7350, 638.4832
604.9020, 661.2336
606.0690, 656.6836
607.2360, 691.2815
608.4030, 717.8923
609.5690, 772.0503
610.7360, 799.8057
611.9020, 868.5623
613.0680, 929.8811
614.2340, 948.9998
615.3990, 1010.772
616.5650, 1054.795
617.7300, 1109.661
618.8950, 1144.448
620.0600, 1120.238
621.2250, 1111.036
622.3890, 1139.861
623.5540, 974.6609
624.7180, 939.6135
625.8820, 799.4214
627.0460, 787.4841
628.2100, 678.5879
629.3730, 629.4087
630.5370, 490.0383
631.7000, 425.8806
632.8630, 377.7012
634.0260, 342.5220
635.1890, 332.3416
636.3510, 239.1614
637.5140, 218.9805
638.6760, 268.8057
639.8380, 227.6355
641.0000, 294.4653
642.1610, 324.3018
643.3230, 286.1379
644.4840, 317.1233
645.6450, 254.9666
646.8060, 265.8103
647.9670, 198.6531
649.1280, 303.4973
650.2880, 255.3406
651.4490, 243.1829
652.6090, 221.0303
653.7690, 228.8770
654.9290, 219.7510
656.0880, 194.8130
657.2480, 198.7000
658.4070, 186.3164
659.5660, 186.2056
660.7250, 185.6208
661.8840, 179.2693
663.0430, 199.1279
664.2010, 177.9854
665.3600, 103.8423
666.5180, 199.6997
667.6760, 237.5559
668.8330, 178.4102
669.9910, 228.2629
671.1480, 216.1143
672.3060, 170.9785
673.4630, 219.8264
674.6200, 172.6726
675.7770, 147.5168
676.9330, 104.3594
678.0900, 142.2002
679.2460, 108.0566
680.4020, 83.89355
681.5580, 139.7283
682.7140, 79.56128
683.8690, 70.10718
685.0250, 28.93579
686.1800, 50.76245
687.3350, 30.58691
688.4900, 20.40894
689.6450, 31.80396
690.7990, 54.04688
691.9540, 28.86230
693.1080, 26.67554
694.2620, 3.513428
695.4160, 26.29199
696.5700, 0.9045410
697.7230, 31.89453
698.8770, 56.69092
700.0300, 18.48511
701.1830, 41.27661
702.3360, 53.06543
703.4890, 39.85205
704.6410, 44.63623
705.7930, 53.41748
706.9460, 5.803711
708.0980, 69.96704
709.2500, 15.73462
710.4010, 36.49927
711.5530, 51.26147
712.7040, 1.979492
713.8560, 29.77295
715.0070, 82.52246
716.1580, 13.73096
717.3080, 39.99756
718.4590, 18.29175
719.6090, 35.60181
720.7590, 7.937012
721.9090, 14.28296
723.0590, 25.35645
724.2090, 39.99292
725.3590, 91.62646
726.5080, 78.25684
727.6570, 25.88428
728.8060, 1.508057
729.9550, 55.12549
731.1040, 23.73975
732.2530, 72.35107
733.4010, 12.95874
734.5490, 28.56250
735.6970, 10.16309
736.8450, 54.24048
737.9930, 39.31958
739.1400, 4.876465
740.2880, 1.572754
741.4350, 47.96948
742.5820, 54.50830
743.7290, 18.95630
744.8760, 29.56055
746.0220, 17.07397
747.1690, 24.41626
748.3150, 32.07202
749.4610, 31.55664
750.6070, 31.96167
751.7530, 3.494141
752.8980, 30.94287
754.0440, 26.61182
755.1890, 13.81030
756.3340, 29.22803
757.4790, 27.64233
758.6240, 53.05273
759.7680, 21.45947
760.9130, 30.86230
762.0570, 8.738525
763.2010, 6.353760
764.3450, 41.98120
765.4890, 26.64087
766.6320, 43.67627
767.7760, 19.01074
768.9190, 22.28296
770.0620, 64.57227
771.2050, 38.85815
772.3480, 87.14014
773.4900, 79.41846
774.6330, 40.69287
775.7750, 29.96338
776.9170, 78.23047
778.0590, 78.49341
779.2010, 36.75269
780.3420, 33.00830
781.4840, 11.25977
782.6250, 75.01562
783.7660, 50.25757
784.9070, 54.32324
786.0480, 28.73071
787.1890, 38.96143
788.3290, 43.18774
789.4690, 36.41089
790.6100, 44.71167
791.7490, 21.28760
792.8890, 45.49805
794.0290, 32.71948
795.1680, 18.37695
796.3080, 105.5759
797.4470, 3.226563
798.5860, 0.5854490
799.7250, 62.59985
800.8630, 108.7810
802.0020, 61.03589
803.1400, 58.60474
804.2780, 58.77393
805.4160, 28.93896
806.5540, 59.10010
807.6920, 84.25708
808.8300, 21.41016
809.9670, 71.55884
811.1040, 132.7041
812.2410, 79.84546
813.3780, 127.9827
814.5150, 53.11597
815.6510, 18.24561
816.7880, 94.37085
817.9240, 67.49219
819.0600, 79.60962
820.1960, 0.7233890
821.3320, 106.8264
822.4670, 120.9290
823.6030, 37.02759
824.7380, 38.12231
825.8730, 30.22583
827.0080, 116.3289
828.1430, 96.42798
829.2770, 72.52832
830.4120, 66.62939
831.5460, 99.45215
832.6800, 106.5459
833.8140, 57.48877
834.9480, 90.57544
836.0810, 76.65869
837.2150, 114.7300
838.3480, 70.80615
839.4810, 75.87891
840.6140, 73.94824
841.7470, 79.12549
842.8800, 137.0774
844.0120, 124.5793
845.1450, 150.6357
846.2770, 191.6594
847.4090, 100.7090
848.5410, 136.7554
849.6720, 73.42017
850.8040, 86.46045
851.9350, 109.4978
853.0660, 147.3794
854.1970, 133.5981
855.3280, 162.1653
856.4590, 178.6326
857.5900, 124.8232
858.7200, 146.6040
859.8500, 165.6221
860.9800, 149.6382
862.1100, 153.4038
863.2400, 144.6804
864.3700, 139.6724
865.4990, 126.3733
866.6280, 143.3779
867.7570, 150.3694
868.8860, 65.37012
870.0150, 92.31006
871.1440, 38.30640
872.2720, 58.20923
873.4010, 90.33472
874.5290, 79.32568
875.6570, 100.0889
876.7850, 38.49170
877.9120, 91.47754
879.0400, 32.46191
880.1670, 125.7458
881.2940, 63.72729
882.4210, 116.6624
883.5480, 28.57886
884.6750, 28.55640
885.8020, 47.53247
886.9280, 43.95264
888.0540, 86.57300
889.1800, 83.20850
890.3060, 90.30371
891.4320, 82.17627
892.5580, 89.14746
893.6830, 67.11621
894.8080, 51.08594
895.9330, 44.02783
897.0580, 42.09863
898.1830, 87.81714
899.3080, 53.78247
900.4320, 51.50781
901.5570, 63.19238
902.6810, 30.15991
903.8050, 11.31860
904.9290, 16.26440
906.0520, 33.23242
907.1760, 10.20068
908.2990, 43.16870
909.4230, 3.137695
910.5460, 67.10693
911.6690, 52.07642
912.7910, 65.04639
913.9140, 24.01685
915.0360, 55.98804
916.1590, 50.95947
917.2810, 12.21509
918.4030, 25.75293
919.5240, 39.72144
920.6460, 75.69067
921.7680, 71.41968
922.8890, 59.63574
924.0100, 36.61157
925.1310, 34.58813
926.2520, 29.43408
927.3730, 1.509521
928.4930, 0.4309080
929.6130, 11.46387
930.7340, 59.45166
931.8540, 11.58325
932.9740, 30.35498
934.0930, 70.42847
935.2130, 36.39233
936.3320, 2.642822
937.4520, 9.677734
938.5710, 38.28467
939.6900, 52.24951
940.8090, 51.21558
941.9270, 55.18311
943.0460, 52.27295
944.1640, 9.107178
945.2820, 34.07886
946.4000, 40.05591
947.5180, 20.03467
948.6360, 97.01636
949.7530, 57.99805
950.8710, 67.93506
951.9880, 82.91992
953.1050, 76.90674
954.2220, 113.8953
955.3390, 69.17041
956.4550, 93.78540
957.5720, 62.78442
958.6880, 99.78516
959.8040, 116.6833
960.9200, 118.3254
962.0360, 180.3315
963.1520, 111.4490
964.2670, 140.3774
965.3820, 162.3892
966.4980, 203.4043
967.6130, 194.4209
968.7280, 261.4409
969.8420, 237.4648
970.9570, 280.4910
972.0710, 306.5220
973.1850, 318.5544
974.3000, 334.5894
975.4140, 407.6331
976.5270, 442.6787
977.6410, 400.7266
978.7540, 503.7795
979.8680, 557.8350
980.9810, 544.8926
982.0940, 743.9526
983.2070, 769.0146
984.3200, 963.0811
985.4320, 1015.150
986.5440, 1219.222
987.6570, 1385.301
988.7690, 1551.395
989.8810, 1762.498
990.9920, 1872.615
992.1040, 2172.738
993.2160, 2266.870
994.3270, 2706.004
995.4380, 3307.141
996.5490, 4257.280
997.6600, 5406.423
998.7710, 7246.568
999.8810, 10709.72
1000.991, 15664.87
1002.102, 20805.16
1003.212, 28644.19
1004.322, 34880.35
1005.431, 43442.51
1006.541, 53193.68
1007.651, 60327.87
1008.760, 60273.06
1009.869, 51866.25
1010.978, 37514.46
1012.087, 24048.66
1013.195, 14800.87
1014.304, 9552.088
1015.412, 6566.308
1016.521, 4688.535
1017.629, 3533.772
1018.737, 2862.013
1019.844, 2366.256
1020.952, 1865.515
1022.059, 1583.778
1023.167, 1237.045
1024.274, 1154.325
1025.381, 1000.609
1026.488, 783.8970
1027.594, 695.1882
1028.701, 640.4834
1029.807, 547.7820
1030.913, 501.0840
1032.019, 465.3945
1033.125, 400.7134
1034.231, 306.0500
1035.337, 300.3999
1036.442, 276.7534
1037.548, 281.1187
1038.653, 176.4878
1039.758, 180.8604
1040.863, 169.2366
1041.967, 148.6165
1043.072, 144.0000
1044.176, 78.38721
1045.280, 28.77808
1046.384, 85.17310
1047.488, 142.5715
1048.592, 76.97388
1049.696, 98.38013
1050.799, 78.28125
1051.903, 96.69556
1053.006, 67.11353
1054.109, 110.5354
1055.212, 12.88843
1056.314, 4.318115
1057.417, 70.75146
1058.519, 101.1890
1059.621, 29.18750
1060.724, 2.367188
1061.826, 18.06714
1062.927, 68.06494
1064.029, 3.520752
1065.130, 12.47461
1066.232, 38.01270
1067.333, 35.44019
1068.434, 5.896973
1069.535, 82.28003
1070.636, 75.34961
1071.736, 68.14160
1072.837, 28.52466
1073.937, 25.00220
1075.037, 69.48364
1076.137, 17.96948
1077.237, 41.45947
1078.337, 10.89771
1079.436, 54.39600
1080.535, 0.8981930
1081.635, 47.40430
1082.734, 51.91455
1083.833, 23.42944
1084.931, 48.94824
1086.030, 33.47095
1087.128, 48.99829
1088.227, 13.46191
1089.325, 32.22070
1090.423, 32.76270
1091.521, 53.69116
1092.618, 13.16553
1093.716, 28.35791
1094.813, 22.11426
1095.911, 18.59253
1097.008, 40.92529
1098.105, 13.44727
1099.202, 56.97290
1100.298, 28.50317
1101.395, 44.61792
1102.491, 21.15601
1103.587, 73.19873
1104.683, 52.74512
1105.779, 26.29565
1106.875, 73.44580
1107.971, 131.0117
1109.066, 32.58179
1110.161, 144.1565
1111.256, 97.73511
1112.351, 118.3176
1113.446, 175.9045
1114.541, 148.4949
1115.636, 226.0938
1116.730, 219.6963
1117.824, 282.3118
1118.918, 289.9314
1120.012, 298.5547
1121.106, 296.1821
1122.200, 416.8130
1123.293, 424.4480
1124.387, 535.0867
1125.480, 522.7292
1126.573, 637.3755
1127.666, 776.2075
1128.759, 842.6809
1129.851, 1121.340
1130.944, 1265.011
1132.036, 1472.684
1133.128, 1866.362
1134.220, 2155.043
1135.312, 2557.728
1136.404, 2874.417
1137.495, 3251.109
1138.587, 3534.805
1139.678, 3677.505
1140.769, 3718.208
1141.860, 3696.916
1142.951, 3414.626
1144.041, 3153.345
1145.132, 2595.068
1146.222, 2203.794
1147.313, 1637.524
1148.403, 1325.258
1149.493, 1149.994
1150.582, 896.7349
1151.672, 782.4790
1152.761, 589.2263
1153.851, 547.9773
1154.940, 450.7317
1156.029, 438.4954
1157.118, 347.3474
1158.207, 311.1179
1159.295, 254.8918
1160.384, 228.6694
1161.472, 164.4502
1162.560, 162.2341
1163.648, 165.0215
1164.736, 190.8120
1165.824, 132.6062
1166.911, 161.4031
1167.999, 144.2036
1169.086, 122.0068
1170.173, 97.81323
1171.260, 128.6228
1172.347, 124.4353
1173.434, 141.2510
1174.520, 120.0703
1175.606, 111.8921
1176.693, 109.0310
1177.779, 65.54517
1178.865, 79.37622
1179.951, 97.21021
1181.036, 57.04761
1182.122, 55.88989
1183.207, 52.73584
1184.292, 25.58447
1185.377, 15.56396
1186.462, 100.2825
1187.547, 47.13184
1188.632, 40.98389
1189.716, 149.8394
1190.800, 25.70410
1191.885, 116.4785
1192.969, 65.34912
1194.052, 23.22485
1195.136, 6.103516
1196.220, 18.44922
1197.303, 4.809326
1198.387, 52.32593
1199.470, 3.218506
1200.553, 35.11475
1201.636, 2.984375
1202.718, 64.91675
1203.801, 86.82129
1204.883, 7.728760
1205.966, 66.63892
1207.048, 20.55200
1208.130, 16.53174
1209.211, 57.37842
1210.293, 64.29199
1211.375, 28.20654
1212.456, 27.12549
1213.537, 51.04736
1214.618, 95.97168
1215.699, 118.8989
1216.780, 91.82886
1217.861, 83.91187
1218.941, 19.77588
1220.022, 43.15186
1221.102, 7.082031
1222.182, 8.120117
1223.262, 53.41797
1224.342, 26.35645
1225.422, 80.18823
1226.501, 45.21387
1227.580, 21.16064
1228.660, 8.110352
1229.739, 2.062744
1230.818, 11.70386
1231.896, 87.97070
1232.975, 10.07397
1234.054, 30.87939
1235.132, 71.83545
1236.210, 29.62280
1237.288, 69.46509
1238.366, 9.414795
1239.444, 41.49268
1240.521, 33.44775
1241.599, 82.40527
1242.676, 106.3691
1243.753, 43.33521
1244.830, 77.26978
1245.907, 61.24170
1246.984, 8.226563
1248.061, 27.20337
1249.137, 41.18213
1250.214, 84.16333
1251.290, 60.14722
1252.366, 84.76587
1253.442, 87.12134
1254.517, 91.11182
1255.593, 62.10474
1256.668, 45.09985
1257.744, 98.46802
1258.819, 24.48120
1259.894, 84.99536
1260.969, 101.0054
1262.044, 58.01733
1263.118, 88.72607
1264.193, 77.04883
1265.267, 90.06738
1266.341, 40.08838
1267.415, 55.11206
1268.489, 142.1382
1269.563, 42.16602
1270.636, 122.1960
1271.710, 40.22827
1272.783, 104.2886
1273.856, 41.32495
1274.929, 89.36377
1276.002, 116.4045
1277.075, 153.4478
1278.147, 33.49316
1279.220, 88.54004
1280.292, 133.5891
1281.364, 75.64014
1282.436, 142.6934
1283.508, 89.74854
1284.580, 67.20190
1285.652, 2.260986
1286.723, 28.32080
1287.794, 17.02222
1288.865, 32.80835
1289.936, 55.51001
1291.007, 68.57642
1292.078, 103.6445
1293.149, 110.3230
1294.219, 118.2197
1295.289, 126.8586
1296.360, 109.9333
1297.430, 105.0095
1298.499, 77.08716
1299.569, 120.1672
1300.639, 81.24878
1301.708, 97.36963
1302.778, 72.45532
1303.847, 150.5415
1304.916, 122.6294
1305.985, 155.7205
1307.053, 106.8130
1308.122, 114.9070
1309.190, 64.00366
1310.259, 104.1045
1311.327, 142.2065
1312.395, 129.3059
1313.463, 149.4075
1314.531, 181.5835
1315.598, 155.6885
1316.666, 56.79565
1317.733, 167.9045
1318.800, 128.0156
1319.867, 25.12842
1320.934, 108.2441
1322.001, 106.3613
1323.067, 120.4807
1324.134, 144.6018
1325.200, 128.7273
1326.266, 61.86304
1327.333, 109.0007
1328.398, 78.14038
1329.464, 90.27588
1330.530, 134.1809
1331.595, 13.32056
1332.661, 93.46191
1333.726, 61.60498
1334.791, 37.75024
1335.856, 15.89722
1336.921, 34.10205
1337.985, 105.2534
1339.050, 84.39673
1340.114, 13.54126
1341.178, 101.6877
1342.242, 48.83643
1343.306, 63.98120
1344.370, 51.11621
1345.434, 17.74707
1346.497, 111.3865
1347.561, 110.3799
1348.624, 73.52002
1349.687, 68.65894
1350.750, 79.80249
1351.813, 58.95068
1352.876, 62.00659
1353.938, 90.25684
1355.000, 59.41919
1356.063, 41.58276
1357.125, 52.74097
1358.187, 114.9009
1359.249, 14.48120
1360.310, 89.64404
1361.372, 6.307861
1362.433, 54.46362
1363.495, 25.37939
1364.556, 1.816650
1365.617, 16.33545
1366.678, 1.510986
1367.738, 29.64331
1368.799, 80.79907
1369.859, 64.76001
1370.920, 41.91821
1371.980, 15.87573
1373.040, 59.36133
1374.100, 32.48071
1375.159, 122.6697
1376.219, 112.8213
1377.278, 17.97412
1378.338, 146.1418
1379.397, 89.29736
1380.456, 47.45386
1381.515, 19.61182
1382.574, 18.77100
1383.632, 4.931396
1384.691, 5.975586
1385.749, 1.054199
1386.807, 24.29614
1387.865, 13.93140
1388.923, 4.088623
1389.981, 7.364990
1391.039, 38.52490
1392.096, 35.68628
1393.154, 73.84937
1394.211, 68.00757
1395.268, 78.38452
1396.325, 54.55298
1397.382, 55.72290
1398.439, 30.89526
1399.495, 15.93042
1400.552, 78.24170
1401.608, 66.55420
1402.664, 51.73145
1403.720, 14.01318
1404.776, 24.18237
1405.832, 12.75244
1406.887, 21.52563
1407.943, 32.75586
1408.998, 35.98511
1410.053, 80.16455
1411.108, 21.65332
1412.163, 74.52197
1413.218, 97.61304
1414.272, 14.76807
1415.327, 34.92212
1416.381, 26.07812
1417.435, 90.23071
1418.489, 60.38525
1419.543, 28.54077
1420.597, 116.6938
1421.651, 69.84448
1422.704, 164.9966
1423.758, 23.15723
1424.811, 42.31396
1425.864, 30.55933
1426.917, 114.7112
1427.970, 3.865479
1429.023, 13.02246
1430.075, 35.22974
1431.128, 35.39502
1432.180, 138.8845
1433.232, 57.05371
1434.284, 117.2300
1435.336, 153.6519
1436.388, 120.4465
1437.439, 190.4587
1438.491, 76.69116
1439.542, 207.9619
1440.593, 245.2434
1441.644, 211.5271
1442.695, 170.8132
1443.746, 247.1016
1444.797, 288.3918
1445.847, 282.6851
1446.898, 205.9800
1447.948, 261.2786
1448.998, 148.5803
1450.048, 137.8848
1451.098, 219.1956
1452.147, 140.5134
1453.197, 287.8340
1454.246, 222.1570
1455.296, 165.1545
1456.345, 185.4766
1457.394, 300.8066
1458.443, 286.1401
1459.491, 185.4766
1460.540, 189.8154
1461.588, 123.1570
1462.637, 110.5081
1463.685, 144.8682
1464.733, 141.0615
1465.781, 91.26392
1466.829, 188.6277
1467.876, 128.9858
1468.924, 167.0715
1469.971, 193.7363
1471.019, 36.05908
1472.066, 85.38403
1473.113, 118.7119
1474.160, 123.0430
1475.206, 209.8335
1476.253, 84.99121
1477.299, 79.28101
1478.346, 108.5723
1479.392, 135.8650
1480.438, 99.15771
1481.484, 85.45215
1482.529, 124.1670
1483.575, 111.4426
1484.620, 105.1689
1485.666, 96.99634
1486.711, 83.27441
1487.756, 92.25195
1488.801, 95.50122
1489.846, 75.75293
1490.891, 81.00586
1491.935, 46.26050
1492.980, 70.51611
1494.024, 59.77344
1495.068, 14.96851
1496.112, 116.2205
1497.156, 19.47705
1498.200, 11.73364
1499.243, 72.98901
1500.287, 55.23535
1501.330, 110.4871
1502.373, 59.74487
1503.416, 30.00000
1504.459, 56.25195
1505.502, 71.50098
1506.545, 49.74561
1507.587, 61.98657
1508.630, 82.22192
1509.672, 0.5346680
1510.714, 7.717529
1511.756, 47.96387
1512.798, 18.79614
1513.840, 40.43726
1514.881, 9.714355
1515.923, 118.9873
1516.964, 81.31567
1518.005, 118.6731
1519.046, 16.02930
1520.087, 15.42676
1521.128, 113.8542
1522.169, 125.2854
1523.209, 65.74243
1524.249, 77.22827
1525.290, 95.72168
1526.330, 11.29175
1527.370, 92.87695
1528.410, 21.47852
1529.449, 53.14062
1530.489, 114.5098
1531.528, 119.7485
1532.568, 33.30981
1533.607, 34.83154
1534.646, 126.4270
1535.685, 74.04419
1536.724, 140.8916
1537.762, 91.94727
1538.801, 48.13965
1539.839, 131.9392
1540.878, 174.3372
1541.916, 111.5398
1542.954, 52.85986
1543.992, 105.1560
1545.029, 115.4731
1546.067, 82.88647
1547.104, 110.1262
1548.142, 52.87866
1549.179, 54.52368
1550.216, 34.52954
1551.253, 84.73608
1552.290, 65.19678
1553.326, 68.77319
1554.363, 52.43750
1555.399, 106.3452
1556.436, 7.227783
1557.472, 170.6589
1558.508, 142.0559
1559.544, 25.09570
1560.579, 0.6113280
1561.615, 104.0308
1562.651, 0.0000000E+00
##END=



