##NAMES=Gypsum
##RRUFFID=R060509
##IDEAL CHEMISTRY=CaS^6+^O_4_&#183;2H_2_O
##LOCALITY=Pierre Shale, Hermosa, Custer County, South Dakota, USA
##OWNER=RRUFF
##SOURCE=Michael Scott
##DESCRIPTION=Colorless tabular single crystal
##STATUS=The identification of this mineral has been confirmed by X-ray diffraction and chemical analysis
##URL=rruff.info/R060509
##PIN_ID=L01683
##ORIENTATION=Laser parallel to c* (0 0 1). Fiducial mark perpendicular to laser is parallel to -a [-1 0 0]
155.8940, 0.0000000E+00
157.1300, 22.25488
158.3650, 1.389404
159.6000, 25.60229
160.8340, 36.55835
162.0690, 106.6072
163.3030, 93.79944
164.5370, 139.6854
165.7710, 165.1549
167.0050, 164.2532
168.2380, 204.8123
169.4720, 188.6761
170.7050, 239.6755
171.9380, 276.7244
173.1700, 323.8076
174.4030, 357.0219
175.6350, 469.6567
176.8680, 554.1989
178.1000, 649.6906
179.3310, 697.2969
180.5630, 737.8835
181.7940, 674.2866
183.0260, 737.2405
184.2570, 555.9427
185.4870, 583.5071
186.7180, 437.7960
187.9480, 308.0258
189.1790, 261.3021
190.4090, 167.7083
191.6390, 115.4429
192.8680, 131.7849
194.0980, 77.65381
195.3270, 92.20239
196.5560, 117.9784
197.7850, 88.08789
199.0140, 89.91272
200.2420, 102.1467
201.4710, 137.4160
202.6990, 115.7714
203.9270, 137.2163
205.1550, 148.9402
206.3820, 143.9966
207.6090, 150.3627
208.8370, 181.7015
210.0640, 188.3003
211.2900, 223.1145
212.5170, 221.9611
213.7440, 216.8037
214.9700, 160.9630
216.1960, 185.9225
217.4220, 125.0698
218.6470, 112.5651
219.8730, 81.93750
221.0980, 102.9225
222.3230, 61.73718
223.5480, 43.01086
224.7730, 89.81396
225.9970, 96.35303
227.2220, 63.10278
228.4460, 31.77625
229.6700, 1.158447
230.8940, 20.36743
232.1170, 25.11658
233.3400, 62.85486
234.5640, 19.57642
235.7870, 34.93799
237.0100, 43.50671
238.2320, 24.06665
239.4550, 33.97949
240.6770, 6.229248
241.8990, 20.87634
243.1210, 26.58276
244.3420, 12.45972
245.5640, 26.72424
246.7850, 14.07544
248.0060, 47.71741
249.2270, 8.509888
250.4480, 4.725098
251.6690, 0.1744380
252.8890, 13.19104
254.1090, 33.12695
255.3290, 18.96387
256.5490, 2.407227
257.7680, 88.54480
258.9880, 49.17847
260.2070, 121.8833
261.4260, 48.01709
262.6450, 93.60364
263.8640, 26.18958
265.0820, 46.94678
266.3000, 22.46802
267.5180, 22.06067
268.7360, 29.38123
269.9540, 22.88379
271.1720, 1.303711
272.3890, 1.294067
273.6060, 20.10364
274.8230, 37.47913
276.0400, 3.849976
277.2560, 41.20300
278.4730, 27.53479
279.6890, 13.13977
280.9050, 8.181152
282.1210, 33.50317
283.3370, 3.172119
284.5520, 12.15515
285.7670, 63.46326
286.9820, 34.76770
288.1970, 34.06311
289.4120, 18.35706
290.6270, 5.650146
291.8410, 4.068604
293.0550, 75.20996
294.2690, 2.513428
295.4830, 37.76538
296.6970, 3.954956
297.9100, 19.32117
299.1230, 36.59595
300.3360, 14.86865
301.5490, 60.14392
302.7620, 58.61890
303.9740, 46.97766
305.1860, 33.22046
306.3990, 56.62891
307.6110, 63.04590
308.8220, 25.46509
310.0340, 14.88074
311.2450, 49.28906
312.4560, 29.68799
313.6670, 60.07373
314.8780, 43.44458
316.0890, 61.79871
317.2990, 35.13550
318.5090, 41.45435
319.7200, 39.75513
320.9290, 12.03723
322.1390, 19.29382
323.3490, 10.52539
324.5580, 45.73181
325.7670, 2.086792
326.9760, 34.06812
328.1850, 74.19849
329.3930, 23.30640
330.6020, 18.39270
331.8100, 17.45764
333.0180, 20.50244
334.2260, 23.52759
335.4340, 36.37268
336.6410, 10.51758
337.8480, 49.48462
339.0550, 44.41394
340.2620, 11.24854
341.4690, 76.03613
342.6760, 1.810303
343.8820, 9.430664
345.0880, 93.29468
346.2940, 0.9953610
347.5000, 54.66821
348.7060, 29.32031
349.9110, 26.94250
351.1160, 40.46143
352.3210, 14.10486
353.5260, 0.6678470
354.7310, 23.22754
355.9360, 21.78345
357.1400, 4.665771
358.3440, 52.85754
359.5480, 13.37085
360.7520, 56.87329
361.9550, 8.370117
363.1590, 13.86475
364.3620, 34.34277
365.5650, 9.208984
366.7680, 52.25879
367.9710, 13.62634
369.1730, 11.89331
370.3760, 59.35327
371.5780, 3.190674
372.7800, 46.17139
373.9810, 26.34082
375.1830, 61.73376
376.3840, 44.80029
377.5860, 74.59155
378.7870, 27.97644
379.9880, 22.15784
381.1880, 1.568237
382.3890, 71.74939
383.5890, 56.90759
384.7890, 55.16663
385.9890, 66.28418
387.1890, 65.42432
388.3880, 120.7881
389.5880, 121.3347
390.7870, 101.5068
391.9860, 159.5845
393.1850, 176.9490
394.3840, 207.9316
395.5820, 178.2476
396.7800, 249.9067
397.9790, 278.7229
399.1770, 355.9946
400.3740, 478.2388
401.5720, 592.6641
402.7690, 782.3562
403.9670, 993.4937
405.1640, 1243.925
406.3600, 1538.290
407.5570, 1862.966
408.7540, 2244.227
409.9500, 2710.806
411.1460, 3256.333
412.3420, 3932.661
413.5380, 4426.977
414.7330, 4825.247
415.9290, 4765.101
417.1240, 4354.814
418.3190, 3689.090
419.5140, 2949.469
420.7090, 2205.527
421.9030, 1635.934
423.0970, 1206.290
424.2920, 951.3904
425.4860, 719.6079
426.6790, 624.0088
427.8730, 515.8003
429.0660, 411.0923
430.2600, 329.5913
431.4530, 303.0237
432.6460, 226.4602
433.8380, 246.8374
435.0310, 176.1204
436.2230, 214.0073
437.4150, 177.5273
438.6070, 128.5552
439.7990, 140.0486
440.9910, 91.02881
442.1820, 154.4590
443.3730, 19.96826
444.5640, 127.4033
445.7550, 109.9580
446.9460, 76.51147
448.1370, 104.0662
449.3270, 121.5881
450.5170, 58.15479
451.7070, 24.72046
452.8970, 42.22705
454.0870, 94.70117
455.2760, 49.28003
456.4650, 51.81689
457.6550, 50.39526
458.8430, 45.97290
460.0320, 76.54932
461.2210, 75.10815
462.4090, 84.68335
463.5970, 87.98755
464.7850, 34.72070
465.9730, 71.21460
467.1610, 54.67236
468.3480, 21.24561
469.5360, 30.54077
470.7230, 33.10474
471.9100, 49.68286
473.0970, 65.20483
474.2830, 58.70776
475.4700, 94.20898
476.6560, 104.7290
477.8420, 54.26416
479.0280, 57.85034
480.2140, 100.3376
481.3990, 128.9280
482.5850, 186.5195
483.7700, 177.0190
484.9550, 217.6140
486.1400, 353.0813
487.3240, 299.0840
488.5090, 395.6846
489.6930, 548.1128
490.8770, 560.7190
492.0610, 717.3245
493.2450, 663.9250
494.4290, 684.0645
495.6120, 697.6284
496.7950, 610.1399
497.9780, 589.7527
499.1610, 475.3652
500.3440, 402.7363
501.5260, 306.3757
502.7090, 263.9702
503.8910, 227.6160
505.0730, 152.2012
506.2550, 116.8357
507.4360, 131.5117
508.6180, 141.7739
509.7990, 153.4565
510.9800, 96.11426
512.1610, 101.7720
513.3420, 30.46631
514.5230, 62.99951
515.7030, 11.70117
516.8830, 29.40771
518.0630, 52.12402
519.2430, 16.85376
520.4230, 59.60571
521.6020, 60.36182
522.7820, 2.868896
523.9610, 53.84473
525.1400, 57.62207
526.3190, 10.40430
527.4970, 55.19067
528.6760, 84.98682
529.8540, 10.21216
531.0320, 23.60913
532.2100, 31.56421
533.3880, 32.27075
534.5660, 22.11084
535.7430, 70.95508
536.9200, 41.80420
538.0970, 2.337646
539.2740, 21.52759
540.4510, 5.403320
541.6270, 7.716797
542.8040, 10.17163
543.9800, 19.06958
545.1560, 0.9711910
546.3320, 36.87671
547.5080, 33.78564
548.6830, 13.29517
549.8580, 36.62476
551.0340, 12.45044
552.2090, 15.52417
553.3830, 89.40381
554.5580, 23.34424
555.7320, 19.28906
556.9070, 3.237549
558.0810, 4.192383
559.2550, 55.15405
560.4280, 67.11987
561.6020, 73.08936
562.7750, 90.41699
563.9490, 70.04224
565.1220, 100.0269
566.2950, 62.02075
567.4670, 72.01904
568.6400, 142.0208
569.8120, 86.02905
570.9840, 76.04126
572.1560, 133.0566
573.3280, 159.0752
574.5000, 112.0974
575.6710, 159.2612
576.8430, 149.2908
578.0140, 217.3262
579.1850, 133.3645
580.3560, 170.4084
581.5260, 150.4551
582.6970, 180.5076
583.8670, 206.5632
585.0370, 195.8262
586.2070, 249.8882
587.3770, 224.9524
588.5460, 236.4717
589.7160, 299.5413
590.8850, 301.7058
592.0540, 265.7808
593.2230, 264.8113
594.3920, 288.7932
595.5600, 283.8770
596.7290, 308.1973
597.8970, 265.2854
599.0650, 288.3757
600.2330, 372.4683
601.4000, 317.5630
602.5680, 397.6597
603.7350, 376.7583
604.9020, 361.8591
606.0690, 363.9624
607.2360, 386.0684
608.4030, 374.1768
609.5690, 420.0447
610.7360, 461.4092
611.9020, 478.7031
613.0680, 511.5613
614.2340, 544.7693
615.3990, 571.9321
616.5650, 613.0420
617.7300, 681.1724
618.8950, 698.3032
620.0600, 694.9419
621.2250, 651.0801
622.3890, 611.2485
623.5540, 571.3899
624.7180, 473.5366
625.8820, 418.6895
627.0460, 332.8452
628.2100, 331.0056
629.3730, 273.1675
630.5370, 244.5156
631.7000, 178.6812
632.8630, 193.8484
634.0260, 151.0164
635.1890, 192.7351
636.3510, 157.9170
637.5140, 207.1055
638.6760, 152.2949
639.8380, 137.6064
641.0000, 156.7998
642.1610, 178.9956
643.3230, 206.1926
644.4840, 125.3906
645.6450, 108.3914
646.8060, 78.59131
647.9670, 113.7922
649.1280, 184.0020
650.2880, 153.2061
651.4490, 126.4106
652.6090, 194.6243
653.7690, 143.8384
654.9290, 219.0537
656.0880, 134.2708
657.2480, 228.7568
658.4070, 152.9749
659.5660, 276.9043
660.7250, 177.1226
661.8840, 276.3408
663.0430, 291.5320
664.2010, 340.7505
665.3600, 362.9692
666.5180, 455.1875
667.6760, 474.4060
668.8330, 590.6243
669.9910, 682.8169
671.1480, 638.0339
672.3060, 660.6025
673.4630, 640.8188
674.6200, 502.0349
675.7770, 374.2500
676.9330, 287.4648
678.0900, 239.7161
679.2460, 190.9292
680.4020, 189.1414
681.5580, 205.2490
682.7140, 169.8171
683.8690, 225.0784
685.0250, 148.2859
686.1800, 117.4932
687.3350, 129.0557
688.4900, 72.03394
689.6450, 115.2371
690.7990, 134.2329
691.9540, 129.1499
693.1080, 34.34912
694.2620, 45.54688
695.4160, 92.74316
696.5700, 117.9377
697.7230, 133.1309
698.8770, 63.32251
700.0300, 89.51245
701.1830, 55.70068
702.3360, 48.88745
703.4890, 31.61401
704.6410, 34.98706
705.7930, 37.97852
706.9460, 46.15771
708.0980, 88.33521
709.2500, 79.51050
710.4010, 21.68384
711.5530, 93.85522
712.7040, 53.02466
713.8560, 2.191895
715.0070, 36.35522
716.1580, 84.51587
717.3080, 74.67505
718.4590, 70.83154
719.6090, 28.98584
720.7590, 121.1675
721.9090, 60.31714
723.0590, 29.53540
724.2090, 59.59009
725.3590, 125.7134
726.5080, 1.165771
727.6570, 27.94824
728.8060, 42.94067
729.9550, 68.14160
731.1040, 8.528564
732.2530, 39.44995
733.4010, 48.59082
734.5490, 3.628662
735.6970, 42.66162
736.8450, 61.69189
737.9930, 51.71924
739.1400, 33.74390
740.2880, 17.76562
741.4350, 48.78418
742.5820, 88.80054
743.7290, 104.8137
744.8760, 42.85498
746.0220, 31.86255
747.1690, 3.672852
748.3150, 5.310791
749.4610, 38.31104
750.6070, 30.29688
751.7530, 31.27979
752.8980, 13.32153
754.0440, 6.702148
755.1890, 20.26221
756.3340, 104.2234
757.4790, 1.181396
758.6240, 104.8809
759.7680, 15.82764
760.9130, 25.77173
762.0570, 29.36182
763.2010, 40.36401
764.3450, 52.43677
765.4890, 51.36621
766.6320, 60.45923
767.7760, 11.21509
768.9190, 67.13208
770.0620, 59.04590
771.2050, 55.95605
772.3480, 13.13721
773.4900, 28.75244
774.6330, 26.66016
775.7750, 91.54224
776.9170, 15.42065
778.0590, 104.2942
779.2010, 88.41235
780.3420, 30.27832
781.4840, 42.14062
782.6250, 64.00098
783.7660, 33.81299
784.9070, 93.62354
786.0480, 25.43018
787.1890, 34.23291
788.3290, 36.03174
789.4690, 36.71094
790.6100, 70.50195
791.7490, 51.28931
792.8890, 89.32349
794.0290, 13.11230
795.1680, 56.89429
796.3080, 13.32788
797.4470, 31.43140
798.5860, 82.18726
799.7250, 31.93896
800.8630, 80.69189
802.0020, 62.44092
803.1400, 75.18579
804.2780, 54.92700
805.4160, 43.66382
806.5540, 51.60327
807.6920, 47.09106
808.8300, 17.78955
809.9670, 99.48022
811.1040, 42.16675
812.2410, 36.84985
813.3780, 91.52905
814.5150, 22.20361
815.6510, 75.87427
816.7880, 64.54053
817.9240, 1.797119
819.0600, 10.85278
820.1960, 22.49561
821.3320, 93.13379
822.4670, 87.76782
823.6030, 7.601807
824.7380, 55.01221
825.8730, 60.62378
827.0080, 112.2310
828.1430, 87.83569
829.2770, 105.4375
830.4120, 59.03540
831.5460, 96.62939
832.6800, 64.22607
833.8140, 97.81909
834.9480, 65.40796
836.0810, 48.99316
837.2150, 121.5745
838.3480, 33.15186
839.4810, 5.725830
840.6140, 71.29077
841.7470, 104.8518
842.8800, 118.4092
844.0120, 43.96265
845.1450, 85.51270
846.2770, 63.05884
847.4090, 55.60132
848.5410, 65.14038
849.6720, 53.67529
850.8040, 134.0684
851.9350, 88.59644
853.0660, 85.12061
854.1970, 32.64136
855.3280, 85.15894
856.4590, 20.67261
857.5900, 53.18213
858.7200, 71.68823
859.8500, 46.98682
860.9800, 72.69531
862.1100, 97.98242
863.2400, 89.02319
864.3700, 74.51294
865.4990, 84.90698
866.6280, 7.390625
867.7570, 15.91626
868.8860, 29.49023
870.0150, 29.96216
871.1440, 105.1968
872.2720, 23.66333
873.4010, 45.12720
874.5290, 17.58862
875.6570, 84.04736
876.7850, 25.50342
877.9120, 101.9568
879.0400, 42.40796
880.1670, 10.85645
881.2940, 32.30200
882.4210, 0.2548830
883.5480, 46.42578
884.6750, 97.61133
885.8020, 29.04297
886.9280, 59.47217
888.0540, 7.898926
889.1800, 16.28442
890.3060, 77.72290
891.4320, 44.14111
892.5580, 78.55859
893.6830, 6.532471
894.8080, 20.87427
895.9330, 10.25049
897.0580, 5.236084
898.1830, 11.95264
899.3080, 3.430176
900.4320, 35.81006
901.5570, 51.18799
902.6810, 60.98022
903.8050, 65.82031
904.9290, 67.12720
906.0520, 69.49805
907.1760, 58.86768
908.2990, 83.69751
909.4230, 12.93579
910.5460, 52.42065
911.6690, 110.7756
912.7910, 38.00854
913.9140, 0.6391600
915.0360, 47.70947
916.1590, 55.05640
917.2810, 31.40234
918.4030, 82.94580
919.5240, 87.36646
920.6460, 33.70972
921.7680, 54.04541
922.8890, 60.38696
924.0100, 30.27222
925.1310, 43.05151
926.2520, 124.3745
927.3730, 2.105713
928.4930, 34.21338
929.6130, 108.2634
930.7340, 22.58130
931.8540, 58.19287
932.9740, 41.66162
934.0930, 53.97803
935.2130, 34.38867
936.3320, 6.704590
937.4520, 54.02295
938.5710, 99.33838
939.6900, 47.65308
940.8090, 12.96802
941.9270, 30.17041
943.0460, 0.7192380
944.1640, 64.06128
945.2820, 48.37573
946.4000, 72.77490
947.5180, 42.08960
948.6360, 40.40454
949.7530, 69.66309
950.8710, 45.98120
951.9880, 82.29980
953.1050, 92.98364
954.2220, 15.58350
955.3390, 108.8516
956.4550, 117.1724
957.5720, 70.49365
958.6880, 97.45874
959.8040, 93.78125
960.9200, 104.1050
962.0360, 146.4294
963.1520, 141.7549
964.2670, 122.0813
965.3820, 156.4092
966.4980, 156.2251
967.6130, 211.5549
968.7280, 223.8853
969.8420, 245.2175
970.9570, 224.5508
972.0710, 253.2644
973.1850, 307.2273
974.3000, 290.0288
975.4140, 308.3733
976.5270, 333.7192
977.6410, 396.0664
978.7540, 422.4150
979.8680, 528.7654
980.9810, 548.9778
982.0940, 631.4702
983.2070, 663.8252
984.3200, 661.1824
985.4320, 802.5422
986.5440, 888.9055
987.6570, 1079.271
988.7690, 1200.638
989.8810, 1325.008
990.9920, 1313.350
992.1040, 1589.722
993.2160, 1780.098
994.3270, 2048.485
995.4380, 2407.874
996.5490, 3122.264
997.6600, 3763.660
998.7710, 5201.058
999.8810, 7331.471
1000.991, 10510.64
1002.102, 14857.05
1003.212, 20045.48
1004.322, 25794.92
1005.431, 33628.37
1006.541, 42808.80
1007.651, 49083.27
1008.760, 49613.71
1009.869, 42346.16
1010.978, 30578.62
1012.087, 19863.08
1013.195, 12445.54
1014.304, 7867.973
1015.412, 5454.439
1016.521, 3853.448
1017.629, 2938.924
1018.737, 2267.404
1019.844, 1800.887
1020.952, 1587.373
1022.059, 1234.800
1023.167, 1073.292
1024.274, 897.7920
1025.381, 905.2947
1026.488, 740.8008
1027.594, 579.5627
1028.701, 565.0776
1029.807, 455.5950
1030.913, 405.4719
1032.019, 360.9373
1033.125, 305.3318
1034.231, 348.8691
1035.337, 252.4106
1036.442, 315.9556
1037.548, 290.5051
1038.653, 160.0581
1039.758, 191.6147
1040.863, 171.1750
1041.967, 93.86328
1043.072, 163.4160
1044.176, 90.99438
1045.280, 143.5764
1046.384, 186.1631
1047.488, 133.5137
1048.592, 198.1162
1049.696, 74.72266
1050.799, 82.33325
1051.903, 4.031982
1053.006, 2.605957
1054.109, 9.709961
1055.212, 93.89429
1056.314, 38.54419
1057.417, 56.31470
1058.519, 37.97607
1059.621, 50.35815
1060.724, 83.05078
1061.826, 32.70605
1062.927, 79.36670
1064.029, 3.1982001E-02
1065.130, 7.287354
1066.232, 68.39600
1067.333, 29.91602
1068.434, 4.766846
1069.535, 0.4536130
1070.636, 97.14526
1071.736, 39.84106
1072.837, 23.54150
1073.937, 0.7534180
1075.037, 10.02661
1076.137, 8.329102
1077.237, 25.42798
1078.337, 4.834717
1079.436, 29.90601
1080.535, 7.654785
1081.635, 35.00171
1082.734, 33.76025
1083.833, 17.52295
1084.931, 32.33276
1086.030, 32.06738
1087.128, 41.85059
1088.227, 56.63867
1089.325, 74.43164
1090.423, 26.22925
1091.521, 70.03735
1092.618, 7.859131
1093.716, 79.68579
1094.813, 44.51709
1095.911, 40.35327
1097.008, 114.1943
1098.105, 37.96021
1099.202, 45.87720
1100.298, 71.71948
1101.395, 60.63721
1102.491, 50.48901
1103.587, 54.34595
1104.683, 31.66016
1105.779, 78.52661
1106.875, 91.40503
1107.971, 16.28809
1109.066, 63.17603
1110.161, 23.06860
1111.256, 150.9661
1112.351, 194.8687
1113.446, 184.7849
1114.541, 230.7056
1115.636, 246.7083
1116.730, 190.6389
1117.824, 286.0527
1118.918, 401.9937
1120.012, 374.9395
1121.106, 520.9009
1122.200, 579.8667
1123.293, 668.8379
1124.387, 758.8135
1125.480, 884.7944
1126.573, 1098.780
1127.666, 1393.770
1128.759, 1793.765
1129.851, 2183.764
1130.944, 2707.769
1132.036, 3233.778
1133.128, 3733.793
1134.220, 4158.813
1135.312, 4414.837
1136.404, 4532.867
1137.495, 4262.901
1138.587, 4025.940
1139.678, 3851.991
1140.769, 3487.047
1141.860, 3145.106
1142.951, 2775.172
1144.041, 2412.241
1145.132, 2108.314
1146.222, 1675.399
1147.313, 1395.489
1148.403, 1164.586
1149.493, 902.6865
1150.582, 820.7925
1151.672, 653.9028
1152.761, 537.0176
1153.851, 504.1375
1154.940, 391.1240
1156.029, 301.3909
1157.118, 283.5244
1158.207, 277.6621
1159.295, 275.8081
1160.384, 170.9585
1161.472, 254.4102
1162.560, 182.5723
1163.648, 154.7437
1164.736, 214.9204
1165.824, 243.1016
1166.911, 208.4966
1167.999, 193.9285
1169.086, 157.6704
1170.173, 78.86938
1171.260, 65.07251
1172.347, 4.720459
1173.434, 149.4900
1174.520, 101.7090
1175.606, 65.93213
1176.693, 150.1597
1177.779, 108.2559
1178.865, 132.4932
1179.951, 104.7344
1181.036, 50.97998
1182.122, 53.22925
1183.207, 76.40576
1184.292, 45.66284
1185.377, 87.92383
1186.462, 52.18848
1187.547, 52.45703
1188.632, 2.356201
1189.716, 44.64062
1190.800, 59.73145
1191.885, 79.02466
1192.969, 69.32202
1194.052, 86.62280
1195.136, 17.77197
1196.220, 79.92871
1197.303, 42.24121
1198.387, 131.4631
1199.470, 125.7830
1200.553, 114.1040
1201.636, 55.43115
1202.718, 13.76245
1203.801, 55.09741
1204.883, 58.42285
1205.966, 35.53101
1207.048, 45.69727
1208.130, 97.04688
1209.211, 21.31592
1210.293, 72.39185
1211.375, 16.24585
1212.456, 41.11401
1213.537, 77.47729
1214.618, 70.84424
1215.699, 41.21387
1216.780, 42.58716
1217.861, 30.96338
1218.941, 35.86865
1220.022, 29.35620
1221.102, 62.11084
1222.182, 35.53442
1223.262, 54.92651
1224.342, 85.32153
1225.422, 6.719238
1226.501, 83.11987
1227.580, 42.52344
1228.660, 29.44214
1229.739, 94.85132
1230.818, 2.737061
1231.896, 7.676758
1232.975, 8.128174
1234.054, 31.45264
1235.132, 109.9568
1236.210, 19.46191
1237.288, 30.87622
1238.366, 93.29321
1239.444, 24.71240
1240.521, 54.13452
1241.599, 4.558838
1242.676, 19.07886
1243.753, 9.235840
1244.830, 2.060303
1245.907, 9.372559
1246.984, 11.19214
1248.061, 23.41479
1249.137, 67.85010
1250.214, 86.81152
1251.290, 101.5886
1252.366, 102.9253
1253.442, 98.13892
1254.517, 86.58569
1255.593, 59.03418
1256.668, 59.48486
1257.744, 78.93848
1258.819, 77.39722
1259.894, 16.85791
1260.969, 41.33276
1262.044, 18.80933
1263.118, 57.28809
1264.193, 57.76880
1265.267, 59.31934
1266.341, 68.90308
1267.415, 7.290039
1268.489, 61.46094
1269.563, 58.95020
1270.636, 41.44116
1271.710, 74.93335
1272.783, 50.42749
1273.856, 53.92334
1274.929, 69.85303
1276.002, 80.35205
1277.075, 81.85254
1278.147, 49.35449
1279.220, 115.8828
1280.292, 54.38745
1281.364, 36.89307
1282.436, 66.39990
1283.508, 49.90845
1284.580, 66.41772
1285.652, 46.92822
1286.723, 11.43994
1287.794, 17.95239
1288.865, 20.46631
1289.936, 20.01831
1291.007, 47.48682
1292.078, 30.99634
1293.149, 8.506348
1294.219, 66.01709
1295.289, 67.52808
1296.360, 153.0564
1297.430, 145.5681
1298.499, 31.16455
1299.569, 63.67651
1300.639, 58.18896
1301.708, 78.58398
1302.778, 111.0962
1303.847, 51.60815
1304.916, 38.12793
1305.985, 27.32788
1307.053, 48.16699
1308.122, 16.71313
1309.190, 26.20630
1310.259, 71.69946
1311.327, 51.19116
1312.395, 25.68115
1313.463, 121.1724
1314.531, 115.6648
1315.598, 164.1558
1316.666, 6.342285
1317.733, 62.14795
1318.800, 38.63550
1319.867, 27.15649
1320.934, 99.65552
1322.001, 50.15723
1323.067, 9.341553
1324.134, 58.24756
1325.200, 43.74805
1326.266, 72.24585
1327.333, 32.74902
1328.398, 95.33423
1329.464, 23.83960
1330.530, 132.3459
1331.595, 75.84277
1332.661, 53.34009
1333.726, 143.8384
1334.791, 153.4502
1335.856, 97.95166
1336.921, 51.58130
1337.985, 5.565918
1339.050, 66.92847
1340.114, 72.82983
1341.178, 51.32568
1342.242, 13.81030
1343.306, 130.2954
1344.370, 85.77979
1345.434, 68.24976
1346.497, 145.7200
1347.561, 19.19067
1348.624, 126.7839
1349.687, 25.74512
1350.750, 16.71704
1351.813, 117.1792
1352.876, 110.6409
1353.938, 116.1023
1355.000, 47.55249
1356.063, 41.00244
1357.125, 71.45898
1358.187, 87.90479
1359.249, 59.27979
1360.310, 11.72485
1361.372, 23.16870
1362.433, 39.15942
1363.495, 10.39795
1364.556, 27.03955
1365.617, 22.47632
1366.678, 112.9124
1367.738, 132.3479
1368.799, 53.78247
1369.859, 25.76660
1370.920, 39.65649
1371.980, 76.07935
1373.040, 93.42383
1374.100, 27.84399
1375.159, 6.784912
1376.219, 78.20312
1377.278, 32.37915
1378.338, 93.26807
1379.397, 57.67334
1380.456, 45.07764
1381.515, 52.48145
1382.574, 39.88354
1383.632, 41.28491
1384.691, 98.94067
1385.749, 47.09155
1386.807, 77.48926
1387.865, 52.80835
1388.923, 47.19800
1389.981, 60.58643
1391.039, 91.15283
1392.096, 18.53955
1393.154, 44.92529
1394.211, 51.30884
1395.268, 16.30811
1396.325, 104.0664
1397.382, 139.4409
1398.439, 133.8145
1399.495, 62.26562
1400.552, 122.7085
1401.608, 11.83032
1402.664, 145.5361
1403.720, 59.90259
1404.776, 128.2688
1405.832, 31.63477
1406.887, 61.00049
1407.943, 111.3662
1408.998, 121.7554
1410.053, 119.1169
1411.108, 101.4785
1412.163, 75.83496
1413.218, 47.17554
1414.272, 54.45312
1415.327, 56.89087
1416.381, 69.39233
1417.435, 65.45044
1418.489, 86.63599
1419.543, 60.88843
1420.597, 52.13062
1421.651, 168.3672
1422.704, 38.59668
1423.758, 76.81812
1424.811, 25.02979
1425.864, 108.2310
1426.917, 80.42432
1427.970, 120.6042
1429.023, 74.71143
1430.075, 75.81714
1431.128, 42.89307
1432.180, 37.11035
1433.232, 85.26855
1434.284, 31.27954
1435.336, 57.30811
1436.388, 64.45117
1437.439, 46.34546
1438.491, 85.98853
1439.542, 114.5190
1440.593, 151.0493
1441.644, 149.8469
1442.695, 43.46924
1443.746, 105.9932
1444.797, 131.6204
1445.847, 41.13428
1446.898, 80.64722
1447.948, 47.15894
1448.998, 125.6697
1450.048, 28.17944
1451.098, 82.68677
1452.147, 126.3843
1453.197, 111.8845
1454.246, 30.38379
1455.296, 117.8828
1456.345, 93.38110
1457.394, 82.48267
1458.443, 124.9548
1459.491, 101.4260
1460.540, 26.89648
1461.588, 135.3665
1462.637, 25.79346
1463.685, 11.27075
1464.733, 92.37256
1465.781, 67.84253
1466.829, 118.3118
1467.876, 131.0479
1468.924, 139.2026
1469.971, 151.2632
1471.019, 162.7302
1472.066, 110.1294
1473.113, 112.5271
1474.160, 23.92407
1475.206, 140.3113
1476.253, 96.67480
1477.299, 69.01831
1478.346, 105.2573
1479.392, 54.59229
1480.438, 104.3945
1481.484, 179.6919
1482.529, 72.98438
1483.575, 108.0354
1484.620, 77.28955
1485.666, 109.4983
1486.711, 98.74170
1487.756, 106.9810
1488.801, 99.37451
1489.846, 96.98608
1490.891, 94.78271
1491.935, 84.89844
1492.980, 81.32715
1494.024, 63.30859
1495.068, 47.37158
1496.112, 100.5850
1497.156, 62.79883
1498.200, 80.93604
1499.243, 70.08252
1500.287, 124.3325
1501.330, 85.59229
1502.373, 62.84766
1503.416, 15.08350
1504.459, 76.33594
1505.502, 138.5366
1506.545, 152.7700
1507.587, 108.7915
1508.630, 72.01514
1509.672, 15.03760
1510.714, 1.115234
1511.756, 84.48193
1512.798, 35.57715
1513.840, 61.42139
1514.881, 60.60986
1515.923, 22.81348
1516.964, 163.0381
1518.005, 138.3340
1519.046, 67.27637
1520.087, 143.5469
1521.128, 111.8120
1522.169, 99.10400
1523.209, 81.42627
1524.249, 41.80957
1525.290, 44.19678
1526.330, 40.32031
1527.370, 81.98633
1528.410, 71.38965
1529.449, 83.73779
1530.489, 128.1606
1531.528, 84.59668
1532.568, 109.3394
1533.607, 58.48584
1534.646, 112.9141
1535.685, 97.35645
1536.724, 105.4492
1537.762, 76.38037
1538.801, 62.84033
1539.839, 19.58740
1540.878, 13.18262
1541.916, 30.41992
1542.954, 5.831055
1543.992, 86.01562
1545.029, 55.12598
1546.067, 97.08984
1547.104, 85.85840
1548.142, 65.38184
1549.179, 95.43604
1550.216, 108.4019
1551.253, 100.9575
1552.290, 44.47559
1553.326, 60.15918
1554.363, 34.04395
1555.399, 84.40723
1556.436, 44.07959
1557.472, 4.797363
1558.508, 129.7891
1559.544, 19.22266
1560.579, 0.2514650
1561.615, 41.18555
1562.651, 0.0000000E+00
##END=



