##NAMES=Gypsum
##RRUFFID=R060509
##IDEAL CHEMISTRY=CaS^6+^O_4_&#183;2H_2_O
##LOCALITY=Pierre Shale, Hermosa, Custer County, South Dakota, USA
##OWNER=RRUFF
##SOURCE=Michael Scott
##DESCRIPTION=Colorless tabular single crystal
##STATUS=The identification of this mineral has been confirmed by X-ray diffraction and chemical analysis
##URL=rruff.info/R060509
##PIN_ID=L01293
##ORIENTATION=Laser parallel to b* (0 1 0). Fiducial mark perpendicular to laser is parallel to c [0 0 1]
158.3650, 0.0000000E+00
159.6000, 0.9511720
160.8340, 38.00073
162.0690, 0.5681150
163.3030, 65.53687
164.5370, 78.80811
165.7710, 107.7720
167.0050, 154.9248
168.2380, 159.9448
169.4720, 225.8293
170.7050, 283.4900
171.9380, 357.7053
173.1700, 443.1934
174.4030, 537.8398
175.6350, 581.7534
176.8680, 606.7725
178.1000, 736.8354
179.3310, 793.3230
180.5630, 902.0991
181.7940, 898.9937
183.0260, 799.2917
184.2570, 691.1594
185.4870, 592.4414
186.7180, 440.3340
187.9480, 365.9028
189.1790, 213.3088
190.4090, 216.0386
191.6390, 107.7920
192.8680, 116.5579
194.0980, 115.1978
195.3270, 82.81494
196.5560, 97.30493
197.7850, 93.95605
199.0140, 77.77026
200.2420, 167.1755
201.4710, 111.7686
202.6990, 215.9412
203.9270, 156.1399
205.1550, 204.5044
206.3820, 204.4119
207.6090, 260.3923
208.8370, 252.6243
210.0640, 326.8433
211.2900, 370.1084
212.5170, 218.8542
213.7440, 269.0625
214.9700, 235.7451
216.1960, 220.7837
217.4220, 139.7095
218.6470, 127.9324
219.8730, 143.1450
221.0980, 132.6008
222.3230, 84.35669
223.5480, 103.4390
224.7730, 40.00195
225.9970, 37.06885
227.2220, 77.97485
228.4460, 83.12036
229.6700, 46.25146
230.8940, 72.37109
232.1170, 77.49023
233.3400, 37.64355
234.5640, 50.83374
235.7870, 66.06104
237.0100, 21.32349
238.2320, 35.38037
239.4550, 18.05322
240.6770, 21.69800
241.8990, 17.68359
243.1210, 37.08813
244.3420, 13.51367
245.5640, 10.95703
246.7850, 26.54785
248.0060, 7.230957
249.2270, 39.15039
250.4480, 18.23804
251.6690, 16.33350
252.8890, 39.10181
254.1090, 35.46069
255.3290, 5.018799
256.5490, 13.27490
257.7680, 64.32495
258.9880, 72.93433
260.2070, 87.54150
261.4260, 66.43921
262.6450, 69.57495
263.8640, 68.07129
265.0820, 45.37085
266.3000, 59.67969
267.5180, 35.15454
268.7360, 13.41553
269.9540, 20.69067
271.1720, 26.93677
272.3890, 17.12476
273.6060, 83.26611
274.8230, 47.39917
276.0400, 7.493164
277.2560, 36.59058
278.4730, 11.64917
279.6890, 18.32935
280.9050, 2.329590
282.1210, 4.663330
283.3370, 51.34033
284.5520, 3.658936
285.7670, 61.65991
286.9820, 19.34180
288.1970, 23.65186
289.4120, 88.64453
290.6270, 23.63208
291.8410, 1.386963
293.0550, 21.57153
294.2690, 1.495361
295.4830, 17.41943
296.6970, 51.32129
297.9100, 76.22827
299.1230, 67.13403
300.3360, 163.0393
301.5490, 84.95142
302.7620, 96.87061
303.9740, 156.7979
305.1860, 224.0354
306.3990, 219.3369
307.6110, 168.7290
308.8220, 197.1592
310.0340, 311.6106
311.2450, 225.0728
312.4560, 237.5369
313.6670, 305.9976
314.8780, 264.4502
316.0890, 307.8906
317.2990, 245.3154
318.5090, 228.7222
319.7200, 230.1086
320.9290, 153.4746
322.1390, 184.8186
323.3490, 129.1399
324.5580, 59.43823
325.7670, 138.7078
326.9760, 116.9468
328.1850, 63.15454
329.3930, 87.32910
330.6020, 45.47290
331.8100, 68.58813
333.0180, 35.67676
334.2260, 78.73926
335.4340, 80.77710
336.6410, 0.7883300
337.8480, 14.76807
339.0550, 1.716553
340.2620, 30.63818
341.4690, 27.53833
342.6760, 43.41284
343.8820, 25.26123
345.0880, 74.00171
346.2940, 25.68237
347.5000, 104.3416
348.7060, 24.94214
349.9110, 76.52271
351.1160, 30.06104
352.3210, 25.45337
353.5260, 64.98022
354.7310, 9.411865
355.9360, 57.84058
357.1400, 52.26685
358.3440, 4.688477
359.5480, 58.09863
360.7520, 2.500000
361.9550, 42.10474
363.1590, 20.26123
364.3620, 33.62036
365.5650, 8.053711
366.7680, 1.775635
367.9710, 18.54126
369.1730, 15.29175
370.3760, 42.37817
371.5780, 49.48462
372.7800, 38.63989
373.9810, 55.59351
375.1830, 45.18262
376.3840, 64.96143
377.5860, 30.13501
378.7870, 13.07178
379.9880, 21.14014
381.1880, 44.28784
382.3890, 26.00513
383.5890, 44.64355
384.7890, 64.39917
385.9890, 23.95557
387.1890, 34.66846
388.3880, 85.69434
389.5880, 96.32788
390.7870, 97.89648
391.9860, 71.28711
393.1850, 135.7539
394.3840, 187.8391
395.5820, 136.8259
396.7800, 237.6553
397.9790, 248.3831
399.1770, 282.4719
400.3740, 387.3896
401.5720, 569.7412
402.7690, 679.9651
403.9670, 834.2283
405.1640, 1140.494
406.3600, 1417.716
407.5570, 1650.954
408.7540, 1944.182
409.9500, 2291.290
411.1460, 2619.466
412.3420, 3170.494
413.5380, 3563.183
414.7330, 3772.075
415.9290, 3795.069
417.1240, 3492.939
418.3190, 2905.195
419.5140, 2297.357
420.7090, 1732.135
421.9030, 1252.272
423.0970, 973.1333
424.2920, 820.3369
425.4860, 480.5808
426.6790, 465.2812
427.8730, 354.5315
429.0660, 311.2527
430.2600, 277.5759
431.4530, 232.9470
432.6460, 213.1265
433.8380, 206.4668
435.0310, 107.6829
436.2230, 67.33325
437.4150, 65.71021
438.6070, 111.2896
439.7990, 94.52466
440.9910, 68.92456
442.1820, 136.3315
443.3730, 48.74585
444.5640, 163.1721
445.7550, 117.6052
446.9460, 99.05005
448.1370, 71.51294
449.3270, 53.98511
450.5170, 38.45972
451.7070, 179.9351
452.8970, 19.41016
454.0870, 152.8850
455.2760, 98.36597
456.4650, 75.84668
457.6550, 126.3279
458.8430, 125.8137
460.0320, 105.2991
461.2210, 169.7849
462.4090, 146.2703
463.5970, 189.7554
464.7850, 299.2412
465.9730, 209.7268
467.1610, 231.2134
468.3480, 302.7012
469.5360, 263.1892
470.7230, 271.6794
471.9100, 353.1704
473.0970, 335.6636
474.2830, 529.1582
475.4700, 569.6533
476.6560, 622.1279
477.8420, 725.6311
479.0280, 846.1353
480.2140, 1022.468
481.3990, 1238.889
482.5850, 1536.247
483.7700, 1893.744
484.9550, 2263.232
486.1400, 2686.768
487.3240, 3090.255
488.5090, 3557.797
489.6930, 3902.294
490.8770, 4421.843
492.0610, 4994.349
493.2450, 5239.904
494.4290, 5276.445
495.6120, 5090.491
496.7950, 4673.060
497.9780, 3933.538
499.1610, 3271.117
500.3440, 2696.700
501.5260, 2195.009
502.7090, 1721.782
503.8910, 1447.273
505.0730, 1114.470
506.2550, 959.0527
507.4360, 892.6707
508.6180, 748.9675
509.7990, 578.4526
510.9800, 502.2527
512.1610, 430.2751
513.3420, 355.5615
514.5230, 338.3015
515.7030, 291.9668
516.8830, 253.6375
518.0630, 249.9387
519.2430, 194.6265
520.4230, 266.3198
521.6020, 259.0032
522.7820, 255.7212
523.9610, 237.4443
525.1400, 215.4912
526.3190, 157.9272
527.4970, 153.6948
528.6760, 171.4810
529.8540, 134.2744
531.0320, 192.0745
532.2100, 138.8821
533.3880, 75.69824
534.5660, 111.5317
535.7430, 124.3735
536.9200, 181.2217
538.0970, 126.0845
539.2740, 130.9548
540.4510, 153.8450
541.6270, 44.74072
542.8040, 118.6477
543.9800, 51.56836
545.1560, 93.49390
546.3320, 119.4246
547.5080, 144.3701
548.6830, 158.3206
549.8580, 81.27637
551.0340, 171.2373
552.2090, 73.20386
553.3830, 165.5032
554.5580, 113.4812
555.7320, 179.4663
556.9070, 175.5164
558.0810, 154.7781
559.2550, 138.7827
560.4280, 95.79175
561.6020, 174.2625
562.7750, 160.2881
563.9490, 202.3188
565.1220, 183.3564
566.2950, 230.4170
567.4670, 219.6453
568.6400, 225.7625
569.8120, 262.8518
570.9840, 273.0005
572.1560, 221.1462
573.3280, 292.2595
574.5000, 269.4089
575.6710, 288.7986
576.8430, 315.9753
578.0140, 246.0100
579.1850, 291.9934
580.3560, 361.8032
581.5260, 332.8936
582.6970, 282.0491
583.8670, 354.5198
585.0370, 326.8821
586.2070, 351.1443
587.3770, 360.6384
588.5460, 422.6099
589.7160, 379.7175
590.8850, 265.3342
592.0540, 438.6272
593.2230, 334.8066
594.3920, 374.9883
595.5600, 430.7358
596.7290, 393.9229
597.8970, 376.2485
599.0650, 397.6082
600.2330, 434.8057
601.4000, 433.0750
602.5680, 504.2732
603.7350, 490.4736
604.9020, 463.7410
606.0690, 544.9700
607.2360, 564.3096
608.4030, 582.6621
609.5690, 653.8735
610.7360, 689.4214
611.9020, 795.6362
613.0680, 803.1216
614.2340, 887.3467
615.3990, 939.5671
616.5650, 977.8364
617.7300, 1075.146
618.8950, 1042.378
620.0600, 1142.179
621.2250, 1036.990
622.3890, 1042.229
623.5540, 1004.965
624.7180, 931.2078
625.8820, 838.4519
627.0460, 775.6968
628.2100, 700.9429
629.3730, 507.1907
630.5370, 509.4397
631.7000, 394.6895
632.8630, 306.9407
634.0260, 307.1926
635.1890, 254.8853
636.3510, 268.3123
637.5140, 195.5740
638.6760, 196.9561
639.8380, 152.2507
641.0000, 134.4954
642.1610, 127.9629
643.3230, 138.0793
644.4840, 176.1147
645.6450, 190.4009
646.8060, 203.6802
647.9670, 223.9834
649.1280, 152.2654
650.2880, 175.5479
651.4490, 117.6206
652.6090, 100.9326
653.7690, 177.2441
654.9290, 173.5437
656.0880, 152.8428
657.2480, 159.1418
658.4070, 127.5396
659.5660, 156.8484
660.7250, 170.1565
661.8840, 182.2166
663.0430, 152.5237
664.2010, 153.8608
665.3600, 142.1675
666.5180, 142.4731
667.6760, 186.1211
668.8330, 123.4263
669.9910, 169.7305
671.1480, 147.0332
672.3060, 161.3347
673.4630, 209.6362
674.6200, 79.93628
675.7770, 148.2390
676.9330, 153.5356
678.0900, 81.83057
679.2460, 79.12402
680.4020, 95.41553
681.5580, 51.70508
682.7140, 56.99243
683.8690, 21.27783
685.0250, 16.71484
686.1800, 56.12207
687.3350, 18.40063
688.4900, 36.67676
689.6450, 56.95020
690.7990, 35.22119
691.9540, 8.510254
693.1080, 23.75195
694.2620, 82.01172
695.4160, 0.7314450
696.5700, 22.47827
697.7230, 39.76074
698.8770, 17.99707
700.0300, 8.769531
701.1830, 50.45605
702.3360, 11.67896
703.4890, 22.89844
704.6410, 10.11499
705.7930, 34.67212
706.9460, 1.518555
708.0980, 16.70557
709.2500, 16.11108
710.4010, 4.059326
711.5530, 24.22583
712.7040, 8.337646
713.8560, 34.45264
715.0070, 4.682861
716.1580, 12.18604
717.3080, 11.06714
718.4590, 7.960205
719.6090, 12.12427
720.7590, 18.22119
721.9090, 1.698242
723.0590, 15.62549
724.2090, 2.432617
725.3590, 17.18994
726.5080, 40.47852
727.6570, 26.47021
728.8060, 2.483398
729.9550, 3.494873
731.1040, 63.46753
732.2530, 27.43579
733.4010, 19.60010
734.5490, 47.34570
735.6970, 4.287354
736.8450, 12.77710
737.9930, 23.14673
739.1400, 8.062744
740.2880, 58.97363
741.4350, 73.87988
742.5820, 9.781982
743.7290, 19.67871
744.8760, 6.570313
746.0220, 6.456299
747.1690, 64.33569
748.3150, 2.210693
749.4610, 52.07764
750.6070, 3.939697
751.7530, 25.79419
752.8980, 27.64380
754.0440, 16.48901
755.1890, 8.100830
756.3340, 36.72461
757.4790, 47.45508
758.6240, 0.3300780
759.7680, 49.10449
760.9130, 1.874023
762.0570, 43.63379
763.2010, 85.38892
764.3450, 82.13867
765.4890, 119.8835
766.6320, 37.62329
767.7760, 70.35791
768.9190, 58.08765
770.0620, 60.81201
771.2050, 81.53149
772.3480, 4.246094
773.4900, 11.95117
774.6330, 36.64917
775.7750, 14.34204
776.9170, 25.02881
778.0590, 4.290283
779.2010, 11.37671
780.3420, 92.40332
781.4840, 2.058105
782.6250, 31.70142
783.7660, 73.33984
784.9070, 27.97217
786.0480, 33.59961
787.1890, 63.22144
788.3290, 16.16235
789.4690, 28.43628
790.6100, 31.02905
791.7490, 60.61621
792.8890, 78.19897
794.0290, 34.77905
795.1680, 4.643066
796.3080, 110.9192
797.4470, 34.47681
798.5860, 30.97168
799.7250, 85.55078
800.8630, 27.26831
802.0020, 73.77954
803.1400, 95.28564
804.2780, 10.21191
805.4160, 36.70337
806.5540, 73.18945
807.6920, 80.67017
808.8300, 105.1450
809.9670, 52.91699
811.1040, 93.38110
812.2410, 33.83984
813.3780, 104.2930
814.5150, 72.74072
815.6510, 122.1826
816.7880, 78.61914
817.9240, 108.0503
819.0600, 77.47583
820.1960, 62.89624
821.3320, 40.31104
822.4670, 22.27954
823.6030, 77.10522
824.7380, 88.48608
825.8730, 59.86133
827.0080, 57.23608
828.1430, 77.60547
829.2770, 69.64258
830.4120, 85.24243
831.5460, 80.35669
832.6800, 106.6487
833.8140, 109.7329
834.9480, 113.0811
836.0810, 108.9839
837.2150, 40.30688
838.3480, 86.64014
839.4810, 61.96875
840.6140, 58.29224
841.7470, 87.60132
842.8800, 57.24316
844.0120, 68.00684
845.1450, 44.31104
846.2770, 73.55811
847.4090, 94.80811
848.5410, 119.0981
849.6720, 66.35303
850.8040, 94.36670
851.9350, 115.5935
853.0660, 56.96533
854.1970, 137.3882
855.3280, 74.98706
856.4590, 143.3062
857.5900, 107.5593
858.7200, 92.49609
859.8500, 66.54126
860.9800, 124.6851
862.1100, 129.5967
863.2400, 87.03003
864.3700, 133.3264
865.4990, 84.11328
866.6280, 67.22314
867.7570, 65.44556
868.8860, 80.66504
870.0150, 24.31763
871.1440, 71.53076
872.2720, 97.60400
873.4010, 6.642822
874.5290, 55.84277
875.6570, 52.97046
876.7850, 57.16821
877.9120, 99.36353
879.0400, 62.49072
880.1670, 99.65625
881.2940, 11.70947
882.4210, 56.75000
883.5480, 33.93091
884.6750, 46.77441
885.8020, 17.95020
886.9280, 79.85498
888.0540, 106.0195
889.1800, 92.18774
890.3060, 22.69360
891.4320, 38.37842
892.5580, 26.52588
893.6830, 27.10547
894.8080, 48.67407
895.9330, 80.81494
897.0580, 32.45825
898.1830, 33.59546
899.3080, 75.73071
900.4320, 101.8640
901.5570, 59.99585
902.6810, 49.12573
903.8050, 68.25366
904.9290, 40.38013
906.0520, 18.50488
907.1760, 58.62842
908.2990, 19.31006
909.4230, 45.26392
910.5460, 29.38257
911.6690, 4.380127
912.7910, 72.46460
913.9140, 14.59839
915.0360, 7.490967
916.1590, 69.61719
917.2810, 95.10840
918.4030, 10.20728
919.5240, 56.31226
920.6460, 53.39282
921.7680, 39.49585
922.8890, 67.59790
924.0100, 33.57837
925.1310, 39.65625
926.2520, 35.75049
927.3730, 9.045410
928.4930, 35.70361
929.6130, 66.54028
930.7340, 73.56055
931.8540, 28.66895
932.9740, 13.77686
934.0930, 80.13232
935.2130, 5.760742
936.3320, 48.31445
937.4520, 9.418457
938.5710, 10.47754
939.6900, 34.28149
940.8090, 40.38135
941.9270, 18.48096
943.0460, 85.58130
944.1640, 8.317871
945.2820, 111.7798
946.4000, 64.87744
947.5180, 40.97095
948.6360, 59.06885
949.7530, 42.16724
950.8710, 74.26538
951.9880, 34.36426
953.1050, 88.46289
954.2220, 69.56201
955.3390, 147.6619
956.4550, 11.76855
957.5720, 101.6560
958.6880, 60.99023
959.8040, 141.1001
960.9200, 78.31763
962.0360, 110.4468
963.1520, 126.5769
964.2670, 148.7092
965.3820, 156.1414
966.4980, 126.2073
967.6130, 166.1230
968.7280, 164.3970
969.8420, 175.5393
970.9570, 234.6826
972.0710, 197.8291
973.1850, 225.9763
974.3000, 228.1245
975.4140, 286.2742
976.5270, 246.4241
977.6410, 354.5850
978.7540, 329.7473
979.8680, 331.9102
980.9810, 395.0796
982.0940, 502.2500
983.2070, 561.4219
984.3200, 645.5955
985.4320, 712.7798
986.5440, 822.1042
987.6570, 917.1572
988.7690, 1061.354
989.8810, 1162.556
990.9920, 1302.764
992.1040, 1425.972
993.2160, 1556.185
994.3270, 1892.404
995.4380, 2088.626
996.5490, 2757.854
997.6600, 3612.102
998.7710, 4906.360
999.8810, 7088.620
1000.991, 10553.89
1002.102, 14839.15
1003.212, 18958.42
1004.322, 23529.69
1005.431, 29243.97
1006.541, 36163.27
1007.651, 40878.54
1008.760, 41363.82
1009.869, 35636.12
1010.978, 25675.41
1012.087, 16464.71
1013.195, 10413.01
1014.304, 6619.312
1015.412, 4651.617
1016.521, 3118.923
1017.629, 2524.232
1018.737, 1922.545
1019.844, 1527.861
1020.952, 1318.180
1022.059, 1015.501
1023.167, 920.8245
1024.274, 706.5806
1025.381, 663.9138
1026.488, 551.2495
1027.594, 563.6030
1028.701, 408.9619
1029.807, 389.3232
1030.913, 412.6895
1032.019, 266.0583
1033.125, 285.4297
1034.231, 272.8037
1035.337, 287.1802
1036.442, 265.5596
1037.548, 216.9412
1038.653, 143.3257
1039.758, 120.7126
1040.863, 131.1025
1041.967, 77.49731
1043.072, 130.8958
1044.176, 40.29663
1045.280, 109.7012
1046.384, 92.10864
1047.488, 3.523193
1048.592, 80.57446
1049.696, 10.99585
1050.799, 100.4229
1051.903, 64.85254
1053.006, 41.28540
1054.109, 55.72095
1055.212, 38.15967
1056.314, 17.39893
1057.417, 8.047363
1058.519, 48.01831
1059.621, 6.529541
1060.724, 13.89111
1061.826, 17.44019
1062.927, 20.00708
1064.029, 69.48950
1065.130, 16.94702
1066.232, 29.40747
1067.333, 58.88281
1068.434, 15.16040
1069.535, 36.64136
1070.636, 41.12549
1071.736, 2.186523
1072.837, 21.67798
1073.937, 54.17261
1075.037, 44.10938
1076.137, 27.36084
1077.237, 50.56177
1078.337, 73.06812
1079.436, 48.57715
1080.535, 75.08960
1081.635, 4.604980
1082.734, 62.12354
1083.833, 45.64478
1084.931, 44.16943
1086.030, 98.69653
1087.128, 34.23682
1088.227, 77.30176
1089.325, 2.161865
1090.423, 6.299805
1091.521, 14.24927
1092.618, 23.03320
1093.716, 8.481445
1094.813, 3.005127
1095.911, 79.57959
1097.008, 4.867432
1098.105, 19.68628
1099.202, 15.75757
1100.298, 22.20605
1101.395, 41.33838
1102.491, 35.89307
1103.587, 51.45044
1104.683, 41.01050
1105.779, 94.57324
1106.875, 87.14233
1107.971, 71.71387
1109.066, 93.28809
1110.161, 155.8652
1111.256, 165.4451
1112.351, 93.02734
1113.446, 194.6121
1114.541, 196.2085
1115.636, 149.8076
1116.730, 207.4141
1117.824, 220.0232
1118.918, 268.6348
1120.012, 273.2490
1121.106, 254.8655
1122.200, 297.4888
1123.293, 326.1143
1124.387, 434.7427
1125.480, 424.3738
1126.573, 463.0100
1127.666, 639.6484
1128.759, 713.2144
1129.851, 818.8574
1130.944, 949.5029
1132.036, 1179.151
1133.128, 1516.801
1134.220, 1673.454
1135.312, 1938.108
1136.404, 2293.765
1137.495, 2420.427
1138.587, 2541.091
1139.678, 2731.758
1140.769, 2664.427
1141.860, 2686.098
1142.951, 2448.771
1144.041, 2271.446
1145.132, 1767.131
1146.222, 1505.817
1147.313, 1228.510
1148.403, 955.2053
1149.493, 823.9023
1150.582, 696.6013
1151.672, 568.3027
1152.761, 489.6895
1153.851, 410.7119
1154.940, 358.4194
1156.029, 314.1357
1157.118, 275.8545
1158.207, 278.5750
1159.295, 164.2974
1160.384, 155.0220
1161.472, 172.7480
1162.560, 123.4761
1163.648, 137.2058
1164.736, 125.9375
1165.824, 60.67505
1166.911, 177.4143
1167.999, 77.15552
1169.086, 106.8984
1170.173, 101.6431
1171.260, 70.38965
1172.347, 128.1416
1173.434, 104.8955
1174.520, 112.7432
1175.606, 74.40845
1176.693, 89.16748
1177.779, 81.92798
1178.865, 68.16992
1179.951, 56.45557
1181.036, 56.22266
1182.122, 58.99170
1183.207, 61.76172
1184.292, 26.53345
1185.377, 60.30688
1186.462, 66.08179
1187.547, 77.19312
1188.632, 25.02905
1189.716, 30.73706
1190.800, 19.68530
1191.885, 16.52515
1192.969, 57.55811
1194.052, 1.319580
1195.136, 45.08203
1196.220, 21.84546
1197.303, 42.61035
1198.387, 19.37695
1199.470, 40.14600
1200.553, 19.91650
1201.636, 9.688232
1202.718, 6.136719
1203.801, 4.364258
1204.883, 1.981689
1205.966, 14.79565
1207.048, 44.57397
1208.130, 52.35547
1209.211, 37.13818
1210.293, 78.92212
1211.375, 62.70703
1212.456, 82.05469
1213.537, 43.28101
1214.618, 89.07007
1215.699, 48.86035
1216.780, 2.651367
1217.861, 24.55664
1218.941, 18.22266
1220.022, 4.057129
1221.102, 56.49683
1222.182, 18.72314
1223.262, 48.05444
1224.342, 23.69116
1225.422, 30.43799
1226.501, 6.185791
1227.580, 76.70361
1228.660, 67.45312
1229.739, 104.4233
1230.818, 57.04248
1231.896, 43.54370
1232.975, 40.29712
1234.054, 33.02026
1235.132, 50.80664
1236.210, 45.37769
1237.288, 74.13477
1238.366, 69.89258
1239.444, 121.6511
1240.521, 65.41089
1241.599, 33.17114
1242.676, 79.93213
1243.753, 114.7634
1244.830, 38.52563
1245.907, 84.39136
1246.984, 56.15649
1248.061, 96.92041
1249.137, 76.69116
1250.214, 66.46240
1251.290, 31.12061
1252.366, 45.46387
1253.442, 111.7263
1254.517, 64.56396
1255.593, 81.82251
1256.668, 84.60205
1257.744, 12.61841
1258.819, 81.15381
1259.894, 99.95874
1260.969, 35.73267
1262.044, 15.50708
1263.118, 62.28247
1264.193, 74.05859
1265.267, 34.83496
1266.341, 50.26587
1267.415, 82.04272
1268.489, 119.9463
1269.563, 140.7241
1270.636, 78.50244
1271.710, 23.28101
1272.783, 73.09106
1273.856, 57.27612
1274.929, 52.09106
1276.002, 127.9404
1277.075, 110.7202
1278.147, 96.50000
1279.220, 90.27979
1280.292, 148.0603
1281.364, 96.84058
1282.436, 38.62109
1283.508, 91.42163
1284.580, 55.20166
1285.652, 23.03198
1286.723, 34.81177
1287.794, 16.58130
1288.865, 75.37036
1289.936, 42.14966
1291.007, 104.9287
1292.078, 172.7073
1293.149, 117.4856
1294.219, 88.20361
1295.289, 80.98145
1296.360, 56.52197
1297.430, 165.5361
1298.499, 72.31274
1299.569, 96.08911
1300.639, 170.7678
1301.708, 118.5432
1302.778, 79.31812
1303.847, 143.0928
1304.916, 76.86670
1305.985, 79.64038
1307.053, 91.41699
1308.122, 90.19409
1309.190, 121.9709
1310.259, 121.6460
1311.327, 152.5229
1312.395, 120.2947
1313.463, 130.0669
1314.531, 93.83911
1315.598, 158.6121
1316.666, 135.3879
1317.733, 60.64258
1318.800, 107.4192
1319.867, 129.0120
1320.934, 45.79297
1322.001, 91.57764
1323.067, 104.3350
1324.134, 165.1206
1325.200, 113.9060
1326.266, 79.69238
1327.333, 89.47900
1328.398, 66.11084
1329.464, 91.05322
1330.530, 74.84082
1331.595, 45.62891
1332.661, 66.41797
1333.726, 20.01685
1334.791, 51.80688
1335.856, 68.59766
1336.921, 107.3799
1337.985, 70.16235
1339.050, 87.94092
1340.114, 57.71997
1341.178, 49.49951
1342.242, 62.30737
1343.306, 80.06958
1344.370, 104.8325
1345.434, 110.5857
1346.497, 129.8120
1347.561, 101.5693
1348.624, 47.01074
1349.687, 96.84668
1350.750, 64.43726
1351.813, 112.2295
1352.876, 54.99121
1353.938, 28.74927
1355.000, 93.50659
1356.063, 39.26538
1357.125, 62.01489
1358.187, 108.7607
1359.249, 25.48877
1360.310, 41.25464
1361.372, 84.99780
1362.433, 43.74097
1363.495, 10.51562
1364.556, 38.22363
1365.617, 35.96313
1366.678, 62.70288
1367.738, 38.43506
1368.799, 116.1672
1369.859, 92.89966
1370.920, 30.37524
1371.980, 89.34058
1373.040, 14.94385
1374.100, 22.76709
1375.159, 53.47778
1376.219, 84.65649
1377.278, 61.36670
1378.338, 10.84229
1379.397, 86.99731
1380.456, 11.70288
1381.515, 12.23804
1382.574, 4.057129
1383.632, 71.81104
1384.691, 49.51245
1385.749, 45.42554
1386.807, 19.12598
1387.865, 53.03735
1388.923, 60.79028
1389.981, 61.63354
1391.039, 111.4373
1392.096, 56.13599
1393.154, 7.165527
1394.211, 38.53003
1395.268, 2.279541
1396.325, 72.03589
1397.382, 121.7302
1398.439, 53.42554
1399.495, 22.16626
1400.552, 19.05225
1401.608, 21.63867
1402.664, 13.66968
1403.720, 101.0183
1404.776, 147.7070
1405.832, 75.39746
1406.887, 96.14502
1407.943, 77.81299
1408.998, 80.48022
1410.053, 27.14575
1411.108, 44.79565
1412.163, 20.44238
1413.218, 85.08618
1414.272, 130.7241
1415.327, 91.35645
1416.381, 47.98853
1417.435, 41.61841
1418.489, 93.24634
1419.543, 42.87158
1420.597, 11.46021
1421.651, 42.15576
1422.704, 120.7693
1423.758, 40.39600
1424.811, 40.00439
1425.864, 85.61279
1426.917, 10.77881
1427.970, 50.82690
1429.023, 57.43433
1430.075, 102.0413
1431.128, 59.65234
1432.180, 67.26562
1433.232, 60.71143
1434.284, 84.49243
1435.336, 50.19922
1436.388, 80.17041
1437.439, 166.3574
1438.491, 122.1323
1439.542, 171.9265
1440.593, 202.7202
1441.644, 220.5210
1442.695, 212.3340
1443.746, 240.1528
1444.797, 222.9724
1445.847, 220.7649
1446.898, 228.9219
1447.948, 204.4314
1448.998, 221.2510
1450.048, 226.0732
1451.098, 197.8953
1452.147, 221.7175
1453.197, 266.5400
1454.246, 273.3625
1455.296, 276.1858
1456.345, 219.0256
1457.394, 257.8701
1458.443, 226.7427
1459.491, 251.6321
1460.540, 218.5234
1461.588, 134.4170
1462.637, 144.1477
1463.685, 198.0237
1464.733, 234.8718
1465.781, 144.7410
1466.829, 189.6128
1467.876, 34.78369
1468.924, 95.17407
1469.971, 109.0046
1471.019, 117.8220
1472.066, 83.43018
1473.113, 109.0662
1474.160, 180.1885
1475.206, 24.97900
1476.253, 162.7290
1477.299, 132.5227
1478.346, 196.3159
1479.392, 152.1394
1480.438, 130.7332
1481.484, 183.5146
1482.529, 167.0806
1483.575, 76.10791
1484.620, 101.8389
1485.666, 79.57007
1486.711, 124.3013
1487.756, 125.9995
1488.801, 65.64819
1489.846, 55.38086
1490.891, 116.1150
1491.935, 80.85132
1492.980, 71.92456
1494.024, 85.63940
1495.068, 102.3555
1496.112, 94.83569
1497.156, 53.09448
1498.200, 87.78882
1499.243, 138.4688
1500.287, 125.1470
1501.330, 22.16797
1502.373, 67.52026
1503.416, 27.20312
1504.459, 14.87988
1505.502, 86.54956
1506.545, 11.78809
1507.587, 73.86670
1508.630, 10.51245
1509.672, 56.14990
1510.714, 15.77734
1511.756, 101.3928
1512.798, 5.994141
1513.840, 36.62842
1514.881, 15.27393
1515.923, 24.83447
1516.964, 123.5508
1518.005, 56.27417
1519.046, 83.01978
1520.087, 38.54053
1521.128, 37.28076
1522.169, 65.04468
1523.209, 54.83691
1524.249, 42.70801
1525.290, 33.58252
1526.330, 63.46436
1527.370, 78.35229
1528.410, 125.2722
1529.449, 72.22754
1530.489, 100.2507
1531.528, 44.29150
1532.568, 64.27979
1533.607, 70.94019
1534.646, 83.23120
1535.685, 89.34888
1536.724, 94.07568
1537.762, 84.32422
1538.801, 108.6489
1539.839, 88.93408
1540.878, 107.4673
1541.916, 102.6599
1542.954, 118.7500
1543.992, 79.86084
1545.029, 46.59717
1546.067, 101.7983
1547.104, 60.88647
1548.142, 55.57764
1549.179, 103.8367
1550.216, 75.35376
1551.253, 87.96875
1552.290, 65.74951
1553.326, 95.61035
1554.363, 126.9768
1555.399, 69.12134
1556.436, 75.26611
1557.472, 3.067139
1558.508, 39.87427
1559.544, 63.30273
1560.579, 103.8276
1561.615, 0.1572270
1562.651, 0.0000000E+00
##END=



