##NAMES=Gypsum
##RRUFFID=R060509
##IDEAL CHEMISTRY=CaS^6+^O_4_&#183;2H_2_O
##LOCALITY=Pierre Shale, Hermosa, Custer County, South Dakota, USA
##OWNER=RRUFF
##SOURCE=Michael Scott
##DESCRIPTION=Colorless tabular single crystal
##STATUS=The identification of this mineral has been confirmed by X-ray diffraction and chemical analysis
##URL=rruff.info/R060509
##PIN_ID=L01423
##ORIENTATION=Laser parallel to (1 0 1). Fiducial mark perpendicular to laser is parallel to b [0 1 0]
155.8940, 0.0000000E+00
157.1300, 34.15137
158.3650, 125.3335
159.6000, 154.3835
160.8340, 232.0591
162.0690, 241.4514
163.3030, 227.3455
164.5370, 233.9946
165.7710, 148.3091
167.0050, 127.8335
168.2380, 111.0498
169.4720, 168.9092
170.7050, 146.2253
171.9380, 228.8987
173.1700, 269.7825
174.4030, 440.1648
175.6350, 474.9465
176.8680, 612.4753
178.1000, 703.3584
179.3310, 725.3821
180.5630, 713.8909
181.7940, 668.9053
183.0260, 592.6240
184.2570, 442.1284
185.4870, 307.7610
186.7180, 215.4275
187.9480, 146.7559
189.1790, 93.78394
190.4090, 30.54663
191.6390, 4.332520
192.8680, 6.437500
194.0980, 15.08594
195.3270, 14.64819
196.5560, 33.34106
197.7850, 63.27222
199.0140, 141.1516
200.2420, 203.5469
201.4710, 261.4287
202.6990, 380.2966
203.9270, 435.2351
205.1550, 586.2515
206.3820, 675.0896
207.6090, 752.6975
208.8370, 849.2002
210.0640, 866.9365
211.2900, 892.8118
212.5170, 887.3052
213.7440, 775.7778
214.9700, 701.1738
216.1960, 584.8442
217.4220, 480.4736
218.6470, 423.4819
219.8730, 366.9246
221.0980, 247.3306
222.3230, 227.1309
223.5480, 214.5740
224.7730, 212.5752
225.9970, 129.3877
227.2220, 147.3481
228.4460, 140.4927
229.6700, 110.6611
230.8940, 124.5342
232.1170, 137.1340
233.3400, 53.92944
234.5640, 78.73145
235.7870, 67.46606
237.0100, 13.26001
238.2320, 9.115234
239.4550, 7.032227
240.6770, 21.99097
241.8990, 35.04468
243.1210, 46.17578
244.3420, 64.70386
245.5640, 31.34448
246.7850, 2.445068
248.0060, 49.38428
249.2270, 34.71704
250.4480, 13.85645
251.6690, 38.92310
252.8890, 40.47266
254.1090, 7.895752
255.3290, 15.38159
256.5490, 6.152344
257.7680, 43.92627
258.9880, 70.30640
260.2070, 33.00317
261.4260, 52.02295
262.6450, 11.05957
263.8640, 41.09814
265.0820, 13.01343
266.3000, 49.90527
267.5180, 32.22754
268.7360, 13.39038
269.9540, 2.588135
271.1720, 4.840088
272.3890, 9.869873
273.6060, 32.44995
274.8230, 41.19165
276.0400, 41.20288
277.2560, 8.352051
278.4730, 36.16553
279.6890, 15.27490
280.9050, 33.64819
282.1210, 5.999512
283.3370, 23.67407
284.5520, 16.62671
285.7670, 16.13086
286.9820, 55.06470
288.1970, 13.78296
289.4120, 62.67749
290.6270, 32.37622
291.8410, 11.39844
293.0550, 64.38501
294.2690, 4.338379
295.4830, 25.26611
296.6970, 83.13477
297.9100, 2.993164
299.1230, 39.83984
300.3360, 13.32080
301.5490, 11.49634
302.7620, 99.10059
303.9740, 32.89551
305.1860, 56.77832
306.3990, 61.70190
307.6110, 59.63867
308.8220, 104.5698
310.0340, 125.4849
311.2450, 128.3755
312.4560, 111.2332
313.6670, 132.0520
314.8780, 153.8291
316.0890, 178.5613
317.2990, 193.2034
318.5090, 208.7061
319.7200, 220.9023
320.9290, 217.2949
322.1390, 222.7505
323.3490, 195.1528
324.5580, 193.4482
325.7670, 123.7922
326.9760, 164.0259
328.1850, 146.2000
329.3930, 117.3149
330.6020, 170.3716
331.8100, 63.36914
333.0180, 114.3069
334.2260, 66.18677
335.4340, 130.0093
336.6410, 114.7766
337.8480, 65.47217
339.0550, 87.09595
340.2620, 176.3157
341.4690, 93.45581
342.6760, 131.9141
343.8820, 78.28174
345.0880, 79.58398
346.2940, 71.83618
347.5000, 126.0142
348.7060, 49.14478
349.9110, 48.20093
351.1160, 127.1440
352.3210, 99.02246
353.5260, 119.8203
354.7310, 68.58545
355.9360, 114.3118
357.1400, 93.00317
358.3440, 142.6099
359.5480, 143.1616
360.7520, 86.65137
361.9550, 31.08130
363.1590, 93.45044
364.3620, 112.7971
365.5650, 161.0894
366.7680, 105.3447
367.9710, 116.5703
369.1730, 98.73828
370.3760, 162.8926
371.5780, 138.8223
372.7800, 141.8152
373.9810, 135.7505
375.1830, 145.5383
376.3840, 121.3811
377.5860, 146.2747
378.7870, 154.6538
379.9880, 171.2664
381.1880, 126.7903
382.3890, 204.2991
383.5890, 111.6443
384.7890, 198.9070
385.9890, 202.2163
387.1890, 191.3955
388.3880, 173.7393
389.5880, 247.2632
390.7870, 246.4062
391.9860, 288.2231
393.1850, 341.6199
394.3840, 394.8315
395.5820, 422.9863
396.7800, 402.2612
397.9790, 492.7620
399.1770, 600.6162
400.3740, 749.4255
401.5720, 934.6841
402.7690, 1119.025
403.9670, 1284.602
405.1640, 1671.826
406.3600, 2138.253
407.5570, 2674.980
408.7540, 3369.320
409.9500, 4119.149
411.1460, 5152.571
412.3420, 6173.771
413.5380, 6606.171
414.7330, 6541.265
415.9290, 5961.238
417.1240, 5151.043
418.3190, 4260.319
419.5140, 3350.698
420.7090, 2513.463
421.9030, 1933.277
423.0970, 1409.400
424.2920, 1105.479
425.4860, 840.8286
426.6790, 657.9136
427.8730, 586.9126
429.0660, 490.0798
430.2600, 397.6021
431.4530, 338.1680
432.6460, 336.8896
433.8380, 205.5701
435.0310, 293.9851
436.2230, 242.1611
437.4150, 157.8018
438.6070, 159.7834
439.7990, 105.1882
440.9910, 149.9304
442.1820, 152.9348
443.3730, 144.5005
444.5640, 75.55518
445.7550, 138.7556
446.9460, 52.59131
448.1370, 46.11108
449.3270, 119.7515
450.5170, 24.40405
451.7070, 121.0403
452.8970, 41.85327
454.0870, 25.74341
455.2760, 35.63159
456.4650, 41.43994
457.6550, 48.31030
458.8430, 50.17163
460.0320, 64.02393
461.2210, 20.13232
462.4090, 2.702148
463.5970, 32.45972
464.7850, 49.36499
465.9730, 54.18188
467.1610, 41.99194
468.3480, 78.71484
469.5360, 53.56274
470.7230, 75.35571
471.9100, 87.14282
473.0970, 40.86157
474.2830, 134.6367
475.4700, 63.11816
476.6560, 171.8076
477.8420, 70.29077
479.0280, 159.0371
480.2140, 277.7156
481.3990, 226.1973
482.5850, 348.7791
483.7700, 508.5544
484.9550, 576.1729
486.1400, 631.9441
487.3240, 805.4983
488.5090, 966.0581
489.6930, 1147.585
490.8770, 1267.339
492.0610, 1468.779
493.2450, 1450.215
494.4290, 1454.989
495.6120, 1358.647
496.7950, 1172.395
497.9780, 1055.931
499.1610, 781.6624
500.3440, 723.3123
501.5260, 582.0957
502.7090, 514.8801
503.8910, 416.5159
505.0730, 324.9221
506.2550, 294.5979
507.4360, 212.3599
508.6180, 204.1560
509.7990, 174.9011
510.9800, 67.69995
512.1610, 94.43262
513.3420, 191.2422
514.5230, 68.06836
515.7030, 144.8982
516.8830, 83.73291
518.0630, 75.57227
519.2430, 83.41943
520.4230, 53.27100
521.6020, 59.33057
522.7820, 28.99316
523.9610, 44.86328
525.1400, 38.74365
526.3190, 12.63501
527.4970, 24.46240
528.6760, 30.44458
529.8540, 7.359375
531.0320, 34.28003
532.2100, 0.2070310
533.3880, 68.14087
534.5660, 31.08813
535.7430, 89.04175
536.9200, 0.9975590
538.0970, 1.979004
539.2740, 17.96240
540.4510, 19.03125
541.6270, 26.98657
542.8040, 28.98682
543.9800, 104.0483
545.1560, 27.10718
546.3320, 74.17114
547.5080, 21.24194
548.6830, 55.31934
549.8580, 63.40576
551.0340, 63.49854
552.2090, 124.6003
553.3830, 42.70825
554.5580, 111.8357
555.7320, 81.97827
556.9070, 133.1328
558.0810, 86.30005
559.2550, 108.4758
560.4280, 122.6711
561.6020, 111.8728
562.7750, 167.0959
563.9490, 132.3284
565.1220, 145.5803
566.2950, 208.8403
567.4670, 245.1062
568.6400, 203.3845
569.8120, 162.6790
570.9840, 195.1965
572.1560, 208.5122
573.3280, 228.8330
574.5000, 197.1675
575.6710, 302.5286
576.8430, 205.8953
578.0140, 285.8955
579.1850, 253.2803
580.3560, 222.6829
581.5260, 329.0918
582.6970, 283.5051
583.8670, 309.1362
585.0370, 267.5620
586.2070, 329.0000
587.3770, 252.4551
588.5460, 250.3101
589.7160, 315.8269
590.8850, 264.7141
592.0540, 278.9583
593.2230, 375.4397
594.3920, 330.1655
595.5600, 402.6545
596.7290, 383.1467
597.8970, 401.9084
599.0650, 435.4084
600.2330, 498.9463
601.4000, 449.4565
602.5680, 431.2964
603.7350, 554.5522
604.9020, 587.7351
606.0690, 615.3252
607.2360, 657.8784
608.4030, 787.1538
609.5690, 813.7405
610.7360, 942.3672
611.9020, 1066.030
613.0680, 1169.632
614.2340, 1287.217
615.3990, 1362.809
616.5650, 1462.301
617.7300, 1535.526
618.8950, 1617.613
620.0600, 1634.265
621.2250, 1610.095
622.3890, 1642.451
623.5540, 1445.207
624.7180, 1311.888
625.8820, 1123.518
627.0460, 973.8396
628.2100, 836.3267
629.3730, 696.2957
630.5370, 579.1296
631.7000, 521.2554
632.8630, 427.9490
634.0260, 349.9321
635.1890, 238.6226
636.3510, 318.3013
637.5140, 251.9985
638.6760, 276.6904
639.8380, 189.4536
641.0000, 221.1455
642.1610, 190.8394
643.3230, 116.5352
644.4840, 82.36255
645.6450, 34.08008
646.8060, 27.45776
647.9670, 118.8342
649.1280, 55.54883
650.2880, 166.3848
651.4490, 227.4216
652.6090, 140.1355
653.7690, 260.9011
654.9290, 223.6272
656.0880, 258.5120
657.2480, 300.2405
658.4070, 293.8020
659.5660, 395.5413
660.7250, 500.2815
661.8840, 716.3042
663.0430, 889.0530
664.2010, 1126.803
665.3600, 1521.553
666.5180, 1868.304
667.6760, 2277.702
668.8330, 2657.454
669.9910, 2838.206
671.1480, 2710.959
672.3060, 2450.708
673.4630, 1972.462
674.6200, 1523.216
675.7770, 1056.969
676.9330, 871.7129
678.0900, 540.5349
679.2460, 482.2888
680.4020, 384.7468
681.5580, 279.5000
682.7140, 232.6907
683.8690, 207.4429
685.0250, 198.1943
686.1800, 155.9456
687.3350, 191.6958
688.4900, 177.4453
689.6450, 159.2009
690.7990, 85.94116
691.9540, 114.6882
693.1080, 97.43335
694.2620, 55.17798
695.4160, 119.9211
696.5700, 59.66284
697.7230, 82.40332
698.8770, 38.14185
700.0300, 60.87915
701.1830, 66.61499
702.3360, 111.3486
703.4890, 53.08008
704.6410, 69.54688
705.7930, 37.53760
706.9460, 41.26294
708.0980, 17.98608
709.2500, 5.292969
710.4010, 17.42334
711.5530, 40.13672
712.7040, 38.84790
713.8560, 74.63037
715.0070, 14.37695
716.1580, 12.81055
717.3080, 38.05981
718.4590, 26.15161
719.6090, 59.83911
720.7590, 54.77588
721.9090, 2.796143
723.0590, 34.87891
724.2090, 60.58716
725.3590, 45.62891
726.5080, 5.707275
727.6570, 2.949463
728.8060, 5.633301
729.9550, 11.71753
731.1040, 28.64307
732.2530, 1.695068
733.4010, 18.92676
734.5490, 23.54468
735.6970, 1.710205
736.8450, 90.89624
737.9930, 13.28027
739.1400, 43.87769
740.2880, 9.529541
741.4350, 39.94092
742.5820, 4.385742
743.7290, 11.82104
744.8760, 38.49756
746.0220, 4.496094
747.1690, 27.06763
748.3150, 18.64795
749.4610, 11.16382
750.6070, 26.87598
751.7530, 69.17871
752.8980, 47.58813
754.0440, 54.08179
755.1890, 81.59985
756.3340, 34.42944
757.4790, 25.09375
758.6240, 38.43530
759.7680, 37.99609
760.9130, 24.56372
762.0570, 22.90576
763.2010, 49.56177
764.3450, 1.066895
765.4890, 11.29199
766.6320, 25.49268
767.7760, 9.894287
768.9190, 12.76880
770.0620, 29.54883
771.2050, 10.13989
772.3480, 34.16431
773.4900, 55.81494
774.6330, 39.42163
775.7750, 41.69507
776.9170, 4.012939
778.0590, 77.26465
779.2010, 58.50854
780.3420, 62.74585
781.4840, 16.97681
782.6250, 40.19922
783.7660, 41.41504
784.9070, 10.62402
786.0480, 42.82275
787.1890, 18.01465
788.3290, 11.19873
789.4690, 95.37256
790.6100, 33.34277
791.7490, 101.7915
792.8890, 18.91821
794.0290, 92.03638
795.1680, 2.147461
796.3080, 108.1470
797.4470, 82.23657
798.5860, 16.31836
799.7250, 84.86084
800.8630, 88.92578
802.0020, 72.98364
803.1400, 72.03394
804.2780, 31.07739
805.4160, 54.11450
806.5540, 114.1443
807.6920, 83.16699
808.8300, 50.18262
809.9670, 231.1909
811.1040, 101.1917
812.2410, 143.1851
813.3780, 67.17139
814.5150, 34.15039
815.6510, 94.12134
816.7880, 67.08496
817.9240, 92.04297
819.0600, 110.6628
820.1960, 115.9395
821.3320, 134.8779
822.4670, 179.8093
823.6030, 183.6270
824.7380, 179.8926
825.8730, 142.5593
827.0080, 175.4614
828.1430, 137.3560
829.2770, 194.2434
830.4120, 118.1238
831.5460, 138.9966
832.6800, 114.8621
833.8140, 99.72046
834.9480, 90.57153
836.0810, 116.4153
837.2150, 81.25195
838.3480, 64.08130
839.4810, 119.9033
840.6140, 169.7180
841.7470, 132.5259
842.8800, 147.3264
844.0120, 80.11963
845.1450, 83.90552
846.2770, 86.46826
847.4090, 117.2397
848.5410, 57.00464
849.6720, 29.76221
850.8040, 37.51172
851.9350, 0.8881840
853.0660, 21.16650
854.1970, 21.92578
855.3280, 52.76294
856.4590, 74.44458
857.5900, 76.11914
858.7200, 73.57666
859.8500, 36.23755
860.9800, 6.109131
862.1100, 100.5256
863.2400, 69.75806
864.3700, 3.326416
865.4990, 84.51880
866.6280, 88.35205
867.7570, 33.94604
868.8860, 51.29272
870.0150, 54.87354
871.1440, 19.44751
872.2720, 118.7490
873.4010, 1.309326
874.5290, 45.82520
875.6570, 48.36523
876.7850, 18.86060
877.9120, 88.92017
879.0400, 0.9111330
880.1670, 38.65137
881.2940, 28.19238
882.4210, 24.53052
883.5480, 18.93994
884.6750, 97.30615
885.8020, 83.63428
886.9280, 108.2234
888.0540, 4.575928
889.1800, 123.8125
890.3060, 23.19556
891.4320, 4.572998
892.5580, 8.940674
893.6830, 50.26025
894.8080, 81.63135
895.9330, 17.01489
897.0580, 6.227051
898.1830, 0.5117190
899.3080, 30.84399
900.4320, 48.48389
901.5570, 9.314941
902.6810, 5.943359
903.8050, 94.06348
904.9290, 35.89014
906.0520, 20.14917
907.1760, 13.88184
908.2990, 35.62622
909.4230, 3.366943
910.5460, 45.87109
911.6690, 5.113770
912.7910, 3.283203
913.9140, 35.52319
915.0360, 15.75952
916.1590, 74.99219
917.2810, 37.09229
918.4030, 15.30249
919.5240, 10.51392
920.6460, 32.40088
921.7680, 44.61035
922.8890, 32.69678
924.0100, 27.58130
925.1310, 35.21289
926.2520, 59.93066
927.3730, 41.11255
928.4930, 123.1350
929.6130, 42.31250
930.7340, 34.34302
931.8540, 26.81323
932.9740, 32.98096
934.0930, 28.13550
935.2130, 64.01416
936.3320, 120.1619
937.4520, 13.30835
938.5710, 61.45630
939.6900, 36.52661
940.8090, 86.67603
941.9270, 64.82349
943.0460, 51.96899
944.1640, 67.11133
945.2820, 23.25317
946.4000, 38.28564
947.5180, 85.53223
948.6360, 31.66895
949.7530, 50.73608
950.8710, 23.87793
951.9880, 44.01831
953.1050, 65.15918
954.2220, 15.29810
955.3390, 83.43628
956.4550, 78.57300
957.5720, 75.71191
958.6880, 25.85156
959.8040, 59.99023
960.9200, 171.1282
962.0360, 109.2651
963.1520, 174.4011
964.2670, 82.53662
965.3820, 186.6711
966.4980, 164.8054
967.6130, 129.9385
968.7280, 195.0715
969.8420, 214.2041
970.9570, 183.3364
972.0710, 211.4680
973.1850, 222.5994
974.3000, 353.7310
975.4140, 311.8618
976.5270, 386.9929
977.6410, 357.1240
978.7540, 396.2549
979.8680, 393.3877
980.9810, 497.5220
982.0940, 590.6562
983.2070, 642.7910
984.3200, 740.8516
985.4320, 761.9460
986.5440, 900.9719
987.6570, 1079.935
988.7690, 1149.669
989.8810, 1329.814
990.9920, 1416.957
992.1040, 1569.099
993.2160, 1774.244
994.3270, 2032.354
995.4380, 2454.126
996.5490, 3103.274
997.6600, 3879.426
998.7710, 5101.814
999.8810, 7145.970
1000.991, 10372.13
1002.102, 15061.27
1003.212, 20701.46
1004.322, 29053.64
1005.431, 39968.69
1006.541, 49497.87
1007.651, 52570.28
1008.760, 47326.46
1009.869, 37989.65
1010.978, 27819.85
1012.087, 18508.06
1013.195, 12081.62
1014.304, 7976.705
1015.412, 5323.461
1016.521, 3816.655
1017.629, 2900.840
1018.737, 2328.100
1019.844, 1950.363
1020.952, 1355.629
1022.059, 1294.989
1023.167, 1130.261
1024.274, 1009.507
1025.381, 811.4399
1026.488, 770.5356
1027.594, 684.8262
1028.701, 555.1328
1029.807, 470.4314
1030.913, 395.5686
1032.019, 453.7427
1033.125, 256.0859
1034.231, 321.4370
1035.337, 245.9429
1036.442, 356.2456
1037.548, 301.6099
1038.653, 327.9849
1039.758, 258.3643
1040.863, 186.7422
1041.967, 80.69092
1043.072, 79.76221
1044.176, 210.1646
1045.280, 125.5459
1046.384, 188.9351
1047.488, 123.3560
1048.592, 97.78125
1049.696, 119.2109
1050.799, 84.72607
1051.903, 90.08594
1053.006, 101.5308
1054.109, 62.98193
1055.212, 125.4375
1056.314, 114.8989
1057.417, 132.3667
1058.519, 101.7222
1059.621, 90.21338
1060.724, 82.62402
1061.826, 71.45264
1062.927, 64.45752
1064.029, 59.78760
1065.130, 52.38623
1066.232, 56.36035
1067.333, 36.98682
1068.434, 64.53076
1069.535, 79.31006
1070.636, 91.65186
1071.736, 80.39893
1072.837, 89.96436
1073.937, 86.53564
1075.037, 120.1118
1076.137, 124.6934
1077.237, 94.28027
1078.337, 153.8848
1079.436, 211.4956
1080.535, 175.1118
1081.635, 204.1865
1082.734, 138.0952
1083.833, 196.7285
1084.931, 141.5923
1086.030, 156.2358
1087.128, 220.8853
1088.227, 251.5396
1089.325, 181.8511
1090.423, 274.8721
1091.521, 222.5430
1092.618, 207.2188
1093.716, 267.9009
1094.813, 200.5879
1095.911, 308.2803
1097.008, 319.9775
1098.105, 353.6812
1099.202, 367.3906
1100.298, 356.1050
1101.395, 429.8247
1102.491, 469.5503
1103.587, 523.2812
1104.683, 622.0186
1105.779, 605.7607
1106.875, 677.5088
1107.971, 770.2622
1109.066, 800.0215
1110.161, 868.7866
1111.256, 950.9160
1112.351, 942.6924
1113.446, 1019.474
1114.541, 1057.262
1115.636, 988.0557
1116.730, 1030.855
1117.824, 953.6611
1118.918, 1001.478
1120.012, 949.3003
1121.106, 997.1392
1122.200, 936.9844
1123.293, 1009.834
1124.387, 1175.690
1125.480, 1339.552
1126.573, 1641.420
1127.666, 1996.299
1128.759, 2757.184
1129.851, 3427.074
1130.944, 4454.974
1132.036, 5535.880
1133.128, 6469.605
1134.220, 6736.523
1135.312, 6653.445
1136.404, 6120.372
1137.495, 5454.307
1138.587, 4670.246
1139.678, 3847.193
1140.769, 3133.147
1141.860, 2570.107
1142.951, 2115.092
1144.041, 1715.082
1145.132, 1378.245
1146.222, 1108.279
1147.313, 906.5967
1148.403, 749.8633
1149.493, 652.0664
1150.582, 618.1172
1151.672, 485.1748
1152.761, 425.2383
1153.851, 280.3096
1154.940, 246.3862
1156.029, 293.4678
1157.118, 207.5557
1158.207, 249.4492
1159.295, 185.5474
1160.384, 126.6499
1161.472, 145.7573
1162.560, 92.86963
1163.648, 87.99268
1164.736, 115.1201
1165.824, 89.25146
1166.911, 2.391602
1167.999, 27.53613
1169.086, 32.68506
1170.173, 106.8389
1171.260, 45.99609
1172.347, 27.83691
1173.434, 170.3354
1174.520, 53.52246
1175.606, 53.71387
1176.693, 80.90967
1177.779, 53.11035
1178.865, 23.31494
1179.951, 117.5234
1181.036, 76.73584
1182.122, 121.9526
1183.207, 36.17285
1184.292, 44.39648
1185.377, 103.6421
1186.462, 43.89111
1187.547, 80.14404
1188.632, 25.40039
1189.716, 50.66992
1190.800, 9.057129
1191.885, 52.21729
1192.969, 9.505371
1194.052, 27.10059
1195.136, 61.91064
1196.220, 7.428711
1197.303, 36.69922
1198.387, 28.97998
1199.470, 8.694336
1200.553, 21.41064
1201.636, 29.13037
1202.718, 90.14209
1203.801, 47.41748
1204.883, 81.69629
1205.966, 56.97803
1207.048, 38.26318
1208.130, 97.31396
1209.211, 72.86084
1210.293, 112.1543
1211.375, 93.45068
1212.456, 36.25000
1213.537, 36.05713
1214.618, 6.654297
1215.699, 76.63525
1216.780, 14.92676
1217.861, 45.22070
1218.941, 15.48145
1220.022, 9.188477
1221.102, 45.10352
1222.182, 24.39795
1223.262, 81.69922
1224.342, 122.0024
1225.422, 73.30811
1226.501, 148.6162
1227.580, 27.92676
1228.660, 133.2397
1229.739, 138.5542
1230.818, 77.87109
1231.896, 168.1904
1232.975, 40.51123
1234.054, 40.87256
1235.132, 99.19922
1236.210, 133.5283
1237.288, 114.8594
1238.366, 54.19971
1239.444, 23.56543
1240.521, 7.091309
1241.599, 154.2500
1242.676, 83.59326
1243.753, 88.97461
1244.830, 47.37988
1245.907, 68.72803
1246.984, 46.07812
1248.061, 49.09814
1249.137, 23.85596
1250.214, 65.20996
1251.290, 66.56494
1252.366, 85.92090
1253.442, 74.27881
1254.517, 141.6372
1255.593, 86.99658
1256.668, 79.35693
1257.744, 138.7896
1258.819, 111.1523
1259.894, 69.51562
1260.969, 36.87939
1262.044, 44.75586
1263.118, 54.58447
1264.193, 26.92627
1265.267, 88.26855
1266.341, 64.61133
1267.415, 68.95508
1268.489, 38.38672
1269.563, 29.10010
1270.636, 10.55127
1271.710, 14.99707
1272.783, 9.342285
1273.856, 29.05176
1274.929, 3.812012
1276.002, 90.82910
1277.075, 31.83008
1278.147, 46.50977
1279.220, 7.783691
1280.292, 107.6226
1281.364, 14.91455
1282.436, 36.20654
1283.508, 23.49805
1284.580, 17.78906
1285.652, 30.93018
1286.723, 7.630859
1287.794, 39.65088
1288.865, 83.93164
1289.936, 77.21240
1291.007, 24.49365
1292.078, 33.76953
1293.149, 85.04883
1294.219, 125.3271
1295.289, 24.60498
1296.360, 49.88135
1297.430, 11.15625
1298.499, 151.5493
1299.569, 49.82275
1300.639, 106.0972
1301.708, 64.45068
1302.778, 80.78809
1303.847, 58.05811
1304.916, 45.32715
1305.985, 141.7803
1307.053, 93.04541
1308.122, 111.3101
1309.190, 104.5723
1310.259, 100.8330
1311.327, 144.0938
1312.395, 66.34863
1313.463, 75.70410
1314.531, 74.95850
1315.598, 153.2129
1316.666, 105.4658
1317.733, 109.7168
1318.800, 33.96289
1319.867, 26.99268
1320.934, 65.23779
1322.001, 7.244141
1323.067, 0.4858400
1324.134, 12.49023
1325.200, 35.88379
1326.266, 42.10547
1327.333, 15.32617
1328.398, 42.31543
1329.464, 38.74707
1330.530, 134.7778
1331.595, 85.99561
1332.661, 158.2114
1333.726, 89.42773
1334.791, 64.64209
1335.856, 34.14404
1336.921, 7.056641
1337.985, 45.25537
1339.050, 131.5166
1340.114, 140.7129
1341.178, 22.17432
1342.242, 142.3677
1343.306, 66.33447
1344.370, 134.5254
1345.434, 169.7153
1346.497, 81.90430
1347.561, 99.45312
1348.624, 112.2832
1349.687, 41.46826
1350.750, 94.45410
1351.813, 111.7261
1352.876, 80.90723
1353.938, 102.0874
1355.000, 102.2651
1356.063, 60.42578
1357.125, 63.58203
1358.187, 123.7358
1359.249, 192.8887
1360.310, 98.03564
1361.372, 25.36963
1362.433, 94.76465
1363.495, 82.90820
1364.556, 141.0503
1365.617, 73.85693
1366.678, 31.98926
1367.738, 54.14209
1368.799, 42.91260
1369.859, 69.03955
1370.920, 30.16553
1371.980, 25.27344
1373.040, 100.3770
1374.100, 62.47949
1375.159, 22.58008
1376.219, 61.67871
1377.278, 98.74023
1378.338, 103.7993
1379.397, 121.0605
1380.456, 139.2256
1381.515, 107.9829
1382.574, 137.0854
1383.632, 95.13330
1384.691, 26.17822
1385.749, 135.2212
1386.807, 45.26123
1387.865, 80.29932
1388.923, 66.33447
1389.981, 64.55225
1391.039, 126.5820
1392.096, 80.60840
1393.154, 63.63330
1394.211, 70.65430
1395.268, 22.66162
1396.325, 63.66553
1397.382, 61.66504
1398.439, 29.33838
1399.495, 90.64502
1400.552, 7.622070
1401.608, 23.62891
1402.664, 114.1094
1403.720, 96.04492
1404.776, 102.7510
1405.832, 42.52051
1406.887, 0.4443360
1407.943, 60.36133
1408.998, 49.41064
1410.053, 146.3218
1411.108, 71.22803
1412.163, 71.13184
1413.218, 106.0317
1414.272, 43.12891
1415.327, 109.1504
1416.381, 126.0386
1417.435, 170.2612
1418.489, 6.857422
1419.543, 81.01611
1420.597, 82.88525
1421.651, 52.75195
1422.704, 119.6768
1423.758, 137.5405
1424.811, 17.39697
1425.864, 78.35986
1426.917, 66.60938
1427.970, 107.4565
1429.023, 23.71240
1430.075, 105.1074
1431.128, 80.91992
1432.180, 11.72852
1433.232, 91.48486
1434.284, 98.48877
1435.336, 120.2280
1436.388, 59.99854
1437.439, 124.9814
1438.491, 63.02246
1439.542, 55.85840
1440.593, 108.2402
1441.644, 66.33447
1442.695, 126.4263
1443.746, 74.17432
1444.797, 123.4634
1445.847, 194.5654
1446.898, 121.6191
1447.948, 117.7300
1448.998, 158.8438
1450.048, 132.9536
1451.098, 45.70264
1452.147, 151.7744
1453.197, 171.8271
1454.246, 58.90967
1455.296, 169.9907
1456.345, 144.0708
1457.394, 81.15527
1458.443, 196.2271
1459.491, 68.29590
1460.540, 191.3604
1461.588, 178.4209
1462.637, 103.4785
1463.685, 90.48242
1464.733, 37.52783
1465.781, 131.5210
1466.829, 137.5425
1467.876, 114.5151
1468.924, 114.4536
1469.971, 130.3667
1471.019, 69.37256
1472.066, 155.3760
1473.113, 52.37646
1474.160, 114.3735
1475.206, 125.2666
1476.253, 2.743164
1477.299, 35.26123
1478.346, 124.2817
1479.392, 80.30029
1480.438, 159.1846
1481.484, 58.27588
1482.529, 120.6758
1483.575, 152.4888
1484.620, 62.45996
1485.666, 84.61377
1486.711, 16.63184
1487.756, 10.64990
1488.801, 89.66895
1489.846, 89.70117
1490.891, 17.26758
1491.935, 132.0264
1492.980, 51.03369
1494.024, 113.0420
1495.068, 133.8359
1496.112, 100.8369
1497.156, 139.9536
1498.200, 140.5454
1499.243, 138.1270
1500.287, 124.4297
1501.330, 109.3774
1502.373, 136.9512
1503.416, 56.74609
1504.459, 207.5435
1505.502, 44.33691
1506.545, 69.11523
1507.587, 36.88916
1508.630, 145.7051
1509.672, 74.50781
1510.714, 128.2954
1511.756, 69.06885
1512.798, 147.8276
1513.840, 56.56982
1514.881, 61.13330
1515.923, 67.84082
1516.964, 56.25732
1518.005, 96.21289
1519.046, 110.8350
1520.087, 93.16309
1521.128, 152.4590
1522.169, 126.3516
1523.209, 113.6011
1524.249, 89.20361
1525.290, 97.19287
1526.330, 40.90674
1527.370, 45.11670
1528.410, 67.90674
1529.449, 56.20801
1530.489, 92.52637
1531.528, 136.8755
1532.568, 46.17822
1533.607, 12.72998
1534.646, 75.17236
1535.685, 145.4346
1536.724, 85.77441
1537.762, 175.3184
1538.801, 58.70703
1539.839, 15.06543
1540.878, 115.3838
1541.916, 3.279297
1542.954, 75.10059
1543.992, 66.44775
1545.029, 174.5537
1546.067, 164.2573
1547.104, 33.00977
1548.142, 70.80664
1549.179, 116.4336
1550.216, 23.22412
1551.253, 2.942871
1552.290, 141.4917
1553.326, 76.08252
1554.363, 53.50977
1555.399, 62.90771
1556.436, 106.0049
1557.472, 68.96289
1558.508, 3.660645
1559.544, 47.40332
1560.579, 35.66699
1561.615, 0.1596680
1562.651, 0.0000000E+00
##END=



