##NAMES=Gypsum
##RRUFFID=R060509
##IDEAL CHEMISTRY=CaS^6+^O_4_&#183;2H_2_O
##LOCALITY=Pierre Shale, Hermosa, Custer County, South Dakota, USA
##OWNER=RRUFF
##SOURCE=Michael Scott
##DESCRIPTION=Colorless tabular single crystal
##STATUS=The identification of this mineral has been confirmed by X-ray diffraction and chemical analysis
##URL=rruff.info/R060509
##PIN_ID=L01423
##ORIENTATION=Laser parallel to (1 0 1). Fiducial mark perpendicular to laser is parallel to b [0 1 0]
155.8940, 0.0000000E+00
157.1300, 4.886230
158.3650, 72.77515
159.6000, 158.0554
160.8340, 257.8911
162.0690, 308.5625
163.3030, 356.8970
164.5370, 426.3562
165.7710, 628.9788
167.0050, 673.2422
168.2380, 816.8721
169.4720, 1018.136
170.7050, 1293.609
171.9380, 1553.972
173.1700, 1835.405
174.4030, 2167.627
175.6350, 2618.429
176.8680, 3038.363
178.1000, 3228.339
179.3310, 3427.982
180.5630, 3383.389
181.7940, 3098.873
183.0260, 2870.146
184.2570, 2457.829
185.4870, 1984.746
186.7180, 1517.027
187.9480, 1199.560
189.1790, 865.7383
190.4090, 566.8726
191.6390, 425.7258
192.8680, 345.5872
194.0980, 277.9766
195.3270, 192.9185
196.5560, 165.0864
197.7850, 206.1008
199.0140, 192.5303
200.2420, 255.2161
201.4710, 219.5686
202.6990, 309.4355
203.9270, 354.4465
205.1550, 321.8242
206.3820, 323.7832
207.6090, 321.5815
208.8370, 347.6472
210.0640, 337.8535
211.2900, 357.8552
212.5170, 353.5903
213.7440, 318.0056
214.9700, 230.6685
216.1960, 231.4971
217.4220, 187.8613
218.6470, 103.3425
219.8730, 107.6045
221.0980, 76.74561
222.3230, 73.60571
223.5480, 89.36694
224.7730, 87.37842
225.9970, 56.29102
227.2220, 121.5645
228.4460, 81.89941
229.6700, 44.56152
230.8940, 29.22437
232.1170, 56.13989
233.3400, 91.71997
234.5640, 44.79712
235.7870, 31.36060
237.0100, 36.39551
238.2320, 63.44702
239.4550, 21.63623
240.6770, 57.55859
241.8990, 51.01099
243.1210, 6.552002
244.3420, 22.30957
245.5640, 36.68677
246.7850, 4.487549
248.0060, 14.10815
249.2270, 13.57056
250.4480, 3.382813
251.6690, 2.082520
252.8890, 18.88330
254.1090, 33.53076
255.3290, 31.46899
256.5490, 43.51562
257.7680, 29.10522
258.9880, 34.67065
260.2070, 22.82739
261.4260, 17.98779
262.6450, 27.57202
263.8640, 49.51221
265.0820, 5.509521
266.3000, 76.50562
267.5180, 16.56592
268.7360, 29.66138
269.9540, 27.16602
271.1720, 21.67285
272.3890, 50.60205
273.6060, 5.185547
274.8230, 0.6921390
276.0400, 29.84155
277.2560, 37.56958
278.4730, 4.942871
279.6890, 21.71167
280.9050, 0.3942870
282.1210, 50.11523
283.3370, 2.917236
284.5520, 19.79590
285.7670, 23.75537
286.9820, 19.74951
288.1970, 48.76465
289.4120, 22.82080
290.6270, 13.90820
291.8410, 50.96240
293.0550, 8.225098
294.2690, 10.45752
295.4830, 20.74561
296.6970, 53.91406
297.9100, 0.4458010
299.1230, 44.16260
300.3360, 30.75439
301.5490, 17.33838
302.7620, 28.48804
303.9740, 9.522705
305.1860, 83.96045
306.3990, 70.58887
307.6110, 42.30469
308.8220, 139.0679
310.0340, 173.8521
311.2450, 89.63721
312.4560, 181.4055
313.6670, 133.2058
314.8780, 196.9053
316.0890, 175.5566
317.2990, 166.1536
318.5090, 217.6914
319.7200, 132.1650
320.9290, 218.5691
322.1390, 176.9023
323.3490, 150.1587
324.5580, 209.3289
325.7670, 235.4092
326.9760, 94.40088
328.1850, 117.3062
329.3930, 147.1265
330.6020, 173.8601
331.8100, 166.6895
333.0180, 126.0803
334.2260, 143.5588
335.4340, 104.9392
336.6410, 87.22510
337.8480, 154.4172
339.0550, 155.5168
340.2620, 153.5220
341.4690, 139.4465
342.6760, 101.2378
343.8820, 128.9167
345.0880, 173.3931
346.2940, 124.7581
347.5000, 124.0049
348.7060, 99.14355
349.9110, 102.0630
351.1160, 172.2092
352.3210, 128.1707
353.5260, 136.0869
354.7310, 159.9343
355.9360, 139.6658
357.1400, 177.2900
358.3440, 111.8301
359.5480, 109.3362
360.7520, 151.8076
361.9550, 175.2156
363.1590, 167.5928
364.3620, 151.6223
365.5650, 193.5627
366.7680, 167.2678
367.9710, 102.7988
369.1730, 188.3713
370.3760, 210.9006
371.5780, 259.0854
372.7800, 186.7075
373.9810, 202.1116
375.1830, 209.1536
376.3840, 203.9307
377.5860, 243.2334
378.7870, 196.6948
379.9880, 254.7507
381.1880, 189.5627
382.3890, 236.5312
383.5890, 255.7854
384.7890, 296.4160
385.9890, 233.6833
387.1890, 279.3347
388.3880, 265.6211
389.5880, 336.1558
390.7870, 344.8037
391.9860, 377.8755
393.1850, 437.6340
394.3840, 483.6025
395.5820, 547.8179
396.7800, 608.6997
397.9790, 678.4436
399.1770, 799.4067
400.3740, 1024.344
401.5720, 1184.409
402.7690, 1632.317
403.9670, 1927.296
405.1640, 2582.126
406.3600, 3133.095
407.5570, 3684.474
408.7540, 4377.488
409.9500, 5080.933
411.1460, 6006.280
412.3420, 6568.402
413.5380, 6876.716
414.7330, 6738.625
415.9290, 6193.471
417.1240, 5285.598
418.3190, 4205.128
419.5140, 3284.441
420.7090, 2641.858
421.9030, 1919.909
423.0970, 1500.516
424.2920, 1198.509
425.4860, 864.8604
426.6790, 660.1130
427.8730, 577.3521
429.0660, 499.5574
430.2600, 524.5408
431.4530, 396.8015
432.6460, 342.2676
433.8380, 182.3889
435.0310, 329.0967
436.2230, 230.3525
437.4150, 202.4990
438.6070, 191.5520
439.7990, 155.9905
440.9910, 150.3225
442.1820, 130.1025
443.3730, 145.4165
444.5640, 112.4053
445.7550, 155.7793
446.9460, 80.00098
448.1370, 70.33643
449.3270, 99.80786
450.5170, 106.2058
451.7070, 101.4678
452.8970, 110.1248
454.0870, 75.82471
455.2760, 78.23828
456.4650, 11.90747
457.6550, 30.46411
458.8430, 158.1016
460.0320, 90.73535
461.2210, 107.3538
462.4090, 82.95703
463.5970, 81.42725
464.7850, 91.00171
465.9730, 107.5620
467.1610, 94.05615
468.3480, 174.5901
469.5360, 133.1113
470.7230, 145.3262
471.9100, 95.62158
473.0970, 100.0276
474.2830, 176.5010
475.4700, 114.9624
476.6560, 173.2419
477.8420, 347.5825
479.0280, 239.7505
480.2140, 202.8345
481.3990, 437.1902
482.5850, 499.5410
483.7700, 582.8770
484.9550, 625.1455
486.1400, 835.2473
487.3240, 937.4595
488.5090, 1090.836
489.6930, 1138.024
490.8770, 1272.205
492.0610, 1364.280
493.2450, 1423.365
494.4290, 1288.722
495.6120, 1184.913
496.7950, 1094.137
497.9780, 919.4595
499.1610, 780.6982
500.3440, 670.0432
501.5260, 484.1677
502.7090, 400.2837
503.8910, 287.5791
505.0730, 278.9207
506.2550, 248.3208
507.4360, 163.6250
508.6180, 187.9690
509.7990, 122.3159
510.9800, 98.43408
512.1610, 112.7876
513.3420, 99.15796
514.5230, 134.5332
515.7030, 175.9111
516.8830, 41.29272
518.0630, 59.67993
519.2430, 9.926758
520.4230, 117.4700
521.6020, 59.87012
522.7820, 20.27563
523.9610, 39.70044
525.1400, 6.130615
526.3190, 10.43481
527.4970, 64.01489
528.6760, 37.50977
529.8540, 66.98071
531.0320, 75.47998
532.2100, 64.99561
533.3880, 58.46802
534.5660, 49.93921
535.7430, 4.409180
536.9200, 0.1337890
538.0970, 31.68579
539.2740, 50.24829
540.4510, 43.81714
541.6270, 23.39160
542.8040, 19.97168
543.9800, 54.55664
545.1560, 80.14746
546.3320, 61.74341
547.5080, 82.34570
548.6830, 65.96191
549.8580, 111.5952
551.0340, 71.65771
552.2090, 6.321289
553.3830, 46.01440
554.5580, 98.72095
555.7320, 143.4448
556.9070, 70.17407
558.0810, 130.9089
559.2550, 86.64868
560.4280, 155.3770
561.6020, 206.1968
562.7750, 150.9080
563.9490, 115.6843
565.1220, 197.4675
566.2950, 162.3770
567.4670, 225.2495
568.6400, 187.3433
569.8120, 234.4514
570.9840, 161.3420
572.1560, 203.2036
573.3280, 257.0781
574.5000, 192.9724
575.6710, 158.8801
576.8430, 222.0662
578.0140, 189.6497
579.1850, 166.4451
580.3560, 154.5366
581.5260, 192.3713
582.6970, 189.3320
583.8670, 204.0874
585.0370, 234.3418
586.2070, 155.5127
587.3770, 156.5142
588.5460, 248.9817
589.7160, 245.9670
590.8850, 137.9573
592.0540, 234.9976
593.2230, 176.9668
594.3920, 121.1211
595.5600, 186.2844
596.7290, 210.2820
597.8970, 155.2205
599.0650, 155.2205
600.2330, 224.8289
601.4000, 267.8315
602.5680, 236.8347
603.7350, 220.8423
604.9020, 336.8882
606.0690, 296.8989
607.2360, 370.9907
608.4030, 358.0796
609.5690, 433.2129
610.7360, 519.2275
611.9020, 610.2441
613.0680, 681.1995
614.2340, 740.2998
615.3990, 824.3328
616.5650, 855.3718
617.7300, 910.4199
618.8950, 936.5969
620.0600, 916.7388
621.2250, 844.9397
622.3890, 771.9990
623.5540, 676.6021
624.7180, 613.6855
625.8820, 528.8162
627.0460, 430.1765
628.2100, 357.7046
629.3730, 321.9211
630.5370, 262.0408
631.7000, 241.1934
632.8630, 213.3245
634.0260, 149.6021
635.1890, 118.7705
636.3510, 177.0261
637.5140, 89.19849
638.6760, 171.4653
639.8380, 196.6394
641.0000, 163.8230
642.1610, 129.0457
643.3230, 80.23218
644.4840, 89.41943
645.6450, 0.7485350
646.8060, 104.9363
647.9670, 35.12451
649.1280, 32.48462
650.2880, 78.67358
651.4490, 138.9045
652.6090, 201.3364
653.7690, 167.5269
654.9290, 207.7173
656.0880, 181.9075
657.2480, 296.1475
658.4070, 286.3372
659.5660, 406.3950
660.7250, 529.5842
661.8840, 777.7732
663.0430, 990.9619
664.2010, 1269.150
665.3600, 1661.337
666.5180, 1873.393
667.6760, 2258.578
668.8330, 2455.809
669.9910, 2607.993
671.1480, 2514.176
672.3060, 2319.480
673.4630, 1830.817
674.6200, 1457.543
675.7770, 1054.676
676.9330, 805.8438
678.0900, 521.0181
679.2460, 429.1909
680.4020, 389.3618
681.5580, 314.5312
682.7140, 207.6987
683.8690, 133.8640
685.0250, 179.0276
686.1800, 85.18921
687.3350, 139.3491
688.4900, 72.50659
689.6450, 5.338135
690.7990, 73.81030
691.9540, 118.9563
693.1080, 100.0996
694.2620, 106.2405
695.4160, 62.37817
696.5700, 89.51318
697.7230, 87.64502
698.8770, 30.22607
700.0300, 15.88208
701.1830, 13.01367
702.3360, 91.07886
703.4890, 83.16772
704.6410, 6.253174
705.7930, 17.33398
706.9460, 0.4108890
708.0980, 0.4809570
709.2500, 24.54419
710.4010, 46.60327
711.5530, 46.65918
712.7040, 69.71021
713.8560, 36.75684
715.0070, 31.20117
716.1580, 53.16748
717.3080, 56.18530
718.4590, 6.433105
719.6090, 7.628906
720.7590, 48.29590
721.9090, 21.75952
723.0590, 3.139648
724.2090, 11.96924
725.3590, 9.031250
726.5080, 0.1706540
727.6570, 66.67993
728.8060, 83.18433
729.9550, 31.03174
731.1040, 23.13379
732.2530, 8.678223
733.4010, 8.483154
734.5490, 155.2808
735.6970, 69.12524
736.8450, 137.9597
737.9930, 32.25854
739.1400, 63.81812
740.2880, 77.60034
741.4350, 76.06519
742.5820, 36.86450
743.7290, 46.75586
744.8760, 27.05127
746.0220, 28.30688
747.1690, 18.03418
748.3150, 54.73926
749.4610, 84.43848
750.6070, 72.21997
751.7530, 110.8184
752.8980, 60.20190
754.0440, 51.02979
755.1890, 50.11304
756.3340, 19.77515
757.4790, 33.04224
758.6240, 19.61401
759.7680, 59.85791
760.9130, 6.511963
762.0570, 53.30908
763.2010, 51.75146
764.3450, 22.32715
765.4890, 17.03931
766.6320, 40.62549
767.7760, 70.55273
768.9190, 57.76587
770.0620, 127.3489
771.2050, 48.11377
772.3480, 78.66016
773.4900, 54.37964
774.6330, 174.9094
775.7750, 52.43091
776.9170, 75.94360
778.0590, 101.4148
779.2010, 67.91113
780.3420, 109.3987
781.4840, 80.87793
782.6250, 43.34888
783.7660, 85.75098
784.9070, 95.20386
786.0480, 38.64844
787.1890, 119.0830
788.3290, 67.50903
789.4690, 25.07373
790.6100, 164.3069
791.7490, 152.7158
792.8890, 131.0801
794.0290, 65.43872
795.1680, 139.8086
796.3080, 139.1528
797.4470, 88.48877
798.5860, 83.81665
799.7250, 131.1360
800.8630, 94.44678
802.0020, 104.7480
803.1400, 118.0427
804.2780, 92.32861
805.4160, 98.60596
806.5540, 101.8794
807.6920, 103.1436
808.8300, 47.39941
809.9670, 171.6460
811.1040, 89.89209
812.2410, 198.1360
813.3780, 166.3718
814.5150, 190.5986
815.6510, 176.8171
816.7880, 203.0273
817.9240, 103.2288
819.0600, 180.4221
820.1960, 150.6067
821.3320, 192.7830
822.4670, 205.9504
823.6030, 128.1096
824.7380, 183.2603
825.8730, 171.4023
827.0080, 180.1294
828.1430, 257.2546
829.2770, 260.3713
830.4120, 214.4797
831.5460, 193.5793
832.6800, 186.9248
833.8140, 134.7542
834.9480, 170.8289
836.0810, 171.9138
837.2150, 167.9075
838.3480, 134.0178
839.4810, 176.0598
840.6140, 201.0935
841.7470, 125.0071
842.8800, 97.95728
844.0120, 154.6997
845.1450, 77.42798
846.2770, 181.3789
847.4090, 68.36450
848.5410, 84.34180
849.6720, 162.3115
850.8040, 198.2729
851.9350, 61.95874
853.0660, 129.2432
854.1970, 6.683838
855.3280, 81.08740
856.4590, 179.1191
857.5900, 51.02075
858.7200, 83.12598
859.8500, 134.7285
860.9800, 38.40991
862.1100, 53.25684
863.2400, 95.63403
864.3700, 7.494141
865.4990, 49.34131
866.6280, 121.1335
867.7570, 77.99243
868.8860, 83.66113
870.0150, 57.31470
871.1440, 35.12891
872.2720, 35.98682
873.4010, 51.73828
874.5290, 11.92578
875.6570, 35.71094
876.7850, 2.490723
877.9120, 28.25732
879.0400, 16.97998
880.1670, 19.73242
881.2940, 60.39795
882.4210, 38.06201
883.5480, 65.67627
884.6750, 65.79785
885.8020, 18.87354
886.9280, 65.82520
888.0540, 1.519043
889.1800, 5.799805
890.3060, 6.865723
891.4320, 109.5161
892.5580, 21.96582
893.6830, 59.57471
894.8080, 90.05322
895.9330, 31.66943
897.0580, 23.26172
898.1830, 65.68652
899.3080, 52.18359
900.4320, 14.07031
901.5570, 122.1533
902.6810, 5.549805
903.8050, 17.03857
904.9290, 15.50830
906.0520, 121.0435
907.1760, 69.23730
908.2990, 8.624023
909.4230, 138.9194
910.5460, 96.29492
911.6690, 44.57227
912.7910, 23.05957
913.9140, 64.28662
915.0360, 81.59131
916.1590, 52.92969
917.2810, 98.26416
918.4030, 71.11963
919.5240, 23.78076
920.6460, 47.10400
921.7680, 51.25195
922.8890, 52.56836
924.0100, 38.84082
925.1310, 55.94824
926.2520, 7.214844
927.3730, 64.62695
928.4930, 58.50537
929.6130, 9.753906
930.7340, 16.63965
931.8540, 72.93213
932.9740, 106.2222
934.0930, 56.54688
935.2130, 102.1470
936.3320, 102.1211
937.4520, 116.4082
938.5710, 80.69336
939.6900, 76.97607
940.8090, 37.25635
941.9270, 99.53467
943.0460, 40.81055
944.1640, 57.96143
945.2820, 10.23340
946.4000, 30.50293
947.5180, 36.77100
948.6360, 105.0361
949.7530, 83.31689
950.8710, 96.59521
951.9880, 38.87256
953.1050, 40.31738
954.2220, 29.42188
955.3390, 24.69434
956.4550, 18.96436
957.5720, 41.23438
958.6880, 79.50195
959.8040, 84.76807
960.9200, 117.0337
962.0360, 54.29980
963.1520, 108.5649
964.2670, 76.82910
965.3820, 146.0923
966.4980, 101.3545
967.6130, 244.6162
968.7280, 187.8765
969.8420, 260.1357
970.9570, 303.4077
972.0710, 257.6782
973.1850, 272.9531
974.3000, 333.2275
975.4140, 375.5020
976.5270, 396.7759
977.6410, 404.0508
978.7540, 468.0830
979.8680, 495.6045
980.9810, 590.8818
982.0940, 662.1582
983.2070, 742.4360
984.3200, 820.7144
985.4320, 940.1919
986.5440, 1117.267
987.6570, 1196.571
988.7690, 1366.220
989.8810, 1504.544
990.9920, 1668.874
992.1040, 1693.179
993.2160, 2040.518
994.3270, 2486.858
995.4380, 2926.144
996.5490, 3671.497
997.6600, 4833.854
998.7710, 6791.553
999.8810, 9922.907
1000.991, 14775.27
1002.102, 21146.63
1003.212, 27879.02
1004.322, 35558.39
1005.431, 44772.71
1006.541, 51999.05
1007.651, 53037.43
1008.760, 46659.50
1009.869, 36771.86
1010.978, 26356.53
1012.087, 17468.87
1013.195, 11261.12
1014.304, 7435.413
1015.412, 5094.822
1016.521, 3784.219
1017.629, 2889.643
1018.737, 2275.070
1019.844, 2062.501
1020.952, 1593.951
1022.059, 1331.701
1023.167, 1103.004
1024.274, 977.0474
1025.381, 863.5176
1026.488, 757.8516
1027.594, 636.3291
1028.701, 570.8105
1029.807, 524.2749
1030.913, 476.7925
1032.019, 389.2661
1033.125, 435.8052
1034.231, 366.2036
1035.337, 351.2197
1036.442, 282.3950
1037.548, 183.8594
1038.653, 221.7920
1039.758, 174.1191
1040.863, 197.6611
1041.967, 220.0278
1043.072, 184.5801
1044.176, 154.1377
1045.280, 132.7007
1046.384, 180.3662
1047.488, 96.93994
1048.592, 153.5190
1049.696, 153.1030
1050.799, 59.69189
1051.903, 154.2871
1053.006, 79.88818
1054.109, 137.4941
1055.212, 115.1426
1056.314, 158.7607
1057.417, 68.38477
1058.519, 47.03906
1059.621, 9.008789
1060.724, 27.58936
1061.826, 148.3203
1062.927, 28.02930
1064.029, 55.64600
1065.130, 97.32910
1066.232, 3.981934
1067.333, 36.71240
1068.434, 58.28809
1069.535, 148.9941
1070.636, 88.70605
1071.736, 128.4238
1072.837, 107.1470
1073.937, 92.89160
1075.037, 96.58740
1076.137, 84.12354
1077.237, 76.11621
1078.337, 79.87012
1079.436, 73.62988
1080.535, 76.05273
1081.635, 154.1387
1082.734, 133.9165
1083.833, 155.7017
1084.931, 246.4927
1086.030, 140.2900
1087.128, 166.0928
1088.227, 268.9019
1089.325, 275.7173
1090.423, 234.5381
1091.521, 171.3652
1092.618, 302.1982
1093.716, 244.0381
1094.813, 311.8828
1095.911, 401.7344
1097.008, 309.5918
1098.105, 340.4556
1099.202, 445.3257
1100.298, 458.2012
1101.395, 485.0942
1102.491, 535.6030
1103.587, 571.5083
1104.683, 595.4282
1105.779, 692.3545
1106.875, 901.2871
1107.971, 895.2261
1109.066, 982.1763
1110.161, 1137.133
1111.256, 1137.096
1112.351, 1157.064
1113.446, 1161.053
1114.541, 1106.048
1115.636, 1299.049
1116.730, 1319.057
1117.824, 1159.070
1118.918, 1279.090
1120.012, 1228.117
1121.106, 1117.157
1122.200, 1188.203
1123.293, 1196.256
1124.387, 1528.315
1125.480, 1539.381
1126.573, 1924.453
1127.666, 2429.531
1128.759, 3148.615
1129.851, 3956.705
1130.944, 4837.804
1132.036, 5767.909
1133.128, 6440.021
1134.220, 6777.137
1135.312, 6621.261
1136.404, 5967.391
1137.495, 5107.525
1138.587, 4254.668
1139.678, 3370.816
1140.769, 2721.984
1141.860, 2125.158
1142.951, 1683.343
1144.041, 1302.149
1145.132, 1169.026
1146.222, 821.2290
1147.313, 702.4453
1148.403, 642.9868
1149.493, 460.2144
1150.582, 463.4482
1151.672, 321.7456
1152.761, 383.9990
1153.851, 273.2617
1154.940, 177.5347
1156.029, 251.8813
1157.118, 167.1670
1158.207, 307.4668
1159.295, 160.7715
1160.384, 191.0820
1161.472, 136.3979
1162.560, 72.83154
1163.648, 113.1875
1164.736, 103.5659
1165.824, 42.04932
1166.911, 73.32666
1167.999, 8.708496
1169.086, 71.09619
1170.173, 94.49609
1171.260, 64.97607
1172.347, 107.4194
1173.434, 56.86914
1174.520, 102.3228
1175.606, 4.781250
1176.693, 3.754883
1177.779, 1.720215
1178.865, 66.20215
1179.951, 57.68799
1181.036, 30.17871
1182.122, 43.67285
1183.207, 99.17188
1184.292, 135.6753
1185.377, 1.817871
1186.462, 106.6934
1187.547, 111.2090
1188.632, 182.1094
1189.716, 12.36719
1190.800, 106.0503
1191.885, 43.00098
1192.969, 41.55713
1194.052, 76.60010
1195.136, 18.49609
1196.220, 46.03955
1197.303, 82.54785
1198.387, 44.89990
1199.470, 35.63867
1200.553, 8.180664
1201.636, 78.72705
1202.718, 64.25879
1203.801, 0.1704100
1204.883, 53.38623
1205.966, 76.94580
1207.048, 105.0410
1208.130, 15.07520
1209.211, 73.64502
1210.293, 39.21777
1211.375, 76.20605
1212.456, 36.33838
1213.537, 133.1997
1214.618, 53.75049
1215.699, 76.30518
1216.780, 6.862793
1217.861, 70.42578
1218.941, 101.9912
1220.022, 80.56006
1221.102, 69.13135
1222.182, 87.70605
1223.262, 87.56299
1224.342, 111.8628
1225.422, 104.4448
1226.501, 136.0303
1227.580, 114.6172
1228.660, 160.2065
1229.739, 101.7988
1230.818, 155.9487
1231.896, 15.45557
1232.975, 138.1367
1234.054, 138.6309
1235.132, 41.22754
1236.210, 206.8481
1237.288, 57.51758
1238.366, 82.28564
1239.444, 102.8887
1240.521, 76.49316
1241.599, 105.1001
1242.676, 102.7808
1243.753, 107.4844
1244.830, 120.6548
1245.907, 95.77539
1246.984, 129.3931
1248.061, 102.0122
1249.137, 88.68994
1250.214, 149.3745
1251.290, 99.07227
1252.366, 134.7974
1253.442, 127.4956
1254.517, 84.24463
1255.593, 178.8730
1256.668, 109.5020
1257.744, 140.1323
1258.819, 103.7764
1259.894, 123.4214
1260.969, 137.0669
1262.044, 135.7217
1263.118, 34.39844
1264.193, 47.04639
1265.267, 64.78516
1266.341, 14.43701
1267.415, 122.0859
1268.489, 18.75244
1269.563, 75.51318
1270.636, 117.1626
1271.710, 8.916504
1272.783, 84.56592
1273.856, 0.7851560
1274.929, 56.86035
1276.002, 154.1113
1277.075, 32.24316
1278.147, 141.5474
1279.220, 56.17139
1280.292, 59.17090
1281.364, 162.4175
1282.436, 19.00586
1283.508, 58.59326
1284.580, 26.81982
1285.652, 79.74805
1286.723, 35.31543
1287.794, 100.8818
1288.865, 68.44629
1289.936, 104.1265
1291.007, 26.31055
1292.078, 62.23535
1293.149, 199.8325
1294.219, 99.57617
1295.289, 134.6196
1296.360, 44.15820
1297.430, 39.69580
1298.499, 41.23047
1299.569, 12.92725
1300.639, 32.29980
1301.708, 26.83252
1302.778, 73.36328
1303.847, 115.8906
1304.916, 126.4155
1305.985, 90.90674
1307.053, 79.74902
1308.122, 99.26318
1309.190, 170.7734
1310.259, 73.30957
1311.327, 116.8110
1312.395, 135.3389
1313.463, 81.83447
1314.531, 114.2949
1315.598, 51.77832
1316.666, 27.73877
1317.733, 168.7271
1318.800, 120.8613
1319.867, 41.32373
1320.934, 27.78809
1322.001, 6.748535
1323.067, 5.929199
1324.134, 72.16797
1325.200, 79.62451
1326.266, 89.49121
1327.333, 151.0679
1328.398, 109.5186
1329.464, 110.5776
1330.530, 76.46484
1331.595, 67.91260
1332.661, 79.34375
1333.726, 88.78906
1334.791, 130.0229
1335.856, 101.3281
1336.921, 102.9814
1337.985, 59.50488
1339.050, 58.91846
1340.114, 42.35205
1341.178, 6.286133
1342.242, 124.1963
1343.306, 48.78223
1344.370, 57.18018
1345.434, 135.1714
1346.497, 81.54297
1347.561, 78.91064
1348.624, 88.27686
1349.687, 81.82324
1350.750, 45.18506
1351.813, 63.54346
1352.876, 69.89795
1353.938, 96.25049
1355.000, 198.5801
1356.063, 98.90527
1357.125, 53.22852
1358.187, 28.46240
1359.249, 66.83057
1360.310, 77.51172
1361.372, 18.08203
1362.433, 130.1934
1363.495, 42.46631
1364.556, 31.73584
1365.617, 5.999023
1366.678, 159.2573
1367.738, 83.50977
1368.799, 129.7588
1369.859, 35.99463
1370.920, 28.23486
1371.980, 35.58643
1373.040, 67.37061
1374.100, 55.00391
1375.159, 55.21680
1376.219, 39.42578
1377.278, 38.46582
1378.338, 35.84521
1379.397, 30.19531
1380.456, 37.84717
1381.515, 28.03906
1382.574, 58.22705
1383.632, 97.40820
1384.691, 67.66016
1385.749, 121.0166
1386.807, 76.18604
1387.865, 76.35156
1388.923, 58.62207
1389.981, 53.80713
1391.039, 75.00586
1392.096, 40.26709
1393.154, 61.40479
1394.211, 138.5386
1395.268, 58.66748
1396.325, 33.20752
1397.382, 168.9004
1398.439, 39.00537
1399.495, 133.1074
1400.552, 124.2051
1401.608, 102.0044
1402.664, 8.903809
1403.720, 74.17822
1404.776, 29.93799
1405.832, 212.2036
1406.887, 56.25879
1407.943, 89.26172
1408.998, 140.3110
1410.053, 88.34619
1411.108, 173.4072
1412.163, 103.5347
1413.218, 131.5728
1414.272, 259.5225
1415.327, 113.4639
1416.381, 33.39648
1417.435, 139.6362
1418.489, 146.0762
1419.543, 48.09863
1420.597, 23.00244
1421.651, 106.8945
1422.704, 130.7783
1423.758, 141.6509
1424.811, 175.5127
1425.864, 162.2212
1426.917, 234.3643
1427.970, 133.1875
1429.023, 121.9512
1430.075, 94.69238
1431.128, 138.4170
1432.180, 56.12207
1433.232, 16.72510
1434.284, 149.2495
1435.336, 229.7192
1436.388, 57.14404
1437.439, 203.4854
1438.491, 56.76025
1439.542, 93.06201
1440.593, 143.3594
1441.644, 72.20850
1442.695, 116.4790
1443.746, 104.5737
1444.797, 113.5708
1445.847, 141.6875
1446.898, 154.9380
1447.948, 205.1826
1448.998, 221.4219
1450.048, 174.6558
1451.098, 105.8843
1452.147, 13.10742
1453.197, 102.0083
1454.246, 133.2563
1455.296, 56.49609
1456.345, 90.72852
1457.394, 78.07910
1458.443, 114.1758
1459.491, 83.39209
1460.540, 89.60400
1461.588, 98.67871
1462.637, 135.8555
1463.685, 166.6523
1464.733, 160.6807
1465.781, 169.3291
1466.829, 155.4478
1467.876, 49.42480
1468.924, 24.39746
1469.971, 59.44189
1471.019, 2.317871
1472.066, 191.1060
1473.113, 121.8540
1474.160, 162.8599
1475.206, 28.84082
1476.253, 74.79443
1477.299, 138.6831
1478.346, 178.4868
1479.392, 164.9204
1480.438, 165.3481
1481.484, 108.3159
1482.529, 117.1567
1483.575, 93.48486
1484.620, 83.03320
1485.666, 91.79102
1486.711, 33.65039
1487.756, 113.5015
1488.801, 151.3726
1489.846, 69.23828
1490.891, 71.89746
1491.935, 84.67773
1492.980, 89.18848
1494.024, 189.0469
1495.068, 113.8999
1496.112, 112.7339
1497.156, 34.56592
1498.200, 2.334961
1499.243, 8.540527
1500.287, 102.3149
1501.330, 112.0977
1502.373, 62.93213
1503.416, 108.7925
1504.459, 32.66064
1505.502, 7.516602
1506.545, 179.3545
1507.587, 84.17480
1508.630, 83.04102
1509.672, 48.69824
1510.714, 39.55762
1511.756, 89.16260
1512.798, 73.89307
1513.840, 41.66016
1514.881, 61.45312
1515.923, 57.62012
1516.964, 41.39844
1518.005, 102.5576
1519.046, 116.3657
1520.087, 182.6338
1521.128, 126.4072
1522.169, 116.2314
1523.209, 94.11572
1524.249, 99.07080
1525.290, 106.6431
1526.330, 122.5952
1527.370, 112.5498
1528.410, 140.5151
1529.449, 86.48633
1530.489, 34.98535
1531.528, 115.1240
1532.568, 100.9849
1533.607, 126.7983
1534.646, 210.0044
1535.685, 65.74512
1536.724, 39.16113
1537.762, 41.38379
1538.801, 118.9160
1539.839, 78.53027
1540.878, 145.8569
1541.916, 13.74023
1542.954, 0.5322270
1543.992, 34.19385
1545.029, 59.71484
1546.067, 111.0464
1547.104, 103.3354
1548.142, 92.72852
1549.179, 78.57764
1550.216, 45.34473
1551.253, 7.967773
1552.290, 131.4473
1553.326, 53.95068
1554.363, 124.1694
1555.399, 50.42090
1556.436, 92.19092
1557.472, 22.05078
1558.508, 151.4761
1559.544, 71.60156
1560.579, 4.511719
1561.615, 4.978516
1562.651, 0.0000000E+00
##END=



