##NAMES=Gypsum
##RRUFFID=R060509
##IDEAL CHEMISTRY=CaS^6+^O_4_&#183;2H_2_O
##LOCALITY=Pierre Shale, Hermosa, Custer County, South Dakota, USA
##OWNER=RRUFF
##SOURCE=Michael Scott
##DESCRIPTION=Colorless tabular single crystal
##STATUS=The identification of this mineral has been confirmed by X-ray diffraction and chemical analysis
##URL=rruff.info/R060509
##PIN_ID=L01423
##ORIENTATION=Laser parallel to (1 0 1). Fiducial mark perpendicular to laser is parallel to b [0 1 0]
155.8940, 0.0000000E+00
157.1300, 26.64746
158.3650, 112.7744
159.6000, 171.6650
160.8340, 303.0593
162.0690, 384.7388
163.3030, 475.6345
164.5370, 405.4426
165.7710, 359.8040
167.0050, 314.4656
168.2380, 410.3259
169.4720, 318.0923
170.7050, 490.5188
171.9380, 495.4282
173.1700, 579.7751
174.4030, 646.5034
175.6350, 795.4321
176.8680, 1007.029
178.1000, 1068.979
179.3310, 1125.832
180.5630, 1197.824
181.7940, 1078.495
183.0260, 964.9111
184.2570, 861.3369
185.4870, 634.9370
186.7180, 470.2690
187.9480, 364.9434
189.1790, 262.5032
190.4090, 66.22803
191.6390, 28.17065
192.8680, 62.08960
194.0980, 36.29321
195.3270, 46.00439
196.5560, 12.46387
197.7850, 29.35498
199.0140, 73.04761
200.2420, 173.6147
201.4710, 172.8552
202.6990, 255.7451
203.9270, 314.0015
205.1550, 404.9368
206.3820, 406.4038
207.6090, 448.1873
208.8370, 474.0085
210.0640, 475.4829
211.2900, 535.5962
212.5170, 478.8203
213.7440, 468.2158
214.9700, 330.4888
216.1960, 350.5303
217.4220, 278.3013
218.6470, 207.1191
219.8730, 204.8486
221.0980, 151.2891
222.3230, 169.0120
223.5480, 140.2734
224.7730, 79.84155
225.9970, 116.9768
227.2220, 75.09766
228.4460, 89.40015
229.6700, 83.74365
230.8940, 45.64648
232.1170, 11.19580
233.3400, 49.53564
234.5640, 10.46509
235.7870, 44.62402
237.0100, 5.203857
238.2320, 26.04321
239.4550, 4.639160
240.6770, 29.74585
241.8990, 2.171875
243.1210, 7.233398
244.3420, 14.36401
245.5640, 33.53320
246.7850, 7.751465
248.0060, 34.07568
249.2270, 8.716309
250.4480, 7.708984
251.6690, 2.325195
252.8890, 3.007813
254.1090, 4.032715
255.3290, 5.128418
256.5490, 0.3122560
257.7680, 0.3479000
258.9880, 7.600342
260.2070, 8.415527
261.4260, 0.8623050
262.6450, 0.3891600
263.8640, 15.98389
265.0820, 11.45679
266.3000, 26.12427
267.5180, 7.935791
268.7360, 48.70972
269.9540, 43.06201
271.1720, 8.632324
272.3890, 39.67725
273.6060, 49.78540
274.8230, 11.97290
276.0400, 24.21533
277.2560, 48.44800
278.4730, 13.92114
279.6890, 17.66284
280.9050, 5.793701
282.1210, 47.69556
283.3370, 1.135254
284.5520, 9.511719
285.7670, 60.81982
286.9820, 3.046875
288.1970, 37.80298
289.4120, 69.28467
290.6270, 26.33838
291.8410, 23.36255
293.0550, 38.36450
294.2690, 28.34863
295.4830, 44.30225
296.6970, 51.07202
297.9100, 99.15259
299.1230, 56.06323
300.3360, 57.96777
301.5490, 26.86743
302.7620, 86.30322
303.9740, 76.08521
305.1860, 83.02881
306.3990, 102.0520
307.6110, 112.1140
308.8220, 99.17334
310.0340, 160.2148
311.2450, 171.2249
312.4560, 166.1909
313.6670, 200.1023
314.8780, 227.9529
316.0890, 160.7378
317.2990, 222.4546
318.5090, 204.1487
319.7200, 271.7212
320.9290, 197.4150
322.1390, 195.8037
323.3490, 192.0991
324.5580, 161.3130
325.7670, 224.4417
326.9760, 189.4844
328.1850, 201.4424
329.3930, 146.3162
330.6020, 151.1057
331.8100, 173.8098
333.0180, 122.4299
334.2260, 123.9683
335.4340, 137.4207
336.6410, 158.7830
337.8480, 82.05859
339.0550, 81.25073
340.2620, 121.4443
341.4690, 84.41675
342.6760, 151.9429
343.8820, 133.6448
345.0880, 127.3267
346.2940, 93.91333
347.5000, 147.3718
348.7060, 154.7087
349.9110, 107.9604
351.1160, 135.1406
352.3210, 87.25195
353.5260, 138.2876
354.7310, 96.25269
355.9360, 185.1440
357.1400, 144.9514
358.3440, 139.6665
359.5480, 141.2966
360.7520, 144.8213
361.9550, 103.2798
363.1590, 155.6982
364.3620, 100.0630
365.5650, 116.3901
366.7680, 81.47534
367.9710, 149.5569
369.1730, 132.5088
370.3760, 169.1118
371.5780, 150.9456
372.7800, 100.5078
373.9810, 143.1899
375.1830, 126.8247
376.3840, 147.1003
377.5860, 222.5815
378.7870, 143.9219
379.9880, 118.2102
381.1880, 164.5049
382.3890, 134.1692
383.5890, 154.1973
384.7890, 176.9370
385.9890, 170.0505
387.1890, 200.2485
388.3880, 225.8750
389.5880, 228.6548
390.7870, 249.7407
391.9860, 253.3735
393.1850, 316.5730
394.3840, 273.2139
395.5820, 319.8789
396.7800, 444.1785
397.9790, 366.5293
399.1770, 572.9507
400.3740, 651.4329
401.5720, 740.6133
402.7690, 992.9001
403.9670, 1282.646
405.1640, 1614.352
406.3600, 1856.733
407.5570, 2205.964
408.7540, 2634.230
409.9500, 2876.793
411.1460, 3275.447
412.3420, 3627.258
413.5380, 3827.526
414.7330, 3733.162
415.9290, 3443.977
417.1240, 3082.862
418.3190, 2660.130
419.5140, 2007.792
420.7090, 1545.706
421.9030, 1150.080
423.0970, 898.6838
424.2920, 680.7720
425.4860, 553.9302
426.6790, 451.3276
427.8730, 366.9680
429.0660, 237.9783
430.2600, 201.4919
431.4530, 170.3208
432.6460, 240.6262
433.8380, 191.2068
435.0310, 186.5095
436.2230, 137.7996
437.4150, 101.2275
438.6070, 145.5840
439.7990, 137.0867
440.9910, 102.6365
442.1820, 27.39575
443.3730, 134.9834
444.5640, 91.58667
445.7550, 83.00757
446.9460, 95.72583
448.1370, 116.3875
449.3270, 50.06152
450.5170, 19.79736
451.7070, 61.55957
452.8970, 26.24902
454.0870, 22.15210
455.2760, 29.04077
456.4650, 64.92212
457.6550, 50.79858
458.8430, 44.67407
460.0320, 18.54150
461.2210, 2.309570
462.4090, 36.25049
463.5970, 8.915527
464.7850, 17.90405
465.9730, 87.71655
467.1610, 81.51733
468.3480, 62.30127
469.5360, 92.08716
470.7230, 94.86230
471.9100, 76.62744
473.0970, 133.3081
474.2830, 134.9985
475.4700, 168.7354
476.6560, 237.2864
477.8420, 241.8379
479.0280, 256.4373
480.2140, 327.1182
481.3990, 373.4707
482.5850, 503.8132
483.7700, 633.3291
484.9550, 777.6853
486.1400, 911.3220
487.3240, 1075.883
488.5090, 1211.414
489.6930, 1423.804
490.8770, 1563.416
492.0610, 1657.058
493.2450, 1629.503
494.4290, 1589.062
495.6120, 1515.422
496.7950, 1288.996
497.9780, 1115.396
499.1610, 920.0605
500.3440, 777.6689
501.5260, 638.6523
502.7090, 429.8604
503.8910, 437.4875
505.0730, 327.9470
506.2550, 309.6226
507.4360, 194.0796
508.6180, 184.6147
509.7990, 177.0110
510.9800, 198.7002
512.1610, 159.3345
513.3420, 158.2988
514.5230, 101.7512
515.7030, 115.2793
516.8830, 143.9949
518.0630, 106.6511
519.2430, 68.38403
520.4230, 50.12720
521.6020, 78.87646
522.7820, 47.56714
523.9610, 86.33789
525.1400, 26.12207
526.3190, 33.91357
527.4970, 101.7185
528.6760, 50.53027
529.8540, 52.35327
531.0320, 48.18970
532.2100, 7.964844
533.3880, 16.89966
534.5660, 46.22241
535.7430, 5.334473
536.9200, 29.56641
538.0970, 16.48071
539.2740, 19.40552
540.4510, 0.3408200
541.6270, 2.286377
542.8040, 28.24194
543.9800, 43.79150
545.1560, 40.17627
546.3320, 103.1575
547.5080, 7.848633
548.6830, 113.1555
549.8580, 34.17041
551.0340, 71.20044
552.2090, 37.24414
553.3830, 48.30518
554.5580, 77.37939
555.7320, 107.4768
556.9070, 83.59595
558.0810, 70.97681
559.2550, 111.1292
560.4280, 65.44189
561.6020, 107.6494
562.7750, 99.85498
563.9490, 143.0659
565.1220, 124.2905
566.2950, 104.5217
567.4670, 99.76416
568.6400, 172.0435
569.8120, 109.3003
570.9840, 99.56470
572.1560, 179.8586
573.3280, 137.1362
574.5000, 150.1926
575.6710, 181.5249
576.8430, 148.8411
578.0140, 190.1836
579.1850, 134.5056
580.3560, 129.8330
581.5260, 160.1648
582.6970, 75.50195
583.8670, 160.9197
585.0370, 151.2646
586.2070, 94.68921
587.3770, 134.0435
588.5460, 149.6052
589.7160, 145.9668
590.8850, 144.3337
592.0540, 142.5823
593.2230, 129.5286
594.3920, 125.9204
595.5600, 153.4026
596.7290, 146.5789
597.8970, 181.1199
599.0650, 160.6416
600.2330, 182.4976
601.4000, 192.5322
602.5680, 204.9658
603.7350, 256.3848
604.9020, 263.6152
606.0690, 281.2153
607.2360, 289.7131
608.4030, 420.1672
609.5690, 401.3159
610.7360, 459.7974
611.9020, 566.2817
613.0680, 560.8450
614.2340, 665.3562
615.3990, 694.8513
616.5650, 804.4180
617.7300, 803.5579
618.8950, 887.0703
620.0600, 799.5862
621.2250, 715.1040
622.3890, 636.6262
623.5540, 564.2539
624.7180, 546.8000
625.8820, 456.3787
627.0460, 386.8518
628.2100, 395.4441
629.3730, 268.2930
630.5370, 234.8469
631.7000, 192.4031
632.8630, 179.9636
634.0260, 154.5271
635.1890, 124.1538
636.3510, 152.7231
637.5140, 168.3210
638.6760, 151.9148
639.8380, 177.5286
641.0000, 130.1819
642.1610, 115.7778
643.3230, 48.90503
644.4840, 53.75952
645.6450, 67.36182
646.8060, 84.96582
647.9670, 108.4424
649.1280, 136.0530
650.2880, 113.9065
651.4490, 138.5085
652.6090, 242.2593
653.7690, 200.8818
654.9290, 297.5071
656.0880, 208.1343
657.2480, 357.7627
658.4070, 365.9490
659.5660, 617.5791
660.7250, 838.2812
661.8840, 1126.005
663.0430, 1395.637
664.2010, 1805.286
665.3600, 2215.935
666.5180, 2670.584
667.6760, 3243.235
668.8330, 3658.885
669.9910, 3985.536
671.1480, 3751.187
672.3060, 3395.756
673.4630, 2717.406
674.6200, 2102.846
675.7770, 1518.446
676.9330, 1142.095
678.0900, 825.7446
679.2460, 563.3931
680.4020, 499.0354
681.5580, 367.6824
682.7140, 348.3286
683.8690, 310.8762
685.0250, 206.5200
686.1800, 156.1628
687.3350, 195.7222
688.4900, 97.36230
689.6450, 141.0012
690.7990, 137.6384
691.9540, 135.2742
693.1080, 117.9080
694.2620, 30.54028
695.4160, 14.17041
696.5700, 5.201416
697.7230, 34.42236
698.8770, 1.956787
700.0300, 7.660400
701.1830, 64.27490
702.3360, 67.88647
703.4890, 79.49536
704.6410, 17.10156
705.7930, 64.70483
706.9460, 7.305420
708.0980, 54.90259
709.2500, 68.49683
710.4010, 10.08765
711.5530, 57.67480
712.7040, 45.74097
713.8560, 9.815918
715.0070, 17.52637
716.1580, 13.07568
717.3080, 36.62134
718.4590, 49.16284
719.6090, 33.70068
720.7590, 30.31006
721.9090, 2.907715
723.0590, 35.43311
724.2090, 3.954346
725.3590, 32.47070
726.5080, 1.6845999E-02
727.6570, 24.48950
728.8060, 80.34717
729.9550, 4.155273
731.1040, 41.66455
732.2530, 69.14893
733.4010, 7.919678
734.5490, 23.49805
735.6970, 29.04443
736.8450, 44.42749
737.9930, 17.15405
739.1400, 20.76416
740.2880, 15.60815
741.4350, 52.96436
742.5820, 36.76123
743.7290, 11.86084
744.8760, 20.91211
746.0220, 49.15430
747.1690, 16.38354
748.3150, 72.96729
749.4610, 52.37524
750.6070, 26.04175
751.7530, 39.33887
752.8980, 59.79224
754.0440, 28.09131
755.1890, 3.245361
756.3340, 65.49438
757.4790, 79.78442
758.6240, 65.02930
759.7680, 88.25903
760.9130, 1.359375
762.0570, 17.41284
763.2010, 40.97363
764.3450, 0.1662600
765.4890, 39.34375
766.6320, 13.51416
767.7760, 106.6748
768.9190, 89.82837
770.0620, 71.35718
771.2050, 78.49707
772.3480, 36.63721
773.4900, 69.76245
774.6330, 48.58130
775.7750, 53.06470
776.9170, 49.30566
778.0590, 40.40137
779.2010, 62.48926
780.3420, 6.429932
781.4840, 19.62988
782.6250, 74.67944
783.7660, 72.72168
784.9070, 4.756348
786.0480, 54.77563
787.1890, 20.78711
788.3290, 13.21118
789.4690, 25.76562
790.6100, 77.40552
791.7490, 65.72217
792.8890, 74.67651
794.0290, 92.62280
795.1680, 13.56152
796.3080, 167.4873
797.4470, 40.40503
798.5860, 35.31445
799.7250, 105.2148
800.8630, 131.7227
802.0020, 139.6072
803.1400, 137.4836
804.2780, 145.3845
805.4160, 103.4236
806.5540, 146.2759
807.6920, 127.1960
808.8300, 132.4727
809.9670, 183.8599
811.1040, 107.6794
812.2410, 88.49658
813.3780, 87.30591
814.5150, 127.1067
815.6510, 171.8997
816.7880, 149.6846
817.9240, 168.4612
819.0600, 159.2295
820.1960, 166.9897
821.3320, 110.7468
822.4670, 155.4958
823.6030, 113.2366
824.7380, 99.96948
825.8730, 182.6946
827.0080, 159.4111
828.1430, 158.1196
829.2770, 204.8198
830.4120, 132.5122
831.5460, 97.19629
832.6800, 109.8723
833.8140, 230.2915
834.9480, 141.9512
836.0810, 189.4661
837.2150, 150.0911
838.3480, 148.7268
839.4810, 159.3542
840.6140, 206.9736
841.7470, 183.5850
842.8800, 186.0874
844.0120, 180.7527
845.1450, 142.3403
846.2770, 143.9199
847.4090, 103.4666
848.5410, 69.03052
849.6720, 178.8254
850.8040, 1.342041
851.9350, 158.8672
853.0660, 98.36426
854.1970, 145.8789
855.3280, 61.38623
856.4590, 32.88550
857.5900, 34.37671
858.7200, 96.78296
859.8500, 74.25854
860.9800, 69.65112
862.1100, 84.11206
863.2400, 113.3606
864.3700, 17.80640
865.4990, 138.2415
866.6280, 34.77246
867.7570, 121.6194
868.8860, 19.00366
870.0150, 0.2924800
871.1440, 85.87671
872.2720, 47.09253
873.4010, 24.32275
874.5290, 35.24561
875.6570, 32.92358
876.7850, 54.18066
877.9120, 10.50269
879.0400, 26.79492
880.1670, 11.21411
881.2940, 34.87134
882.4210, 38.63086
883.5480, 22.10229
884.6750, 13.08105
885.8020, 4.744141
886.9280, 24.34961
888.0540, 9.490479
889.1800, 19.82715
890.3060, 20.73169
891.4320, 32.21655
892.5580, 14.33643
893.6830, 22.45020
894.8080, 42.55884
895.9330, 7.661621
897.0580, 17.19604
898.1830, 1.780762
899.3080, 51.75708
900.4320, 19.89258
901.5570, 52.90649
902.6810, 54.66138
903.8050, 46.71045
904.9290, 0.2453610
906.0520, 17.79004
907.1760, 13.82129
908.2990, 57.78662
909.4230, 22.19116
910.5460, 17.20703
911.6690, 2.773438
912.7910, 31.73120
913.9140, 40.64697
915.0360, 47.36572
916.1590, 56.05688
917.2810, 42.76562
918.4030, 51.21387
919.5240, 46.68188
920.6460, 46.76489
921.7680, 24.71167
922.8890, 34.41504
924.0100, 16.36841
925.1310, 26.39453
926.2520, 5.311035
927.3730, 66.44165
928.4930, 10.35327
929.6130, 77.26172
930.7340, 92.61108
931.8540, 30.51440
932.9740, 30.34375
934.0930, 81.14941
935.2130, 59.95508
936.3320, 69.90674
937.4520, 88.76758
938.5710, 5.374023
939.6900, 62.47949
940.8090, 22.33130
941.9270, 2.811035
943.0460, 120.0439
944.1640, 63.89648
945.2820, 39.74780
946.4000, 5.597412
947.5180, 84.45459
948.6360, 48.31006
949.7530, 64.16333
950.8710, 85.01538
951.9880, 37.86597
953.1050, 112.7153
954.2220, 73.56372
955.3390, 66.41064
956.4550, 104.2566
957.5720, 65.10107
958.6880, 46.94507
959.8040, 81.78735
960.9200, 72.62915
962.0360, 113.4700
963.1520, 156.3096
964.2670, 88.14893
965.3820, 171.9878
966.4980, 106.8257
967.6130, 164.6633
968.7280, 260.5017
969.8420, 119.3396
970.9570, 163.1782
972.0710, 282.0164
973.1850, 224.8547
974.3000, 282.6929
975.4140, 301.5320
976.5270, 325.3708
977.6410, 343.2100
978.7540, 570.0493
979.8680, 418.8894
980.9810, 571.7295
982.0940, 528.5703
983.2070, 680.4114
984.3200, 875.2651
985.4320, 937.9617
986.5440, 1056.817
987.6570, 1178.673
988.7690, 1336.530
989.8810, 1346.389
990.9920, 1516.173
992.1040, 1706.966
993.2160, 1984.828
994.3270, 2267.692
995.4380, 2600.558
996.5490, 3494.426
997.6600, 4644.296
998.7710, 6476.811
999.8810, 9521.685
1000.991, 14305.23
1002.102, 20179.11
1003.212, 26467.70
1004.322, 33827.48
1005.431, 42172.38
1006.541, 48972.29
1007.651, 50036.15
1008.760, 44214.07
1009.869, 34816.01
1010.978, 25076.96
1012.087, 16605.46
1013.195, 10666.38
1014.304, 6991.902
1015.412, 4891.953
1016.521, 3467.797
1017.629, 2775.745
1018.737, 2118.632
1019.844, 1778.259
1020.952, 1517.257
1022.059, 1280.117
1023.167, 988.1270
1024.274, 982.2803
1025.381, 794.3350
1026.488, 667.3452
1027.594, 693.3994
1028.701, 632.4663
1029.807, 436.3799
1030.913, 435.8960
1032.019, 363.6211
1033.125, 404.7129
1034.231, 254.8130
1035.337, 329.9185
1036.442, 300.0308
1037.548, 255.1479
1038.653, 138.8877
1039.758, 205.0151
1040.863, 195.1401
1041.967, 95.27832
1043.072, 114.7207
1044.176, 151.5063
1045.280, 118.5317
1046.384, 135.9785
1047.488, 96.88135
1048.592, 125.0679
1049.696, 99.26611
1050.799, 93.48193
1051.903, 97.70410
1053.006, 108.9316
1054.109, 60.17969
1055.212, 31.43311
1056.314, 76.69482
1057.417, 26.02979
1058.519, 15.57861
1059.621, 52.50879
1060.724, 137.7998
1061.826, 36.09766
1062.927, 101.4058
1064.029, 44.72266
1065.130, 14.04639
1066.232, 93.37695
1067.333, 94.71777
1068.434, 72.45068
1069.535, 100.0371
1070.636, 74.39893
1071.736, 85.55518
1072.837, 84.52734
1073.937, 40.18896
1075.037, 66.50146
1076.137, 84.89746
1077.237, 42.38330
1078.337, 95.79297
1079.436, 97.26074
1080.535, 163.6846
1081.635, 181.1147
1082.734, 168.1191
1083.833, 136.9966
1084.931, 136.4478
1086.030, 110.9604
1087.128, 107.4253
1088.227, 204.8979
1089.325, 225.3770
1090.423, 231.8633
1091.521, 203.3569
1092.618, 348.8574
1093.716, 249.3652
1094.813, 358.8804
1095.911, 358.4023
1097.008, 380.9316
1098.105, 319.4688
1099.202, 408.0117
1100.298, 485.5635
1101.395, 475.1221
1102.491, 596.6880
1103.587, 574.2612
1104.683, 492.8423
1105.779, 637.4307
1106.875, 718.1938
1107.971, 729.7969
1109.066, 910.4072
1110.161, 977.0273
1111.256, 1090.655
1112.351, 1002.290
1113.446, 1089.932
1114.541, 1053.582
1115.636, 1057.238
1116.730, 974.9033
1117.824, 1015.581
1118.918, 1116.266
1120.012, 1084.972
1121.106, 1055.686
1122.200, 1234.408
1123.293, 1365.136
1124.387, 1504.873
1125.480, 1752.618
1126.573, 2407.516
1127.666, 3030.275
1128.759, 3980.043
1129.851, 5038.818
1130.944, 6230.604
1132.036, 7483.398
1133.128, 8477.212
1134.220, 8948.038
1135.312, 8695.871
1136.404, 7886.486
1137.495, 6706.338
1138.587, 5438.197
1139.678, 4290.064
1140.769, 3367.938
1141.860, 2744.823
1142.951, 2111.716
1144.041, 1638.625
1145.132, 1368.115
1146.222, 1044.050
1147.313, 893.8784
1148.403, 711.8584
1149.493, 594.8452
1150.582, 452.8398
1151.672, 397.9458
1152.761, 361.2461
1153.851, 355.2729
1154.940, 272.3066
1156.029, 218.3545
1157.118, 197.4214
1158.207, 253.4951
1159.295, 250.5747
1160.384, 177.6611
1161.472, 165.7549
1162.560, 136.8608
1163.648, 155.9761
1164.736, 124.1641
1165.824, 85.22412
1166.911, 74.35742
1167.999, 74.49707
1169.086, 30.64307
1170.173, 48.79639
1171.260, 32.95605
1172.347, 89.12207
1173.434, 27.29346
1174.520, 100.3882
1175.606, 36.58594
1176.693, 78.78955
1177.779, 79.24707
1178.865, 63.46191
1179.951, 74.68311
1181.036, 64.19092
1182.122, 85.42236
1183.207, 88.75537
1184.292, 108.9907
1185.377, 102.4492
1186.462, 133.7026
1187.547, 122.9619
1188.632, 89.79053
1189.716, 45.06689
1190.800, 40.98633
1191.885, 50.63672
1192.969, 29.83740
1194.052, 27.15186
1195.136, 48.45361
1196.220, 23.19824
1197.303, 37.88379
1198.387, 16.19922
1199.470, 11.46533
1200.553, 21.87207
1201.636, 108.2144
1202.718, 12.56201
1203.801, 48.08545
1204.883, 63.25391
1205.966, 41.59863
1207.048, 5.052734
1208.130, 44.29883
1209.211, 50.34521
1210.293, 2.997070
1211.375, 14.34326
1212.456, 116.6934
1213.537, 23.04736
1214.618, 140.4058
1215.699, 3.231445
1216.780, 102.1333
1217.861, 27.50244
1218.941, 120.8755
1220.022, 24.25244
1221.102, 104.6328
1222.182, 100.0166
1223.262, 79.40430
1224.342, 55.79541
1225.422, 58.84570
1226.501, 65.58838
1227.580, 63.98975
1228.660, 53.39453
1229.739, 67.84082
1230.818, 118.2520
1231.896, 99.73584
1232.975, 173.1528
1234.054, 116.5737
1235.132, 35.99707
1236.210, 6.576660
1237.288, 34.85107
1238.366, 51.30371
1239.444, 105.2646
1240.521, 40.69971
1241.599, 75.13770
1242.676, 67.57764
1243.753, 112.0200
1244.830, 31.46582
1245.907, 80.91357
1246.984, 69.37646
1248.061, 77.85498
1249.137, 102.6606
1250.214, 39.11719
1251.290, 101.5757
1252.366, 97.03760
1253.442, 65.56934
1254.517, 106.0361
1255.593, 3.495605
1256.668, 47.99561
1257.744, 68.62109
1258.819, 58.28906
1259.894, 131.7778
1260.969, 117.5757
1262.044, 110.0669
1263.118, 123.5601
1264.193, 36.05518
1265.267, 15.44824
1266.341, 29.04150
1267.415, 137.5347
1268.489, 23.02930
1269.563, 42.52490
1270.636, 78.91016
1271.710, 46.45166
1272.783, 53.46729
1273.856, 10.03320
1274.929, 2.723145
1276.002, 62.72461
1277.075, 2.737305
1278.147, 10.19922
1279.220, 9.763672
1280.292, 16.60352
1281.364, 67.15088
1282.436, 38.26562
1283.508, 27.68262
1284.580, 35.09912
1285.652, 100.4487
1286.723, 72.86523
1287.794, 47.28125
1288.865, 25.69678
1289.936, 70.15576
1291.007, 149.5728
1292.078, 93.98926
1293.149, 114.4087
1294.219, 147.8276
1295.289, 81.26953
1296.360, 90.68604
1297.430, 103.1504
1298.499, 121.5649
1299.569, 79.97852
1300.639, 106.3911
1301.708, 94.80225
1302.778, 23.78760
1303.847, 91.60352
1304.916, 146.9927
1305.985, 12.62012
1307.053, 115.7539
1308.122, 85.12500
1309.190, 28.48096
1310.259, 160.8662
1311.327, 69.53955
1312.395, 28.11865
1313.463, 97.20215
1314.531, 19.52246
1315.598, 38.84375
1316.666, 162.1636
1317.733, 91.48096
1318.800, 37.79785
1319.867, 43.10986
1320.934, 4.577637
1322.001, 16.72900
1323.067, 74.03467
1324.134, 63.33984
1325.200, 2.355469
1326.266, 101.9448
1327.333, 143.2446
1328.398, 59.31104
1329.464, 129.6089
1330.530, 51.90576
1331.595, 180.2017
1332.661, 62.62012
1333.726, 53.91357
1334.791, 101.2075
1335.856, 87.41602
1336.921, 102.7061
1337.985, 115.9434
1339.050, 98.01416
1340.114, 79.51562
1341.178, 73.79785
1342.242, 83.07959
1343.306, 74.35986
1344.370, 144.5845
1345.434, 103.8418
1346.497, 57.18018
1347.561, 154.4346
1348.624, 61.68701
1349.687, 129.9355
1350.750, 39.18066
1351.813, 112.4233
1352.876, 79.66406
1353.938, 45.90234
1355.000, 107.1392
1356.063, 62.36670
1357.125, 25.58936
1358.187, 80.80615
1359.249, 21.02148
1360.310, 90.21826
1361.372, 46.41260
1362.433, 98.60498
1363.495, 154.7734
1364.556, 95.77197
1365.617, 32.93604
1366.678, 6.097168
1367.738, 90.25244
1368.799, 82.40430
1369.859, 141.5542
1370.920, 124.4780
1371.980, 77.84375
1373.040, 84.98486
1374.100, 39.12305
1375.159, 36.25879
1376.219, 38.61182
1377.278, 102.5015
1378.338, 134.6113
1379.397, 126.1187
1380.456, 29.27930
1381.515, 67.38184
1382.574, 48.48193
1383.632, 40.43359
1384.691, 22.52783
1385.749, 20.34033
1386.807, 75.34521
1387.865, 18.42969
1388.923, 115.5098
1389.981, 115.5869
1391.039, 123.7769
1392.096, 130.2637
1393.154, 153.1416
1394.211, 103.7202
1395.268, 92.78076
1396.325, 118.8384
1397.382, 3.894043
1398.439, 43.94238
1399.495, 12.78027
1400.552, 135.0288
1401.608, 19.49414
1402.664, 81.52588
1403.720, 146.6831
1404.776, 87.70703
1405.832, 31.73975
1406.887, 18.16895
1407.943, 89.75781
1408.998, 70.49658
1410.053, 138.5078
1411.108, 101.5176
1412.163, 32.47314
1413.218, 136.4482
1414.272, 54.38916
1415.327, 154.3008
1416.381, 41.77148
1417.435, 88.66211
1418.489, 62.54785
1419.543, 135.4497
1420.597, 117.3242
1421.651, 48.19238
1422.704, 92.05322
1423.758, 42.90381
1424.811, 174.7456
1425.864, 136.5771
1426.917, 170.4019
1427.970, 147.1934
1429.023, 155.9775
1430.075, 142.4785
1431.128, 130.4785
1432.180, 124.1558
1433.232, 58.56055
1434.284, 80.18555
1435.336, 47.91992
1436.388, 156.2266
1437.439, 12.85205
1438.491, 111.2329
1439.542, 210.0918
1440.593, 90.24316
1441.644, 156.3892
1442.695, 129.5303
1443.746, 125.7012
1444.797, 139.8252
1445.847, 186.0806
1446.898, 115.1895
1447.948, 183.2935
1448.998, 141.4019
1450.048, 113.5146
1451.098, 150.6226
1452.147, 78.74609
1453.197, 96.86523
1454.246, 136.9790
1455.296, 162.0898
1456.345, 180.1943
1457.394, 155.2944
1458.443, 115.3896
1459.491, 164.4805
1460.540, 246.5669
1461.588, 102.6011
1462.637, 177.5918
1463.685, 135.6621
1464.733, 79.73096
1465.781, 108.0908
1466.829, 79.14551
1467.876, 163.1953
1468.924, 92.24121
1469.971, 96.23047
1471.019, 185.7437
1472.066, 37.72314
1473.113, 129.6021
1474.160, 77.53564
1475.206, 185.0000
1476.253, 74.46777
1477.299, 97.36426
1478.346, 118.2520
1479.392, 137.1411
1480.438, 136.6069
1481.484, 184.4727
1482.529, 137.5220
1483.575, 103.8613
1484.620, 129.7397
1485.666, 92.96729
1486.711, 108.8296
1487.756, 60.71484
1488.801, 201.6934
1489.846, 156.5005
1490.891, 141.2217
1491.935, 125.0005
1492.980, 86.72363
1494.024, 138.3970
1495.068, 144.1499
1496.112, 93.89648
1497.156, 130.6558
1498.200, 118.4307
1499.243, 112.2285
1500.287, 145.9995
1501.330, 75.18408
1502.373, 61.04883
1503.416, 94.90088
1504.459, 7.758301
1505.502, 42.62158
1506.545, 130.4722
1507.587, 177.3091
1508.630, 73.13184
1509.672, 106.9395
1510.714, 102.7314
1511.756, 46.49170
1512.798, 141.2686
1513.840, 88.01416
1514.881, 178.7500
1515.923, 32.47705
1516.964, 165.1860
1518.005, 136.7593
1519.046, 5.542480
1520.087, 109.3325
1521.128, 144.1191
1522.169, 151.8965
1523.209, 120.7144
1524.249, 121.5522
1525.290, 152.4863
1526.330, 119.6050
1527.370, 185.5713
1528.410, 98.66748
1529.449, 104.7817
1530.489, 116.9136
1531.528, 50.06250
1532.568, 196.2412
1533.607, 129.4473
1534.646, 100.6958
1535.685, 159.8667
1536.724, 88.05713
1537.762, 124.5220
1538.801, 47.01025
1539.839, 120.8491
1540.878, 0.2470700
1541.916, 115.5996
1542.954, 114.7441
1543.992, 7.196289
1545.029, 89.74951
1546.067, 123.5420
1547.104, 158.1460
1548.142, 56.01221
1549.179, 137.1250
1550.216, 139.9609
1551.253, 84.70801
1552.290, 113.1978
1553.326, 119.6250
1554.363, 95.48926
1555.399, 142.6074
1556.436, 79.04492
1557.472, 124.4150
1558.508, 56.20850
1559.544, 0.2207030
1560.579, 67.32764
1561.615, 9.0820000E-02
1562.651, 0.0000000E+00
##END=



