##NAMES=Gypsum
##RRUFFID=R060509
##IDEAL CHEMISTRY=CaS^6+^O_4_&#183;2H_2_O
##LOCALITY=Pierre Shale, Hermosa, Custer County, South Dakota, USA
##OWNER=RRUFF
##SOURCE=Michael Scott
##DESCRIPTION=Colorless tabular single crystal
##STATUS=The identification of this mineral has been confirmed by X-ray diffraction and chemical analysis
##URL=rruff.info/R060509
##PIN_ID=L01702
##ORIENTATION=Laser parallel to a* (1 0 0). Fiducial mark perpendicular to laser is parallel to b [0 1 0]
155.8940, 0.0000000E+00
157.1300, 3.947510
158.3650, 75.82886
159.6000, 153.7654
160.8340, 264.5945
162.0690, 360.5198
163.3030, 381.8564
164.5370, 374.3706
165.7710, 439.3154
167.0050, 510.4980
168.2380, 528.4412
169.4720, 610.6865
170.7050, 707.8235
171.9380, 843.4199
173.1700, 1053.897
174.4030, 1180.846
175.6350, 1431.971
176.8680, 1608.721
178.1000, 1752.322
179.3310, 1869.441
180.5630, 2055.620
181.7940, 1895.781
183.0260, 1805.829
184.2570, 1548.092
185.4870, 1264.434
186.7180, 1050.679
187.9480, 775.6697
189.1790, 563.6221
190.4090, 436.3625
191.6390, 338.9568
192.8680, 247.0112
194.0980, 263.9404
195.3270, 204.2947
196.5560, 170.1357
197.7850, 297.8999
199.0140, 342.7852
200.2420, 381.7896
201.4710, 448.8428
202.6990, 388.7668
203.9270, 458.7568
205.1550, 568.8374
206.3820, 531.2959
207.6090, 580.3376
208.8370, 656.5706
210.0640, 594.0098
211.2900, 594.7253
212.5170, 533.4348
213.7440, 528.8940
214.9700, 472.8916
216.1960, 431.7349
217.4220, 333.4424
218.6470, 286.3450
219.8730, 195.3833
221.0980, 202.3989
222.3230, 167.1648
223.5480, 194.4749
224.7730, 126.0701
225.9970, 101.8828
227.2220, 106.5107
228.4460, 78.04883
229.6700, 2.713135
230.8940, 84.21729
232.1170, 58.20459
233.3400, 50.70435
234.5640, 70.69775
235.7870, 9.291504
237.0100, 6.1278999E-02
238.2320, 65.09082
239.4550, 23.82812
240.6770, 17.81030
241.8990, 27.15088
243.1210, 24.93726
244.3420, 8.931885
245.5640, 31.23535
246.7850, 48.93213
248.0060, 1.643555
249.2270, 22.15991
250.4480, 29.47217
251.6690, 9.501953
252.8890, 8.170166
254.1090, 6.740967
255.3290, 21.02563
256.5490, 6.606201
257.7680, 25.26514
258.9880, 17.71436
260.2070, 7.390381
261.4260, 26.09399
262.6450, 40.19043
263.8640, 12.73901
265.0820, 53.52881
266.3000, 24.76489
267.5180, 29.71411
268.7360, 32.39062
269.9540, 16.57935
271.1720, 39.86646
272.3890, 51.13184
273.6060, 47.58374
274.8230, 43.00659
276.0400, 16.46826
277.2560, 21.01172
278.4730, 18.54077
279.6890, 10.85034
280.9050, 15.84644
282.1210, 13.55371
283.3370, 24.67651
284.5520, 30.88208
285.7670, 9.055420
286.9820, 36.01782
288.1970, 5.193848
289.4120, 45.15161
290.6270, 7.080566
291.8410, 9.011230
293.0550, 43.87378
294.2690, 5.749268
295.4830, 56.61597
296.6970, 2.474609
297.9100, 65.31812
299.1230, 3.155518
300.3360, 51.98730
301.5490, 6.185791
302.7620, 102.2122
303.9740, 73.14282
305.1860, 67.60449
306.3990, 90.16528
307.6110, 123.7810
308.8220, 153.4214
310.0340, 191.0649
311.2450, 151.6953
312.4560, 155.3005
313.6670, 105.8691
314.8780, 176.3921
316.0890, 162.8635
317.2990, 190.2783
318.5090, 277.6338
319.7200, 147.9265
320.9290, 234.1536
322.1390, 244.3091
323.3490, 180.3862
324.5580, 267.3806
325.7670, 180.2944
326.9760, 157.1270
328.1850, 189.8777
329.3930, 176.5471
330.6020, 173.3523
331.8100, 181.6184
333.0180, 166.0859
334.2260, 149.4434
335.4340, 155.7241
336.6410, 73.92871
337.8480, 123.0518
339.0550, 98.06592
340.2620, 109.0027
341.4690, 141.7700
342.6760, 162.4329
343.8820, 125.9473
345.0880, 109.3530
346.2940, 66.67554
347.5000, 128.9453
348.7060, 89.14966
349.9110, 143.2483
351.1160, 86.28931
352.3210, 144.2446
353.5260, 137.1079
354.7310, 125.8916
355.9360, 116.6252
357.1400, 127.3296
358.3440, 121.6079
359.5480, 94.53955
360.7520, 118.0000
361.9550, 126.3870
363.1590, 105.7361
364.3620, 128.0635
365.5650, 101.2207
366.7680, 157.3948
367.9710, 95.41089
369.1730, 146.5334
370.3760, 150.3496
371.5780, 131.0562
372.7800, 82.78076
373.9810, 118.2920
375.1830, 80.25049
376.3840, 187.8179
377.5860, 173.1777
378.7870, 183.7241
379.9880, 164.2336
381.1880, 162.7063
382.3890, 118.7266
383.5890, 183.6907
384.7890, 187.9170
385.9890, 236.4773
387.1890, 190.9126
388.3880, 158.9607
389.5880, 225.6523
390.7870, 188.9414
391.9860, 218.3171
393.1850, 300.6812
394.3840, 341.7405
395.5820, 291.7378
396.7800, 407.5222
397.9790, 402.1506
399.1770, 489.8735
400.3740, 632.9639
401.5720, 753.9529
402.7690, 1004.791
403.9670, 1265.122
405.1640, 1632.122
406.3600, 1936.464
407.5570, 2406.318
408.7540, 2665.044
409.9500, 3099.517
411.1460, 3515.734
412.3420, 3845.020
413.5380, 4004.598
414.7330, 4043.193
415.9290, 3792.352
417.1240, 3407.830
418.3190, 2840.557
419.5140, 2133.601
420.7090, 1684.337
421.9030, 1261.620
423.0970, 976.2817
424.2920, 704.4673
425.4860, 566.7314
426.6790, 477.8022
427.8730, 366.1841
429.0660, 292.6309
430.2600, 265.8860
431.4530, 282.4050
432.6460, 181.6482
433.8380, 163.2642
435.0310, 189.5701
436.2230, 69.20020
437.4150, 124.8411
438.6070, 140.1899
439.7990, 67.90405
440.9910, 49.25195
442.1820, 93.02319
443.3730, 101.4202
444.5640, 59.15723
445.7550, 61.24976
446.9460, 53.19800
448.1370, 56.01807
449.3270, 30.80371
450.5170, 92.67212
451.7070, 5.668213
452.8970, 92.73389
454.0870, 64.79321
455.2760, 72.84839
456.4650, 40.89185
457.6550, 16.75903
458.8430, 54.78247
460.0320, 19.79785
461.2210, 85.81348
462.4090, 151.8203
463.5970, 15.81665
464.7850, 35.80518
465.9730, 19.78735
467.1610, 70.77051
468.3480, 84.74463
469.5360, 100.6436
470.7230, 116.6660
471.9100, 141.6140
473.0970, 123.5544
474.2830, 142.4890
475.4700, 201.4292
476.6560, 187.3625
477.8420, 277.2898
479.0280, 263.2109
480.2140, 327.8149
481.3990, 418.6208
482.5850, 538.3179
483.7700, 636.0576
484.9550, 779.9360
486.1400, 934.8381
487.3240, 992.6577
488.5090, 1107.408
489.6930, 1303.981
490.8770, 1427.815
492.0610, 1495.484
493.2450, 1518.383
494.4290, 1484.047
495.6120, 1313.947
496.7950, 1183.833
497.9780, 1008.675
499.1610, 799.4841
500.3440, 690.3425
501.5260, 597.1821
502.7090, 399.9141
503.8910, 339.7507
505.0730, 294.6296
506.2550, 265.4304
507.4360, 235.3511
508.6180, 252.1680
509.7990, 125.1135
510.9800, 106.9260
512.1610, 82.89526
513.3420, 105.8694
514.5230, 18.85034
515.7030, 39.66797
516.8830, 29.65405
518.0630, 41.50439
519.2430, 16.52686
520.4230, 48.44409
521.6020, 20.58105
522.7820, 129.6382
523.9610, 17.70630
525.1400, 59.78735
526.3190, 16.10132
527.4970, 32.98364
528.6760, 5.150879
529.8540, 45.30713
531.0320, 5.528564
532.2100, 9.350342
533.3880, 69.83423
534.5660, 64.02563
535.7430, 2.228271
536.9200, 27.56079
538.0970, 5.335205
539.2740, 38.09619
540.4510, 30.14526
541.6270, 2.603271
542.8040, 5.665039
543.9800, 22.94751
545.1560, 43.05884
546.3320, 23.56421
547.5080, 103.8936
548.6830, 72.24072
549.8580, 61.59448
551.0340, 104.9624
552.2090, 110.3369
553.3830, 158.7188
554.5580, 82.10742
555.7320, 110.5151
556.9070, 146.9373
558.0810, 140.3872
559.2550, 167.5498
560.4280, 197.6545
561.6020, 194.1709
562.7750, 190.7017
563.9490, 204.1882
565.1220, 220.7920
566.2950, 256.3518
567.4670, 295.3928
568.6400, 319.9722
569.8120, 333.1023
570.9840, 337.7566
572.1560, 330.3545
573.3280, 344.9583
574.5000, 311.5686
575.6710, 246.1843
576.8430, 225.8086
578.0140, 209.4946
579.1850, 188.3843
580.3560, 253.7783
581.5260, 176.4626
582.6970, 255.1309
583.8670, 250.9795
585.0370, 301.6580
586.2070, 267.3557
587.3770, 290.1318
588.5460, 247.8298
589.7160, 287.5315
590.8850, 284.2371
592.0540, 325.9463
593.2230, 259.7178
594.3920, 312.5208
595.5600, 349.1155
596.7290, 396.8357
597.8970, 334.5581
599.0650, 370.0181
600.2330, 283.3931
601.4000, 456.6921
602.5680, 348.9622
603.7350, 438.6978
604.9020, 528.8691
606.0690, 501.5088
607.2360, 548.6355
608.4030, 733.4441
609.5690, 744.1931
610.7360, 783.9441
611.9020, 917.6997
613.0680, 1101.512
614.2340, 1120.628
615.3990, 1281.313
616.5650, 1271.157
617.7300, 1408.944
618.8950, 1394.734
620.0600, 1290.525
621.2250, 1293.374
622.3890, 1164.184
623.5540, 1100.076
624.7180, 933.7065
625.8820, 828.4468
627.0460, 727.3320
628.2100, 611.1938
629.3730, 504.1313
630.5370, 416.9241
631.7000, 296.8105
632.8630, 190.9480
634.0260, 121.7952
635.1890, 213.0010
636.3510, 67.83911
637.5140, 126.6785
638.6760, 76.51953
639.8380, 108.3623
641.0000, 111.2065
642.1610, 75.05225
643.3230, 71.89990
644.4840, 84.80908
645.6450, 122.7864
646.8060, 68.21582
647.9670, 105.1311
649.1280, 125.6760
650.2880, 131.5540
651.4490, 97.19800
652.6090, 172.0991
653.7690, 147.3049
654.9290, 242.6108
656.0880, 234.4321
657.2480, 289.3127
658.4070, 336.1936
659.5660, 438.0745
660.7250, 731.7002
661.8840, 851.6538
663.0430, 1156.533
664.2010, 1527.412
665.3600, 1839.342
666.5180, 2205.062
667.6760, 2557.494
668.8330, 2855.814
669.9910, 3086.694
671.1480, 3074.517
672.3060, 2862.280
673.4630, 2443.159
674.6200, 1924.043
675.7770, 1382.926
676.9330, 1017.263
678.0900, 755.1133
679.2460, 623.2756
680.4020, 540.1497
681.5580, 290.0793
682.7140, 217.2092
683.8690, 189.0764
685.0250, 218.9883
686.1800, 173.8501
687.3350, 129.7148
688.4900, 77.57153
689.6450, 39.49365
690.7990, 72.36670
691.9540, 95.22852
693.1080, 83.07324
694.2620, 83.91479
695.4160, 51.75317
696.5700, 34.28125
697.7230, 35.11230
698.8770, 3.060303
700.0300, 22.76001
701.1830, 89.62573
702.3360, 62.46680
703.4890, 40.46680
704.6410, 55.27026
705.7930, 22.93042
706.9460, 34.85107
708.0980, 91.62769
709.2500, 7.555908
710.4010, 63.20605
711.5530, 62.96289
712.7040, 83.71533
713.8560, 48.56689
715.0070, 112.7405
716.1580, 13.47778
717.3080, 97.20996
718.4590, 45.93677
719.6090, 20.50757
720.7590, 26.22388
721.9090, 3.887207
723.0590, 33.59033
724.2090, 29.43311
725.3590, 12.92383
726.5080, 44.60889
727.6570, 74.29517
728.8060, 84.96851
729.9550, 75.63599
731.1040, 20.29785
732.2530, 10.04712
733.4010, 22.40820
734.5490, 50.20825
735.6970, 51.81885
736.8450, 3.577393
737.9930, 1.986328
739.1400, 32.40796
740.2880, 0.1418460
741.4350, 45.67993
742.5820, 2.211670
743.7290, 5.052246
744.8760, 28.54614
746.0220, 23.95312
747.1690, 54.45068
748.3150, 43.95410
749.4610, 138.9343
750.6070, 27.38623
751.7530, 6.461914
752.8980, 35.10400
754.0440, 31.43604
755.1890, 47.83081
756.3340, 106.2188
757.4790, 107.5991
758.6240, 38.87549
759.7680, 84.24121
760.9130, 30.88818
762.0570, 2.238281
763.2010, 0.5734860
764.3450, 1.595459
765.4890, 96.19434
766.6320, 22.48853
767.7760, 55.77441
768.9190, 37.05249
770.0620, 14.32202
771.2050, 47.58130
772.3480, 12.83325
773.4900, 55.07300
774.6330, 118.3054
775.7750, 57.53003
776.9170, 86.74683
778.0590, 129.9561
779.2010, 71.15747
780.3420, 88.35083
781.4840, 39.80322
782.6250, 25.97632
783.7660, 54.85571
784.9070, 47.20972
786.0480, 10.32275
787.1890, 104.4209
788.3290, 40.42041
789.4690, 51.62842
790.6100, 19.66895
791.7490, 16.69824
792.8890, 11.28516
794.0290, 68.70654
795.1680, 135.6899
796.3080, 92.66455
797.4470, 82.63086
798.5860, 38.59521
799.7250, 94.54980
800.8630, 86.49609
802.0020, 43.43457
803.1400, 36.66309
804.2780, 31.41553
805.4160, 17.47266
806.5540, 63.34814
807.6920, 55.21533
808.8300, 145.0327
809.9670, 72.90332
811.1040, 99.95947
812.2410, 63.79395
813.3780, 103.6196
814.5150, 50.43945
815.6510, 29.25098
816.7880, 93.05664
817.9240, 36.85352
819.0600, 24.64160
820.1960, 78.41895
821.3320, 45.18701
822.4670, 94.94678
823.6030, 54.69873
824.7380, 81.44189
825.8730, 39.17676
827.0080, 49.90234
828.1430, 51.62012
829.2770, 85.32910
830.4120, 65.02979
831.5460, 80.72217
832.6800, 6.593262
833.8140, 76.06787
834.9480, 97.72119
836.0810, 122.0688
837.2150, 40.70605
838.3480, 45.33545
839.4810, 24.95703
840.6140, 74.56885
841.7470, 97.17285
842.8800, 82.29492
844.0120, 92.88428
845.1450, 38.46533
846.2770, 133.4321
847.4090, 114.9985
848.5410, 135.5571
849.6720, 26.10938
850.8040, 13.65283
851.9350, 56.18506
853.0660, 83.65820
854.1970, 86.17578
855.3280, 3.687012
856.4590, 91.15186
857.5900, 14.36768
858.7200, 56.92090
859.8500, 1.378906
860.9800, 131.8101
862.1100, 43.16357
863.2400, 40.59180
864.3700, 42.01367
865.4990, 44.42822
866.6280, 81.83691
867.7570, 72.45068
868.8860, 89.48633
870.0150, 82.99756
871.1440, 86.56006
872.2720, 111.7563
873.4010, 54.39209
874.5290, 104.1099
875.6570, 54.89941
876.7850, 30.71484
877.9120, 38.06104
879.0400, 8.968262
880.1670, 28.40381
881.2940, 20.34766
882.4210, 18.60742
883.5480, 27.92334
884.6750, 0.7651370
885.8020, 75.53564
886.9280, 18.22363
888.0540, 68.70410
889.1800, 43.93994
890.3060, 21.24121
891.4320, 110.4756
892.5580, 45.70557
893.6830, 41.06934
894.8080, 104.0845
895.9330, 0.2763670
897.0580, 57.38232
898.1830, 38.74854
899.3080, 16.00195
900.4320, 16.10889
901.5570, 51.27588
902.6810, 33.32324
903.8050, 47.48291
904.9290, 58.40674
906.0520, 56.51025
907.1760, 66.56689
908.2990, 68.34277
909.4230, 52.48486
910.5460, 57.62354
911.6690, 86.75879
912.7910, 18.89160
913.9140, 132.0205
915.0360, 34.14648
916.1590, 20.72998
917.2810, 16.67578
918.4030, 9.303223
919.5240, 50.17090
920.6460, 3.854980
921.7680, 56.25000
922.8890, 2.689453
924.0100, 50.60352
925.1310, 67.63721
926.2520, 27.36475
927.3730, 64.21533
928.4930, 51.09961
929.6130, 84.14795
930.7340, 76.22363
931.8540, 14.24072
932.9740, 46.28467
934.0930, 49.25439
935.2130, 2.295898
936.3320, 27.33691
937.4520, 30.67578
938.5710, 45.26611
939.6900, 6.043457
940.8090, 69.63379
941.9270, 22.66162
943.0460, 27.31592
944.1640, 1.297852
945.2820, 32.27393
946.4000, 32.73730
947.5180, 25.18408
948.6360, 43.76025
949.7530, 52.74219
950.8710, 79.59766
951.9880, 102.6162
953.1050, 83.27588
954.2220, 121.3096
955.3390, 46.32861
956.4550, 46.30176
957.5720, 39.32129
958.6880, 39.33691
959.8040, 35.35840
960.9200, 86.31201
962.0360, 189.3125
963.1520, 194.3218
964.2670, 144.3457
965.3820, 184.3711
966.4980, 135.4082
967.6130, 198.7676
968.7280, 289.8418
969.8420, 209.9297
970.9570, 160.0342
972.0710, 226.0913
973.1850, 278.1699
974.3000, 339.0869
975.4140, 341.1982
976.5270, 430.3105
977.6410, 434.1826
978.7540, 404.5781
979.8680, 476.6719
980.9810, 483.8145
982.0940, 524.1489
983.2070, 768.1069
984.3200, 720.1514
985.4320, 924.8716
986.5440, 1098.025
987.6570, 1072.182
988.7690, 1297.341
989.8810, 1318.653
990.9920, 1577.817
992.1040, 1767.032
993.2160, 2061.204
994.3270, 2394.434
995.4380, 2799.608
996.5490, 3408.791
997.6600, 4600.966
998.7710, 6456.154
999.8810, 9296.347
1000.991, 14102.54
1002.102, 20269.74
1003.212, 26344.96
1004.322, 33330.19
1005.431, 40362.42
1006.541, 46062.65
1007.651, 47672.89
1008.760, 45030.13
1009.869, 37437.40
1010.978, 27883.67
1012.087, 18846.95
1013.195, 11949.01
1014.304, 7773.305
1015.412, 5260.592
1016.521, 3925.880
1017.629, 2919.201
1018.737, 2305.967
1019.844, 1938.296
1020.952, 1642.000
1022.059, 1314.341
1023.167, 1167.561
1024.274, 991.9238
1025.381, 835.2920
1026.488, 780.6650
1027.594, 673.1396
1028.701, 650.5234
1029.807, 594.6235
1030.913, 484.0220
1032.019, 384.4297
1033.125, 319.8477
1034.231, 372.2749
1035.337, 292.7085
1036.442, 388.1479
1037.548, 269.5933
1038.653, 174.0435
1039.758, 306.5015
1040.863, 178.9648
1041.967, 202.4355
1043.072, 101.9121
1044.176, 96.72461
1045.280, 153.8950
1046.384, 97.38916
1047.488, 116.8882
1048.592, 139.3940
1049.696, 22.63867
1050.799, 98.16064
1051.903, 181.6914
1053.006, 138.3062
1054.109, 106.8721
1055.212, 86.44775
1056.314, 144.9604
1057.417, 53.56445
1058.519, 171.1748
1059.621, 83.79443
1060.724, 117.4224
1061.826, 7.065918
1062.927, 174.7158
1064.029, 287.3716
1065.130, 159.0342
1066.232, 124.7036
1067.333, 122.3794
1068.434, 66.06250
1069.535, 202.7520
1070.636, 136.1489
1071.736, 138.8525
1072.837, 258.2915
1073.937, 163.0249
1075.037, 174.7646
1076.137, 142.5532
1077.237, 148.7832
1078.337, 154.0933
1079.436, 218.8501
1080.535, 182.6270
1081.635, 263.4092
1082.734, 300.1992
1083.833, 172.5664
1084.931, 282.3701
1086.030, 344.1821
1087.128, 215.0020
1088.227, 272.8286
1089.325, 367.6616
1090.423, 237.5020
1091.521, 344.3491
1092.618, 412.2031
1093.716, 419.0640
1094.813, 426.9326
1095.911, 400.8076
1097.008, 468.6899
1098.105, 587.0371
1099.202, 597.3159
1100.298, 659.8652
1101.395, 704.5776
1102.491, 721.7241
1103.587, 758.6528
1104.683, 825.4946
1105.779, 942.5283
1106.875, 1019.477
1107.971, 1116.431
1109.066, 1321.728
1110.161, 1338.227
1111.256, 1339.198
1112.351, 1444.177
1113.446, 1626.160
1114.541, 1593.150
1115.636, 1628.146
1116.730, 1618.147
1117.824, 1537.157
1118.918, 1533.210
1120.012, 1457.231
1121.106, 1344.260
1122.200, 1401.298
1123.293, 1525.342
1124.387, 1486.401
1125.480, 1590.465
1126.573, 1981.539
1127.666, 2511.630
1128.759, 3103.726
1129.851, 3902.827
1130.944, 4752.935
1132.036, 5517.208
1133.128, 6363.011
1134.220, 6729.156
1135.312, 6818.309
1136.404, 6384.464
1137.495, 5570.626
1138.587, 4818.793
1139.678, 4079.965
1140.769, 3271.143
1141.860, 2546.325
1142.951, 2158.515
1144.041, 1714.707
1145.132, 1477.200
1146.222, 1179.421
1147.313, 967.6304
1148.403, 787.5454
1149.493, 733.7646
1150.582, 611.9912
1151.672, 451.2227
1152.761, 469.4663
1153.851, 372.7144
1154.940, 377.9810
1156.029, 266.2520
1157.118, 205.5269
1158.207, 241.8066
1159.295, 312.1035
1160.384, 278.4043
1161.472, 223.7505
1162.560, 172.0620
1163.648, 103.3774
1164.736, 122.6978
1165.824, 131.0220
1166.911, 119.3501
1167.999, 185.6821
1169.086, 67.01953
1170.173, 86.36035
1171.260, 20.70557
1172.347, 115.0542
1173.434, 128.4067
1174.520, 0.2368160
1175.606, 198.1230
1176.693, 11.48682
1177.779, 53.85400
1178.865, 109.2251
1179.951, 107.5991
1181.036, 123.9829
1182.122, 27.96484
1183.207, 126.8525
1184.292, 152.2642
1185.377, 39.67920
1186.462, 125.0977
1187.547, 80.52002
1188.632, 88.94434
1189.716, 38.53271
1190.800, 138.9639
1191.885, 59.40234
1192.969, 81.83936
1194.052, 154.2788
1195.136, 55.72070
1196.220, 62.16553
1197.303, 4.612793
1198.387, 58.06250
1199.470, 87.56592
1200.553, 7.020508
1201.636, 78.48291
1202.718, 19.05127
1203.801, 66.40918
1204.883, 39.87207
1205.966, 8.403320
1207.048, 28.12500
1208.130, 45.46973
1209.211, 82.14014
1210.293, 110.6338
1211.375, 58.10742
1212.456, 49.58301
1213.537, 31.94043
1214.618, 81.52490
1215.699, 36.99512
1216.780, 53.46729
1217.861, 9.940918
1218.941, 32.41602
1220.022, 60.89307
1221.102, 101.3716
1222.182, 47.85156
1223.262, 95.33496
1224.342, 168.8232
1225.422, 42.32080
1226.501, 46.81982
1227.580, 42.68018
1228.660, 57.14990
1229.739, 76.93408
1230.818, 47.33789
1231.896, 53.94922
1232.975, 6.418457
1234.054, 135.7920
1235.132, 56.17090
1236.210, 80.63770
1237.288, 103.0205
1238.366, 38.59473
1239.444, 9.229492
1240.521, 65.13037
1241.599, 23.49121
1242.676, 62.85254
1243.753, 78.21484
1244.830, 67.57617
1245.907, 107.9385
1246.984, 62.30127
1248.061, 1.664063
1249.137, 58.02588
1250.214, 65.79053
1251.290, 103.1523
1252.366, 77.51465
1253.442, 60.87744
1254.517, 52.23926
1255.593, 42.60107
1256.668, 74.36377
1257.744, 67.72510
1258.819, 54.10986
1259.894, 38.68896
1260.969, 1.653809
1262.044, 20.79443
1263.118, 38.58691
1264.193, 45.92871
1265.267, 90.26953
1266.341, 101.6099
1267.415, 52.94922
1268.489, 89.28711
1269.563, 71.62891
1270.636, 110.9688
1271.710, 60.40088
1272.783, 50.73828
1273.856, 12.92578
1274.929, 15.39697
1276.002, 52.71777
1277.075, 2.962402
1278.147, 29.96924
1279.220, 28.33496
1280.292, 30.96387
1281.364, 53.26855
1282.436, 53.57178
1283.508, 88.87207
1284.580, 91.87451
1285.652, 65.46777
1286.723, 107.7622
1287.794, 54.05371
1288.865, 52.34326
1289.936, 6.370117
1291.007, 56.96045
1292.078, 134.2324
1293.149, 117.5020
1294.219, 89.76904
1295.289, 122.7754
1296.360, 85.31885
1297.430, 118.7666
1298.499, 112.0220
1299.569, 83.27393
1300.639, 66.53369
1301.708, 61.78271
1302.778, 36.02832
1303.847, 132.3228
1304.916, 80.56201
1305.985, 169.7974
1307.053, 55.02930
1308.122, 146.2573
1309.190, 116.4810
1310.259, 12.29980
1311.327, 5.902832
1312.395, 101.0938
1313.463, 94.36670
1314.531, 94.62109
1315.598, 101.8213
1316.666, 95.04199
1317.733, 16.22217
1318.800, 96.39990
1319.867, 39.57520
1320.934, 162.8926
1322.001, 196.0630
1323.067, 96.23145
1324.134, 127.3970
1325.200, 75.55859
1326.266, 79.71826
1327.333, 31.87500
1328.398, 86.02930
1329.464, 154.1816
1330.530, 88.33105
1331.595, 129.7637
1332.661, 48.93994
1333.726, 30.08203
1334.791, 51.22070
1335.856, 20.58350
1336.921, 17.24609
1337.985, 41.37646
1339.050, 111.5039
1340.114, 151.6294
1341.178, 191.7524
1342.242, 205.5420
1343.306, 214.1753
1344.370, 191.4634
1345.434, 184.5752
1346.497, 135.6841
1347.561, 76.87988
1348.624, 153.9697
1349.687, 95.09375
1350.750, 191.6089
1351.813, 199.7007
1352.876, 119.4888
1353.938, 109.5337
1355.000, 114.6816
1356.063, 176.2612
1357.125, 156.9141
1358.187, 215.3330
1359.249, 103.5864
1360.310, 181.2202
1361.372, 59.03857
1362.433, 164.3960
1363.495, 24.66260
1364.556, 86.91943
1365.617, 63.30225
1366.678, 69.04932
1367.738, 171.6191
1368.799, 71.72314
1369.859, 114.7261
1370.920, 97.72607
1371.980, 126.7227
1373.040, 110.7173
1374.100, 85.70947
1375.159, 58.69922
1376.219, 241.6499
1377.278, 4.634277
1378.338, 103.6147
1379.397, 221.5923
1380.456, 66.56641
1381.515, 75.53857
1382.574, 182.5083
1383.632, 27.52393
1384.691, 69.43164
1385.749, 44.52100
1386.807, 13.47119
1387.865, 1.418457
1388.923, 55.79688
1389.981, 40.46240
1391.039, 108.4297
1392.096, 92.33545
1393.154, 143.8647
1394.211, 136.6099
1395.268, 136.0303
1396.325, 114.8091
1397.382, 55.65918
1398.439, 30.50684
1399.495, 172.3506
1400.552, 109.1548
1401.608, 56.63965
1402.664, 140.3867
1403.720, 76.17773
1404.776, 64.23779
1405.832, 56.98291
1406.887, 127.7212
1407.943, 88.78906
1408.998, 92.18066
1410.053, 59.90869
1411.108, 99.62207
1412.163, 82.32812
1413.218, 150.0234
1414.272, 91.71094
1415.327, 84.38867
1416.381, 69.05713
1417.435, 40.67773
1418.489, 215.3032
1419.543, 64.12891
1420.597, 145.7368
1421.651, 122.3359
1422.704, 48.92725
1423.758, 17.50977
1424.811, 89.08398
1425.864, 168.6958
1426.917, 53.91455
1427.970, 138.6030
1429.023, 72.14258
1430.075, 40.70361
1431.128, 103.2173
1432.180, 76.32129
1433.232, 124.1587
1434.284, 133.5562
1435.336, 142.9175
1436.388, 207.3750
1437.439, 118.2866
1438.491, 123.7017
1439.542, 35.64990
1440.593, 39.65967
1441.644, 52.36377
1442.695, 47.28662
1443.746, 65.20801
1444.797, 88.12305
1445.847, 138.0317
1446.898, 24.87988
1447.948, 129.7759
1448.998, 230.6733
1450.048, 130.4902
1451.098, 113.0166
1452.147, 106.8784
1453.197, 149.7583
1454.246, 117.6440
1455.296, 101.5181
1456.345, 114.3862
1457.394, 126.2476
1458.443, 53.09229
1459.491, 102.9072
1460.540, 125.7280
1461.588, 196.6157
1462.637, 103.5620
1463.685, 119.4961
1464.733, 71.30713
1465.781, 135.2275
1466.829, 132.1641
1467.876, 31.09668
1468.924, 2.4413999E-02
1469.971, 51.94922
1471.019, 117.3286
1472.066, 145.2417
1473.113, 44.15088
1474.160, 165.7017
1475.206, 54.53027
1476.253, 6.211426
1477.299, 8.067871
1478.346, 19.15137
1479.392, 122.4941
1480.438, 33.26074
1481.484, 104.8760
1482.529, 121.6265
1483.575, 53.39209
1484.620, 55.16113
1485.666, 20.06641
1486.711, 3.455566
1487.756, 11.99072
1488.801, 15.24414
1489.846, 16.01318
1490.891, 7.162598
1491.935, 44.47949
1492.980, 40.26465
1494.024, 38.66846
1495.068, 84.45508
1496.112, 131.2188
1497.156, 135.8779
1498.200, 169.6626
1499.243, 155.4556
1500.287, 82.25830
1501.330, 91.10693
1502.373, 136.6543
1503.416, 193.3906
1504.459, 122.2305
1505.502, 150.4243
1506.545, 198.5767
1507.587, 102.4004
1508.630, 157.2227
1509.672, 117.0386
1510.714, 35.84912
1511.756, 107.5776
1512.798, 132.3770
1513.840, 161.1655
1514.881, 125.9478
1515.923, 58.35889
1516.964, 69.99414
1518.005, 198.6982
1519.046, 89.17822
1520.087, 134.5879
1521.128, 4.720215
1522.169, 74.65039
1523.209, 216.3306
1524.249, 164.8545
1525.290, 85.91309
1526.330, 87.98682
1527.370, 153.0947
1528.410, 46.62207
1529.449, 52.31934
1530.489, 218.3242
1531.528, 76.27344
1532.568, 175.1572
1533.607, 91.97754
1534.646, 52.72412
1535.685, 98.38721
1536.724, 96.95020
1537.762, 92.74023
1538.801, 103.6992
1539.839, 97.68701
1540.878, 100.0625
1541.916, 71.05127
1542.954, 71.65918
1543.992, 7.468750
1545.029, 67.72949
1546.067, 47.92090
1547.104, 92.21094
1548.142, 122.4868
1549.179, 171.5957
1550.216, 34.67334
1551.253, 5.274414
1552.290, 14.75586
1553.326, 95.05566
1554.363, 35.78174
1555.399, 117.1406
1556.436, 148.4863
1557.472, 105.4365
1558.508, 131.6704
1559.544, 79.92334
1560.579, 4.272461
1561.615, 0.1557620
1562.651, 0.0000000E+00
##END=



