##NAMES=Gypsum
##RRUFFID=R060509
##IDEAL CHEMISTRY=CaS^6+^O_4_&#183;2H_2_O
##LOCALITY=Pierre Shale, Hermosa, Custer County, South Dakota, USA
##OWNER=RRUFF
##SOURCE=Michael Scott
##DESCRIPTION=Colorless tabular single crystal
##STATUS=The identification of this mineral has been confirmed by X-ray diffraction and chemical analysis
##URL=rruff.info/R060509
##PIN_ID=L01702
##ORIENTATION=Laser parallel to a* (1 0 0). Fiducial mark perpendicular to laser is parallel to b [0 1 0]
189.1790, 0.0000000E+00
190.4090, 18.53711
191.6390, 1.105469
192.8680, 14.32422
194.0980, 53.11963
195.3270, 80.86060
196.5560, 78.41504
197.7850, 123.5142
199.0140, 194.8970
200.2420, 288.5024
201.4710, 361.9453
202.6990, 470.7224
203.9270, 429.2461
205.1550, 565.0029
206.3820, 555.0532
207.6090, 641.4480
208.8370, 721.3425
210.0640, 635.6785
211.2900, 682.2817
212.5170, 642.0020
213.7440, 622.9011
214.9700, 534.5811
216.1960, 418.8230
217.4220, 364.1599
218.6470, 290.3811
219.8730, 307.6438
221.0980, 198.1399
222.3230, 208.6145
223.5480, 173.2183
224.7730, 127.4683
225.9970, 118.7085
227.2220, 91.72778
228.4460, 86.89648
229.6700, 97.68701
230.8940, 66.78394
232.1170, 59.85522
233.3400, 45.46997
234.5640, 23.64771
235.7870, 17.02295
237.0100, 8.282227
238.2320, 1.561768
239.4550, 23.50684
240.6770, 23.31787
241.8990, 54.13818
243.1210, 49.56421
244.3420, 32.74414
245.5640, 45.55835
246.7850, 31.17993
248.0060, 31.94800
249.2270, 13.41870
250.4480, 12.05688
251.6690, 20.49634
252.8890, 1.036865
254.1090, 9.395752
255.3290, 8.193848
256.5490, 9.201660
257.7680, 37.60278
258.9880, 64.08350
260.2070, 95.90503
261.4260, 23.21045
262.6450, 69.60229
263.8640, 49.94287
265.0820, 66.66626
266.3000, 11.11841
267.5180, 68.56348
268.7360, 46.84448
269.9540, 4.269775
271.1720, 18.14160
272.3890, 70.39575
273.6060, 3.689453
274.8230, 35.44751
276.0400, 1.785400
277.2560, 60.82251
278.4730, 38.86865
279.6890, 55.92065
280.9050, 7.985352
282.1210, 44.04639
283.3370, 23.16650
284.5520, 27.22754
285.7670, 25.28149
286.9820, 70.32300
288.1970, 18.36304
289.4120, 81.39795
290.6270, 32.42773
291.8410, 58.45215
293.0550, 99.46826
294.2690, 15.45337
295.4830, 72.42236
296.6970, 16.37988
297.9100, 64.33643
299.1230, 93.29053
300.3360, 97.24219
301.5490, 62.18701
302.7620, 77.12109
303.9740, 95.02148
305.1860, 64.90845
306.3990, 64.78101
307.6110, 93.64966
308.8220, 80.50879
310.0340, 137.3625
311.2450, 124.2119
312.4560, 105.0581
313.6670, 82.90259
314.8780, 72.74634
316.0890, 91.58789
317.2990, 105.4292
318.5090, 117.2720
319.7200, 132.1172
320.9290, 122.2551
322.1390, 91.10156
323.3490, 83.45508
324.5580, 84.26074
325.7670, 61.10156
326.9760, 103.9456
328.1850, 47.79199
329.3930, 66.64160
330.6020, 4.506104
331.8100, 67.34912
333.0180, 92.20337
334.2260, 48.94214
335.4340, 24.61548
336.6410, 32.71875
337.8480, 18.41870
339.0550, 3.685059
340.2620, 20.17480
341.4690, 5.058105
342.6760, 46.03516
343.8820, 38.10522
345.0880, 33.15039
346.2940, 47.83105
347.5000, 46.14404
348.7060, 24.91260
349.9110, 1.992432
351.1160, 64.86475
352.3210, 44.70410
353.5260, 2.512939
354.7310, 23.70752
355.9360, 16.60229
357.1400, 73.73535
358.3440, 11.60815
359.5480, 39.98511
360.7520, 5.542480
361.9550, 102.0737
363.1590, 72.57935
364.3620, 56.05933
365.5650, 56.50928
366.7680, 66.89331
367.9710, 51.23755
369.1730, 51.20215
370.3760, 74.88086
371.5780, 44.18555
372.7800, 49.47827
373.9810, 64.75464
375.1830, 34.99829
376.3840, 50.14966
377.5860, 70.23291
378.7870, 87.22314
379.9880, 70.06104
381.1880, 73.80908
382.3890, 88.57275
383.5890, 67.82642
384.7890, 37.61548
385.9890, 72.15430
387.1890, 100.1111
388.3880, 195.0437
389.5880, 189.8884
390.7870, 213.8132
391.9860, 200.6582
393.1850, 204.5657
394.3840, 174.2515
395.5820, 206.9250
396.7800, 271.0215
397.9790, 337.3484
399.1770, 412.6062
400.3740, 476.9019
401.5720, 610.5669
402.7690, 722.4634
403.9670, 873.4722
405.1640, 1164.533
406.3600, 1448.342
407.5570, 1683.317
408.7540, 1897.507
409.9500, 2099.110
411.1460, 2281.618
412.3420, 2423.544
413.5380, 2643.336
414.7330, 2538.899
415.9290, 2387.613
417.1240, 2133.463
418.3190, 1767.411
419.5140, 1399.060
420.7090, 1032.900
421.9030, 801.7007
423.0970, 644.4033
424.2920, 423.1968
425.4860, 398.4277
426.6790, 271.1821
427.8730, 185.7844
429.0660, 163.4338
430.2600, 94.12256
431.4530, 114.9614
432.6460, 74.54761
433.8380, 86.49146
435.0310, 65.29077
436.2230, 131.0991
437.4150, 47.08057
438.6070, 59.70264
439.7990, 98.66040
440.9910, 69.32275
442.1820, 55.25903
443.3730, 62.26929
444.5640, 45.29834
445.7550, 33.23804
446.9460, 25.25659
448.1370, 23.27832
449.3270, 9.735107
450.5170, 102.2559
451.7070, 105.2854
452.8970, 28.31836
454.0870, 73.35449
455.2760, 15.60620
456.4650, 99.43433
457.6550, 25.52075
458.8430, 12.52368
460.0320, 69.57129
461.2210, 69.62207
462.4090, 105.6765
463.5970, 98.73389
464.7850, 95.79346
465.9730, 84.85645
467.1610, 67.92041
468.3480, 132.9829
469.5360, 140.0469
470.7230, 184.1167
471.9100, 83.13794
473.0970, 142.2148
474.2830, 187.5742
475.4700, 234.6577
476.6560, 275.7490
477.8420, 279.3865
479.0280, 332.3459
480.2140, 375.3401
481.3990, 571.9165
482.5850, 663.7646
483.7700, 744.2441
484.9550, 857.6772
486.1400, 1003.729
487.3240, 1156.748
488.5090, 1277.745
489.6930, 1341.740
490.8770, 1381.570
492.0610, 1386.791
493.2450, 1356.788
494.4290, 1319.719
495.6120, 1216.772
496.7950, 1091.633
497.9780, 970.9634
499.1610, 810.7563
500.3440, 602.8494
501.5260, 481.9727
502.7090, 390.0259
503.8910, 272.9380
505.0730, 223.0356
506.2550, 185.1345
507.4360, 203.2346
508.6180, 186.3367
509.7990, 167.4404
510.9800, 137.5461
512.1610, 57.68286
513.3420, 88.79321
514.5230, 36.98682
515.7030, 80.02710
516.8830, 24.15576
518.0630, 0.2512210
519.2430, 68.39404
520.4230, 16.54028
521.6020, 63.69019
522.7820, 35.84912
523.9610, 10.98169
525.1400, 9.196045
526.3190, 58.38184
527.4970, 31.43115
528.6760, 65.75635
529.8540, 20.94775
531.0320, 128.1431
532.2100, 10.34253
533.3880, 21.54565
534.5660, 5.246582
535.7430, 58.96436
536.9200, 109.1882
538.0970, 5.416748
539.2740, 65.65698
540.4510, 116.9036
541.6270, 72.15576
542.8040, 10.42310
543.9800, 127.7009
545.1560, 74.98315
546.3320, 132.2690
547.5080, 56.55762
548.6830, 101.8511
549.8580, 125.1482
551.0340, 119.4492
552.2090, 91.75439
553.3830, 187.0649
554.5580, 110.3804
555.7320, 234.7000
556.9070, 148.0293
558.0810, 188.3716
559.2550, 136.7258
560.4280, 185.0879
561.6020, 197.4646
562.7750, 258.8496
563.9490, 286.2383
565.1220, 309.0134
566.2950, 358.4221
567.4670, 355.1394
568.6400, 370.2349
569.8120, 354.6482
570.9840, 385.0659
572.1560, 378.5564
573.3280, 451.9824
574.5000, 372.4404
575.6710, 430.8728
576.8430, 484.2795
578.0140, 448.7102
579.1850, 518.1567
580.3560, 491.8623
581.5260, 486.3650
582.6970, 467.8254
583.8670, 521.6938
585.0370, 549.1689
586.2070, 493.6467
587.3770, 582.1685
588.5460, 611.6653
589.7160, 610.1646
590.8850, 550.4019
592.0540, 681.9180
593.2230, 575.4246
594.3920, 556.9338
595.5600, 665.4448
596.7290, 608.4937
597.8970, 699.2288
599.0650, 751.8540
600.2330, 751.3760
601.4000, 881.9001
602.5680, 817.4268
603.7350, 880.9553
604.9020, 914.4858
606.0690, 1096.019
607.2360, 1182.553
608.4030, 1252.090
609.5690, 1449.682
610.7360, 1519.224
611.9020, 1783.774
613.0680, 1917.325
614.2340, 2013.879
615.3990, 2043.438
616.5650, 2252.004
617.7300, 2291.585
618.8950, 2412.182
620.0600, 2366.985
621.2250, 2059.596
622.3890, 2155.278
623.5540, 1855.198
624.7180, 1669.853
625.8820, 1405.592
627.0460, 1177.243
628.2100, 985.9048
629.3730, 816.7788
630.5370, 671.6528
631.7000, 602.3330
632.8630, 478.1133
634.0260, 387.8613
635.1890, 283.5542
636.3510, 229.6846
637.5140, 196.0461
638.6760, 159.6353
639.8380, 192.4382
641.0000, 193.1584
642.1610, 224.8884
643.3230, 82.61475
644.4840, 93.34277
645.6450, 88.07129
646.8060, 35.80078
647.9670, 42.53076
649.1280, 105.2612
650.2880, 60.99683
651.4490, 2.269531
652.6090, 61.46753
653.7690, 39.20166
654.9290, 82.58105
656.0880, 158.3967
657.2480, 118.2300
658.4070, 139.8281
659.5660, 226.5635
660.7250, 211.3650
661.8840, 402.1953
663.0430, 490.1453
664.2010, 657.8647
665.3600, 787.7983
666.5180, 818.5312
667.6760, 939.5190
668.8330, 1075.251
669.9910, 1030.982
671.1480, 1193.713
672.3060, 931.4421
673.4630, 825.2085
674.6200, 608.8823
675.7770, 560.4241
676.9330, 377.1499
678.0900, 320.8750
679.2460, 264.5984
680.4020, 180.4023
681.5580, 170.7527
682.7140, 103.7266
683.8690, 55.49194
685.0250, 102.2849
686.1800, 41.99902
687.3350, 117.7883
688.4900, 34.50000
689.6450, 97.20947
690.7990, 89.04883
691.9540, 143.7544
693.1080, 100.6570
694.2620, 60.35864
695.4160, 49.05835
696.5700, 19.75562
697.7230, 25.26685
698.8770, 28.95947
700.0300, 10.85791
701.1830, 19.54541
702.3360, 18.16602
703.4890, 8.080322
704.6410, 6.606934
705.7930, 61.27905
706.9460, 18.94824
708.0980, 22.61426
709.2500, 53.27734
710.4010, 6.2743999E-02
711.5530, 23.59326
712.7040, 5.787354
713.8560, 16.86377
715.0070, 16.22705
716.1580, 32.30835
717.3080, 42.06934
718.4590, 20.33057
719.6090, 2.254639
720.7590, 72.31372
721.9090, 38.10840
723.0590, 95.52832
724.2090, 48.10767
725.3590, 7.761230
726.5080, 72.38403
727.6570, 106.4082
728.8060, 114.4451
729.9550, 18.67822
731.1040, 56.94629
732.2530, 41.49170
733.4010, 23.83008
734.5490, 81.32373
735.6970, 0.6337890
736.8450, 56.55591
737.9930, 57.94238
739.1400, 84.28125
740.2880, 56.62012
741.4350, 45.59644
742.5820, 88.63306
743.7290, 101.7292
744.8760, 67.77686
746.0220, 95.67358
747.1690, 13.04980
748.3150, 27.90503
749.4610, 85.18506
750.6070, 53.92358
751.7530, 82.78394
752.8980, 88.74951
754.0440, 9.368896
755.1890, 77.92896
756.3340, 82.50513
757.4790, 8.944824
758.6240, 85.57812
759.7680, 20.84595
760.9130, 6.566406
762.0570, 30.24634
763.2010, 17.61572
764.3450, 64.15479
765.4890, 52.60352
766.6320, 13.53662
767.7760, 14.25293
768.9190, 47.24902
770.0620, 20.58691
771.2050, 28.92358
772.3480, 67.24731
773.4900, 82.56519
774.6330, 50.04736
775.7750, 17.64795
776.9170, 21.63330
778.0590, 72.36548
779.2010, 43.63281
780.3420, 86.89355
781.4840, 136.1475
782.6250, 65.39502
783.7660, 50.63550
784.9070, 102.8699
786.0480, 165.0972
787.1890, 44.31812
788.3290, 103.9116
789.4690, 45.09082
790.6100, 157.2917
791.7490, 26.51440
792.8890, 26.65039
794.0290, 23.80737
795.1680, 14.04321
796.3080, 84.08374
797.4470, 30.20361
798.5860, 1.683838
799.7250, 3.587402
800.8630, 2.354980
802.0020, 18.55322
803.1400, 48.60693
804.2780, 43.65430
805.4160, 73.69775
806.5540, 67.84668
807.6920, 76.76562
808.8300, 64.78955
809.9670, 36.80664
811.1040, 46.81641
812.2410, 13.17920
813.3780, 79.80176
814.5150, 140.7764
815.6510, 66.74414
816.7880, 25.70557
817.9240, 10.34082
819.0600, 4.408203
820.1960, 33.50684
821.3320, 26.41504
822.4670, 71.31543
823.6030, 26.20947
824.7380, 60.23047
825.8730, 69.11084
827.0080, 20.98438
828.1430, 85.85010
829.2770, 17.70947
830.4120, 90.56006
831.5460, 152.4038
832.6800, 77.24170
833.8140, 13.92725
834.9480, 66.88135
836.0810, 20.31641
837.2150, 52.46045
838.3480, 143.2305
839.4810, 39.99414
840.6140, 38.37012
841.7470, 184.1099
842.8800, 67.85449
844.0120, 130.5928
845.1450, 55.32520
846.2770, 43.05127
847.4090, 47.70361
848.5410, 13.41748
849.6720, 42.09668
850.8040, 56.80029
851.9350, 20.52637
853.0660, 44.22607
854.1970, 66.90771
855.3280, 65.32861
856.4590, 2.949707
857.5900, 75.60986
858.7200, 24.14111
859.8500, 22.48975
860.9800, 81.11523
862.1100, 41.30615
863.2400, 59.28174
864.3700, 134.8638
865.4990, 31.44092
866.6280, 92.00146
867.7570, 54.56836
868.8860, 99.13037
870.0150, 1.687500
871.1440, 104.2358
872.2720, 54.56104
873.4010, 109.0996
874.5290, 91.63330
875.6570, 12.16211
876.7850, 97.68555
877.9120, 27.20410
879.0400, 33.71826
880.1670, 47.22803
881.2940, 47.73242
882.4210, 27.23291
883.5480, 2.324219
884.6750, 11.83789
885.8020, 66.63379
886.9280, 54.10107
888.0540, 16.56445
889.1800, 69.02295
890.3060, 66.52881
891.4320, 18.88379
892.5580, 31.70801
893.6830, 82.48193
894.8080, 45.86279
895.9330, 64.17773
897.0580, 93.25098
898.1830, 49.40430
899.3080, 2.841797
900.4320, 30.82617
901.5570, 38.48438
902.6810, 7.580078
903.8050, 26.68750
904.9290, 23.98730
906.0520, 8.192871
907.1760, 30.43018
908.2990, 58.71924
909.4230, 1.993652
910.5460, 45.28760
911.6690, 48.58252
912.7910, 24.23242
913.9140, 45.02686
915.0360, 20.27881
916.1590, 25.53223
917.2810, 50.78369
918.4030, 46.03223
919.5240, 62.27783
920.6460, 24.52148
921.7680, 56.77832
922.8890, 8.972168
924.0100, 83.27637
925.1310, 26.51904
926.2520, 56.76318
927.3730, 102.3706
928.4930, 11.53955
929.6130, 29.69287
930.7340, 17.07715
931.8540, 35.32666
932.9740, 35.51025
934.0930, 40.66309
935.2130, 96.69531
936.3320, 31.80273
937.4520, 50.84863
938.5710, 19.09375
939.6900, 100.3276
940.8090, 113.5708
941.9270, 162.8130
943.0460, 79.05420
944.1640, 110.2949
945.2820, 108.4971
946.4000, 8.736816
947.5180, 91.16016
948.6360, 61.39844
949.7530, 91.63623
950.8710, 135.8735
951.9880, 60.02881
953.1050, 107.6372
954.2220, 20.61963
955.3390, 114.8091
956.4550, 59.96973
957.5720, 84.20752
958.6880, 8.630859
959.8040, 86.60498
960.9200, 158.8423
962.0360, 90.94922
963.1520, 134.1895
964.2670, 210.2310
965.3820, 213.4722
966.4980, 171.7134
967.6130, 153.9561
968.7280, 213.3828
969.8420, 184.6270
970.9570, 229.6636
972.0710, 255.9102
973.1850, 287.1675
974.3000, 257.4189
975.4140, 362.6748
976.5270, 404.9453
977.6410, 374.2173
978.7540, 386.4990
979.8680, 471.7827
980.9810, 451.0674
982.0940, 581.3545
983.2070, 572.4062
984.3200, 618.7017
985.4320, 745.0034
986.5440, 984.2461
987.6570, 1002.568
988.7690, 1173.892
989.8810, 1298.223
990.9920, 1358.079
992.1040, 1569.415
993.2160, 1786.681
994.3270, 2163.002
995.4380, 2573.355
996.5490, 3233.575
997.6600, 4350.935
998.7710, 6000.296
999.8810, 8889.674
1000.991, 13687.06
1002.102, 19138.44
1003.212, 24391.83
1004.322, 28938.84
1005.431, 33916.23
1006.541, 37642.63
1007.651, 38712.04
1008.760, 35536.45
1009.869, 29778.80
1010.978, 22317.21
1012.087, 15070.64
1013.195, 9579.060
1014.304, 6258.486
1015.412, 4245.916
1016.521, 3125.351
1017.629, 2335.284
1018.737, 1902.643
1019.844, 1532.096
1020.952, 1257.554
1022.059, 1063.004
1023.167, 973.4702
1024.274, 760.5034
1025.381, 697.9863
1026.488, 592.2383
1027.594, 568.7314
1028.701, 457.2305
1029.807, 402.7329
1030.913, 430.2471
1032.019, 345.4888
1033.125, 253.9717
1034.231, 304.4233
1035.337, 222.9639
1036.442, 242.4951
1037.548, 198.0483
1038.653, 202.6074
1039.758, 156.1655
1040.863, 154.7354
1041.967, 212.3105
1043.072, 206.7197
1044.176, 146.3057
1045.280, 134.9062
1046.384, 84.05420
1047.488, 114.6655
1048.592, 104.4644
1049.696, 140.9062
1050.799, 133.5356
1051.903, 121.1699
1053.006, 145.8110
1054.109, 128.1260
1055.212, 32.77832
1056.314, 135.0625
1057.417, 34.73193
1058.519, 196.4072
1059.621, 102.3452
1060.724, 35.04736
1061.826, 88.70312
1062.927, 115.5195
1064.029, 45.24805
1065.130, 77.37256
1066.232, 96.11182
1067.333, 67.87402
1068.434, 111.6353
1069.535, 169.5317
1070.636, 121.3096
1071.736, 113.0942
1072.837, 147.8843
1073.937, 121.6802
1075.037, 24.48193
1076.137, 118.2886
1077.237, 130.1016
1078.337, 126.9199
1079.436, 23.74561
1080.535, 83.58447
1081.635, 111.4287
1082.734, 118.2793
1083.833, 159.1367
1084.931, 252.9995
1086.030, 243.8765
1087.128, 275.0645
1088.227, 274.6196
1089.325, 259.5601
1090.423, 249.4668
1091.521, 262.7690
1092.618, 206.1641
1093.716, 275.3872
1094.813, 282.3184
1095.911, 254.2554
1097.008, 292.1997
1098.105, 320.1494
1099.202, 448.1055
1100.298, 434.0674
1101.395, 482.0430
1102.491, 451.0249
1103.587, 583.0220
1104.683, 592.2593
1105.779, 620.2681
1106.875, 623.7949
1107.971, 786.8149
1109.066, 702.8413
1110.161, 868.7095
1111.256, 885.7466
1112.351, 921.7896
1113.446, 1008.839
1114.541, 916.8457
1115.636, 1043.906
1116.730, 1066.973
1117.824, 1025.587
1118.918, 966.6660
1120.012, 995.7490
1121.106, 1003.837
1122.200, 914.9316
1123.293, 939.0332
1124.387, 923.1406
1125.480, 897.2622
1126.573, 1161.390
1127.666, 1272.522
1128.759, 1638.674
1129.851, 1929.840
1130.944, 2391.891
1132.036, 2753.068
1133.128, 3135.253
1134.220, 3297.114
1135.312, 3543.636
1136.404, 3403.836
1137.495, 3384.042
1138.587, 3176.252
1139.678, 2883.468
1140.769, 2740.575
1141.860, 2328.863
1142.951, 2058.101
1144.041, 1823.344
1145.132, 1541.603
1146.222, 1186.866
1147.313, 1040.305
1148.403, 818.5776
1149.493, 744.4590
1150.582, 610.7476
1151.672, 425.0405
1152.761, 328.3384
1153.851, 290.6396
1154.940, 294.7993
1156.029, 303.1279
1157.118, 305.4609
1158.207, 233.8457
1159.295, 214.2212
1160.384, 195.5786
1161.472, 169.9463
1162.560, 68.43799
1163.648, 178.0352
1164.736, 53.42236
1165.824, 234.8623
1166.911, 99.26660
1167.999, 118.6738
1169.086, 200.0850
1170.173, 25.49951
1171.260, 119.9175
1172.347, 37.33887
1173.434, 42.76855
1174.520, 98.20166
1175.606, 142.6382
1176.693, 56.07812
1177.779, 113.5312
1178.865, 24.98730
1179.951, 71.44580
1181.036, 157.9077
1182.122, 61.37256
1183.207, 70.85840
1184.292, 72.67139
1185.377, 72.77051
1186.462, 20.56055
1187.547, 94.03564
1188.632, 55.48730
1189.716, 48.16846
1190.800, 114.2681
1191.885, 25.29248
1192.969, 4.859375
1194.052, 52.57422
1195.136, 12.98926
1196.220, 35.44531
1197.303, 0.1176760
1198.387, 59.32080
1199.470, 5.238770
1200.553, 68.20264
1201.636, 101.6465
1202.718, 47.09082
1203.801, 58.53809
1204.883, 109.9868
1205.966, 111.4375
1207.048, 96.70557
1208.130, 34.34375
1209.211, 47.91113
1210.293, 14.37012
1211.375, 5.833984
1212.456, 117.3003
1213.537, 111.9688
1214.618, 130.5151
1215.699, 69.92676
1216.780, 137.4072
1217.861, 48.88965
1218.941, 44.47656
1220.022, 172.9624
1221.102, 64.44971
1222.182, 6.937988
1223.262, 7.572266
1224.342, 114.9150
1225.422, 105.4033
1226.501, 103.8931
1227.580, 146.8262
1228.660, 111.8740
1229.739, 168.3657
1230.818, 83.85791
1231.896, 96.35059
1232.975, 5.844238
1234.054, 38.66162
1235.132, 110.8120
1236.210, 26.71289
1237.288, 105.8477
1238.366, 69.30957
1239.444, 31.22900
1240.521, 132.2168
1241.599, 32.66260
1242.676, 83.21973
1243.753, 16.33447
1244.830, 60.10205
1245.907, 81.53857
1246.984, 8.839844
1248.061, 38.59521
1249.137, 92.02881
1250.214, 65.46240
1251.290, 90.89551
1252.366, 21.32861
1253.442, 53.88330
1254.517, 74.36816
1255.593, 10.90039
1256.668, 90.39941
1257.744, 75.82959
1258.819, 3.358887
1259.894, 44.21240
1260.969, 29.02490
1262.044, 61.42773
1263.118, 22.82861
1264.193, 75.22900
1265.267, 30.62842
1266.341, 108.2783
1267.415, 57.67529
1268.489, 42.07031
1269.563, 9.536133
1270.636, 5.181152
1271.710, 27.05420
1272.783, 43.59424
1273.856, 63.69775
1274.929, 88.07324
1276.002, 5.455078
1277.075, 96.82471
1278.147, 17.80811
1279.220, 88.54395
1280.292, 34.89307
1281.364, 100.2407
1282.436, 75.58496
1283.508, 5.071777
1284.580, 31.26025
1285.652, 25.58984
1286.723, 15.40918
1287.794, 19.19434
1288.865, 75.06543
1289.936, 6.541016
1291.007, 9.765625
1292.078, 9.531738
1293.149, 57.43652
1294.219, 17.77295
1295.289, 71.05566
1296.360, 90.33496
1297.430, 134.6387
1298.499, 102.9126
1299.569, 146.1851
1300.639, 139.0117
1301.708, 89.67676
1302.778, 131.9404
1303.847, 135.2002
1304.916, 121.4565
1305.985, 81.37988
1307.053, 78.62988
1308.122, 78.87646
1309.190, 92.12109
1310.259, 89.36279
1311.327, 31.59961
1312.395, 83.83008
1313.463, 116.3887
1314.531, 10.39209
1315.598, 27.81494
1316.666, 100.0205
1317.733, 2.776855
1318.800, 35.16650
1319.867, 92.36084
1320.934, 102.6060
1322.001, 141.6938
1323.067, 82.88184
1324.134, 115.6758
1325.200, 114.8594
1326.266, 165.0283
1327.333, 99.20557
1328.398, 47.25586
1329.464, 225.4287
1330.530, 51.59814
1331.595, 98.76514
1332.661, 101.9302
1333.726, 70.09180
1334.791, 122.2510
1335.856, 76.43213
1336.921, 14.69189
1337.985, 38.98730
1339.050, 42.96631
1340.114, 184.3506
1341.178, 13.34131
1342.242, 110.6548
1343.306, 185.7900
1344.370, 112.9282
1345.434, 202.0571
1346.497, 20.22705
1347.561, 110.5688
1348.624, 115.6870
1349.687, 193.8320
1350.750, 100.9268
1351.813, 126.7192
1352.876, 58.80713
1353.938, 81.89062
1355.000, 54.02295
1356.063, 69.08887
1357.125, 90.13232
1358.187, 115.1724
1359.249, 86.20898
1360.310, 122.3682
1361.372, 85.39746
1362.433, 103.1890
1363.495, 84.20850
1364.556, 22.82324
1365.617, 137.8350
1366.678, 86.84229
1367.738, 60.03760
1368.799, 122.0386
1369.859, 20.03711
1370.920, 84.02344
1371.980, 62.05420
1373.040, 155.0288
1374.100, 13.86523
1375.159, 120.2905
1376.219, 74.25439
1377.278, 180.2144
1378.338, 74.18262
1379.397, 86.26660
1380.456, 20.21729
1381.515, 36.16455
1382.574, 25.06787
1383.632, 33.04834
1384.691, 76.98438
1385.749, 25.91748
1386.807, 58.20312
1387.865, 35.12646
1388.923, 75.15479
1389.981, 50.04590
1391.039, 65.91016
1392.096, 85.76953
1393.154, 9.624512
1394.211, 116.4712
1395.268, 58.31250
1396.325, 137.1489
1397.382, 33.09424
1398.439, 18.14014
1399.495, 15.67529
1400.552, 33.51465
1401.608, 80.27881
1402.664, 48.06689
1403.720, 55.68115
1404.776, 89.46094
1405.832, 90.68701
1406.887, 52.50781
1407.943, 131.2598
1408.998, 59.00830
1410.053, 50.74854
1411.108, 120.6313
1412.163, 155.3618
1413.218, 1.087891
1414.272, 76.76221
1415.327, 47.44434
1416.381, 32.14453
1417.435, 137.8330
1418.489, 30.39844
1419.543, 182.8721
1420.597, 36.55518
1421.651, 141.1934
1422.704, 105.0020
1423.758, 42.66846
1424.811, 90.33105
1425.864, 124.5220
1426.917, 58.24609
1427.970, 7.099609
1429.023, 133.5498
1430.075, 118.1978
1431.128, 126.8496
1432.180, 2.512207
1433.232, 84.15967
1434.284, 129.7871
1435.336, 76.75049
1436.388, 144.5762
1437.439, 151.0024
1438.491, 176.6812
1439.542, 202.6367
1440.593, 146.2065
1441.644, 183.2422
1442.695, 92.19678
1443.746, 122.5688
1444.797, 139.1128
1445.847, 134.0659
1446.898, 157.0146
1447.948, 133.9585
1448.998, 118.8970
1450.048, 145.8301
1451.098, 117.6338
1452.147, 108.0752
1453.197, 111.8169
1454.246, 85.09473
1455.296, 87.96143
1456.345, 79.19580
1457.394, 72.36719
1458.443, 73.39453
1459.491, 68.23535
1460.540, 58.39307
1461.588, 49.89600
1462.637, 30.71777
1463.685, 21.50488
1464.733, 4.927734
1465.781, 11.10352
1466.829, 21.03809
1467.876, 18.67188
1468.924, 70.53125
1469.971, 56.13818
1471.019, 98.98389
1472.066, 47.82471
1473.113, 14.41943
1474.160, 102.0137
1475.206, 51.69482
1476.253, 130.4712
1477.299, 75.26709
1478.346, 124.0581
1479.392, 85.47070
1480.438, 44.25098
1481.484, 88.26123
1482.529, 112.5625
1483.575, 76.24121
1484.620, 55.93213
1485.666, 21.64062
1486.711, 77.34570
1487.756, 189.0542
1488.801, 107.9458
1489.846, 25.62793
1490.891, 163.2046
1491.935, 57.78760
1492.980, 46.42725
1494.024, 155.1040
1495.068, 132.8247
1496.112, 92.76904
1497.156, 88.45605
1498.200, 82.86084
1499.243, 9.475098
1500.287, 111.1802
1501.330, 97.84277
1502.373, 157.5171
1503.416, 50.20947
1504.459, 21.88916
1505.502, 115.5571
1506.545, 69.21191
1507.587, 145.8555
1508.630, 114.4897
1509.672, 88.11377
1510.714, 80.72900
1511.756, 131.3315
1512.798, 97.86133
1513.840, 1.193359
1514.881, 82.60449
1515.923, 61.76416
1516.964, 117.0874
1518.005, 55.28418
1519.046, 115.9600
1520.087, 124.1782
1521.128, 113.5059
1522.169, 88.66016
1523.209, 106.0723
1524.249, 123.5269
1525.290, 167.5503
1526.330, 146.2354
1527.370, 70.99707
1528.410, 110.2871
1529.449, 64.64795
1530.489, 38.04004
1531.528, 33.06348
1532.568, 172.3408
1533.607, 188.5396
1534.646, 116.1782
1535.685, 78.32129
1536.724, 55.41895
1537.762, 125.4678
1538.801, 77.57666
1539.839, 172.7124
1540.878, 115.9492
1541.916, 114.2085
1542.954, 113.4585
1543.992, 80.68799
1545.029, 120.9053
1546.067, 121.1152
1547.104, 17.89111
1548.142, 65.71631
1549.179, 87.05469
1550.216, 4.572266
1551.253, 36.92627
1552.290, 79.56934
1553.326, 95.26611
1554.363, 104.0386
1555.399, 53.77148
1556.436, 116.5894
1557.472, 31.49365
1558.508, 39.51953
1559.544, 0.3603520
1560.579, 2.997070
1561.615, 13.36816
1562.651, 0.0000000E+00
##END=



