##NAMES=Hauyne
##RRUFFID=R070557
##IDEAL CHEMISTRY=Na_3_Ca(Si_3_Al_3_)O_12_(S^6+^O_4_)
##LOCALITY=Badakhshan, Afghanistan
##OWNER=RRUFF
##SOURCE=Farooq Hashmi
##DESCRIPTION=Sky blue fragment
##STATUS=The identification of this mineral is confirmed by single-crystal X-ray diffraction and chemical analysis.
##URL=rruff.info/R070557
##MEASURED CHEMISTRY=Na_3.00_(Ca_0.84_Na_0.16_)_Σ=1_(Si_3.05_Al_2.95_)O_12_((SO_4_)_0.89_Cl_0.11_)_Σ=1_
##PIN_ID=M01358
##ORIENTATION=Laser parallel to a* (1 0 0). Fiducial mark perpendicular to laser is parallel to c [0 0 1]
211.2710, 0.0000000E+00
212.4940, 105.7998
213.7160, 179.5527
214.9370, 206.6846
216.1590, 105.3809
217.3810, 161.8525
218.6020, 12.49316
219.8230, 169.8789
221.0440, 122.4512
222.2650, 205.4346
223.4860, 132.4111
224.7060, 105.5088
225.9260, 358.0176
227.1470, 105.9756
228.3670, 226.5615
229.5860, 171.6943
230.8060, 140.8984
232.0260, 129.2754
233.2450, 177.6230
234.4640, 61.93457
235.6830, 247.1123
236.9020, 336.2559
238.1200, 403.3477
239.3390, 337.2461
240.5570, 372.3887
241.7750, 334.7764
242.9930, 386.1240
244.2110, 422.9551
245.4290, 457.5059
246.6460, 521.8281
247.8630, 530.7842
249.0810, 553.1660
250.2980, 737.9443
251.5140, 661.9932
252.7310, 804.7188
253.9470, 648.6045
255.1640, 669.4658
256.3800, 739.6152
257.5960, 785.3457
258.8120, 804.0684
260.0270, 661.6396
261.2430, 722.6094
262.4580, 626.3750
263.6730, 626.7979
264.8880, 681.1025
266.1030, 608.3105
267.3170, 513.6201
268.5320, 393.0625
269.7460, 545.4668
270.9600, 623.0859
272.1740, 427.2998
273.3880, 490.3428
274.6010, 537.2832
275.8150, 528.5918
277.0280, 700.0830
278.2410, 548.7480
279.4540, 561.4141
280.6670, 422.4824
281.8790, 481.3389
283.0920, 593.6172
284.3040, 489.0693
285.5160, 527.0957
286.7280, 544.6260
287.9400, 462.1826
289.1510, 478.3838
290.3630, 268.2256
291.5740, 420.9893
292.7850, 466.5010
293.9960, 277.0605
295.2070, 247.4473
296.4170, 386.1309
297.6280, 278.6367
298.8380, 406.6826
300.0480, 240.4023
301.2580, 409.4170
302.4680, 92.43359
303.6770, 142.3291
304.8870, 57.05176
306.0960, 7.792969
307.3050, 104.5488
308.5140, 154.3125
309.7230, 61.07520
310.9310, 157.8350
312.1400, 144.5859
313.3480, 115.3252
314.5560, 104.0459
315.7640, 46.74121
316.9720, 108.4043
318.1790, 26.03125
319.3870, 60.39355
320.5940, 103.1562
321.8010, 86.66211
323.0080, 44.12793
324.2150, 34.54199
325.4210, 53.08887
326.6280, 47.22461
327.8340, 147.4893
329.0400, 16.70312
330.2460, 88.15039
331.4510, 17.90039
332.6570, 174.8701
333.8620, 97.22363
335.0680, 135.3682
336.2730, 115.5762
337.4780, 225.8564
338.6820, 55.20996
339.8870, 32.62793
341.0910, 65.85547
342.2950, 28.25195
343.5000, 15.54883
344.7030, 4.749023
345.9070, 13.21777
347.1110, 25.43262
348.3140, 1.822266
349.5170, 4.725586
350.7200, 6.670898
351.9230, 48.63867
353.1260, 6.989258
354.3290, 180.2920
355.5310, 174.5615
356.7330, 237.2607
357.9350, 35.30078
359.1370, 122.8184
360.3390, 130.5029
361.5400, 143.0908
362.7420, 381.6260
363.9430, 266.2412
365.1440, 397.6016
366.3450, 450.8770
367.5460, 463.0596
368.7460, 329.1338
369.9470, 351.0498
371.1470, 448.0430
372.3470, 337.9648
373.5470, 357.6670
374.7460, 399.8340
375.9460, 444.8525
377.1450, 454.1611
378.3450, 462.4775
379.5440, 430.2646
380.7430, 405.3828
381.9410, 399.9395
383.1400, 326.3252
384.3380, 363.1484
385.5370, 486.9199
386.7350, 456.5898
387.9320, 416.1768
389.1300, 489.6621
390.3280, 378.0352
391.5250, 393.3320
392.7220, 420.5244
393.9190, 402.6162
395.1160, 528.6055
396.3130, 489.4883
397.5100, 527.2715
398.7060, 748.9824
399.9020, 624.6152
401.0980, 717.1562
402.2940, 739.5732
403.4900, 844.8271
404.6860, 886.5234
405.8810, 862.0342
407.0760, 1009.991
408.2710, 1061.844
409.4660, 1167.594
410.6610, 1332.252
411.8550, 1420.823
413.0500, 1600.250
414.2440, 1700.606
415.4380, 1848.801
416.6320, 2001.926
417.8260, 2224.801
419.0190, 2391.379
420.2130, 2587.822
421.4060, 2738.205
422.5990, 2898.525
423.7920, 3195.760
424.9850, 3394.475
426.1770, 3501.389
427.3700, 4070.482
428.5620, 4024.758
429.7540, 4430.758
430.9460, 4644.768
432.1380, 5023.473
433.3290, 5174.424
434.5210, 5509.314
435.7120, 5465.842
436.9030, 5644.555
438.0940, 5775.475
439.2850, 5804.266
440.4750, 6051.633
441.6660, 5904.543
442.8560, 6000.982
444.0460, 6043.723
445.2360, 5868.164
446.4260, 5807.545
447.6160, 5665.523
448.8050, 5640.307
449.9940, 5617.395
451.1830, 5448.227
452.3720, 5199.340
453.5610, 5147.859
454.7500, 5127.215
455.9380, 4827.150
457.1260, 4755.393
458.3150, 4631.305
459.5020, 4410.084
460.6900, 4260.785
461.8780, 4112.494
463.0650, 3919.578
464.2530, 3735.246
465.4400, 3428.717
466.6270, 3355.572
467.8130, 3110.246
469.0000, 2818.283
470.1870, 2818.244
471.3730, 2629.299
472.5590, 2693.605
473.7450, 2605.617
474.9310, 2473.025
476.1160, 2398.316
477.3020, 2278.891
478.4870, 2226.113
479.6720, 2053.625
480.8570, 1926.260
482.0420, 1851.650
483.2270, 1882.502
484.4110, 1645.887
485.5960, 1526.762
486.7800, 1380.414
487.9640, 1077.777
489.1480, 1249.078
490.3310, 908.6680
491.5150, 1007.805
492.6980, 936.3613
493.8810, 630.0156
495.0640, 759.3594
496.2470, 651.1055
497.4300, 504.4316
498.6120, 625.7383
499.7950, 588.2676
500.9770, 440.6367
502.1590, 580.5859
503.3410, 483.5664
504.5220, 538.7695
505.7040, 402.5410
506.8850, 569.0098
508.0660, 528.9980
509.2470, 378.1035
510.4280, 376.1758
511.6090, 333.8730
512.7890, 205.5449
513.9700, 176.0762
515.1500, 271.2695
516.3300, 203.3867
517.5100, 282.4160
518.6900, 284.2402
519.8690, 405.1230
521.0490, 282.9121
522.2280, 375.5039
523.4070, 231.1270
524.5860, 342.0879
525.7640, 549.0684
526.9430, 721.0938
528.1210, 754.8887
529.3000, 1002.000
530.4780, 1156.490
531.6560, 1448.773
532.8330, 1650.373
534.0110, 2020.371
535.1880, 2452.072
536.3650, 2923.666
537.5430, 3553.094
538.7190, 4185.662
539.8960, 4992.545
541.0730, 5376.420
542.2490, 5607.508
543.4250, 6061.402
544.6020, 6160.375
545.7780, 5989.438
546.9530, 5565.725
548.1290, 4719.996
549.3040, 4106.225
550.4800, 3602.922
551.6550, 2666.250
552.8300, 2104.004
554.0040, 1873.963
555.1790, 1280.377
556.3540, 1070.516
557.5280, 859.6406
558.7020, 495.1953
559.8760, 622.3789
561.0500, 482.5059
562.2230, 248.1504
563.3970, 445.4297
564.5700, 283.1875
565.7430, 324.6172
566.9160, 371.4648
568.0890, 250.2520
569.2620, 161.5059
570.4340, 264.1465
571.6070, 319.0684
572.7790, 375.0742
573.9510, 201.9922
575.1230, 357.4277
576.2940, 306.1523
577.4660, 402.1113
578.6370, 355.4805
579.8080, 409.1465
580.9790, 282.2363
582.1500, 591.6387
583.3210, 509.8789
584.4910, 487.4492
585.6620, 364.6914
586.8320, 383.1797
588.0020, 318.8008
589.1720, 390.5586
590.3410, 273.6992
591.5110, 177.6211
592.6800, 230.3672
593.8500, 104.7461
595.0190, 180.6484
596.1880, 16.35938
597.3560, 121.3984
598.5250, 169.3809
599.6930, 253.0449
600.8620, 326.2227
602.0300, 138.8691
603.1970, 244.7871
604.3650, 410.6250
605.5330, 423.8398
606.7000, 655.4492
607.8680, 482.0527
609.0350, 582.7598
610.2020, 713.0020
611.3680, 566.0352
612.5350, 702.0371
613.7010, 757.7148
614.8680, 637.7090
616.0340, 566.7285
617.2000, 677.4492
618.3660, 549.6328
619.5310, 714.7344
620.6970, 740.4922
621.8620, 726.2344
623.0270, 533.9824
624.1920, 598.7422
625.3570, 538.6426
626.5220, 739.1152
627.6860, 423.8594
628.8500, 320.6016
630.0140, 431.5117
631.1780, 609.0234
632.3420, 520.0684
633.5060, 665.9277
634.6700, 499.6250
635.8330, 619.8672
636.9960, 891.6055
638.1590, 951.6367
639.3220, 797.3516
640.4850, 932.6934
641.6470, 680.4395
642.8100, 618.3027
643.9720, 660.2402
645.1340, 527.4277
646.2960, 641.1309
647.4570, 404.8184
648.6190, 301.5039
649.7800, 279.1699
650.9420, 222.3418
652.1030, 249.0332
653.2640, 114.7246
654.4240, 93.45898
655.5850, 125.1504
656.7450, 182.8984
657.9060, 20.59375
659.0660, 28.73828
660.2260, 17.91406
661.3850, 56.56641
662.5450, 19.24414
663.7040, 55.08398
664.8640, 83.55078
666.0230, 202.8320
667.1820, 0.3457030
668.3410, 122.8809
669.4990, 59.48828
670.6580, 93.86914
671.8160, 178.7734
672.9740, 14.50977
674.1320, 69.73828
675.2900, 106.9727
676.4480, 21.80273
677.6050, 2.380859
678.7630, 115.4688
679.9200, 67.41016
681.0770, 98.59961
682.2340, 139.5586
683.3900, 117.6562
684.5470, 36.49414
685.7030, 33.60938
686.8590, 33.55859
688.0150, 40.59961
689.1710, 6.671875
690.3270, 8.013672
691.4830, 8.759766
692.6380, 13.95703
693.7930, 24.17969
694.9480, 38.45312
696.1030, 37.92188
697.2580, 170.3516
698.4130, 16.91797
699.5670, 27.27344
700.7210, 139.6797
701.8750, 2.091797
703.0290, 10.63672
704.1830, 58.44531
705.3370, 79.67578
706.4900, 91.75586
707.6430, 71.20117
708.7970, 120.6621
709.9490, 49.91797
711.1020, 265.8047
712.2550, 302.6562
713.4070, 157.5723
714.5600, 86.35547
715.7120, 28.09766
716.8640, 166.3047
718.0160, 92.96680
719.1670, 229.3711
720.3190, 153.0176
721.4700, 189.5645
722.6210, 107.0762
723.7720, 184.1719
724.9230, 122.6035
726.0740, 89.99219
727.2250, 295.3418
728.3750, 202.8359
729.5250, 256.3887
730.6750, 337.4590
731.8250, 144.6328
732.9750, 16.24023
734.1240, 346.2520
735.2740, 217.4141
736.4230, 227.9707
737.5720, 371.6953
738.7210, 178.6621
739.8700, 306.5859
741.0190, 238.0703
742.1670, 15.93555
743.3150, 163.7363
744.4630, 385.5449
745.6110, 324.2676
746.7590, 281.3477
747.9070, 156.9941
749.0540, 205.5938
750.2020, 211.1504
751.3490, 287.7441
752.4960, 218.3965
753.6430, 212.5430
754.7890, 281.9902
755.9360, 177.6699
757.0820, 205.3828
758.2280, 56.47070
759.3740, 349.0566
760.5200, 340.5254
761.6660, 324.5625
762.8120, 284.1816
763.9570, 146.3027
765.1020, 340.5566
766.2470, 324.9160
767.3920, 283.0039
768.5370, 143.9199
769.6810, 257.8965
770.8260, 300.6699
771.9700, 100.3301
773.1140, 212.1113
774.2580, 370.7266
775.4020, 259.8145
776.5460, 568.2129
777.6890, 179.9336
778.8320, 412.9199
779.9750, 314.7461
781.1180, 292.6641
782.2610, 230.9258
783.4040, 427.9766
784.5460, 436.5098
785.6890, 564.9082
786.8310, 381.1621
787.9730, 232.8398
789.1150, 480.6289
790.2560, 341.6406
791.3980, 299.5156
792.5390, 676.4785
793.6810, 344.5371
794.8220, 452.6602
795.9630, 648.9023
797.1030, 417.3066
798.2440, 565.8477
799.3840, 487.7754
800.5240, 519.2168
801.6650, 474.3438
802.8040, 538.7695
803.9440, 529.5098
805.0840, 581.7070
806.2230, 728.5957
807.3630, 520.0703
808.5020, 697.5840
809.6410, 479.4727
810.7790, 577.9062
811.9180, 432.2617
813.0570, 607.3320
814.1950, 451.3496
815.3330, 633.1582
816.4710, 504.8184
817.6090, 418.7051
818.7470, 562.0742
819.8840, 500.1309
821.0220, 394.0410
822.1590, 359.7812
823.2960, 388.2715
824.4330, 357.3242
825.5690, 517.9531
826.7060, 424.7617
827.8420, 504.8633
828.9790, 618.4648
830.1150, 564.7910
831.2510, 391.5879
832.3860, 622.5898
833.5220, 501.5332
834.6570, 381.9746
835.7930, 467.7148
836.9280, 401.4453
838.0630, 391.5859
839.1980, 415.0254
840.3320, 446.9160
841.4670, 533.0645
842.6010, 545.7305
843.7350, 462.3906
844.8690, 354.5137
846.0030, 337.1816
847.1370, 541.5000
848.2700, 565.6641
849.4040, 350.8535
850.5370, 541.4531
851.6700, 504.7012
852.8030, 295.6504
853.9360, 459.1191
855.0680, 229.2266
856.2000, 162.8438
857.3330, 470.0781
858.4650, 455.4102
859.5970, 266.3418
860.7290, 462.5391
861.8600, 432.4238
862.9920, 732.1191
864.1230, 372.6172
865.2540, 348.6738
866.3850, 394.8965
867.5160, 501.2383
868.6460, 535.8906
869.7770, 382.9531
870.9070, 603.1426
872.0370, 438.9434
873.1670, 579.7363
874.2970, 560.7871
875.4270, 601.2695
876.5570, 453.2188
877.6860, 408.8457
878.8150, 500.4902
879.9440, 399.6973
881.0730, 472.4512
882.2020, 316.1562
883.3300, 469.6934
884.4590, 491.6621
885.5870, 487.7793
886.7150, 391.8691
887.8430, 128.2246
888.9710, 239.2285
890.0990, 156.1484
891.2260, 329.2988
892.3530, 310.9590
893.4810, 209.6797
894.6080, 29.71875
895.7340, 334.7715
896.8610, 47.77344
897.9880, 278.7109
899.1140, 147.4473
900.2400, 32.54492
901.3660, 83.30469
902.4920, 122.0039
903.6180, 10.47852
904.7430, 35.28516
905.8690, 161.4961
906.9940, 177.8301
908.1190, 7.734375
909.2440, 163.0723
910.3690, 68.32227
911.4930, 46.20703
912.6180, 102.3320
913.7420, 127.2422
914.8660, 73.67969
915.9900, 257.4199
917.1140, 163.0137
918.2380, 36.71094
919.3610, 82.95117
920.4850, 12.44336
921.6080, 30.07812
922.7310, 54.53516
923.8540, 182.5859
924.9760, 134.6387
926.0990, 16.68945
927.2210, 197.5078
928.3440, 43.41992
929.4660, 132.8867
930.5880, 57.84375
931.7090, 56.48047
932.8310, 58.90039
933.9520, 175.4199
935.0740, 44.09961
936.1950, 14.87109
937.3160, 5.292969
938.4360, 125.3906
939.5570, 0.5078130
940.6780, 37.47266
941.7980, 33.49219
942.9180, 66.46094
944.0380, 67.04688
945.1580, 50.94922
946.2780, 22.24609
947.3970, 32.62109
948.5170, 89.92578
949.6360, 85.46875
950.7550, 264.8887
951.8740, 193.3379
952.9930, 245.7422
954.1110, 393.1250
955.2300, 421.4941
956.3480, 585.7012
957.4660, 817.7461
958.5840, 672.8711
959.7020, 996.8574
960.8190, 1366.084
961.9370, 1332.281
963.0540, 1917.443
964.1710, 2475.576
965.2880, 2771.680
966.4050, 3479.629
967.5220, 4200.674
968.6380, 5219.688
969.7550, 5920.494
970.8710, 6707.441
971.9870, 7410.270
973.1030, 7857.027
974.2190, 8441.859
975.3340, 9090.699
976.4500, 9416.523
977.5650, 9703.316
978.6800, 10370.09
979.7950, 11176.62
980.9100, 12215.05
982.0250, 13263.82
983.1390, 14329.55
984.2530, 15515.99
985.3680, 16789.67
986.4820, 17807.33
987.5950, 18344.46
988.7090, 18086.08
989.8230, 17552.88
990.9360, 16595.39
992.0490, 15299.96
993.1620, 13754.50
994.2750, 12458.38
995.3880, 11351.87
996.5010, 9919.336
997.6130, 8891.770
998.7250, 8026.010
999.8370, 7247.121
1000.949, 6203.400
1002.061, 5331.732
1003.173, 4862.039
1004.284, 4289.227
1005.396, 3892.516
1006.507, 3673.777
1007.618, 3214.012
1008.729, 3061.219
1009.839, 2694.402
1010.950, 2806.584
1012.060, 2261.725
1013.171, 2559.857
1014.281, 2073.918
1015.391, 2138.002
1016.500, 2203.664
1017.610, 2028.699
1018.719, 1772.709
1019.829, 1649.695
1020.938, 1604.584
1022.047, 1461.348
1023.156, 1515.551
1024.264, 1354.039
1025.373, 968.9297
1026.481, 1154.371
1027.589, 1029.371
1028.697, 1024.812
1029.805, 1092.297
1030.913, 1368.152
1032.020, 1181.367
1033.128, 1084.008
1034.235, 1322.449
1035.342, 914.7266
1036.449, 853.2109
1037.556, 966.8008
1038.663, 1042.266
1039.769, 868.8672
1040.875, 990.5195
1041.981, 934.9844
1043.087, 1074.543
1044.193, 1039.570
1045.299, 789.2227
1046.404, 874.4922
1047.510, 1167.426
1048.615, 1253.461
1049.720, 966.3359
1050.825, 1068.809
1051.930, 932.4297
1053.034, 1028.504
1054.139, 709.6523
1055.243, 980.8750
1056.347, 568.6211
1057.451, 731.1055
1058.555, 576.3867
1059.658, 875.2070
1060.762, 409.7812
1061.865, 978.3281
1062.968, 758.9961
1064.071, 876.7930
1065.174, 1073.289
1066.277, 882.6523
1067.380, 785.7266
1068.482, 1106.070
1069.584, 1058.414
1070.686, 1138.355
1071.788, 764.1289
1072.890, 1145.324
1073.992, 1164.230
1075.093, 971.5195
1076.194, 1281.664
1077.295, 1104.805
1078.396, 1554.617
1079.497, 1522.637
1080.598, 1655.039
1081.698, 1522.137
1082.799, 1655.223
1083.899, 1809.059
1084.999, 1952.605
1086.099, 2025.379
1087.199, 2217.867
1088.298, 2013.062
1089.398, 1894.258
1090.497, 1955.453
1091.596, 1869.844
1092.695, 1909.035
1093.794, 1785.230
1094.892, 1653.426
1095.991, 1551.621
1097.089, 1438.039
1098.187, 1457.004
1099.285, 1278.199
1100.383, 1318.395
1101.481, 1348.594
1102.579, 1055.793
1103.676, 858.7422
1104.773, 980.0586
1105.870, 911.2617
1106.967, 953.0000
1108.064, 826.2109
1109.161, 753.4141
1110.257, 884.6172
1111.353, 908.7734
1112.449, 1184.500
1113.545, 803.4375
1114.641, 723.6562
1115.737, 856.2930
1116.832, 1026.516
1117.928, 873.3008
1119.023, 958.9023
1120.118, 791.9258
1121.213, 774.1641
1122.308, 947.4844
1123.402, 921.3125
1124.497, 789.5664
1125.591, 914.8242
1126.685, 970.2773
1127.779, 836.5430
1128.873, 535.8125
1129.967, 679.9219
1131.060, 609.1992
1132.153, 863.4766
1133.247, 566.7656
1134.340, 557.0508
1135.433, 829.9414
1136.525, 707.2383
1137.618, 792.5352
1138.710, 664.8359
1139.802, 730.1445
1140.895, 567.4570
1141.987, 562.9297
1143.078, 567.2461
1144.170, 528.5703
1145.261, 546.5703
1146.353, 723.2305
1147.444, 503.5664
1148.535, 663.9102
1149.626, 525.2617
1150.716, 563.6094
1151.807, 683.9727
1152.897, 578.3359
1153.988, 934.7109
1155.078, 727.0938
1156.168, 839.4883
1157.257, 1149.887
1158.347, 733.2930
1159.436, 898.7109
1160.526, 574.1484
1161.615, 740.5898
1162.704, 700.0469
1163.793, 495.5117
1164.881, 927.9922
1165.970, 813.4844
1167.058, 692.9922
1168.147, 726.5117
1169.235, 594.0547
1170.323, 869.6094
1171.410, 663.1836
1172.498, 758.7617
1173.585, 468.3711
1174.673, 919.9844
1175.760, 657.6211
1176.847, 519.2695
1177.934, 582.9258
1179.020, 426.6562
1180.107, 421.3945
1181.193, 584.1445
1182.279, 174.9336
1183.365, 462.7617
1184.451, 295.6016
1185.537, 196.4727
1186.623, 520.3555
1187.708, 191.2578
1188.793, 541.2344
1189.878, 282.2188
1190.963, 282.2305
1192.048, 15.31641
1193.133, 154.4219
1194.217, 135.5859
1195.302, 99.76562
1196.386, 179.9883
1197.470, 88.82812
1198.554, 137.5859
1199.638, 5.042969
1200.721, 87.35156
1201.805, 112.7734
1202.888, 7.210938
1203.971, 306.6641
1205.054, 107.8398
1206.137, 93.63281
1207.219, 85.15234
1208.302, 61.28906
1209.384, 8.285156
1210.466, 186.8828
1211.548, 105.5117
1212.630, 385.1797
1213.712, 99.86719
1214.794, 483.5664
1215.875, 228.2773
1216.956, 108.0000
1218.037, 173.6836
1219.118, 280.3750
1220.199, 8.082031
1221.280, 105.2031
1222.360, 76.47656
1223.441, 225.1641
1224.521, 286.8711
1225.601, 333.9336
1226.681, 362.5234
1227.760, 316.1953
1228.840, 285.9922
1229.919, 275.8008
1230.999, 116.6172
1232.078, 134.4570
1233.157, 16.68750
1234.236, 24.49219
1235.314, 95.05859
1236.393, 11.05469
1237.471, 175.8359
1238.549, 290.7344
1239.627, 20.34766
1240.705, 129.3906
1241.783, 30.47656
1242.860, 141.5625
1243.938, 59.28906
1245.015, 27.84375
1246.092, 10.01953
1247.169, 9.101563
1248.246, 46.22266
1249.323, 34.35156
1250.399, 208.5117
1251.475, 19.61719
1252.552, 136.7500
1253.628, 364.0664
1254.703, 240.8867
1255.779, 21.27344
1256.855, 169.5625
1257.930, 276.4102
1259.005, 52.73828
1260.080, 74.10547
1261.155, 215.9570
1262.230, 417.8164
1263.305, 160.6914
1264.379, 134.4297
1265.454, 350.3984
1266.528, 198.2305
1267.602, 270.0742
1268.676, 95.92578
1269.750, 272.7930
1270.823, 109.3359
1271.897, 390.4922
1272.970, 240.3281
1274.043, 244.1719
1275.116, 500.0234
1276.189, 338.8867
1277.261, 280.7461
1278.334, 398.6211
1279.406, 466.5039
1280.478, 411.3906
1281.550, 347.2891
1282.622, 483.1953
1283.694, 315.1055
1284.766, 414.0234
1285.837, 214.9492
1286.908, 305.8789
1287.979, 606.8125
1289.050, 355.7539
1290.121, 308.7383
1291.192, 426.6953
1292.262, 124.6719
1293.333, 549.6523
1294.403, 414.6367
1295.473, 571.8477
1296.543, 360.8516
1297.613, 416.8555
1298.682, 285.8672
1299.752, 497.8789
1300.821, 567.8984
1301.890, 352.9219
1302.959, 374.9492
1304.028, 470.9727
1305.096, 601.1562
1306.165, 593.1875
1307.233, 745.4570
1308.301, 645.4805
1309.370, 845.5117
1310.437, 835.7461
1311.505, 600.7812
1312.573, 497.8008
1313.640, 431.8320
1314.708, 772.8672
1315.775, 249.9141
1316.842, 795.9648
1317.908, 546.3203
1318.975, 592.7695
1320.042, 594.8984
1321.108, 698.1055
1322.174, 672.9414
1323.240, 863.2383
1324.306, 726.3359
1325.372, 887.0156
1326.438, 624.5391
1327.503, 783.1719
1328.568, 735.1602
1329.634, 701.6562
1330.699, 832.9570
1331.763, 918.0977
1332.828, 1002.242
1333.893, 786.2969
1334.957, 741.4531
1336.021, 757.6133
1337.085, 894.2500
1338.149, 578.6484
1339.213, 948.8203
1340.277, 677.9727
1341.340, 584.1133
1342.404, 947.7812
1343.467, 1014.977
1344.530, 519.3672
1345.593, 966.2734
1346.655, 791.4766
1347.718, 927.6797
1348.780, 1041.895
1349.843, 739.4180
1350.905, 767.6406
1351.967, 781.1133
1353.028, 815.5586
1354.090, 779.8867
1355.152, 833.0430
1356.213, 739.4531
1357.274, 662.7070
1358.335, 735.9648
1359.396, 538.3633
1360.457, 449.7852
1361.517, 783.9805
1362.578, 681.8984
1363.638, 842.3711
1364.698, 778.4922
1365.758, 779.7891
1366.818, 783.2383
1367.878, 716.1953
1368.937, 562.3633
1369.997, 593.4219
1371.056, 881.2656
1372.115, 738.8867
1373.174, 718.7305
1374.232, 505.7695
1375.291, 749.5039
1376.350, 953.9297
1377.408, 757.4453
1378.466, 818.7539
1379.524, 850.1602
1380.582, 986.9961
1381.640, 885.1836
1382.697, 893.1914
1383.754, 598.3164
1384.812, 777.6367
1385.869, 681.2500
1386.926, 741.7461
1387.983, 657.5078
1389.039, 773.0977
1390.096, 612.5898
1391.152, 642.8789
1392.208, 570.5781
1393.264, 531.8828
1394.320, 422.1953
1395.376, 650.6680
1396.431, 225.1406
1397.487, 602.2930
1398.542, 513.2930
1399.597, 489.4023
1400.652, 489.4492
1401.707, 450.5977
1402.762, 645.4961
1403.816, 452.3320
1404.871, 366.1328
1405.925, 417.5312
1406.979, 740.2695
1408.033, 627.9844
1409.086, 591.6875
1410.140, 644.7539
1411.194, 422.3867
1412.247, 485.2383
1413.300, 396.8203
1414.353, 156.3594
1415.406, 516.8672
1416.458, 131.2656
1417.511, 610.7031
1418.563, 360.2031
1419.616, 184.5664
1420.668, 583.4414
1421.720, 94.75000
1422.772, 260.5781
1423.823, 573.8164
1424.875, 482.0156
1425.926, 259.4688
1426.977, 540.0039
1428.028, 504.3125
1429.079, 287.2031
1430.130, 320.0156
1431.180, 121.6758
1432.231, 267.4297
1433.281, 10.13281
1434.331, 341.4375
1435.381, 386.8359
1436.431, 106.0859
1437.481, 272.2656
1438.530, 188.3008
1439.580, 557.8281
1440.629, 511.3594
1441.678, 401.8984
1442.727, 649.4336
1443.776, 105.9688
1444.824, 87.50391
1445.873, 167.0352
1446.921, 152.5625
1447.969, 9.093750
1449.017, 137.6211
1450.065, 268.2109
1451.113, 51.81250
1452.160, 93.43359
1453.208, 69.71094
1454.255, 309.5625
1455.302, 109.1523
1456.349, 159.7695
1457.396, 353.4180
1458.443, 257.0781
1459.489, 211.6211
1460.535, 469.1719
1461.582, 379.7148
1462.628, 188.2227
1463.674, 157.6953
1464.719, 404.1641
1465.765, 59.37500
1466.810, 14.01172
1467.856, 104.4883
1468.901, 475.9961
1469.946, 176.5078
1470.991, 341.0586
1472.035, 333.6367
1473.080, 324.3047
1474.124, 331.9648
1475.169, 114.6445
1476.213, 310.3516
1477.257, 9.945313
1478.300, 152.1875
1479.344, 294.6211
1480.388, 358.4336
1481.431, 211.2969
1482.474, 325.2109
1483.517, 469.1445
1484.560, 18.89844
1485.603, 29.07031
1486.645, 25.93359
1487.688, 83.08594
1488.730, 224.1328
1489.772, 21.21484
1490.814, 553.2656
1491.856, 241.3711
1492.898, 131.8828
1493.939, 11.27734
1494.981, 226.4805
1496.022, 232.7305
1497.063, 222.0391
1498.104, 89.11719
1499.145, 127.1914
1500.186, 374.4648
1501.226, 168.8320
1502.266, 385.2617
1503.307, 444.7109
1504.347, 256.7461
1505.387, 278.8242
1506.426, 103.2227
1507.466, 142.4062
1508.505, 481.7656
1509.545, 466.3633
1510.584, 249.4297
1511.623, 397.9023
1512.662, 223.4023
1513.700, 270.1172
1514.739, 275.8828
1515.777, 357.3828
1516.815, 363.6719
1517.854, 334.9062
1518.892, 389.5625
1519.929, 299.3711
1520.967, 230.8984
1522.004, 355.1211
1523.042, 316.8047
1524.079, 328.0156
1525.116, 377.9219
1526.153, 303.9766
1527.190, 373.2695
1528.226, 331.5312
1529.263, 325.7148
1530.299, 127.3008
1531.335, 312.5039
1532.371, 450.9453
1533.407, 396.9766
1534.443, 186.4883
1535.478, 592.7109
1536.514, 221.3008
1537.549, 319.9492
1538.584, 398.9219
1539.619, 509.0156
1540.654, 74.36328
1541.689, 437.9102
1542.723, 30.55469
1543.757, 285.3008
1544.792, 147.1484
1545.826, 577.4102
1546.860, 6.691406
1547.893, 295.6602
1548.927, 319.9102
1549.960, 217.2930
1550.994, 193.9805
1552.027, 234.4922
1553.060, 410.8945
1554.093, 669.4609
1555.126, 333.7773
1556.158, 228.5469
1557.191, 568.8047
1558.223, 206.6133
1559.255, 226.6680
1560.287, 386.1523
1561.319, 1.472656
1562.350, 0.0000000E+00
##END=



