##NAMES=Hedenbergite
##RRUFFID=R060040
##IDEAL CHEMISTRY=CaFe^2+^Si_2_O_6_
##LOCALITY=Rio Marina, Elba, Italy
##OWNER=RRUFF
##SOURCE=University of Arizona Mineral Museum
##DESCRIPTION=Radial aggregate of green thin bladed crystals
##STATUS=The identification of this mineral has been confirmed by X-ray diffraction and chemical analysis
##URL=rruff.info/R060040
##MEASURED CHEMISTRY=Ca_1.00_(Fe^2+^_0.89_Mg_0.09_Mn_0.02_)_Î£=1_Si_2.00_O_6_
##PIN_ID=M00921
##ORIENTATION=Laser parallel to -b* (0 -1 0). Fiducial mark perpendicular to laser is parallel to c [0 0 1]
262.4900, 0.0000000E+00
263.7050, 167.7793
264.9210, 2.666016
266.1360, 54.80859
267.3520, 12.89648
268.5670, 105.6738
269.7820, 219.5332
270.9960, 156.0469
272.2110, 40.89062
273.4250, 297.8418
274.6400, 125.7480
275.8540, 275.4785
277.0680, 137.9102
278.2810, 281.9375
279.4950, 176.4668
280.7090, 255.4355
281.9220, 62.80273
283.1350, 120.5742
284.3480, 86.75977
285.5610, 103.3203
286.7730, 299.1934
287.9860, 165.3281
289.1980, 264.6816
290.4100, 270.2188
291.6220, 33.91016
292.8340, 363.7266
294.0460, 542.6465
295.2570, 699.6602
296.4690, 718.7715
297.6800, 639.9473
298.8910, 567.3457
300.1020, 763.8672
301.3120, 838.4570
302.5230, 859.5293
303.7330, 1019.135
304.9440, 1042.953
306.1540, 955.8809
307.3630, 1092.908
308.5730, 866.8281
309.7830, 1157.801
310.9920, 1152.676
312.2010, 889.4746
313.4100, 688.2188
314.6190, 840.9512
315.8280, 719.6133
317.0370, 713.2148
318.2450, 442.7461
319.4530, 401.2500
320.6610, 505.7148
321.8690, 505.1172
323.0770, 493.4551
324.2850, 675.7363
325.4920, 489.9727
326.6990, 579.1582
327.9060, 760.7617
329.1130, 571.1621
330.3200, 406.5059
331.5270, 635.6230
332.7330, 817.7910
333.9390, 892.6211
335.1450, 980.1445
336.3510, 812.0586
337.5570, 592.0703
338.7630, 675.2383
339.9680, 643.2949
341.1740, 690.0801
342.3790, 405.1367
343.5840, 554.3164
344.7890, 474.5645
345.9930, 566.0215
347.1980, 332.1348
348.4020, 225.2539
349.6060, 348.0488
350.8100, 441.3828
352.0140, 502.4414
353.2180, 181.4082
354.4210, 366.6367
355.6250, 296.3184
356.8280, 147.3672
358.0310, 286.5312
359.2340, 499.4727
360.4360, 411.5195
361.6390, 622.6836
362.8410, 529.2324
364.0430, 386.5742
365.2450, 455.0547
366.4470, 514.1562
367.6490, 682.1211
368.8510, 653.0645
370.0520, 696.4023
371.2530, 894.3711
372.4540, 984.3398
373.6550, 960.4844
374.8560, 787.8984
376.0560, 1151.459
377.2570, 788.3945
378.4570, 841.3281
379.6570, 762.2578
380.8570, 516.1875
382.0570, 452.1094
383.2560, 729.0312
384.4560, 352.9492
385.6550, 368.8633
386.8540, 58.32227
388.0530, 187.2207
389.2520, 220.2793
390.4510, 204.1699
391.6490, 9.052734
392.8470, 18.93555
394.0450, 205.8105
395.2430, 4.679688
396.4410, 26.87500
397.6390, 147.0527
398.8360, 86.83594
400.0340, 140.9902
401.2310, 129.0469
402.4280, 346.7773
403.6250, 83.05273
404.8210, 10.25000
406.0180, 40.56250
407.2140, 48.58984
408.4100, 308.4062
409.6060, 126.8906
410.8020, 37.91992
411.9980, 116.0234
413.1930, 7.804688
414.3890, 90.41016
415.5840, 24.67578
416.7790, 160.9746
417.9740, 92.30859
419.1680, 229.6699
420.3630, 14.05664
421.5570, 270.2871
422.7510, 128.0625
423.9450, 30.56836
425.1390, 170.3320
426.3330, 217.7168
427.5270, 174.1055
428.7200, 89.49609
429.9130, 209.2129
431.1060, 141.5938
432.2990, 152.9766
433.4920, 282.3613
434.6840, 135.7031
435.8770, 299.0645
437.0690, 13.46484
438.2610, 128.8633
439.4530, 56.27734
440.6450, 166.6953
441.8360, 88.52539
443.0280, 74.93164
444.2190, 215.3359
445.4100, 37.74609
446.6010, 50.84961
447.7920, 135.5273
448.9820, 58.89648
450.1730, 125.2656
451.3630, 139.7383
452.5530, 44.26953
453.7430, 158.7129
454.9330, 186.1172
456.1230, 68.56641
457.3120, 170.2305
458.5010, 3.148438
459.6910, 150.5293
460.8800, 5.201172
462.0680, 137.7969
463.2570, 187.1191
464.4460, 27.67383
465.6340, 23.98047
466.8220, 12.72070
468.0100, 98.55859
469.1980, 67.83008
470.3860, 281.4473
471.5730, 133.6992
472.7600, 5.939453
473.9480, 34.17188
475.1350, 30.39062
476.3210, 258.5996
477.5080, 97.78906
478.6950, 265.9453
479.8810, 130.0938
481.0670, 358.2344
482.2530, 177.3613
483.4390, 70.48242
484.6250, 20.59961
485.8100, 205.5762
486.9960, 18.47070
488.1810, 201.4629
489.3660, 352.3516
490.5510, 429.2324
491.7360, 153.1074
492.9200, 333.9609
494.1050, 405.8086
495.2890, 308.6484
496.4730, 371.4824
497.6570, 387.3105
498.8400, 411.1074
500.0240, 364.9004
501.2070, 248.6836
502.3910, 305.4629
503.5740, 240.2383
504.7570, 451.0039
505.9400, 194.7578
507.1220, 266.5059
508.3050, 13.23438
509.4870, 236.9570
510.6690, 269.6719
511.8510, 451.3750
513.0330, 135.0723
514.2140, 83.76172
515.3960, 155.4434
516.5770, 261.1172
517.7580, 201.7812
518.9390, 306.4277
520.1200, 191.0664
521.3010, 164.6973
522.4810, 132.3223
523.6610, 214.9395
524.8420, 232.5547
526.0220, 283.1602
527.2010, 205.7578
528.3810, 92.65430
529.5610, 38.89453
530.7400, 190.4375
531.9190, 250.9707
533.0980, 143.5020
534.2770, 41.89453
535.4560, 266.3203
536.6340, 40.82422
537.8120, 58.82617
538.9910, 126.5234
540.1690, 330.9551
541.3460, 170.3770
542.5240, 13.79102
543.7020, 191.1719
544.8790, 246.5469
546.0560, 272.9082
547.2330, 268.4141
548.4100, 323.0117
549.5870, 266.3242
550.7630, 351.6523
551.9400, 349.9746
553.1160, 190.9570
554.2920, 338.2598
555.4680, 412.8516
556.6440, 245.4883
557.8190, 538.6250
558.9950, 400.8848
560.1700, 358.6250
561.3450, 275.8652
562.5200, 77.15625
563.6950, 352.1953
564.8690, 252.2539
566.0440, 3.318359
567.2180, 185.5684
568.3920, 150.8516
569.5660, 134.0781
570.7400, 38.35742
571.9130, 205.5566
573.0870, 208.7480
574.2600, 298.2188
575.4330, 0.7812500
576.6060, 20.78906
577.7790, 130.5137
578.9520, 228.7363
580.1240, 135.0215
581.2960, 125.1484
582.4690, 26.78320
583.6410, 193.1504
584.8120, 195.4258
585.9840, 229.5215
587.1560, 244.7734
588.3270, 314.0898
589.4980, 170.5586
590.6690, 222.0879
591.8400, 104.2969
593.0110, 88.44531
594.1810, 107.5391
595.3510, 114.1113
596.5220, 115.5137
597.6920, 61.98242
598.8610, 70.08008
600.0310, 52.59961
601.2010, 53.21289
602.3700, 90.06055
603.5390, 474.8613
604.7080, 96.14453
605.8770, 164.2422
607.0460, 335.3809
608.2140, 210.7910
609.3830, 166.5859
610.5510, 70.06250
611.7190, 165.7480
612.8870, 194.6406
614.0550, 207.5078
615.2220, 336.8848
616.3900, 276.2305
617.5570, 245.4316
618.7240, 265.0176
619.8910, 376.9121
621.0580, 309.7344
622.2240, 328.8281
623.3910, 200.1348
624.5570, 333.3672
625.7230, 357.6523
626.8890, 459.1523
628.0550, 444.8359
629.2200, 541.9590
630.3860, 309.7051
631.5510, 368.1387
632.7160, 631.1035
633.8810, 427.5059
635.0460, 323.8906
636.2100, 490.5254
637.3750, 438.0586
638.5390, 520.3926
639.7030, 771.1836
640.8670, 841.6250
642.0310, 730.4023
643.1950, 1019.471
644.3580, 901.8574
645.5210, 1076.480
646.6850, 1323.068
647.8480, 1402.307
649.0100, 1811.480
650.1730, 2184.883
651.3350, 2438.203
652.4980, 2652.611
653.6600, 3094.023
654.8220, 3688.977
655.9840, 4028.119
657.1450, 4127.502
658.3070, 4658.547
659.4680, 4804.045
660.6300, 4524.059
661.7910, 4350.232
662.9510, 3944.068
664.1120, 3339.051
665.2730, 2957.020
666.4330, 2247.082
667.5930, 2203.014
668.7530, 1592.086
669.9130, 1366.016
671.0730, 1387.766
672.2320, 970.8965
673.3920, 852.0645
674.5510, 856.5332
675.7100, 628.7871
676.8690, 653.4629
678.0280, 480.0117
679.1860, 349.0352
680.3450, 627.2461
681.5030, 191.6191
682.6610, 567.7910
683.8190, 523.5059
684.9770, 368.2188
686.1340, 300.9180
687.2920, 397.6055
688.4490, 356.4785
689.6060, 205.1406
690.7630, 260.7852
691.9200, 23.40625
693.0760, 294.0078
694.2330, 229.8281
695.3890, 98.39062
696.5450, 390.9375
697.7010, 302.4609
698.8570, 67.97266
700.0130, 259.4570
701.1680, 125.7461
702.3230, 372.4961
703.4780, 24.01562
704.6330, 496.8789
705.7880, 417.6562
706.9430, 190.1484
708.0970, 314.6172
709.2520, 293.0703
710.4060, 208.1992
711.5600, 236.6328
712.7140, 131.0508
713.8670, 107.4453
715.0210, 52.73438
716.1740, 97.78906
717.3270, 121.4766
718.4800, 27.28906
719.6330, 10.90234
720.7860, 72.05469
721.9380, 132.7656
723.0910, 150.8750
724.2430, 25.03516
725.3950, 112.0039
726.5470, 205.0234
727.6980, 94.10547
728.8500, 17.83203
730.0010, 150.3555
731.1530, 179.1602
732.3040, 104.8750
733.4550, 91.64453
734.6050, 92.58594
735.7560, 80.08203
736.9060, 182.4961
738.0560, 159.9180
739.2060, 84.25391
740.3560, 157.4336
741.5060, 223.8672
742.6560, 91.41016
743.8050, 69.69141
744.9540, 57.18359
746.1030, 167.5391
747.2520, 193.9922
748.4010, 32.82812
749.5500, 339.8828
750.6980, 159.2656
751.8460, 57.63281
752.9950, 276.9766
754.1420, 506.4219
755.2900, 69.72266
756.4380, 366.0000
757.5850, 136.2539
758.7330, 149.4844
759.8800, 80.96094
761.0270, 45.14844
762.1730, 4.695313
763.3200, 188.6055
764.4670, 346.7031
765.6130, 156.7852
766.7590, 63.85547
767.9050, 146.8945
769.0510, 243.9141
770.1960, 157.0938
771.3420, 273.7852
772.4870, 435.6406
773.6320, 153.4766
774.7770, 174.2930
775.9220, 259.0820
777.0670, 103.8555
778.2110, 183.6055
779.3560, 99.33203
780.5000, 46.64062
781.6440, 185.3164
782.7880, 123.9688
783.9320, 128.6016
785.0750, 207.2109
786.2180, 106.2656
787.3620, 160.8359
788.5050, 175.4570
789.6480, 150.9844
790.7900, 145.4844
791.9330, 295.9688
793.0750, 201.4297
794.2170, 140.1094
795.3590, 299.5312
796.5010, 103.9258
797.6430, 223.9102
798.7850, 172.2656
799.9260, 38.64453
801.0670, 294.8164
802.2080, 348.3594
803.3490, 193.6289
804.4900, 488.8711
805.6310, 227.5820
806.7710, 124.8125
807.9110, 41.02734
809.0510, 155.2148
810.1910, 141.3789
811.3310, 254.9844
812.4710, 113.9609
813.6100, 169.9336
814.7490, 107.0078
815.8880, 163.2344
817.0270, 117.2852
818.1660, 74.31641
819.3050, 279.3203
820.4430, 259.3008
821.5820, 229.8086
822.7200, 272.7500
823.8580, 289.6719
824.9950, 180.6211
826.1330, 382.8516
827.2710, 255.7148
828.4080, 438.5547
829.5450, 404.6367
830.6820, 169.4609
831.8190, 239.2578
832.9560, 456.6875
834.0920, 278.4414
835.2280, 37.18750
836.3650, 226.4141
837.5010, 53.29688
838.6360, 103.8984
839.7720, 382.9883
840.9080, 64.36328
842.0430, 9.109375
843.1780, 269.6211
844.3130, 416.9961
845.4480, 301.3945
846.5830, 332.8320
847.7170, 505.2383
848.8520, 363.5742
849.9860, 534.5938
851.1200, 446.4883
852.2540, 604.0078
853.3870, 617.6719
854.5210, 417.5625
855.6540, 550.6016
856.7880, 407.6953
857.9210, 506.3203
859.0540, 730.1758
860.1860, 305.0938
861.3190, 556.1523
862.4510, 212.8633
863.5840, 24.94531
864.7160, 195.5234
865.8480, 151.9336
866.9790, 375.7148
868.1110, 283.5977
869.2420, 328.1758
870.3740, 252.7109
871.5050, 262.3750
872.6360, 463.8203
873.7660, 506.7148
874.8970, 293.4961
876.0280, 202.9375
877.1580, 378.4570
878.2880, 310.3945
879.4180, 401.8164
880.5480, 286.1289
881.6770, 19.34766
882.8070, 503.0273
883.9360, 92.79688
885.0650, 332.7422
886.1940, 239.5508
887.3230, 344.1211
888.4520, 425.2266
889.5800, 156.9805
890.7090, 551.7188
891.8370, 266.8398
892.9650, 345.5469
894.0930, 341.9180
895.2200, 121.3320
896.3480, 192.4492
897.4750, 334.3164
898.6020, 62.91016
899.7290, 414.5430
900.8560, 380.0938
901.9830, 249.3789
903.1090, 253.2383
904.2360, 255.5000
905.3620, 374.0430
906.4880, 375.0273
907.6140, 429.5430
908.7400, 330.0547
909.8650, 333.2891
910.9900, 276.5898
912.1160, 242.0586
913.2410, 347.3477
914.3660, 233.6680
915.4900, 30.67188
916.6150, 354.3516
917.7390, 377.6797
918.8640, 172.7344
919.9880, 504.8750
921.1120, 53.25391
922.2350, 456.1875
923.3590, 146.3359
924.4820, 314.5391
925.6060, 198.6406
926.7290, 224.7070
927.8520, 254.0508
928.9740, 105.3203
930.0970, 333.3203
931.2190, 289.6211
932.3420, 27.43359
933.4640, 297.7031
934.5860, 149.7734
935.7080, 77.84375
936.8290, 98.33203
937.9510, 269.4883
939.0720, 405.5156
940.1930, 42.64453
941.3140, 303.7578
942.4350, 159.4609
943.5560, 391.9688
944.6760, 269.7852
945.7960, 45.52344
946.9170, 6.828125
948.0370, 77.58594
949.1560, 196.1484
950.2760, 120.6094
951.3960, 341.2891
952.5150, 239.7656
953.6340, 283.0508
954.7530, 324.9453
955.8720, 72.17578
956.9910, 222.6406
958.1090, 369.4453
959.2280, 141.2344
960.3460, 67.81641
961.4640, 407.5781
962.5820, 164.3203
963.6990, 358.3008
964.8170, 422.9844
965.9340, 267.4648
967.0510, 170.2500
968.1690, 168.9414
969.2850, 418.6250
970.4020, 149.2891
971.5190, 103.9492
972.6350, 56.76172
973.7510, 54.16406
974.8670, 95.58594
975.9830, 368.5781
977.0990, 117.2773
978.2150, 261.7578
979.3300, 231.2266
980.4450, 116.6836
981.5600, 120.1328
982.6750, 391.5703
983.7900, 348.4766
984.9050, 435.8906
986.0190, 359.2969
987.1340, 439.7109
988.2480, 594.1484
989.3620, 376.5781
990.4750, 203.0117
991.5890, 666.9062
992.7020, 645.3242
993.8160, 869.7305
994.9290, 690.1250
996.0420, 1041.520
997.1550, 827.9062
998.2670, 1025.219
999.3800, 1109.094
1000.492, 1568.441
1001.604, 2044.801
1002.716, 2432.332
1003.828, 3182.070
1004.940, 3656.492
1006.051, 4799.844
1007.163, 5840.473
1008.274, 6409.809
1009.385, 7046.129
1010.496, 7796.445
1011.606, 7905.797
1012.717, 7456.133
1013.827, 7186.465
1014.937, 5724.781
1016.047, 5002.211
1017.157, 4073.508
1018.267, 3206.395
1019.377, 2701.676
1020.486, 2214.957
1021.595, 2063.227
1022.704, 1565.492
1023.813, 1224.617
1024.922, 1289.855
1026.030, 1319.090
1027.139, 1182.309
1028.247, 923.2852
1029.355, 895.2188
1030.463, 1077.410
1031.571, 891.6016
1032.678, 905.6133
1033.786, 863.8086
1034.893, 552.9727
1036.000, 840.1367
1037.107, 679.7500
1038.214, 780.8945
1039.321, 617.1289
1040.427, 350.3008
1041.533, 368.8672
1042.639, 601.0156
1043.745, 366.1523
1044.851, 268.2812
1045.957, 67.67578
1047.062, 264.7773
1048.168, 388.6602
1049.273, 312.3281
1050.378, 313.4141
1051.482, 356.4805
1052.587, 125.6055
1053.692, 182.6523
1054.796, 208.2188
1055.900, 306.2461
1057.004, 390.1836
1058.108, 457.9648
1059.212, 578.9570
1060.315, 559.9453
1061.418, 347.9141
1062.522, 271.6367
1063.625, 232.5859
1064.728, 289.5273
1065.830, 200.1094
1066.933, 506.0273
1068.035, 493.8906
1069.137, 495.9258
1070.239, 398.5586
1071.341, 409.4336
1072.443, 522.3047
1073.545, 418.6758
1074.646, 554.5234
1075.747, 56.35938
1076.848, 167.1367
1077.949, 149.9570
1079.050, 67.30078
1080.150, 224.2461
1081.251, 295.1641
1082.351, 246.9453
1083.451, 371.7773
1084.551, 210.5430
1085.651, 241.2969
1086.750, 462.0469
1087.850, 329.7852
1088.949, 407.9766
1090.048, 349.6953
1091.147, 183.4062
1092.246, 273.0625
1093.345, 226.4062
1094.443, 160.0898
1095.541, 48.76562
1096.639, 45.33984
1097.737, 176.2695
1098.835, 88.87500
1099.933, 600.4688
1101.030, 311.0508
1102.128, 493.6250
1103.225, 389.1953
1104.322, 190.5664
1105.419, 356.7383
1106.515, 97.01562
1107.612, 217.6875
1108.708, 283.3008
1109.804, 208.8359
1110.900, 447.4375
1111.996, 256.0312
1113.092, 202.5508
1114.187, 181.3516
1115.283, 27.92578
1116.378, 199.4844
1117.473, 168.0352
1118.568, 289.5820
1119.662, 206.1172
1120.757, 296.6445
1121.851, 192.1719
1122.946, 26.68750
1124.040, 314.1875
1125.134, 265.6875
1126.227, 157.1758
1127.321, 84.65234
1128.414, 368.1289
1129.508, 212.5977
1130.601, 1.062500
1131.693, 34.50781
1132.786, 89.94141
1133.879, 72.62891
1134.971, 92.26562
1136.064, 47.09766
1137.156, 260.3906
1138.248, 90.32422
1139.339, 188.8828
1140.431, 413.0898
1141.522, 263.2930
1142.614, 132.4844
1143.705, 277.6719
1144.796, 278.8516
1145.887, 196.0273
1146.977, 250.1914
1148.068, 241.3633
1149.158, 143.5195
1150.248, 239.6719
1151.338, 513.2969
1152.428, 135.4414
1153.518, 184.5781
1154.607, 262.7148
1155.696, 257.8438
1156.785, 135.9648
1157.874, 308.0820
1158.963, 21.80078
1160.052, 167.2812
1161.141, 91.36328
1162.229, 154.1445
1163.317, 256.2148
1164.405, 38.30469
1165.493, 361.3906
1166.581, 85.46875
1167.668, 177.4570
1168.756, 403.5000
1169.843, 3.457031
1170.930, 381.4023
1172.017, 34.66406
1173.103, 183.2383
1174.190, 277.8047
1175.276, 316.6992
1176.363, 65.41797
1177.449, 140.1367
1178.535, 169.4688
1179.620, 22.25781
1180.706, 146.9805
1181.791, 455.6992
1182.877, 26.41406
1183.962, 124.0547
1185.047, 89.76172
1186.131, 160.4688
1187.216, 261.1719
1188.300, 62.12891
1189.385, 437.5234
1190.469, 550.1758
1191.553, 291.8281
1192.637, 247.4727
1193.720, 158.1172
1194.804, 296.7539
1195.887, 13.39844
1196.970, 149.0352
1198.053, 38.67188
1199.136, 277.3086
1200.219, 320.9648
1201.301, 401.6172
1202.383, 123.2734
1203.465, 363.9297
1204.547, 416.5859
1205.629, 118.2422
1206.711, 41.40234
1207.792, 282.2188
1208.874, 74.84375
1209.955, 140.2109
1211.036, 66.84375
1212.117, 435.4961
1213.198, 9.148438
1214.278, 116.7969
1215.359, 176.4492
1216.439, 143.0977
1217.519, 261.7500
1218.599, 351.4023
1219.678, 331.0742
1220.758, 352.7500
1221.837, 120.4258
1222.917, 341.1055
1223.996, 230.7852
1225.075, 119.4648
1226.153, 37.09375
1227.232, 264.6172
1228.310, 70.28516
1229.389, 348.8789
1230.467, 235.5508
1231.545, 254.2227
1232.622, 459.8945
1233.700, 235.0312
1234.777, 593.7109
1235.855, 404.2891
1236.932, 315.9961
1238.009, 341.7305
1239.086, 514.4688
1240.162, 111.2070
1241.239, 400.9531
1242.315, 334.6992
1243.391, 22.55078
1244.467, 269.1875
1245.543, 104.4492
1246.619, 263.1953
1247.694, 350.9453
1248.769, 177.6953
1249.844, 460.4492
1250.919, 266.2070
1251.994, 111.9688
1253.069, 347.2617
1254.144, 87.02734
1255.218, 420.8008
1256.292, 210.5781
1257.366, 162.3594
1258.440, 407.1445
1259.514, 433.9336
1260.587, 329.1445
1261.661, 311.7227
1262.734, 120.5312
1263.807, 200.1602
1264.880, 27.42188
1265.952, 143.3008
1267.025, 243.1172
1268.097, 19.66016
1269.170, 208.4883
1270.242, 283.3281
1271.314, 249.1719
1272.385, 100.0234
1273.457, 205.8867
1274.528, 399.7539
1275.600, 253.6289
1276.671, 207.5117
1277.742, 127.4023
1278.812, 408.3008
1279.883, 65.41406
1280.954, 372.4805
1282.024, 82.38281
1283.094, 114.2930
1284.164, 267.2109
1285.234, 243.1406
1286.303, 300.0781
1287.373, 389.0547
1288.442, 80.24609
1289.511, 249.2109
1290.580, 50.57422
1291.649, 385.3984
1292.718, 158.3789
1293.786, 109.3594
1294.855, 263.3594
1295.923, 105.3750
1296.991, 324.9336
1298.059, 295.9648
1299.126, 366.9023
1300.194, 130.9648
1301.261, 548.6250
1302.328, 28.28906
1303.395, 59.80859
1304.462, 145.9297
1305.529, 294.7812
1306.596, 26.08203
1307.662, 64.29297
1308.728, 135.2734
1309.794, 271.4531
1310.860, 225.6523
1311.926, 304.7969
1312.991, 237.0273
1314.057, 401.2734
1315.122, 545.5391
1316.187, 561.8164
1317.252, 255.3438
1318.317, 141.6602
1319.381, 337.9883
1320.446, 371.3398
1321.510, 355.7070
1322.574, 368.1016
1323.638, 691.5234
1324.702, 579.6953
1325.766, 345.1484
1326.829, 759.6133
1327.892, 411.0898
1328.956, 405.5781
1330.019, 157.0820
1331.081, 312.5938
1332.144, 213.1250
1333.206, 78.66406
1334.269, 358.2148
1335.331, 228.8359
1336.393, 269.4180
1337.455, 592.0117
1338.516, 160.6289
1339.578, 330.2500
1340.639, 444.8906
1341.701, 307.3359
1342.762, 192.0000
1343.822, 64.68359
1344.883, 404.3828
1345.944, 132.0820
1347.004, 224.7969
1348.064, 729.5273
1349.124, 315.2734
1350.184, 317.8086
1351.244, 574.5820
1352.304, 552.3750
1353.363, 152.1875
1354.422, 388.7773
1355.481, 428.6445
1356.540, 463.5859
1357.599, 260.5469
1358.657, 270.4648
1359.716, 284.3984
1360.774, 29.65234
1361.832, 340.3164
1362.890, 79.69922
1363.948, 45.29688
1365.006, 401.3086
1366.063, 641.3398
1367.120, 645.3906
1368.178, 534.4531
1369.234, 321.5352
1370.291, 598.6367
1371.348, 140.4844
1372.404, 362.6133
1373.461, 236.7695
1374.517, 457.9453
1375.573, 363.1367
1376.629, 337.3555
1377.684, 212.5898
1378.740, 592.8477
1379.795, 234.1211
1380.850, 600.4219
1381.905, 199.7461
1382.960, 367.0820
1384.015, 474.4453
1385.070, 582.8320
1386.124, 258.2383
1387.178, 342.6641
1388.232, 188.1172
1389.286, 259.5977
1390.340, 251.0977
1391.393, 371.6445
1392.447, 154.1797
1393.500, 161.8086
1394.553, 179.4570
1395.606, 126.1602
1396.659, 231.8867
1397.711, 266.6367
1398.764, 204.4062
1399.816, 106.2070
1400.868, 55.02734
1401.920, 519.8672
1402.972, 294.7344
1404.023, 338.6250
1405.075, 335.5312
1406.126, 28.54297
1407.177, 105.9414
1408.228, 249.9219
1409.279, 195.9297
1410.330, 102.9688
1411.380, 45.02734
1412.431, 163.1211
1413.481, 57.75781
1414.531, 89.39062
1415.580, 107.5820
1416.630, 21.19531
1417.680, 111.3477
1418.729, 165.6289
1419.778, 310.9453
1420.827, 160.2930
1421.876, 438.6758
1422.925, 195.0938
1423.973, 236.5938
1425.022, 135.1367
1426.070, 197.7188
1427.118, 201.3398
1428.166, 368.0156
1429.214, 239.4062
1430.261, 136.1680
1431.309, 252.9648
1432.356, 142.8359
1433.403, 233.1875
1434.450, 63.19922
1435.497, 219.2617
1436.543, 469.3789
1437.590, 96.58984
1438.636, 360.8945
1439.682, 70.17578
1440.728, 108.5195
1441.774, 176.8086
1442.819, 375.1719
1443.865, 629.7539
1444.910, 442.2344
1445.955, 428.7617
1447.000, 643.3398
1448.045, 352.2617
1449.090, 294.9570
1450.134, 574.7344
1451.178, 487.3594
1452.223, 123.2578
1453.267, 220.5703
1454.310, 184.9219
1455.354, 232.3008
1456.398, 222.7148
1457.441, 208.1875
1458.484, 369.6914
1459.527, 371.2305
1460.570, 648.8047
1461.613, 556.4180
1462.655, 141.0625
1463.698, 466.7422
1464.740, 461.4531
1465.782, 169.1992
1466.824, 686.0039
1467.866, 265.8320
1468.907, 281.6992
1469.948, 357.0703
1470.990, 240.7773
1472.031, 503.7344
1473.072, 325.7227
1474.112, 291.7500
1475.153, 47.16797
1476.194, 128.9531
1477.234, 232.1133
1478.274, 179.3125
1479.314, 291.5547
1480.354, 188.8359
1481.393, 57.84375
1482.433, 7.476563
1483.472, 239.9297
1484.511, 295.3750
1485.550, 353.8750
1486.589, 578.4180
1487.628, 95.00000
1488.666, 386.6250
1489.704, 383.2852
1490.743, 236.9922
1491.781, 281.1914
1492.819, 368.0078
1493.856, 305.8633
1494.894, 310.7617
1495.931, 401.1133
1496.968, 538.7070
1498.005, 617.7344
1499.042, 337.7969
1500.079, 259.9062
1501.115, 64.05469
1502.152, 698.2383
1503.188, 339.4570
1504.224, 348.6953
1505.260, 306.9766
1506.296, 140.2852
1507.331, 427.6289
1508.367, 497.0000
1509.402, 421.3906
1510.437, 258.8047
1511.472, 674.2383
1512.507, 371.6680
1513.541, 492.0977
1514.576, 353.5547
1515.610, 337.0742
1516.644, 525.6719
1517.678, 174.3398
1518.712, 378.0742
1519.746, 267.8828
1520.779, 120.7656
1521.813, 489.7148
1522.846, 492.7461
1523.879, 369.8867
1524.912, 358.1328
1525.944, 535.5625
1526.977, 443.9375
1528.009, 520.3906
1529.041, 484.1602
1530.073, 534.5508
1531.105, 232.1992
1532.137, 298.9297
1533.168, 409.7539
1534.200, 354.6758
1535.231, 438.6953
1536.262, 546.8359
1537.293, 442.1055
1538.324, 673.4805
1539.354, 405.9648
1540.385, 427.5586
1541.415, 530.2695
1542.445, 446.1055
1543.475, 347.0742
1544.505, 182.1836
1545.534, 77.44922
1546.564, 416.8828
1547.593, 387.4883
1548.622, 812.2656
1549.651, 487.2422
1550.680, 207.4062
1551.708, 364.8633
1552.737, 55.39062
1553.765, 623.6875
1554.793, 608.0391
1555.821, 355.6875
1556.849, 320.6602
1557.877, 198.9648
1558.904, 397.6445
1559.932, 197.7383
1560.959, 95.27734
1561.986, 95.32031
1563.013, 498.9180
1564.039, 922.1289
1565.066, 333.3438
1566.092, 131.1641
1567.119, 107.1523
1568.145, 228.1680
1569.170, 241.6836
1570.196, 359.1602
1571.222, 4.457031
1572.247, 273.4375
1573.272, 338.0859
1574.297, 35.30859
1575.322, 0.0000000E+00
##END=



