##NAMES=Hedenbergite
##RRUFFID=R060040
##IDEAL CHEMISTRY=CaFe^2+^Si_2_O_6_
##LOCALITY=Rio Marina, Elba, Italy
##OWNER=RRUFF
##SOURCE=University of Arizona Mineral Museum
##DESCRIPTION=Radial aggregate of green thin bladed crystals
##STATUS=The identification of this mineral has been confirmed by X-ray diffraction and chemical analysis
##URL=rruff.info/R060040
##MEASURED CHEMISTRY=Ca_1.00_(Fe^2+^_0.89_Mg_0.09_Mn_0.02_)_Î£=1_Si_2.00_O_6_
##PIN_ID=M00548
##ORIENTATION=Laser parallel to c* (0 0 1). Fiducial mark perpendicular to laser is parallel to a [1 0 0]
262.4900, 0.0000000E+00
263.7050, 57.21680
264.9210, 56.62012
266.1360, 158.2080
267.3520, 146.4746
268.5670, 13.40918
269.7820, 223.5850
270.9960, 191.7900
272.2110, 211.6572
273.4250, 201.0039
274.6400, 199.6504
275.8540, 56.63477
277.0680, 227.9336
278.2810, 217.1855
279.4950, 194.9756
280.7090, 180.2842
281.9220, 254.2988
283.1350, 171.1260
284.3480, 172.6182
285.5610, 235.5713
286.7730, 470.8320
287.9860, 514.2822
289.1980, 425.8408
290.4100, 511.4688
291.6220, 387.1436
292.8340, 457.8252
294.0460, 789.4727
295.2570, 733.0508
296.4690, 892.6240
297.6800, 912.6270
298.8910, 1241.787
300.1020, 1165.164
301.3120, 1351.830
302.5230, 1431.263
303.7330, 1571.832
304.9440, 1603.928
306.1540, 1725.581
307.3630, 1702.709
308.5730, 1607.361
309.7830, 1711.620
310.9920, 1612.467
312.2010, 1479.922
313.4100, 1296.027
314.6190, 1093.878
315.8280, 1021.507
317.0370, 969.9189
318.2450, 871.4717
319.4530, 903.8262
320.6610, 665.9971
321.8690, 788.8877
323.0770, 1024.507
324.2850, 958.8740
325.4920, 901.9697
326.6990, 868.8037
327.9060, 1073.388
329.1130, 1083.795
330.3200, 1075.997
331.5270, 1160.788
332.7330, 1428.854
333.9390, 1258.192
335.1450, 1415.249
336.3510, 1545.996
337.5570, 1702.140
338.7630, 1792.179
339.9680, 1734.340
341.1740, 1634.619
342.3790, 1752.809
343.5840, 1726.848
344.7890, 1582.749
345.9930, 1362.462
347.1980, 1388.809
348.4020, 1268.639
349.6060, 1185.630
350.8100, 925.5781
352.0140, 1300.124
353.2180, 1110.969
354.4210, 1225.326
355.6250, 1199.479
356.8280, 1361.422
358.0310, 1351.490
359.2340, 1390.944
360.4360, 1608.633
361.6390, 1736.618
362.8410, 2018.853
364.0430, 2173.344
365.2450, 2610.166
366.4470, 2948.916
367.6490, 3529.160
368.8510, 3729.996
370.0520, 4466.820
371.2530, 4508.389
372.4540, 5068.225
373.6550, 5203.686
374.8560, 5270.910
376.0560, 5056.698
377.2570, 4681.711
378.4570, 4098.784
379.6570, 3635.366
380.8570, 3300.895
382.0570, 2654.469
383.2560, 2087.699
384.4560, 1753.545
385.6550, 1430.115
386.8540, 986.4590
388.0530, 956.9238
389.2520, 874.2070
390.4510, 418.6387
391.6490, 446.7617
392.8470, 436.2402
394.0450, 389.1504
395.2430, 196.0527
396.4410, 191.4238
397.6390, 111.2539
398.8360, 28.23242
400.0340, 43.68945
401.2310, 34.41602
402.4280, 15.64648
403.6250, 56.76367
404.8210, 123.0566
406.0180, 49.22852
407.2140, 152.6523
408.4100, 0.9062500
409.6060, 22.58398
410.8020, 38.81055
411.9980, 151.8809
413.1930, 178.6934
414.3890, 17.91406
415.5840, 90.86719
416.7790, 50.34570
417.9740, 60.57812
419.1680, 51.84570
420.3630, 45.38281
421.5570, 86.71875
422.7510, 39.10547
423.9450, 81.46875
425.1390, 115.0137
426.3330, 88.53516
427.5270, 149.0215
428.7200, 174.4746
429.9130, 131.8945
431.1060, 45.27539
432.2990, 121.6133
433.4920, 72.91211
434.6840, 258.1699
435.8770, 294.6074
437.0690, 249.7871
438.2610, 399.9297
439.4530, 259.0312
440.6450, 213.0996
441.8360, 309.1211
443.0280, 267.0996
444.2190, 219.0273
445.4100, 278.8965
446.6010, 99.70508
447.7920, 129.4512
448.9820, 372.1328
450.1730, 242.7617
451.3630, 288.3320
452.5530, 243.8496
453.7430, 276.3145
454.9330, 190.7324
456.1230, 334.0996
457.3120, 275.4199
458.5010, 501.6973
459.6910, 223.9297
460.8800, 228.1133
462.0680, 261.2539
463.2570, 183.3496
464.4460, 256.4004
465.6340, 65.41016
466.8220, 175.3711
468.0100, 4.292969
469.1980, 181.1660
470.3860, 184.0000
471.5730, 18.79688
472.7600, 219.5469
473.9480, 117.2441
475.1350, 141.8730
476.3210, 0.5878910
477.5080, 300.8457
478.6950, 75.08984
479.8810, 98.76367
481.0670, 45.79297
482.2530, 15.98633
483.4390, 27.31836
484.6250, 177.2383
485.8100, 160.6641
486.9960, 60.02930
488.1810, 36.35938
489.3660, 7.662109
490.5510, 4.074219
491.7360, 110.1523
492.9200, 198.3613
494.1050, 393.5508
495.2890, 94.72266
496.4730, 382.8789
497.6570, 438.0176
498.8400, 192.1309
500.0240, 170.2246
501.2070, 194.3008
502.3910, 222.3574
503.5740, 179.3984
504.7570, 98.42578
505.9400, 313.4297
507.1220, 241.4160
508.3050, 456.3770
509.4870, 365.3105
510.6690, 246.2168
511.8510, 315.1055
513.0330, 479.9629
514.2140, 555.8027
515.3960, 325.5781
516.5770, 556.3086
517.7580, 691.0254
518.9390, 696.7305
520.1200, 588.4004
521.3010, 506.0586
522.4810, 763.7070
523.6610, 671.3438
524.8420, 463.9668
526.0220, 516.5781
527.2010, 430.1719
528.3810, 383.7852
529.5610, 485.4062
530.7400, 254.0176
531.9190, 522.6211
533.0980, 198.2324
534.2770, 309.8672
535.4560, 262.4941
536.6340, 19.86523
537.8120, 358.2676
538.9910, 439.3750
540.1690, 353.0273
541.3460, 411.5215
542.5240, 311.3984
543.7020, 476.1270
544.8790, 269.5254
546.0560, 539.4160
547.2330, 651.2793
548.4100, 698.7188
549.5870, 681.6562
550.7630, 763.2207
551.9400, 773.2949
553.1160, 621.1621
554.2920, 723.0996
555.4680, 446.3457
556.6440, 470.6895
557.8190, 416.1094
558.9950, 299.4160
560.1700, 285.1172
561.3450, 228.3652
562.5200, 345.1504
563.6950, 259.3398
564.8690, 214.5117
566.0440, 344.8145
567.2180, 217.3770
568.3920, 170.7012
569.5660, 330.3867
570.7400, 246.1562
571.9130, 321.7266
573.0870, 173.5430
574.2600, 298.0293
575.4330, 318.1055
576.6060, 88.12109
577.7790, 302.2676
578.9520, 219.2070
580.1240, 395.3770
581.2960, 168.3145
582.4690, 257.0391
583.6410, 306.1465
584.8120, 332.0586
585.9840, 333.7520
587.1560, 211.6758
588.3270, 338.7832
589.4980, 212.0488
590.6690, 252.0820
591.8400, 287.8145
593.0110, 358.7188
594.1810, 448.4238
595.3510, 231.9473
596.5220, 311.6074
597.6920, 360.8457
598.8610, 380.6562
600.0310, 283.8379
601.2010, 337.4961
602.3700, 330.6562
603.5390, 321.4492
604.7080, 396.0488
605.8770, 315.8926
607.0460, 491.6230
608.2140, 379.8574
609.3830, 499.7188
610.5510, 465.9473
611.7190, 671.1738
612.8870, 676.2773
614.0550, 644.6250
615.2220, 664.5312
616.3900, 787.5273
617.5570, 670.1973
618.7240, 513.8398
619.8910, 779.5332
621.0580, 661.0977
622.2240, 733.0996
623.3910, 797.4805
624.5570, 727.5977
625.7230, 811.6719
626.8890, 677.5293
628.0550, 770.4258
629.2200, 724.8848
630.3860, 713.9160
631.5510, 715.6875
632.7160, 997.0273
633.8810, 888.5977
635.0460, 840.6797
636.2100, 969.0547
637.3750, 815.1094
638.5390, 1176.305
639.7030, 1125.383
640.8670, 1039.369
642.0310, 1219.084
643.1950, 1145.867
644.3580, 1377.184
645.5210, 1197.846
646.6850, 1823.273
647.8480, 1945.217
649.0100, 2036.346
650.1730, 2244.004
651.3350, 3358.213
652.4980, 3331.799
653.6600, 3527.723
654.8220, 3968.908
655.9840, 4573.033
657.1450, 5040.096
658.3070, 5256.871
659.4680, 5512.930
660.6300, 5494.051
661.7910, 5135.928
662.9510, 4659.609
664.1120, 4110.350
665.2730, 3549.424
666.4330, 3218.338
667.5930, 2685.389
668.7530, 2535.893
669.9130, 2069.414
671.0730, 1573.451
672.2320, 1502.299
673.3920, 1395.465
674.5510, 1291.549
675.7100, 1208.537
676.8690, 1097.818
678.0280, 902.7812
679.1860, 905.8691
680.3450, 884.9258
681.5030, 888.0898
682.6610, 685.5273
683.8190, 679.0000
684.9770, 649.7441
686.1340, 644.7852
687.2920, 640.6641
688.4490, 566.9668
689.6060, 605.0684
690.7630, 432.1113
691.9200, 808.8125
693.0760, 609.6523
694.2330, 553.7109
695.3890, 596.9434
696.5450, 585.9824
697.7010, 639.6504
698.8570, 511.0117
700.0130, 398.1426
701.1680, 532.1719
702.3230, 386.1543
703.4780, 458.6152
704.6330, 447.7734
705.7880, 554.5000
706.9430, 378.0508
708.0970, 332.4863
709.2520, 528.9102
710.4060, 347.3203
711.5600, 516.7188
712.7140, 523.1055
713.8670, 433.4805
715.0210, 320.9121
716.1740, 389.0430
717.3270, 313.3770
718.4800, 257.6973
719.6330, 236.0117
720.7860, 444.3027
721.9380, 359.5762
723.0910, 243.8359
724.2430, 299.0781
725.3950, 376.8398
726.5470, 214.2773
727.6980, 377.4785
728.8500, 414.0801
730.0010, 345.4727
731.1530, 207.9004
732.3040, 309.4629
733.4550, 403.2363
734.6050, 166.3477
735.7560, 214.4395
736.9060, 346.5195
738.0560, 385.5801
739.2060, 151.2656
740.3560, 297.5723
741.5060, 214.5859
742.6560, 244.5859
743.8050, 344.0957
744.9540, 311.0645
746.1030, 427.0215
747.2520, 253.9629
748.4010, 458.9219
749.5500, 302.8398
750.6980, 350.7441
751.8460, 238.7324
752.9950, 387.6113
754.1420, 220.4746
755.2900, 353.5820
756.4380, 241.6602
757.5850, 153.4844
758.7330, 319.2949
759.8800, 150.1230
761.0270, 91.95312
762.1730, 251.7715
763.3200, 267.5859
764.4670, 5.589844
765.6130, 74.60938
766.7590, 133.2383
767.9050, 160.9551
769.0510, 159.4316
770.1960, 41.25977
771.3420, 73.71484
772.4870, 45.71680
773.6320, 15.22070
774.7770, 48.99219
775.9220, 13.85352
777.0670, 255.4473
778.2110, 182.0234
779.3560, 31.58594
780.5000, 43.12500
781.6440, 15.96289
782.7880, 193.7734
783.9320, 219.2441
785.0750, 21.94336
786.2180, 19.65234
787.3620, 131.5078
788.5050, 4.044922
789.6480, 145.5566
790.7900, 63.18164
791.9330, 69.50391
793.0750, 12.24609
794.2170, 25.47266
795.3590, 30.16602
796.5010, 23.10938
797.6430, 6.933594
798.7850, 14.59180
799.9260, 110.0801
801.0670, 94.51758
802.2080, 12.85547
803.3490, 50.41016
804.4900, 95.96094
805.6310, 71.06250
806.7710, 147.3711
807.9110, 16.18164
809.0510, 58.00000
810.1910, 114.5762
811.3310, 5.621094
812.4710, 75.57812
813.6100, 30.24023
814.7490, 40.92383
815.8880, 11.49609
817.0270, 15.21094
818.1660, 7.652344
819.3050, 139.2598
820.4430, 75.92773
821.5820, 111.7227
822.7200, 32.61133
823.8580, 69.69336
824.9950, 209.7500
826.1330, 28.78320
827.2710, 42.78516
828.4080, 125.9531
829.5450, 91.90039
830.6820, 48.82227
831.8190, 20.71484
832.9560, 65.57617
834.0920, 152.4141
835.2280, 116.7773
836.3650, 47.92969
837.5010, 75.60938
838.6360, 96.25195
839.7720, 240.8711
840.9080, 60.46875
842.0430, 162.0371
843.1780, 200.5801
844.3130, 269.4570
845.4480, 329.1660
846.5830, 364.4648
847.7170, 376.6426
848.8520, 296.6230
849.9860, 335.6113
851.1200, 209.7090
852.2540, 353.0625
853.3870, 496.3906
854.5210, 407.6953
855.6540, 222.9766
856.7880, 399.2344
857.9210, 303.4688
859.0540, 337.6797
860.1860, 416.8633
861.3190, 99.03711
862.4510, 173.1816
863.5840, 374.3008
864.7160, 70.60547
865.8480, 173.4219
866.9790, 162.4238
868.1110, 125.4004
869.2420, 71.37305
870.3740, 363.3184
871.5050, 337.2402
872.6360, 285.1367
873.7660, 266.0137
874.8970, 73.86328
876.0280, 160.6309
877.1580, 346.4258
878.2880, 333.1973
879.4180, 100.9473
880.5480, 245.6660
881.6770, 288.3613
882.8070, 272.0312
883.9360, 220.6777
885.0650, 317.3027
886.1940, 391.9062
887.3230, 203.4824
888.4520, 269.0371
889.5800, 336.5645
890.7090, 164.0703
891.8370, 16.54688
892.9650, 240.9883
894.0930, 396.3535
895.2200, 309.7715
896.3480, 379.0703
897.4750, 323.1016
898.6020, 450.4492
899.7290, 219.7754
900.8560, 229.2188
901.9830, 462.0703
903.1090, 470.1406
904.2360, 383.3008
905.3620, 190.4277
906.4880, 434.0352
907.6140, 309.7500
908.7400, 426.3223
909.8650, 247.7402
910.9900, 166.2695
912.1160, 323.6328
913.2410, 462.6738
914.3660, 332.7188
915.4900, 324.1035
916.6150, 128.5117
917.7390, 163.2129
918.8640, 238.2051
919.9880, 164.1680
921.1120, 1.587891
922.2350, 114.5977
923.3590, 207.2715
924.4820, 163.2266
925.6060, 152.9062
926.7290, 302.2129
927.8520, 98.22266
928.9740, 255.2598
930.0970, 179.3301
931.2190, 188.6562
932.3420, 50.66211
933.4640, 128.5684
934.5860, 71.68945
935.7080, 122.9688
936.8290, 141.1562
937.9510, 81.97266
939.0720, 58.92578
940.1930, 260.7070
941.3140, 45.99805
942.4350, 246.2285
943.5560, 195.8848
944.6760, 32.71680
945.7960, 58.94922
946.9170, 146.4727
948.0370, 120.0645
949.1560, 94.35547
950.2760, 168.1602
951.3960, 126.5234
952.5150, 71.11328
953.6340, 243.0918
954.7530, 165.0020
955.8720, 318.8496
956.9910, 111.4199
958.1090, 374.6797
959.2280, 172.0801
960.3460, 256.0449
961.4640, 430.2461
962.5820, 117.4883
963.6990, 436.1211
964.8170, 307.5254
965.9340, 175.7324
967.0510, 199.7930
968.1690, 284.0352
969.2850, 412.6191
970.4020, 418.5020
971.5190, 229.6113
972.6350, 59.16992
973.7510, 160.0566
974.8670, 332.8105
975.9830, 230.9961
977.0990, 446.7637
978.2150, 254.6816
979.3300, 516.3672
980.4450, 385.0430
981.5600, 488.6992
982.6750, 445.4219
983.7900, 473.5273
984.9050, 542.6875
986.0190, 558.2109
987.1340, 707.7832
988.2480, 735.4453
989.3620, 756.9883
990.4750, 1187.502
991.5890, 1007.559
992.7020, 1202.055
993.8160, 1380.660
994.9290, 1607.846
996.0420, 1780.781
997.1550, 1729.201
998.2670, 2231.643
999.3800, 2280.414
1000.492, 3178.045
1001.604, 3678.170
1002.716, 4437.234
1003.828, 5604.146
1004.940, 6873.805
1006.051, 8828.137
1007.163, 10606.74
1008.274, 13071.08
1009.385, 15034.73
1010.496, 16321.73
1011.606, 16181.33
1012.717, 15427.05
1013.827, 13922.75
1014.937, 11567.11
1016.047, 9285.305
1017.157, 7488.715
1018.267, 5887.039
1019.377, 5012.730
1020.486, 4228.873
1021.595, 3497.217
1022.704, 3269.328
1023.813, 2883.424
1024.922, 2588.357
1026.030, 2461.191
1027.139, 2356.256
1028.247, 2369.562
1029.355, 2213.859
1030.463, 2019.316
1031.571, 1933.363
1032.678, 1710.680
1033.786, 1417.033
1034.893, 1341.350
1036.000, 1223.439
1037.107, 1246.455
1038.214, 1018.377
1039.321, 765.8301
1040.427, 1061.727
1041.533, 703.6113
1042.639, 628.6719
1043.745, 565.5352
1044.851, 753.6758
1045.957, 665.9316
1047.062, 535.4668
1048.168, 679.3496
1049.273, 348.6582
1050.378, 517.5762
1051.482, 504.1113
1052.587, 447.8770
1053.692, 508.3887
1054.796, 390.1816
1055.900, 431.1152
1057.004, 190.7715
1058.108, 328.2559
1059.212, 427.9043
1060.315, 481.1641
1061.418, 490.1836
1062.522, 324.9355
1063.625, 385.5000
1064.728, 355.1523
1065.830, 320.7344
1066.933, 412.5977
1068.035, 271.6602
1069.137, 361.4629
1070.239, 359.4863
1071.341, 401.7305
1072.443, 350.1230
1073.545, 327.5273
1074.646, 430.3477
1075.747, 409.9590
1076.848, 396.5215
1077.949, 267.4258
1079.050, 360.4941
1080.150, 389.9180
1081.251, 535.2637
1082.351, 556.8086
1083.451, 568.3379
1084.551, 807.6875
1085.651, 637.6660
1086.750, 625.2617
1087.850, 855.3711
1088.949, 752.0137
1090.048, 482.4609
1091.147, 494.4727
1092.246, 225.1719
1093.345, 185.3438
1094.443, 191.9746
1095.541, 125.4043
1096.639, 147.0137
1097.737, 145.6172
1098.835, 370.2109
1099.933, 139.7930
1101.030, 142.3711
1102.128, 248.9395
1103.225, 241.5332
1104.322, 138.1211
1105.419, 145.7012
1106.515, 265.6367
1107.612, 103.1953
1108.708, 62.03320
1109.804, 60.69922
1110.900, 197.2207
1111.996, 148.4102
1113.092, 244.9102
1114.187, 117.4004
1115.283, 20.94922
1116.378, 4.412109
1117.473, 138.8574
1118.568, 167.4082
1119.662, 112.1758
1120.757, 279.5898
1121.851, 154.9941
1122.946, 5.388672
1124.040, 281.8750
1125.134, 106.2422
1126.227, 31.66406
1127.321, 229.6562
1128.414, 95.11328
1129.508, 233.5879
1130.601, 32.08984
1131.693, 34.19141
1132.786, 297.4609
1133.879, 85.27930
1134.971, 91.91797
1136.064, 65.10547
1137.156, 160.6836
1138.248, 71.84961
1139.339, 131.1348
1140.431, 320.2773
1141.522, 297.4141
1142.614, 57.54688
1143.705, 27.66406
1144.796, 196.7695
1145.887, 104.8633
1146.977, 241.9473
1148.068, 85.31055
1149.158, 96.36914
1150.248, 10.43555
1151.338, 225.4863
1152.428, 63.52734
1153.518, 206.7578
1154.607, 322.7773
1155.696, 111.8066
1156.785, 258.2793
1157.874, 82.69141
1158.963, 74.27539
1160.052, 73.53125
1161.141, 31.66016
1162.229, 126.6309
1163.317, 59.55859
1164.405, 41.47070
1165.493, 52.51562
1166.581, 104.4043
1167.668, 118.2793
1168.756, 142.1445
1169.843, 3.027344
1170.930, 141.8691
1172.017, 275.7012
1173.103, 92.52539
1174.190, 298.3379
1175.276, 10.86133
1176.363, 36.93945
1177.449, 93.27539
1178.535, 119.4434
1179.620, 16.15234
1180.706, 138.1543
1181.791, 313.4531
1182.877, 248.0469
1183.962, 301.6367
1185.047, 57.26172
1186.131, 188.1270
1187.216, 180.3359
1188.300, 74.78906
1189.385, 61.13477
1190.469, 144.5684
1191.553, 108.9922
1192.637, 15.40625
1193.720, 61.80664
1194.804, 158.1992
1195.887, 74.58203
1196.970, 314.9551
1198.053, 283.3184
1199.136, 228.6758
1200.219, 91.02734
1201.301, 27.63086
1202.383, 262.6797
1203.465, 90.00781
1204.547, 248.3281
1205.629, 153.6562
1206.711, 179.9746
1207.792, 218.5742
1208.874, 190.8770
1209.955, 151.1738
1211.036, 144.4648
1212.117, 107.7461
1213.198, 237.0488
1214.278, 275.3418
1215.359, 107.6270
1216.439, 307.9277
1217.519, 5.222656
1218.599, 293.5078
1219.678, 139.7793
1220.758, 43.04688
1221.837, 116.2988
1222.917, 28.45508
1223.996, 284.7559
1225.075, 182.9570
1226.153, 390.0859
1227.232, 273.2695
1228.310, 160.4473
1229.389, 233.6172
1230.467, 412.7715
1231.545, 331.9219
1232.622, 310.0625
1233.700, 231.1934
1234.777, 246.3086
1235.855, 37.43750
1236.932, 302.5566
1238.009, 55.52539
1239.086, 93.30859
1240.162, 197.0762
1241.239, 1.152344
1242.315, 137.2129
1243.391, 217.2637
1244.467, 107.2266
1245.543, 232.7754
1246.619, 534.2441
1247.694, 96.26562
1248.769, 42.27734
1249.844, 338.1758
1250.919, 161.1680
1251.994, 256.1504
1253.069, 96.57227
1254.144, 322.5391
1255.218, 64.63477
1256.292, 318.5703
1257.366, 8.535156
1258.440, 78.14844
1259.514, 112.0078
1260.587, 125.1094
1261.661, 124.5156
1262.734, 191.3516
1263.807, 125.0703
1264.880, 237.6953
1265.952, 15.24609
1267.025, 311.0469
1268.097, 12.44141
1269.170, 237.3008
1270.242, 188.5469
1271.314, 202.3047
1272.385, 434.7148
1273.457, 236.9883
1274.528, 438.7227
1275.600, 160.3086
1276.671, 41.02344
1277.742, 316.5078
1278.812, 287.4805
1279.883, 214.7461
1280.954, 399.7695
1282.024, 64.13281
1283.094, 280.7969
1284.164, 295.3359
1285.234, 12.99219
1286.303, 282.6367
1287.373, 494.2617
1288.442, 40.61719
1289.511, 67.96484
1290.580, 104.5898
1291.649, 275.2734
1292.718, 119.5391
1293.786, 77.71875
1294.855, 195.9375
1295.923, 166.3594
1296.991, 225.8438
1298.059, 105.7734
1299.126, 227.2578
1300.194, 302.4141
1301.261, 333.5859
1302.328, 189.4023
1303.395, 271.5938
1304.462, 266.1875
1305.529, 253.5820
1306.596, 360.8711
1307.662, 443.9336
1308.728, 145.9141
1309.794, 415.8672
1310.860, 330.3359
1311.926, 190.9961
1312.991, 87.45703
1314.057, 90.60547
1315.122, 202.4258
1316.187, 422.8945
1317.252, 15.89062
1318.317, 510.2539
1319.381, 183.7031
1320.446, 187.0391
1321.510, 253.9844
1322.574, 454.1133
1323.638, 218.5430
1324.702, 235.7188
1325.766, 165.1367
1326.829, 266.5430
1327.892, 238.9453
1328.956, 341.1758
1330.019, 389.3242
1331.081, 504.7812
1332.144, 480.0000
1333.206, 497.3867
1334.269, 455.7695
1335.331, 19.15234
1336.393, 279.6484
1337.455, 559.0195
1338.516, 369.5273
1339.578, 459.8984
1340.639, 234.1680
1341.701, 689.5352
1342.762, 372.8906
1343.822, 392.1602
1344.883, 656.7930
1345.944, 259.1328
1347.004, 388.4844
1348.064, 378.8320
1349.124, 310.1016
1350.184, 450.3945
1351.244, 454.1953
1352.304, 444.5352
1353.363, 178.8711
1354.422, 449.2305
1355.481, 538.0352
1356.540, 258.5430
1357.599, 441.8672
1358.657, 235.1914
1359.716, 345.5898
1360.774, 247.9180
1361.832, 290.2383
1362.890, 192.5469
1363.948, 150.4922
1365.006, 506.8008
1366.063, 569.8203
1367.120, 273.9727
1368.178, 292.2578
1369.234, 328.8320
1370.291, 236.0625
1371.348, 491.2930
1372.404, 298.4375
1373.461, 284.6602
1374.517, 241.6016
1375.573, 265.7031
1376.629, 257.7734
1377.684, 373.9844
1378.740, 320.1953
1379.795, 146.3711
1380.850, 416.6055
1381.905, 408.7812
1382.960, 129.5039
1384.015, 229.1016
1385.070, 281.2188
1386.124, 290.4414
1387.178, 124.8320
1388.232, 185.2773
1389.286, 155.0664
1390.340, 121.1289
1391.393, 213.4023
1392.447, 73.12891
1393.500, 162.9570
1394.553, 161.1523
1395.606, 330.8359
1396.659, 28.99219
1397.711, 258.1797
1398.764, 252.3438
1399.816, 348.4883
1400.868, 151.6328
1401.920, 210.7773
1402.972, 214.9180
1404.023, 297.7695
1405.075, 60.10156
1406.126, 59.01953
1407.177, 3.167969
1408.228, 226.2852
1409.279, 109.1992
1410.330, 82.69141
1411.380, 54.60156
1412.431, 260.0352
1413.481, 208.1172
1414.531, 215.1992
1415.580, 87.96875
1416.630, 28.13672
1417.680, 53.89453
1418.729, 100.9609
1419.778, 236.0312
1420.827, 314.9570
1421.876, 119.0273
1422.925, 226.3672
1423.973, 298.4375
1425.022, 14.50781
1426.070, 65.57422
1427.118, 265.6562
1428.166, 217.7461
1429.214, 145.8320
1430.261, 77.07031
1431.309, 439.0195
1432.356, 177.1172
1433.403, 126.2539
1434.450, 276.3945
1435.497, 522.5508
1436.543, 302.7578
1437.590, 45.38281
1438.636, 282.6094
1439.682, 441.6250
1440.728, 419.8477
1441.774, 209.1797
1442.819, 200.5273
1443.865, 241.0000
1444.910, 259.4023
1445.955, 287.8086
1447.000, 98.79688
1448.045, 326.7266
1449.090, 270.3438
1450.134, 134.0117
1451.178, 450.3984
1452.223, 338.2266
1453.267, 252.7617
1454.310, 103.3164
1455.354, 29.83203
1456.398, 78.64453
1457.441, 409.5742
1458.484, 184.0938
1459.527, 312.6172
1460.570, 337.1406
1461.613, 75.66016
1462.655, 238.1758
1463.698, 71.69922
1464.740, 164.2305
1465.782, 242.7812
1466.824, 242.3359
1467.866, 183.8867
1468.907, 401.4414
1469.948, 15.00000
1470.990, 1.558594
1472.031, 263.1328
1473.072, 123.7070
1474.112, 43.29297
1475.153, 337.8906
1476.194, 364.4844
1477.234, 177.0781
1478.274, 263.6836
1479.314, 107.2891
1480.354, 13.93359
1481.393, 73.61719
1482.433, 170.3203
1483.472, 300.0352
1484.511, 100.7578
1485.550, 243.4336
1486.589, 332.1875
1487.628, 464.8984
1488.666, 327.6680
1489.704, 175.4453
1490.743, 292.2383
1491.781, 281.8320
1492.819, 245.0898
1493.856, 245.5273
1494.894, 196.4766
1495.931, 166.1250
1496.968, 112.5000
1498.005, 183.9414
1499.042, 21.39453
1500.079, 240.2891
1501.115, 66.67188
1502.152, 318.2109
1503.188, 287.9141
1504.224, 494.7266
1505.260, 71.34375
1506.296, 309.9648
1507.331, 206.2617
1508.367, 159.8594
1509.402, 217.4180
1510.437, 202.9961
1511.472, 68.57422
1512.507, 366.1719
1513.541, 452.7734
1514.576, 465.4141
1515.610, 489.0703
1516.644, 104.5742
1517.678, 218.0391
1518.712, 360.4961
1519.746, 287.6914
1520.779, 407.8203
1521.813, 296.2461
1522.846, 217.6641
1523.879, 215.7969
1524.912, 408.1055
1525.944, 611.7031
1526.977, 495.9609
1528.009, 395.1289
1529.041, 298.6289
1530.073, 360.7812
1531.105, 111.6953
1532.137, 133.7969
1533.168, 437.8906
1534.200, 240.0039
1535.231, 411.2617
1536.262, 538.7109
1537.293, 122.2148
1538.324, 200.0625
1539.354, 436.7461
1540.385, 528.1719
1541.415, 287.1016
1542.445, 361.6016
1543.475, 313.0898
1544.505, 234.7812
1545.534, 487.2031
1546.564, 69.67188
1547.593, 270.4648
1548.622, 264.2852
1549.651, 430.1289
1550.680, 383.1797
1551.708, 481.3164
1552.737, 270.5586
1553.765, 440.7383
1554.793, 282.2031
1555.821, 428.7891
1556.849, 459.3945
1557.877, 443.5586
1558.904, 218.9375
1559.932, 264.5430
1560.959, 83.46484
1561.986, 298.3594
1563.013, 41.26953
1564.039, 310.4492
1565.066, 515.5703
1566.092, 266.1641
1567.119, 314.3281
1568.145, 351.0664
1569.170, 243.2070
1570.196, 492.7227
1571.222, 129.3320
1572.247, 9.011719
1573.272, 158.3984
1574.297, 17.47266
1575.322, 0.0000000E+00
##END=



