##NAMES=Hedenbergite
##RRUFFID=R050030
##IDEAL CHEMISTRY=CaFe^2+^Si_2_O_6_
##LOCALITY=Heroult, Ontario, Canada
##OWNER=RRUFF
##SOURCE=University of Arizona Mineral Museum
##DESCRIPTION=Green fragments
##STATUS=The identification of this mineral has been confirmed by X-ray diffraction and chemical analysis
##URL=rruff.info/R050030
##MEASURED CHEMISTRY=(Ca_.993_Na_.007_)(Fe_.860_Mn_.111_Mg_.029_)(Si_.993_Al_.007_)_2_O_6_
##PIN_ID=M00111
##ORIENTATION=Laser parallel to a* (1 0 0). Fiducial mark perpendicular to laser is parallel to b [0 1 0]
96.976, 0.000
98.370, 103.113
99.764, 198.188
101.157, 261.780
102.550, 332.138
103.943, 354.976
105.336, 259.888
106.729, 92.410
108.121, 169.493
109.513, 165.360
110.905, 178.423
112.297, 331.496
113.688, 510.397
115.079, 799.693
116.470, 1260.123
117.861, 1751.569
119.251, 2105.821
120.642, 2537.695
122.032, 2460.059
123.422, 2298.812
124.811, 1883.073
126.201, 1377.927
127.590, 971.177
128.979, 573.864
130.367, 330.339
131.756, 188.631
133.144, 128.781
134.532, 31.135
135.920, 83.149
137.307, 272.385
138.695, 271.556
140.082, 468.498
141.469, 622.231
142.856, 611.782
144.242, 630.177
145.628, 542.439
147.014, 301.586
148.400, 157.634
149.786, 233.602
151.171, 130.499
152.556, 115.582
153.941, 40.334
155.325, 6.095
156.710, 65.574
158.094, 57.128
159.478, 131.521
160.862, 121.570
162.245, 143.646
163.629, 179.747
165.012, 265.871
166.395, 328.016
167.777, 506.180
169.160, 669.885
170.542, 1008.570
171.924, 1433.383
173.306, 1706.767
174.687, 1931.587
176.068, 2033.582
177.449, 2016.744
178.830, 1911.172
180.211, 1884.726
181.591, 1851.241
182.972, 2199.783
184.351, 2634.360
185.731, 2832.979
187.111, 2864.645
188.490, 3070.402
189.869, 2543.255
191.248, 2208.213
192.626, 1470.230
194.005, 1149.293
195.383, 760.396
196.761, 513.555
198.139, 372.816
199.516, 258.197
200.893, 138.641
202.271, 118.109
203.647, 35.599
205.024, 68.111
206.400, 81.645
207.777, 45.803
209.152, 83.238
210.528, 10.665
211.904, 88.086
213.279, 24.501
214.654, 5.088
216.029, 88.318
217.403, 42.720
218.778, 52.122
220.152, 42.523
221.526, 51.074
222.900, 62.669
224.273, 188.264
225.646, 189.856
227.019, 442.448
228.392, 349.038
229.765, 435.627
231.137, 506.213
232.509, 340.797
233.881, 344.379
235.253, 197.947
236.625, 114.449
237.996, 75.896
239.367, 32.317
240.738, 2.675
242.108, 83.996
243.479, 33.683
244.849, 11.359
246.219, 45.036
247.589, 96.289
248.958, 98.383
250.328, 2.970
251.697, 93.658
253.065, 32.703
254.434, 16.958
255.803, 48.593
257.171, 11.252
258.539, 2.997
259.906, 65.269
261.274, 20.555
262.641, 8.963
264.008, 94.657
265.375, 58.704
266.742, 90.008
268.108, 36.500
269.475, 148.156
270.840, 106.930
272.206, 264.797
273.572, 217.755
274.937, 334.777
276.302, 455.854
277.667, 428.976
279.032, 511.102
280.396, 699.287
281.760, 575.734
283.125, 779.792
284.488, 777.136
285.852, 891.371
287.215, 1027.819
288.578, 1068.211
289.941, 1257.683
291.304, 1482.011
292.666, 1652.431
294.029, 1970.397
295.391, 2358.486
296.753, 2507.741
298.114, 2889.744
299.476, 3389.119
300.837, 3430.011
302.198, 3637.779
303.558, 3545.311
304.919, 3222.470
306.279, 2829.628
307.639, 2586.768
308.999, 2283.885
310.359, 1801.152
311.718, 1659.344
313.077, 1333.503
314.436, 1208.768
315.795, 989.905
317.154, 994.925
318.512, 803.867
319.870, 868.724
321.228, 886.515
322.586, 923.235
323.943, 942.927
325.300, 1057.615
326.657, 1204.302
328.014, 1305.984
329.371, 1557.665
330.727, 1894.341
332.083, 2181.014
333.439, 2497.680
334.795, 2804.322
336.150, 2790.927
337.506, 2677.473
338.861, 2503.967
340.215, 2130.447
341.570, 1916.891
342.924, 1623.331
344.279, 1499.769
345.633, 1406.205
346.986, 1288.643
348.340, 1276.077
349.693, 1289.512
351.046, 1285.945
352.399, 1368.376
353.752, 1544.805
355.104, 1511.230
356.457, 1887.651
357.809, 1994.071
359.160, 2450.487
360.512, 2966.897
361.863, 3473.305
363.214, 4399.708
364.565, 5016.105
365.916, 6462.496
367.267, 7488.885
368.617, 8395.265
369.967, 9291.640
371.317, 9455.652
372.666, 9287.493
374.016, 8243.172
375.365, 7104.688
376.714, 6080.857
378.063, 4877.369
379.411, 3958.811
380.760, 3232.777
382.108, 2466.212
383.456, 2160.199
384.803, 1726.506
386.151, 1312.809
387.498, 1039.103
388.845, 1015.393
390.192, 813.674
391.539, 678.949
392.885, 624.220
394.231, 492.481
395.577, 368.737
396.923, 347.168
398.269, 409.860
399.614, 404.097
400.959, 289.189
402.304, 180.414
403.649, 243.399
404.993, 207.757
406.337, 77.944
407.681, 161.263
409.025, 181.945
410.369, 42.326
411.712, 257.001
413.055, 37.408
414.398, 51.270
415.741, 164.439
417.084, 110.075
418.426, 70.413
419.768, 0.333
421.110, 40.756
422.452, 87.103
423.793, 2.699
425.134, 86.663
426.475, 90.017
427.816, 88.683
429.157, 212.986
430.497, 165.009
431.837, 116.627
433.177, 135.849
434.517, 92.889
435.857, 70.929
437.196, 154.230
438.535, 129.559
439.874, 72.434
441.213, 184.513
442.551, 35.955
443.889, 38.125
445.227, 51.748
446.565, 8.608
447.903, 40.449
449.240, 48.274
450.577, 40.114
451.914, 65.061
453.251, 43.846
454.588, 19.191
455.924, 14.942
457.260, 7.608
458.596, 51.515
459.932, 9.869
461.267, 34.256
462.602, 24.312
463.938, 34.861
465.272, 109.395
466.607, 84.915
467.941, 86.953
469.276, 94.858
470.610, 51.400
471.943, 66.870
473.277, 72.331
474.610, 47.779
475.944, 73.032
477.276, 113.015
478.609, 94.076
479.942, 189.497
481.274, 194.905
482.606, 150.325
483.938, 235.736
485.270, 261.136
486.601, 386.536
487.932, 421.924
489.263, 557.303
490.594, 582.670
491.925, 588.024
493.255, 503.438
494.585, 528.841
495.915, 384.261
497.245, 369.671
498.575, 515.068
499.904, 470.456
501.233, 295.833
502.562, 321.199
503.891, 246.555
505.219, 221.898
506.548, 287.231
507.876, 212.554
509.203, 387.866
510.531, 473.166
511.859, 538.456
513.186, 666.325
514.513, 699.005
515.840, 874.270
517.166, 809.535
518.493, 934.787
519.819, 990.046
521.145, 835.301
522.470, 820.546
523.796, 555.782
525.121, 481.029
526.446, 476.265
527.771, 171.487
529.096, 226.711
530.421, 81.924
531.745, 167.134
533.069, 92.352
534.393, 127.561
535.716, 2.779
537.040, 47.979
538.363, 193.168
539.686, 108.365
541.009, 173.561
542.331, 98.757
543.654, 153.952
544.976, 179.133
546.298, 244.305
547.620, 129.463
548.941, 284.608
550.263, 299.741
551.584, 194.863
552.905, 219.973
554.225, 215.070
555.546, 70.154
556.866, 35.225
558.186, 230.278
559.506, 54.680
560.826, 170.308
562.145, 125.282
563.465, 80.247
564.784, 115.197
566.103, 10.145
567.421, 85.074
568.740, 70.001
570.058, 54.855
571.376, 0.221
572.694, 4.795
574.011, 9.824
575.329, 24.986
576.646, 109.852
577.963, 24.741
579.279, 21.303
580.596, 3.491
581.912, 98.309
583.228, 1.975
584.544, 56.754
585.860, 18.482
587.175, 66.246
588.491, 49.041
589.806, 155.620
591.121, 80.270
592.435, 25.096
593.750, 139.499
595.064, 54.088
596.378, 48.968
597.692, 153.526
599.006, 142.102
600.319, 26.635
601.632, 130.915
602.945, 191.588
604.258, 255.978
605.571, 139.635
606.883, 133.914
608.195, 68.244
609.507, 112.486
610.819, 196.855
612.131, 38.889
613.442, 225.064
614.753, 198.590
616.064, 80.926
617.375, 270.493
618.685, 142.663
619.995, 303.293
621.306, 227.018
622.615, 390.953
623.925, 335.236
625.235, 369.519
626.544, 453.949
627.853, 348.360
629.162, 382.445
630.471, 507.613
631.779, 481.878
633.087, 645.900
634.395, 682.960
635.703, 759.883
637.011, 874.062
638.318, 1028.231
639.625, 1258.290
640.932, 1462.534
642.239, 1616.670
643.546, 2173.596
644.852, 2577.709
646.158, 3251.934
647.464, 4066.301
648.770, 5150.379
650.076, 6680.715
651.381, 8144.770
652.686, 10005.918
653.991, 11339.987
655.296, 12584.005
656.600, 11978.271
657.905, 10922.302
659.209, 9586.283
660.513, 7930.251
661.817, 6404.209
663.120, 5278.153
664.423, 4302.178
665.726, 3386.259
667.029, 2660.166
668.332, 2354.280
669.635, 2088.326
670.937, 1652.304
672.239, 1528.016
673.541, 1354.164
674.842, 1127.998
676.144, 895.647
677.445, 981.224
678.746, 755.021
680.047, 709.693
681.348, 828.471
682.648, 702.229
683.948, 545.976
685.248, 792.312
686.548, 376.032
687.848, 679.637
689.147, 543.332
690.447, 486.951
691.746, 580.620
693.044, 503.041
694.343, 476.410
695.641, 710.041
696.940, 493.656
698.238, 477.261
699.535, 600.806
700.833, 344.384
702.130, 527.950
703.427, 461.504
704.724, 385.044
706.021, 208.572
707.318, 452.088
708.614, 245.593
709.910, 139.082
711.206, 392.561
712.502, 165.845
713.798, 208.849
715.093, 182.359
716.388, 190.927
717.683, 213.874
718.978, 247.749
720.272, 250.996
721.567, 194.376
722.861, 196.752
724.155, 198.312
725.448, 150.844
726.742, 226.213
728.035, 78.092
729.328, 90.226
730.621, 52.519
731.914, 135.167
733.206, 154.146
734.499, 96.763
735.791, 217.258
737.083, 139.280
738.374, 82.433
739.666, 204.379
740.957, 207.345
742.248, 127.981
743.539, 160.964
744.830, 259.662
746.120, 302.843
747.410, 265.853
748.701, 186.025
749.990, 350.534
751.280, 33.404
752.570, 246.226
753.859, 239.348
755.148, 182.486
756.437, 165.106
757.725, 178.228
759.014, 211.357
760.302, 64.478
761.590, 187.593
762.878, 260.701
764.166, 133.624
765.453, 126.716
766.740, 259.800
768.027, 29.299
769.314, 242.369
770.601, 125.434
771.887, 198.388
773.174, 151.467
774.460, 194.549
775.745, 97.637
777.031, 120.722
778.316, 133.800
779.602, 86.872
780.887, 49.935
782.172, 52.989
783.456, 226.995
784.741, 0.035
786.025, 63.057
787.309, 166.070
788.593, 30.922
789.876, 27.947
791.160, 244.996
792.443, 157.932
793.726, 79.139
795.009, 63.732
796.291, 156.596
797.574, 30.548
798.856, 292.277
800.138, 55.096
801.420, 17.906
802.702, 220.707
803.983, 246.498
805.264, 106.153
806.545, 101.202
807.826, 71.375
809.107, 173.946
810.387, 16.511
811.667, 69.069
812.947, 131.620
814.227, 104.165
815.507, 86.705
816.786, 98.270
818.065, 51.769
819.344, 34.291
820.623, 136.806
821.902, 19.316
823.180, 31.820
824.459, 44.317
825.737, 23.190
827.014, 30.722
828.292, 151.726
829.569, 55.832
830.847, 23.430
832.124, 178.952
833.401, 8.671
834.677, 76.308
835.954, 136.010
837.230, 298.322
838.506, 39.368
839.782, 282.914
841.057, 435.191
842.333, 187.468
843.608, 529.739
844.883, 532.009
846.158, 414.287
847.433, 1036.569
848.707, 558.850
849.981, 641.128
851.255, 643.403
852.529, 475.677
853.803, 527.948
855.076, 330.216
856.350, 272.482
857.623, 324.746
858.895, 327.009
860.168, 259.269
861.441, 181.527
862.713, 103.785
863.985, 256.041
865.257, 238.296
866.528, 80.551
867.800, 22.806
869.071, 325.062
870.342, 167.338
871.613, 219.613
872.884, 71.889
874.154, 64.165
875.425, 40.599
876.695, 98.759
877.965, 41.063
879.234, 63.369
880.504, 165.676
881.773, 57.837
883.042, 120.059
884.311, 252.132
885.580, 105.507
886.848, 316.806
888.117, 109.011
889.385, 51.342
890.653, 83.682
891.920, 75.867
893.188, 98.214
894.455, 170.562
895.722, 222.932
896.989, 275.301
898.256, 97.728
899.523, 180.156
900.789, 252.588
902.055, 34.967
903.321, 507.469
904.587, 259.602
905.852, 282.044
907.118, 104.489
908.383, 406.937
909.648, 239.390
910.913, 191.845
912.177, 24.301
913.442, 166.597
914.706, 299.058
915.970, 311.521
917.233, 203.987
918.497, 106.458
919.760, 298.932
921.024, 121.140
922.287, 193.637
923.550, 336.138
924.812, 248.640
926.075, 191.147
927.337, 243.657
928.599, 86.168
929.861, 448.683
931.122, 11.201
932.384, 113.696
933.645, 346.043
934.906, 31.594
936.167, 110.926
937.428, 212.416
938.688, 104.824
939.948, 387.354
941.208, 76.953
942.468, 296.754
943.728, 69.293
944.987, 271.835
946.247, 348.478
947.506, 280.930
948.765, 323.481
950.023, 213.238
951.282, 275.798
952.540, 238.240
953.798, 150.534
955.056, 573.107
956.314, 69.421
957.572, 452.007
958.829, 407.557
960.086, 270.114
961.343, 122.716
962.600, 425.061
963.856, 217.635
965.113, 340.254
966.369, 202.879
967.625, 395.509
968.881, 338.145
970.136, 260.694
971.392, 493.182
972.647, 295.835
973.902, 598.276
975.157, 460.779
976.411, 533.342
977.666, 664.166
978.920, 515.281
980.174, 707.973
981.428, 556.840
982.682, 807.773
983.935, 680.484
985.188, 782.312
986.441, 810.215
987.694, 1152.945
988.947, 1115.852
990.199, 1296.129
991.452, 1508.906
992.704, 1561.869
993.956, 1864.666
995.207, 2147.469
996.459, 2723.281
997.710, 3356.105
998.961, 3889.238
1000.212, 4982.078
1001.463, 6365.070
1002.714, 8348.148
1003.964, 11831.068
1005.214, 16623.994
1006.464, 22606.936
1007.714, 29119.904
1008.964, 32252.891
1010.213, 31885.906
1011.462, 27889.113
1012.711, 21822.215
1013.960, 17035.281
1015.209, 12678.379
1016.457, 9781.486
1017.705, 8094.811
1018.954, 6328.062
1020.201, 5841.453
1021.449, 4764.637
1022.697, 4467.898
1023.944, 4321.090
1025.191, 3728.623
1026.438, 3851.826
1027.685, 3496.094
1028.931, 2779.518
1030.177, 2532.746
1031.423, 2293.734
1032.669, 2036.973
1033.915, 1890.217
1035.161, 1533.928
1036.406, 1581.445
1037.651, 1405.193
1038.896, 1188.461
1040.141, 1222.289
1041.386, 975.568
1042.630, 1288.852
1043.874, 1042.299
1045.118, 916.973
1046.362, 1060.277
1047.606, 842.090
1048.849, 925.404
1050.092, 849.178
1051.336, 752.500
1052.578, 1104.465
1053.821, 578.369
1055.064, 661.893
1056.306, 835.238
1057.548, 469.098
1058.790, 822.785
1060.032, 636.145
1061.273, 599.670
1062.515, 573.045
1063.756, 486.436
1064.997, 390.295
1066.237, 593.686
1067.478, 467.705
1068.718, 601.344
1069.959, 604.744
1071.199, 389.150
1072.438, 602.555
1073.678, 475.955
1074.918, 430.035
1076.157, 363.479
1077.396, 346.926
1078.635, 410.912
1079.873, 394.363
1081.112, 413.027
1082.350, 491.268
1083.588, 414.719
1084.826, 447.588
1086.064, 411.070
1087.301, 234.562
1088.539, 658.723
1089.776, 202.215
1091.013, 95.719
1092.250, 379.236
1093.486, 382.750
1094.723, 236.375
1095.959, 279.910
1097.195, 243.721
1098.431, 287.252
1099.666, 390.795
1100.902, 94.900
1102.137, 588.438
1103.372, 181.977
1104.607, 326.113
1105.842, 329.717
1107.076, 3.322
1108.311, 277.127
1109.545, 150.752
1110.779, 54.375
1112.012, 217.996
1113.246, 172.164
1114.479, 375.781
1115.712, 89.398
1116.945, 73.010
1118.178, 357.369
1119.411, 130.975
1120.643, 264.574
1121.875, 128.168
1123.108, 441.760
1124.339, 85.508
1125.571, 189.088
1126.802, 27.330
1128.034, 236.877
1129.265, 200.453
1130.496, 134.037
1131.727, 98.285
1132.957, 151.904
1134.187, 5.936
1135.418, 99.566
1136.648, 13.188
1137.877, 33.051
1139.107, 126.670
1140.336, 20.742
1141.566, 345.258
1142.795, 78.850
1144.023, 76.131
1145.252, 108.141
1146.480, 1.678
1147.709, 245.641
1148.937, 39.553
1150.165, 24.176
1151.392, 210.873
1152.620, 154.357
1153.847, 268.574
1155.074, 229.912
1156.301, 244.090
1157.528, 153.820
1158.755, 67.922
1159.981, 107.695
1161.207, 182.188
1162.433, 115.744
1163.659, 128.172
1164.885, 78.934
1166.110, 83.318
1167.336, 85.219
1168.561, 138.562
1169.786, 122.768
1171.010, 167.049
1172.235, 69.225
1173.459, 284.084
1174.683, 12.162
1175.907, 101.240
1177.131, 205.945
1178.355, 120.945
1179.578, 302.152
1180.801, 235.971
1182.024, 48.959
1183.247, 432.266
1184.470, 46.180
1185.692, 369.123
1186.915, 32.332
1188.137, 186.316
1189.359, 239.197
1190.580, 132.613
1191.802, 12.361
1193.023, 440.770
1194.244, 125.689
1195.465, 206.990
1196.686, 70.549
1197.907, 223.182
1199.127, 325.789
1200.347, 52.098
1201.567, 145.230
1202.787, 407.770
1204.007, 72.807
1205.226, 115.291
1206.446, 237.748
1207.665, 163.119
1208.884, 385.523
1210.102, 231.170
1211.321, 93.525
1212.539, 466.068
1213.758, 59.510
1214.976, 152.062
1216.193, 484.309
1217.411, 7.037
1218.628, 369.223
1219.846, 371.381
1221.063, 73.582
1222.280, 565.678
1223.496, 228.855
1224.713, 102.150
1225.929, 304.160
1227.145, 367.000
1228.361, 569.123
1229.577, 341.066
1230.793, 160.486
1232.008, 392.367
1233.223, 376.244
1234.438, 88.520
1235.653, 380.348
1236.868, 312.852
1238.082, 434.646
1239.297, 436.422
1240.511, 228.389
1241.725, 330.129
1242.938, 191.906
1244.152, 334.090
1245.365, 565.775
1246.578, 127.439
1247.791, 339.506
1249.004, 321.129
1250.217, 123.422
1251.429, 415.578
1252.642, 507.139
1253.854, 228.617
1255.066, 460.137
1256.277, 322.119
1257.489, 334.021
1258.700, 145.822
1259.911, 337.992
1261.122, 419.682
1262.333, 281.018
1263.544, 102.516
1264.754, 414.102
1265.964, 345.262
1267.174, 366.586
1268.384, 357.594
1269.594, 248.570
1270.803, 310.006
1272.013, 410.834
1273.222, 141.086
1274.431, 332.135
1275.640, 462.863
1276.848, 153.359
1278.057, 334.018
1279.265, 204.643
1280.473, 305.465
1281.681, 416.035
1282.888, 43.076
1284.096, 318.363
1285.303, 198.777
1286.510, 109.199
1287.717, 479.543
1288.924, 59.830
1290.131, 137.139
1291.337, 347.672
1292.543, 207.520
1293.749, 218.629
1294.955, 88.533
1296.161, 151.672
1297.366, 399.609
1298.571, 139.422
1299.777, 70.809
1300.981, 220.281
1302.186, 40.070
1303.391, 159.934
1304.595, 40.775
1305.799, 98.592
1307.003, 268.076
1308.207, 32.623
1309.411, 196.637
1310.614, 106.076
1311.818, 74.953
1313.021, 313.908
1314.224, 122.941
1315.426, 111.854
1316.629, 210.797
1317.831, 295.346
1319.033, 184.186
1320.235, 261.916
1321.437, 60.451
1322.639, 399.148
1323.840, 300.162
1325.042, 128.770
1326.243, 327.209
1327.444, 235.145
1328.644, 113.492
1329.845, 391.281
1331.045, 249.508
1332.245, 97.133
1333.445, 325.256
1334.645, 183.318
1335.845, 31.172
1337.044, 237.732
1338.244, 135.600
1339.443, 324.900
1340.642, 112.660
1341.840, 339.910
1343.039, 437.561
1344.237, 4.836
1345.435, 172.137
1346.633, 479.459
1347.831, 16.895
1349.029, 363.768
1350.226, 500.760
1351.424, 8.031
1352.621, 625.096
1353.818, 2.266
1355.014, 419.375
1356.211, 257.436
1357.407, 84.461
1358.604, 240.816
1359.800, 567.592
1360.995, 184.496
1362.191, 510.355
1363.387, 307.490
1364.582, 105.705
1365.777, 350.295
1366.972, 87.078
1368.167, 73.625
1369.361, 389.740
1370.556, 116.156
1371.750, 262.490
1372.944, 299.746
1374.138, 65.148
1375.331, 414.287
1376.525, 33.332
1377.718, 203.006
1378.911, 712.639
1380.104, 142.111
1381.297, 481.367
1382.490, 410.268
1383.682, 259.719
1384.874, 428.471
1386.066, 297.629
1387.258, 196.934
1388.450, 685.580
1389.641, 354.773
1390.833, 213.072
1392.024, 662.166
1393.215, 151.215
1394.406, 180.029
1395.596, 618.258
1396.787, 347.178
1397.977, 405.211
1399.167, 203.439
1400.357, 204.459
1401.547, 223.188
1402.736, 139.797
1403.925, 235.525
1405.115, 383.377
1406.304, 269.775
1407.492, 210.824
1408.681, 287.092
1409.870, 226.010
1411.058, 344.236
1412.246, 320.010
1413.434, 148.656
1414.622, 382.562
1415.809, 218.367
1416.997, 193.330
1418.184, 379.412
1419.371, 116.229
1420.558, 530.682
1421.744, 366.479
1422.931, 161.486
1424.117, 257.961
1425.303, 133.141
1426.489, 55.604
1427.675, 600.596
1428.861, 205.945
1430.046, 292.713
1431.231, 412.297
1432.416, 234.645
1433.601, 171.191
1434.786, 302.588
1435.970, 53.234
1437.155, 607.113
1438.339, 252.854
1439.523, 28.131
1440.707, 605.367
1441.890, 309.123
1443.074, 12.494
1444.257, 506.207
1445.440, 96.738
1446.623, 447.949
1447.806, 282.162
1448.989, 175.627
1450.171, 489.920
1451.353, 394.365
1452.535, 97.682
1453.717, 650.910
1454.899, 333.297
1456.080, 385.709
1457.262, 529.240
1458.443, 380.330
1459.624, 390.658
1460.805, 422.832
1461.985, 254.344
1463.166, 366.904
1464.346, 600.336
1465.526, 152.492
1466.706, 784.740
1467.886, 319.312
1469.065, 191.953
1470.245, 583.098
1471.424, 430.201
1472.603, 161.527
1473.782, 773.398
1474.960, 173.818
1476.139, 401.936
1477.317, 473.445
1478.495, 229.842
1479.673, 615.873
1480.851, 145.340
1482.029, 266.805
1483.206, 787.549
1484.383, 216.629
1485.560, 157.414
1486.737, 538.027
1487.914, 108.551
1489.091, 448.967
1490.267, 409.176
1491.443, 238.428
1492.619, 489.531
1493.795, 270.676
1494.971, 131.881
1496.146, 443.182
1497.322, 25.299
1498.497, 226.822
1499.672, 409.102
1500.846, 81.705
1502.021, 264.430
1503.196, 237.713
1504.370, 31.619
1505.544, 466.070
1506.718, 177.896
1507.892, 50.244
1509.065, 470.590
1510.238, 53.352
1511.412, 152.639
1512.585, 194.496
1513.758, 0.979
1514.930, 0.000
##END=



