##NAMES=Hedenbergite
##RRUFFID=R050030
##IDEAL CHEMISTRY=CaFe^2+^Si_2_O_6_
##LOCALITY=Heroult, Ontario, Canada
##OWNER=RRUFF
##SOURCE=University of Arizona Mineral Museum
##DESCRIPTION=Green fragments
##STATUS=The identification of this mineral has been confirmed by X-ray diffraction and chemical analysis
##URL=rruff.info/R050030
##MEASURED CHEMISTRY=(Ca_.993_Na_.007_)(Fe_.860_Mn_.111_Mg_.029_)(Si_.993_Al_.007_)_2_O_6_
##PIN_ID=M00111
##ORIENTATION=Laser parallel to a* (1 0 0). Fiducial mark perpendicular to laser is parallel to b [0 1 0]
101.157, 0.000
102.550, 56.105
103.943, 82.904
105.336, 110.146
106.729, 75.257
108.121, 68.521
109.513, 68.921
110.905, 206.153
112.297, 483.303
113.688, 781.700
115.079, 1266.953
116.470, 1979.996
117.861, 2723.458
119.251, 3358.907
120.642, 4138.206
122.032, 4319.276
123.422, 4340.961
124.811, 3743.056
126.201, 2839.411
127.590, 2003.724
128.979, 1450.561
130.367, 921.388
131.756, 553.591
133.144, 314.310
134.532, 163.554
135.920, 135.372
137.307, 133.302
138.695, 160.644
140.082, 193.465
141.469, 269.544
142.856, 228.068
144.242, 212.411
145.628, 153.882
147.014, 77.879
148.400, 21.448
149.786, 60.634
151.171, 6.624
152.556, 52.105
153.941, 90.417
155.325, 61.000
156.710, 9.817
158.094, 83.730
159.478, 246.317
160.862, 106.982
162.245, 279.546
163.629, 242.553
165.012, 460.482
166.395, 500.337
167.777, 590.121
169.160, 923.834
170.542, 1183.647
171.924, 1599.758
173.306, 1865.150
174.687, 2069.195
176.068, 2110.297
177.449, 1952.476
178.830, 1797.023
180.211, 1514.678
181.591, 1278.999
182.972, 1258.306
184.351, 1281.180
185.731, 1265.888
187.111, 1196.126
188.490, 1280.564
189.869, 1142.063
191.248, 905.623
192.626, 590.245
194.005, 567.924
195.383, 316.655
196.761, 306.440
198.139, 105.276
199.516, 66.195
200.893, 116.149
202.271, 8.832
203.647, 5.221
205.024, 95.342
206.400, 37.438
207.777, 32.800
209.152, 18.052
210.528, 62.314
211.904, 13.416
213.279, 93.144
214.654, 41.876
216.029, 82.614
217.403, 19.643
218.778, 12.107
220.152, 17.135
221.526, 79.367
222.900, 18.586
224.273, 176.791
225.646, 124.979
227.019, 270.151
228.392, 250.305
229.765, 188.440
231.137, 334.558
232.509, 204.659
233.881, 260.742
235.253, 169.782
236.625, 109.782
237.996, 99.742
239.367, 74.674
240.738, 29.489
242.108, 43.795
243.479, 8.883
244.849, 10.545
246.219, 58.806
247.589, 16.167
248.958, 6.539
250.328, 18.109
251.697, 58.263
253.065, 33.636
254.434, 1.042
255.803, 23.674
257.171, 72.992
258.539, 6.748
259.906, 14.602
261.274, 28.527
262.641, 22.627
264.008, 6.932
265.375, 26.327
266.742, 70.491
268.108, 24.072
269.475, 14.184
270.840, 41.815
272.206, 202.292
273.572, 141.488
274.937, 212.844
276.302, 217.150
277.667, 269.487
279.032, 249.979
280.396, 302.354
281.760, 249.976
283.125, 432.501
284.488, 448.965
285.852, 600.312
287.215, 585.643
288.578, 699.954
289.941, 769.560
291.304, 966.153
292.666, 1073.671
294.029, 1412.901
295.391, 1682.960
296.753, 1855.090
298.114, 2447.180
299.476, 2896.233
300.837, 2987.479
302.198, 3206.572
303.558, 3195.515
304.919, 3045.209
306.279, 2794.071
307.639, 2508.457
308.999, 2135.259
310.359, 1812.147
311.718, 1690.898
313.077, 1367.606
314.436, 1247.399
315.795, 1024.043
317.154, 1022.568
318.512, 843.243
319.870, 789.653
321.228, 822.006
322.586, 738.386
323.943, 771.472
325.300, 872.506
326.657, 907.517
328.014, 938.512
329.371, 966.490
330.727, 1044.454
332.083, 1165.402
333.439, 1230.336
334.795, 1322.253
336.150, 1194.110
337.506, 1183.935
338.861, 1170.672
340.215, 904.374
341.570, 1003.985
342.924, 794.654
344.279, 778.143
345.633, 676.600
346.986, 625.029
348.340, 516.399
349.693, 581.860
351.046, 638.174
352.399, 729.483
353.752, 769.787
355.104, 773.084
356.457, 912.375
357.809, 917.660
359.160, 1096.937
360.512, 1214.207
361.863, 1370.470
363.214, 1854.680
364.565, 2491.928
365.916, 2677.330
367.267, 2973.585
368.617, 3360.928
369.967, 3754.500
371.317, 3761.475
372.666, 3698.205
374.016, 3195.520
375.365, 2870.537
376.714, 2400.535
378.063, 1914.099
379.411, 1744.724
380.760, 1387.401
382.108, 1041.420
383.456, 922.102
384.803, 768.266
386.151, 722.854
387.498, 530.946
388.845, 519.029
390.192, 444.104
391.539, 357.168
392.885, 424.225
394.231, 307.272
395.577, 224.311
396.923, 135.600
398.269, 331.463
399.614, 243.475
400.959, 199.558
402.304, 187.482
403.649, 162.200
404.993, 178.996
406.337, 187.031
407.681, 209.313
409.025, 248.153
410.369, 127.665
411.712, 212.775
413.055, 70.416
414.398, 71.326
415.741, 186.609
417.084, 153.341
418.426, 83.849
419.768, 87.051
421.110, 53.196
422.452, 116.844
423.793, 71.367
425.134, 127.524
426.475, 112.747
427.816, 103.096
429.157, 144.040
430.497, 46.317
431.837, 127.464
433.177, 203.311
434.517, 173.415
435.857, 87.212
437.196, 176.068
438.535, 122.836
439.874, 77.587
441.213, 108.449
442.551, 50.270
443.889, 71.977
445.227, 84.669
446.565, 168.345
447.903, 156.012
449.240, 141.666
450.577, 35.304
451.914, 33.924
453.251, 41.525
454.588, 103.588
455.924, 27.837
457.260, 174.696
458.596, 143.220
459.932, 139.729
461.267, 17.777
462.602, 80.684
463.938, 152.130
465.272, 5.562
466.607, 112.974
467.941, 71.628
469.276, 31.284
470.610, 70.018
471.943, 93.309
473.277, 94.605
474.610, 65.890
475.944, 93.162
477.276, 193.420
478.609, 48.666
479.942, 350.898
481.274, 242.120
482.606, 57.342
483.938, 155.553
485.270, 178.753
486.601, 372.972
487.932, 298.182
489.263, 312.391
490.594, 304.600
491.925, 298.798
493.255, 293.988
494.585, 177.168
495.915, 124.339
497.245, 289.500
498.575, 131.652
499.904, 177.809
501.233, 160.958
502.562, 71.097
503.891, 187.227
505.219, 134.349
506.548, 140.466
507.876, 169.222
509.203, 69.680
510.531, 167.774
511.859, 142.862
513.186, 116.944
514.513, 157.020
515.840, 147.723
517.166, 99.152
518.493, 193.209
519.819, 189.269
521.145, 235.320
522.470, 311.364
523.796, 91.421
525.121, 193.472
526.446, 259.523
527.771, 61.572
529.096, 141.612
530.421, 157.660
531.745, 103.704
533.069, 39.741
534.393, 105.771
535.716, 111.801
537.040, 7.855
538.363, 163.918
539.686, 219.999
541.009, 166.076
542.331, 62.155
543.654, 68.229
544.976, 134.296
546.298, 140.356
547.620, 106.412
548.941, 102.458
550.263, 178.499
551.584, 184.532
552.905, 200.558
554.225, 156.576
555.546, 22.588
556.866, 21.437
558.186, 154.543
559.506, 9.484
560.826, 156.469
562.145, 62.417
563.465, 118.357
564.784, 134.311
566.103, 40.260
567.421, 106.205
568.740, 182.165
570.058, 39.911
571.376, 16.029
572.694, 71.866
574.011, 22.428
575.329, 13.511
576.646, 0.395
577.963, 15.221
579.279, 22.157
580.596, 67.845
581.912, 153.811
583.228, 20.258
584.544, 45.682
585.860, 38.389
587.175, 22.538
588.491, 6.599
589.806, 79.016
591.121, 64.908
592.435, 10.812
593.750, 116.706
595.064, 62.507
596.378, 228.396
597.692, 94.276
599.006, 50.118
600.319, 55.979
601.632, 122.340
602.945, 228.034
604.258, 183.776
605.571, 91.214
606.883, 197.182
608.195, 123.006
609.507, 208.507
610.819, 223.991
612.131, 0.454
613.442, 166.098
614.753, 209.025
616.064, 85.567
617.375, 361.369
618.685, 307.165
619.995, 290.726
621.306, 156.397
622.615, 372.174
623.925, 297.152
625.235, 302.938
626.544, 514.244
627.853, 397.023
629.162, 372.916
630.471, 583.137
631.779, 539.067
633.087, 774.770
634.395, 710.474
635.703, 826.217
637.011, 871.727
638.318, 1077.480
639.625, 1296.075
640.932, 1331.608
642.239, 1687.365
643.546, 2190.008
644.852, 2485.712
646.158, 3243.318
647.464, 3781.232
648.770, 5016.918
650.076, 6442.760
651.381, 7908.434
652.686, 9804.100
653.991, 10809.903
655.296, 12055.565
656.600, 11534.334
657.905, 10760.061
659.209, 9505.706
660.513, 7691.238
661.817, 6326.873
663.120, 5132.957
664.423, 4058.578
665.726, 3284.660
667.029, 2550.163
668.332, 2265.767
669.635, 1941.582
670.937, 1647.287
672.239, 1393.090
673.541, 1139.179
674.842, 1024.751
676.144, 932.566
677.445, 888.126
678.746, 743.680
680.047, 613.699
681.348, 689.437
682.648, 574.970
683.948, 400.498
685.248, 615.897
686.548, 291.412
687.848, 576.918
689.147, 362.419
690.447, 227.707
691.746, 393.193
693.044, 448.675
694.343, 213.786
695.641, 569.253
696.940, 344.715
698.238, 360.168
699.535, 335.512
700.833, 340.873
702.130, 296.308
703.427, 281.734
704.724, 197.155
706.021, 122.568
707.318, 171.486
708.614, 173.377
709.910, 218.771
711.206, 244.160
712.502, 237.280
713.798, 263.001
715.093, 198.369
716.388, 162.654
717.683, 88.011
718.978, 183.274
720.272, 178.620
721.567, 174.022
722.861, 179.178
724.155, 334.505
725.448, 20.175
726.742, 352.130
728.035, 37.141
729.328, 222.378
730.621, 95.779
731.914, 90.766
733.206, 156.691
734.499, 8.179
735.791, 227.498
737.083, 144.161
738.374, 39.453
739.666, 183.062
740.957, 238.191
742.248, 110.577
743.539, 63.917
744.830, 108.256
746.120, 133.448
747.410, 98.575
748.701, 143.473
749.990, 320.813
751.280, 135.917
752.570, 281.091
753.859, 46.258
755.148, 101.295
756.437, 3.649
757.725, 171.495
759.014, 166.634
760.302, 18.180
761.590, 36.934
762.878, 192.041
764.166, 117.143
765.453, 162.239
766.740, 133.821
768.027, 1.567
769.314, 173.510
770.601, 1.407
771.887, 113.662
773.174, 148.727
774.460, 73.785
775.745, 218.849
777.031, 73.906
778.316, 158.958
779.602, 168.836
780.887, 6.118
782.172, 68.935
783.456, 12.065
784.741, 60.952
786.025, 24.057
787.309, 49.771
788.593, 124.767
789.876, 79.757
791.160, 174.741
792.443, 69.722
793.726, 35.303
795.009, 129.641
796.291, 64.580
797.574, 100.486
798.856, 184.382
800.138, 20.755
801.420, 25.914
802.702, 288.901
803.983, 33.712
805.264, 88.515
806.545, 153.313
807.826, 38.106
809.107, 134.525
810.387, 40.062
811.667, 54.687
812.947, 299.431
814.227, 114.170
815.507, 138.903
816.786, 3.634
818.065, 78.354
819.344, 3.068
820.623, 127.773
821.902, 112.474
823.180, 17.169
824.459, 41.858
825.737, 16.541
827.014, 1.219
828.292, 85.886
829.569, 29.452
830.847, 75.186
832.124, 199.819
833.401, 65.551
834.677, 19.035
835.954, 93.615
837.230, 238.191
838.506, 182.762
839.782, 287.330
841.057, 401.894
842.333, 296.454
843.608, 771.010
844.883, 765.564
846.158, 730.147
847.433, 1324.728
848.707, 1039.306
849.981, 943.879
851.255, 788.453
852.529, 613.024
853.803, 627.594
855.076, 502.160
856.350, 416.722
857.623, 411.306
858.895, 385.886
860.168, 240.463
861.441, 275.043
862.713, 329.622
863.985, 254.197
865.257, 178.789
866.528, 13.380
867.800, 127.977
869.071, 162.569
870.342, 107.168
871.613, 331.766
872.884, 96.361
874.154, 40.955
875.425, 135.562
876.695, 150.167
877.965, 74.771
879.234, 97.394
880.504, 202.008
881.773, 126.454
883.042, 181.066
884.311, 125.686
885.580, 19.682
886.848, 17.301
888.117, 10.677
889.385, 26.932
890.653, 37.671
891.920, 22.117
893.188, 36.723
894.455, 41.328
895.722, 145.946
896.989, 330.544
898.256, 115.176
899.523, 189.807
900.789, 144.438
902.055, 40.929
903.321, 413.683
904.587, 178.293
905.852, 202.903
907.118, 57.410
908.383, 292.019
909.648, 245.877
910.913, 200.484
912.177, 35.091
913.442, 58.096
914.706, 102.564
915.970, 307.172
917.233, 61.778
918.497, 113.612
919.760, 210.940
921.024, 74.743
922.287, 219.300
923.550, 263.121
924.812, 287.677
926.075, 222.233
927.337, 156.791
928.599, 111.349
929.861, 285.906
931.122, 89.537
932.384, 44.978
933.645, 308.398
934.906, 102.882
936.167, 427.125
937.428, 227.130
938.688, 18.571
939.948, 325.826
941.208, 60.333
942.468, 284.841
943.728, 69.349
944.987, 213.834
946.247, 315.474
947.506, 169.982
948.765, 374.451
950.023, 212.027
951.282, 296.539
952.540, 269.144
953.798, 181.437
955.056, 345.953
956.314, 50.309
957.572, 384.830
958.829, 249.353
960.086, 46.263
961.343, 21.753
962.600, 179.644
963.856, 264.077
965.113, 348.587
966.369, 253.097
967.625, 127.626
968.881, 231.683
970.136, 136.200
971.392, 290.250
972.647, 194.770
973.902, 309.290
975.157, 323.592
976.411, 368.002
977.666, 392.309
978.920, 216.366
980.174, 440.900
981.428, 173.278
982.682, 437.814
983.935, 302.415
985.188, 332.482
986.441, 356.859
987.694, 601.409
988.947, 585.961
990.199, 660.521
991.452, 915.081
992.704, 779.887
993.956, 874.460
995.207, 939.112
996.459, 1231.510
997.710, 1606.130
998.961, 1900.817
1000.212, 2405.443
1001.463, 3060.481
1002.714, 4145.850
1003.964, 6000.508
1005.214, 8455.168
1006.464, 11619.831
1007.714, 14989.934
1008.964, 16994.611
1010.213, 16789.395
1011.462, 14595.371
1012.711, 11460.387
1013.960, 9075.154
1015.209, 6944.145
1016.457, 5268.953
1017.705, 4353.807
1018.954, 3438.666
1020.201, 3183.935
1021.449, 2499.023
1022.697, 2243.974
1023.944, 2258.811
1025.191, 1726.880
1026.438, 1911.723
1027.685, 1676.959
1028.931, 1481.800
1030.177, 1506.666
1031.423, 1261.839
1032.669, 1086.704
1033.915, 1011.573
1035.161, 809.307
1036.406, 1003.030
1037.651, 828.335
1038.896, 712.541
1040.141, 866.405
1041.386, 601.241
1042.630, 876.012
1043.874, 880.968
1045.118, 646.014
1046.362, 871.154
1047.606, 686.766
1048.849, 511.977
1050.092, 637.131
1051.336, 512.018
1052.578, 814.744
1053.821, 579.631
1055.064, 514.516
1056.306, 749.397
1057.548, 444.286
1058.790, 579.171
1060.032, 464.058
1061.273, 458.969
1062.515, 623.881
1063.756, 448.796
1064.997, 424.567
1066.237, 619.476
1067.478, 385.195
1068.718, 343.613
1069.959, 498.515
1071.199, 353.854
1072.438, 568.755
1073.678, 383.655
1074.918, 379.263
1076.157, 364.172
1077.396, 329.167
1078.635, 504.190
1079.873, 439.092
1081.112, 289.170
1082.350, 474.065
1083.588, 578.963
1084.826, 413.922
1086.064, 458.879
1087.301, 213.855
1088.539, 488.117
1089.776, 263.084
1091.013, 88.053
1092.250, 373.016
1093.486, 317.975
1094.723, 352.930
1095.959, 327.891
1097.195, 503.020
1098.431, 337.973
1099.666, 432.949
1100.902, 108.402
1102.137, 583.377
1103.372, 108.355
1104.607, 323.871
1105.842, 288.842
1107.076, 93.809
1108.311, 449.283
1109.545, 232.605
1110.779, 326.922
1112.012, 401.877
1113.246, 226.828
1114.479, 231.771
1115.712, 86.709
1116.945, 111.723
1118.178, 217.059
1119.411, 231.977
1120.643, 286.885
1121.875, 318.412
1123.108, 286.689
1124.339, 291.578
1125.571, 246.494
1126.802, 91.369
1128.034, 177.635
1129.265, 82.635
1130.496, 197.492
1131.727, 92.424
1132.957, 217.307
1134.187, 103.281
1135.418, 168.480
1136.648, 173.354
1137.877, 239.453
1139.107, 124.355
1140.336, 60.400
1141.566, 445.854
1142.795, 100.674
1144.023, 135.424
1145.252, 210.141
1146.480, 115.133
1147.709, 310.484
1148.937, 35.695
1150.165, 8.947
1151.392, 251.512
1152.620, 146.164
1153.847, 301.137
1155.074, 92.781
1156.301, 201.949
1157.528, 135.223
1158.755, 19.664
1159.981, 107.242
1161.207, 231.975
1162.433, 63.549
1163.659, 250.830
1164.885, 125.805
1166.110, 170.301
1167.336, 77.266
1168.561, 121.719
1169.786, 157.480
1171.010, 243.557
1172.235, 41.883
1173.459, 313.805
1174.683, 98.510
1175.907, 432.734
1177.131, 240.594
1178.355, 124.764
1179.578, 419.215
1180.801, 204.535
1182.024, 31.357
1183.247, 233.055
1184.470, 70.967
1185.692, 375.338
1186.915, 100.281
1188.137, 235.129
1189.359, 319.092
1190.580, 183.982
1191.802, 168.340
1193.023, 155.592
1194.244, 47.244
1195.465, 141.154
1196.686, 154.969
1197.907, 229.207
1199.127, 262.973
1200.347, 314.617
1201.567, 352.201
1202.787, 385.904
1204.007, 311.750
1205.226, 265.404
1206.446, 269.033
1207.665, 299.486
1208.884, 223.066
1210.102, 257.168
1211.321, 50.789
1212.539, 584.291
1213.758, 58.979
1214.976, 302.697
1216.193, 476.143
1217.411, 140.094
1218.628, 423.480
1219.846, 476.844
1221.063, 84.346
1222.280, 467.646
1223.496, 231.518
1224.713, 225.775
1225.929, 348.990
1227.145, 303.355
1228.361, 486.689
1229.577, 389.838
1230.793, 358.660
1232.008, 371.781
1233.223, 446.826
1234.438, 380.676
1235.653, 412.992
1236.868, 346.928
1238.082, 299.969
1239.297, 353.537
1240.511, 316.541
1241.725, 489.531
1242.938, 242.500
1244.152, 355.877
1245.365, 488.811
1246.578, 171.727
1247.791, 394.977
1249.004, 337.854
1250.217, 161.984
1251.429, 474.822
1252.642, 557.633
1253.854, 170.426
1255.066, 463.189
1256.277, 445.969
1257.489, 449.025
1258.700, 514.242
1259.911, 394.695
1261.122, 457.297
1262.333, 279.857
1263.544, 202.373
1264.754, 394.867
1265.964, 427.330
1267.174, 400.156
1268.384, 472.449
1269.594, 314.658
1270.803, 297.145
1272.013, 589.285
1273.222, 61.342
1274.431, 273.396
1275.640, 405.336
1276.848, 307.896
1278.057, 369.779
1279.265, 101.697
1280.473, 243.959
1281.681, 395.889
1282.888, 87.676
1284.096, 310.473
1285.303, 92.189
1286.510, 173.697
1287.717, 375.340
1288.924, 83.125
1290.131, 130.627
1291.337, 252.076
1292.543, 163.430
1293.749, 195.818
1294.955, 156.754
1296.161, 32.668
1297.366, 420.754
1298.571, 241.947
1299.777, 73.115
1300.981, 278.789
1302.186, 80.135
1303.391, 181.863
1304.595, 138.580
1305.799, 261.898
1307.003, 342.590
1308.207, 100.982
1309.411, 179.594
1310.614, 290.203
1311.818, 20.656
1313.021, 290.645
1314.224, 70.775
1315.426, 51.006
1316.629, 251.309
1317.831, 68.268
1319.033, 198.480
1320.235, 309.031
1321.437, 0.840
1322.639, 499.234
1323.840, 238.961
1325.042, 88.959
1326.243, 408.777
1327.444, 225.686
1328.644, 4.584
1329.845, 224.504
1331.045, 114.115
1332.245, 123.223
1333.445, 502.834
1334.645, 112.293
1335.845, 201.549
1337.044, 410.801
1338.244, 89.834
1339.443, 288.330
1340.642, 327.180
1341.840, 196.039
1343.039, 415.115
1344.237, 54.146
1345.435, 273.127
1346.633, 362.115
1347.831, 30.986
1349.029, 529.795
1350.226, 528.562
1351.424, 52.715
1352.621, 705.938
1353.818, 164.488
1355.014, 273.051
1356.211, 453.033
1357.407, 81.521
1358.604, 229.156
1359.800, 487.566
1360.995, 165.945
1362.191, 523.855
1363.387, 352.180
1364.582, 9.512
1365.777, 327.879
1366.972, 145.930
1368.167, 93.840
1369.361, 411.656
1370.556, 79.566
1371.750, 247.482
1372.944, 285.486
1374.138, 193.279
1375.331, 377.846
1376.525, 38.924
1377.718, 309.959
1378.911, 490.955
1380.104, 111.730
1381.297, 422.643
1382.490, 158.531
1383.682, 466.916
1384.874, 636.832
1386.066, 674.619
1387.258, 187.449
1388.450, 378.777
1389.641, 298.039
1390.833, 205.732
1392.024, 492.422
1393.215, 81.473
1394.406, 362.037
1395.596, 364.699
1396.787, 495.389
1397.977, 351.115
1399.167, 285.025
1400.357, 213.547
1401.547, 322.818
1402.736, 199.811
1403.925, 418.312
1405.115, 316.676
1406.304, 318.029
1407.492, 327.260
1408.681, 434.760
1409.870, 161.834
1411.058, 294.049
1412.246, 339.559
1413.434, 167.709
1414.622, 432.949
1415.809, 267.350
1416.997, 253.781
1418.184, 501.920
1419.371, 124.713
1420.558, 441.756
1421.744, 309.898
1422.931, 122.059
1424.117, 197.797
1425.303, 294.783
1426.489, 52.529
1427.675, 558.982
1428.861, 206.623
1430.046, 332.246
1431.231, 470.334
1432.416, 244.875
1433.601, 221.121
1434.786, 218.145
1435.970, 45.928
1437.155, 591.141
1438.339, 248.023
1439.523, 5.865
1440.707, 595.721
1441.890, 190.277
1443.074, 195.582
1444.257, 532.838
1445.440, 8.264
1446.623, 401.006
1447.806, 245.705
1448.989, 160.902
1450.171, 457.090
1451.353, 432.158
1452.535, 77.980
1453.717, 732.799
1454.899, 245.211
1456.080, 400.410
1457.262, 575.357
1458.443, 449.393
1459.624, 443.410
1460.805, 568.215
1461.985, 12.922
1463.166, 376.715
1464.346, 341.170
1465.526, 156.432
1466.706, 741.635
1467.886, 384.826
1469.065, 157.797
1470.245, 771.670
1471.424, 292.289
1472.603, 175.863
1473.782, 779.459
1474.960, 53.211
1476.139, 573.080
1477.317, 488.094
1478.495, 30.990
1479.673, 463.760
1480.851, 222.373
1482.029, 305.783
1483.206, 549.010
1484.383, 240.643
1485.560, 233.568
1486.737, 406.318
1487.914, 18.924
1489.091, 367.039
1490.267, 349.023
1491.443, 211.484
1492.619, 344.662
1493.795, 317.936
1494.971, 140.492
1496.146, 644.107
1497.322, 42.873
1498.497, 121.475
1499.672, 476.018
1500.846, 210.854
1502.021, 275.645
1503.196, 231.836
1504.370, 48.682
1505.544, 646.441
1506.718, 122.666
1507.892, 45.162
1509.065, 586.139
1510.238, 113.152
1511.412, 148.990
1512.585, 250.289
1513.758, 0.000
##END=



