##NAMES=Hemimorphite
##RRUFFID=R040117
##IDEAL CHEMISTRY=Zn^2+^_4_Si_2_O_7_(OH)_2_&#183;H_2_O
##LOCALITY=Durango, Mexico
##OWNER=RRUFF
##SOURCE=University of Arizona Mineral Museum
##DESCRIPTION=Colorless thin tabular crystals in a sheaflike aggregate
##STATUS=The identification of this mineral has been confirmed by X-ray diffraction and chemical analysis
##URL=rruff.info/R040117
##MEASURED CHEMISTRY=Zn_4.05_Si_1.97_O_7_((OH)_0.99_F_0.01_)_2_Â·H_2_O
##PIN_ID=L00527
##ORIENTATION=Laser parallel to b* (0 1 0). Fiducial mark perpendicular to laser is parallel to -c [0 0 -1]
96.858, 0.000
98.251, 69.558
99.644, 25.865
101.036, 132.468
102.428, 306.424
103.820, 465.204
105.212, 799.715
106.604, 1028.976
107.995, 1393.763
109.387, 1480.023
110.777, 1727.445
112.168, 1704.393
113.559, 1879.537
114.949, 2041.739
116.339, 2300.034
117.729, 2563.607
119.119, 3031.774
120.508, 3654.275
121.897, 4550.314
123.286, 5809.581
124.675, 7542.187
126.063, 9558.054
127.452, 12666.739
128.840, 15707.862
130.228, 19811.100
131.615, 23046.211
133.003, 25982.975
134.390, 27081.184
135.777, 26320.693
137.164, 24141.361
138.550, 20643.061
139.937, 17615.664
141.323, 14209.058
142.709, 11596.618
144.094, 9502.984
145.480, 7598.213
146.865, 6404.016
148.250, 5271.598
149.635, 4672.206
151.019, 3975.628
152.403, 3611.807
153.788, 3219.432
155.171, 2876.838
156.555, 2763.982
157.939, 2570.892
159.322, 2667.596
160.705, 2524.117
162.088, 2620.534
163.470, 2876.997
164.853, 2853.393
166.235, 3209.666
167.617, 3195.825
168.998, 3461.890
170.380, 3367.869
171.761, 3223.772
173.142, 2719.604
174.523, 2245.367
175.904, 1681.065
177.284, 1286.701
178.664, 952.279
180.044, 507.717
181.424, 372.813
182.803, 197.686
184.183, 52.422
185.562, 77.076
186.940, 98.312
188.319, 96.284
189.698, 19.111
191.076, 44.481
192.454, 170.186
193.831, 34.898
195.209, 249.665
196.586, 164.490
197.963, 302.024
199.340, 316.870
200.717, 460.154
202.093, 696.717
203.470, 838.301
204.846, 878.664
206.221, 1106.776
207.597, 1162.577
208.972, 1298.245
210.347, 1383.939
211.722, 1604.621
213.097, 1605.435
214.472, 1596.373
215.846, 1457.432
217.220, 1548.605
218.594, 1389.888
219.967, 1191.274
221.341, 1142.761
222.714, 1034.348
224.087, 976.172
225.460, 899.052
226.832, 821.970
228.204, 880.266
229.577, 753.515
230.948, 847.418
232.320, 809.747
233.692, 622.072
235.063, 664.476
236.434, 606.947
237.805, 679.508
239.175, 651.445
240.545, 664.970
241.916, 647.813
243.286, 540.729
244.655, 563.652
246.025, 526.576
247.394, 503.886
248.763, 512.414
250.132, 495.326
251.501, 418.235
252.869, 421.136
254.237, 464.029
255.605, 366.915
256.973, 459.792
258.340, 342.657
259.708, 375.513
261.075, 448.356
262.442, 352.933
263.808, 498.267
265.175, 474.566
266.541, 632.987
267.907, 672.418
269.273, 832.687
270.639, 953.660
272.004, 1145.254
273.369, 1327.382
274.734, 1369.974
276.099, 1542.974
277.463, 1486.338
278.828, 1680.022
280.192, 1453.995
281.556, 1278.238
282.919, 1252.722
284.283, 1067.418
285.646, 782.306
287.009, 717.363
288.372, 502.587
289.734, 377.947
291.097, 243.435
292.459, 209.033
293.821, 74.746
295.183, 50.548
296.544, 113.564
297.905, 107.634
299.266, 111.670
300.627, 295.671
301.988, 209.696
303.348, 293.727
304.709, 297.771
306.069, 241.857
307.428, 195.995
308.788, 290.173
310.147, 254.404
311.507, 218.684
312.865, 353.011
314.224, 207.423
315.583, 241.908
316.941, 296.490
318.299, 181.186
319.657, 125.971
321.015, 0.826
322.372, 174.271
323.729, 449.343
325.086, 804.387
326.443, 1409.401
327.800, 1974.389
329.156, 2549.346
330.512, 3244.271
331.868, 3379.168
333.224, 3084.035
334.579, 2728.871
335.935, 2163.678
337.290, 1668.455
338.645, 1263.204
339.999, 967.922
341.354, 742.611
342.708, 547.269
344.062, 481.898
345.416, 416.654
346.769, 391.652
348.123, 287.316
349.476, 162.638
350.829, 158.308
352.182, 136.372
353.534, 190.730
354.887, 136.577
356.239, 81.946
357.591, 86.341
358.942, 144.908
360.294, 190.125
361.645, 134.305
362.996, 189.888
364.347, 201.640
365.698, 251.637
367.048, 268.290
368.398, 254.019
369.748, 297.161
371.098, 315.195
372.448, 359.033
373.797, 451.813
375.146, 260.724
376.495, 423.104
377.844, 355.454
379.192, 591.691
380.540, 565.795
381.889, 680.884
383.236, 645.380
384.584, 644.143
385.932, 899.509
387.279, 991.699
388.626, 924.175
389.973, 1066.093
391.319, 1207.953
392.666, 1249.781
394.012, 1330.442
395.358, 1273.335
396.704, 1425.070
398.049, 1406.782
399.394, 1498.466
400.740, 1507.209
402.084, 1631.758
403.429, 1543.365
404.774, 1654.942
406.118, 1776.488
407.462, 1638.003
408.806, 1589.486
410.150, 1570.936
411.493, 1382.354
412.836, 1343.740
414.179, 1225.094
415.522, 1198.054
416.865, 1127.700
418.207, 1188.975
419.549, 1100.216
420.891, 1091.422
422.233, 1092.706
423.575, 1003.859
424.916, 1095.259
426.257, 926.638
427.598, 1047.799
428.939, 1129.500
430.279, 1061.132
431.619, 1192.279
432.959, 1376.609
434.299, 1499.658
435.639, 1641.912
436.978, 1713.322
438.318, 2025.469
439.657, 2386.873
440.996, 2707.957
442.334, 3332.114
443.673, 4025.132
445.011, 5007.244
446.349, 5988.634
447.687, 7609.820
449.024, 9212.889
450.361, 10813.618
451.699, 12595.334
453.036, 13066.219
454.372, 13410.780
455.709, 12481.630
457.045, 10584.301
458.381, 9328.929
459.717, 7533.211
461.053, 6119.346
462.388, 5092.919
463.724, 4382.146
465.059, 3520.180
466.394, 2872.156
467.728, 2548.089
469.063, 1885.119
470.397, 1856.698
471.731, 1560.586
473.065, 1346.396
474.398, 1136.557
475.732, 952.445
477.065, 845.541
478.398, 747.149
479.731, 683.758
481.063, 684.445
482.396, 632.633
483.728, 574.604
485.060, 535.105
486.391, 430.074
487.723, 439.419
489.054, 358.486
490.385, 367.740
491.716, 336.715
493.047, 285.636
494.377, 274.507
495.708, 193.328
497.038, 222.403
498.368, 261.127
499.697, 299.824
501.027, 270.343
502.356, 297.079
503.685, 205.636
505.014, 174.141
506.342, 152.602
507.671, 111.007
508.999, 129.353
510.327, 67.549
511.655, 25.593
512.982, 193.104
514.310, 81.210
515.637, 118.459
516.964, 193.895
518.291, 9.349
519.617, 116.352
520.944, 194.030
522.270, 80.504
523.596, 98.000
524.921, 25.520
526.247, 23.062
527.572, 40.529
528.897, 147.926
530.222, 14.715
531.547, 82.551
532.871, 139.775
534.196, 33.046
535.520, 174.030
536.844, 88.938
538.167, 7.965
539.491, 64.789
540.814, 31.552
542.137, 48.245
543.460, 35.123
544.783, 21.406
546.105, 177.863
547.427, 144.313
548.749, 240.681
550.071, 407.007
551.393, 493.399
552.714, 559.642
554.035, 755.917
555.356, 822.076
556.677, 818.993
557.998, 875.070
559.318, 731.105
560.638, 600.427
561.958, 606.379
563.278, 422.577
564.597, 415.548
565.917, 394.277
567.236, 370.066
568.555, 305.906
569.874, 321.855
571.192, 397.521
572.511, 353.146
573.829, 348.838
575.147, 284.381
576.464, 284.643
577.782, 250.104
579.099, 248.669
580.416, 204.119
581.733, 269.139
583.050, 174.438
584.366, 179.692
585.683, 285.033
586.999, 130.441
588.315, 135.705
589.630, 220.785
590.946, 6.016
592.261, 40.983
593.576, 75.895
594.891, 140.753
596.206, 75.567
597.520, 130.330
598.834, 175.049
600.148, 0.274
601.462, 24.415
602.776, 58.962
604.089, 103.556
605.402, 117.825
606.715, 12.408
608.028, 176.752
609.341, 61.055
610.653, 125.309
611.965, 20.481
613.277, 113.653
614.589, 7.746
615.901, 41.779
617.212, 65.795
618.523, 10.204
619.834, 43.765
621.145, 7.763
622.456, 58.236
623.766, 95.753
625.076, 29.783
626.386, 173.832
627.696, 107.901
629.006, 62.013
630.315, 56.155
631.624, 19.681
632.933, 64.518
634.242, 68.738
635.551, 12.992
636.859, 77.282
638.167, 11.594
639.475, 105.903
640.783, 40.192
642.090, 104.439
643.398, 88.972
644.705, 134.101
646.012, 249.338
647.318, 133.908
648.625, 188.097
649.931, 232.208
651.237, 336.214
652.543, 210.192
653.849, 114.596
655.155, 268.501
656.460, 367.961
657.765, 351.804
659.070, 617.299
660.375, 371.079
661.679, 594.828
662.984, 789.816
664.288, 783.077
665.592, 1125.617
666.895, 1229.624
668.199, 1431.077
669.502, 1893.295
670.805, 2316.775
672.108, 2778.497
673.411, 3100.991
674.713, 3445.495
676.016, 3414.676
677.318, 3287.147
678.620, 3090.490
679.921, 2582.194
681.223, 2174.256
682.524, 1885.186
683.825, 1444.994
685.126, 1305.467
686.427, 880.584
687.727, 1038.177
689.028, 713.287
690.328, 695.916
691.628, 532.331
692.927, 455.235
694.227, 458.130
695.526, 297.096
696.825, 238.154
698.124, 378.185
699.423, 198.766
700.721, 225.038
702.020, 224.662
703.318, 97.418
704.616, 219.837
705.913, 142.762
707.211, 75.668
708.508, 238.554
709.805, 81.419
711.102, 214.266
712.399, 2.906
713.695, 309.896
714.992, 172.678
716.288, 44.558
717.584, 116.340
718.879, 20.860
720.175, 103.540
721.470, 216.203
722.765, 108.850
724.060, 61.479
725.355, 24.091
726.649, 256.685
727.944, 119.263
729.238, 51.826
730.532, 194.375
731.825, 73.091
733.119, 159.386
734.412, 41.847
735.705, 184.292
736.998, 43.387
738.291, 69.006
739.584, 111.144
740.876, 33.293
742.168, 5.643
743.460, 27.428
744.752, 139.250
746.043, 11.524
747.334, 220.576
748.626, 180.868
749.916, 221.914
751.207, 73.760
752.498, 154.818
753.788, 176.574
755.078, 158.598
756.368, 17.498
757.658, 157.486
758.947, 8.324
760.237, 169.832
761.526, 171.485
762.815, 171.203
764.104, 233.200
765.392, 144.154
766.680, 325.886
767.969, 23.877
769.257, 45.521
770.544, 185.285
771.832, 95.990
773.119, 127.139
774.406, 46.002
775.693, 256.822
776.980, 216.777
778.267, 202.753
779.553, 194.302
780.839, 114.927
782.125, 206.898
783.411, 148.566
784.697, 219.784
785.982, 80.938
787.267, 249.570
788.552, 50.848
789.837, 182.196
791.122, 12.596
792.406, 114.043
793.690, 164.435
794.974, 16.115
796.258, 37.143
797.542, 11.156
798.825, 29.257
800.108, 33.103
801.391, 15.739
802.674, 3.948
803.957, 1.934
805.239, 120.097
806.522, 2.123
807.804, 15.854
809.085, 55.860
810.367, 122.127
811.649, 19.836
812.930, 48.205
814.211, 113.741
815.492, 205.687
816.772, 42.370
818.053, 9.562
819.333, 251.497
820.613, 36.564
821.893, 115.365
823.173, 62.695
824.452, 49.240
825.732, 61.177
827.011, 63.121
828.290, 34.931
829.568, 147.009
830.847, 128.970
832.125, 320.936
833.403, 42.902
834.681, 84.878
835.959, 33.139
837.236, 8.852
838.514, 70.860
839.791, 67.116
841.068, 64.897
842.345, 93.063
843.621, 1.044
844.898, 120.979
846.174, 93.036
847.450, 145.099
848.726, 37.209
850.001, 89.344
851.277, 111.492
852.552, 163.661
853.827, 225.845
855.102, 138.063
856.376, 170.305
857.651, 72.515
858.925, 154.770
860.199, 377.030
861.473, 289.187
862.746, 321.460
864.020, 313.666
865.293, 285.953
866.566, 277.447
867.839, 319.750
869.112, 292.059
870.384, 481.051
871.656, 283.375
872.928, 315.422
874.200, 427.764
875.472, 280.113
876.744, 202.473
878.015, 634.748
879.286, 326.883
880.557, 619.268
881.828, 472.070
883.098, 494.367
884.369, 636.783
885.639, 574.451
886.909, 816.889
888.178, 709.213
889.448, 811.674
890.717, 911.373
891.987, 953.859
893.256, 1036.355
894.524, 1121.627
895.793, 1231.893
897.061, 1303.422
898.330, 1485.975
899.598, 1608.348
900.865, 1729.229
902.133, 1703.555
903.401, 1996.186
904.668, 1908.834
905.935, 2151.502
907.202, 2454.182
908.468, 2516.945
909.735, 3249.590
911.001, 3302.338
912.267, 3975.004
913.533, 4437.789
914.799, 5000.590
916.064, 5943.414
917.330, 6816.254
918.595, 8589.113
919.860, 10311.988
921.124, 12654.895
922.389, 15857.820
923.653, 19280.768
924.918, 23253.740
926.182, 27906.725
927.445, 30189.744
928.709, 33222.781
929.972, 34275.844
931.236, 35278.945
932.499, 34912.066
933.761, 31985.207
935.024, 27538.359
936.286, 21901.537
937.549, 17204.730
938.811, 13647.941
940.073, 10941.184
941.334, 8846.867
942.596, 7470.148
943.857, 5913.451
945.118, 5116.771
946.379, 4370.115
947.640, 3950.365
948.900, 3523.742
950.161, 2676.816
951.421, 2519.271
952.681, 2263.756
953.940, 1946.732
955.200, 1870.070
956.459, 1476.816
957.719, 1530.305
958.978, 1373.801
960.236, 1166.855
961.495, 1160.391
962.753, 978.357
964.012, 821.920
965.270, 1084.693
966.527, 638.289
967.785, 831.900
969.043, 664.457
970.300, 678.100
971.557, 561.756
972.814, 714.256
974.071, 627.949
975.327, 379.410
976.583, 633.135
977.840, 536.875
979.095, 270.629
980.351, 593.307
981.607, 367.094
982.862, 370.902
984.117, 474.732
985.372, 188.578
986.627, 362.473
987.882, 315.389
989.136, 269.316
990.390, 343.266
991.644, 265.795
992.898, 359.783
994.152, 260.275
995.405, 314.264
996.659, 228.318
997.912, 332.449
999.165, 226.764
1000.417, 400.936
1001.670, 315.697
1002.922, 409.924
1004.174, 194.227
1005.426, 258.797
1006.678, 213.162
1007.930, 477.541
1009.181, 281.941
1010.432, 276.361
1011.683, 180.797
1012.934, 225.252
1014.185, 299.869
1015.435, 174.410
1016.685, 378.926
1017.935, 343.461
1019.185, 158.262
1020.435, 442.869
1021.684, 257.516
1022.934, 182.248
1024.183, 246.947
1025.432, 171.666
1026.680, 296.400
1027.929, 281.148
1029.177, 25.918
1030.425, 350.822
1031.673, 24.279
1032.921, 230.631
1034.169, 175.604
1035.416, 280.607
1036.663, 145.684
1037.911, 290.807
1039.157, 235.947
1040.404, 161.100
1041.650, 126.283
1042.897, 181.477
1044.143, 306.709
1045.389, 211.953
1046.634, 259.420
1047.880, 274.311
1049.125, 197.762
1050.371, 303.059
1051.615, 238.363
1052.860, 273.680
1054.105, 309.000
1055.349, 334.332
1056.593, 279.676
1057.837, 4.973
1059.081, 80.381
1060.325, 175.746
1061.568, 141.119
1062.812, 286.500
1064.055, 241.578
1065.298, 257.279
1066.540, 232.680
1067.783, 216.605
1069.025, 163.494
1070.267, 198.908
1071.509, 134.326
1072.751, 146.828
1073.993, 85.176
1075.234, 90.605
1076.475, 216.035
1077.716, 241.477
1078.957, 246.918
1080.198, 72.365
1081.438, 157.898
1082.679, 233.367
1083.919, 58.840
1085.159, 294.527
1086.398, 250.004
1087.638, 5.766
1088.877, 141.246
1090.116, 73.271
1091.355, 222.619
1092.594, 128.078
1093.833, 63.539
1095.071, 188.998
1096.309, 155.543
1097.547, 39.852
1098.785, 215.250
1100.023, 80.648
1101.260, 63.953
1102.498, 21.432
1103.735, 46.865
1104.972, 87.498
1106.208, 117.857
1107.445, 73.211
1108.681, 58.562
1109.918, 43.912
1111.154, 169.404
1112.389, 254.775
1113.625, 29.855
1114.860, 165.848
1116.096, 41.209
1117.331, 13.436
1118.566, 141.953
1119.800, 67.307
1121.035, 214.227
1122.269, 259.574
1123.503, 294.914
1124.737, 330.262
1125.971, 95.602
1127.205, 311.152
1128.438, 377.111
1129.671, 172.438
1130.904, 248.672
1132.137, 216.105
1133.370, 141.422
1134.602, 224.520
1135.834, 110.871
1137.066, 226.398
1138.298, 212.979
1139.530, 20.934
1140.762, 355.990
1141.993, 92.531
1143.224, 369.783
1144.455, 186.838
1145.686, 106.955
1146.917, 42.602
1148.147, 290.000
1149.377, 4.637
1150.607, 236.580
1151.837, 226.561
1153.067, 51.914
1154.296, 215.578
1155.526, 261.189
1156.755, 227.398
1157.984, 134.002
1159.213, 160.346
1160.441, 316.678
1161.670, 102.934
1162.898, 131.010
1164.126, 327.295
1165.354, 502.932
1166.581, 89.189
1167.809, 234.127
1169.036, 221.342
1170.263, 146.818
1171.490, 198.686
1172.717, 264.691
1173.943, 208.285
1175.170, 206.293
1176.396, 223.055
1177.622, 182.000
1178.848, 317.342
1180.073, 583.193
1181.299, 379.783
1182.524, 428.924
1183.749, 673.750
1184.974, 526.764
1186.199, 452.713
1187.423, 647.924
1188.648, 434.123
1189.872, 429.559
1191.096, 430.457
1192.320, 515.355
1193.543, 700.232
1194.767, 385.986
1195.990, 380.557
1197.213, 666.291
1198.436, 331.104
1199.659, 535.281
1200.881, 469.793
1202.104, 524.023
1203.326, 579.463
1204.548, 463.977
1205.770, 637.977
1206.991, 692.102
1208.213, 386.617
1209.434, 520.529
1210.655, 585.414
1211.876, 339.256
1213.096, 813.121
1214.317, 477.002
1215.537, 650.738
1216.757, 634.438
1217.977, 478.104
1219.197, 501.734
1220.417, 485.330
1221.636, 628.889
1222.855, 692.410
1224.074, 416.947
1225.293, 740.398
1226.512, 573.811
1227.731, 311.613
1228.949, 724.955
1230.167, 488.609
1231.385, 282.277
1232.603, 785.516
1233.820, 269.090
1235.038, 712.551
1236.255, 465.676
1237.472, 236.619
1238.689, 589.680
1239.906, 522.719
1241.122, 385.732
1242.338, 688.727
1243.555, 434.809
1244.771, 497.756
1245.986, 510.678
1247.202, 423.578
1248.417, 434.518
1249.633, 337.369
1250.848, 290.381
1252.063, 499.838
1253.277, 362.607
1254.492, 385.354
1255.706, 458.072
1256.920, 321.271
1258.134, 523.922
1259.348, 416.506
1260.562, 278.182
1261.775, 400.754
1262.988, 463.225
1264.201, 355.637
1265.414, 467.949
1266.627, 90.225
1267.839, 412.350
1269.052, 384.398
1270.264, 396.797
1271.476, 658.795
1272.688, 320.707
1273.899, 223.225
1275.111, 455.033
1276.322, 166.736
1277.533, 72.102
1278.744, 533.666
1279.955, 44.824
1281.165, 157.049
1282.376, 328.213
1283.586, 129.246
1284.796, 190.268
1286.006, 100.221
1287.215, 131.305
1288.425, 82.018
1289.634, 92.666
1290.843, 156.748
1292.052, 283.727
1293.261, 73.979
1294.469, 344.604
1295.678, 15.660
1296.886, 155.424
1298.094, 334.764
1299.302, 55.250
1300.509, 264.895
1301.717, 154.846
1302.924, 114.746
1304.131, 134.586
1305.338, 134.338
1306.545, 141.133
1307.752, 43.531
1308.958, 133.061
1310.164, 222.574
1311.370, 132.039
1312.576, 78.805
1313.782, 70.508
1314.987, 239.756
1316.193, 31.129
1317.398, 147.979
1318.603, 207.020
1319.807, 135.998
1321.012, 84.912
1322.216, 146.240
1323.421, 89.389
1324.625, 111.043
1325.829, 110.396
1327.032, 8.051
1328.236, 83.588
1329.439, 55.324
1330.642, 122.801
1331.845, 210.855
1333.048, 98.854
1334.251, 166.795
1335.453, 25.318
1336.656, 252.492
1337.858, 250.252
1339.060, 117.955
1340.261, 305.604
1341.463, 113.199
1342.664, 230.740
1343.866, 518.229
1345.067, 285.672
1346.267, 343.062
1347.468, 120.408
1348.669, 257.697
1349.869, 354.941
1351.069, 332.135
1352.269, 229.285
1353.469, 546.391
1354.668, 153.449
1355.868, 500.463
1357.067, 347.439
1358.266, 334.379
1359.465, 381.281
1360.664, 358.152
1361.862, 374.988
1363.061, 581.795
1364.259, 648.574
1365.457, 615.328
1366.655, 522.059
1367.852, 138.770
1369.050, 585.461
1370.247, 512.143
1371.444, 1.184
1372.641, 455.402
1373.838, 263.344
1375.035, 250.018
1376.231, 566.498
1377.427, 253.230
1378.623, 269.465
1379.819, 645.879
1381.015, 272.252
1382.211, 411.840
1383.406, 551.807
1384.601, 401.748
1385.796, 621.668
1386.991, 391.539
1388.185, 421.057
1389.380, 620.855
1390.574, 430.602
1391.768, 290.131
1392.962, 619.396
1394.156, 298.975
1395.350, 458.463
1396.543, 526.164
1397.736, 365.564
1398.929, 434.660
1400.122, 223.217
1401.315, 418.902
1402.507, 608.838
1403.700, 396.273
1404.892, 322.641
1406.084, 397.902
1407.276, 251.990
1408.467, 601.684
1409.659, 467.135
1410.850, 329.080
1412.041, 445.898
1413.232, 191.637
1414.423, 275.715
1415.614, 370.041
1416.804, 131.770
1417.994, 346.537
1419.184, 587.074
1420.374, 16.305
1421.564, 277.994
1422.753, 550.242
1423.943, 91.469
1425.132, 408.211
1426.321, 362.613
1427.510, 153.684
1428.698, 385.502
1429.887, 89.484
1431.075, 213.031
1432.263, 445.410
1433.451, 257.096
1434.639, 451.396
1435.827, 413.795
1437.014, 87.635
1438.201, 601.049
1439.388, 343.863
1440.575, 128.189
1441.762, 102.346
1442.949, 102.646
1444.135, 320.791
1445.321, 304.889
1446.507, 366.955
1447.693, 412.520
1448.879, 405.518
1450.064, 438.279
1451.250, 690.359
1452.435, 243.078
1453.620, 516.150
1454.805, 208.979
1455.989, 371.553
1457.174, 453.863
1458.358, 405.420
1459.542, 186.752
1460.726, 558.223
1461.910, 388.221
1463.093, 249.219
1464.277, 519.896
1465.460, 369.682
1466.643, 460.441
1467.826, 661.607
1469.009, 391.551
1470.191, 700.699
1471.373, 561.615
1472.556, 202.184
1473.738, 381.650
1474.919, 563.705
1476.101, 205.975
1477.283, 447.777
1478.464, 480.545
1479.645, 133.283
1480.826, 715.100
1482.007, 207.514
1483.187, 368.939
1484.368, 521.307
1485.548, 93.760
1486.728, 196.301
1487.908, 358.844
1489.088, 161.348
1490.268, 593.838
1491.447, 326.379
1492.626, 319.027
1493.805, 321.826
1494.984, 364.834
1496.163, 318.025
1497.341, 371.520
1498.520, 305.812
1499.698, 270.377
1500.876, 235.176
1502.054, 220.203
1503.232, 465.562
1504.409, 131.299
1505.586, 57.430
1506.763, 484.043
1507.940, 151.242
1509.117, 359.125
1510.294, 57.797
1511.470, 387.293
1512.647, 77.736
1513.823, 249.322
1514.999, 17.705
1516.174, 266.969
1517.350, 303.732
1518.526, 113.178
1519.701, 334.996
1520.876, 261.836
1522.051, 0.000
##END=



