##NAMES=Hemimorphite
##RRUFFID=R040117
##IDEAL CHEMISTRY=Zn^2+^_4_Si_2_O_7_(OH)_2_&#183;H_2_O
##LOCALITY=Durango, Mexico
##OWNER=RRUFF
##SOURCE=University of Arizona Mineral Museum
##DESCRIPTION=Colorless thin tabular crystals in a sheaflike aggregate
##STATUS=The identification of this mineral has been confirmed by X-ray diffraction and chemical analysis
##URL=rruff.info/R040117
##MEASURED CHEMISTRY=Zn_4.05_Si_1.97_O_7_((OH)_0.99_F_0.01_)_2_Â·H_2_O
##PIN_ID=L00159
##ORIENTATION=Laser parallel to -a* (-1 0 0). Fiducial mark perpendicular to laser is parallel to b [0 1 0]
98.251, 0.000
99.644, 19.592
101.036, 201.930
102.428, 267.967
103.820, 567.510
105.212, 900.018
106.604, 1443.703
107.995, 1550.768
109.387, 1895.939
110.777, 2086.176
112.168, 2458.982
113.559, 2562.031
114.949, 2673.387
116.339, 2891.525
117.729, 2835.322
119.119, 2903.977
120.508, 2908.441
121.897, 3019.062
123.286, 3404.461
124.675, 3513.439
126.063, 3695.107
127.452, 4088.797
128.840, 4344.000
130.228, 4610.328
131.615, 4857.531
133.003, 4875.412
134.390, 4554.568
135.777, 4484.203
137.164, 3843.963
138.550, 3804.156
139.937, 3559.736
141.323, 3116.127
142.709, 3021.641
144.094, 3030.178
145.480, 2916.355
146.865, 3009.971
148.250, 2981.258
149.635, 3190.430
151.019, 3307.688
152.403, 3553.994
153.788, 3957.055
155.171, 4229.436
156.555, 4710.436
157.939, 5240.160
159.322, 5968.703
160.705, 6866.152
162.088, 7912.574
163.470, 8818.795
164.853, 9783.998
166.235, 10767.656
167.617, 11273.615
168.998, 10873.879
170.380, 10476.082
171.761, 9642.023
173.142, 7723.555
174.523, 5913.414
175.904, 4103.092
177.284, 2786.268
178.664, 1846.096
180.044, 988.369
181.424, 704.242
182.803, 265.371
184.183, 290.311
185.562, 477.951
186.940, 427.551
188.319, 458.338
189.698, 454.934
191.076, 455.258
192.454, 455.025
193.831, 305.625
195.209, 706.215
196.586, 427.070
197.963, 577.975
199.340, 439.273
200.717, 690.578
202.093, 602.711
203.470, 704.709
204.846, 696.822
206.221, 778.844
207.597, 816.135
208.972, 823.293
210.347, 925.695
211.722, 888.195
213.097, 1000.789
214.472, 853.465
215.846, 776.225
217.220, 899.053
218.594, 621.939
219.967, 694.877
221.341, 647.885
222.714, 480.920
224.087, 643.947
225.460, 376.926
226.832, 549.832
228.204, 262.672
229.577, 465.434
230.948, 278.121
232.320, 480.730
233.692, 373.270
235.063, 185.738
236.434, 288.174
237.805, 450.582
239.175, 12.986
240.545, 325.379
241.916, 287.723
243.286, 260.021
244.655, 152.242
246.025, 225.580
247.394, 366.438
248.763, 348.412
250.132, 330.297
251.501, 392.057
252.869, 263.701
254.237, 275.250
255.605, 166.707
256.973, 198.088
258.340, 89.393
259.708, 79.393
261.075, 218.293
262.442, 337.518
263.808, 655.779
265.175, 402.229
266.541, 756.779
267.907, 620.354
269.273, 693.227
270.639, 645.623
272.004, 477.662
273.369, 499.432
274.734, 501.023
276.099, 192.479
277.463, 233.811
278.828, 114.955
280.192, 43.832
281.556, 452.770
282.919, 511.809
284.283, 590.896
285.646, 640.008
287.009, 579.123
288.372, 508.209
289.734, 557.250
291.097, 676.230
292.459, 575.145
293.821, 634.000
295.183, 622.777
296.544, 681.496
297.905, 630.125
299.266, 648.656
300.627, 727.100
301.988, 715.443
303.348, 593.682
304.709, 741.785
306.069, 659.713
307.428, 757.424
308.788, 684.902
310.147, 912.160
311.507, 939.207
312.865, 876.051
314.224, 1112.705
315.583, 1199.172
316.941, 1255.461
318.299, 1461.582
319.657, 1787.537
321.015, 2293.330
322.372, 2928.971
323.729, 3914.463
325.086, 4949.883
326.443, 6605.088
327.800, 8000.152
329.156, 8935.258
330.512, 9661.066
331.868, 9195.723
333.224, 8410.164
334.579, 7095.451
335.935, 5779.773
337.290, 4934.205
338.645, 4008.135
339.999, 3422.920
341.354, 2948.812
342.708, 2542.416
344.062, 2136.062
345.416, 2328.732
346.769, 2040.785
348.123, 2031.867
349.476, 1741.760
350.829, 1780.955
352.182, 1809.867
353.534, 1698.301
354.887, 1697.570
356.239, 1676.332
357.591, 1734.912
358.942, 1713.438
360.294, 1731.697
361.645, 1839.922
362.996, 1918.107
364.347, 1947.086
365.698, 2124.469
367.048, 2053.729
368.398, 2101.969
369.748, 2219.945
371.098, 2341.314
372.448, 2539.453
373.797, 2438.072
375.146, 2493.170
376.495, 2771.283
377.844, 2785.316
379.192, 3303.938
380.540, 3165.666
381.889, 3503.771
383.236, 3691.977
384.584, 3641.852
385.932, 4249.590
387.279, 4367.051
388.626, 4694.367
389.973, 5101.635
391.319, 5598.547
392.666, 5715.717
394.012, 5972.566
395.358, 6569.633
396.704, 6846.658
398.049, 6992.611
399.394, 7379.238
400.740, 7506.113
402.084, 7675.076
403.429, 7821.668
404.774, 7928.031
406.118, 7844.219
407.462, 7699.523
408.806, 7495.316
410.150, 7251.758
411.493, 6808.059
412.836, 6524.428
414.179, 6230.793
415.522, 5888.832
416.865, 5564.283
418.207, 5248.066
419.549, 4942.828
420.891, 4677.771
422.233, 4376.543
423.575, 4159.676
424.916, 4035.018
426.257, 3785.049
427.598, 3592.283
428.939, 3401.441
430.279, 3218.324
431.619, 3170.703
432.959, 3119.645
434.299, 3325.141
435.639, 3269.195
436.978, 3050.320
438.318, 3442.684
439.657, 3670.938
440.996, 4051.010
442.334, 4437.639
443.673, 5269.020
445.011, 5914.014
446.349, 6779.590
447.687, 8215.842
449.024, 9321.496
450.361, 10156.461
451.699, 11041.084
453.036, 10845.785
454.372, 10635.404
455.709, 9470.105
457.045, 7801.775
458.381, 6886.230
459.717, 5681.318
461.053, 4618.426
462.388, 3902.969
463.724, 3297.176
465.059, 2500.881
466.394, 2374.922
467.728, 1809.357
469.063, 1413.250
470.397, 1356.914
471.731, 1370.670
473.065, 1194.363
474.398, 1130.371
475.732, 861.551
477.065, 915.049
478.398, 728.484
479.731, 671.857
481.063, 565.170
482.396, 538.418
483.728, 519.172
485.060, 404.775
486.391, 507.883
487.723, 430.951
489.054, 373.963
490.385, 186.914
491.716, 429.848
493.047, 562.725
494.377, 185.547
495.708, 368.324
497.038, 311.049
498.368, 443.734
499.697, 176.365
501.027, 68.938
502.356, 371.449
503.685, 253.906
505.014, 296.312
506.342, 238.666
507.671, 250.975
508.999, 343.236
510.327, 335.465
511.655, 297.658
512.982, 429.828
514.310, 161.969
515.637, 274.082
516.964, 306.162
518.291, 308.223
519.617, 370.246
520.944, 522.240
522.270, 434.211
523.596, 326.154
524.921, 458.066
526.247, 99.947
527.572, 291.787
528.897, 653.625
530.222, 4.549
531.547, 277.256
532.871, 149.029
534.196, 69.234
535.520, 242.406
536.844, 55.984
538.167, 105.537
539.491, 22.977
540.814, 188.441
542.137, 149.840
543.460, 1.209
544.783, 232.521
546.105, 283.803
547.427, 405.057
548.749, 539.072
550.071, 757.480
551.393, 748.650
552.714, 979.797
554.035, 1070.918
555.356, 992.012
556.677, 1283.078
557.998, 1024.123
559.318, 665.145
560.638, 996.139
561.958, 487.143
563.278, 568.125
564.597, 739.080
565.917, 90.016
567.236, 250.930
568.555, 341.846
569.874, 332.754
571.192, 203.639
572.511, 355.102
573.829, 65.939
575.147, 296.746
576.464, 41.404
577.782, 322.168
579.099, 113.729
580.416, 194.471
581.733, 155.820
583.050, 207.072
584.366, 18.041
585.683, 179.195
586.999, 70.561
588.315, 224.393
589.630, 146.074
590.946, 61.799
592.261, 120.355
593.576, 72.547
594.891, 125.107
596.206, 167.326
597.520, 140.162
598.834, 92.381
600.148, 54.906
601.462, 102.037
602.776, 232.193
604.089, 84.635
605.402, 12.861
606.715, 29.525
608.028, 101.887
609.341, 364.225
610.653, 266.615
611.965, 80.770
613.277, 175.760
614.589, 112.027
615.901, 293.975
617.212, 16.086
618.523, 41.564
619.834, 130.475
621.145, 192.492
622.456, 214.492
623.766, 196.477
625.076, 38.443
626.386, 380.387
627.696, 222.314
629.006, 474.420
630.315, 216.311
631.624, 358.189
632.933, 360.055
634.242, 272.074
635.551, 273.904
636.859, 435.719
638.167, 517.641
639.475, 579.424
640.783, 731.432
642.090, 731.164
643.398, 512.828
644.705, 879.355
646.012, 1161.248
647.318, 962.766
648.625, 1064.469
649.931, 1376.539
651.237, 1758.191
652.543, 1663.584
653.849, 1855.057
655.155, 2570.990
656.460, 2592.588
657.765, 2953.520
659.070, 3555.674
660.375, 3987.141
661.679, 5128.252
662.984, 5909.705
664.288, 7230.742
665.592, 8812.016
666.895, 10933.738
668.199, 13325.043
669.502, 15958.404
670.805, 20059.865
672.108, 22533.824
673.411, 24694.871
674.713, 25480.955
676.016, 25578.941
677.318, 24220.342
678.620, 21623.473
679.921, 18455.070
681.223, 15956.320
682.524, 12957.887
683.825, 11088.027
685.126, 9385.719
686.427, 7240.488
687.727, 6788.098
689.028, 5259.139
690.328, 4799.643
691.628, 3883.613
692.927, 3414.506
694.227, 3019.422
695.526, 2369.695
696.825, 2306.801
698.124, 2031.035
699.423, 1941.545
700.721, 1760.324
702.020, 1391.184
703.318, 1492.260
704.616, 1383.420
705.913, 904.572
707.211, 1115.711
708.508, 1036.842
709.805, 917.965
711.102, 919.076
712.399, 590.180
713.695, 891.273
714.992, 552.359
716.288, 383.436
717.584, 564.502
718.879, 615.561
720.175, 566.611
721.470, 467.650
722.765, 417.959
724.060, 354.068
725.355, 338.666
726.649, 299.783
727.944, 30.578
729.238, 511.561
730.532, 461.781
731.825, 37.254
733.119, 352.801
734.412, 13.715
735.705, 364.094
736.998, 34.812
738.291, 75.369
739.584, 286.143
740.876, 186.062
742.168, 146.719
743.460, 13.080
744.752, 237.717
746.043, 108.195
747.334, 134.838
748.626, 265.193
749.916, 285.340
751.207, 272.291
752.498, 283.854
753.788, 140.297
755.078, 210.484
756.368, 20.504
757.658, 15.377
758.947, 145.238
760.237, 115.322
761.526, 184.648
762.815, 254.480
764.104, 144.605
765.392, 115.148
766.680, 55.680
767.969, 58.951
769.257, 321.389
770.544, 55.363
771.832, 245.037
773.119, 54.633
774.406, 202.166
775.693, 472.229
776.980, 142.539
778.267, 162.883
779.553, 183.201
780.839, 222.850
782.125, 173.158
783.411, 63.457
784.697, 243.746
785.982, 214.023
787.267, 314.289
788.552, 64.549
789.837, 414.799
791.122, 145.037
792.406, 75.268
793.690, 225.490
794.974, 45.705
796.258, 124.084
797.542, 186.055
798.825, 73.816
800.108, 56.264
801.391, 196.336
802.674, 173.594
803.957, 6.377
805.239, 116.340
806.522, 73.701
807.804, 196.217
809.085, 73.867
810.367, 106.016
811.649, 15.896
812.930, 44.223
814.211, 205.629
815.492, 55.471
816.772, 15.309
818.053, 55.133
819.333, 9.957
820.613, 4.721
821.893, 124.484
823.173, 35.758
824.452, 163.969
825.732, 56.314
827.011, 213.354
828.290, 27.049
829.568, 342.533
830.847, 202.105
832.125, 28.334
833.403, 21.197
834.681, 100.715
835.959, 20.225
837.236, 79.727
838.514, 110.777
839.791, 61.316
841.068, 161.881
842.345, 147.521
843.621, 126.916
844.898, 176.309
846.174, 85.693
847.450, 275.051
848.726, 114.432
850.001, 183.805
851.277, 66.811
852.552, 212.555
853.827, 231.914
855.102, 111.279
856.376, 610.637
857.651, 159.988
858.925, 229.330
860.199, 538.668
861.473, 307.998
862.746, 407.320
864.020, 596.639
865.293, 165.949
866.566, 535.250
867.839, 264.549
869.112, 413.842
870.384, 373.129
871.656, 342.408
872.928, 371.686
874.200, 320.955
875.472, 90.219
876.744, 100.518
878.015, 76.336
879.286, 7.928
880.557, 67.137
881.828, 175.734
883.098, 514.932
884.369, 124.129
885.639, 389.451
886.909, 568.641
888.178, 377.018
889.448, 266.207
890.717, 534.828
891.987, 503.617
893.256, 492.801
894.524, 593.926
895.793, 281.082
897.061, 637.936
898.330, 717.123
899.598, 736.076
900.865, 305.174
902.133, 964.389
903.401, 803.611
904.668, 572.871
905.935, 942.137
907.202, 821.428
908.468, 830.748
909.735, 1179.562
911.001, 927.164
912.267, 1416.533
913.533, 1135.828
914.799, 1435.227
916.064, 1734.637
917.330, 1374.055
918.595, 2303.418
919.860, 2482.545
921.124, 2977.729
922.389, 3657.227
923.653, 4202.896
924.918, 5572.457
926.182, 7211.777
927.445, 8271.391
928.709, 10791.027
929.972, 12080.684
931.236, 14490.365
932.499, 14020.070
933.761, 12979.805
935.024, 11189.566
936.286, 8329.168
937.549, 6768.996
938.811, 5078.855
940.073, 4258.750
941.334, 3668.504
942.596, 2948.480
943.857, 2468.500
945.118, 2058.441
946.379, 1758.559
947.640, 1550.320
948.900, 1692.578
950.161, 1082.871
951.421, 1458.434
952.681, 918.688
953.940, 1019.207
955.200, 1128.785
956.459, 899.086
957.719, 1099.750
958.978, 865.785
960.236, 776.637
961.495, 1125.969
962.753, 1107.039
964.012, 986.906
965.270, 1103.445
966.527, 833.098
967.785, 1292.445
969.043, 1041.512
970.300, 1468.996
971.557, 1205.219
972.814, 1533.141
974.071, 1842.855
975.327, 1350.469
976.583, 2029.934
977.840, 1592.453
979.095, 1377.555
980.351, 2187.070
981.607, 1636.586
982.862, 1586.102
984.117, 1861.547
985.372, 941.031
986.627, 1560.520
987.882, 1260.008
989.136, 1159.500
990.390, 1198.996
991.644, 758.500
992.898, 1228.004
994.152, 807.516
995.405, 787.031
996.659, 970.070
997.912, 854.805
999.165, 754.219
1000.417, 913.645
1001.670, 543.121
1002.922, 852.617
1004.174, 482.125
1005.426, 611.645
1006.678, 721.191
1007.930, 500.766
1009.181, 500.352
1010.432, 459.938
1011.683, 449.539
1012.934, 649.148
1014.185, 748.793
1015.435, 348.445
1016.685, 828.102
1017.935, 497.766
1019.185, 467.504
1020.435, 787.297
1021.684, 187.098
1022.934, 486.898
1024.183, 476.711
1025.432, 496.516
1026.680, 346.320
1027.929, 536.121
1029.177, 495.926
1030.425, 855.711
1031.673, 265.473
1032.921, 645.328
1034.169, 525.250
1035.416, 675.234
1036.663, 515.289
1037.911, 365.398
1039.157, 745.500
1040.404, 395.613
1041.650, 585.773
1042.897, 675.988
1044.143, 506.328
1045.389, 136.730
1046.634, 807.254
1047.880, 288.164
1049.125, 769.121
1050.371, 510.227
1051.615, 391.391
1052.860, 692.621
1054.105, 513.922
1055.349, 675.289
1056.593, 506.945
1057.837, 328.750
1059.081, 400.660
1060.325, 332.676
1061.568, 554.805
1062.812, 567.051
1064.055, 558.918
1065.298, 561.922
1066.540, 564.570
1067.783, 427.367
1069.025, 510.312
1070.267, 303.430
1071.509, 406.730
1072.751, 560.234
1073.993, 313.953
1075.234, 347.906
1076.475, 402.098
1077.716, 546.555
1078.957, 481.758
1080.198, 520.688
1081.438, 421.719
1082.679, 437.406
1083.919, 453.441
1085.159, 329.844
1086.398, 306.641
1087.638, 483.848
1088.877, 401.508
1090.116, 89.660
1091.355, 578.348
1092.594, 257.621
1093.833, 207.535
1095.071, 558.164
1096.309, 50.434
1097.547, 361.820
1098.785, 285.027
1100.023, 269.289
1101.260, 164.746
1102.498, 301.566
1103.735, 319.941
1104.972, 220.117
1106.208, 418.746
1107.445, 357.379
1108.681, 216.250
1109.918, 6.395
1111.154, 719.906
1112.389, 344.812
1113.625, 0.000
##END=



