##NAMES=Hemimorphite
##RRUFFID=R040117
##IDEAL CHEMISTRY=Zn^2+^_4_Si_2_O_7_(OH)_2_&#183;H_2_O
##LOCALITY=Durango, Mexico
##OWNER=RRUFF
##SOURCE=University of Arizona Mineral Museum
##DESCRIPTION=Colorless thin tabular crystals in a sheaflike aggregate
##STATUS=The identification of this mineral has been confirmed by X-ray diffraction and chemical analysis
##URL=rruff.info/R040117
##MEASURED CHEMISTRY=Zn_4.05_Si_1.97_O_7_((OH)_0.99_F_0.01_)_2_Â·H_2_O
##PIN_ID=L00527
##ORIENTATION=Laser parallel to b* (0 1 0). Fiducial mark perpendicular to laser is parallel to -c [0 0 -1]
87.101, 0.000
88.496, 9.642
89.890, 25.995
91.284, 194.204
92.678, 637.503
94.071, 988.503
95.465, 1586.313
96.858, 1937.353
98.251, 2462.297
99.644, 3144.697
101.036, 3859.760
102.428, 4623.757
103.820, 5433.730
105.212, 6897.190
106.604, 7942.104
107.995, 9257.125
109.387, 10351.327
110.777, 10943.925
112.168, 11123.736
113.559, 11070.097
114.949, 10942.010
116.339, 10519.247
117.729, 10461.231
119.119, 10427.198
120.508, 10506.531
121.897, 11118.720
123.286, 11813.346
124.675, 13040.071
126.063, 14009.224
127.452, 16331.927
128.840, 17747.572
130.228, 20806.584
131.615, 22589.289
133.003, 24295.188
134.390, 24521.617
135.777, 23637.760
137.164, 21565.129
138.550, 18457.123
139.937, 15794.400
141.323, 12884.635
142.709, 10588.251
144.094, 9004.389
145.480, 7282.109
146.865, 6199.445
148.250, 5295.830
149.635, 4851.336
151.019, 4336.032
152.403, 4129.977
153.788, 4043.223
155.171, 3785.814
156.555, 4267.795
157.939, 4129.197
159.322, 4630.053
160.705, 4970.389
162.088, 5600.231
163.470, 6529.625
164.853, 7056.675
166.235, 8470.332
167.617, 9293.142
168.998, 9873.934
170.380, 10370.865
171.761, 10066.540
173.142, 9224.399
174.523, 7821.402
175.904, 6387.322
177.284, 4853.147
178.664, 3783.266
180.044, 2385.435
181.424, 1594.830
182.803, 944.340
184.183, 483.972
185.562, 333.725
186.940, 46.399
188.319, 23.550
189.698, 124.410
191.076, 133.734
192.454, 437.537
193.831, 465.096
195.209, 663.415
196.586, 832.870
197.963, 818.196
199.340, 725.141
200.717, 727.734
202.093, 619.819
203.470, 641.850
204.846, 661.073
206.221, 755.266
207.597, 909.585
208.972, 934.023
210.347, 1058.582
211.722, 1383.241
213.097, 1497.992
214.472, 1612.829
215.846, 1687.756
217.220, 1702.764
218.594, 1567.831
219.967, 1332.943
221.341, 1338.068
222.714, 903.217
224.087, 858.384
225.460, 723.541
226.832, 558.675
228.204, 573.798
229.577, 368.913
230.948, 484.002
232.320, 339.038
233.692, 144.020
235.063, 178.955
236.434, 23.820
237.805, 198.604
239.175, 96.708
240.545, 37.882
241.916, 77.626
243.286, 153.234
244.655, 178.943
246.025, 104.779
247.394, 130.763
248.763, 136.989
250.132, 83.451
251.501, 80.141
252.869, 108.322
254.237, 154.005
255.605, 225.647
256.973, 164.670
258.340, 241.831
259.708, 207.526
261.075, 192.022
262.442, 315.528
263.808, 258.238
265.175, 170.271
266.541, 211.718
267.907, 222.680
269.273, 93.239
270.639, 26.571
272.004, 166.720
273.369, 307.169
274.734, 277.875
276.099, 538.799
277.463, 579.900
278.828, 751.148
280.192, 712.514
281.556, 533.975
282.919, 605.507
284.283, 557.097
285.646, 368.722
287.009, 290.372
288.372, 122.030
289.734, 193.675
291.097, 45.298
292.459, 56.859
293.821, 71.652
295.183, 100.289
296.544, 169.074
297.905, 138.045
299.266, 157.201
300.627, 236.525
301.988, 166.075
303.348, 295.856
304.709, 205.864
306.069, 156.102
307.428, 196.569
308.788, 127.295
310.147, 128.269
311.507, 169.494
312.865, 140.979
314.224, 52.711
315.583, 24.668
316.941, 56.842
318.299, 120.891
319.657, 258.443
321.015, 475.962
322.372, 683.467
323.729, 1120.890
325.086, 1688.246
326.443, 2555.855
327.800, 3572.891
329.156, 4630.411
330.512, 5428.243
331.868, 5865.305
333.224, 5581.893
334.579, 5160.569
335.935, 4566.053
337.290, 3452.223
338.645, 2758.936
339.999, 2195.978
341.354, 1842.898
342.708, 1449.947
344.062, 1306.582
345.416, 1323.164
346.769, 1018.840
348.123, 1104.781
349.476, 1000.612
350.829, 1114.625
352.182, 989.284
353.534, 962.104
354.887, 1017.717
356.239, 1052.206
357.591, 896.166
358.942, 940.651
360.294, 1113.049
361.645, 975.432
362.996, 1037.953
364.347, 1009.931
365.698, 1143.251
367.048, 1255.844
368.398, 1239.364
369.748, 1241.774
371.098, 1233.880
372.448, 1279.325
373.797, 1356.155
375.146, 1396.959
376.495, 1496.646
377.844, 1588.418
379.192, 1639.001
380.540, 1859.678
381.889, 1839.058
383.236, 2058.278
384.584, 1997.169
385.932, 2285.723
387.279, 2483.736
388.626, 2431.670
389.973, 2809.505
391.319, 2717.253
392.666, 2954.916
394.012, 2952.492
395.358, 3139.982
396.704, 3457.385
398.049, 3474.702
399.394, 3541.936
400.740, 3589.080
402.084, 3611.484
403.429, 3538.459
404.774, 3551.419
406.118, 3660.413
407.462, 3487.863
408.806, 3328.916
410.150, 3148.483
411.493, 2857.560
412.836, 2919.152
414.179, 2600.746
415.522, 2630.855
416.865, 2308.485
418.207, 2212.059
419.549, 2038.729
420.891, 1810.946
422.233, 1814.747
423.575, 1549.084
424.916, 1606.042
426.257, 1546.174
427.598, 1361.015
428.939, 1423.513
430.279, 1344.901
431.619, 1333.602
432.959, 1318.129
434.299, 1330.279
435.639, 1415.516
436.978, 1496.939
438.318, 1632.261
439.657, 1947.476
440.996, 2092.851
442.334, 2458.691
443.673, 2733.865
445.011, 3330.599
446.349, 3895.486
447.687, 4811.551
449.024, 5886.572
450.361, 6698.810
451.699, 7792.648
453.036, 8091.393
454.372, 8330.629
455.709, 7811.947
457.045, 6521.667
458.381, 5815.634
459.717, 4751.150
461.053, 4009.153
462.388, 3266.879
463.724, 2698.820
465.059, 2204.938
466.394, 1813.114
467.728, 1665.263
469.063, 1233.373
470.397, 1205.414
471.731, 1076.776
473.065, 834.816
474.398, 674.588
475.732, 559.266
477.065, 644.914
478.398, 448.819
479.731, 441.829
481.063, 410.235
482.396, 381.156
483.728, 369.244
485.060, 353.851
486.391, 304.857
487.723, 355.346
489.054, 275.850
490.385, 226.131
491.716, 266.875
493.047, 286.960
494.377, 196.951
495.708, 236.829
497.038, 246.613
498.368, 186.291
499.697, 145.878
501.027, 135.351
502.356, 114.733
503.685, 126.879
505.014, 123.151
506.342, 162.196
507.671, 141.139
508.999, 139.970
510.327, 218.708
511.655, 177.352
512.982, 191.723
514.310, 114.356
515.637, 152.734
516.964, 161.010
518.291, 109.208
519.617, 207.301
520.944, 175.305
522.270, 143.216
523.596, 151.069
524.921, 68.833
526.247, 86.047
527.572, 44.079
528.897, 81.545
530.222, 90.089
531.547, 86.197
532.871, 193.380
534.196, 140.482
535.520, 227.499
536.844, 74.439
538.167, 131.285
539.491, 118.046
540.814, 214.718
542.137, 221.314
543.460, 247.836
544.783, 304.283
546.105, 410.661
547.427, 406.973
548.749, 573.219
550.071, 749.399
551.393, 805.515
552.714, 1191.565
554.035, 1277.552
555.356, 1623.474
556.677, 1569.628
557.998, 1405.424
559.318, 1271.156
560.638, 1137.228
561.958, 1012.950
563.278, 949.007
564.597, 1074.536
565.917, 790.041
567.236, 665.580
568.555, 861.109
569.874, 616.537
571.192, 591.977
572.511, 597.612
573.829, 542.945
575.147, 508.421
576.464, 461.000
577.782, 489.518
579.099, 364.918
580.416, 370.192
581.733, 375.934
583.050, 321.200
584.366, 266.549
585.683, 251.854
586.999, 147.150
588.315, 153.202
589.630, 97.964
590.946, 114.783
592.261, 120.003
593.576, 65.159
594.891, 30.479
596.206, 165.498
597.520, 160.702
598.834, 105.605
600.148, 40.447
601.462, 95.223
602.776, 19.998
604.089, 94.697
605.402, 10.721
606.715, 43.859
608.028, 198.311
609.341, 102.718
610.653, 137.478
611.965, 61.807
613.277, 76.188
614.589, 0.490
615.901, 94.799
617.212, 69.142
618.523, 76.486
619.834, 187.882
621.145, 112.313
622.456, 53.213
623.766, 171.317
625.076, 14.094
626.386, 90.533
627.696, 75.220
629.006, 109.949
630.315, 174.726
631.624, 79.562
632.933, 124.451
634.242, 211.612
635.551, 46.563
636.859, 154.479
638.167, 19.334
639.475, 234.040
640.783, 122.396
642.090, 76.901
643.398, 141.410
644.705, 267.268
646.012, 211.540
647.318, 256.382
648.625, 99.467
649.931, 368.211
651.237, 304.195
652.543, 356.715
653.849, 462.334
655.155, 325.467
656.460, 382.222
657.765, 453.689
659.070, 551.050
660.375, 615.144
661.679, 673.214
662.984, 796.044
664.288, 868.674
665.592, 1010.079
666.895, 1295.511
668.199, 1558.152
669.502, 1910.260
670.805, 2315.162
672.108, 2741.919
673.411, 3123.589
674.713, 3400.944
676.016, 3501.805
677.318, 3484.285
678.620, 3256.364
679.921, 2686.629
681.223, 2448.335
682.524, 1931.469
683.825, 1611.974
685.126, 1511.425
686.427, 1033.654
687.727, 1064.342
689.028, 885.045
690.328, 617.394
691.628, 669.054
692.927, 562.180
694.227, 522.666
695.526, 434.239
696.825, 275.613
698.124, 248.179
699.423, 300.801
700.721, 373.648
702.020, 326.728
703.318, 260.242
704.616, 263.733
705.913, 177.220
707.211, 220.687
708.508, 174.137
709.805, 187.568
711.102, 280.982
712.399, 94.380
713.695, 167.758
714.992, 211.120
716.288, 64.466
717.584, 137.791
718.879, 41.102
720.175, 204.392
721.470, 227.667
722.765, 140.926
724.060, 134.170
725.355, 207.397
726.649, 140.611
727.944, 83.810
729.238, 196.990
730.532, 103.917
731.825, 73.309
733.119, 86.442
734.412, 109.561
735.705, 202.664
736.998, 25.752
738.291, 178.822
739.584, 121.810
740.876, 144.565
742.168, 147.256
743.460, 79.504
744.752, 181.772
746.043, 26.365
747.334, 175.621
748.626, 197.661
749.916, 69.236
751.207, 160.393
752.498, 62.671
753.788, 234.927
755.078, 176.887
756.368, 168.251
757.658, 100.148
758.947, 99.773
760.237, 212.269
761.526, 92.877
762.815, 134.393
764.104, 136.803
765.392, 8.813
766.680, 290.969
767.969, 82.688
769.257, 104.541
770.544, 215.640
771.832, 177.624
773.119, 119.459
774.406, 157.071
775.693, 137.579
776.980, 91.513
778.267, 180.738
779.553, 153.050
780.839, 204.012
782.125, 205.981
783.411, 297.886
784.697, 169.932
785.982, 122.247
787.267, 194.160
788.552, 43.742
789.837, 198.688
791.122, 59.595
792.406, 82.549
793.690, 213.993
794.974, 73.538
796.258, 58.436
797.542, 30.215
798.825, 37.739
800.108, 74.702
801.391, 22.985
802.674, 29.432
803.957, 98.718
805.239, 46.337
806.522, 36.018
807.804, 51.630
809.085, 50.698
810.367, 86.967
811.649, 55.329
812.930, 112.370
814.211, 9.887
815.492, 32.151
816.772, 35.579
818.053, 13.318
819.333, 148.937
820.613, 78.803
821.893, 63.428
823.173, 35.657
824.452, 52.110
825.732, 109.899
827.011, 92.267
828.290, 105.562
829.568, 186.563
830.847, 128.715
832.125, 140.867
833.403, 156.978
834.681, 65.107
835.959, 62.803
837.236, 39.273
838.514, 41.358
839.791, 36.540
841.068, 25.555
842.345, 7.658
843.621, 49.771
844.898, 171.886
846.174, 5.993
847.450, 286.126
848.726, 68.256
850.001, 110.393
851.277, 282.550
852.552, 144.711
853.827, 156.874
855.102, 159.089
856.376, 341.302
857.651, 213.515
858.925, 245.741
860.199, 427.967
861.473, 380.192
862.746, 262.415
864.020, 314.641
865.293, 226.866
866.566, 308.796
867.839, 288.161
869.112, 293.248
870.384, 305.071
871.656, 357.208
872.928, 388.945
874.200, 411.172
875.472, 383.399
876.744, 175.574
878.015, 657.729
879.286, 299.960
880.557, 572.157
881.828, 494.122
883.098, 606.357
884.369, 548.421
885.639, 500.366
886.909, 922.374
888.178, 714.485
889.448, 756.729
890.717, 968.506
891.987, 890.756
893.256, 1032.950
894.524, 915.206
895.793, 1027.465
897.061, 1279.514
898.330, 1201.785
899.598, 1462.516
900.865, 1374.803
902.133, 1607.096
903.401, 1849.170
904.668, 1781.486
905.935, 2013.561
907.202, 2345.887
908.468, 2418.223
909.735, 2930.566
911.001, 2972.855
912.267, 3565.170
913.533, 3977.543
914.799, 4609.865
916.064, 5602.266
917.330, 6194.670
918.595, 7936.678
919.860, 9669.094
921.124, 11631.441
922.389, 14193.875
923.653, 16956.324
924.918, 20098.777
926.182, 24131.248
927.445, 26723.734
928.709, 30356.236
929.972, 32898.746
931.236, 35511.273
932.499, 36473.805
933.761, 34376.340
935.024, 29958.898
936.286, 24991.457
937.549, 19844.025
938.811, 15546.609
940.073, 12459.199
941.334, 9699.557
942.596, 8272.162
943.857, 6601.723
945.118, 5594.342
946.379, 4886.979
947.640, 4060.957
948.900, 3783.553
950.161, 2936.047
951.421, 2796.771
952.681, 2559.441
953.940, 2070.857
955.200, 2166.402
956.459, 1834.500
957.719, 1854.830
958.978, 1527.426
960.236, 1287.512
961.495, 1372.348
962.753, 1400.529
964.012, 1573.256
965.270, 1365.346
966.527, 1533.334
967.785, 1036.236
969.043, 917.180
970.300, 899.113
971.557, 831.891
972.814, 930.641
974.071, 863.434
975.327, 656.186
976.583, 896.385
977.840, 713.359
979.095, 546.182
980.351, 823.477
981.607, 820.135
982.862, 892.984
984.117, 745.848
985.372, 798.160
986.627, 863.219
987.882, 743.381
989.136, 766.328
990.390, 609.393
991.644, 510.588
992.898, 423.549
994.152, 606.463
995.405, 429.482
996.659, 492.689
997.912, 545.578
999.165, 448.918
1000.417, 442.002
1001.670, 538.488
1002.922, 541.629
1004.174, 504.779
1005.426, 489.688
1006.678, 402.910
1007.930, 476.096
1009.181, 432.605
1010.432, 395.889
1011.683, 419.508
1012.934, 402.760
1014.185, 656.613
1015.435, 230.381
1016.685, 523.688
1017.935, 517.080
1019.185, 350.891
1020.435, 644.242
1021.684, 227.697
1022.934, 451.068
1024.183, 494.531
1025.432, 327.980
1026.680, 491.459
1027.929, 385.193
1029.177, 328.689
1030.425, 472.367
1031.673, 195.912
1032.921, 359.467
1034.169, 403.027
1035.416, 416.834
1036.663, 300.455
1037.911, 284.102
1039.157, 397.754
1040.404, 501.416
1041.650, 195.086
1042.897, 518.758
1044.143, 432.438
1045.389, 136.117
1046.634, 459.803
1047.880, 263.492
1049.125, 337.184
1050.371, 380.895
1051.615, 184.885
1052.860, 338.605
1054.105, 472.332
1055.349, 276.061
1056.593, 479.793
1057.837, 303.527
1059.081, 237.264
1060.325, 371.002
1061.568, 104.744
1062.812, 558.488
1064.055, 122.236
1065.298, 226.004
1066.540, 369.756
1067.783, 143.506
1069.025, 257.262
1070.267, 381.014
1071.509, 84.941
1072.751, 338.693
1073.993, 152.445
1075.234, 156.197
1076.475, 149.945
1077.716, 193.863
1078.957, 317.619
1080.198, 300.861
1081.438, 485.170
1082.679, 388.967
1083.919, 112.766
1085.159, 226.664
1086.398, 280.455
1087.638, 95.590
1088.877, 199.379
1090.116, 93.166
1091.355, 287.479
1092.594, 211.279
1093.833, 65.086
1095.071, 329.527
1096.309, 116.670
1097.547, 47.104
1098.785, 210.871
1100.023, 164.637
1101.260, 58.543
1102.498, 342.309
1103.735, 73.926
1104.972, 20.189
1106.208, 63.557
1107.445, 147.412
1108.681, 121.725
1109.918, 54.457
1111.154, 169.297
1112.389, 333.045
1113.625, 23.215
1114.860, 81.236
1116.096, 4.984
1117.331, 68.727
1118.566, 82.504
1119.800, 256.250
1121.035, 220.609
1122.269, 474.363
1123.503, 498.109
1124.737, 372.135
1125.971, 125.879
1127.205, 329.848
1128.438, 244.145
1129.671, 82.086
1130.904, 272.402
1132.137, 156.910
1133.370, 80.652
1134.602, 33.008
1135.834, 27.104
1137.066, 204.719
1138.298, 79.156
1139.530, 166.941
1140.762, 228.307
1141.993, 145.699
1143.224, 151.674
1144.455, 76.469
1145.686, 53.914
1146.917, 58.393
1148.147, 313.984
1149.377, 62.371
1150.607, 123.975
1151.837, 254.771
1153.067, 191.662
1154.296, 136.393
1155.526, 180.012
1156.755, 54.377
1157.984, 144.559
1159.213, 69.627
1160.441, 183.305
1161.670, 34.348
1162.898, 58.457
1164.126, 242.262
1165.354, 156.705
1166.581, 60.613
1167.809, 359.000
1169.036, 163.863
1170.263, 347.314
1171.490, 194.762
1172.717, 238.605
1173.943, 288.094
1175.170, 151.660
1176.396, 295.420
1177.622, 187.750
1178.848, 260.812
1180.073, 265.135
1181.299, 248.504
1182.524, 172.568
1183.749, 366.145
1184.974, 304.205
1186.199, 447.934
1187.423, 321.648
1188.648, 354.971
1189.872, 388.068
1191.096, 261.119
1192.320, 383.891
1193.543, 546.588
1194.767, 319.996
1195.990, 302.639
1197.213, 456.805
1198.436, 201.105
1199.659, 413.662
1200.881, 526.906
1202.104, 399.756
1203.326, 392.463
1204.548, 385.111
1205.770, 417.523
1206.991, 529.971
1208.213, 523.389
1209.434, 485.713
1210.655, 648.777
1211.876, 281.037
1213.096, 693.484
1214.317, 365.953
1215.537, 548.123
1216.757, 550.395
1217.977, 252.521
1219.197, 544.602
1220.417, 326.650
1221.636, 438.668
1222.855, 710.650
1224.074, 264.381
1225.293, 596.301
1226.512, 448.186
1227.731, 371.307
1228.949, 653.135
1230.167, 515.307
1231.385, 297.070
1232.603, 788.799
1233.820, 61.291
1235.038, 563.252
1236.255, 474.875
1237.472, 208.033
1238.689, 449.916
1239.906, 441.471
1241.122, 183.580
1242.338, 505.090
1243.555, 401.430
1244.771, 342.898
1245.986, 494.344
1247.202, 305.768
1248.417, 397.168
1249.633, 348.543
1250.848, 466.891
1252.063, 367.492
1253.277, 318.848
1254.492, 210.566
1255.706, 331.824
1256.920, 340.896
1258.134, 532.055
1259.348, 433.166
1260.562, 183.355
1261.775, 425.012
1262.988, 476.078
1264.201, 347.953
1265.414, 508.854
1266.627, 210.717
1267.839, 431.805
1269.052, 392.527
1270.264, 293.600
1271.476, 484.328
1272.688, 314.871
1273.899, 235.484
1275.111, 396.141
1276.322, 182.639
1277.533, 191.100
1278.744, 661.299
1279.955, 68.623
1281.165, 1.664
1282.376, 511.260
1283.586, 211.090
1284.796, 291.086
1286.006, 110.828
1287.215, 13.105
1288.425, 53.086
1289.634, 142.666
1290.843, 12.291
1292.052, 191.482
1293.261, 70.641
1294.469, 400.654
1295.678, 36.598
1296.886, 44.146
1298.094, 435.074
1299.302, 7.502
1300.509, 331.580
1301.717, 50.668
1302.924, 23.613
1304.131, 75.205
1305.338, 293.654
1306.545, 57.566
1307.752, 180.568
1308.958, 248.742
1310.164, 127.334
1311.370, 215.805
1312.576, 16.182
1313.782, 82.248
1314.987, 310.543
1316.193, 161.121
1317.398, 207.078
1318.603, 34.748
1319.807, 263.350
1321.012, 211.146
1322.216, 80.877
1323.421, 366.861
1324.625, 114.691
1325.829, 282.459
1327.032, 140.182
1328.236, 102.389
1329.439, 14.912
1330.642, 172.486
1331.845, 169.840
1333.048, 257.141
1334.251, 304.352
1335.453, 308.322
1336.656, 368.625
1337.858, 395.684
1339.060, 202.695
1340.261, 379.652
1341.463, 96.562
1342.664, 83.418
1343.866, 409.945
1345.067, 206.701
1346.267, 293.406
1347.468, 320.061
1348.669, 326.666
1349.869, 503.223
1351.069, 359.736
1352.269, 146.199
1353.469, 512.609
1354.668, 188.973
1355.868, 565.293
1357.067, 321.586
1358.266, 307.824
1359.465, 724.023
1360.664, 341.639
1361.862, 367.766
1363.061, 703.742
1364.259, 389.895
1365.457, 535.924
1366.655, 691.926
1367.852, 77.902
1369.050, 643.684
1370.247, 589.510
1371.444, 112.736
1372.641, 602.965
1373.838, 278.986
1375.035, 384.609
1376.231, 489.701
1377.427, 174.566
1378.623, 287.604
1379.819, 416.605
1381.015, 95.021
1382.211, 293.254
1383.406, 602.105
1384.601, 230.930
1385.796, 599.559
1386.991, 408.297
1388.185, 386.898
1389.380, 644.881
1390.574, 433.479
1391.768, 511.285
1392.962, 539.805
1394.156, 398.232
1395.350, 555.938
1396.543, 363.955
1397.736, 272.008
1398.929, 469.613
1400.122, 496.012
1401.315, 373.881
1402.507, 516.775
1403.700, 433.336
1404.892, 214.988
1406.084, 288.480
1407.276, 159.904
1408.467, 515.344
1409.659, 140.039
1410.850, 271.402
1412.041, 475.564
1413.232, 243.180
1414.423, 299.486
1415.614, 454.588
1416.804, 308.908
1417.994, 276.240
1419.184, 552.508
1420.374, 81.166
1421.564, 323.338
1422.753, 445.938
1423.943, 169.314
1425.132, 427.668
1426.321, 294.180
1427.510, 197.486
1428.698, 481.896
1429.887, 2.879
1431.075, 191.199
1432.263, 571.143
1433.451, 205.047
1434.639, 309.078
1435.827, 483.666
1437.014, 116.627
1438.201, 640.098
1439.388, 314.457
1440.575, 268.656
1441.762, 382.990
1442.949, 527.533
1444.135, 442.020
1445.321, 463.107
1446.507, 395.896
1447.693, 419.064
1448.879, 642.881
1450.064, 494.412
1451.250, 774.844
1452.435, 347.592
1453.620, 479.557
1454.805, 282.506
1455.989, 455.250
1457.174, 597.783
1458.358, 660.092
1459.542, 251.051
1460.726, 682.889
1461.910, 624.748
1463.093, 344.949
1464.277, 563.469
1465.460, 552.393
1466.643, 443.145
1467.826, 673.336
1469.009, 1154.660
1470.191, 635.898
1471.373, 634.371
1472.556, 244.582
1473.738, 226.678
1474.919, 647.791
1476.101, 340.434
1477.283, 591.227
1478.464, 472.709
1479.645, 251.877
1480.826, 742.988
1482.007, 323.887
1483.187, 544.594
1484.368, 695.844
1485.548, 296.953
1486.728, 208.041
1487.908, 499.016
1489.088, 139.842
1490.268, 500.561
1491.447, 431.188
1492.626, 131.834
1493.805, 282.584
1494.984, 573.320
1496.163, 204.549
1497.341, 326.371
1498.520, 118.453
1499.698, 260.877
1500.876, 363.527
1502.054, 13.641
1503.232, 379.387
1504.409, 112.648
1505.586, 106.232
1506.763, 410.189
1507.940, 354.740
1509.117, 189.869
1510.294, 255.090
1511.470, 428.182
1512.647, 9.467
1513.823, 211.441
1514.999, 62.688
1516.174, 324.316
1517.350, 202.447
1518.526, 20.236
1519.701, 0.000
##END=



