##NAMES=Hemimorphite
##RRUFFID=R040117
##IDEAL CHEMISTRY=Zn^2+^_4_Si_2_O_7_(OH)_2_&#183;H_2_O
##LOCALITY=Durango, Mexico
##OWNER=RRUFF
##SOURCE=University of Arizona Mineral Museum
##DESCRIPTION=Colorless thin tabular crystals in a sheaflike aggregate
##STATUS=The identification of this mineral has been confirmed by X-ray diffraction and chemical analysis
##URL=rruff.info/R040117
##MEASURED CHEMISTRY=Zn_4.05_Si_1.97_O_7_((OH)_0.99_F_0.01_)_2_Â·H_2_O
##PIN_ID=L00527
##ORIENTATION=Laser parallel to b* (0 1 0). Fiducial mark perpendicular to laser is parallel to -c [0 0 -1]
87.101, 0.000
88.496, 127.388
89.890, 46.581
91.284, 147.114
92.678, 579.877
94.071, 889.033
95.465, 1437.793
96.858, 2027.172
98.251, 2814.912
99.644, 3773.154
101.036, 5229.840
102.428, 6603.778
103.820, 8492.162
105.212, 10901.899
106.604, 13280.746
107.995, 15917.064
109.387, 17839.904
110.777, 19208.717
112.168, 18902.674
113.559, 17530.902
114.949, 15277.400
116.339, 12707.297
117.729, 10522.063
119.119, 8657.012
120.508, 7652.157
121.897, 7247.516
123.286, 7413.097
124.675, 7918.898
126.063, 8494.925
127.452, 10121.185
128.840, 11588.340
130.228, 13857.291
131.615, 15578.580
133.003, 16702.553
134.390, 17027.623
135.777, 15962.261
137.164, 14266.459
138.550, 12000.293
139.937, 9863.846
141.323, 7976.881
142.709, 6472.253
144.094, 5460.850
145.480, 4564.677
146.865, 4167.771
148.250, 3793.068
149.635, 3658.590
151.019, 3554.338
152.403, 3760.316
153.788, 3936.522
155.171, 4132.955
156.555, 4859.600
157.939, 5366.426
159.322, 6453.402
160.705, 7590.525
162.088, 9297.791
163.470, 11305.193
164.853, 13232.729
166.235, 16440.387
167.617, 18748.334
168.998, 21264.939
170.380, 22705.795
171.761, 22836.180
173.142, 21415.957
174.523, 18297.604
175.904, 15192.918
177.284, 11905.129
178.664, 9410.330
180.044, 6845.774
181.424, 5114.195
182.803, 3859.036
184.183, 2684.184
185.562, 2079.629
186.940, 1458.365
188.319, 902.379
189.698, 587.662
191.076, 284.203
192.454, 199.398
193.831, 124.967
195.209, 152.244
196.586, 302.155
197.963, 329.601
199.340, 383.297
200.717, 484.830
202.093, 327.131
203.470, 349.241
204.846, 238.142
206.221, 16.861
207.597, 317.590
208.972, 618.219
210.347, 1047.043
211.722, 1875.026
213.097, 2504.194
214.472, 2863.524
215.846, 3163.094
217.220, 3332.784
218.594, 3172.609
219.967, 2772.596
221.341, 2712.672
222.714, 2162.871
224.087, 1903.047
225.460, 1643.015
226.832, 1387.623
228.204, 1184.908
229.577, 1014.048
230.948, 960.255
232.320, 731.531
233.692, 656.868
235.063, 543.088
236.434, 356.679
237.805, 396.128
239.175, 212.602
240.545, 248.098
241.916, 185.614
243.286, 95.150
244.655, 71.703
246.025, 85.271
247.394, 36.028
248.763, 52.553
250.132, 15.050
251.501, 43.388
252.869, 43.500
254.237, 45.539
255.605, 146.272
256.973, 86.478
258.340, 205.094
259.708, 203.459
261.075, 110.809
262.442, 189.945
263.808, 163.266
265.175, 214.290
266.541, 206.995
267.907, 201.289
269.273, 250.246
270.639, 137.930
272.004, 2.641
273.369, 57.466
274.734, 21.527
276.099, 237.778
277.463, 271.203
278.828, 517.779
280.192, 429.469
281.556, 355.211
282.919, 437.981
284.283, 425.778
285.646, 272.600
287.009, 322.441
288.372, 158.303
289.734, 173.179
291.097, 166.068
292.459, 213.970
293.821, 221.879
295.183, 115.787
296.544, 163.682
297.905, 19.549
299.266, 60.362
300.627, 66.135
301.988, 119.862
303.348, 10.555
304.709, 9.804
306.069, 11.585
307.428, 28.707
308.788, 113.894
310.147, 187.792
311.507, 298.940
312.865, 323.597
314.224, 299.697
315.583, 435.296
316.941, 492.174
318.299, 672.186
319.657, 882.738
321.015, 1228.199
322.372, 1772.584
323.729, 2456.552
325.086, 3600.250
326.443, 5233.551
327.800, 7068.227
329.156, 9052.323
330.512, 10678.585
331.868, 11432.878
333.224, 10846.620
334.579, 9470.763
335.935, 7686.769
337.290, 6411.766
338.645, 5214.588
339.999, 4272.446
341.354, 3653.465
342.708, 2987.341
344.062, 2730.357
345.416, 2523.727
346.769, 2267.285
348.123, 2183.537
349.476, 1999.669
350.829, 1993.423
352.182, 1875.302
353.534, 1857.917
354.887, 1883.653
356.239, 1707.577
357.591, 1872.555
358.942, 1777.919
360.294, 1834.517
361.645, 1872.168
362.996, 1833.873
364.347, 1765.232
365.698, 1895.240
367.048, 2039.583
368.398, 2009.461
369.748, 2129.816
371.098, 2191.428
372.448, 2352.992
373.797, 2441.864
375.146, 2435.547
376.495, 2706.282
377.844, 2816.819
379.192, 3047.436
380.540, 3247.878
381.889, 3370.770
383.236, 3607.409
384.584, 3736.316
385.932, 3945.729
387.279, 4325.109
388.626, 4364.455
389.973, 4833.771
391.319, 5053.055
392.666, 5302.311
394.012, 5551.535
395.358, 5900.728
396.704, 6109.891
398.049, 6291.121
399.394, 6438.117
400.740, 6527.186
402.084, 6566.217
403.429, 6575.216
404.774, 6504.182
406.118, 6483.114
407.462, 6002.012
408.806, 5870.875
410.150, 5489.624
411.493, 4934.684
412.836, 4732.837
414.179, 4278.262
415.522, 4053.690
416.865, 3519.031
418.207, 3119.895
419.549, 2873.145
420.891, 2470.896
422.233, 2418.118
423.575, 2000.069
424.916, 1967.732
426.257, 1666.890
427.598, 1442.680
428.939, 1330.074
430.279, 1181.050
431.619, 1104.869
432.959, 1049.533
434.299, 848.941
435.639, 908.604
436.978, 740.984
438.318, 767.444
439.657, 682.078
440.996, 700.535
442.334, 707.845
443.673, 800.120
445.011, 761.606
446.349, 858.654
447.687, 1009.650
449.024, 1156.339
450.361, 1136.418
451.699, 1430.833
453.036, 1281.049
454.372, 1309.440
455.709, 1231.187
457.045, 906.437
458.381, 770.926
459.717, 639.268
461.053, 508.320
462.388, 421.401
463.724, 398.614
465.059, 262.576
466.394, 224.032
467.728, 146.298
469.063, 43.562
470.397, 36.653
471.731, 1.713
473.065, 9.675
474.398, 24.718
475.732, 8.551
477.065, 77.051
478.398, 71.520
479.731, 7.740
481.063, 13.934
482.396, 55.013
483.728, 31.132
485.060, 41.872
486.391, 59.404
487.723, 6.749
489.054, 25.471
490.385, 20.707
491.716, 17.846
493.047, 36.328
494.377, 17.737
495.708, 21.932
497.038, 8.695
498.368, 53.453
499.697, 60.466
501.027, 114.489
502.356, 4.654
503.685, 14.098
505.014, 1.777
506.342, 2.618
507.671, 46.095
508.999, 44.673
510.327, 7.353
511.655, 58.886
512.982, 24.067
514.310, 40.817
515.637, 9.205
516.964, 54.154
518.291, 24.914
519.617, 68.963
520.944, 30.844
522.270, 82.730
523.596, 67.648
524.921, 58.615
526.247, 27.596
527.572, 31.591
528.897, 31.563
530.222, 42.504
531.547, 43.535
532.871, 61.037
534.196, 53.992
535.520, 87.704
536.844, 101.357
538.167, 92.952
539.491, 104.488
540.814, 239.973
542.137, 303.406
543.460, 284.793
544.783, 510.131
546.105, 561.419
547.427, 833.658
548.749, 1098.850
550.071, 1314.993
551.393, 1698.090
552.714, 2091.135
554.035, 2414.133
555.356, 2483.692
556.677, 2669.984
557.998, 2332.838
559.318, 2065.643
560.638, 1618.399
561.958, 1381.108
563.278, 963.770
564.597, 983.383
565.917, 758.948
567.236, 502.467
568.555, 628.938
569.874, 492.360
571.192, 457.758
572.511, 372.888
573.829, 335.212
575.147, 321.507
576.464, 138.125
577.782, 294.376
579.099, 118.606
580.416, 179.837
581.733, 173.022
583.050, 172.238
584.366, 143.456
585.683, 211.725
586.999, 140.945
588.315, 250.644
589.630, 116.876
590.946, 122.193
592.261, 1.433
593.576, 29.384
594.891, 103.890
596.206, 69.954
597.520, 145.959
598.834, 60.914
600.148, 67.867
601.462, 65.707
602.776, 44.489
604.089, 74.106
605.402, 73.078
606.715, 92.689
608.028, 156.248
609.341, 108.759
610.653, 125.229
611.965, 96.638
613.277, 61.996
614.589, 35.298
615.901, 62.548
617.212, 164.744
618.523, 45.916
619.834, 164.045
621.145, 150.142
622.456, 62.199
623.766, 233.229
625.076, 92.247
626.386, 194.041
627.696, 193.145
629.006, 158.055
630.315, 193.497
631.624, 84.394
632.933, 165.806
634.242, 175.007
635.551, 52.562
636.859, 121.228
638.167, 115.020
639.475, 259.854
640.783, 233.726
642.090, 156.459
643.398, 142.361
644.705, 104.569
646.012, 217.965
647.318, 169.438
648.625, 256.152
649.931, 289.885
651.237, 248.969
652.543, 236.532
653.849, 345.235
655.155, 285.593
656.460, 435.205
657.765, 428.925
659.070, 512.593
660.375, 539.143
661.679, 686.419
662.984, 873.913
664.288, 820.559
665.592, 1144.476
666.895, 1268.592
668.199, 1635.102
669.502, 2124.724
670.805, 2533.188
672.108, 2839.029
673.411, 3476.033
674.713, 3808.529
676.016, 3973.776
677.318, 3812.000
678.620, 3599.467
679.921, 3089.017
681.223, 2597.150
682.524, 2195.589
683.825, 1832.906
685.126, 1670.549
686.427, 1339.394
687.727, 1243.195
689.028, 920.749
690.328, 761.851
691.628, 699.539
692.927, 567.765
694.227, 606.132
695.526, 474.368
696.825, 393.552
698.124, 432.779
699.423, 351.983
700.721, 351.162
702.020, 290.317
703.318, 289.448
704.616, 260.546
705.913, 197.640
707.211, 216.699
708.508, 191.127
709.805, 181.062
711.102, 193.744
712.399, 162.714
713.695, 175.112
714.992, 140.588
716.288, 199.493
717.584, 188.377
718.879, 167.239
720.175, 146.081
721.470, 214.902
722.765, 133.703
724.060, 152.483
725.355, 181.245
726.649, 139.986
727.944, 41.291
729.238, 117.386
730.532, 136.044
731.825, 35.315
733.119, 102.738
734.412, 191.319
735.705, 229.176
736.998, 12.509
738.291, 115.746
739.584, 103.979
740.876, 71.958
742.168, 100.316
743.460, 1.760
744.752, 146.664
746.043, 64.346
747.334, 212.053
748.626, 128.027
749.916, 32.545
751.207, 100.043
752.498, 77.104
753.788, 144.920
755.078, 51.841
756.368, 118.835
757.658, 105.791
758.947, 12.464
760.237, 109.501
761.526, 86.516
762.815, 163.768
764.104, 171.554
765.392, 48.931
766.680, 206.433
767.969, 83.687
769.257, 120.512
770.544, 176.979
771.832, 183.799
773.119, 111.546
774.406, 98.148
775.693, 135.870
776.980, 203.507
778.267, 120.300
779.553, 118.279
780.839, 75.408
782.125, 133.204
783.411, 51.001
784.697, 58.658
785.982, 96.482
787.267, 63.639
788.552, 28.619
789.837, 139.168
791.122, 3.980
792.406, 83.530
793.690, 61.037
794.974, 39.066
796.258, 32.899
797.542, 8.518
798.825, 7.430
800.108, 30.045
801.391, 11.906
802.674, 35.968
803.957, 45.970
805.239, 12.078
806.522, 10.131
807.804, 1.812
809.085, 56.259
810.367, 5.658
811.649, 37.576
812.930, 50.517
814.211, 38.662
815.492, 56.817
816.772, 15.018
818.053, 53.150
819.333, 61.327
820.613, 0.472
821.893, 2.250
823.173, 34.019
824.452, 25.796
825.732, 37.575
827.011, 70.651
828.290, 91.112
829.568, 107.088
830.847, 55.307
832.125, 53.529
833.403, 28.240
834.681, 79.981
835.959, 11.791
837.236, 6.436
838.514, 5.328
839.791, 87.088
841.068, 78.875
842.345, 119.312
843.621, 72.492
844.898, 215.681
846.174, 43.860
847.450, 182.045
848.726, 160.238
850.001, 21.562
851.277, 56.635
852.552, 194.833
853.827, 223.030
855.102, 161.230
856.376, 269.431
857.651, 247.633
858.925, 285.838
860.199, 314.043
861.473, 222.252
862.746, 230.464
864.020, 408.676
865.293, 386.896
866.566, 165.117
867.839, 343.342
869.112, 331.571
870.384, 399.805
871.656, 408.043
872.928, 356.285
874.200, 484.532
875.472, 432.785
876.744, 261.043
878.015, 579.306
879.286, 357.572
880.557, 455.845
881.828, 391.349
883.098, 579.632
884.369, 497.921
885.639, 503.863
886.909, 722.168
888.178, 680.479
889.448, 648.798
890.717, 776.174
891.987, 704.511
893.256, 792.855
894.524, 821.149
895.793, 749.957
897.061, 1027.855
898.330, 1026.235
899.598, 1124.559
900.865, 1072.960
902.133, 1271.382
903.401, 1479.662
904.668, 1378.121
905.935, 1536.593
907.202, 1635.077
908.468, 1773.518
909.735, 2052.031
911.001, 2130.560
912.267, 2448.905
913.533, 2707.464
914.799, 3006.035
916.064, 3494.621
917.330, 3783.219
918.595, 4661.817
919.860, 5510.441
921.124, 6499.078
922.389, 8297.729
923.653, 10146.399
924.918, 12495.084
926.182, 16213.777
927.445, 19262.492
928.709, 24591.213
929.972, 29419.949
931.236, 34408.707
932.499, 37317.473
933.761, 36106.250
935.024, 32085.029
936.286, 26523.834
937.549, 20572.648
938.811, 16231.475
940.073, 12650.314
941.334, 9977.839
942.596, 8426.705
943.857, 6465.295
945.118, 5396.476
946.379, 4685.384
947.640, 3835.244
948.900, 3532.680
950.161, 2841.186
951.421, 2439.748
952.681, 2364.760
953.940, 1993.188
955.200, 1912.176
956.459, 1655.703
957.719, 1440.093
958.978, 1327.103
960.236, 1055.978
961.495, 1165.021
962.753, 1033.792
964.012, 801.211
965.270, 882.870
966.527, 671.956
967.785, 701.053
969.043, 809.533
970.300, 608.649
971.557, 677.775
972.814, 706.802
974.071, 605.785
975.327, 573.501
976.583, 651.608
977.840, 659.189
979.095, 418.379
980.351, 673.092
981.607, 532.303
982.862, 481.526
984.117, 580.760
985.372, 338.865
986.627, 428.136
987.882, 486.935
989.136, 396.226
990.390, 345.264
991.644, 320.476
992.898, 306.168
994.152, 285.509
995.405, 341.598
996.659, 320.964
997.912, 470.389
999.165, 220.929
1000.417, 430.379
1001.670, 359.170
1002.922, 358.649
1004.174, 338.157
1005.426, 347.673
1006.678, 277.243
1007.930, 366.824
1009.181, 156.447
1010.432, 356.121
1011.683, 245.938
1012.934, 155.639
1014.185, 405.395
1015.435, 95.549
1016.685, 255.334
1017.935, 195.146
1019.185, 245.122
1020.435, 374.982
1021.684, 175.131
1022.934, 175.028
1024.183, 354.943
1025.432, 185.187
1026.680, 285.128
1027.929, 305.081
1029.177, 145.047
1030.425, 335.080
1031.673, 25.094
1032.921, 185.133
1034.169, 155.187
1035.416, 145.250
1036.663, 235.364
1037.911, 215.496
1039.157, 175.664
1040.404, 245.843
1041.650, 36.034
1042.897, 186.243
1044.143, 306.483
1045.389, 23.269
1046.634, 326.983
1047.880, 187.248
1049.125, 307.521
1050.371, 247.804
1051.615, 78.094
1052.860, 238.392
1054.105, 288.698
1055.349, 129.013
1056.593, 259.334
1057.837, 89.664
1059.081, 99.998
1060.325, 200.342
1061.568, 120.691
1062.812, 164.688
1064.055, 21.410
1065.298, 101.777
1066.540, 192.149
1067.783, 32.527
1069.025, 202.911
1070.267, 253.299
1071.509, 63.691
1072.751, 264.089
1073.993, 64.490
1075.234, 104.895
1076.475, 145.304
1077.716, 95.723
1078.957, 166.145
1080.198, 96.569
1081.438, 117.003
1082.679, 187.440
1083.919, 67.882
1085.159, 218.328
1086.398, 118.776
1087.638, 39.943
1088.877, 190.402
1090.116, 40.862
1091.355, 31.509
1092.594, 191.983
1093.833, 67.539
1095.071, 162.919
1096.309, 36.620
1097.547, 33.831
1098.785, 94.292
1100.023, 124.756
1101.260, 134.776
1102.498, 145.638
1103.735, 16.056
1104.972, 56.631
1106.208, 197.060
1107.445, 7.488
1108.681, 148.230
1109.918, 58.661
1111.154, 149.465
1112.389, 289.896
1113.625, 69.663
1114.860, 30.990
1116.096, 91.404
1117.331, 21.818
1118.566, 132.232
1119.800, 112.646
1121.035, 153.877
1122.269, 294.289
1123.503, 294.699
1124.737, 325.271
1125.971, 245.688
1127.205, 296.123
1128.438, 216.859
1129.671, 200.611
1130.904, 198.185
1132.137, 159.103
1133.370, 181.692
1134.602, 170.422
1135.834, 214.309
1137.066, 184.740
1138.298, 185.881
1139.530, 227.641
1140.762, 217.676
1141.993, 248.834
1143.224, 110.180
1144.455, 100.859
1145.686, 162.497
1146.917, 26.938
1148.147, 314.788
1149.377, 5.203
1150.607, 67.534
1151.837, 181.927
1153.067, 92.317
1154.296, 182.718
1155.526, 113.184
1156.755, 81.448
1157.984, 321.159
1159.213, 52.424
1160.441, 313.622
1161.670, 134.558
1162.898, 5.899
1164.126, 207.777
1165.354, 151.816
1166.581, 76.063
1167.809, 269.318
1169.036, 52.254
1170.263, 194.233
1171.490, 216.115
1172.717, 47.155
1173.943, 238.427
1175.170, 179.500
1176.396, 170.158
1177.622, 126.439
1178.848, 167.723
1180.073, 358.914
1181.299, 220.471
1182.524, 340.918
1183.749, 388.390
1184.974, 260.789
1186.199, 236.873
1187.423, 347.897
1188.648, 277.961
1189.872, 320.187
1191.096, 325.413
1192.320, 245.472
1193.543, 515.249
1194.767, 225.923
1195.990, 335.971
1197.213, 346.353
1198.436, 236.395
1199.659, 496.184
1200.881, 416.471
1202.104, 286.825
1203.326, 396.539
1204.548, 356.649
1205.770, 456.319
1206.991, 456.572
1208.213, 356.587
1209.434, 346.190
1210.655, 465.862
1211.876, 245.488
1213.096, 475.193
1214.317, 314.979
1215.537, 474.467
1216.757, 393.931
1217.977, 283.787
1219.197, 523.203
1220.417, 302.596
1221.636, 401.964
1222.855, 561.308
1224.074, 452.222
1225.293, 431.518
1226.512, 390.789
1227.731, 261.342
1228.949, 520.564
1230.167, 450.396
1231.385, 289.955
1232.603, 539.108
1233.820, 69.323
1235.038, 588.784
1236.255, 337.856
1237.472, 187.950
1238.689, 306.980
1239.906, 315.996
1241.122, 373.038
1242.338, 482.025
1243.555, 320.057
1244.771, 249.014
1245.986, 357.955
1247.202, 237.120
1248.417, 340.070
1249.633, 318.964
1250.848, 197.962
1252.063, 376.823
1253.277, 345.664
1254.492, 164.664
1255.706, 283.473
1256.920, 152.263
1258.134, 361.092
1259.348, 329.824
1260.562, 185.955
1261.775, 364.645
1262.988, 383.312
1264.201, 401.954
1265.414, 330.520
1266.627, 79.112
1267.839, 307.598
1269.052, 386.009
1270.264, 214.448
1271.476, 362.718
1272.688, 250.900
1273.899, 179.063
1275.111, 237.439
1276.322, 165.458
1277.533, 147.535
1278.744, 425.736
1279.955, 6.362
1281.165, 191.528
1282.376, 269.302
1283.586, 107.000
1284.796, 184.703
1286.006, 122.281
1287.215, 113.825
1288.425, 91.288
1289.634, 218.713
1290.843, 123.899
1292.052, 243.409
1293.261, 59.578
1294.469, 326.813
1295.678, 33.853
1296.886, 8.988
1298.094, 308.212
1299.302, 104.712
1300.509, 252.287
1301.717, 70.745
1302.924, 93.842
1304.131, 92.977
1305.338, 99.619
1306.545, 113.650
1307.752, 83.000
1308.958, 49.216
1310.164, 4.232
1311.370, 7.732
1312.576, 8.575
1313.782, 14.974
1314.987, 42.874
1316.193, 46.285
1317.398, 103.609
1318.603, 79.507
1319.807, 95.674
1321.012, 151.797
1322.216, 42.124
1323.421, 73.854
1324.625, 79.818
1325.829, 55.739
1327.032, 181.613
1328.236, 62.554
1329.439, 23.209
1330.642, 41.130
1331.845, 84.468
1333.048, 250.024
1334.251, 25.545
1335.453, 29.033
1336.656, 236.331
1337.858, 191.658
1339.060, 106.951
1340.261, 222.203
1341.463, 137.419
1342.664, 212.596
1343.866, 267.734
1345.067, 142.838
1346.267, 127.902
1347.468, 272.930
1348.669, 167.920
1349.869, 322.872
1351.069, 127.789
1352.269, 172.667
1353.469, 357.510
1354.668, 242.318
1355.868, 247.090
1357.067, 221.832
1358.266, 196.541
1359.465, 331.222
1360.664, 365.875
1361.862, 160.502
1363.061, 405.102
1364.259, 259.678
1365.457, 294.230
1366.655, 508.765
1367.852, 43.278
1369.050, 297.771
1370.247, 442.250
1371.444, 56.721
1372.641, 451.180
1373.838, 116.492
1375.035, 160.951
1376.231, 475.420
1377.427, 69.908
1378.623, 163.529
1379.819, 767.788
1381.015, 72.007
1382.211, 288.799
1383.406, 405.737
1384.601, 172.651
1385.796, 439.532
1386.991, 256.398
1388.185, 323.092
1389.380, 409.908
1390.574, 196.353
1391.768, 232.683
1392.962, 449.125
1394.156, 225.801
1395.350, 332.435
1396.543, 328.114
1397.736, 214.486
1398.929, 330.982
1400.122, 257.000
1401.315, 242.418
1402.507, 464.543
1403.700, 290.461
1404.892, 255.438
1406.084, 360.036
1407.276, 324.783
1408.467, 366.850
1409.659, 231.127
1410.850, 359.512
1412.041, 302.457
1413.232, 197.709
1414.423, 309.713
1415.614, 289.797
1416.804, 191.342
1417.994, 115.855
1419.184, 392.881
1420.374, 37.178
1421.564, 114.697
1422.753, 427.197
1423.943, 151.172
1425.132, 391.732
1426.321, 274.479
1427.510, 125.957
1428.698, 358.078
1429.887, 49.695
1431.075, 183.131
1432.263, 455.066
1433.451, 167.254
1434.639, 319.783
1435.827, 332.107
1437.014, 144.689
1438.201, 336.236
1439.388, 199.217
1440.575, 101.887
1441.762, 344.432
1442.949, 346.664
1444.135, 239.566
1445.321, 302.412
1446.507, 222.248
1447.693, 372.477
1448.879, 393.850
1450.064, 235.590
1451.250, 575.131
1452.435, 185.322
1453.620, 267.443
1454.805, 378.713
1455.989, 250.471
1457.174, 281.531
1458.358, 422.721
1459.542, 103.627
1460.726, 474.211
1461.910, 414.969
1463.093, 235.416
1464.277, 445.838
1465.460, 466.076
1466.643, 296.264
1467.826, 496.660
1469.009, 347.102
1470.191, 338.068
1471.373, 488.453
1472.556, 227.426
1473.738, 338.223
1474.919, 539.434
1476.101, 210.723
1477.283, 499.941
1478.464, 361.352
1479.645, 322.699
1480.826, 633.992
1482.007, 214.881
1483.187, 375.998
1484.368, 467.006
1485.548, 68.031
1486.728, 149.037
1487.908, 440.090
1489.088, 181.109
1490.268, 402.088
1491.447, 323.049
1492.626, 104.021
1493.805, 375.023
1494.984, 236.078
1496.163, 107.184
1497.341, 258.314
1498.520, 280.070
1499.698, 61.873
1500.876, 184.385
1502.054, 117.002
1503.232, 249.787
1504.409, 92.766
1505.586, 35.984
1506.763, 179.492
1507.940, 73.359
1509.117, 147.672
1510.294, 162.531
1511.470, 257.988
1512.647, 14.068
1513.823, 200.881
1514.999, 11.395
1516.174, 317.463
1517.350, 347.703
1518.526, 59.697
1519.701, 333.125
1520.876, 203.162
1522.051, 0.000
##END=



