##NAMES=Hemimorphite
##RRUFFID=R040117
##IDEAL CHEMISTRY=Zn^2+^_4_Si_2_O_7_(OH)_2_&#183;H_2_O
##LOCALITY=Durango, Mexico
##OWNER=RRUFF
##SOURCE=University of Arizona Mineral Museum
##DESCRIPTION=Colorless thin tabular crystals in a sheaflike aggregate
##STATUS=The identification of this mineral has been confirmed by X-ray diffraction and chemical analysis
##URL=rruff.info/R040117
##MEASURED CHEMISTRY=Zn_4.05_Si_1.97_O_7_((OH)_0.99_F_0.01_)_2_Â·H_2_O
##PIN_ID=L00228
##ORIENTATION=Laser parallel to c* (0 0 1). Fiducial mark perpendicular to laser is parallel to -a [-1 0 0]
67.554, 0.000
68.952, 153.612
70.349, 56.378
71.747, 92.504
73.144, 1.212
74.540, 74.867
75.937, 165.564
77.333, 263.585
78.729, 359.155
80.125, 508.634
81.521, 861.817
82.916, 1327.759
84.311, 1713.600
85.706, 1920.591
87.101, 2212.101
88.496, 2529.597
89.890, 2850.621
91.284, 3432.778
92.678, 3818.871
94.071, 4167.981
95.465, 4599.865
96.858, 5344.165
98.251, 5850.586
99.644, 6808.882
101.036, 7478.855
102.428, 8650.341
103.820, 9773.199
105.212, 11337.314
106.604, 13542.576
107.995, 15098.902
109.387, 16766.209
110.777, 17414.402
112.168, 17433.381
113.559, 16373.085
114.949, 14843.477
116.339, 13225.313
117.729, 11459.887
119.119, 10497.104
120.508, 9695.451
121.897, 9374.089
123.286, 9762.787
124.675, 9871.561
126.063, 10940.428
127.452, 11719.395
128.840, 12898.475
130.228, 13877.674
131.615, 14817.003
133.003, 15796.476
134.390, 16196.106
135.777, 16425.906
137.164, 15005.885
138.550, 13696.039
139.937, 11926.367
141.323, 9976.859
142.709, 8407.522
144.094, 7208.348
145.480, 6629.331
146.865, 5770.472
148.250, 5561.770
149.635, 5223.227
151.019, 5104.779
152.403, 5216.208
153.788, 5227.513
155.171, 5608.710
156.555, 5669.906
157.939, 6301.134
159.322, 6692.414
160.705, 7533.770
162.088, 8635.883
163.470, 9428.240
164.853, 10957.994
166.235, 12165.438
167.617, 13847.212
168.998, 14570.751
170.380, 14927.979
171.761, 14594.168
173.142, 13352.636
174.523, 11845.280
175.904, 9685.150
177.284, 7935.208
178.664, 6195.438
180.044, 4865.845
181.424, 3946.422
182.803, 2927.167
184.183, 2308.076
185.562, 1809.147
186.940, 1515.375
188.319, 1196.760
189.698, 816.297
191.076, 908.983
192.454, 624.855
193.831, 612.916
195.209, 409.162
196.586, 459.698
197.963, 363.455
199.340, 283.458
200.717, 316.697
202.093, 288.217
203.470, 431.914
204.846, 406.756
206.221, 618.733
207.597, 915.803
208.972, 1114.948
210.347, 1365.167
211.722, 1722.459
213.097, 2115.821
214.472, 2183.254
215.846, 2297.755
217.220, 2402.323
218.594, 2116.957
219.967, 2101.654
221.341, 1751.416
222.714, 1704.239
224.087, 1474.145
225.460, 1334.171
226.832, 1208.303
228.204, 1108.549
229.577, 1084.897
230.948, 851.375
232.320, 753.948
233.692, 722.504
235.063, 485.117
236.434, 505.720
237.805, 420.120
239.175, 402.726
240.545, 358.233
241.916, 409.060
243.286, 293.407
244.655, 218.222
246.025, 206.459
247.394, 125.081
248.763, 120.054
250.132, 100.348
251.501, 99.937
252.869, 56.800
254.237, 9.084
255.605, 0.736
256.973, 85.169
258.340, 123.410
259.708, 226.480
261.075, 227.412
262.442, 241.217
263.808, 312.910
265.175, 447.515
266.541, 284.069
267.907, 345.547
269.273, 297.966
270.639, 235.325
272.004, 204.616
273.369, 201.839
274.734, 77.999
276.099, 151.076
277.463, 11.911
278.828, 62.983
280.192, 53.860
281.556, 52.363
282.919, 106.650
284.283, 36.990
285.646, 61.377
287.009, 94.809
288.372, 179.286
289.734, 186.819
291.097, 320.400
292.459, 425.046
293.821, 440.734
295.183, 529.469
296.544, 1076.270
297.905, 1066.683
299.266, 1174.254
300.627, 1253.453
301.988, 1246.953
303.348, 1437.002
304.709, 1474.089
306.069, 1692.223
307.428, 1802.395
308.788, 1819.606
310.147, 1866.855
311.507, 1874.139
312.865, 1719.467
314.224, 1800.223
315.583, 1644.599
316.941, 1692.060
318.299, 1535.517
319.657, 1532.005
321.015, 1509.994
322.372, 1572.373
323.729, 1710.577
325.086, 1699.146
326.443, 2039.849
327.800, 2424.611
329.156, 2965.150
330.512, 3530.044
331.868, 3911.638
333.224, 4729.010
334.579, 4794.198
335.935, 4901.102
337.290, 4746.332
338.645, 4163.523
339.999, 3772.299
341.354, 3292.312
342.708, 2650.824
344.062, 2388.155
345.416, 2085.127
346.769, 1872.121
348.123, 1662.136
349.476, 1627.174
350.829, 1412.230
352.182, 1289.307
353.534, 1374.402
354.887, 1257.515
356.239, 1283.644
357.591, 1274.787
358.942, 1345.946
360.294, 1263.118
361.645, 1317.303
362.996, 1309.498
364.347, 1323.701
365.698, 1386.913
367.048, 1350.133
368.398, 1545.357
369.748, 1547.588
371.098, 1631.823
372.448, 1878.063
373.797, 1815.376
375.146, 2032.724
376.495, 2030.848
377.844, 2220.753
379.192, 2330.567
380.540, 2413.202
381.889, 2811.996
383.236, 2861.277
384.584, 3101.496
385.932, 3333.688
387.279, 3573.115
388.626, 3902.267
389.973, 4045.939
391.319, 4526.245
392.666, 4723.941
394.012, 5038.238
395.358, 5326.703
396.704, 5600.791
398.049, 5898.066
399.394, 5955.375
400.740, 6223.268
402.084, 6480.631
403.429, 6248.027
404.774, 6355.438
406.118, 6062.859
407.462, 5970.293
408.806, 5687.734
410.150, 5265.180
411.493, 5002.631
412.836, 4390.083
414.179, 4227.537
415.522, 3694.988
416.865, 3332.182
418.207, 3279.501
419.549, 2714.519
420.891, 2658.085
422.233, 2157.229
423.575, 2106.260
424.916, 1824.581
426.257, 1749.402
427.598, 1461.190
428.939, 1357.285
430.279, 1236.207
431.619, 1089.432
432.959, 980.586
434.299, 957.088
435.639, 879.646
436.978, 871.333
438.318, 897.022
439.657, 886.361
440.996, 907.657
442.334, 798.045
443.673, 1020.458
445.011, 1036.947
446.349, 1142.322
447.687, 1272.727
449.024, 1532.396
450.361, 1872.325
451.699, 2160.685
453.036, 2303.010
454.372, 2570.719
455.709, 2798.970
457.045, 2682.273
458.381, 2380.400
459.717, 2110.810
461.053, 1581.494
462.388, 1258.774
463.724, 875.250
465.059, 638.068
466.394, 624.498
467.728, 406.891
469.063, 287.916
470.397, 144.382
471.731, 119.600
473.065, 134.208
474.398, 14.170
475.732, 11.137
477.065, 66.366
478.398, 25.597
479.731, 74.774
481.063, 15.282
482.396, 115.476
483.728, 15.872
485.060, 20.493
486.391, 21.521
487.723, 70.027
489.054, 3.688
490.385, 74.596
491.716, 24.583
493.047, 118.615
494.377, 84.788
495.708, 80.939
497.038, 85.362
498.368, 67.240
499.697, 21.811
501.027, 0.334
502.356, 30.818
503.685, 71.261
505.014, 169.669
506.342, 202.061
507.671, 212.443
508.999, 270.807
510.327, 256.140
511.655, 445.461
512.982, 469.752
514.310, 568.016
515.637, 736.252
516.964, 881.458
518.291, 1079.646
519.617, 903.806
520.944, 1020.935
522.270, 1009.040
523.596, 803.114
524.921, 740.155
526.247, 578.186
527.572, 532.225
528.897, 471.239
530.222, 191.227
531.547, 324.182
532.871, 138.134
534.196, 133.052
535.520, 80.943
536.844, 22.793
538.167, 25.583
539.491, 23.686
540.814, 57.964
542.137, 42.563
543.460, 18.108
544.783, 15.407
546.105, 39.997
547.427, 49.346
548.749, 38.358
550.071, 17.844
551.393, 118.983
552.714, 47.918
554.035, 78.082
555.356, 43.966
556.677, 203.891
557.998, 344.710
559.318, 118.491
560.638, 331.231
561.958, 202.934
563.278, 218.599
564.597, 326.225
565.917, 269.812
567.236, 480.363
568.555, 374.874
569.874, 665.348
571.192, 712.781
572.511, 714.176
573.829, 995.531
575.147, 1109.848
576.464, 1423.128
577.782, 1566.370
579.099, 1709.822
580.416, 1853.018
581.733, 1776.404
583.050, 1769.624
584.366, 1742.886
585.683, 1546.123
586.999, 1269.448
588.315, 1062.951
589.630, 992.242
590.946, 738.546
592.261, 752.023
593.576, 533.396
594.891, 452.973
596.206, 485.357
597.520, 235.611
598.834, 329.193
600.148, 279.525
601.462, 216.870
602.776, 197.494
604.089, 222.551
605.402, 213.730
606.715, 164.909
608.028, 40.836
609.341, 109.698
610.653, 11.362
611.965, 156.359
613.277, 115.034
614.589, 27.343
615.901, 121.186
617.212, 24.662
618.523, 17.150
619.834, 61.482
621.145, 0.752
622.456, 138.941
623.766, 22.083
625.076, 99.150
626.386, 68.197
627.696, 93.150
629.006, 106.050
630.315, 14.896
631.624, 118.667
632.933, 76.257
634.242, 141.937
635.551, 190.515
636.859, 79.319
638.167, 187.952
639.475, 53.950
640.783, 215.788
642.090, 282.207
643.398, 136.573
644.705, 195.961
646.012, 204.305
647.318, 256.460
648.625, 270.823
649.931, 233.616
651.237, 327.675
652.543, 270.586
653.849, 342.574
655.155, 440.268
656.460, 377.939
657.765, 546.108
659.070, 470.420
660.375, 570.838
661.679, 611.256
662.984, 725.008
664.288, 860.087
665.592, 902.729
666.895, 1113.389
668.199, 1248.062
669.502, 1468.718
670.805, 2059.586
672.108, 2060.927
673.411, 2671.485
674.713, 2904.670
676.016, 3045.730
677.318, 3776.193
678.620, 4278.396
679.921, 5168.703
681.223, 6128.976
682.524, 6453.916
683.825, 7583.961
685.126, 7776.010
686.427, 7797.121
687.727, 7647.218
689.028, 6644.492
690.328, 6264.447
691.628, 5216.266
692.927, 4545.346
694.227, 4012.611
695.526, 3249.934
696.825, 2884.403
698.124, 2522.676
699.423, 2260.432
700.721, 2057.213
702.020, 1571.987
703.318, 1519.490
704.616, 1297.235
705.913, 1140.422
707.211, 1136.938
708.508, 886.028
709.805, 1058.480
711.102, 896.727
712.399, 659.344
713.695, 798.770
714.992, 598.165
716.288, 616.975
717.584, 476.312
718.879, 525.615
720.175, 564.895
721.470, 354.143
722.765, 413.363
724.060, 312.555
725.355, 381.718
726.649, 420.852
727.944, 269.958
729.238, 299.036
730.532, 278.087
731.825, 307.109
733.119, 226.104
734.412, 125.073
735.705, 354.012
736.998, 132.924
738.291, 171.807
739.584, 160.662
740.876, 169.491
742.168, 158.293
743.460, 117.064
744.752, 245.808
746.043, 214.524
747.334, 23.214
748.626, 151.865
749.916, 100.488
751.207, 139.081
752.498, 167.646
753.788, 76.138
755.078, 124.646
756.368, 113.126
757.658, 51.434
758.947, 199.621
760.237, 117.884
761.526, 106.075
762.815, 163.956
764.104, 179.539
765.392, 117.948
766.680, 219.990
767.969, 285.935
769.257, 312.778
770.544, 236.513
771.832, 323.644
773.119, 108.449
774.406, 172.936
775.693, 168.784
776.980, 192.392
778.267, 179.614
779.553, 154.182
780.839, 100.744
782.125, 106.629
783.411, 173.029
784.697, 129.635
785.982, 123.805
787.267, 30.577
788.552, 96.564
789.837, 153.683
791.122, 31.222
792.406, 57.369
793.690, 154.897
794.974, 20.501
796.258, 81.780
797.542, 116.084
798.825, 33.295
800.108, 10.918
801.391, 88.622
802.674, 53.483
803.957, 44.395
805.239, 2.254
806.522, 30.165
807.804, 58.097
809.085, 13.984
810.367, 43.946
811.649, 21.865
812.930, 70.221
814.211, 17.654
815.492, 125.523
816.772, 46.616
818.053, 68.799
819.333, 31.031
820.613, 126.707
821.893, 65.567
823.173, 32.110
824.452, 0.224
825.732, 12.573
827.011, 25.059
828.290, 47.322
829.568, 9.737
830.847, 17.829
832.125, 34.616
833.403, 42.913
834.681, 40.433
835.959, 82.057
837.236, 164.597
838.514, 37.230
839.791, 19.891
841.068, 27.432
842.345, 125.254
843.621, 91.989
844.898, 40.772
846.174, 16.440
847.450, 23.650
848.726, 50.867
850.001, 78.090
851.277, 25.330
852.552, 192.572
853.827, 79.818
855.102, 177.073
856.376, 304.347
857.651, 191.625
858.925, 218.907
860.199, 256.215
861.473, 103.532
862.746, 250.850
864.020, 278.194
865.293, 205.541
866.566, 312.918
867.839, 180.290
869.112, 277.661
870.384, 195.032
871.656, 312.402
872.928, 229.772
874.200, 337.140
875.472, 124.507
876.744, 311.873
878.015, 359.238
879.286, 366.604
880.557, 243.971
881.828, 411.338
883.098, 578.706
884.369, 416.074
885.639, 583.444
886.909, 670.815
888.178, 477.951
889.448, 545.327
890.717, 522.509
891.987, 659.861
893.256, 617.174
894.524, 744.530
895.793, 881.849
897.061, 709.002
898.330, 906.396
899.598, 1253.794
900.865, 1300.023
902.133, 1517.357
903.401, 1114.485
904.668, 1231.785
905.935, 1349.203
907.202, 1276.261
908.468, 1613.531
909.735, 1650.765
911.001, 1767.681
912.267, 2105.127
913.533, 2132.416
914.799, 2729.668
916.064, 2867.136
917.330, 3314.623
918.595, 4061.991
919.860, 4609.520
921.124, 5977.058
922.389, 7434.607
923.653, 9102.192
924.918, 12109.786
926.182, 14807.322
927.445, 19934.963
928.709, 24932.627
929.972, 28750.314
931.236, 31808.014
932.499, 29745.740
933.761, 25743.445
935.024, 21211.201
936.286, 16378.972
937.549, 12796.758
938.811, 10044.572
940.073, 7752.132
941.334, 6459.977
942.596, 5147.834
943.857, 4506.791
945.118, 3944.559
946.379, 3102.455
947.640, 3140.117
948.900, 2644.363
950.161, 2322.844
951.421, 2320.614
952.681, 2049.640
953.940, 2147.612
955.200, 1961.855
956.459, 1929.794
957.719, 2137.442
958.978, 1965.302
960.236, 2073.291
961.495, 2250.211
962.753, 2138.174
964.012, 2476.062
965.270, 2469.571
966.527, 2697.474
967.785, 2805.557
969.043, 3050.669
970.300, 3414.430
971.557, 3460.605
972.814, 3888.740
974.071, 4202.834
975.327, 4260.926
976.583, 4768.781
977.840, 4646.139
979.095, 4644.258
980.351, 4879.733
981.607, 4307.308
982.862, 4365.488
984.117, 3981.934
985.372, 3670.254
986.627, 3558.588
987.882, 3012.238
989.136, 2860.764
990.390, 2637.269
991.644, 2434.730
992.898, 2363.191
994.152, 2134.470
995.405, 1882.985
996.659, 1849.584
997.912, 1748.130
999.165, 1666.696
1000.417, 1565.293
1001.670, 1533.905
1002.922, 1542.564
1004.174, 1331.240
1005.426, 1189.938
1006.678, 1198.658
1007.930, 957.414
1009.181, 1106.193
1010.432, 934.991
1011.683, 933.830
1012.934, 952.685
1014.185, 761.555
1015.435, 740.473
1016.685, 819.410
1017.935, 598.365
1019.185, 737.360
1020.435, 656.372
1021.684, 545.399
1022.934, 634.457
1024.183, 483.530
1025.432, 342.651
1026.680, 621.825
1027.929, 331.016
1029.177, 470.234
1030.425, 419.474
1031.673, 498.761
1032.921, 348.065
1034.169, 227.385
1035.416, 366.719
1036.663, 296.131
1037.911, 315.520
1039.157, 414.929
1040.404, 334.367
1041.650, 223.820
1042.897, 393.291
1044.143, 112.775
1045.389, 392.273
1046.634, 151.790
1047.880, 321.319
1049.125, 350.866
1050.371, 290.427
1051.615, 300.004
1052.860, 209.603
1054.105, 179.215
1055.349, 338.839
1056.593, 268.479
1057.837, 308.136
1059.081, 357.804
1060.325, 167.487
1061.568, 357.185
1062.812, 256.895
1064.055, 276.616
1065.298, 276.350
1066.540, 146.109
1067.783, 185.880
1069.025, 215.663
1070.267, 115.455
1071.509, 205.258
1072.751, 245.071
1073.993, 244.898
1075.234, 254.737
1076.475, 104.585
1077.716, 74.445
1078.957, 124.317
1080.198, 94.198
1081.438, 264.089
1082.679, 63.987
1083.919, 204.020
1085.159, 203.943
1086.398, 43.876
1087.638, 253.818
1088.877, 43.771
1090.116, 63.730
1091.355, 203.701
1092.594, 66.321
1093.833, 113.653
1095.071, 93.637
1096.309, 103.629
1097.547, 86.371
1098.785, 36.326
1100.023, 64.192
1101.260, 65.784
1102.498, 24.238
1103.735, 154.297
1104.972, 5.569
1106.208, 64.499
1107.445, 84.670
1108.681, 44.742
1109.918, 4.820
1111.154, 75.133
1112.389, 55.295
1113.625, 65.396
1114.860, 65.521
1116.096, 75.652
1117.331, 106.482
1118.566, 6.768
1119.800, 129.834
1121.035, 198.882
1122.269, 216.496
1123.503, 30.180
1124.737, 107.258
1125.971, 78.852
1127.205, 46.820
1128.438, 161.420
1129.671, 4.727
1130.904, 123.832
1132.137, 135.264
1133.370, 188.994
1134.602, 136.472
1135.834, 118.555
1137.066, 206.064
1138.298, 234.139
1139.530, 180.344
1140.762, 237.482
1141.993, 81.459
1143.224, 113.443
1144.455, 226.329
1145.686, 167.471
1146.917, 227.474
1148.147, 244.671
1149.377, 54.414
1150.607, 226.937
1151.837, 238.474
1153.067, 93.566
1154.296, 248.035
1155.526, 128.168
1156.755, 104.207
1157.984, 154.335
1159.213, 131.029
1160.441, 225.371
1161.670, 201.284
1162.898, 173.805
1164.126, 186.071
1165.354, 67.640
1166.581, 196.046
1167.809, 153.909
1169.036, 193.816
1170.263, 255.834
1171.490, 171.227
1172.717, 245.868
1173.943, 87.009
1175.170, 115.681
1176.396, 192.011
1177.622, 113.931
1178.848, 162.192
1180.073, 213.367
1181.299, 223.947
1182.524, 254.411
1183.749, 79.903
1184.974, 311.154
1186.199, 153.082
1187.423, 196.621
1188.648, 207.190
1189.872, 198.255
1191.096, 168.573
1192.320, 248.896
1193.543, 249.740
1194.767, 189.942
1195.990, 310.975
1197.213, 241.431
1198.436, 251.324
1199.659, 243.103
1200.881, 352.960
1202.104, 513.214
1203.326, 313.743
1204.548, 204.295
1205.770, 254.219
1206.991, 224.735
1208.213, 184.479
1209.434, 504.238
1210.655, 224.292
1211.876, 353.979
1213.096, 267.371
1214.317, 277.029
1215.537, 336.683
1216.757, 186.327
1217.977, 405.967
1219.197, 445.600
1220.417, 496.234
1221.636, 705.852
1222.855, 225.462
1224.074, 306.080
1225.293, 445.674
1226.512, 405.258
1227.731, 234.860
1228.949, 454.429
1230.167, 145.262
1231.385, 374.808
1232.603, 284.479
1233.820, 394.198
1235.038, 673.715
1236.255, 183.363
1237.472, 272.859
1238.689, 332.341
1239.906, 270.481
1241.122, 359.939
1242.338, 619.385
1243.555, 308.814
1244.771, 186.237
1245.986, 75.196
1247.202, 414.508
1248.417, 252.461
1249.633, 191.668
1250.848, 180.834
1252.063, 199.919
1253.277, 179.034
1254.492, 368.110
1255.706, 227.124
1256.920, 156.100
1258.134, 195.011
1259.348, 234.167
1260.562, 253.071
1261.775, 221.819
1262.988, 61.145
1264.201, 289.795
1265.414, 118.396
1266.627, 137.310
1267.839, 425.718
1269.052, 204.032
1270.264, 232.656
1271.476, 200.869
1272.688, 59.035
1273.899, 130.600
1275.111, 318.666
1276.322, 73.304
1277.533, 65.310
1278.744, 332.590
1279.955, 290.446
1281.165, 18.264
1282.376, 56.356
1283.586, 174.145
1284.796, 128.156
1286.006, 189.548
1287.215, 22.715
1288.425, 24.790
1289.634, 172.245
1290.843, 139.663
1292.052, 47.035
1293.261, 5.564
1294.469, 141.699
1295.678, 71.078
1296.886, 166.070
1298.094, 23.173
1299.302, 30.226
1300.509, 32.773
1301.717, 24.160
1302.924, 42.506
1304.131, 40.667
1305.338, 96.092
1306.545, 142.826
1307.752, 70.512
1308.958, 46.069
1310.164, 52.599
1311.370, 40.929
1312.576, 95.470
1313.782, 121.824
1314.987, 11.868
1316.193, 214.333
1317.398, 79.508
1318.603, 93.425
1319.807, 112.579
1321.012, 1.467
1322.216, 34.431
1323.421, 75.474
1324.625, 69.868
1325.829, 153.181
1327.032, 177.782
1328.236, 31.949
1329.439, 60.763
1330.642, 32.177
1331.845, 1.429
1333.048, 133.720
1334.251, 70.295
1335.453, 185.596
1336.656, 181.459
1337.858, 86.683
1339.060, 201.864
1340.261, 67.011
1341.463, 132.117
1342.664, 287.189
1343.866, 32.227
1345.067, 297.229
1346.267, 162.208
1347.468, 107.125
1348.669, 102.014
1349.869, 226.878
1351.069, 101.725
1352.269, 316.566
1353.469, 251.394
1354.668, 176.234
1355.868, 291.778
1357.067, 3.969
1358.266, 284.078
1359.465, 352.097
1360.664, 340.081
1361.862, 428.025
1363.061, 365.931
1364.259, 83.798
1365.457, 441.631
1366.655, 299.291
1367.852, 87.039
1369.050, 424.748
1370.247, 322.417
1371.444, 270.062
1372.641, 357.667
1373.838, 74.658
1375.035, 282.215
1376.231, 249.611
1377.427, 236.965
1378.623, 374.418
1379.819, 251.489
1381.015, 338.866
1382.211, 505.367
1383.406, 332.138
1384.601, 428.955
1385.796, 296.068
1386.991, 332.108
1388.185, 438.681
1389.380, 237.662
1390.574, 364.530
1391.768, 447.797
1392.962, 349.668
1394.156, 460.122
1395.350, 353.899
1396.543, 288.124
1397.736, 379.183
1398.929, 414.351
1400.122, 285.404
1401.315, 251.188
1402.507, 166.623
1403.700, 220.523
1404.892, 462.635
1406.084, 87.320
1407.276, 330.525
1408.467, 259.096
1409.659, 86.443
1410.850, 264.576
1412.041, 203.109
1413.232, 94.957
1414.423, 239.576
1415.614, 188.488
1416.804, 34.508
1417.994, 236.889
1419.184, 178.428
1420.374, 149.607
1421.564, 242.143
1422.753, 282.074
1423.943, 233.309
1425.132, 74.855
1426.321, 136.562
1427.510, 168.879
1428.698, 114.391
1429.887, 97.107
1431.075, 269.633
1432.263, 219.822
1433.451, 161.902
1434.639, 201.531
1435.827, 113.064
1437.014, 161.514
1438.201, 162.260
1439.388, 232.596
1440.575, 372.762
1441.762, 202.994
1442.949, 322.934
1444.135, 292.586
1445.321, 18.150
1446.507, 271.496
1447.693, 431.164
1448.879, 90.654
1450.064, 430.213
1451.250, 99.004
1452.435, 318.469
1453.620, 496.371
1454.805, 325.061
1455.989, 145.691
1457.174, 335.387
1458.358, 274.428
1459.542, 255.133
1460.726, 305.646
1461.910, 406.254
1463.093, 405.328
1464.277, 365.352
1465.460, 215.031
1466.643, 415.371
1467.826, 195.355
1469.009, 175.676
1470.191, 425.979
1471.373, 346.283
1472.556, 368.850
1473.738, 328.906
1474.919, 178.855
1476.101, 289.027
1477.283, 339.363
1478.464, 20.271
1479.645, 310.787
1480.826, 81.881
1482.007, 193.135
1483.187, 274.549
1484.368, 136.121
1485.548, 207.865
1486.728, 300.623
1487.908, 133.889
1489.088, 329.271
1490.268, 162.689
1491.447, 126.619
1492.626, 201.193
1493.805, 36.299
1494.984, 234.365
1496.163, 264.863
1497.341, 1.188
1498.520, 0.000
##END=



