##NAMES=Hemimorphite
##RRUFFID=R040117
##IDEAL CHEMISTRY=Zn^2+^_4_Si_2_O_7_(OH)_2_&#183;H_2_O
##LOCALITY=Durango, Mexico
##OWNER=RRUFF
##SOURCE=University of Arizona Mineral Museum
##DESCRIPTION=Colorless thin tabular crystals in a sheaflike aggregate
##STATUS=The identification of this mineral has been confirmed by X-ray diffraction and chemical analysis
##URL=rruff.info/R040117
##MEASURED CHEMISTRY=Zn_4.05_Si_1.97_O_7_((OH)_0.99_F_0.01_)_2_Â·H_2_O
##PIN_ID=L00228
##ORIENTATION=Laser parallel to c* (0 0 1). Fiducial mark perpendicular to laser is parallel to -a [-1 0 0]
78.729, 0.000
80.125, 4.991
81.521, 19.007
82.916, 263.243
84.311, 637.986
85.706, 512.386
87.101, 1053.150
88.496, 1081.630
89.890, 1431.730
91.284, 1989.218
92.678, 2121.328
94.071, 2435.817
95.465, 2420.695
96.858, 2704.266
98.251, 2925.123
99.644, 3092.168
101.036, 3304.518
102.428, 3261.922
103.820, 3614.705
105.212, 3592.566
106.604, 4114.816
107.995, 4010.646
109.387, 4139.381
110.777, 4300.484
112.168, 4323.525
113.559, 4688.164
114.949, 4904.117
116.339, 5011.348
117.729, 5129.094
119.119, 5188.156
120.508, 5368.006
121.897, 5268.358
123.286, 5759.762
124.675, 5375.045
126.063, 6015.779
127.452, 5832.131
128.840, 6401.609
130.228, 6692.207
131.615, 7143.429
133.003, 7684.468
134.390, 7814.429
135.777, 8603.164
137.164, 8210.771
138.550, 8387.338
139.937, 8092.942
141.323, 7597.650
142.709, 7251.527
144.094, 6764.626
145.480, 7086.995
146.865, 6628.674
148.250, 6919.699
149.635, 6950.103
151.019, 6969.916
152.403, 7639.170
153.788, 7557.896
155.171, 8556.131
156.555, 8523.902
157.939, 9620.356
159.322, 10117.120
160.705, 10877.896
162.088, 12413.758
163.470, 12889.131
164.853, 14536.146
166.235, 15311.842
167.617, 16607.447
168.998, 16888.354
170.380, 16264.411
171.761, 15241.091
173.142, 12838.045
174.523, 10807.134
175.904, 7924.040
177.284, 5950.652
178.664, 4245.646
180.044, 2797.704
181.424, 2182.895
182.803, 1277.434
184.183, 1047.277
185.562, 661.744
186.940, 520.208
188.319, 434.656
189.698, 68.290
191.076, 462.050
192.454, 105.921
193.831, 459.894
195.209, 323.957
196.586, 388.104
197.963, 532.322
199.340, 486.606
200.717, 780.948
202.093, 605.341
203.470, 989.773
204.846, 994.242
206.221, 768.738
207.597, 1053.248
208.972, 1037.751
210.347, 1142.227
211.722, 886.654
213.097, 1111.024
214.472, 965.332
215.846, 789.578
217.220, 863.763
218.594, 537.887
219.967, 661.948
221.341, 405.951
222.714, 399.897
224.087, 283.805
225.460, 277.705
226.832, 411.626
228.204, 195.648
229.577, 299.750
230.948, 173.940
232.320, 128.190
233.692, 202.451
235.063, 63.293
236.434, 180.940
237.805, 65.147
239.175, 109.282
240.545, 16.711
241.916, 77.213
243.286, 101.019
244.655, 60.051
246.025, 91.140
247.394, 64.555
248.763, 129.661
250.132, 15.946
251.501, 53.162
252.869, 41.140
254.237, 150.260
255.605, 31.188
256.973, 201.701
258.340, 191.916
259.708, 301.893
261.075, 311.709
262.442, 271.410
263.808, 441.025
265.175, 340.630
266.541, 380.224
267.907, 449.843
269.273, 389.535
270.639, 479.309
272.004, 349.209
273.369, 299.223
274.734, 59.350
276.099, 239.542
277.463, 99.856
278.828, 0.267
280.192, 110.754
281.556, 11.354
282.919, 22.049
284.283, 102.845
285.646, 13.771
287.009, 14.809
288.372, 64.035
289.734, 2.761
291.097, 141.327
292.459, 49.739
293.821, 207.962
295.183, 346.018
296.544, 323.910
297.905, 561.639
299.266, 529.211
300.627, 786.630
301.988, 1053.901
303.348, 1311.029
304.709, 1628.018
306.069, 1744.871
307.428, 2221.592
308.788, 2388.182
310.147, 2784.646
311.507, 3080.986
312.865, 3047.204
314.224, 3503.303
315.583, 3349.285
316.941, 3775.150
318.299, 3620.904
319.657, 3806.547
321.015, 4032.080
322.372, 4107.458
323.729, 4572.730
325.086, 4807.871
326.443, 5622.912
327.800, 6287.850
329.156, 7112.672
330.512, 8387.387
331.868, 8921.852
333.224, 10465.969
334.579, 10479.628
335.935, 10332.787
337.290, 9565.609
338.645, 8107.717
339.999, 7019.502
341.354, 6010.738
342.708, 5051.650
344.062, 4432.383
345.416, 3672.870
346.769, 3523.182
348.123, 2993.850
349.476, 2903.850
350.829, 2684.751
352.182, 2525.005
353.534, 2655.234
354.887, 2845.480
356.239, 2445.785
357.591, 2245.939
358.942, 2395.899
360.294, 2276.474
361.645, 2356.336
362.996, 2546.744
364.347, 2386.845
365.698, 2737.086
367.048, 2520.498
368.398, 2933.182
369.748, 3044.709
371.098, 3121.214
372.448, 3422.086
373.797, 3457.018
375.146, 3819.315
376.495, 3866.378
377.844, 4128.925
379.192, 4631.902
380.540, 4654.145
381.889, 5348.084
383.236, 5472.512
384.584, 6026.178
385.932, 6639.086
387.279, 6941.635
388.626, 7754.045
389.973, 7955.600
391.319, 9027.456
392.666, 9579.204
394.012, 10139.948
395.358, 11318.603
396.704, 11677.934
398.049, 12561.964
399.394, 12830.267
400.740, 13819.179
402.084, 14526.784
403.429, 14102.586
404.774, 14779.973
406.118, 13957.289
407.462, 14144.569
408.806, 13881.801
410.150, 13238.972
411.493, 13046.071
412.836, 11512.070
414.179, 11488.948
415.522, 10465.399
416.865, 9640.217
418.207, 9312.140
419.549, 8312.987
420.891, 8154.061
422.233, 7357.844
423.575, 7080.617
424.916, 6645.520
426.257, 6049.379
427.598, 6119.141
428.939, 5566.018
430.279, 5358.133
431.619, 5223.637
432.959, 4933.115
434.299, 5160.374
435.639, 4840.389
436.978, 5135.082
438.318, 5208.088
439.657, 5339.492
440.996, 5776.775
442.334, 5756.762
443.673, 6712.623
445.011, 6877.450
446.349, 8066.850
447.687, 9221.483
449.024, 10355.697
450.361, 12944.014
451.699, 14648.639
453.036, 17149.369
454.372, 18735.990
455.709, 19508.107
457.045, 20112.025
458.381, 17385.693
459.717, 15389.677
461.053, 12423.586
462.388, 10157.417
463.724, 8371.172
465.059, 6564.850
466.394, 5738.451
467.728, 4731.977
469.063, 3845.428
470.397, 3358.804
471.731, 2772.106
473.065, 2705.335
474.398, 2228.490
475.732, 1981.572
477.065, 1734.581
478.398, 1487.519
479.731, 1357.014
481.063, 1303.179
482.396, 1215.902
483.728, 1328.556
485.060, 1471.140
486.391, 1393.653
487.723, 756.100
489.054, 898.479
490.385, 700.789
491.716, 663.035
493.047, 605.226
494.377, 617.349
495.708, 579.430
497.038, 451.450
498.368, 543.427
499.697, 435.364
501.027, 487.248
502.356, 569.105
503.685, 470.912
505.014, 494.067
506.342, 464.295
507.671, 336.073
508.999, 457.749
510.327, 229.377
511.655, 350.978
512.982, 342.526
514.310, 324.065
515.637, 295.554
516.964, 316.989
518.291, 348.390
519.617, 209.779
520.944, 341.125
522.270, 212.464
523.596, 253.759
524.921, 215.018
526.247, 6.254
527.572, 27.420
528.897, 78.520
530.222, 50.426
531.547, 110.541
532.871, 188.528
534.196, 22.218
535.520, 67.110
536.844, 156.558
538.167, 6.169
539.491, 155.854
540.814, 25.701
542.137, 35.636
543.460, 25.669
544.783, 15.793
546.105, 12.245
547.427, 12.250
548.749, 3.324
550.071, 7.126
551.393, 7.654
552.714, 21.649
554.035, 211.066
555.356, 100.346
556.677, 229.571
557.998, 238.773
559.318, 117.930
560.638, 367.034
561.958, 256.099
563.278, 395.132
564.597, 654.125
565.917, 693.081
567.236, 971.997
568.555, 1020.876
569.874, 1259.715
571.192, 1668.517
572.511, 1977.289
573.829, 2616.025
575.147, 2924.729
576.464, 3843.451
577.782, 4442.160
579.099, 5170.908
580.416, 5849.686
581.733, 5968.529
583.050, 6207.441
584.366, 5876.412
585.683, 5235.488
586.999, 4904.646
588.315, 4033.896
589.630, 3703.490
590.946, 3142.952
592.261, 2762.538
593.576, 2532.492
594.891, 2102.249
596.206, 1862.347
597.520, 1552.346
598.834, 1333.807
600.148, 1473.048
601.462, 1023.295
602.776, 1163.602
604.089, 1133.592
605.402, 1013.958
606.715, 933.963
608.028, 723.986
609.341, 834.189
610.653, 664.330
611.965, 1024.362
613.277, 944.403
614.589, 464.429
615.901, 754.662
617.212, 574.638
618.523, 634.587
619.834, 744.509
621.145, 534.406
622.456, 944.279
623.766, 634.127
625.076, 773.949
626.386, 663.746
627.696, 753.521
629.006, 943.270
630.315, 702.996
631.624, 742.698
632.933, 932.378
634.242, 852.034
635.551, 1051.670
636.859, 951.280
638.167, 1020.871
639.475, 1050.438
640.783, 1039.984
642.090, 1143.510
643.398, 1209.015
644.705, 1298.498
646.012, 1418.275
647.318, 1467.718
648.625, 1708.046
649.931, 1618.963
651.237, 1908.592
652.543, 2022.048
653.849, 1961.521
655.155, 2434.420
656.460, 2337.599
657.765, 2927.021
659.070, 3122.323
660.375, 3151.682
661.679, 3911.146
662.984, 4204.937
664.288, 4644.359
665.592, 5154.715
666.895, 5803.930
668.199, 6808.391
669.502, 7467.228
670.805, 9165.025
672.108, 10313.611
673.411, 11842.028
674.713, 14473.916
676.016, 15891.690
677.318, 19402.180
678.620, 22400.846
679.921, 26010.566
681.223, 31092.318
682.524, 33137.730
683.825, 38395.199
685.126, 39262.938
686.427, 38694.207
687.727, 38381.207
689.028, 33073.316
690.328, 30486.225
691.628, 25591.609
692.927, 21532.078
694.227, 19136.992
695.526, 15383.936
696.825, 13588.961
698.124, 11693.540
699.423, 9866.228
700.721, 9029.596
702.020, 7513.648
703.318, 6877.988
704.616, 6022.391
705.913, 5347.573
707.211, 4912.382
708.508, 3977.218
709.805, 4062.985
711.102, 3410.768
712.399, 2947.796
713.695, 2935.659
714.992, 2373.573
716.288, 2300.795
717.584, 2119.244
718.879, 1747.230
720.175, 1705.755
721.470, 1314.269
722.765, 1322.774
724.060, 1051.272
725.355, 1019.761
726.649, 978.243
727.944, 596.718
729.238, 755.185
730.532, 563.644
731.825, 652.095
733.119, 370.539
734.412, 398.976
735.705, 347.404
736.998, 395.827
738.291, 184.240
739.584, 242.645
740.876, 231.042
742.168, 179.431
743.460, 307.809
744.752, 116.178
746.043, 194.534
747.334, 172.880
748.626, 101.215
749.916, 209.536
751.207, 87.846
752.498, 126.140
753.788, 74.421
755.078, 22.685
756.368, 80.934
757.658, 69.167
758.947, 147.383
760.237, 65.586
761.526, 213.773
762.815, 231.947
764.104, 110.109
765.392, 128.256
766.680, 246.390
767.969, 234.509
769.257, 182.615
770.544, 90.709
771.832, 358.787
773.119, 246.854
774.406, 264.906
775.693, 402.948
776.980, 350.978
778.267, 388.993
779.553, 296.997
780.839, 334.989
782.125, 382.971
783.411, 350.938
784.697, 368.896
785.982, 426.842
787.267, 204.776
788.552, 342.699
789.837, 220.611
791.122, 228.513
792.406, 326.403
793.690, 284.284
794.974, 312.152
796.258, 200.010
797.542, 297.858
798.825, 165.697
800.108, 43.525
801.391, 151.340
802.674, 0.854
803.957, 13.069
805.239, 54.690
806.522, 57.562
807.804, 80.140
809.085, 52.169
810.367, 54.522
811.649, 23.080
812.930, 89.329
814.211, 78.199
815.492, 35.719
816.772, 66.774
818.053, 30.684
819.333, 181.869
820.613, 65.471
821.893, 97.199
823.173, 40.071
824.452, 142.666
825.732, 64.511
827.011, 71.680
828.290, 51.154
829.568, 144.026
830.847, 36.983
832.125, 159.969
833.403, 23.047
834.681, 56.145
835.959, 119.279
837.236, 42.479
838.514, 35.694
839.791, 78.920
841.068, 92.186
842.345, 85.475
843.621, 21.192
844.898, 37.923
846.174, 54.662
847.450, 51.450
848.726, 41.706
850.001, 155.129
851.277, 17.979
852.552, 348.922
853.827, 115.846
855.102, 152.791
856.376, 219.754
857.651, 106.734
858.925, 233.730
860.199, 220.740
861.473, 227.766
862.746, 284.805
864.020, 101.854
865.293, 238.906
866.566, 295.971
867.839, 33.037
869.112, 150.105
870.384, 217.180
871.656, 114.260
872.928, 71.340
874.200, 268.418
875.472, 145.495
876.744, 282.577
878.015, 289.658
879.286, 276.739
880.557, 203.820
881.828, 190.900
883.098, 347.980
884.369, 255.062
885.639, 372.144
886.909, 349.226
888.178, 296.310
889.448, 463.394
890.717, 280.479
891.987, 317.564
893.256, 414.653
894.524, 391.741
895.793, 728.832
897.061, 465.924
898.330, 582.788
899.598, 699.884
900.865, 446.982
902.133, 643.804
903.401, 600.906
904.668, 657.688
905.935, 1034.636
907.202, 881.376
908.468, 1147.908
909.735, 1144.691
911.001, 1181.434
912.267, 1558.512
913.533, 1505.256
914.799, 2062.384
916.064, 1979.515
917.330, 2376.471
918.595, 2873.512
919.860, 3230.654
921.124, 4177.800
922.389, 5374.949
923.653, 6161.867
924.918, 8489.023
926.182, 10126.186
927.445, 13603.354
928.709, 17340.521
929.972, 19417.697
931.236, 19493.305
932.499, 19792.062
933.761, 16719.250
935.024, 13716.444
936.286, 10133.643
937.549, 7930.846
938.811, 6258.055
940.073, 4725.268
941.334, 3742.487
942.596, 3039.711
943.857, 2536.940
945.118, 2314.176
946.379, 1541.416
947.640, 1688.663
948.900, 1185.915
950.161, 1203.172
951.421, 1200.437
952.681, 857.396
953.940, 994.674
955.200, 881.052
956.459, 886.828
957.719, 993.880
958.978, 877.095
960.236, 894.278
961.495, 1057.864
962.753, 721.321
964.012, 1088.306
965.270, 879.617
966.527, 1246.860
967.785, 1163.939
969.043, 1436.733
970.300, 1593.821
971.557, 1399.438
972.814, 1766.704
974.071, 1757.690
975.327, 1724.885
976.583, 2173.078
977.840, 2020.408
979.095, 2157.791
980.351, 2271.791
981.607, 1850.037
982.862, 2104.891
984.117, 1762.215
985.372, 1687.885
986.627, 1651.786
987.882, 1482.397
989.136, 1597.154
990.390, 1322.317
991.644, 1235.049
992.898, 1286.999
994.152, 1189.445
995.405, 1056.966
996.659, 1264.581
997.912, 1145.816
999.165, 1483.545
1000.417, 1318.754
1001.670, 1397.017
1002.922, 1493.521
1004.174, 1351.376
1005.426, 1219.260
1006.678, 1327.162
1007.930, 935.083
1009.181, 1233.032
1010.432, 1091.002
1011.683, 879.003
1012.934, 1067.035
1014.185, 915.087
1015.435, 813.212
1016.685, 1023.360
1017.935, 651.639
1019.185, 940.136
1020.435, 808.521
1021.684, 708.164
1022.934, 676.402
1024.183, 544.654
1025.432, 632.930
1026.680, 742.506
1027.929, 540.875
1029.177, 639.332
1030.425, 577.920
1031.673, 596.408
1032.921, 564.977
1034.169, 373.557
1035.416, 742.184
1036.663, 560.826
1037.911, 479.482
1039.157, 678.158
1040.404, 476.994
1041.650, 525.707
1042.897, 574.459
1044.143, 443.223
1045.389, 562.000
1046.634, 480.824
1047.880, 559.662
1049.125, 578.512
1050.371, 497.373
1051.615, 466.244
1052.860, 525.129
1054.105, 384.025
1055.349, 592.934
1056.593, 421.852
1057.837, 500.783
1059.081, 559.725
1060.325, 418.678
1061.568, 467.645
1062.812, 476.619
1064.055, 355.605
1065.298, 514.596
1066.540, 303.598
1067.783, 392.605
1069.025, 531.621
1070.267, 210.643
1071.509, 409.674
1072.751, 288.709
1073.993, 457.754
1075.234, 396.809
1076.475, 275.867
1077.716, 294.934
1078.957, 374.008
1080.198, 345.168
1081.438, 323.023
1082.679, 511.264
1083.919, 140.428
1085.159, 399.535
1086.398, 178.646
1087.638, 367.766
1088.877, 186.889
1090.116, 26.016
1091.355, 385.148
1092.594, 54.285
1093.833, 143.428
1095.071, 102.572
1096.309, 76.104
1097.547, 100.879
1098.785, 150.039
1100.023, 99.865
1101.260, 69.033
1102.498, 148.279
1103.735, 207.461
1104.972, 46.645
1106.208, 16.221
1107.445, 175.732
1108.681, 155.238
1109.918, 34.607
1111.154, 214.182
1112.389, 133.449
1113.625, 143.002
1114.860, 92.307
1116.096, 151.719
1117.331, 281.742
1118.566, 151.074
1119.800, 220.574
1121.035, 550.396
1122.269, 649.785
1123.503, 869.762
1124.737, 459.467
1125.971, 179.107
1127.205, 359.590
1128.438, 49.395
1129.671, 229.027
1130.904, 99.098
1132.137, 129.447
1133.370, 279.484
1134.602, 0.494
1135.834, 39.582
1137.066, 267.893
1138.298, 7.982
1139.530, 299.977
1140.762, 160.471
1141.993, 115.924
1143.224, 146.369
1144.455, 136.709
1145.686, 113.145
1146.917, 139.781
1148.147, 112.424
1149.377, 27.818
1150.607, 205.359
1151.837, 86.115
1153.067, 39.287
1154.296, 60.344
1155.526, 51.336
1156.755, 50.562
1157.984, 64.924
1159.213, 80.438
1160.441, 54.285
1161.670, 95.979
1162.898, 21.059
1164.126, 66.891
1165.354, 8.264
1166.581, 9.650
1167.809, 1.086
1169.036, 48.117
1170.263, 127.213
1171.490, 67.213
1172.717, 310.143
1173.943, 34.678
1175.170, 165.471
1176.396, 383.289
1177.622, 73.412
1178.848, 224.209
1180.073, 200.020
1181.299, 129.877
1182.524, 377.668
1183.749, 168.346
1184.974, 238.057
1186.199, 329.576
1187.423, 112.123
1188.648, 351.980
1189.872, 327.764
1191.096, 257.928
1192.320, 317.879
1193.543, 196.146
1194.767, 205.740
1195.990, 405.297
1197.213, 274.775
1198.436, 424.090
1199.659, 394.178
1200.881, 403.840
1202.104, 612.672
1203.326, 462.301
1204.548, 261.391
1205.770, 490.443
1206.991, 370.246
1208.213, 378.949
1209.434, 468.494
1210.655, 467.143
1211.876, 545.768
1213.096, 604.721
1214.317, 473.289
1215.537, 581.846
1216.757, 310.375
1217.977, 618.877
1219.197, 667.352
1220.417, 276.424
1221.636, 724.844
1222.855, 323.236
1224.074, 542.361
1225.293, 750.697
1226.512, 469.201
1227.731, 487.479
1228.949, 515.725
1230.167, 225.271
1231.385, 663.453
1232.603, 461.619
1233.820, 369.826
1235.038, 597.963
1236.255, 366.088
1237.472, 514.195
1238.689, 352.291
1239.906, 280.365
1241.122, 318.424
1242.338, 266.465
1243.555, 414.668
1244.771, 452.674
1245.986, 110.658
1247.202, 418.625
1248.417, 256.570
1249.633, 274.494
1250.848, 342.396
1252.063, 190.279
1253.277, 208.137
1254.492, 217.648
1255.706, 253.775
1256.920, 211.551
1258.134, 319.438
1259.348, 227.117
1260.562, 384.822
1261.775, 272.412
1262.988, 130.193
1264.201, 377.678
1265.414, 265.109
1266.627, 202.836
1267.839, 390.168
1269.052, 177.598
1270.264, 244.781
1271.476, 271.904
1272.688, 88.957
1273.899, 236.465
1275.111, 283.389
1276.322, 190.551
1277.533, 127.322
1278.744, 213.811
1279.955, 220.314
1281.165, 66.639
1282.376, 67.689
1283.586, 219.174
1284.796, 25.268
1286.006, 131.244
1287.215, 32.555
1288.425, 153.297
1289.634, 179.102
1290.843, 224.963
1292.052, 7.141
1293.261, 12.779
1294.469, 308.365
1295.678, 3.643
1296.886, 99.127
1298.094, 4.561
1299.302, 70.029
1300.509, 75.346
1301.717, 0.607
1302.924, 45.811
1304.131, 9.037
1305.338, 4.754
1306.545, 41.043
1307.752, 24.008
1308.958, 30.834
1310.164, 26.391
1311.370, 28.219
1312.576, 92.555
1313.782, 86.975
1314.987, 29.910
1316.193, 204.566
1317.398, 8.982
1318.603, 186.678
1319.807, 156.320
1321.012, 229.525
1322.216, 154.490
1323.421, 78.326
1324.625, 197.779
1325.829, 205.979
1327.032, 70.322
1328.236, 83.287
1329.439, 226.844
1330.642, 40.344
1331.845, 13.781
1333.048, 177.021
1334.251, 39.648
1335.453, 123.605
1336.656, 146.809
1337.858, 80.039
1339.060, 213.027
1340.261, 216.045
1341.463, 229.014
1342.664, 261.938
1343.866, 114.814
1345.067, 167.641
1346.267, 370.420
1347.468, 163.156
1348.669, 285.848
1349.869, 288.496
1351.069, 131.105
1352.269, 433.672
1353.469, 156.205
1354.668, 368.703
1355.868, 581.164
1357.067, 273.592
1358.266, 415.990
1359.465, 491.738
1360.664, 374.080
1361.862, 636.400
1363.061, 508.863
1364.259, 211.146
1365.457, 603.543
1366.655, 425.801
1367.852, 178.127
1369.050, 610.229
1370.247, 312.330
1371.444, 384.072
1372.641, 385.658
1373.838, 107.955
1375.035, 418.150
1376.231, 413.771
1377.427, 349.348
1378.623, 424.875
1379.819, 410.354
1381.015, 505.781
1382.211, 671.158
1383.406, 435.779
1384.601, 670.965
1385.796, 465.773
1386.991, 330.283
1388.185, 604.867
1389.380, 459.594
1390.574, 514.453
1391.768, 608.572
1392.962, 432.746
1394.156, 546.902
1395.350, 491.102
1396.543, 524.178
1397.736, 587.949
1398.929, 470.951
1400.122, 453.295
1401.315, 337.518
1402.507, 377.824
1403.700, 353.822
1404.892, 576.457
1406.084, 312.441
1407.276, 481.602
1408.467, 479.293
1409.659, 289.238
1410.850, 545.064
1412.041, 316.631
1413.232, 389.426
1414.423, 341.256
1415.614, 468.811
1416.804, 211.426
1417.994, 448.229
1419.184, 226.789
1420.374, 260.768
1421.564, 385.871
1422.753, 233.602
1423.943, 351.840
1425.132, 254.141
1426.321, 83.551
1427.510, 271.188
1428.698, 386.098
1429.887, 164.707
1431.075, 322.426
1432.263, 301.346
1433.451, 199.604
1434.639, 467.312
1435.827, 295.750
1437.014, 285.596
1438.201, 174.715
1439.388, 364.326
1440.575, 553.848
1441.762, 192.092
1442.949, 499.938
1444.135, 408.730
1445.321, 257.805
1446.507, 204.119
1447.693, 542.760
1448.879, 311.262
1450.064, 449.504
1451.250, 257.496
1452.435, 244.838
1453.620, 622.297
1454.805, 329.475
1455.989, 306.369
1457.174, 642.975
1458.358, 339.301
1459.542, 515.012
1460.726, 390.842
1461.910, 276.119
1463.093, 721.943
1464.277, 566.764
1465.460, 332.121
1466.643, 438.016
1467.826, 352.490
1469.009, 217.658
1470.191, 554.896
1471.373, 422.641
1472.556, 418.391
1473.738, 515.844
1474.919, 354.150
1476.101, 362.074
1477.283, 560.332
1478.464, 237.812
1479.645, 615.523
1480.826, 463.570
1482.007, 311.527
1483.187, 439.531
1484.368, 307.508
1485.548, 205.508
1486.728, 653.561
1487.908, 181.723
1489.088, 420.070
1490.268, 288.652
1491.447, 387.531
1492.626, 376.738
1493.805, 336.299
1494.984, 276.094
1496.163, 526.152
1497.341, 156.412
1498.520, 276.955
1499.698, 387.812
1500.876, 40.959
1502.054, 340.723
1503.232, 342.939
1504.409, 105.752
1505.586, 519.203
1506.763, 123.365
1507.940, 298.373
1509.117, 42.314
1510.294, 78.289
1511.470, 56.416
1512.647, 375.783
1513.823, 102.398
1514.999, 0.855
1516.174, 0.000
##END=



