##NAMES=Hemimorphite
##RRUFFID=R040117
##IDEAL CHEMISTRY=Zn^2+^_4_Si_2_O_7_(OH)_2_&#183;H_2_O
##LOCALITY=Durango, Mexico
##OWNER=RRUFF
##SOURCE=University of Arizona Mineral Museum
##DESCRIPTION=Colorless thin tabular crystals in a sheaflike aggregate
##STATUS=The identification of this mineral has been confirmed by X-ray diffraction and chemical analysis
##URL=rruff.info/R040117
##MEASURED CHEMISTRY=Zn_4.05_Si_1.97_O_7_((OH)_0.99_F_0.01_)_2_Â·H_2_O
##PIN_ID=L00159
##ORIENTATION=Laser parallel to -a* (-1 0 0). Fiducial mark perpendicular to laser is parallel to b [0 1 0]
96.858, 0.000
98.251, 19.504
99.644, 13.857
101.036, 195.055
102.428, 413.471
103.820, 648.022
105.212, 956.293
106.604, 1450.059
107.995, 1743.688
109.387, 1933.904
110.777, 2337.730
112.168, 2292.688
113.559, 2706.916
114.949, 2888.907
116.339, 3097.444
117.729, 3421.535
119.119, 3911.407
120.508, 4578.509
121.897, 5890.368
123.286, 7594.803
124.675, 9582.078
126.063, 12162.208
127.452, 15644.770
128.840, 18799.377
130.228, 22315.736
131.615, 24893.621
133.003, 26592.832
134.390, 26323.176
135.777, 25474.496
137.164, 22516.672
138.550, 19489.602
139.937, 16569.658
141.323, 13348.732
142.709, 10944.882
144.094, 9022.354
145.480, 7242.830
146.865, 6019.006
148.250, 5164.709
149.635, 4503.945
151.019, 3877.318
152.403, 3573.817
153.788, 3251.422
155.171, 2948.518
156.555, 2905.121
157.939, 2851.273
159.322, 2847.016
160.705, 2942.386
162.088, 3137.519
163.470, 3282.600
164.853, 3557.448
166.235, 3822.003
167.617, 3946.271
168.998, 3890.277
170.380, 3684.034
171.761, 3437.559
173.142, 2830.857
174.523, 2343.939
175.904, 1556.814
177.284, 1119.490
178.664, 791.974
180.044, 424.198
181.424, 326.024
182.803, 102.389
184.183, 160.954
185.562, 59.613
186.940, 238.329
188.319, 157.072
189.698, 205.825
191.076, 114.571
192.454, 63.301
193.831, 182.009
195.209, 105.242
196.586, 52.789
197.963, 222.349
199.340, 264.537
200.717, 444.602
202.093, 559.315
203.470, 680.154
204.846, 820.305
206.221, 1016.253
207.597, 1158.529
208.972, 1319.424
210.347, 1436.650
211.722, 1531.932
213.097, 1677.317
214.472, 1622.802
215.846, 1328.377
217.220, 1424.051
218.594, 1139.812
219.967, 1085.664
221.341, 1111.606
222.714, 917.636
224.087, 904.019
225.460, 741.609
226.832, 841.951
228.204, 706.951
229.577, 804.188
230.948, 702.727
232.320, 649.591
233.692, 575.730
235.063, 530.100
236.434, 498.210
237.805, 494.516
239.175, 450.919
240.545, 507.333
241.916, 503.747
243.286, 370.137
244.655, 336.495
246.025, 462.812
247.394, 309.091
248.763, 355.325
250.132, 371.517
251.501, 397.665
252.869, 413.771
254.237, 349.832
255.605, 325.848
256.973, 321.816
258.340, 237.739
259.708, 243.615
261.075, 289.441
262.442, 148.206
263.808, 268.077
265.175, 360.790
266.541, 394.958
267.907, 380.265
269.273, 506.482
270.639, 813.447
272.004, 1021.043
273.369, 1009.172
274.734, 1017.747
276.099, 1176.705
277.463, 1015.989
278.828, 1275.557
280.192, 1035.368
281.556, 1065.400
282.919, 1105.648
284.283, 846.054
285.646, 796.582
287.009, 677.219
288.372, 457.942
289.734, 388.741
291.097, 369.600
292.459, 40.505
293.821, 181.442
295.183, 142.409
296.544, 96.596
297.905, 45.639
299.266, 94.714
300.627, 213.812
301.988, 192.987
303.348, 192.251
304.709, 211.640
306.069, 221.201
307.428, 291.009
308.788, 311.043
310.147, 241.272
311.507, 361.624
312.865, 222.124
314.224, 132.762
315.583, 153.529
316.941, 234.448
318.299, 75.537
319.657, 63.238
321.015, 181.928
322.372, 360.543
323.729, 929.088
325.086, 1217.567
326.443, 1905.980
327.800, 2634.326
329.156, 3022.601
330.512, 3490.877
331.868, 3469.019
333.224, 3227.096
334.579, 2786.017
335.935, 2224.232
337.290, 1922.696
338.645, 1370.846
339.999, 1148.984
341.354, 748.426
342.708, 726.417
344.062, 565.454
345.416, 644.296
346.769, 462.098
348.123, 407.221
349.476, 314.730
350.829, 267.681
352.182, 324.838
353.534, 237.527
354.887, 258.053
356.239, 194.844
357.591, 188.627
358.942, 288.279
360.294, 344.817
361.645, 252.040
362.996, 379.514
364.347, 318.021
365.698, 404.893
367.048, 485.786
368.398, 412.074
369.748, 498.456
371.098, 402.639
372.448, 618.849
373.797, 614.856
375.146, 582.521
376.495, 718.564
377.844, 672.795
379.192, 818.459
380.540, 854.824
381.889, 929.458
383.236, 985.890
384.584, 1060.236
385.932, 1174.146
387.279, 1288.022
388.626, 1311.771
389.973, 1415.174
391.319, 1608.390
392.666, 1601.549
394.012, 1726.228
395.358, 1757.692
396.704, 1860.689
398.049, 1883.646
399.394, 1926.554
400.740, 1999.409
402.084, 1912.232
403.429, 1975.004
404.774, 2197.723
406.118, 2020.392
407.462, 1913.008
408.806, 2015.574
410.150, 1748.086
411.493, 1760.547
412.836, 1653.035
414.179, 1635.391
415.522, 1637.726
416.865, 1259.977
418.207, 1502.181
419.549, 1294.332
420.891, 1196.430
422.233, 1258.477
423.575, 1190.902
424.916, 1262.910
426.257, 1335.501
427.598, 1247.447
428.939, 1350.835
430.279, 1363.271
431.619, 1515.418
432.959, 1619.531
434.299, 1732.661
435.639, 2094.966
436.978, 2117.158
438.318, 2579.127
439.657, 2981.175
440.996, 3492.958
442.334, 4125.986
443.673, 5024.877
445.011, 6126.369
446.349, 7288.016
447.687, 9001.568
449.024, 10622.723
450.361, 11924.807
451.699, 12986.093
453.036, 13187.279
454.372, 13027.562
455.709, 11938.666
457.045, 9991.463
458.381, 8640.604
459.717, 7282.816
461.053, 5948.025
462.388, 5020.818
463.724, 4232.879
465.059, 3354.622
466.394, 2925.456
467.728, 2536.273
469.063, 2003.056
470.397, 1809.729
471.731, 1697.853
473.065, 1417.773
474.398, 1298.473
475.732, 968.017
477.065, 979.318
478.398, 837.273
479.731, 632.923
481.063, 709.518
482.396, 558.606
483.728, 767.858
485.060, 527.539
486.391, 427.114
487.723, 476.049
489.054, 404.609
490.385, 353.619
491.716, 392.640
493.047, 421.010
494.377, 209.310
495.708, 307.531
497.038, 245.827
498.368, 293.911
499.697, 281.926
501.027, 149.865
502.356, 287.723
503.685, 165.507
505.014, 173.211
506.342, 130.832
507.671, 198.376
508.999, 195.858
510.327, 163.017
511.655, 79.291
512.982, 296.457
514.310, 11.765
515.637, 217.442
516.964, 191.029
518.291, 84.391
519.617, 230.410
520.944, 217.213
522.270, 161.973
523.596, 88.703
524.921, 154.692
526.247, 1.264
527.572, 137.724
528.897, 114.111
530.222, 69.575
531.547, 96.597
532.871, 102.693
534.196, 38.718
535.520, 94.652
536.844, 79.485
538.167, 106.230
539.491, 71.874
540.814, 167.440
542.137, 62.941
543.460, 188.390
544.783, 253.750
546.105, 249.052
547.427, 264.296
548.749, 329.482
550.071, 415.044
551.393, 476.132
552.714, 625.147
554.035, 650.134
555.356, 825.053
556.677, 932.364
557.998, 957.178
559.318, 781.938
560.638, 700.656
561.958, 605.312
563.278, 530.013
564.597, 477.245
565.917, 399.346
567.236, 374.188
568.555, 348.852
569.874, 382.925
571.192, 317.215
572.511, 371.453
573.829, 325.642
575.147, 429.778
576.464, 385.230
577.782, 389.265
579.099, 373.292
580.416, 357.225
581.733, 221.256
583.050, 315.084
584.366, 168.862
585.683, 312.584
586.999, 76.257
588.315, 169.866
589.630, 223.420
590.946, 26.921
592.261, 70.352
593.576, 143.721
594.891, 147.033
596.206, 180.293
597.520, 143.499
598.834, 186.650
600.148, 39.750
601.462, 77.213
602.776, 195.710
604.089, 138.580
605.402, 1.399
606.715, 214.148
608.028, 56.847
609.341, 139.490
610.653, 142.082
611.965, 15.376
613.277, 117.109
614.589, 10.455
615.901, 111.913
617.212, 64.286
618.523, 83.353
619.834, 11.041
621.145, 71.291
622.456, 73.656
623.766, 16.055
625.076, 11.510
626.386, 22.726
627.696, 46.538
629.006, 3.991
630.315, 8.599
631.624, 121.270
632.933, 113.994
634.242, 96.772
635.551, 20.434
636.859, 102.401
638.167, 34.744
639.475, 3.891
640.783, 130.837
642.090, 48.167
643.398, 50.849
644.705, 166.109
646.012, 248.707
647.318, 111.270
648.625, 97.238
649.931, 240.627
651.237, 343.072
652.543, 264.570
653.849, 196.671
655.155, 360.866
656.460, 562.833
657.765, 454.715
659.070, 555.671
660.375, 487.504
661.679, 718.195
662.984, 848.989
664.288, 969.047
665.592, 1220.104
666.895, 1501.502
668.199, 1792.047
669.502, 2274.320
670.805, 2665.938
672.108, 3013.176
673.411, 3314.311
674.713, 3630.654
676.016, 3579.693
677.318, 3600.951
678.620, 3302.078
679.921, 2852.631
681.223, 2451.799
682.524, 1902.484
683.825, 1888.459
685.126, 1538.602
686.427, 1128.367
687.727, 1310.645
689.028, 789.994
690.328, 849.471
691.628, 637.227
692.927, 467.156
694.227, 468.215
695.526, 297.773
696.825, 326.566
698.124, 377.021
699.423, 135.613
700.721, 336.223
702.020, 157.201
703.318, 258.145
704.616, 239.137
705.913, 30.385
707.211, 301.707
708.508, 153.012
709.805, 124.297
711.102, 195.562
712.399, 43.189
713.695, 178.020
714.992, 139.207
716.288, 69.621
717.584, 241.498
718.879, 92.600
720.175, 53.682
721.470, 104.746
722.765, 15.797
724.060, 176.826
725.355, 117.838
726.649, 198.836
727.944, 159.740
729.238, 200.707
730.532, 141.629
731.825, 27.432
733.119, 223.480
734.412, 84.379
735.705, 195.264
736.998, 56.135
738.291, 116.561
739.584, 97.373
740.876, 97.566
742.168, 128.357
743.460, 116.264
744.752, 117.840
746.043, 138.248
747.334, 196.619
748.626, 235.902
749.916, 85.938
751.207, 156.012
752.498, 96.227
753.788, 216.285
755.078, 226.523
756.368, 235.438
757.658, 68.404
758.947, 128.686
760.237, 328.729
761.526, 146.779
762.815, 267.143
764.104, 256.492
765.392, 86.551
766.680, 206.625
767.969, 133.963
769.257, 213.939
770.544, 141.713
771.832, 371.682
773.119, 201.270
774.406, 184.660
775.693, 512.650
776.980, 142.348
778.267, 192.076
779.553, 281.170
780.839, 99.363
782.125, 166.904
783.411, 103.002
784.697, 141.742
785.982, 230.846
787.267, 210.912
788.552, 0.947
789.837, 210.916
791.122, 18.887
792.406, 18.879
793.690, 16.014
794.974, 234.965
796.258, 114.889
797.542, 154.732
798.825, 75.613
800.108, 44.594
801.391, 95.115
802.674, 94.887
803.957, 34.988
805.239, 115.486
806.522, 15.961
807.804, 76.439
809.085, 73.229
810.367, 87.230
811.649, 57.689
812.930, 21.848
814.211, 88.615
815.492, 59.082
816.772, 119.555
818.053, 0.033
819.333, 280.521
820.613, 18.986
821.893, 31.510
823.173, 97.986
824.452, 192.500
825.732, 37.008
827.011, 53.502
828.290, 135.984
829.568, 204.492
830.847, 264.980
832.125, 75.479
833.403, 35.980
834.681, 106.490
835.959, 12.982
837.236, 157.553
838.514, 68.115
839.791, 1.309
841.068, 30.711
842.345, 189.930
843.621, 120.580
844.898, 191.248
846.174, 28.061
847.450, 162.641
848.726, 63.393
850.001, 204.158
851.277, 164.941
852.552, 255.738
853.827, 356.529
855.102, 187.371
856.376, 388.219
857.651, 309.078
858.925, 349.943
860.199, 400.385
861.473, 391.266
862.746, 412.148
864.020, 513.029
865.293, 293.930
866.566, 382.393
867.839, 443.309
869.112, 404.230
870.384, 531.150
871.656, 494.348
872.928, 292.938
874.200, 433.643
875.472, 434.582
876.744, 305.160
878.015, 686.141
879.286, 347.129
880.557, 568.123
881.828, 609.123
883.098, 670.129
884.369, 531.139
885.639, 600.785
886.909, 661.164
888.178, 752.789
889.448, 833.826
890.717, 1034.723
891.987, 1085.777
893.256, 1116.842
894.524, 1027.916
895.793, 1239.000
897.061, 1400.100
898.330, 1531.211
899.598, 1822.332
900.865, 1673.477
902.133, 2104.637
903.401, 2085.807
904.668, 2086.992
905.935, 2438.188
907.202, 2719.396
908.468, 3000.619
909.735, 3401.861
911.001, 3543.145
912.267, 4344.445
913.533, 4775.756
914.799, 5687.092
916.064, 6888.439
917.330, 7629.807
918.595, 9931.186
919.860, 11762.576
921.124, 14493.996
922.389, 17915.436
923.653, 21846.898
924.918, 25978.375
926.182, 29919.869
927.445, 31751.410
928.709, 34772.977
929.972, 35844.551
931.236, 37246.156
932.499, 35267.785
933.761, 31529.418
935.024, 26991.098
936.286, 20982.807
937.549, 16794.529
938.811, 13226.287
940.073, 10608.055
941.334, 8619.820
942.596, 7181.625
943.857, 6023.457
945.118, 4985.305
946.379, 4257.186
947.640, 3685.848
948.900, 3353.164
950.161, 2725.105
951.421, 2674.441
952.681, 2328.676
953.940, 2130.668
955.200, 1929.164
956.459, 1760.932
957.719, 1532.979
958.978, 1465.043
960.236, 1197.123
961.495, 1367.268
962.753, 1139.383
964.012, 891.518
965.270, 1163.252
966.527, 845.420
967.785, 847.609
969.043, 839.818
970.300, 982.016
971.557, 834.262
972.814, 916.125
974.071, 1048.410
975.327, 557.215
976.583, 949.541
977.840, 810.979
979.095, 433.348
980.351, 990.305
981.607, 663.088
982.862, 745.521
984.117, 837.977
985.372, 520.455
986.627, 933.182
987.882, 595.455
989.136, 598.002
990.390, 560.572
991.644, 525.662
992.898, 797.475
994.152, 600.248
995.405, 712.768
996.659, 755.299
997.912, 727.951
999.165, 670.516
1000.417, 743.094
1001.670, 606.516
1002.922, 759.133
1004.174, 462.086
1005.426, 628.453
1006.678, 571.129
1007.930, 533.824
1009.181, 286.527
1010.432, 549.250
1011.683, 382.066
1012.934, 354.816
1014.185, 457.977
1015.435, 370.674
1016.685, 563.389
1017.935, 316.104
1019.185, 458.801
1020.435, 571.498
1021.684, 104.203
1022.934, 396.951
1024.183, 391.219
1025.432, 304.006
1026.680, 496.459
1027.929, 328.877
1029.177, 251.256
1030.425, 443.377
1031.673, 265.363
1032.921, 457.195
1034.169, 368.896
1035.416, 410.486
1036.663, 313.020
1037.911, 245.578
1039.157, 388.162
1040.404, 330.775
1041.650, 463.412
1042.897, 486.074
1044.143, 398.764
1045.389, 191.479
1046.634, 434.219
1047.880, 266.984
1049.125, 379.779
1050.371, 362.600
1051.615, 225.441
1052.860, 298.314
1054.105, 291.213
1055.349, 314.137
1056.593, 318.977
1057.837, 120.061
1059.081, 283.061
1060.325, 256.084
1061.568, 199.135
1062.812, 342.207
1064.055, 95.307
1065.298, 268.428
1066.540, 301.537
1067.783, 164.686
1069.025, 217.871
1070.267, 271.090
1071.509, 274.354
1072.751, 307.637
1073.993, 286.803
1075.234, 295.422
1076.475, 295.430
1077.716, 291.129
1078.957, 294.566
1080.198, 303.383
1081.438, 321.590
1082.679, 325.195
1083.919, 198.852
1085.159, 312.537
1086.398, 346.244
1087.638, 169.980
1088.877, 443.709
1090.116, 77.469
1091.355, 281.256
1092.594, 165.064
1093.833, 158.893
1095.071, 232.717
1096.309, 123.463
1097.547, 90.381
1098.785, 64.252
1100.023, 158.139
1101.260, 47.945
1102.498, 326.002
1103.735, 229.973
1104.972, 16.047
1106.208, 187.965
1107.445, 132.025
1108.681, 176.143
1109.918, 9.668
1111.154, 54.668
1112.389, 108.873
1113.625, 33.219
1114.860, 237.615
1116.096, 132.062
1117.331, 136.562
1118.566, 231.117
1119.800, 285.727
1121.035, 290.391
1122.269, 305.111
1123.503, 439.889
1124.737, 514.725
1125.971, 139.621
1127.205, 464.580
1128.438, 279.604
1129.671, 14.688
1130.904, 409.836
1132.137, 225.051
1133.370, 410.328
1134.602, 45.674
1135.834, 231.082
1137.066, 316.561
1138.298, 202.109
1139.530, 12.266
1140.762, 390.037
1141.993, 45.129
1143.224, 231.969
1144.455, 184.438
1145.686, 9.314
1146.917, 152.232
1148.147, 327.076
1149.377, 11.676
1150.607, 186.508
1151.837, 51.324
1153.067, 33.887
1154.296, 190.861
1155.526, 195.545
1156.755, 218.076
1157.984, 182.471
1159.213, 115.330
1160.441, 329.309
1161.670, 45.688
1162.898, 287.826
1164.126, 381.980
1165.354, 310.164
1166.581, 206.496
1167.809, 186.229
1169.036, 69.691
1170.263, 58.312
1171.490, 7.100
1172.717, 41.840
1173.943, 125.521
1175.170, 137.352
1176.396, 86.486
1177.622, 119.721
1178.848, 66.342
1180.073, 149.748
1181.299, 17.934
1182.524, 0.000
##END=



