##NAMES=Heulandite-Ca
##RRUFFID=R050017
##IDEAL CHEMISTRY=(Ca,Na,K)_5_(Si_27_Al_9_)O_72_&#183;26H_2_O
##LOCALITY=Poona, Maharashtra State, India
##OWNER=RRUFF
##SOURCE=Eugene Schlepp
##DESCRIPTION=Single crystals
##STATUS=The identification of this mineral has been confirmed by X-ray diffraction and chemical analysis
##URL=rruff.info/R050017
##MEASURED CHEMISTRY=(Ca_.70_Na_.22_K_.02_[box]_0.06_)_5_(Si_0.77_Al_0.23_)_36_O_72_Â·24H_2_O
##PIN_ID=L00175
##ORIENTATION=Laser parallel to -b* (0 -1 0). Fiducial mark perpendicular to laser is parallel to c [0 0 1]
92.926, 0.000
94.324, 130.143
95.723, 23.641
97.121, 207.848
98.519, 431.439
99.917, 538.072
101.314, 712.008
102.712, 1329.688
104.109, 1598.037
105.505, 1914.535
106.902, 2337.826
108.298, 2597.324
109.694, 2992.742
111.090, 3393.135
112.486, 3627.195
113.881, 4133.717
115.277, 4431.812
116.672, 5001.039
118.066, 4992.162
119.461, 5395.766
120.855, 5412.480
122.249, 5831.910
123.643, 6025.680
125.036, 6132.628
126.430, 6191.182
127.823, 6460.032
129.216, 6538.135
130.608, 6694.797
132.001, 6609.500
133.393, 6702.148
134.785, 7012.839
136.176, 6751.802
137.568, 6749.459
138.959, 6846.205
140.350, 7115.132
141.741, 6862.580
143.131, 6892.467
144.521, 6707.406
145.911, 6614.068
147.301, 6392.393
148.691, 6284.680
150.080, 6128.504
151.469, 5856.310
152.858, 5613.852
154.247, 5359.021
155.635, 4982.449
157.024, 4920.240
158.411, 4419.714
159.799, 4278.507
161.187, 3861.062
162.574, 3799.406
163.961, 3455.293
165.348, 3177.391
166.734, 2865.865
168.121, 2588.471
169.507, 2266.419
170.893, 1991.841
172.278, 1855.807
173.664, 1619.057
175.049, 1541.619
176.434, 1293.644
177.819, 1176.225
179.203, 981.997
180.587, 709.334
181.971, 599.050
183.355, 371.339
184.739, 385.554
186.122, 340.048
187.505, 276.920
188.888, 171.297
190.271, 6.915
191.653, 162.380
193.035, 132.287
194.417, 9.012
195.799, 353.674
197.180, 266.480
198.562, 160.992
199.943, 9.670
201.324, 127.228
202.704, 189.377
204.084, 142.635
205.465, 132.704
206.844, 88.032
208.224, 36.981
209.603, 24.423
210.983, 57.186
212.362, 40.069
213.740, 43.965
215.119, 119.023
216.497, 27.268
217.875, 27.300
219.253, 51.589
220.631, 60.104
222.008, 11.922
223.385, 53.877
224.762, 54.002
226.139, 71.693
227.515, 69.180
228.891, 13.542
230.267, 73.479
231.643, 0.260
233.018, 176.789
234.394, 253.050
235.769, 248.972
237.144, 304.527
238.518, 309.739
239.893, 434.666
241.267, 679.275
242.641, 573.631
244.014, 777.745
245.388, 881.617
246.761, 885.281
248.134, 1058.763
249.507, 1002.073
250.879, 1155.230
252.252, 1208.250
253.624, 1181.137
254.996, 1033.894
256.367, 1116.525
257.739, 1019.025
259.110, 1036.502
260.481, 972.629
261.852, 888.242
263.222, 844.032
264.592, 613.934
265.962, 672.182
267.332, 580.572
268.702, 449.029
270.071, 487.499
271.440, 285.938
272.809, 334.307
274.178, 292.573
275.546, 190.710
276.915, 138.687
278.283, 13.521
279.650, 94.058
281.018, 118.572
282.385, 81.461
283.752, 35.389
285.119, 98.006
286.486, 63.693
287.852, 149.681
289.218, 206.012
290.584, 193.716
291.950, 118.800
293.316, 177.246
294.681, 133.068
296.046, 195.250
297.411, 263.801
298.775, 199.731
300.140, 174.016
301.504, 69.644
302.868, 129.582
304.231, 123.843
305.595, 229.437
306.958, 106.428
308.321, 37.796
309.684, 34.546
311.047, 61.314
312.409, 132.756
313.771, 35.812
315.133, 114.466
316.495, 111.706
317.856, 195.438
319.217, 238.638
320.578, 227.398
321.939, 286.750
323.299, 261.679
324.660, 441.285
326.020, 360.552
327.380, 452.495
328.739, 555.175
330.099, 559.610
331.458, 612.816
332.817, 635.817
334.176, 588.633
335.534, 825.274
336.892, 917.751
338.251, 1028.066
339.608, 1028.228
340.966, 1214.238
342.323, 1167.097
343.681, 1379.787
345.037, 1432.305
346.394, 1574.643
347.751, 1596.790
349.107, 1718.736
350.463, 1880.308
351.819, 2031.195
353.174, 2071.232
354.530, 2330.085
355.885, 2418.941
357.240, 2677.058
358.594, 2674.207
359.949, 2932.133
361.303, 3079.378
362.657, 3095.619
364.011, 3579.090
365.365, 3533.938
366.718, 3928.928
368.071, 4153.406
369.424, 4287.244
370.777, 4710.965
372.129, 4753.555
373.481, 5075.875
374.833, 5313.624
376.185, 5462.409
377.537, 5860.605
378.888, 6034.467
380.239, 6403.617
381.590, 6573.008
382.941, 6825.438
384.291, 7172.279
385.642, 7552.165
386.992, 7879.420
388.341, 8291.354
389.691, 8714.776
391.040, 9115.398
392.389, 9625.062
393.738, 10066.724
395.087, 10556.938
396.435, 11360.008
397.784, 11843.326
399.132, 12716.639
400.479, 13489.874
401.827, 14263.515
403.174, 14877.213
404.521, 15232.252
405.868, 15916.672
407.215, 16131.582
408.561, 16187.086
409.908, 16122.043
411.254, 15637.504
412.599, 15232.401
413.945, 14587.152
415.290, 13922.889
416.636, 12987.378
417.980, 12242.220
419.325, 11346.592
420.670, 10410.890
422.014, 9705.070
423.358, 8968.653
424.702, 8212.422
426.045, 7615.603
427.389, 6916.944
428.732, 6248.838
430.075, 5859.472
431.417, 5169.426
432.760, 4909.300
434.102, 4497.992
435.444, 4146.866
436.786, 3805.219
438.127, 3542.519
439.469, 3379.132
440.810, 3021.495
442.151, 2977.125
443.492, 2762.333
444.832, 2649.588
446.172, 2643.369
447.512, 2509.030
448.852, 2516.567
450.192, 2408.435
451.531, 2536.496
452.870, 2435.062
454.209, 2508.069
455.548, 2577.150
456.887, 2708.752
458.225, 2796.204
459.563, 3059.109
460.901, 3275.798
462.238, 3633.867
463.576, 3828.259
464.913, 4228.664
466.250, 4549.207
467.587, 4842.906
468.923, 4944.115
470.259, 5319.423
471.596, 5364.733
472.931, 5454.942
474.267, 5816.602
475.603, 5915.465
476.938, 6226.502
478.273, 6617.325
479.608, 7029.293
480.942, 7801.670
482.276, 8113.786
483.611, 8576.330
484.944, 8958.553
486.278, 8842.167
487.612, 8574.997
488.945, 8508.485
490.278, 7782.307
491.611, 7036.214
492.943, 6500.079
494.276, 5793.943
495.608, 4837.693
496.940, 4402.159
498.271, 3587.464
499.603, 3123.249
500.934, 2888.897
502.265, 2465.402
503.596, 1925.017
504.927, 1695.513
506.257, 1464.917
507.587, 1313.866
508.917, 1192.199
510.247, 1082.662
511.577, 929.314
512.906, 818.097
514.235, 718.897
515.564, 592.271
516.892, 612.790
518.221, 414.109
519.549, 527.985
520.877, 446.711
522.205, 417.095
523.533, 485.750
524.860, 365.332
526.187, 363.944
527.514, 324.498
528.841, 402.092
530.167, 268.064
531.493, 324.501
532.820, 289.667
534.145, 277.330
535.471, 247.154
536.796, 292.267
538.122, 175.296
539.447, 254.860
540.771, 164.300
542.096, 144.964
543.420, 215.723
544.744, 178.642
546.068, 147.602
547.392, 121.500
548.715, 170.369
550.039, 143.631
551.362, 54.799
552.684, 167.358
554.007, 69.523
555.329, 38.863
556.652, 105.037
557.973, 71.665
559.295, 172.245
560.617, 55.651
561.938, 141.365
563.259, 40.161
564.580, 58.205
565.901, 120.683
567.221, 57.429
568.541, 167.956
569.861, 103.473
571.181, 214.920
572.501, 225.888
573.820, 6.600
575.139, 242.478
576.458, 135.231
577.777, 223.426
579.095, 219.046
580.414, 209.185
581.732, 312.932
583.049, 145.936
584.367, 198.686
585.685, 364.289
587.002, 245.627
588.319, 408.959
589.636, 394.100
590.952, 444.377
592.268, 552.509
593.585, 397.587
594.900, 560.608
596.216, 525.596
597.532, 660.554
598.847, 752.502
600.162, 763.443
601.477, 967.376
602.792, 1041.333
604.106, 1294.305
605.420, 1399.265
606.734, 1480.245
608.048, 1696.246
609.361, 1788.285
610.675, 1953.376
611.988, 2001.525
613.301, 2142.705
614.614, 2123.967
615.926, 2069.266
617.238, 2145.618
618.550, 2043.044
619.862, 1958.530
621.174, 1897.067
622.485, 1777.651
623.797, 1602.276
625.108, 1498.966
626.418, 1358.725
627.729, 1371.521
629.039, 1149.340
630.349, 1117.179
631.659, 936.016
632.969, 955.846
634.279, 845.681
635.588, 662.523
636.897, 883.378
638.206, 1009.221
639.515, 424.051
640.823, 483.870
642.131, 416.675
643.439, 495.468
644.747, 369.242
646.055, 366.011
647.362, 362.762
648.669, 258.492
649.976, 346.200
651.283, 333.887
652.589, 251.552
653.896, 346.196
655.202, 160.816
656.508, 133.407
657.814, 141.964
659.119, 100.491
660.424, 242.980
661.729, 93.439
663.034, 93.861
664.339, 8.753
665.643, 68.590
666.947, 16.896
668.251, 7.110
669.555, 139.390
670.859, 68.417
672.162, 33.711
673.465, 12.198
674.768, 56.149
676.071, 28.144
677.373, 23.105
678.676, 39.727
679.978, 30.486
681.280, 104.032
682.581, 12.864
683.883, 11.735
685.184, 49.578
686.485, 77.613
687.786, 68.117
689.087, 48.244
690.387, 54.306
691.687, 14.053
692.987, 21.954
694.287, 117.663
695.586, 32.988
696.886, 6.658
698.185, 105.908
699.484, 69.600
700.783, 27.634
702.081, 22.791
703.379, 13.989
704.677, 7.279
705.975, 138.925
707.273, 51.292
708.570, 43.629
709.868, 9.996
711.165, 57.046
712.462, 95.710
713.758, 0.189
715.055, 207.315
716.351, 315.805
717.647, 7.024
718.943, 110.079
720.238, 34.706
721.533, 153.482
722.829, 72.894
724.124, 108.003
725.418, 95.133
726.713, 94.371
728.007, 193.173
729.301, 47.071
730.595, 132.492
731.889, 194.314
733.182, 72.891
734.476, 194.539
735.769, 55.351
737.061, 142.576
738.354, 66.599
739.647, 117.881
740.939, 142.397
742.231, 193.266
743.523, 186.446
744.814, 237.899
746.106, 182.311
747.397, 212.447
748.688, 215.892
749.978, 228.694
751.269, 268.115
752.559, 284.958
753.849, 323.068
755.139, 358.990
756.429, 323.500
757.719, 370.607
759.008, 322.534
760.297, 418.194
761.586, 453.892
762.875, 413.790
764.163, 457.783
765.451, 534.830
766.739, 611.078
768.027, 579.026
769.315, 560.702
770.602, 730.582
771.890, 598.080
773.177, 770.038
774.463, 692.124
775.750, 714.654
777.036, 873.618
778.323, 791.146
779.609, 874.135
780.894, 850.860
782.180, 822.175
783.465, 909.289
784.750, 788.753
786.035, 898.938
787.320, 868.812
788.605, 809.232
789.889, 722.770
791.173, 802.984
792.457, 749.068
793.741, 730.360
795.024, 676.584
796.307, 736.756
797.591, 677.833
798.873, 708.946
800.156, 701.385
801.439, 554.202
802.721, 629.166
804.003, 675.750
805.285, 645.473
806.566, 743.205
807.848, 591.689
809.129, 716.393
810.410, 729.677
811.691, 627.588
812.971, 894.625
814.252, 822.350
815.532, 964.645
816.812, 1154.290
818.092, 1020.912
819.371, 1283.876
820.651, 1201.343
821.930, 1287.647
823.209, 1075.740
824.488, 1053.431
825.766, 1102.691
827.045, 853.893
828.323, 733.545
829.601, 702.324
830.878, 597.433
832.156, 551.597
833.433, 536.011
834.710, 307.066
835.987, 360.121
837.264, 315.062
838.540, 413.980
839.817, 207.778
841.093, 234.120
842.369, 245.922
843.644, 170.923
844.920, 228.356
846.195, 287.581
847.470, 180.461
848.745, 278.375
850.020, 94.721
851.294, 219.135
852.568, 126.269
853.842, 10.764
855.116, 270.988
856.390, 88.640
857.663, 174.306
858.936, 132.932
860.209, 69.096
861.482, 305.282
862.755, 210.020
864.027, 167.085
865.299, 195.915
866.571, 55.839
867.843, 101.231
869.115, 111.595
870.386, 68.058
871.657, 167.134
872.928, 11.052
874.199, 149.635
875.470, 56.704
876.740, 61.421
878.010, 10.272
879.280, 69.047
880.550, 41.805
881.820, 27.959
883.089, 117.485
884.358, 54.359
885.627, 21.475
886.896, 70.064
888.164, 27.148
889.433, 60.368
890.701, 60.407
891.969, 33.155
893.236, 16.553
894.504, 138.110
895.771, 25.030
897.038, 18.247
898.305, 29.654
899.572, 30.646
900.838, 27.125
902.105, 43.109
903.371, 24.642
904.637, 109.367
905.902, 46.928
907.168, 117.722
908.433, 40.649
909.698, 60.928
910.963, 97.484
912.228, 8.020
913.492, 159.527
914.757, 15.984
916.021, 55.466
917.285, 35.895
918.548, 6.698
919.812, 45.675
921.075, 112.973
922.338, 48.291
923.601, 140.534
924.864, 21.759
926.126, 13.967
927.388, 102.152
928.650, 73.682
929.912, 87.418
931.174, 75.500
932.435, 24.516
933.697, 114.511
934.958, 4.488
936.218, 62.441
937.479, 133.375
938.739, 7.293
940.000, 48.190
941.260, 41.930
942.520, 54.097
943.779, 103.684
945.039, 45.449
946.298, 53.195
947.557, 56.925
948.816, 71.638
950.074, 54.333
951.333, 29.987
952.591, 162.654
953.849, 64.282
955.107, 170.894
956.365, 213.491
957.622, 94.076
958.879, 101.646
960.136, 84.204
961.393, 44.748
962.650, 192.277
963.906, 70.811
965.162, 137.332
966.418, 104.844
967.674, 101.344
968.930, 163.835
970.185, 94.317
971.441, 161.794
972.696, 72.263
973.950, 49.725
975.205, 169.179
976.459, 123.625
977.714, 161.077
978.968, 179.522
980.222, 78.963
981.475, 254.409
982.729, 210.849
983.982, 155.286
985.235, 317.726
986.488, 116.159
987.740, 386.609
988.993, 228.054
990.245, 313.494
991.497, 361.938
992.749, 246.394
994.000, 210.878
995.252, 454.261
996.503, 279.747
997.754, 425.232
999.005, 397.683
1000.256, 396.195
1001.506, 473.351
1002.756, 294.864
1004.006, 525.161
1005.256, 598.389
1006.506, 513.225
1007.755, 573.271
1009.005, 455.544
1010.254, 435.881
1011.502, 483.949
1012.751, 355.467
1014.000, 511.980
1015.248, 466.482
1016.496, 473.006
1017.744, 606.064
1018.991, 727.313
1020.239, 961.604
1021.486, 877.183
1022.733, 849.078
1023.980, 748.757
1025.227, 663.207
1026.473, 634.266
1027.719, 761.345
1028.965, 634.850
1030.211, 663.959
1031.457, 749.956
1032.702, 543.888
1033.948, 843.198
1035.193, 778.245
1036.438, 796.072
1037.682, 749.182
1038.927, 723.098
1040.171, 854.543
1041.415, 894.610
1042.659, 713.704
1043.903, 917.771
1045.146, 872.168
1046.390, 948.742
1047.633, 888.717
1048.876, 783.659
1050.118, 1021.912
1051.361, 878.834
1052.603, 881.365
1053.845, 893.258
1055.087, 798.538
1056.329, 865.858
1057.571, 807.176
1058.812, 778.882
1060.053, 932.965
1061.294, 738.209
1062.535, 887.694
1063.775, 829.117
1065.016, 734.314
1066.256, 837.389
1067.496, 683.381
1068.736, 765.146
1069.975, 775.186
1071.214, 684.471
1072.454, 835.526
1073.693, 836.938
1074.931, 770.913
1076.170, 939.685
1077.408, 871.984
1078.647, 881.824
1079.885, 922.073
1081.122, 835.836
1082.360, 1050.846
1083.597, 964.228
1084.835, 1039.784
1086.072, 1164.963
1087.308, 1157.395
1088.545, 1264.810
1089.781, 1259.951
1091.018, 1230.950
1092.254, 1271.245
1093.490, 1246.646
1094.725, 1324.810
1095.961, 1327.127
1097.196, 1304.247
1098.431, 1399.549
1099.666, 1462.788
1100.900, 1565.676
1102.135, 1601.159
1103.369, 1486.471
1104.603, 1622.042
1105.837, 1537.543
1107.071, 1473.011
1108.304, 1588.520
1109.538, 1653.966
1110.771, 1539.258
1112.004, 1697.636
1113.236, 1503.058
1114.469, 1568.602
1115.701, 1654.153
1116.933, 1509.711
1118.165, 1575.293
1119.397, 1460.863
1120.629, 1576.553
1121.860, 1692.060
1123.091, 1507.485
1124.322, 1643.085
1125.553, 1608.692
1126.783, 1494.307
1128.014, 1559.930
1129.244, 1515.537
1130.474, 1591.175
1131.704, 1596.821
1132.933, 1412.477
1134.163, 1438.140
1135.392, 1503.840
1136.621, 1589.642
1137.850, 1595.331
1139.079, 1355.028
1140.307, 1506.735
1141.535, 1457.043
1142.763, 1362.767
1143.991, 1478.673
1145.219, 1404.476
1146.446, 1440.220
1147.674, 1467.291
1148.901, 1413.054
1150.128, 1528.828
1151.354, 1407.064
1152.581, 1309.852
1153.807, 1438.660
1155.033, 1424.479
1156.259, 1340.309
1157.485, 1358.414
1158.710, 1268.301
1159.936, 1320.164
1161.161, 1366.040
1162.386, 1044.927
1163.611, 1307.789
1164.835, 1154.662
1166.060, 1199.548
1167.284, 1213.623
1168.508, 1054.531
1169.732, 978.452
1170.955, 1075.539
1172.179, 985.488
1173.402, 1073.450
1174.625, 885.426
1175.848, 883.412
1177.070, 968.417
1178.293, 894.356
1179.515, 821.303
1180.737, 898.344
1181.959, 710.287
1183.181, 823.189
1184.402, 744.104
1185.624, 559.024
1186.845, 732.901
1188.066, 644.803
1189.286, 642.709
1190.507, 621.838
1191.727, 457.770
1192.947, 520.697
1194.167, 384.902
1195.387, 394.849
1196.607, 451.796
1197.826, 234.986
1199.045, 302.944
1200.264, 398.973
1201.483, 212.954
1202.702, 400.932
1203.920, 205.144
1205.138, 300.130
1206.356, 263.120
1207.574, 93.460
1208.792, 187.452
1210.009, 228.420
1211.227, 169.183
1212.444, 219.701
1213.661, 84.983
1214.877, 62.962
1216.094, 247.998
1217.310, 105.082
1218.526, 100.174
1219.742, 270.307
1220.958, 40.496
1222.173, 177.745
1223.389, 156.009
1224.604, 78.289
1225.819, 236.603
1227.034, 82.987
1228.248, 0.606
1229.463, 241.819
1230.677, 43.280
1231.891, 179.771
1233.105, 2.279
1234.318, 29.193
1235.532, 138.354
1236.745, 21.893
1237.958, 20.449
1239.171, 126.025
1240.384, 51.618
1241.596, 51.231
1242.809, 81.864
1244.021, 132.517
1245.233, 169.188
1246.444, 33.882
1247.656, 81.594
1248.867, 249.324
1250.079, 2.923
1251.290, 112.796
1252.500, 118.532
1253.711, 19.281
1254.921, 102.041
1256.132, 97.792
1257.342, 59.438
1258.552, 209.337
1259.761, 104.116
1260.971, 115.915
1262.180, 138.732
1263.389, 15.570
1264.598, 163.426
1265.807, 0.699
1267.015, 119.194
1268.223, 125.109
1269.432, 81.045
1270.640, 69.002
1271.847, 236.984
1273.055, 83.991
1274.262, 165.026
1275.470, 74.084
1276.677, 178.169
1277.883, 253.280
1279.090, 206.418
1280.296, 31.585
1281.503, 10.781
1282.709, 107.007
1283.915, 101.243
1285.120, 107.517
1286.326, 71.161
1287.531, 144.208
1288.736, 8.615
1289.941, 32.840
1291.146, 152.284
1292.350, 16.236
1293.555, 203.251
1294.759, 130.798
1295.963, 31.621
1297.167, 232.342
1298.370, 140.956
1299.574, 115.605
1300.777, 144.288
1301.980, 24.993
1303.183, 60.758
1304.386, 112.341
1305.588, 128.161
1306.790, 78.020
1307.993, 99.722
1309.195, 103.462
1310.396, 143.235
1311.598, 33.989
1312.799, 194.479
1314.000, 209.347
1315.201, 46.251
1316.402, 155.190
1317.603, 215.163
1318.803, 98.172
1320.003, 271.642
1321.203, 165.698
1322.403, 233.190
1323.603, 303.935
1324.802, 65.140
1326.002, 288.666
1327.201, 175.382
1328.400, 76.138
1329.599, 328.786
1330.797, 110.102
1331.995, 116.915
1333.194, 249.702
1334.392, 26.466
1335.589, 197.837
1336.787, 217.936
1337.985, 20.632
1339.182, 219.866
1340.379, 170.190
1341.576, 24.015
1342.772, 204.976
1343.969, 59.057
1345.165, 138.023
1346.361, 296.371
1347.557, 33.185
1348.753, 134.047
1349.949, 285.599
1351.144, 5.206
1352.339, 350.735
1353.534, 159.476
1354.729, 29.610
1355.924, 164.006
1357.118, 0.000
##END=



