##NAMES=Heulandite-Ca
##RRUFFID=R050097
##IDEAL CHEMISTRY=(Ca,Na,K)_5_(Si_27_Al_9_)O_72_&#183;26H_2_O
##LOCALITY=Rat's Nest Claim, Custer County, Idaho, USA
##OWNER=RRUFF
##SOURCE=John Cornish
##DESCRIPTION=Pale pink coffin-shaped tabular single crystals
##STATUS=The identification of this mineral has been confirmed by X-ray diffraction and chemical analysis
##URL=rruff.info/R050097
##MEASURED CHEMISTRY=(Ca_0.66_Na_0.30_K_0.04_)_5_(Si_0.77_Al_0.23_)_36_O_72_Â·24H_2_O
##PIN_ID=L00358
##ORIENTATION=Laser parallel to -b* (0 -1 0). Fiducial mark perpendicular to laser is parallel to c [0 0 1]
219.967, 0.000
221.341, 14.552
222.714, 67.140
224.087, 59.465
225.460, 6.841
226.832, 111.648
228.204, 56.165
229.577, 120.808
230.948, 118.093
232.320, 197.392
233.692, 280.381
235.063, 351.896
236.434, 412.357
237.805, 459.414
239.175, 644.410
240.545, 683.974
241.916, 875.227
243.286, 934.271
244.655, 952.180
246.025, 1174.020
247.394, 1287.832
248.763, 1251.648
250.132, 1469.592
251.501, 1283.432
252.869, 1431.097
254.237, 1372.278
255.605, 1451.705
256.973, 1290.466
258.340, 1124.793
259.708, 1177.289
261.075, 977.950
262.442, 1184.768
263.808, 948.748
265.175, 979.894
266.541, 849.219
267.907, 492.735
269.273, 932.438
270.639, 498.316
272.004, 508.354
273.369, 427.536
274.734, 244.844
276.099, 317.266
277.463, 295.786
278.828, 352.393
280.192, 3.072
281.556, 240.813
282.919, 33.388
284.283, 56.460
285.646, 62.348
287.009, 103.726
288.372, 28.231
289.734, 52.783
291.097, 25.775
292.459, 59.745
293.821, 34.303
295.183, 151.367
296.544, 148.472
297.905, 146.646
299.266, 88.902
300.627, 146.240
301.988, 158.439
303.348, 231.193
304.709, 246.714
306.069, 278.516
307.428, 318.412
308.788, 286.461
310.147, 287.719
311.507, 420.255
312.865, 331.072
314.224, 484.048
315.583, 448.138
316.941, 450.300
318.299, 633.489
319.657, 426.714
321.015, 513.933
322.372, 406.109
323.729, 479.235
325.086, 482.303
326.443, 432.313
327.800, 524.269
329.156, 624.167
330.512, 773.012
331.868, 665.802
333.224, 756.531
334.579, 949.203
335.935, 719.761
337.290, 901.237
338.645, 757.634
339.999, 881.983
341.354, 941.289
342.708, 1084.549
344.062, 1148.763
345.416, 1236.934
346.769, 1326.060
348.123, 1355.143
349.476, 1477.178
350.829, 1656.171
352.182, 1679.122
353.534, 2019.031
354.887, 1909.897
356.239, 2202.733
357.591, 2361.542
358.942, 2504.320
360.294, 2769.075
361.645, 2856.805
362.996, 3192.509
364.347, 3393.188
365.698, 3567.842
367.048, 3938.473
368.398, 4174.084
369.748, 4484.672
371.098, 4555.818
372.448, 5193.150
373.797, 5327.996
375.146, 5403.646
376.495, 5858.970
377.844, 5812.232
379.192, 6365.475
380.540, 6714.232
381.889, 7166.965
383.236, 7653.715
384.584, 7889.540
385.932, 8637.570
387.279, 8964.725
388.626, 9519.909
389.973, 10392.142
391.319, 10980.298
392.666, 11746.926
394.012, 12195.150
395.358, 13512.854
396.704, 13767.690
398.049, 14311.589
399.394, 15266.609
400.740, 15507.310
402.084, 16123.878
403.429, 15746.613
404.774, 15937.834
406.118, 15406.088
407.462, 14838.048
408.806, 14550.412
410.150, 13462.664
411.493, 12978.543
412.836, 11958.033
414.179, 11249.070
415.522, 10677.035
416.865, 9656.093
418.207, 9294.894
419.549, 8433.632
420.891, 7965.746
422.233, 7123.537
423.575, 6782.079
424.916, 6107.140
426.257, 5659.485
427.598, 5220.406
428.939, 4740.314
430.279, 4254.205
431.619, 3998.080
432.959, 3714.937
434.299, 3579.772
435.639, 3096.590
436.978, 3189.386
438.318, 2911.159
439.657, 2625.910
440.996, 2592.640
442.334, 2305.324
443.673, 2402.005
445.011, 2409.486
446.349, 2010.118
447.687, 2226.725
449.024, 2009.085
450.361, 2168.639
451.699, 2097.160
453.036, 2164.883
454.372, 2473.003
455.709, 2475.451
457.045, 2967.870
458.381, 3016.261
459.717, 3461.625
461.053, 3907.959
462.388, 4031.264
463.724, 4729.537
465.059, 5138.783
466.394, 5435.996
467.728, 5841.178
469.063, 5947.324
470.397, 6151.439
471.731, 6482.518
473.065, 6799.561
474.398, 7392.566
475.732, 7613.533
477.065, 8402.459
478.398, 8897.347
479.731, 9778.192
481.063, 10146.403
482.396, 11280.169
483.728, 11515.009
485.060, 11325.047
486.391, 11532.690
487.723, 10618.718
489.054, 9978.664
490.385, 9087.104
491.716, 7655.025
493.047, 7009.484
494.377, 5783.627
495.708, 4995.795
497.038, 4266.678
498.368, 3519.857
499.697, 2947.092
501.027, 2467.934
502.356, 1999.832
503.685, 1654.498
505.014, 1347.778
506.342, 1156.322
507.671, 997.896
508.999, 950.022
510.327, 759.373
511.655, 676.350
512.982, 573.525
514.310, 488.436
515.637, 565.881
516.964, 450.885
518.291, 488.443
519.617, 250.521
520.944, 58.658
522.270, 378.195
523.596, 202.078
524.921, 260.300
526.247, 95.097
527.572, 208.631
528.897, 120.413
530.222, 221.478
531.547, 55.658
532.871, 137.212
534.196, 48.646
535.520, 40.255
536.844, 82.700
538.167, 42.056
539.491, 107.568
540.814, 113.064
542.137, 208.584
543.460, 160.952
544.783, 165.299
546.105, 46.577
547.427, 22.222
548.749, 151.173
550.071, 53.551
551.393, 32.815
552.714, 12.168
554.035, 76.496
555.356, 26.779
556.677, 78.888
557.998, 112.408
559.318, 107.325
560.638, 89.438
561.958, 124.058
563.278, 116.062
564.597, 52.968
565.917, 21.345
567.236, 87.025
568.555, 56.780
569.874, 47.909
571.192, 39.769
572.511, 68.379
573.829, 34.590
575.147, 189.859
576.464, 35.141
577.782, 236.544
579.099, 144.798
580.416, 219.052
581.733, 276.323
583.050, 388.421
584.366, 316.678
585.683, 421.679
586.999, 479.895
588.315, 417.815
589.630, 464.838
590.946, 709.678
592.261, 657.451
593.576, 832.176
594.891, 813.856
596.206, 1176.488
597.520, 1428.071
598.834, 1216.604
600.148, 1631.086
601.462, 1571.521
602.776, 1893.901
604.089, 2058.239
605.402, 2068.525
606.715, 2283.781
608.028, 2457.036
609.341, 2354.253
610.653, 2447.437
611.965, 2339.572
613.277, 2176.682
614.589, 2044.738
615.901, 1933.896
617.212, 1821.146
618.523, 1707.685
619.834, 1637.580
621.145, 1519.435
622.456, 1427.238
623.766, 1287.990
625.076, 1213.689
626.386, 1102.337
627.696, 954.934
629.006, 998.489
630.315, 671.995
631.624, 665.447
632.933, 653.849
634.242, 522.204
635.551, 571.508
636.859, 623.767
638.167, 308.974
639.475, 448.125
640.783, 377.224
642.090, 320.271
643.398, 415.270
644.705, 302.216
646.012, 311.105
647.318, 46.942
648.625, 296.709
649.931, 158.420
651.237, 223.072
652.543, 206.665
653.849, 75.200
655.155, 183.670
656.460, 160.079
657.765, 65.444
659.070, 226.743
660.375, 56.983
661.679, 146.161
662.984, 78.277
664.288, 69.330
665.592, 117.317
666.895, 85.242
668.199, 128.104
669.502, 21.903
670.805, 122.631
672.108, 56.297
673.411, 98.898
674.713, 174.436
676.016, 78.915
677.318, 65.778
678.620, 144.453
679.921, 83.715
681.223, 197.173
682.524, 81.896
683.825, 106.631
685.126, 266.167
686.427, 185.983
687.727, 33.202
689.028, 280.474
690.328, 295.816
691.628, 390.312
692.927, 131.990
694.227, 278.689
695.526, 223.498
696.825, 210.950
698.124, 190.134
699.423, 222.253
700.721, 199.839
702.020, 210.439
703.318, 212.949
704.616, 225.359
705.913, 279.353
707.211, 310.255
708.508, 296.538
709.805, 292.978
711.102, 272.083
712.399, 243.331
713.695, 171.787
714.992, 224.210
716.288, 229.079
717.584, 415.736
718.879, 120.561
720.175, 361.300
721.470, 210.388
722.765, 119.749
724.060, 281.355
725.355, 159.871
726.649, 352.209
727.944, 286.825
729.238, 161.489
730.532, 278.340
731.825, 125.957
733.119, 178.694
734.412, 303.105
735.705, 252.225
736.998, 233.633
738.291, 352.603
739.584, 214.547
740.876, 415.225
742.168, 207.565
743.460, 358.458
744.752, 227.425
746.043, 258.633
747.334, 328.596
748.626, 476.490
749.916, 359.509
751.207, 340.469
752.498, 324.427
753.788, 290.310
755.078, 328.123
756.368, 444.633
757.658, 403.030
758.947, 448.577
760.237, 478.898
761.526, 421.551
762.815, 503.820
764.104, 533.199
765.392, 570.718
766.680, 707.844
767.969, 704.905
769.257, 722.954
770.544, 959.018
771.832, 800.262
773.119, 912.102
774.406, 872.997
775.693, 1138.167
776.980, 963.179
778.267, 1083.112
779.553, 1488.854
780.839, 1184.557
782.125, 1303.458
783.411, 1251.659
784.697, 1281.483
785.982, 1255.135
787.267, 1255.141
788.552, 1234.105
789.837, 1264.926
791.122, 1176.924
792.406, 1176.390
793.690, 1154.312
794.974, 1277.606
796.258, 1108.062
797.542, 1195.090
798.825, 1098.276
800.108, 1078.998
801.391, 1026.830
802.674, 872.987
803.957, 989.586
805.239, 992.779
806.522, 1099.006
807.804, 946.130
809.085, 1045.467
810.367, 984.430
811.649, 921.758
812.930, 974.914
814.211, 1161.965
815.492, 904.578
816.772, 902.232
818.053, 1122.389
819.333, 845.439
820.613, 1021.867
821.893, 864.996
823.173, 824.426
824.452, 663.588
825.732, 748.939
827.011, 602.686
828.290, 586.799
829.568, 293.287
830.847, 313.186
832.125, 477.953
833.403, 250.246
834.681, 212.123
835.959, 173.592
837.236, 375.412
838.514, 131.424
839.791, 204.117
841.068, 281.455
842.345, 138.605
843.621, 38.301
844.898, 31.041
846.174, 76.889
847.450, 39.062
848.726, 120.607
850.001, 114.910
851.277, 241.141
852.552, 6.732
853.827, 163.498
855.102, 26.617
856.376, 131.758
857.651, 150.902
858.925, 5.109
860.199, 9.615
861.473, 35.277
862.746, 87.131
864.020, 51.369
865.293, 15.176
866.566, 128.133
867.839, 95.188
869.112, 49.521
870.384, 114.938
871.656, 20.752
872.928, 210.830
874.200, 10.309
875.472, 28.770
876.744, 100.359
878.015, 149.795
879.286, 11.426
880.557, 23.178
881.828, 98.918
883.098, 56.158
884.369, 49.889
885.639, 45.006
886.909, 121.307
888.178, 88.980
889.448, 82.582
890.717, 33.908
891.987, 101.695
893.256, 8.930
894.524, 65.371
895.793, 106.885
897.061, 78.367
898.330, 9.680
899.598, 57.109
900.865, 62.537
902.133, 15.057
903.401, 25.322
904.668, 14.682
905.935, 22.021
907.202, 166.346
908.468, 8.652
909.735, 137.941
911.001, 59.215
912.267, 162.475
913.533, 69.283
914.799, 113.090
916.064, 31.975
917.330, 36.895
918.595, 157.152
919.860, 48.814
921.124, 115.180
922.389, 78.158
923.653, 134.875
924.918, 30.992
926.182, 117.859
927.445, 39.299
928.709, 36.508
929.972, 44.303
931.236, 179.086
932.499, 83.406
933.761, 19.617
935.024, 46.635
936.286, 17.078
937.549, 47.779
938.811, 133.469
940.073, 22.848
941.334, 42.816
942.596, 30.529
943.857, 40.102
945.118, 170.723
946.379, 184.334
947.640, 1.061
948.900, 23.465
950.161, 86.111
951.421, 311.688
952.681, 27.258
953.940, 94.824
955.200, 211.389
956.459, 1.949
957.719, 203.506
958.978, 189.059
960.236, 84.609
961.495, 368.164
962.753, 73.283
964.012, 175.236
965.270, 149.758
966.527, 15.721
967.785, 236.795
969.043, 66.311
970.300, 251.830
971.557, 89.400
972.814, 214.971
974.071, 133.545
975.327, 100.119
976.583, 153.701
977.840, 115.287
979.095, 149.877
980.351, 120.471
981.607, 287.066
982.862, 191.668
984.117, 326.271
985.372, 140.879
986.627, 431.492
987.882, 269.021
989.136, 428.643
990.390, 340.021
991.644, 168.654
992.898, 452.291
994.152, 642.740
995.405, 407.779
996.659, 595.795
997.912, 346.438
999.165, 621.508
1000.417, 661.932
1001.670, 538.344
1002.922, 930.012
1004.174, 466.186
1005.426, 578.844
1006.678, 826.941
1007.930, 607.494
1009.181, 718.139
1010.432, 648.037
1011.683, 766.100
1012.934, 865.293
1014.185, 735.672
1015.435, 828.953
1016.685, 915.889
1017.935, 795.516
1019.185, 1009.018
1020.435, 937.342
1021.684, 1095.951
1022.934, 1055.174
1024.183, 814.941
1025.432, 1207.301
1026.680, 1111.625
1027.929, 1013.250
1029.177, 1188.029
1030.425, 1282.307
1031.673, 1165.641
1032.921, 1133.299
1034.169, 1022.789
1035.416, 1401.262
1036.663, 1307.754
1037.911, 1260.539
1039.157, 1419.197
1040.404, 1137.836
1041.650, 1181.119
1042.897, 1195.855
1044.143, 1231.523
1045.389, 1320.902
1046.634, 1247.691
1047.880, 1387.371
1049.125, 1347.775
1050.371, 1301.627
1051.615, 1165.031
1052.860, 1181.521
1054.105, 1034.033
1055.349, 990.516
1056.593, 1002.039
1057.837, 1018.799
1059.081, 1095.436
1060.325, 1159.350
1061.568, 1196.084
1062.812, 1225.016
1064.055, 1084.584
1065.298, 1145.439
1066.540, 1089.291
1067.783, 1340.908
1069.025, 1205.887
1070.267, 1358.902
1071.509, 1348.902
1072.751, 1514.859
1073.993, 1364.609
1075.234, 1665.738
1076.475, 1534.783
1077.716, 1646.527
1078.957, 1654.404
1080.198, 1631.334
1081.438, 1801.430
1082.679, 1841.537
1083.919, 1968.422
1085.159, 1885.984
1086.398, 1706.898
1087.638, 2166.965
1088.877, 1942.143
1090.116, 2133.082
1091.355, 2480.188
1092.594, 1827.812
1093.833, 2256.953
1095.071, 2232.207
1096.309, 2165.475
1097.547, 2580.443
1098.785, 2169.582
1100.023, 2231.441
1101.260, 2464.775
1102.498, 2287.018
1103.735, 2383.385
1104.972, 2280.768
1106.208, 2153.961
1107.445, 2359.379
1108.681, 2289.812
1109.918, 2181.809
1111.154, 2208.279
1112.389, 2076.273
1113.625, 2363.828
1114.860, 2235.357
1116.096, 2252.283
1117.331, 2289.848
1118.566, 2079.436
1119.800, 2476.186
1121.035, 2394.814
1122.269, 2300.467
1123.503, 2514.141
1124.737, 2195.834
1125.971, 2228.553
1127.205, 2542.293
1128.438, 2118.059
1129.671, 2409.846
1130.904, 2231.658
1132.137, 2391.494
1133.370, 2247.355
1134.602, 2431.244
1135.834, 2237.156
1137.066, 2674.354
1138.298, 2096.305
1139.530, 2307.980
1140.762, 2675.104
1141.993, 2099.137
1143.224, 2707.230
1144.455, 2307.301
1145.686, 2284.398
1146.917, 2479.555
1148.147, 2366.732
1149.377, 2502.939
1150.607, 2306.182
1151.837, 2065.453
1153.067, 2459.754
1154.296, 2242.869
1155.526, 2206.010
1156.755, 2302.174
1157.984, 2138.363
1159.213, 2104.582
1160.441, 2166.826
1161.670, 1926.088
1162.898, 2158.375
1164.126, 1791.684
1165.354, 2016.020
1166.581, 1781.375
1167.809, 1738.748
1169.036, 1716.049
1170.263, 1810.375
1171.490, 1651.727
1172.717, 1650.980
1173.943, 1573.379
1175.170, 1461.811
1176.396, 1464.811
1177.622, 1294.350
1178.848, 1399.381
1180.073, 1387.309
1181.299, 1072.914
1182.524, 1330.354
1183.749, 1079.535
1184.974, 1087.426
1186.199, 1079.338
1187.423, 703.291
1188.648, 1019.301
1189.872, 777.352
1191.096, 854.432
1192.320, 781.543
1193.543, 489.691
1194.767, 792.867
1195.990, 653.066
1197.213, 414.297
1198.436, 752.629
1199.659, 595.057
1200.881, 371.539
1202.104, 592.064
1203.326, 339.715
1204.548, 491.418
1205.770, 345.168
1206.991, 225.953
1208.213, 541.787
1209.434, 400.670
1210.655, 326.590
1211.876, 411.559
1213.096, 413.574
1214.317, 440.627
1215.537, 427.084
1216.757, 166.848
1217.977, 365.014
1219.197, 247.217
1220.417, 221.455
1221.636, 479.752
1222.855, 92.107
1224.074, 168.510
1225.293, 384.889
1226.512, 25.238
1227.731, 308.627
1228.949, 345.053
1230.167, 152.516
1231.385, 280.018
1232.603, 256.557
1233.820, 85.135
1235.038, 589.744
1236.255, 42.615
1237.472, 432.061
1238.689, 280.777
1239.906, 37.529
1241.122, 369.318
1242.338, 118.115
1243.555, 185.953
1244.771, 344.834
1245.986, 50.244
1247.202, 500.719
1248.417, 61.723
1249.633, 48.771
1250.848, 370.863
1252.063, 170.926
1253.277, 244.023
1254.492, 372.168
1255.706, 17.627
1256.920, 374.660
1258.134, 391.031
1259.348, 35.480
1260.562, 278.010
1261.775, 200.619
1262.988, 291.314
1264.201, 337.092
1265.414, 183.049
1266.627, 447.895
1267.839, 454.916
1269.052, 89.018
1270.264, 450.201
1271.476, 142.469
1272.688, 186.818
1273.899, 566.254
1275.111, 124.775
1276.322, 336.385
1277.533, 346.084
1278.744, 220.879
1279.955, 362.773
1281.165, 246.773
1282.376, 57.879
1283.586, 509.900
1284.796, 19.148
1286.006, 103.508
1287.215, 341.990
1288.425, 123.098
1289.634, 460.672
1290.843, 240.381
1292.052, 221.234
1293.261, 473.037
1294.469, 355.910
1295.678, 246.127
1296.886, 509.494
1298.094, 13.209
1299.302, 430.342
1300.509, 460.871
1301.717, 153.365
1302.924, 372.797
1304.131, 232.139
1305.338, 336.354
1306.545, 172.830
1307.752, 247.195
1308.958, 219.289
1310.164, 456.605
1311.370, 270.551
1312.576, 266.023
1313.782, 408.740
1314.987, 235.699
1316.193, 796.391
1317.398, 32.250
1318.603, 530.260
1319.807, 600.930
1321.012, 105.492
1322.216, 517.730
1323.421, 404.279
1324.625, 131.451
1325.829, 488.301
1327.032, 7.496
1328.236, 0.000
##END=



