##NAMES=Heulandite-Ca
##RRUFFID=R050097
##IDEAL CHEMISTRY=(Ca,Na,K)_5_(Si_27_Al_9_)O_72_&#183;26H_2_O
##LOCALITY=Rat's Nest Claim, Custer County, Idaho, USA
##OWNER=RRUFF
##SOURCE=John Cornish
##DESCRIPTION=Pale pink coffin-shaped tabular single crystals
##STATUS=The identification of this mineral has been confirmed by X-ray diffraction and chemical analysis
##URL=rruff.info/R050097
##MEASURED CHEMISTRY=(Ca_0.66_Na_0.30_K_0.04_)_5_(Si_0.77_Al_0.23_)_36_O_72_Â·24H_2_O
##PIN_ID=M00432
##ORIENTATION=Laser parallel to -c* (0 0 -1). Fiducial mark perpendicular to laser is parallel to a [1 0 0]
82.916, 0.000
84.311, 17.014
85.706, 3.064
87.101, 297.834
88.496, 635.289
89.890, 981.162
91.284, 1496.129
92.678, 1824.814
94.071, 1988.123
95.465, 2451.316
96.858, 2676.656
98.251, 2753.641
99.644, 3356.408
101.036, 3370.289
102.428, 3705.914
103.820, 3830.250
105.212, 4044.570
106.604, 4423.438
107.995, 4687.717
109.387, 5236.305
110.777, 5314.875
112.168, 5952.512
113.559, 6313.314
114.949, 6594.047
116.339, 6957.592
117.729, 6799.211
119.119, 7294.084
120.508, 7390.672
121.897, 7238.502
123.286, 7957.172
124.675, 8061.359
126.063, 8340.771
127.452, 9100.195
128.840, 10135.496
130.228, 10348.908
131.615, 10301.293
133.003, 11318.414
134.390, 11519.168
135.777, 12333.660
137.164, 12476.238
138.550, 13897.281
139.937, 13848.535
141.323, 14471.363
142.709, 14581.453
144.094, 14739.654
145.480, 14432.645
146.865, 14303.488
148.250, 14044.334
149.635, 13381.291
151.019, 12982.482
152.403, 12106.008
153.788, 11498.949
155.171, 10793.391
156.555, 10237.391
157.939, 9398.020
159.322, 8339.340
160.705, 7667.406
162.088, 7080.273
163.470, 6473.996
164.853, 5829.637
166.235, 5153.168
167.617, 4636.602
168.998, 3970.232
170.380, 3580.242
171.761, 3099.250
173.142, 2471.836
174.523, 2313.570
175.904, 1848.996
177.284, 1503.150
178.664, 1185.062
180.044, 893.613
181.424, 636.291
182.803, 522.412
184.183, 378.598
185.562, 310.662
186.940, 381.701
188.319, 498.496
189.698, 600.709
191.076, 505.625
192.454, 721.094
193.831, 820.152
195.209, 892.910
196.586, 1237.910
197.963, 1064.051
199.340, 1159.410
200.717, 1003.949
202.093, 1332.500
203.470, 1133.195
204.846, 1187.078
206.221, 1178.256
207.597, 1105.197
208.972, 1126.928
210.347, 1008.877
211.722, 1039.811
213.097, 894.754
214.472, 728.697
215.846, 884.629
217.220, 882.521
218.594, 938.338
219.967, 1051.041
221.341, 1083.596
222.714, 1164.863
224.087, 1261.152
225.460, 1308.129
226.832, 1446.896
228.204, 1546.461
229.577, 1695.818
230.948, 1828.977
232.320, 1965.938
233.692, 2240.707
235.063, 2471.297
236.434, 2666.717
237.805, 3169.984
239.175, 3188.113
240.545, 3549.098
241.916, 4104.986
243.286, 4098.883
244.655, 4388.699
246.025, 4573.529
247.394, 4661.375
248.763, 4794.055
250.132, 4582.023
251.501, 4798.762
252.869, 4504.205
254.237, 4458.730
255.605, 4024.941
256.973, 3780.514
258.340, 3545.219
259.708, 3253.869
261.075, 3042.320
262.442, 2690.445
263.808, 2388.141
265.175, 2148.936
266.541, 1840.893
267.907, 1680.803
269.273, 1380.996
270.639, 1226.418
272.004, 983.697
273.369, 881.791
274.734, 555.672
276.099, 427.629
277.463, 283.619
278.828, 47.271
280.192, 13.527
281.556, 320.666
282.919, 221.078
284.283, 354.703
285.646, 338.590
287.009, 660.756
288.372, 635.291
289.734, 354.203
291.097, 689.432
292.459, 768.068
293.821, 593.145
295.183, 728.619
296.544, 482.537
297.905, 743.848
299.266, 558.656
300.627, 599.953
301.988, 590.793
303.348, 499.211
304.709, 536.205
306.069, 365.801
307.428, 235.947
308.788, 60.613
310.147, 133.744
311.507, 66.650
312.865, 42.629
314.224, 311.188
315.583, 183.387
316.941, 520.211
318.299, 476.715
319.657, 608.896
321.015, 790.777
322.372, 730.369
323.729, 1051.676
325.086, 1126.711
326.443, 1429.480
327.800, 1302.996
329.156, 1806.256
330.512, 1758.270
331.868, 1883.043
333.224, 2123.576
334.579, 2490.873
335.935, 2530.936
337.290, 3030.764
338.645, 3179.357
339.999, 3437.717
341.354, 3681.846
342.708, 3909.748
344.062, 4304.414
345.416, 4474.760
346.769, 4894.533
348.123, 5090.607
349.476, 5364.805
350.829, 5698.125
352.182, 6375.414
353.534, 6749.703
354.887, 7354.055
356.239, 7578.485
357.591, 8057.029
358.942, 8585.783
360.294, 9168.947
361.645, 9713.412
362.996, 10151.901
364.347, 10964.905
365.698, 11442.688
367.048, 12240.293
368.398, 13018.751
369.748, 13511.064
371.098, 14379.245
372.448, 15142.291
373.797, 15855.195
375.146, 16338.973
376.495, 17302.557
377.844, 18703.404
379.192, 19261.021
380.540, 20873.984
381.889, 21426.879
383.236, 22978.961
384.584, 24260.576
385.932, 25382.879
387.279, 26728.676
388.626, 28463.674
389.973, 30432.479
391.319, 31325.381
392.666, 33578.555
394.012, 34859.727
395.358, 36712.738
396.704, 38398.367
398.049, 39735.531
399.394, 41852.715
400.740, 41641.395
402.084, 42726.262
403.429, 42336.664
404.774, 41697.129
406.118, 41879.273
407.462, 39800.297
408.806, 38077.758
410.150, 36507.191
411.493, 34497.000
412.836, 32751.855
414.179, 30801.277
415.522, 28178.016
416.865, 26878.439
418.207, 24777.264
419.549, 22764.863
420.891, 21342.391
422.233, 19814.463
423.575, 18490.811
424.916, 16999.463
426.257, 15448.218
427.598, 14362.018
428.939, 13154.602
430.279, 12399.964
431.619, 11370.393
432.959, 10196.022
434.299, 9682.715
435.639, 8927.181
436.978, 8248.353
438.318, 7844.641
439.657, 7272.937
440.996, 7159.080
442.334, 6525.293
443.673, 6350.624
445.011, 5985.304
446.349, 6065.703
447.687, 5858.223
449.024, 5810.646
450.361, 5862.795
451.699, 5574.725
453.036, 5862.766
454.372, 5909.028
455.709, 6467.443
457.045, 6554.539
458.381, 7149.278
459.717, 7406.822
461.053, 8160.215
462.388, 8735.248
463.724, 9320.108
465.059, 10232.985
466.394, 10459.821
467.728, 10950.653
469.063, 11779.949
470.397, 11893.582
471.731, 12344.961
473.065, 13294.089
474.398, 13872.176
475.732, 15475.398
477.065, 16208.661
478.398, 18131.010
479.731, 19503.814
481.063, 21118.059
482.396, 22356.406
483.728, 23478.713
485.060, 24261.285
486.391, 23932.938
487.723, 23586.627
489.054, 22123.559
490.385, 20703.156
491.716, 19120.607
493.047, 16791.902
494.377, 14943.052
495.708, 13168.053
497.038, 11285.905
498.368, 9622.610
499.697, 8148.166
501.027, 7151.580
502.356, 6224.111
503.685, 5212.228
505.014, 4642.620
506.342, 3937.099
507.671, 3535.303
508.999, 3089.702
510.327, 2765.550
511.655, 2550.913
512.982, 2143.095
514.310, 2033.296
515.637, 1812.740
516.964, 1824.707
518.291, 1731.390
519.617, 1760.404
520.944, 1553.426
522.270, 1498.538
523.596, 1395.770
524.921, 1297.331
526.247, 1170.799
527.572, 1109.689
528.897, 1018.256
530.222, 1220.719
531.547, 1012.603
532.871, 1018.733
534.196, 1001.894
535.520, 713.754
536.844, 849.580
538.167, 866.739
539.491, 761.328
540.814, 736.392
542.137, 653.406
543.460, 486.198
544.783, 522.001
546.105, 362.967
547.427, 302.348
548.749, 188.907
550.071, 164.134
551.393, 213.612
552.714, 190.594
554.035, 186.454
555.356, 39.200
556.677, 3.795
557.998, 128.671
559.318, 41.532
560.638, 59.594
561.958, 83.477
563.278, 137.311
564.597, 24.194
565.917, 188.439
567.236, 25.319
568.555, 53.642
569.874, 72.521
571.192, 59.146
572.511, 172.695
573.829, 108.139
575.147, 40.487
576.464, 363.693
577.782, 157.783
579.099, 326.779
580.416, 378.704
581.733, 496.550
583.050, 706.326
584.366, 660.040
585.683, 1055.684
586.999, 1086.848
588.315, 1626.774
589.630, 1409.218
590.946, 1493.593
592.261, 1831.898
593.576, 1963.134
594.891, 2031.304
596.206, 2376.420
597.520, 2715.477
598.834, 3100.479
600.148, 3479.496
601.462, 3716.512
602.776, 4283.615
604.089, 4315.789
605.402, 4851.072
606.715, 5025.457
608.028, 5525.039
609.341, 5393.826
610.653, 5153.732
611.965, 5491.889
613.277, 5152.332
614.589, 5037.967
615.901, 4707.834
617.212, 4698.910
618.523, 4367.250
619.834, 4217.787
621.145, 4293.553
622.456, 3799.549
623.766, 3509.754
625.076, 3505.188
626.386, 3106.812
627.696, 3012.564
629.006, 2293.441
630.315, 2556.430
631.624, 1943.477
632.933, 1689.656
634.242, 1673.848
635.551, 1352.078
636.859, 1236.355
638.167, 907.627
639.475, 907.344
640.783, 904.158
642.090, 931.414
643.398, 1084.637
644.705, 1142.828
646.012, 1061.320
647.318, 791.098
648.625, 876.174
649.931, 723.213
651.237, 677.219
652.543, 500.188
653.849, 501.119
655.155, 562.012
656.460, 450.867
657.765, 425.688
659.070, 116.471
660.375, 179.205
661.679, 76.279
662.984, 18.545
664.288, 49.141
665.592, 6.309
666.895, 65.191
668.199, 175.354
669.502, 19.014
670.805, 146.725
672.108, 39.535
673.411, 90.400
674.713, 160.336
676.016, 48.623
677.318, 19.541
678.620, 8.586
679.921, 17.756
681.223, 49.027
682.524, 44.766
683.825, 19.533
685.126, 208.119
686.427, 206.738
687.727, 80.324
689.028, 234.873
690.328, 52.611
691.628, 247.854
692.927, 229.342
694.227, 123.393
695.526, 191.336
696.825, 333.217
698.124, 79.666
699.423, 402.756
700.721, 74.148
702.020, 247.143
703.318, 307.010
704.616, 356.508
705.913, 467.699
707.211, 239.305
708.508, 479.137
709.805, 394.807
711.102, 82.467
712.399, 565.893
713.695, 287.076
714.992, 488.645
716.288, 307.990
717.584, 504.992
718.879, 174.572
720.175, 294.623
721.470, 524.611
722.765, 315.678
724.060, 436.139
725.355, 302.951
726.649, 311.562
727.944, 321.678
729.238, 560.531
730.532, 213.420
731.825, 411.979
733.119, 478.818
734.412, 420.148
735.705, 403.801
736.998, 472.918
738.291, 441.152
739.584, 478.859
740.876, 342.721
742.168, 518.734
743.460, 457.055
744.752, 469.949
746.043, 618.457
747.334, 752.908
748.626, 600.793
749.916, 711.201
751.207, 719.945
752.498, 777.461
753.788, 905.082
755.078, 806.816
756.368, 1020.258
757.658, 975.369
758.947, 1141.832
760.237, 1341.238
761.526, 1288.619
762.815, 1459.680
764.104, 1545.340
765.392, 1667.201
766.680, 1794.371
767.969, 1904.303
769.257, 2060.152
770.544, 2148.236
771.832, 2361.113
773.119, 2342.969
774.406, 2451.135
775.693, 2501.453
776.980, 2354.799
778.267, 2694.766
779.553, 2509.238
780.839, 2624.344
782.125, 2556.203
783.411, 2706.578
784.697, 2498.012
785.982, 2434.898
787.267, 2414.453
788.552, 2334.150
789.837, 2030.910
791.122, 2222.322
792.406, 1958.387
793.690, 1827.164
794.974, 1847.266
796.258, 1486.848
797.542, 1699.857
798.825, 1452.434
800.108, 1569.664
801.391, 1264.035
802.674, 1499.744
803.957, 1478.709
805.239, 1412.887
806.522, 1624.500
807.804, 1326.072
809.085, 1862.611
810.367, 1981.154
811.649, 1826.627
812.930, 2089.064
814.211, 2244.203
815.492, 2349.584
816.772, 2741.510
818.053, 2821.172
819.333, 2832.939
820.613, 2787.342
821.893, 2847.133
823.173, 2358.244
824.452, 2284.379
825.732, 2059.281
827.011, 1870.914
828.290, 1409.818
829.568, 1354.867
830.847, 1106.445
832.125, 1080.881
833.403, 934.053
834.681, 642.055
835.959, 692.557
837.236, 685.023
838.514, 663.939
839.791, 523.053
841.068, 492.141
842.345, 408.684
843.621, 673.852
844.898, 363.867
846.174, 399.055
847.450, 627.150
848.726, 210.785
850.001, 530.865
851.277, 355.344
852.552, 390.750
853.827, 377.250
855.102, 129.607
856.376, 312.678
857.651, 459.988
858.925, 660.414
860.199, 499.826
861.473, 449.854
862.746, 583.242
864.020, 460.621
865.293, 106.984
866.566, 502.352
867.839, 106.625
869.112, 298.041
870.384, 300.457
871.656, 174.869
872.928, 8.871
874.200, 59.348
875.472, 33.818
876.744, 36.340
878.015, 162.865
879.286, 27.619
880.557, 162.896
881.828, 52.398
883.098, 165.881
884.369, 38.312
885.639, 66.783
886.909, 16.771
888.178, 61.361
889.448, 29.016
890.717, 39.662
891.987, 31.469
893.256, 1.719
894.524, 1.871
895.793, 42.020
897.061, 178.029
898.330, 30.051
899.598, 42.039
900.865, 174.990
902.133, 48.916
903.401, 30.191
904.668, 19.645
905.935, 12.447
907.202, 95.787
908.468, 32.889
909.735, 109.529
911.001, 24.141
912.267, 34.717
913.533, 39.258
914.799, 113.770
916.064, 44.752
917.330, 155.662
918.595, 116.953
919.860, 183.670
921.124, 140.477
922.389, 63.594
923.653, 119.322
924.918, 64.342
926.182, 53.564
927.445, 39.561
928.709, 56.748
929.972, 51.000
931.236, 75.320
932.499, 85.713
933.761, 87.809
935.024, 122.688
936.286, 10.717
937.549, 59.084
938.811, 222.580
940.073, 87.602
941.334, 64.754
942.596, 190.125
943.857, 213.857
945.118, 33.814
946.379, 155.256
947.640, 63.555
948.900, 190.336
950.161, 47.096
951.421, 119.828
952.681, 77.559
953.940, 267.264
955.200, 156.943
956.459, 2.602
957.719, 223.217
958.978, 237.812
960.236, 224.387
961.495, 212.939
962.753, 255.486
964.012, 232.016
965.270, 234.574
966.527, 245.117
967.785, 309.643
969.043, 353.176
970.300, 304.699
971.557, 350.207
972.814, 473.703
974.071, 371.189
975.327, 735.693
976.583, 630.689
977.840, 1025.695
979.095, 679.193
980.351, 692.693
981.607, 856.207
982.862, 709.705
984.117, 645.189
985.372, 1176.662
986.627, 770.152
987.882, 1083.627
989.136, 1013.092
990.390, 1171.545
991.644, 1209.984
992.898, 1177.406
994.152, 1222.816
995.405, 1312.207
996.659, 1327.596
997.912, 1590.973
999.165, 1611.361
1000.417, 1817.576
1001.670, 1842.975
1002.922, 2564.354
1004.174, 2097.719
1005.426, 2247.066
1006.678, 1962.961
1007.930, 1823.303
1009.181, 2049.627
1010.432, 1931.932
1011.683, 2024.900
1012.934, 2208.494
1014.185, 2080.748
1015.435, 2184.986
1016.685, 2031.660
1017.935, 2082.863
1019.185, 2120.090
1020.435, 2411.668
1021.684, 2285.814
1022.934, 2417.678
1024.183, 2639.828
1025.432, 2527.172
1026.680, 2705.385
1027.929, 2425.586
1029.177, 2610.301
1030.425, 2640.701
1031.673, 2635.369
1032.921, 2738.557
1034.169, 2605.199
1035.416, 2790.283
1036.663, 2832.467
1037.911, 2721.170
1039.157, 2810.406
1040.404, 2991.439
1041.650, 2767.857
1042.897, 3214.682
1044.143, 2850.182
1045.389, 2931.664
1046.634, 2996.816
1047.880, 2846.387
1049.125, 2815.352
1050.371, 2763.352
1051.615, 3069.893
1052.860, 2817.893
1054.105, 2846.564
1055.349, 2802.451
1056.593, 2545.211
1057.837, 2511.852
1059.081, 2794.762
1060.325, 2458.973
1061.568, 2569.816
1062.812, 2541.688
1064.055, 2440.719
1065.298, 2554.891
1066.540, 2453.428
1067.783, 2466.758
1069.025, 2283.750
1070.267, 2663.854
1071.509, 2330.082
1072.751, 2420.332
1073.993, 2630.078
1075.234, 2466.541
1076.475, 2769.381
1077.716, 3020.445
1078.957, 2866.791
1080.198, 2749.186
1081.438, 3309.291
1082.679, 3195.107
1083.919, 3270.658
1085.159, 3327.613
1086.398, 3566.322
1087.638, 3356.508
1088.877, 3741.191
1090.116, 3553.051
1091.355, 3800.074
1092.594, 3817.465
1093.833, 3667.828
1095.071, 3645.092
1096.309, 3928.170
1097.547, 4178.498
1098.785, 3720.191
1100.023, 4034.627
1101.260, 4211.758
1102.498, 4187.658
1103.735, 3856.023
1104.972, 4275.881
1106.208, 4093.680
1107.445, 4245.352
1108.681, 4255.418
1109.918, 4276.084
1111.154, 4279.080
1112.389, 4317.611
1113.625, 4190.086
1114.860, 4114.672
1116.096, 4039.250
1117.331, 4166.254
1118.566, 4062.082
1119.800, 3988.973
1121.035, 4227.771
1122.269, 3970.662
1123.503, 4245.291
1124.737, 4212.863
1125.971, 4022.035
1127.205, 4125.975
1128.438, 3730.119
1129.671, 3886.252
1130.904, 3582.564
1132.137, 3855.668
1133.370, 3768.873
1134.602, 3819.949
1135.834, 3530.018
1137.066, 3549.109
1138.298, 3843.836
1139.530, 3441.379
1140.762, 3801.879
1141.993, 3395.348
1143.224, 3458.838
1144.455, 3461.516
1145.686, 3406.723
1146.917, 3402.707
1148.147, 3570.908
1149.377, 3526.031
1150.607, 3414.604
1151.837, 3400.750
1153.067, 3142.947
1154.296, 3302.408
1155.526, 3379.270
1156.755, 3167.236
1157.984, 3156.605
1159.213, 2969.920
1160.441, 3076.383
1161.670, 3064.453
1162.898, 3122.723
1164.126, 3054.732
1165.354, 2818.631
1166.581, 2780.262
1167.809, 2794.928
1169.036, 2457.576
1170.263, 2724.207
1171.490, 2509.822
1172.717, 2662.428
1173.943, 2249.014
1175.170, 2278.588
1176.396, 2074.883
1177.622, 1925.535
1178.848, 1887.965
1180.073, 1705.934
1181.299, 1768.834
1182.524, 1677.326
1183.749, 1818.807
1184.974, 1638.600
1186.199, 1544.607
1187.423, 1366.455
1188.648, 1284.109
1189.872, 1336.910
1191.096, 1148.354
1192.320, 1182.105
1193.543, 1007.020
1194.767, 1070.406
1195.990, 844.611
1197.213, 701.982
1198.436, 617.584
1199.659, 812.023
1200.881, 620.059
1202.104, 725.033
1203.326, 510.990
1204.548, 513.809
1205.770, 362.400
1206.991, 429.941
1208.213, 346.746
1209.434, 290.994
1210.655, 129.818
1211.876, 347.680
1213.096, 231.961
1214.317, 350.639
1215.537, 245.115
1216.757, 93.668
1217.977, 307.609
1219.197, 89.180
1220.417, 190.502
1221.636, 115.084
1222.855, 227.309
1224.074, 83.639
1225.293, 3.980
1226.512, 72.434
1227.731, 25.492
1228.949, 160.578
1230.167, 55.238
1231.385, 46.730
1232.603, 81.523
1233.820, 89.004
1235.038, 40.098
1236.255, 206.320
1237.472, 129.465
1238.689, 114.578
1239.906, 222.729
1241.122, 36.863
1242.338, 0.953
1243.555, 50.078
1244.771, 88.188
1245.986, 6.277
1247.202, 89.666
1248.417, 163.291
1249.633, 200.234
1250.848, 11.135
1252.063, 204.092
1253.277, 119.957
1254.492, 25.947
1255.706, 119.775
1256.920, 54.316
1258.134, 24.463
1259.348, 180.508
1260.562, 132.141
1261.775, 131.768
1262.988, 76.627
1264.201, 68.396
1265.414, 51.891
1266.627, 73.535
1267.839, 48.984
1269.052, 110.377
1270.264, 123.758
1271.476, 255.102
1272.688, 32.424
1273.899, 454.721
1275.111, 925.996
1276.322, 175.252
1277.533, 235.490
1278.744, 196.709
1279.955, 90.092
1281.165, 321.055
1282.376, 12.182
1283.586, 62.283
1284.796, 103.277
1286.006, 110.242
1287.215, 116.389
1288.425, 106.994
1289.634, 59.760
1290.843, 6.484
1292.052, 86.902
1293.261, 164.623
1294.469, 180.117
1295.678, 69.576
1296.886, 167.998
1298.094, 152.361
1299.302, 62.307
1300.509, 23.957
1301.717, 197.131
1302.924, 97.275
1304.131, 106.387
1305.338, 67.463
1306.545, 157.496
1307.752, 106.494
1308.958, 116.463
1310.164, 351.400
1311.370, 35.311
1312.576, 344.186
1313.782, 242.031
1314.987, 307.846
1316.193, 308.633
1317.398, 345.389
1318.603, 251.115
1319.807, 331.807
1321.012, 64.467
1322.216, 249.092
1323.421, 307.682
1324.625, 131.225
1325.829, 144.711
1327.032, 275.164
1328.236, 237.582
1329.439, 159.965
1330.642, 22.689
1331.845, 115.393
1333.048, 26.828
1334.251, 155.006
1335.453, 28.852
1336.656, 22.242
1337.858, 121.299
1339.060, 43.676
1340.261, 88.701
1341.463, 44.209
1342.664, 28.092
1343.866, 36.938
1345.067, 86.244
1346.267, 21.486
1347.468, 84.227
1348.669, 35.088
1349.869, 170.553
1351.069, 178.162
1352.269, 17.748
1353.469, 397.305
1354.668, 97.836
1355.868, 84.188
1357.067, 218.676
1358.266, 32.855
1359.465, 166.574
1360.664, 162.891
1361.862, 18.955
1363.061, 161.525
1364.259, 23.469
1365.457, 11.129
1366.655, 270.908
1367.852, 214.225
1369.050, 209.213
1370.247, 181.770
1371.444, 197.412
1372.641, 103.547
1373.838, 319.283
1375.035, 30.318
1376.231, 219.264
1377.427, 151.252
1378.623, 256.186
1379.819, 214.873
1381.015, 232.473
1382.211, 308.572
1383.406, 266.631
1384.601, 312.076
1385.796, 360.273
1386.991, 437.521
1388.185, 359.061
1389.380, 413.477
1390.574, 341.576
1391.768, 344.652
1392.962, 373.994
1394.156, 225.941
1395.350, 204.441
1396.543, 380.020
1397.736, 191.365
1398.929, 276.221
1400.122, 202.709
1401.315, 420.256
1402.507, 147.572
1403.700, 300.023
1404.892, 311.268
1406.084, 285.488
1407.276, 109.430
1408.467, 417.588
1409.659, 33.648
1410.850, 284.020
1412.041, 402.539
1413.232, 3.574
1414.423, 353.885
1415.614, 265.627
1416.804, 389.801
1417.994, 359.311
1419.184, 402.072
1420.374, 270.805
1421.564, 347.516
1422.753, 219.131
1423.943, 434.113
1425.132, 405.137
1426.321, 458.203
1427.510, 591.273
1428.698, 436.160
1429.887, 377.158
1431.075, 565.686
1432.263, 511.684
1433.451, 401.645
1434.639, 537.799
1435.827, 563.586
1437.014, 633.836
1438.201, 873.326
1439.388, 860.209
1440.575, 746.168
1441.762, 938.754
1442.949, 1020.691
1444.135, 1206.543
1445.321, 1079.531
1446.507, 1218.920
1447.693, 1014.539
1448.879, 1187.857
1450.064, 1399.982
1451.250, 1351.588
1452.435, 1234.500
1453.620, 1430.168
1454.805, 1432.803
1455.989, 1364.281
1457.174, 1581.814
1458.358, 1396.385
1459.542, 1439.703
1460.726, 1608.729
1461.910, 1275.666
1463.093, 1496.102
1464.277, 1042.131
1465.460, 1038.941
1466.643, 1306.844
1467.826, 1004.424
1469.009, 1237.041
1470.191, 855.494
1471.373, 833.746
1472.556, 825.781
1473.738, 874.611
1474.919, 822.402
1476.101, 662.506
1477.283, 728.863
1478.464, 633.586
1479.645, 517.684
1480.826, 709.771
1482.007, 456.037
1483.187, 825.562
1484.368, 604.275
1485.548, 631.053
1486.728, 1083.887
1487.908, 542.711
1489.088, 409.537
1490.268, 783.367
1491.447, 460.219
1492.626, 269.135
1493.805, 341.148
1494.984, 387.533
1496.163, 241.189
1497.341, 438.062
1498.520, 448.223
1499.698, 214.691
1500.876, 150.449
1502.054, 72.514
1503.232, 124.807
1504.409, 60.430
1505.586, 151.414
1506.763, 197.838
1507.940, 218.793
1509.117, 178.348
1510.294, 100.555
1511.470, 150.500
1512.647, 18.318
1513.823, 208.203
1514.999, 25.953
1516.174, 349.705
1517.350, 9.525
1518.526, 225.975
1519.701, 111.881
1520.876, 0.000
##END=



