##NAMES=Heulandite-Ca
##RRUFFID=R050017
##IDEAL CHEMISTRY=(Ca,Na,K)_5_(Si_27_Al_9_)O_72_&#183;26H_2_O
##LOCALITY=Poona, Maharashtra State, India
##OWNER=RRUFF
##SOURCE=Eugene Schlepp
##DESCRIPTION=Single crystals
##STATUS=The identification of this mineral has been confirmed by X-ray diffraction and chemical analysis
##URL=rruff.info/R050017
##MEASURED CHEMISTRY=(Ca_.70_Na_.22_K_.02_[box]_0.06_)_5_(Si_0.77_Al_0.23_)_36_O_72_Â·24H_2_O
##PIN_ID=L00080
##ORIENTATION=Laser parallel to -a* (-1 0 0). Fiducial mark perpendicular to laser is parallel to b [0 1 0]
219.281, 0.000
220.654, 227.531
222.027, 14.297
223.400, 165.998
224.773, 86.611
226.146, 351.775
227.518, 329.195
228.891, 595.926
230.263, 723.479
231.634, 1211.430
233.006, 1613.104
234.377, 1816.895
235.748, 2315.328
237.119, 2986.543
238.490, 3238.051
239.860, 4216.879
241.231, 4507.535
242.601, 5387.299
243.970, 5927.867
245.340, 6282.443
246.709, 6762.672
248.079, 7010.088
249.448, 7531.125
250.816, 7429.137
252.185, 7792.402
253.553, 7550.152
254.921, 7460.572
256.289, 7711.828
257.657, 7218.281
259.024, 6971.143
260.391, 6812.875
261.758, 6651.566
263.125, 6261.678
264.492, 6271.738
265.858, 6023.709
267.224, 5507.324
268.590, 5238.908
269.956, 4604.916
271.321, 4310.596
272.687, 3926.619
274.052, 3745.262
275.416, 3195.707
276.781, 3146.438
278.146, 2732.426
279.510, 2342.656
280.874, 2035.105
282.237, 1787.736
283.601, 1754.508
284.964, 1107.391
286.327, 893.375
287.690, 1052.457
289.053, 764.627
290.416, 689.883
291.778, 562.221
293.140, 432.635
294.502, 410.127
295.863, 251.393
297.225, 175.350
298.586, 65.217
299.947, 65.510
301.308, 28.604
302.668, 185.236
304.029, 207.465
305.389, 163.164
306.749, 173.537
308.108, 217.650
309.468, 149.535
310.827, 189.164
312.186, 101.637
313.545, 56.549
314.903, 69.521
316.262, 190.475
317.620, 342.258
318.978, 490.057
320.336, 673.238
321.693, 841.410
323.051, 943.547
324.408, 1213.631
325.765, 1253.645
327.121, 1675.594
328.478, 1686.480
329.834, 1966.309
331.190, 2148.078
332.546, 2419.797
333.902, 2343.461
335.257, 2672.072
336.612, 2681.639
337.967, 2818.154
339.322, 2906.625
340.677, 3083.035
342.031, 3135.266
343.385, 3165.156
344.739, 3339.684
346.093, 3434.842
347.446, 3465.688
348.799, 3602.385
350.153, 3806.057
351.505, 3977.598
352.858, 4332.361
354.210, 4493.992
355.563, 4843.609
356.915, 5206.209
358.267, 5478.789
359.618, 5976.355
360.969, 6455.910
362.321, 6899.459
363.672, 7448.016
365.022, 7950.580
366.373, 8720.156
367.723, 9172.832
369.073, 9946.562
370.423, 10487.301
371.773, 11148.051
373.122, 11601.807
374.471, 12555.337
375.821, 13643.947
377.169, 14166.479
378.518, 15545.729
379.866, 15896.042
381.215, 17159.182
382.563, 18321.021
383.910, 19488.957
385.258, 20718.018
386.605, 22133.713
387.952, 23803.279
389.299, 24982.273
390.646, 27305.807
391.992, 28991.053
393.339, 31157.193
394.685, 33526.605
396.031, 35614.992
397.376, 38794.008
398.722, 40397.094
400.067, 43037.754
401.412, 44033.004
402.757, 45344.113
404.101, 46160.539
405.446, 46996.328
406.790, 46387.805
408.134, 45796.738
409.478, 44767.648
410.821, 43442.188
412.165, 41460.934
413.508, 38542.375
414.851, 37027.340
416.193, 34571.398
417.536, 31730.391
418.878, 29589.309
420.220, 26943.156
421.562, 24906.918
422.904, 21802.383
424.245, 20247.279
425.586, 18529.699
426.927, 16377.644
428.268, 15154.207
429.609, 13198.660
430.949, 11789.113
432.289, 10695.576
433.629, 9806.046
434.969, 8715.519
436.309, 8178.992
437.648, 7320.467
438.987, 6951.939
440.326, 6171.409
441.665, 5794.875
443.003, 5376.334
444.342, 5183.787
445.680, 5092.233
447.018, 4933.670
448.355, 4841.098
449.693, 4629.515
451.030, 4669.922
452.367, 4897.316
453.704, 5278.701
455.041, 5560.305
456.377, 5856.431
457.713, 6457.721
459.049, 7269.688
460.385, 7926.748
461.721, 9179.279
463.056, 10267.203
464.391, 11428.348
465.726, 12462.149
467.061, 14397.766
468.395, 15455.753
469.730, 17180.990
471.064, 19696.518
472.398, 21641.561
473.731, 24894.090
475.065, 27523.441
476.398, 30846.422
477.731, 34424.059
479.064, 37382.965
480.397, 39763.824
481.729, 41286.664
483.062, 41825.461
484.394, 40660.203
485.725, 39123.922
487.057, 36232.609
488.389, 33202.250
489.720, 29834.846
491.051, 25783.410
492.382, 22542.938
493.712, 19484.438
495.043, 16773.885
496.373, 14321.312
497.703, 12143.391
499.032, 10181.946
500.362, 8687.857
501.691, 7175.998
503.020, 6214.241
504.349, 5072.764
505.678, 4471.654
507.007, 3700.682
508.335, 3310.240
509.663, 2749.266
510.991, 2291.008
512.319, 2198.669
513.646, 1750.394
514.973, 1635.912
516.300, 1267.559
517.627, 1280.950
518.954, 1041.054
520.280, 721.579
521.607, 764.643
522.933, 571.473
524.259, 524.762
525.584, 346.380
526.910, 290.699
528.235, 319.544
529.560, 295.813
530.885, 221.659
532.209, 74.414
533.534, 7.037
534.858, 52.182
536.182, 116.590
537.506, 31.546
538.829, 112.876
540.152, 68.857
541.476, 119.187
542.799, 89.784
544.121, 189.775
545.444, 54.768
546.766, 80.259
548.088, 211.300
549.410, 90.381
550.732, 36.725
552.053, 50.174
553.375, 22.548
554.696, 6.415
556.017, 17.231
557.337, 19.227
558.658, 13.143
559.978, 103.127
561.298, 70.239
562.618, 39.459
563.938, 107.789
565.257, 21.761
566.576, 57.262
567.895, 63.298
569.214, 267.048
570.533, 196.333
571.851, 485.575
573.170, 338.789
574.488, 569.980
575.805, 537.156
577.123, 635.312
578.440, 574.437
579.758, 856.522
581.075, 993.556
582.391, 1111.575
583.708, 1466.569
585.024, 1461.553
586.341, 1593.501
587.657, 1948.463
588.972, 2135.401
590.288, 2523.342
591.603, 2707.260
592.918, 2979.159
594.233, 3423.031
595.548, 3857.871
596.863, 4365.664
598.177, 4899.928
599.491, 5316.105
600.805, 6050.758
602.119, 6485.365
603.432, 7068.934
604.746, 7845.457
606.059, 8485.934
607.372, 8931.377
608.685, 9326.841
609.997, 9534.644
611.309, 9655.408
612.621, 9639.653
613.933, 9427.849
615.245, 9275.992
616.557, 8828.082
617.868, 8486.122
619.179, 7715.114
620.490, 7185.089
621.801, 6482.037
623.111, 6006.996
624.421, 5256.973
625.731, 5014.953
627.041, 4163.947
628.351, 4026.960
629.660, 3349.971
630.970, 2970.994
632.279, 2849.003
633.588, 2481.987
634.896, 2214.920
636.205, 1797.795
637.513, 1652.423
638.821, 1338.373
640.129, 1360.077
641.437, 1314.720
642.744, 1203.305
644.051, 1074.828
645.358, 966.293
646.665, 896.696
647.972, 819.035
649.278, 757.312
650.584, 685.527
651.890, 610.939
653.196, 528.768
654.502, 479.792
655.807, 434.749
657.113, 410.438
658.418, 345.710
659.722, 313.209
661.027, 237.886
662.331, 142.487
663.636, 104.010
664.940, 206.450
666.244, 96.813
667.547, 147.096
668.851, 117.703
670.154, 12.339
671.457, 36.710
672.760, 13.123
674.062, 190.864
675.365, 59.527
676.667, 142.103
677.969, 55.599
679.271, 79.008
680.572, 24.332
681.874, 95.567
683.175, 146.988
684.476, 250.090
685.777, 138.229
687.077, 229.180
688.378, 198.738
689.678, 288.848
690.978, 346.100
692.278, 311.960
693.577, 316.532
694.877, 381.125
696.176, 250.982
697.475, 291.476
698.774, 312.571
700.072, 369.915
701.371, 314.934
702.669, 402.372
703.967, 257.716
705.265, 445.214
706.562, 534.414
707.860, 469.249
709.157, 414.499
710.454, 654.043
711.751, 334.282
713.047, 649.919
714.344, 520.208
715.640, 616.166
716.936, 513.438
718.232, 520.696
719.527, 776.725
720.823, 766.419
722.118, 721.077
723.413, 636.662
724.708, 620.845
726.002, 610.579
727.297, 807.451
728.591, 619.729
729.885, 833.532
731.179, 818.145
732.472, 695.619
733.766, 767.681
735.059, 743.517
736.352, 752.580
737.645, 916.017
738.937, 977.362
740.230, 1006.711
741.522, 954.153
742.814, 1022.082
744.106, 1058.735
745.397, 1136.676
746.689, 1021.617
747.980, 1148.334
749.271, 1242.017
750.562, 1393.416
751.853, 1483.616
753.143, 1467.807
754.433, 1676.877
755.723, 1843.056
757.013, 1741.105
758.303, 1982.820
759.592, 1992.353
760.881, 2215.749
762.170, 2460.251
763.459, 2579.445
764.748, 2769.950
766.036, 2810.430
767.325, 3279.775
768.613, 3377.869
769.901, 3799.897
771.188, 3993.739
772.476, 4210.477
773.763, 4652.023
775.050, 4690.547
776.337, 5206.959
777.624, 5589.164
778.910, 5968.345
780.196, 6006.215
781.482, 6478.994
782.768, 6592.203
784.054, 6873.492
785.339, 7020.731
786.625, 7046.071
787.910, 6921.787
789.195, 7211.984
790.479, 6901.104
791.764, 6940.331
793.048, 6701.799
794.332, 6509.830
795.616, 6301.371
796.900, 6029.018
798.183, 5843.569
799.467, 5614.895
800.750, 5488.824
802.033, 5205.646
803.316, 4820.334
804.598, 4872.951
805.880, 4334.492
807.163, 4488.963
808.445, 4229.250
809.726, 3924.257
811.008, 4113.999
812.289, 4078.566
813.570, 3878.787
814.851, 4100.797
816.132, 4107.418
817.413, 3981.566
818.693, 3867.468
819.973, 3733.736
821.253, 3402.430
822.533, 3117.304
823.813, 2775.156
825.092, 2374.837
826.371, 2114.618
827.650, 1802.170
828.929, 1472.869
830.208, 1472.754
831.486, 1106.111
832.764, 1006.825
834.042, 797.666
835.320, 730.945
836.598, 698.790
837.875, 817.827
839.152, 804.233
840.429, 617.108
841.706, 542.301
842.983, 333.305
844.259, 304.675
845.536, 343.234
846.812, 347.591
848.088, 191.979
849.363, 188.604
850.639, 198.689
851.914, 235.930
853.189, 121.271
854.464, 115.845
855.739, 111.232
857.013, 213.962
858.288, 107.078
859.562, 66.034
860.836, 25.081
862.110, 154.074
863.383, 47.167
864.656, 71.691
865.930, 61.033
867.203, 81.668
868.475, 79.685
869.748, 32.147
871.020, 47.674
872.292, 44.722
873.564, 61.934
874.836, 85.664
876.108, 15.519
877.379, 75.459
878.650, 20.504
879.922, 57.604
881.192, 77.827
882.463, 113.178
883.733, 113.937
885.004, 97.314
886.274, 60.095
887.544, 25.993
888.813, 52.008
890.083, 118.065
891.352, 70.286
892.621, 119.629
893.890, 11.118
895.159, 195.699
896.427, 65.467
897.695, 151.352
898.964, 73.398
900.232, 71.565
901.499, 56.853
902.767, 22.251
904.034, 43.260
905.301, 28.436
906.568, 36.937
907.835, 9.371
909.102, 14.598
910.368, 22.245
911.634, 5.177
912.900, 102.813
914.166, 56.261
915.432, 112.559
916.697, 19.315
917.962, 10.004
919.227, 18.625
920.492, 59.179
921.757, 55.668
923.021, 80.599
924.285, 86.453
925.550, 112.751
926.813, 97.988
928.077, 106.164
929.341, 135.279
930.604, 122.334
931.867, 176.330
933.130, 5.732
934.393, 55.138
935.655, 255.948
936.918, 8.703
938.180, 203.397
939.442, 93.037
940.703, 197.618
941.965, 195.146
943.226, 149.620
944.488, 72.040
945.749, 156.403
947.009, 252.713
948.270, 207.972
949.530, 210.180
950.791, 244.339
952.051, 318.449
953.311, 324.514
954.570, 359.544
955.830, 378.532
957.089, 354.476
958.348, 372.377
959.607, 397.522
960.866, 464.063
962.124, 440.846
963.383, 528.602
964.641, 508.318
965.899, 601.997
967.156, 694.654
968.414, 687.282
969.671, 750.878
970.928, 806.448
972.185, 749.995
973.442, 949.517
974.699, 847.012
975.955, 916.515
977.211, 1010.010
978.468, 1028.494
979.723, 1042.966
980.979, 1117.410
982.234, 1142.827
983.490, 1310.217
984.745, 1317.548
986.000, 1416.950
987.254, 1424.305
988.509, 1440.633
989.763, 1543.877
991.017, 1426.223
992.271, 1601.481
993.525, 1650.712
994.779, 1691.271
996.032, 1865.686
997.285, 1871.246
998.538, 1943.803
999.791, 2012.649
1001.044, 2093.566
1002.296, 2071.453
1003.548, 2163.483
1004.800, 2128.023
1006.052, 2204.525
1007.304, 2210.990
1008.555, 2241.859
1009.807, 2374.275
1011.058, 2440.492
1012.309, 2450.380
1013.559, 2636.960
1014.810, 2489.904
1016.060, 2627.088
1017.310, 2835.139
1018.560, 2911.351
1019.810, 2831.200
1021.060, 2915.015
1022.309, 3039.834
1023.558, 3088.744
1024.807, 3207.639
1026.056, 3266.027
1027.305, 3242.803
1028.553, 3227.804
1029.801, 3285.789
1031.049, 3425.514
1032.297, 3393.328
1033.545, 3486.915
1034.793, 3607.450
1036.040, 3519.025
1037.287, 3501.938
1038.534, 3531.991
1039.781, 3622.732
1041.027, 3665.017
1042.274, 3647.459
1043.520, 3615.512
1044.766, 3587.537
1046.012, 3538.009
1047.257, 3488.673
1048.503, 3395.967
1049.748, 3649.176
1050.993, 3297.530
1052.238, 3595.851
1053.483, 3524.376
1054.727, 3445.021
1055.971, 3436.594
1057.216, 3454.207
1058.459, 3393.307
1059.703, 3389.098
1060.947, 3361.821
1062.190, 3369.645
1063.433, 3441.524
1064.676, 3420.215
1065.919, 3403.131
1067.162, 3472.658
1068.404, 3586.128
1069.646, 3451.664
1070.888, 3594.373
1072.130, 3801.067
1073.372, 3651.869
1074.613, 3878.695
1075.855, 3947.631
1077.096, 4049.508
1078.337, 4190.418
1079.578, 4387.451
1080.818, 4466.434
1082.059, 4660.954
1083.299, 4767.866
1084.539, 5007.576
1085.779, 5097.129
1087.018, 5284.650
1088.258, 5392.990
1089.497, 5439.972
1090.736, 5735.295
1091.975, 5775.613
1093.213, 5858.797
1094.452, 6045.609
1095.690, 6094.615
1096.928, 6258.479
1098.166, 6363.930
1099.404, 6456.412
1100.642, 6563.491
1101.879, 6652.225
1103.116, 6752.639
1104.353, 6810.800
1105.590, 6868.809
1106.827, 6920.117
1108.063, 6959.510
1109.299, 6964.577
1110.536, 7023.003
1111.771, 7024.805
1113.007, 6996.973
1114.243, 7091.104
1115.478, 7127.452
1116.713, 7115.846
1117.948, 7059.059
1119.183, 6962.987
1120.418, 7050.613
1121.652, 7093.418
1122.886, 7093.415
1124.120, 6924.637
1125.354, 6976.525
1126.588, 6937.885
1127.821, 6898.266
1129.055, 6978.099
1130.288, 6914.273
1131.521, 6806.636
1132.753, 6691.651
1133.986, 6562.652
1135.218, 6623.963
1136.450, 6519.248
1137.682, 6298.019
1138.914, 6463.412
1140.146, 6156.577
1141.377, 6183.955
1142.609, 6007.499
1143.840, 6040.707
1145.071, 5956.086
1146.301, 5899.476
1147.532, 5833.889
1148.762, 5607.164
1149.992, 5580.486
1151.222, 5429.320
1152.452, 5439.467
1153.682, 5331.925
1154.911, 5186.351
1156.140, 5029.732
1157.369, 4946.905
1158.598, 4796.166
1159.827, 4701.236
1161.055, 4666.283
1162.284, 4515.090
1163.512, 4494.236
1164.740, 4426.725
1165.967, 4182.129
1167.195, 4019.492
1168.422, 4133.715
1169.650, 3860.976
1170.877, 3853.183
1172.103, 3605.365
1173.330, 3632.701
1174.557, 3478.381
1175.783, 3465.793
1177.009, 3398.090
1178.235, 3072.457
1179.461, 3200.643
1180.686, 3007.982
1181.912, 2801.502
1183.137, 2767.908
1184.362, 2739.473
1185.587, 2634.966
1186.811, 2515.309
1188.036, 2393.002
1189.260, 2234.051
1190.484, 2110.624
1191.708, 2044.949
1192.932, 1977.683
1194.155, 1757.696
1195.378, 1638.549
1196.602, 1619.173
1197.825, 1423.354
1199.047, 1415.015
1200.270, 1371.719
1201.492, 1229.289
1202.715, 1296.230
1203.937, 952.221
1205.159, 1149.114
1206.380, 962.442
1207.602, 884.261
1208.823, 662.910
1210.044, 741.785
1211.265, 662.503
1212.486, 633.338
1213.707, 580.106
1214.927, 535.005
1216.147, 484.011
1217.367, 504.957
1218.587, 392.661
1219.807, 412.530
1221.027, 426.144
1222.246, 354.532
1223.465, 271.037
1224.684, 326.550
1225.903, 402.121
1227.121, 251.935
1228.340, 159.501
1229.558, 322.271
1230.776, 257.793
1231.994, 163.396
1233.212, 212.941
1234.429, 204.597
1235.646, 71.214
1236.864, 122.857
1238.081, 192.380
1239.297, 85.982
1240.514, 146.422
1241.730, 165.669
1242.947, 72.083
1244.163, 89.230
1245.378, 86.384
1246.594, 33.822
1247.810, 87.147
1249.025, 52.147
1250.240, 60.252
1251.455, 20.213
1252.670, 102.584
1253.885, 28.302
1255.099, 83.893
1256.313, 1.729
1257.527, 53.965
1258.741, 60.182
1259.955, 69.207
1261.168, 61.815
1262.382, 24.968
1263.595, 49.669
1264.808, 27.271
1266.021, 32.632
1267.233, 26.081
1268.446, 11.227
1269.658, 7.232
1270.870, 62.886
1272.082, 29.870
1273.294, 47.815
1274.505, 14.276
1275.716, 94.404
1276.928, 12.661
1278.139, 63.970
1279.349, 98.281
1280.560, 99.512
1281.770, 29.465
1282.981, 5.582
1284.191, 35.518
1285.401, 55.489
1286.610, 4.359
1287.820, 52.470
1289.029, 43.333
1290.239, 32.886
1291.448, 4.838
1292.656, 48.379
1293.865, 29.763
1295.073, 15.805
1296.282, 37.659
1297.490, 42.169
1298.698, 30.720
1299.906, 13.311
1301.113, 8.062
1302.320, 56.616
1303.528, 31.649
1304.735, 61.116
1305.942, 109.930
1307.148, 0.195
1308.355, 64.284
1309.561, 74.660
1310.767, 40.661
1311.973, 18.287
1313.179, 59.200
1314.384, 53.078
1315.590, 70.922
1316.795, 18.266
1318.000, 45.501
1319.205, 9.227
1320.410, 36.914
1321.614, 70.564
1322.819, 54.528
1324.023, 102.754
1325.227, 72.293
1326.431, 37.794
1327.634, 73.261
1328.838, 43.141
1330.041, 65.076
1331.244, 39.629
1332.447, 16.940
1333.650, 27.210
1334.852, 62.446
1336.055, 130.647
1337.257, 47.168
1338.459, 15.941
1339.661, 24.015
1340.862, 89.051
1342.064, 15.055
1343.265, 41.979
1344.466, 5.937
1345.667, 8.813
1346.868, 28.652
1348.068, 24.100
1349.269, 38.270
1350.469, 15.005
1351.669, 54.704
1352.869, 96.369
1354.069, 43.001
1355.268, 78.602
1356.468, 54.438
1357.667, 68.974
1358.866, 36.942
1360.065, 15.526
1361.263, 11.090
1362.462, 83.613
1363.660, 42.983
1364.858, 102.387
1366.056, 154.957
1367.254, 125.545
1368.451, 122.018
1369.649, 106.263
1370.846, 46.484
1372.043, 103.676
1373.240, 52.826
1374.436, 111.314
1375.633, 90.339
1376.829, 101.231
1378.025, 73.138
1379.221, 79.742
1380.417, 70.735
1381.613, 97.764
1382.808, 75.727
1384.003, 112.249
1385.199, 158.286
1386.393, 112.448
1387.588, 176.915
1388.783, 176.146
1389.977, 104.057
1391.171, 130.957
1392.365, 50.861
1393.559, 107.614
1394.753, 206.669
1395.946, 101.059
1397.140, 159.342
1398.333, 131.560
1399.526, 213.758
1400.719, 89.930
1401.911, 118.017
1403.104, 143.301
1404.296, 144.746
1405.488, 156.788
1406.680, 221.741
1407.872, 93.819
1409.063, 182.135
1410.255, 193.883
1411.446, 109.024
1412.637, 209.478
1413.828, 76.612
1415.018, 91.147
1416.209, 182.670
1417.399, 111.722
1418.589, 52.878
1419.779, 136.400
1420.969, 97.218
1422.159, 116.332
1423.348, 117.859
1424.537, 179.219
1425.726, 211.004
1426.915, 128.988
1428.104, 135.606
1429.293, 207.168
1430.481, 85.562
1431.669, 207.388
1432.857, 252.127
1434.045, 156.647
1435.233, 135.610
1436.420, 207.906
1437.608, 217.032
1438.795, 216.102
1439.982, 189.560
1441.169, 185.096
1442.355, 167.315
1443.542, 175.426
1444.728, 178.779
1445.914, 162.407
1447.100, 209.147
1448.286, 241.749
1449.472, 258.845
1450.657, 231.220
1451.842, 251.552
1453.027, 273.951
1454.212, 338.899
1455.397, 377.817
1456.581, 196.731
1457.766, 282.168
1458.950, 271.097
1460.134, 203.825
1461.318, 265.514
1462.501, 192.494
1463.685, 188.208
1464.868, 324.954
1466.051, 302.246
1467.234, 241.958
1468.417, 215.565
1469.600, 238.989
1470.782, 163.720
1471.965, 253.216
1473.147, 84.223
1474.329, 151.583
1475.510, 281.340
1476.692, 203.783
1477.873, 174.225
1479.055, 128.619
1480.236, 235.277
1481.416, 306.837
1482.597, 143.218
1483.778, 258.005
1484.958, 219.782
1486.138, 146.519
1487.318, 145.387
1488.498, 135.245
1489.678, 124.118
1490.857, 192.992
1492.037, 135.910
1493.216, 227.876
1494.395, 273.866
1495.574, 200.973
1496.752, 221.930
1497.931, 75.491
1499.109, 195.924
1500.287, 31.501
1501.465, 129.170
1502.643, 36.970
1503.820, 137.916
1504.998, 208.075
1506.175, 135.389
1507.352, 91.854
1508.529, 84.491
1509.706, 107.992
1510.882, 278.037
1512.059, 177.344
1513.235, 301.387
1514.411, 185.286
1515.587, 46.367
1516.762, 299.058
1517.938, 167.332
1519.113, 155.860
1520.288, 118.914
1521.463, 159.289
1522.638, 124.092
1523.813, 99.239
1524.987, 175.526
1526.162, 1.058
1527.336, 0.000
##END=



