##NAMES=Heulandite-Ca
##RRUFFID=R050017
##IDEAL CHEMISTRY=(Ca,Na,K)_5_(Si_27_Al_9_)O_72_&#183;26H_2_O
##LOCALITY=Poona, Maharashtra State, India
##OWNER=RRUFF
##SOURCE=Eugene Schlepp
##DESCRIPTION=Single crystals
##STATUS=The identification of this mineral has been confirmed by X-ray diffraction and chemical analysis
##URL=rruff.info/R050017
##MEASURED CHEMISTRY=(Ca_.70_Na_.22_K_.02_[box]_0.06_)_5_(Si_0.77_Al_0.23_)_36_O_72_Â·24H_2_O
##PIN_ID=L00080
##ORIENTATION=Laser parallel to -a* (-1 0 0). Fiducial mark perpendicular to laser is parallel to b [0 1 0]
228.891, 0.000
230.263, 10.447
231.634, 270.502
233.006, 393.359
234.377, 29.936
235.748, 96.299
237.119, 289.496
238.490, 228.145
239.860, 743.398
241.231, 679.898
242.601, 863.594
243.970, 1283.646
245.340, 1349.371
246.709, 1524.191
248.079, 1510.627
249.448, 1891.287
250.816, 1659.879
252.185, 1972.166
253.553, 1920.918
254.921, 1864.916
256.289, 2094.965
257.657, 1831.879
259.024, 1733.500
260.391, 1749.676
261.758, 1603.270
263.125, 1445.168
264.492, 1614.264
265.858, 1402.457
267.224, 1136.670
268.590, 1137.891
269.956, 731.213
271.321, 1070.637
272.687, 873.109
274.052, 691.555
275.416, 355.891
276.781, 626.033
278.146, 578.906
279.510, 293.443
280.874, 197.584
282.237, 194.271
283.601, 333.463
284.964, 27.115
286.327, 29.193
287.690, 247.662
289.053, 213.488
290.416, 305.650
291.778, 523.113
293.140, 431.865
294.502, 651.875
295.863, 361.125
297.225, 598.602
298.586, 692.285
299.947, 539.166
301.308, 659.232
302.668, 460.475
304.029, 438.939
305.389, 541.725
306.749, 547.236
308.108, 507.203
309.468, 457.750
310.827, 430.457
312.186, 538.432
313.545, 568.816
314.903, 693.568
316.262, 939.457
317.620, 982.492
318.978, 1330.537
320.336, 1497.553
321.693, 1684.484
323.051, 1725.330
324.408, 2111.080
325.765, 1840.727
327.121, 2534.264
328.478, 2447.703
329.834, 2612.047
331.190, 2833.309
332.546, 3378.488
333.902, 2958.588
335.257, 3554.619
336.612, 3338.576
337.967, 3555.465
339.322, 3742.291
340.677, 3875.051
342.031, 3993.748
343.385, 4212.385
344.739, 4430.959
346.093, 4640.477
347.446, 4676.932
348.799, 5354.328
350.153, 5356.666
351.505, 5912.941
352.858, 5987.156
354.210, 6353.307
355.563, 6889.396
356.915, 7317.422
358.267, 7829.377
359.618, 8491.277
360.969, 9000.598
362.321, 9693.906
363.672, 10185.650
365.022, 10894.355
366.373, 11497.031
367.723, 12061.676
369.073, 13041.295
370.423, 13689.895
371.773, 14319.477
373.122, 14584.023
374.471, 15633.543
375.821, 16881.641
377.169, 18364.062
378.518, 18706.137
379.866, 18537.953
381.215, 19637.213
382.563, 20648.078
383.910, 21570.342
385.258, 22603.170
386.605, 23939.744
387.952, 25695.785
389.299, 26025.080
390.646, 28758.752
391.992, 29568.941
393.339, 31548.148
394.685, 33189.668
396.031, 35482.199
397.376, 37939.238
398.722, 39063.820
400.067, 41559.621
401.412, 42358.453
402.757, 43240.090
404.101, 44963.309
405.446, 44479.023
406.790, 43825.195
408.134, 43281.711
409.478, 42183.535
410.821, 40856.066
412.165, 38863.070
413.508, 36445.332
414.851, 34690.242
416.193, 32355.758
417.536, 29537.174
418.878, 27608.283
420.220, 25427.584
421.562, 23391.121
422.904, 20445.729
424.245, 19038.387
425.586, 17464.102
426.927, 15910.855
428.268, 14963.652
429.609, 12253.482
430.949, 11066.340
432.289, 10170.229
433.629, 9260.129
434.969, 8117.037
436.309, 7667.961
437.648, 6850.883
438.987, 6488.803
440.326, 6081.721
441.665, 5616.625
443.003, 5290.523
444.342, 5388.402
445.680, 5125.262
447.018, 5160.102
448.355, 5242.918
449.693, 5109.709
451.030, 5707.467
452.367, 5709.199
453.704, 6375.898
455.041, 6331.562
456.377, 7436.195
457.713, 7982.783
459.049, 9048.336
460.385, 9983.844
461.721, 11347.312
463.056, 12712.736
464.391, 13488.115
465.726, 14658.447
467.061, 16446.729
468.395, 16705.961
469.730, 17741.127
471.064, 19412.230
472.398, 20384.254
473.731, 22964.209
475.065, 24208.086
476.398, 26485.875
477.731, 28676.592
479.064, 30768.227
480.397, 31799.775
481.729, 32978.238
483.062, 32994.621
484.394, 32327.920
485.725, 30353.137
487.057, 28236.092
488.389, 25794.514
489.720, 23046.072
491.051, 20067.715
492.382, 17408.100
493.712, 15030.740
495.043, 12961.041
496.373, 10702.859
497.703, 9138.240
499.032, 8100.529
500.362, 7227.004
501.691, 5434.875
503.020, 4766.666
504.349, 3670.021
505.678, 3230.674
507.007, 2896.277
508.335, 2335.254
509.663, 2022.857
510.991, 1682.283
512.319, 1674.936
513.646, 1254.787
514.973, 1269.084
516.300, 911.619
517.627, 1027.729
518.954, 853.998
520.280, 498.127
521.607, 666.201
522.933, 431.424
524.259, 306.861
525.584, 194.111
526.910, 225.641
528.235, 153.908
529.560, 97.402
530.885, 117.770
532.209, 18.586
533.534, 12.727
534.858, 152.930
536.182, 72.244
537.506, 202.623
538.829, 123.654
540.152, 135.621
541.476, 266.334
542.799, 253.441
544.121, 441.666
545.444, 145.992
546.766, 184.105
548.088, 276.510
549.410, 111.838
550.732, 187.332
552.053, 133.039
553.375, 101.246
554.696, 217.334
556.017, 225.729
557.337, 135.314
558.658, 12.100
559.978, 140.814
561.298, 115.430
562.618, 70.365
563.938, 41.924
565.257, 38.354
566.576, 306.659
567.895, 57.868
569.214, 230.977
570.533, 318.930
571.851, 303.786
573.170, 413.721
574.488, 534.399
575.805, 588.008
577.123, 685.531
578.440, 663.989
579.758, 870.355
581.075, 1050.618
582.391, 1109.822
583.708, 1372.925
585.024, 1358.929
586.341, 1318.828
587.657, 1680.644
588.972, 1777.378
590.288, 2106.038
591.603, 2108.589
592.918, 2238.056
594.233, 2445.420
595.548, 2777.677
596.863, 3159.822
598.177, 3416.871
599.491, 3791.837
600.805, 4095.709
602.119, 4371.469
603.432, 4890.117
604.746, 5504.650
606.059, 5818.064
607.372, 6064.365
608.685, 6348.545
609.997, 6742.611
611.309, 6598.574
612.621, 6717.415
613.933, 6527.137
615.245, 6412.738
616.557, 6189.452
617.868, 5741.582
619.179, 5486.821
620.490, 5049.939
621.801, 4477.934
623.111, 4288.808
624.421, 3731.555
625.731, 3553.178
627.041, 2980.680
628.351, 2983.057
629.660, 2483.306
630.970, 2284.430
632.279, 2162.428
633.588, 1836.299
634.896, 1679.045
636.205, 1384.661
637.513, 1504.149
638.821, 1166.509
640.129, 1230.738
641.437, 1081.840
642.744, 1108.812
644.051, 796.652
645.358, 905.357
646.665, 856.928
647.972, 815.363
649.278, 859.661
650.584, 778.325
651.890, 601.849
653.196, 697.728
654.502, 543.465
655.807, 546.055
657.113, 482.497
658.418, 392.791
659.722, 392.858
661.027, 450.912
662.331, 389.744
663.636, 385.422
664.940, 479.944
666.244, 207.316
667.547, 376.515
668.851, 338.557
670.154, 425.438
671.457, 360.167
672.760, 320.737
674.062, 361.149
675.365, 477.812
676.667, 337.014
677.969, 480.516
679.271, 423.960
680.572, 386.751
681.874, 289.313
683.175, 521.568
684.476, 560.665
685.777, 483.273
687.077, 488.414
688.378, 422.883
689.678, 650.531
690.978, 651.582
692.278, 747.450
693.577, 484.188
694.877, 815.198
696.176, 511.345
697.475, 630.888
698.774, 641.211
700.072, 809.991
701.371, 713.500
702.669, 565.456
703.967, 514.902
705.265, 631.158
706.562, 954.193
707.860, 844.516
709.157, 644.511
710.454, 864.351
711.751, 553.974
713.047, 834.996
714.344, 706.012
715.640, 848.289
716.936, 622.840
718.232, 708.725
719.527, 938.958
720.823, 846.991
722.118, 836.966
723.413, 849.330
724.708, 730.027
726.002, 775.349
727.297, 1017.273
728.591, 696.836
729.885, 856.492
731.179, 1002.657
732.472, 807.541
733.766, 866.307
735.059, 878.733
736.352, 876.778
737.645, 1013.850
738.937, 1045.297
740.230, 1145.343
741.522, 883.003
742.814, 1054.764
744.106, 1035.865
745.397, 1246.871
746.689, 1143.051
747.980, 1021.309
749.271, 1274.812
750.562, 1185.514
751.853, 1423.130
753.143, 1258.284
754.433, 1561.393
755.723, 1738.634
757.013, 1597.899
758.303, 1816.702
759.592, 1770.305
760.881, 1978.939
762.170, 1956.376
763.459, 2191.076
764.748, 2262.061
766.036, 2281.022
767.325, 2518.861
768.613, 2482.325
769.901, 2775.250
771.188, 2991.613
772.476, 3035.497
773.763, 3298.930
775.050, 3172.825
776.337, 3401.303
777.624, 3413.349
778.910, 3707.307
780.196, 3707.816
781.482, 3770.463
782.768, 3745.002
784.054, 3708.898
785.339, 3820.704
786.625, 3818.312
787.910, 3576.311
789.195, 3709.611
790.479, 3490.846
791.764, 3373.103
793.048, 3265.231
794.332, 3193.409
795.616, 3138.201
796.900, 2826.883
798.183, 2818.454
799.467, 2475.088
800.750, 2516.062
802.033, 2431.718
803.316, 2149.086
804.598, 2268.523
805.880, 1798.510
807.163, 2044.646
808.445, 1963.070
809.726, 1812.738
811.008, 1807.306
812.289, 1769.498
813.570, 1676.101
814.851, 1840.593
816.132, 1887.330
817.413, 1706.577
818.693, 1541.682
819.973, 1660.222
821.253, 1330.939
822.533, 1263.651
823.813, 1277.941
825.092, 980.841
826.371, 729.105
827.650, 812.939
828.929, 543.012
830.208, 613.729
831.486, 604.396
832.764, 235.931
834.042, 375.118
835.320, 256.896
836.598, 166.671
837.875, 189.964
839.152, 148.321
840.429, 86.258
841.706, 245.122
842.983, 38.622
844.259, 77.999
845.536, 89.327
846.812, 1.923
848.088, 121.681
849.363, 7.280
850.639, 142.468
851.914, 76.738
853.189, 93.140
854.464, 33.668
855.739, 102.252
857.013, 68.587
858.288, 6.238
859.562, 65.502
860.836, 85.992
862.110, 46.554
863.383, 20.134
864.656, 21.530
865.930, 72.168
867.203, 49.198
868.475, 100.918
869.748, 54.846
871.020, 86.349
872.292, 67.544
873.564, 54.771
874.836, 92.021
876.108, 23.435
877.379, 17.515
878.650, 17.400
879.922, 40.286
881.192, 23.087
882.463, 131.176
883.733, 134.241
885.004, 65.472
886.274, 139.830
887.544, 43.356
888.813, 34.002
890.083, 141.728
891.352, 5.627
892.621, 0.623
893.890, 6.288
895.159, 68.892
896.427, 93.197
897.695, 110.641
898.964, 3.771
900.232, 72.906
901.499, 31.707
902.767, 12.392
904.034, 5.406
905.301, 51.661
906.568, 101.839
907.835, 75.189
909.102, 3.578
910.368, 37.911
911.634, 54.321
912.900, 253.654
914.166, 30.920
915.432, 175.109
916.697, 76.228
917.962, 63.726
919.227, 287.216
920.492, 106.094
921.757, 203.903
923.021, 67.646
924.285, 151.317
925.550, 227.923
926.813, 86.465
928.077, 154.938
929.341, 227.349
930.604, 217.696
931.867, 293.984
933.130, 1.213
934.393, 225.373
935.655, 348.475
936.918, 100.521
938.180, 356.506
939.442, 232.438
940.703, 130.313
941.965, 485.130
943.226, 319.188
944.488, 319.613
945.749, 278.279
947.009, 456.893
948.270, 353.459
949.530, 391.979
950.791, 441.449
952.051, 435.877
953.311, 489.259
954.570, 463.600
955.830, 528.759
957.089, 618.157
958.348, 649.375
959.607, 752.559
960.866, 830.706
962.124, 860.080
963.383, 849.907
964.641, 944.968
965.899, 927.471
967.156, 998.436
968.414, 1067.006
969.671, 1006.979
970.928, 1243.926
972.185, 1203.850
973.442, 1376.761
974.699, 1394.655
975.955, 1475.525
977.211, 1569.741
978.468, 1578.123
979.723, 1741.999
980.979, 1688.394
982.234, 1809.079
983.490, 2001.773
984.745, 1796.963
986.000, 1960.726
987.254, 2159.988
988.509, 2076.874
989.763, 2203.849
991.017, 2161.674
992.271, 2406.224
993.525, 2400.458
994.779, 2425.604
996.032, 2583.097
997.285, 2467.686
998.538, 2524.186
999.791, 2424.917
1001.044, 2775.191
1002.296, 2509.023
1003.548, 2732.578
1004.800, 2705.218
1006.052, 2730.051
1007.304, 3008.720
1008.555, 2897.236
1009.807, 2940.887
1011.058, 3135.848
1012.309, 3112.166
1013.559, 3145.128
1014.810, 3321.875
1016.060, 3118.709
1017.310, 3291.420
1018.560, 3293.596
1019.810, 3252.553
1021.060, 3374.445
1022.309, 3523.429
1023.558, 3469.619
1024.807, 3623.663
1026.056, 3409.408
1027.305, 3482.494
1028.553, 3596.005
1029.801, 3788.217
1031.049, 3880.409
1032.297, 3908.275
1033.545, 3811.284
1034.793, 3904.700
1036.040, 3771.475
1037.287, 3792.641
1038.534, 3829.908
1039.781, 3902.262
1041.027, 4001.458
1042.274, 3864.150
1043.520, 3822.128
1044.766, 3890.364
1046.012, 3792.414
1047.257, 3868.996
1048.503, 3796.572
1049.748, 3906.849
1050.993, 3674.920
1052.238, 3773.619
1053.483, 3979.995
1054.727, 3641.335
1055.971, 3714.015
1057.216, 3914.615
1058.459, 3712.961
1059.703, 3611.164
1060.947, 3709.704
1062.190, 3762.330
1063.433, 3626.799
1064.676, 3602.345
1065.919, 3626.507
1067.162, 3474.266
1068.404, 3759.924
1069.646, 3525.586
1070.888, 3768.500
1072.130, 3935.839
1073.372, 3769.619
1074.613, 3933.760
1075.855, 4084.233
1077.096, 3989.125
1078.337, 4107.316
1079.578, 4429.824
1080.818, 4462.309
1082.059, 4505.127
1083.299, 4780.690
1084.539, 4969.248
1085.779, 4927.332
1087.018, 5024.392
1088.258, 5263.537
1089.497, 5407.177
1090.736, 5504.455
1091.975, 5681.906
1093.213, 5628.951
1094.452, 5858.078
1095.690, 5980.943
1096.928, 6095.270
1098.166, 6355.663
1099.404, 6477.836
1100.642, 6722.012
1101.879, 6581.186
1103.116, 6882.783
1104.353, 6723.182
1105.590, 6899.994
1106.827, 6795.174
1108.063, 7096.900
1109.299, 6932.545
1110.536, 7237.246
1111.771, 7344.114
1113.007, 7188.257
1114.243, 7345.406
1115.478, 7307.729
1116.713, 7158.206
1117.948, 7363.119
1119.183, 7516.599
1120.418, 7297.348
1121.652, 7531.789
1122.886, 7656.314
1124.120, 7675.291
1125.354, 7278.521
1126.588, 7418.961
1127.821, 7344.903
1129.055, 7265.061
1130.288, 7364.096
1131.521, 7142.346
1132.753, 7366.344
1133.986, 7168.156
1135.218, 7301.104
1136.450, 7448.477
1137.682, 7133.411
1138.914, 7349.585
1140.146, 7058.395
1141.377, 6894.090
1142.609, 7042.029
1143.840, 6914.064
1145.071, 6883.572
1146.301, 6892.443
1147.532, 6663.236
1148.762, 6604.240
1149.992, 6534.604
1151.222, 6409.893
1152.452, 6394.814
1153.682, 6325.477
1154.911, 5964.342
1156.140, 6028.860
1157.369, 5938.555
1158.598, 5646.703
1159.827, 5659.793
1161.055, 5634.820
1162.284, 5389.748
1163.512, 5374.443
1164.740, 5052.131
1165.967, 5086.053
1167.195, 4709.658
1168.422, 4737.865
1169.650, 4531.833
1170.877, 4533.038
1172.103, 4348.621
1173.330, 4148.879
1174.557, 4010.441
1175.783, 3897.845
1177.009, 3881.889
1178.235, 3526.805
1179.461, 3585.028
1180.686, 3446.533
1181.912, 3156.446
1183.137, 3241.572
1184.362, 3145.966
1185.587, 2884.938
1186.811, 2750.295
1188.036, 2693.624
1189.260, 2506.252
1190.484, 2374.074
1191.708, 2394.557
1192.932, 2287.027
1194.155, 1929.379
1195.378, 1918.754
1196.602, 1805.099
1197.825, 1757.466
1199.047, 1602.871
1200.270, 1512.053
1201.492, 1239.454
1202.715, 1390.484
1203.937, 1102.670
1205.159, 1198.228
1206.380, 880.396
1207.602, 1231.389
1208.823, 878.342
1210.044, 858.440
1211.265, 702.479
1212.486, 758.400
1213.707, 613.598
1214.927, 634.419
1216.147, 645.690
1217.367, 511.431
1218.587, 590.522
1219.807, 441.639
1221.027, 508.335
1222.246, 479.644
1223.465, 296.208
1224.684, 271.260
1225.903, 501.768
1227.121, 299.654
1228.340, 337.628
1229.558, 294.743
1230.776, 234.477
1231.994, 222.979
1233.212, 215.899
1234.429, 365.061
1235.646, 278.665
1236.864, 131.727
1238.081, 80.203
1239.297, 263.055
1240.514, 133.489
1241.730, 124.091
1242.947, 190.977
1244.163, 103.572
1245.378, 179.957
1246.594, 161.523
1247.810, 238.856
1249.025, 62.737
1250.240, 112.565
1251.455, 16.232
1252.670, 199.251
1253.885, 41.546
1255.099, 62.666
1256.313, 50.721
1257.527, 30.237
1258.741, 8.521
1259.955, 8.370
1261.168, 37.504
1262.382, 17.698
1263.595, 46.286
1264.808, 115.139
1266.021, 12.244
1267.233, 18.653
1268.446, 20.943
1269.658, 148.566
1270.870, 73.371
1272.082, 88.906
1273.294, 10.593
1274.505, 61.358
1275.716, 23.072
1276.928, 193.972
1278.139, 167.016
1279.349, 51.852
1280.560, 20.671
1281.770, 159.455
1282.981, 28.203
1284.191, 112.105
1285.401, 57.553
1286.610, 90.900
1287.820, 33.314
1289.029, 12.682
1290.239, 80.859
1291.448, 69.783
1292.656, 78.873
1293.865, 69.996
1295.073, 10.936
1296.282, 8.906
1297.490, 65.951
1298.698, 45.061
1299.906, 75.770
1301.113, 159.549
1302.320, 118.277
1303.528, 20.959
1304.735, 34.594
1305.942, 57.182
1307.148, 10.283
1308.355, 143.197
1309.561, 84.377
1310.767, 99.971
1311.973, 17.270
1313.179, 41.494
1314.384, 116.340
1315.590, 58.723
1316.795, 60.266
1318.000, 6.330
1319.205, 29.545
1320.410, 38.656
1321.614, 119.109
1322.819, 125.209
1324.023, 79.371
1325.227, 10.900
1326.431, 164.369
1327.634, 121.791
1328.838, 0.838
1330.041, 171.471
1331.244, 82.734
1332.447, 87.949
1333.650, 48.113
1334.852, 3.777
1336.055, 64.271
1337.257, 124.730
1338.459, 93.176
1339.661, 57.967
1340.862, 104.816
1342.064, 98.547
1343.265, 92.230
1344.466, 145.865
1345.667, 29.451
1346.868, 40.986
1348.068, 142.471
1349.269, 70.789
1350.469, 40.184
1351.669, 194.529
1352.869, 20.832
1354.069, 164.086
1355.268, 175.297
1356.468, 50.467
1357.667, 130.598
1358.866, 217.686
1360.065, 110.732
1361.263, 233.822
1362.462, 45.760
1363.660, 136.660
1364.858, 233.521
1366.056, 90.350
1367.254, 281.145
1368.451, 138.752
1369.649, 71.479
1370.846, 54.180
1372.043, 144.684
1373.240, 106.062
1374.436, 193.352
1375.633, 250.031
1376.829, 151.666
1378.025, 104.195
1379.221, 229.445
1380.417, 121.740
1381.613, 262.943
1382.808, 173.326
1384.003, 326.207
1385.199, 233.551
1386.393, 165.160
1387.588, 234.223
1388.783, 311.369
1389.977, 230.887
1391.171, 305.246
1392.365, 145.393
1393.559, 151.652
1394.753, 188.781
1395.946, 122.096
1397.140, 260.145
1398.333, 245.842
1399.526, 258.191
1400.719, 258.023
1401.911, 270.332
1403.104, 266.781
1404.296, 271.094
1405.488, 240.615
1406.680, 202.746
1407.872, 151.830
1409.063, 268.205
1410.255, 375.164
1411.446, 51.725
1412.637, 330.975
1413.828, 128.998
1415.018, 186.016
1416.209, 152.172
1417.399, 296.498
1418.589, 161.945
1419.779, 210.887
1420.969, 221.137
1422.159, 238.109
1423.348, 255.998
1424.537, 253.338
1425.726, 247.688
1426.915, 257.488
1428.104, 184.996
1429.293, 223.939
1430.481, 286.879
1431.669, 262.547
1432.857, 99.617
1434.045, 220.723
1435.233, 52.211
1436.420, 341.598
1437.608, 317.988
1438.795, 118.994
1439.982, 231.402
1441.169, 341.420
1442.355, 316.061
1443.542, 160.092
1444.728, 356.186
1445.914, 156.930
1447.100, 233.209
1448.286, 327.447
1449.472, 415.797
1450.657, 252.295
1451.842, 395.967
1453.027, 278.330
1454.212, 228.461
1455.397, 355.271
1456.581, 227.590
1457.766, 399.396
1458.950, 374.492
1460.134, 340.623
1461.318, 391.719
1462.501, 147.777
1463.685, 176.922
1464.868, 293.689
1466.051, 199.207
1467.234, 419.809
1468.417, 174.688
1469.600, 292.184
1470.782, 328.613
1471.965, 295.949
1473.147, 343.424
1474.329, 369.697
1475.510, 293.115
1476.692, 250.896
1477.873, 131.660
1479.055, 259.453
1480.236, 109.189
1481.416, 130.188
1482.597, 215.740
1483.778, 78.514
1484.958, 269.324
1486.138, 206.215
1487.318, 151.320
1488.498, 361.498
1489.678, 78.773
1490.857, 18.762
1492.037, 71.986
1493.216, 327.889
1494.395, 139.918
1495.574, 119.061
1496.752, 188.379
1497.931, 78.889
1499.109, 263.592
1500.287, 52.529
1501.465, 73.748
1502.643, 21.275
1503.820, 57.135
1504.998, 177.312
1506.175, 188.652
1507.352, 42.121
1508.529, 80.645
1509.706, 6.314
1510.882, 85.783
1512.059, 76.473
1513.235, 175.779
1514.411, 132.721
1515.587, 0.000
##END=



