##NAMES=Heulandite-Ca
##RRUFFID=R050097
##IDEAL CHEMISTRY=(Ca,Na,K)_5_(Si_27_Al_9_)O_72_&#183;26H_2_O
##LOCALITY=Rat's Nest Claim, Custer County, Idaho, USA
##OWNER=RRUFF
##SOURCE=John Cornish
##DESCRIPTION=Pale pink coffin-shaped tabular single crystals
##STATUS=The identification of this mineral has been confirmed by X-ray diffraction and chemical analysis
##URL=rruff.info/R050097
##MEASURED CHEMISTRY=(Ca_0.66_Na_0.30_K_0.04_)_5_(Si_0.77_Al_0.23_)_36_O_72_Â·24H_2_O
##PIN_ID=L00358
##ORIENTATION=Laser parallel to -b* (0 -1 0). Fiducial mark perpendicular to laser is parallel to c [0 0 1]
217.220, 0.000
218.594, 24.223
219.967, 198.018
221.341, 7.964
222.714, 76.114
224.087, 123.211
225.460, 45.286
226.832, 106.978
228.204, 75.109
229.577, 131.926
230.948, 14.982
232.320, 178.014
233.692, 264.848
235.063, 377.193
236.434, 290.588
237.805, 526.163
239.175, 663.655
240.545, 761.139
241.916, 1074.672
243.286, 1246.303
244.655, 1364.060
246.025, 1573.964
247.394, 1744.021
248.763, 1728.238
250.132, 1900.612
251.501, 1890.140
252.869, 1934.734
254.237, 1887.581
255.605, 1872.896
256.973, 1844.816
258.340, 1630.533
259.708, 1689.479
261.075, 1492.649
262.442, 1517.041
263.808, 1370.639
265.175, 1182.640
266.541, 1122.654
267.907, 843.000
269.273, 790.555
270.639, 781.301
272.004, 633.221
273.369, 613.302
274.734, 382.524
276.099, 411.842
277.463, 315.389
278.828, 451.939
280.192, 259.620
281.556, 348.391
282.919, 442.246
284.283, 57.179
285.646, 164.184
287.009, 124.746
288.372, 61.387
289.734, 120.424
291.097, 34.179
292.459, 5.885
293.821, 62.540
295.183, 8.141
296.544, 93.331
297.905, 120.938
299.266, 140.210
300.627, 346.424
301.988, 201.287
303.348, 144.267
304.709, 313.396
306.069, 367.583
307.428, 323.095
308.788, 460.963
310.147, 277.992
311.507, 567.268
312.865, 447.748
314.224, 515.384
315.583, 518.118
316.941, 495.828
318.299, 586.504
319.657, 597.145
321.015, 733.752
322.372, 610.326
323.729, 641.867
325.086, 703.378
326.443, 666.859
327.800, 818.311
329.156, 746.734
330.512, 969.135
331.868, 939.508
333.224, 1035.854
334.579, 1175.120
335.935, 1013.306
337.290, 1245.453
338.645, 1158.569
339.999, 1308.664
341.354, 1405.739
342.708, 1542.795
344.062, 1633.830
345.416, 1627.844
346.769, 1850.838
348.123, 1875.811
349.476, 1949.763
350.829, 2147.934
352.182, 2215.602
353.534, 2485.486
354.887, 2607.351
356.239, 2757.192
357.591, 3150.021
358.942, 3172.830
360.294, 3501.628
361.645, 3702.420
362.996, 3975.212
364.347, 4273.997
365.698, 4484.779
367.048, 4949.561
368.398, 5058.350
369.748, 5484.145
371.098, 5698.984
372.448, 6215.703
373.797, 6491.914
375.146, 6745.949
376.495, 7288.789
377.844, 7487.881
379.192, 7976.814
380.540, 8434.176
381.889, 8854.924
383.236, 9428.551
384.584, 10020.569
385.932, 10626.025
387.279, 11273.208
388.626, 12007.960
389.973, 13126.671
391.319, 13716.839
392.666, 15099.639
394.012, 15867.938
395.358, 17094.162
396.704, 17887.021
398.049, 18674.107
399.394, 20089.357
400.740, 20522.787
402.084, 21149.949
403.429, 21266.141
404.774, 21025.016
406.118, 20802.242
407.462, 19887.963
408.806, 19440.299
410.150, 18495.236
411.493, 17430.715
412.836, 16706.281
414.179, 16066.147
415.522, 14529.429
416.865, 13283.794
418.207, 12542.139
419.549, 11454.702
420.891, 10765.066
422.233, 9802.700
423.575, 8950.081
424.916, 8164.469
426.257, 7522.858
427.598, 6791.250
428.939, 6238.643
430.279, 5572.035
431.619, 5148.521
432.959, 4906.824
434.299, 4459.216
435.639, 4023.604
436.978, 3867.986
438.318, 3544.363
439.657, 3243.732
440.996, 3139.095
442.334, 2941.448
443.673, 2700.792
445.011, 2803.127
446.349, 2531.451
447.687, 2773.765
449.024, 2587.430
450.361, 2681.721
451.699, 2597.658
453.036, 2597.254
454.372, 3150.428
455.709, 3227.121
457.045, 3678.241
458.381, 4104.454
459.717, 4427.650
461.053, 5205.834
462.388, 5462.999
463.724, 6169.148
465.059, 6548.279
466.394, 7118.393
467.728, 7622.486
469.063, 7899.561
470.397, 8258.611
471.731, 8717.640
473.065, 9143.644
474.398, 10152.621
475.732, 10776.575
477.065, 11849.500
478.398, 13028.399
479.731, 14055.271
481.063, 15002.113
482.396, 16365.933
483.728, 16974.723
485.060, 16621.482
486.391, 16508.219
487.723, 15569.929
489.054, 14295.610
490.385, 13204.284
491.716, 11415.909
493.047, 10005.961
494.377, 8623.873
495.708, 7191.923
497.038, 6008.550
498.368, 4962.439
499.697, 4229.250
501.027, 3406.388
502.356, 3138.453
503.685, 2396.792
505.014, 1976.634
506.342, 1751.828
507.671, 1360.449
508.999, 1116.674
510.327, 992.475
511.655, 777.996
512.982, 698.563
514.310, 612.924
515.637, 603.275
516.964, 519.747
518.291, 553.895
519.617, 441.259
520.944, 310.866
522.270, 290.036
523.596, 191.526
524.921, 202.130
526.247, 205.091
527.572, 311.590
528.897, 173.115
530.222, 148.449
531.547, 52.100
532.871, 119.536
534.196, 31.834
535.520, 169.353
536.844, 43.545
538.167, 104.711
539.491, 185.621
540.814, 88.584
542.137, 128.062
543.460, 86.322
544.783, 159.505
546.105, 51.862
547.427, 29.270
548.749, 88.643
550.071, 365.116
551.393, 8.400
552.714, 22.361
554.035, 235.295
555.356, 21.259
556.677, 231.311
557.998, 74.021
559.318, 25.632
560.638, 135.336
561.958, 71.764
563.278, 82.076
564.597, 87.463
565.917, 31.092
567.236, 88.565
568.555, 15.773
569.874, 74.240
571.192, 340.023
572.511, 268.638
573.829, 149.840
575.147, 732.699
576.464, 430.782
577.782, 298.025
579.099, 361.628
580.416, 286.569
581.733, 381.687
583.050, 439.160
584.366, 469.649
585.683, 660.896
586.999, 725.396
588.315, 740.902
589.630, 793.693
590.946, 999.211
592.261, 1140.812
593.576, 1244.153
594.891, 1432.328
596.206, 1587.360
597.520, 1974.294
598.834, 2021.188
600.148, 2258.041
601.462, 2547.853
602.776, 2634.661
604.089, 3113.395
605.402, 3231.145
606.715, 3360.199
608.028, 3436.849
609.341, 3343.456
610.653, 3514.040
611.965, 3352.587
613.277, 3216.091
614.589, 3133.562
615.901, 3098.005
617.212, 2813.412
618.523, 2634.777
619.834, 2393.100
621.145, 2154.376
622.456, 2090.608
623.766, 1788.799
625.076, 1780.944
626.386, 1587.048
627.696, 1429.107
629.006, 1328.147
630.315, 1111.146
631.624, 935.098
632.933, 994.008
634.242, 836.878
635.551, 701.720
636.859, 656.517
638.167, 549.269
639.475, 606.983
640.783, 549.652
642.090, 501.752
643.398, 568.868
644.705, 405.408
646.012, 399.903
647.318, 358.353
648.625, 367.756
649.931, 255.115
651.237, 282.426
652.543, 241.687
653.849, 336.898
655.155, 267.062
656.460, 280.178
657.765, 54.244
659.070, 205.249
660.375, 133.202
661.679, 69.103
662.984, 153.942
664.288, 84.730
665.592, 132.460
666.895, 63.135
668.199, 85.749
669.502, 105.307
670.805, 71.808
672.108, 95.250
673.411, 11.364
674.713, 111.936
676.016, 187.179
677.318, 31.742
678.620, 97.868
679.921, 63.003
681.223, 53.824
682.524, 111.020
683.825, 56.026
685.126, 188.201
686.427, 225.971
687.727, 141.243
689.028, 182.023
690.328, 142.058
691.628, 230.470
692.927, 219.800
694.227, 218.026
695.526, 268.288
696.825, 250.659
698.124, 123.762
699.423, 316.788
700.721, 237.149
702.020, 275.005
703.318, 130.050
704.616, 128.323
705.913, 174.203
707.211, 279.350
708.508, 378.660
709.805, 58.766
711.102, 251.002
712.399, 250.611
713.695, 115.367
714.992, 238.567
716.288, 137.664
717.584, 212.778
718.879, 172.780
720.175, 162.868
721.470, 191.885
722.765, 131.906
724.060, 141.734
725.355, 213.659
726.649, 125.587
727.944, 290.929
729.238, 122.312
730.532, 193.255
731.825, 130.681
733.119, 83.125
734.412, 232.430
735.705, 141.668
736.998, 89.826
738.291, 233.909
739.584, 220.118
740.876, 278.236
742.168, 198.174
743.460, 192.070
744.752, 113.674
746.043, 168.804
747.334, 140.371
748.626, 191.838
749.916, 227.950
751.207, 254.178
752.498, 277.870
753.788, 328.748
755.078, 284.005
756.368, 295.622
757.658, 256.854
758.947, 297.995
760.237, 249.536
761.526, 165.933
762.815, 348.337
764.104, 296.305
765.392, 294.689
766.680, 503.713
767.969, 321.809
769.257, 323.797
770.544, 588.223
771.832, 507.358
773.119, 512.480
774.406, 435.120
775.693, 631.720
776.980, 588.279
778.267, 562.922
779.553, 635.623
780.839, 625.477
782.125, 693.875
783.411, 699.024
784.697, 684.721
785.982, 723.068
787.267, 760.623
788.552, 820.207
789.837, 797.832
791.122, 754.054
792.406, 721.279
793.690, 688.238
794.974, 663.119
796.258, 638.955
797.542, 622.976
798.825, 641.856
800.108, 625.845
801.391, 714.668
802.674, 653.634
803.957, 706.359
805.239, 631.593
806.522, 688.082
807.804, 538.184
809.085, 610.645
810.367, 699.812
811.649, 544.961
812.930, 676.713
814.211, 734.473
815.492, 755.896
816.772, 563.748
818.053, 638.184
819.333, 580.129
820.613, 558.403
821.893, 579.037
823.173, 557.886
824.452, 509.452
825.732, 460.582
827.011, 377.887
828.290, 303.967
829.568, 275.855
830.847, 127.092
832.125, 213.789
833.403, 186.469
834.681, 144.766
835.959, 47.883
837.236, 79.574
838.514, 123.660
839.791, 70.656
841.068, 149.775
842.345, 112.512
843.621, 108.608
844.898, 57.978
846.174, 1.065
847.450, 45.196
848.726, 15.593
850.001, 20.438
851.277, 8.577
852.552, 48.654
853.827, 65.707
855.102, 91.458
856.376, 140.341
857.651, 190.636
858.925, 76.907
860.199, 121.406
861.473, 187.316
862.746, 3.521
864.020, 93.180
865.293, 90.049
866.566, 44.080
867.839, 6.704
869.112, 24.794
870.384, 53.349
871.656, 148.575
872.928, 34.058
874.200, 39.577
875.472, 1.028
876.744, 83.388
878.015, 20.169
879.286, 77.457
880.557, 6.145
881.828, 24.748
883.098, 3.985
884.369, 67.495
885.639, 51.228
886.909, 46.282
888.178, 76.278
889.448, 20.436
890.717, 88.351
891.987, 46.847
893.256, 57.263
894.524, 88.855
895.793, 43.866
897.061, 170.327
898.330, 7.175
899.598, 7.771
900.865, 200.134
902.133, 52.766
903.401, 21.577
904.668, 14.683
905.935, 6.978
907.202, 140.246
908.468, 37.493
909.735, 10.282
911.001, 128.877
912.267, 22.049
913.533, 45.142
914.799, 68.134
916.064, 161.935
917.330, 13.982
918.595, 89.008
919.860, 61.013
921.124, 74.997
922.389, 59.038
923.653, 21.125
924.918, 9.757
926.182, 230.616
927.445, 147.008
928.709, 217.282
929.972, 80.089
931.236, 54.879
932.499, 7.648
933.761, 138.399
935.024, 101.867
936.286, 78.797
937.549, 84.444
938.811, 24.075
940.073, 25.312
941.334, 62.726
942.596, 70.812
943.857, 58.334
945.118, 27.159
946.379, 158.318
947.640, 25.213
948.900, 64.229
950.161, 105.655
951.421, 45.084
952.681, 91.498
953.940, 28.938
955.200, 95.362
956.459, 124.773
957.719, 35.180
958.978, 152.574
960.236, 180.959
961.495, 65.332
962.753, 80.695
964.012, 105.049
965.270, 88.719
966.527, 123.741
967.785, 132.076
969.043, 169.407
970.300, 170.732
971.557, 156.055
972.814, 235.372
974.071, 130.686
975.327, 258.995
976.583, 173.302
977.840, 86.605
979.095, 413.907
980.351, 88.219
981.607, 229.527
982.862, 351.457
984.117, 143.762
985.372, 243.955
986.627, 259.980
987.882, 294.631
989.136, 403.416
990.390, 216.394
991.644, 420.181
992.898, 297.298
994.152, 373.270
995.405, 371.386
996.659, 346.137
997.912, 426.044
999.165, 493.202
1000.417, 478.787
1001.670, 628.544
1002.922, 690.050
1004.174, 672.039
1005.426, 607.605
1006.678, 631.534
1007.930, 621.675
1009.181, 590.012
1010.432, 519.900
1011.683, 870.001
1012.934, 732.359
1014.185, 685.426
1015.435, 888.427
1016.685, 715.419
1017.935, 805.016
1019.185, 759.974
1020.435, 739.821
1021.684, 917.897
1022.934, 873.015
1024.183, 838.344
1025.432, 1048.348
1026.680, 858.830
1027.929, 729.846
1029.177, 952.136
1030.425, 932.851
1031.673, 1003.028
1032.921, 930.823
1034.169, 910.515
1035.416, 1117.502
1036.663, 1000.430
1037.911, 1133.239
1039.157, 1089.285
1040.404, 921.104
1041.650, 1042.215
1042.897, 912.157
1044.143, 1019.150
1045.389, 1085.280
1046.634, 938.407
1047.880, 1109.786
1049.125, 867.595
1050.371, 922.923
1051.615, 969.308
1052.860, 960.010
1054.105, 995.672
1055.349, 886.552
1056.593, 1089.400
1057.837, 1150.793
1059.081, 963.787
1060.325, 1144.129
1061.568, 1023.523
1062.812, 1148.480
1064.055, 1165.544
1065.298, 1074.562
1066.540, 1052.982
1067.783, 1303.948
1069.025, 1227.239
1070.267, 1334.425
1071.509, 1395.590
1072.751, 1424.252
1073.993, 1477.505
1075.234, 1533.524
1076.475, 1603.992
1077.716, 1610.468
1078.957, 1701.952
1080.198, 1895.320
1081.438, 1866.597
1082.679, 1978.689
1083.919, 2180.204
1085.159, 2175.658
1086.398, 2069.091
1087.638, 2283.562
1088.877, 2073.797
1090.116, 2463.972
1091.355, 2527.075
1092.594, 2507.552
1093.833, 2572.994
1095.071, 2396.195
1096.309, 2678.658
1097.547, 2654.004
1098.785, 2304.539
1100.023, 2521.717
1101.260, 2710.204
1102.498, 2765.473
1103.735, 2754.928
1104.972, 2632.617
1106.208, 2648.374
1107.445, 2623.906
1108.681, 2642.631
1109.918, 2790.365
1111.154, 2594.078
1112.389, 2592.839
1113.625, 2661.611
1114.860, 2543.396
1116.096, 2817.194
1117.331, 2547.006
1118.566, 2597.830
1119.800, 2886.959
1121.035, 2539.811
1122.269, 2733.675
1123.503, 2733.553
1124.737, 2609.446
1125.971, 2780.424
1127.205, 2746.346
1128.438, 2636.283
1129.671, 2723.234
1130.904, 2679.371
1132.137, 2768.186
1133.370, 2685.188
1134.602, 2785.204
1135.834, 2761.324
1137.066, 2824.377
1138.298, 2573.452
1139.530, 2885.896
1140.762, 2843.010
1141.993, 2541.250
1143.224, 3013.400
1144.455, 2675.604
1145.686, 2812.829
1146.917, 2734.081
1148.147, 2860.370
1149.377, 2898.683
1150.607, 2718.014
1151.837, 2729.369
1153.067, 2736.001
1154.296, 2487.246
1155.526, 2791.104
1156.755, 2561.369
1157.984, 2703.652
1159.213, 2648.977
1160.441, 2359.296
1161.670, 2394.633
1162.898, 2300.984
1164.126, 2230.357
1165.354, 2300.748
1166.581, 2153.170
1167.809, 2047.617
1169.036, 2036.104
1170.263, 1961.521
1171.490, 2134.994
1172.717, 1903.422
1173.943, 1940.790
1175.170, 1723.167
1176.396, 1710.087
1177.622, 1555.479
1178.848, 1614.887
1180.073, 1540.291
1181.299, 1518.701
1182.524, 1430.381
1183.749, 1259.642
1184.974, 1429.890
1186.199, 1136.186
1187.423, 1003.414
1188.648, 1214.626
1189.872, 882.846
1191.096, 1019.006
1192.320, 837.146
1193.543, 712.245
1194.767, 841.344
1195.990, 676.422
1197.213, 648.484
1198.436, 763.538
1199.659, 486.239
1200.881, 562.305
1202.104, 576.471
1203.326, 416.830
1204.548, 641.431
1205.770, 315.062
1206.991, 391.720
1208.213, 543.425
1209.434, 289.174
1210.655, 523.951
1211.876, 267.771
1213.096, 297.652
1214.317, 451.559
1215.537, 303.490
1216.757, 272.453
1217.977, 264.475
1219.197, 225.554
1220.417, 306.673
1221.636, 273.863
1222.855, 151.095
1224.074, 291.360
1225.293, 302.646
1226.512, 68.904
1227.731, 178.149
1228.949, 160.413
1230.167, 327.708
1231.385, 132.032
1232.603, 212.389
1233.820, 240.775
1235.038, 287.191
1236.255, 59.637
1237.472, 330.114
1238.689, 163.623
1239.906, 283.164
1241.122, 284.736
1242.338, 26.656
1243.555, 320.922
1244.771, 71.492
1245.986, 70.951
1247.202, 451.629
1248.417, 149.764
1249.633, 303.871
1250.848, 251.535
1252.063, 25.775
1253.277, 265.936
1254.492, 138.648
1255.706, 95.355
1256.920, 306.092
1258.134, 231.861
1259.348, 104.658
1260.562, 130.488
1261.775, 66.348
1262.988, 240.240
1264.201, 141.166
1265.414, 2.125
1266.627, 347.121
1267.839, 85.160
1269.052, 131.248
1270.264, 645.385
1271.476, 66.572
1272.688, 275.818
1273.899, 284.125
1275.111, 91.484
1276.322, 357.912
1277.533, 121.406
1278.744, 171.955
1279.955, 383.559
1281.165, 61.781
1282.376, 171.934
1283.586, 293.701
1284.796, 77.475
1286.006, 299.400
1287.215, 10.326
1288.425, 143.309
1289.634, 455.346
1290.843, 178.443
1292.052, 243.598
1293.261, 382.812
1294.469, 262.090
1295.678, 228.090
1296.886, 190.436
1298.094, 71.672
1299.302, 568.525
1300.509, 24.980
1301.717, 197.574
1302.924, 244.191
1304.131, 50.170
1305.338, 279.490
1306.545, 168.170
1307.752, 187.824
1308.958, 383.498
1310.164, 282.908
1311.370, 277.572
1312.576, 239.223
1313.782, 154.850
1314.987, 322.348
1316.193, 398.057
1317.398, 106.855
1318.603, 272.654
1319.807, 262.336
1321.012, 28.650
1322.216, 418.607
1323.421, 177.658
1324.625, 215.828
1325.829, 406.266
1327.032, 15.949
1328.236, 347.381
1329.439, 190.971
1330.642, 74.498
1331.845, 258.459
1333.048, 105.734
1334.251, 74.275
1335.453, 251.836
1336.656, 113.225
1337.858, 211.523
1339.060, 228.268
1340.261, 85.959
1341.463, 170.771
1342.664, 293.746
1343.866, 2.574
1345.067, 217.457
1346.267, 1.768
1347.468, 0.000
##END=



