##NAMES=Heulandite-Ca
##RRUFFID=R050097
##IDEAL CHEMISTRY=(Ca,Na,K)_5_(Si_27_Al_9_)O_72_&#183;26H_2_O
##LOCALITY=Rat's Nest Claim, Custer County, Idaho, USA
##OWNER=RRUFF
##SOURCE=John Cornish
##DESCRIPTION=Pale pink coffin-shaped tabular single crystals
##STATUS=The identification of this mineral has been confirmed by X-ray diffraction and chemical analysis
##URL=rruff.info/R050097
##MEASURED CHEMISTRY=(Ca_0.66_Na_0.30_K_0.04_)_5_(Si_0.77_Al_0.23_)_36_O_72_Â·24H_2_O
##PIN_ID=M00432
##ORIENTATION=Laser parallel to -c* (0 0 -1). Fiducial mark perpendicular to laser is parallel to a [1 0 0]
75.937, 0.000
77.333, 27.440
78.729, 307.613
80.125, 969.918
81.521, 1216.293
82.916, 1748.873
84.311, 2426.893
85.706, 2757.043
87.101, 3112.383
88.496, 3639.385
89.890, 3922.805
91.284, 4384.723
92.678, 4795.338
94.071, 5131.789
95.465, 5562.941
96.858, 5837.986
98.251, 6103.311
99.644, 6362.062
101.036, 6476.221
102.428, 6666.053
103.820, 6730.516
105.212, 7064.795
106.604, 7337.271
107.995, 7445.447
109.387, 7784.355
110.777, 7731.529
112.168, 8228.617
113.559, 8376.912
114.949, 8399.145
116.339, 8893.611
117.729, 9270.225
119.119, 9586.176
120.508, 9520.688
121.897, 9051.047
123.286, 9615.512
124.675, 9175.311
126.063, 8863.645
127.452, 8823.701
128.840, 8377.629
130.228, 8014.561
131.615, 7502.617
133.003, 7518.898
134.390, 6936.494
135.777, 6711.482
137.164, 6454.928
138.550, 6662.883
139.937, 6654.395
141.323, 6382.504
142.709, 6278.172
144.094, 6418.785
145.480, 6455.088
146.865, 6539.324
148.250, 6659.926
149.635, 6700.627
151.019, 6441.029
152.403, 6469.535
153.788, 6396.441
155.171, 6250.551
156.555, 6347.523
157.939, 5685.930
159.322, 5616.953
160.705, 5389.465
162.088, 4831.680
163.470, 4746.314
164.853, 4388.443
166.235, 4069.111
167.617, 3706.338
168.998, 3578.139
170.380, 3102.510
171.761, 2829.445
173.142, 2327.934
174.523, 2388.965
175.904, 2166.521
177.284, 1700.588
178.664, 1702.146
180.044, 1456.170
181.424, 1452.637
182.803, 1213.525
184.183, 1006.820
185.562, 882.498
186.940, 783.547
188.319, 658.951
189.698, 575.426
191.076, 525.766
192.454, 457.150
193.831, 403.828
195.209, 352.051
196.586, 388.914
197.963, 251.258
199.340, 238.760
200.717, 191.404
202.093, 329.186
203.470, 261.104
204.846, 241.154
206.221, 142.342
207.597, 51.490
208.972, 1.477
210.347, 172.312
211.722, 188.604
213.097, 287.771
214.472, 504.811
215.846, 426.727
217.220, 501.521
218.594, 519.195
219.967, 487.752
221.341, 447.189
222.714, 595.514
224.087, 591.725
225.460, 491.881
226.832, 530.137
228.204, 383.596
229.577, 488.354
230.948, 478.406
232.320, 458.666
233.692, 335.064
235.063, 246.596
236.434, 367.268
237.805, 234.084
239.175, 269.807
240.545, 212.602
241.916, 75.430
243.286, 62.143
244.655, 188.457
246.025, 341.643
247.394, 417.029
248.763, 469.168
250.132, 399.789
251.501, 771.602
252.869, 613.416
254.237, 786.080
255.605, 789.473
256.973, 816.494
258.340, 1073.066
259.708, 937.117
261.075, 960.580
262.442, 928.389
263.808, 819.486
265.175, 764.836
266.541, 964.398
267.907, 924.150
269.273, 839.070
270.639, 1080.135
272.004, 631.330
273.369, 1020.648
274.734, 974.070
276.099, 919.559
277.463, 939.072
278.828, 975.559
280.192, 734.984
281.556, 718.322
282.919, 893.564
284.283, 866.719
285.646, 1019.791
287.009, 1037.996
288.372, 875.738
289.734, 1149.627
291.097, 1018.465
292.459, 1201.264
293.821, 1336.021
295.183, 1183.746
296.544, 1385.441
297.905, 1203.109
299.266, 1530.754
300.627, 1393.377
301.988, 1434.980
303.348, 1363.568
304.709, 1547.139
306.069, 1720.693
307.428, 1938.148
308.788, 1999.312
310.147, 2023.977
311.507, 2293.088
312.865, 2386.629
314.224, 2580.596
315.583, 2567.992
316.941, 2862.916
318.299, 3013.357
319.657, 3048.414
321.015, 3474.184
322.372, 3654.725
323.729, 3682.133
325.086, 4044.600
326.443, 4147.152
327.800, 4049.785
329.156, 4700.496
330.512, 4208.283
331.868, 4794.145
333.224, 4763.074
334.579, 5150.074
335.935, 4855.141
337.290, 5255.270
338.645, 5461.459
339.999, 5367.705
341.354, 5528.008
342.708, 5703.375
344.062, 6032.795
345.416, 6047.264
346.769, 6471.789
348.123, 6666.365
349.476, 6708.994
350.829, 7111.664
352.182, 7395.379
353.534, 7942.141
354.887, 8232.953
356.239, 8378.811
357.591, 8829.715
358.942, 9152.670
360.294, 9707.656
361.645, 10233.680
362.996, 10506.750
364.347, 11174.857
365.698, 11555.008
367.048, 12323.195
368.398, 12696.414
369.748, 13149.664
371.098, 13780.109
372.448, 14109.594
373.797, 14860.039
375.146, 15076.793
376.495, 15824.051
377.844, 16853.535
379.192, 16919.102
380.540, 18403.996
381.889, 18318.893
383.236, 19198.518
384.584, 20413.221
385.932, 21342.539
387.279, 22221.883
388.626, 23457.973
389.973, 25012.879
391.319, 25905.738
392.666, 27878.570
394.012, 28848.336
395.358, 30477.104
396.704, 32064.402
398.049, 33347.621
399.394, 35151.184
400.740, 35271.379
402.084, 36511.707
403.429, 36207.086
404.774, 35980.594
406.118, 36310.227
407.462, 34630.125
408.806, 33164.273
410.150, 31893.100
411.493, 30451.865
412.836, 29149.914
414.179, 27279.721
415.522, 25057.988
416.865, 24046.254
418.207, 22095.520
419.549, 20143.773
420.891, 18666.016
422.233, 17363.398
423.575, 16020.613
424.916, 13991.809
426.257, 13280.992
427.598, 11895.154
428.939, 10685.291
430.279, 9968.414
431.619, 8581.508
432.959, 7835.584
434.299, 7299.633
435.639, 6959.656
436.978, 6036.656
438.318, 5794.633
439.657, 5147.586
440.996, 5139.510
442.334, 4803.406
443.673, 4291.277
445.011, 4210.121
446.349, 4318.938
447.687, 4155.730
449.024, 4104.498
450.361, 4222.240
451.699, 4102.953
453.036, 4433.643
454.372, 4849.305
455.709, 5336.943
457.045, 5411.555
458.381, 6290.137
459.717, 6419.695
461.053, 7292.229
462.388, 8033.736
463.724, 8960.217
465.059, 10025.672
466.394, 10302.098
467.728, 11052.500
469.063, 11981.875
470.397, 12455.221
471.731, 12864.549
473.065, 13973.855
474.398, 14425.141
475.732, 16155.416
477.065, 16829.674
478.398, 18675.916
479.731, 20097.154
481.063, 21884.381
482.396, 22708.600
483.728, 23607.818
485.060, 24219.023
486.391, 23392.227
487.723, 22878.420
489.054, 21604.605
490.385, 20292.795
491.716, 18389.977
493.047, 15876.148
494.377, 14171.314
495.708, 12326.471
497.038, 10728.646
498.368, 8957.812
499.697, 7557.967
501.027, 6449.111
502.356, 5409.654
503.685, 4805.992
505.014, 4123.129
506.342, 3259.816
507.671, 3042.865
508.999, 2568.760
510.327, 2305.258
511.655, 1970.502
512.982, 1706.090
514.310, 1558.643
515.637, 1325.490
516.964, 1315.924
518.291, 876.111
519.617, 1146.043
520.944, 1015.943
522.270, 601.330
523.596, 922.260
524.921, 530.309
526.247, 604.258
527.572, 351.197
528.897, 424.887
530.222, 434.840
531.547, 261.027
532.871, 273.309
534.196, 215.754
535.520, 7.357
536.844, 90.566
538.167, 49.957
539.491, 120.850
540.814, 10.332
542.137, 8.258
543.460, 136.887
544.783, 84.779
546.105, 337.473
547.427, 104.252
548.749, 119.035
550.071, 247.965
551.393, 113.857
552.714, 34.244
554.035, 86.596
555.356, 198.281
556.677, 173.170
557.998, 226.346
559.318, 46.604
560.638, 388.850
561.958, 80.137
563.278, 222.984
564.597, 85.412
565.917, 85.834
567.236, 9.209
568.555, 75.359
569.874, 129.135
571.192, 180.459
572.511, 200.783
573.829, 279.070
575.147, 366.408
576.464, 324.445
577.782, 383.717
579.099, 297.861
580.416, 245.018
581.733, 321.090
583.050, 676.127
584.366, 405.676
585.683, 906.645
586.999, 749.602
588.315, 860.893
589.630, 1013.855
590.946, 1237.057
592.261, 1468.908
593.576, 1283.719
594.891, 1383.012
596.206, 1649.984
597.520, 1890.906
598.834, 2283.592
600.148, 2451.250
601.462, 2517.873
602.776, 2929.453
604.089, 3528.340
605.402, 3119.848
606.715, 3318.316
608.028, 3882.746
609.341, 3594.143
610.653, 3519.494
611.965, 3637.811
613.277, 3261.121
614.589, 3430.393
615.901, 2908.625
617.212, 2977.812
618.523, 2697.963
619.834, 2530.070
621.145, 2486.137
622.456, 2360.158
623.766, 2092.137
625.076, 2281.074
626.386, 2013.967
627.696, 1967.816
629.006, 1306.625
630.315, 1701.391
631.624, 1138.113
632.933, 1054.789
634.242, 1300.418
635.551, 824.004
636.859, 847.555
638.167, 788.109
639.475, 961.572
640.783, 614.996
642.090, 533.371
643.398, 700.705
644.705, 832.508
646.012, 615.754
647.318, 476.750
648.625, 808.062
649.931, 552.170
651.237, 539.309
652.543, 404.492
653.849, 417.502
655.155, 644.412
656.460, 664.271
657.765, 569.977
659.070, 146.957
660.375, 327.316
661.679, 479.123
662.984, 143.172
664.288, 257.301
665.592, 190.336
666.895, 317.018
668.199, 241.684
669.502, 215.871
670.805, 99.896
672.108, 196.133
673.411, 106.896
674.713, 118.980
676.016, 272.625
677.318, 199.256
678.620, 112.197
679.921, 195.729
681.223, 135.402
682.524, 202.045
683.825, 206.119
685.126, 318.371
686.427, 529.078
687.727, 396.055
689.028, 376.637
690.328, 161.938
691.628, 255.211
692.927, 423.504
694.227, 399.824
695.526, 500.031
696.825, 566.951
698.124, 410.334
699.423, 427.023
700.721, 277.609
702.020, 686.959
703.318, 442.859
704.616, 422.346
705.913, 139.367
707.211, 379.670
708.508, 585.914
709.805, 396.609
711.102, 157.316
712.399, 551.832
713.695, 177.182
714.992, 556.533
716.288, 255.033
717.584, 527.518
718.879, 102.010
720.175, 167.213
721.470, 665.059
722.765, 340.992
724.060, 392.293
725.355, 366.754
726.649, 228.443
727.944, 318.199
729.238, 482.713
730.532, 449.906
731.825, 304.008
733.119, 514.654
734.412, 349.566
735.705, 279.383
736.998, 295.045
738.291, 320.883
739.584, 164.699
740.876, 319.287
742.168, 517.615
743.460, 213.420
744.752, 283.715
746.043, 232.012
747.334, 481.039
748.626, 369.508
749.916, 61.553
751.207, 266.426
752.498, 270.441
753.788, 457.639
755.078, 348.842
756.368, 418.516
757.658, 515.693
758.947, 241.605
760.237, 494.029
761.526, 836.602
762.815, 452.740
764.104, 530.641
765.392, 379.166
766.680, 548.518
767.969, 350.785
769.257, 945.723
770.544, 637.658
771.832, 686.240
773.119, 799.039
774.406, 738.188
775.693, 934.197
776.980, 866.898
778.267, 856.207
779.553, 763.402
780.839, 847.432
782.125, 715.365
783.411, 788.387
784.697, 667.303
785.982, 715.730
787.267, 587.779
788.552, 636.086
789.837, 345.982
791.122, 701.383
792.406, 333.992
793.690, 524.961
794.974, 479.635
796.258, 357.234
797.542, 384.035
798.825, 224.279
800.108, 466.629
801.391, 32.209
802.674, 308.098
803.957, 504.268
805.239, 105.150
806.522, 303.793
807.804, 76.729
809.085, 433.611
810.367, 439.771
811.649, 130.012
812.930, 291.664
814.211, 181.705
815.492, 65.176
816.772, 230.691
818.053, 191.000
819.333, 198.719
820.613, 64.514
821.893, 194.623
823.173, 12.350
824.452, 15.316
825.732, 313.406
827.011, 26.949
828.290, 0.682
829.568, 153.736
830.847, 62.186
832.125, 68.820
833.403, 122.256
834.681, 114.932
835.959, 58.645
837.236, 46.766
838.514, 150.736
839.791, 179.402
841.068, 142.729
842.345, 27.748
843.621, 52.471
844.898, 126.068
846.174, 50.232
847.450, 206.609
848.726, 46.301
850.001, 134.207
851.277, 57.107
852.552, 186.809
853.827, 211.564
855.102, 28.443
856.376, 52.639
857.651, 188.188
858.925, 297.010
860.199, 182.980
861.473, 41.844
862.746, 306.701
864.020, 311.523
865.293, 158.812
866.566, 233.943
867.839, 124.094
869.112, 103.637
870.384, 123.047
871.656, 80.684
872.928, 14.885
874.200, 118.166
875.472, 6.771
876.744, 116.633
878.015, 105.873
879.286, 54.662
880.557, 1.014
881.828, 64.941
883.098, 60.277
884.369, 3.559
885.639, 118.783
886.909, 40.955
888.178, 49.074
889.448, 35.094
890.717, 14.354
891.987, 21.941
893.256, 44.410
894.524, 87.752
895.793, 1.012
897.061, 69.305
898.330, 123.143
899.598, 35.949
900.865, 220.500
902.133, 67.900
903.401, 90.268
904.668, 39.773
905.935, 26.225
907.202, 49.084
908.468, 75.986
909.735, 179.006
911.001, 226.984
912.267, 39.436
913.533, 38.430
914.799, 125.273
916.064, 32.924
917.330, 241.818
918.595, 28.523
919.860, 162.818
921.124, 96.717
922.389, 82.211
923.653, 149.658
924.918, 83.068
926.182, 0.432
927.445, 240.750
928.709, 93.027
929.972, 104.262
931.236, 149.455
932.499, 173.609
933.761, 180.727
935.024, 12.189
936.286, 153.844
937.549, 352.838
938.811, 90.795
940.073, 380.715
941.334, 95.602
942.596, 34.555
943.857, 133.240
945.118, 31.947
946.379, 20.340
947.640, 89.324
948.900, 25.629
950.161, 13.467
951.421, 101.559
952.681, 31.064
953.940, 176.732
955.200, 93.006
956.459, 146.650
957.719, 186.674
958.978, 209.836
960.236, 207.090
961.495, 251.365
962.753, 200.605
964.012, 84.920
965.270, 117.881
966.527, 128.326
967.785, 208.320
969.043, 189.988
970.300, 328.479
971.557, 255.986
972.814, 331.799
974.071, 47.299
975.327, 179.732
976.583, 140.010
977.840, 167.906
979.095, 92.205
980.351, 94.088
981.607, 357.309
982.862, 343.453
984.117, 612.199
985.372, 675.629
986.627, 451.193
987.882, 724.900
989.136, 754.164
990.390, 539.342
991.644, 922.627
992.898, 885.766
994.152, 969.227
995.405, 904.889
996.659, 707.936
997.912, 1073.166
999.165, 928.551
1000.417, 1018.201
1001.670, 814.273
1002.922, 1494.025
1004.174, 1087.326
1005.426, 1448.730
1006.678, 1056.598
1007.930, 880.990
1009.181, 1221.332
1010.432, 973.121
1011.683, 1122.426
1012.934, 883.121
1014.185, 1056.910
1015.435, 1122.682
1016.685, 977.551
1017.935, 936.055
1019.185, 1141.150
1020.435, 1280.109
1021.684, 921.150
1022.934, 1128.990
1024.183, 1296.795
1025.432, 1000.838
1026.680, 1362.320
1027.929, 1040.137
1029.177, 1269.064
1030.425, 1237.764
1031.673, 1398.039
1032.921, 1234.723
1034.169, 1132.361
1035.416, 1228.650
1036.663, 1173.555
1037.911, 1199.967
1039.157, 1275.479
1040.404, 1352.912
1041.650, 1434.242
1042.897, 1443.447
1044.143, 1324.928
1045.389, 1403.529
1046.634, 1458.572
1047.880, 1353.068
1049.125, 1115.477
1050.371, 1338.072
1051.615, 1492.139
1052.860, 1078.545
1054.105, 1442.031
1055.349, 1336.287
1056.593, 1202.279
1057.837, 1242.213
1059.081, 1416.896
1060.325, 1289.680
1061.568, 1496.648
1062.812, 1420.012
1064.055, 1413.752
1065.298, 1568.225
1066.540, 1467.674
1067.783, 1453.688
1069.025, 1318.586
1070.267, 1809.641
1071.509, 1523.918
1072.751, 1449.932
1073.993, 1812.330
1075.234, 1648.990
1076.475, 1733.137
1077.716, 1886.244
1078.957, 1788.879
1080.198, 1654.889
1081.438, 2162.188
1082.679, 1896.527
1083.919, 2228.766
1085.159, 2203.855
1086.398, 2400.359
1087.638, 2270.477
1088.877, 2590.465
1090.116, 2743.191
1091.355, 2769.018
1092.594, 2989.977
1093.833, 3030.449
1095.071, 3100.828
1096.309, 2938.488
1097.547, 3458.670
1098.785, 3074.352
1100.023, 3487.160
1101.260, 3488.650
1102.498, 3712.947
1103.735, 3385.801
1104.972, 3629.865
1106.208, 3717.625
1107.445, 4016.756
1108.681, 3564.906
1109.918, 3784.006
1111.154, 3604.080
1112.389, 3742.652
1113.625, 3603.418
1114.860, 3608.723
1116.096, 3641.811
1117.331, 3799.904
1118.566, 3785.537
1119.800, 3654.252
1121.035, 3939.523
1122.269, 3777.527
1123.503, 4099.520
1124.737, 4399.281
1125.971, 4005.600
1127.205, 4206.275
1128.438, 4089.363
1129.671, 4154.559
1130.904, 3883.842
1132.137, 4048.256
1133.370, 4096.791
1134.602, 3916.463
1135.834, 3656.180
1137.066, 3571.211
1138.298, 4119.605
1139.530, 3411.631
1140.762, 4188.133
1141.993, 3751.270
1143.224, 3705.041
1144.455, 3525.338
1145.686, 3417.844
1146.917, 3703.143
1148.147, 3863.131
1149.377, 3542.389
1150.607, 3530.949
1151.837, 3344.951
1153.067, 3433.918
1154.296, 3301.252
1155.526, 3371.359
1156.755, 3078.779
1157.984, 3231.836
1159.213, 3063.143
1160.441, 3061.854
1161.670, 2991.135
1162.898, 2909.010
1164.126, 2856.926
1165.354, 2803.191
1166.581, 2780.096
1167.809, 2764.217
1169.036, 2729.201
1170.263, 2627.561
1171.490, 2540.891
1172.717, 2531.832
1173.943, 2141.070
1175.170, 2180.410
1176.396, 2073.938
1177.622, 2169.000
1178.848, 2067.746
1180.073, 1924.750
1181.299, 1772.969
1182.524, 1603.158
1183.749, 1494.334
1184.974, 1415.338
1186.199, 1378.270
1187.423, 1199.354
1188.648, 1116.158
1189.872, 1309.762
1191.096, 1397.344
1192.320, 1332.346
1193.543, 873.314
1194.767, 1127.014
1195.990, 883.131
1197.213, 777.021
1198.436, 852.330
1199.659, 983.838
1200.881, 625.781
1202.104, 871.893
1203.326, 695.166
1204.548, 878.578
1205.770, 340.068
1206.991, 645.773
1208.213, 449.801
1209.434, 645.031
1210.655, 88.543
1211.876, 182.535
1213.096, 225.549
1214.317, 161.219
1215.537, 210.117
1216.757, 172.959
1217.977, 179.020
1219.197, 223.135
1220.417, 194.572
1221.636, 300.227
1222.855, 319.822
1224.074, 342.211
1225.293, 303.184
1226.512, 220.268
1227.731, 192.627
1228.949, 202.939
1230.167, 27.805
1231.385, 223.963
1232.603, 370.072
1233.820, 319.121
1235.038, 182.451
1236.255, 163.375
1237.472, 216.469
1238.689, 60.254
1239.906, 329.969
1241.122, 245.641
1242.338, 230.268
1243.555, 340.850
1244.771, 153.379
1245.986, 235.861
1247.202, 57.283
1248.417, 236.723
1249.633, 248.041
1250.848, 109.742
1252.063, 516.912
1253.277, 25.977
1254.492, 192.166
1255.706, 210.043
1256.920, 238.859
1258.134, 317.973
1259.348, 12.326
1260.562, 290.941
1261.775, 108.498
1262.988, 84.012
1264.201, 74.709
1265.414, 80.984
1266.627, 132.846
1267.839, 42.182
1269.052, 139.914
1270.264, 215.779
1271.476, 378.359
1272.688, 46.885
1273.899, 279.275
1275.111, 502.547
1276.322, 345.697
1277.533, 97.746
1278.744, 276.689
1279.955, 58.441
1281.165, 466.320
1282.376, 145.018
1283.586, 90.641
1284.796, 135.189
1286.006, 71.363
1287.215, 2.037
1288.425, 172.184
1289.634, 85.309
1290.843, 56.307
1292.052, 52.781
1293.261, 48.117
1294.469, 76.725
1295.678, 57.713
1296.886, 17.264
1298.094, 32.902
1299.302, 166.635
1300.509, 83.500
1301.717, 168.525
1302.924, 14.477
1304.131, 45.346
1305.338, 14.865
1306.545, 72.166
1307.752, 29.422
1308.958, 74.074
1310.164, 143.322
1311.370, 99.363
1312.576, 163.838
1313.782, 28.043
1314.987, 182.980
1316.193, 28.076
1317.398, 402.766
1318.603, 114.527
1319.807, 285.201
1321.012, 72.799
1322.216, 336.309
1323.421, 403.740
1324.625, 226.090
1325.829, 373.355
1327.032, 262.545
1328.236, 513.656
1329.439, 284.697
1330.642, 12.338
1331.845, 76.539
1333.048, 104.338
1334.251, 332.061
1335.453, 6.713
1336.656, 66.281
1337.858, 66.775
1339.060, 44.807
1340.261, 154.520
1341.463, 203.777
1342.664, 332.967
1343.866, 271.092
1345.067, 154.148
1346.267, 345.139
1347.468, 294.066
1348.669, 77.070
1349.869, 459.693
1351.069, 394.092
1352.269, 109.738
1353.469, 541.318
1354.668, 421.846
1355.868, 706.707
1357.067, 533.123
1358.266, 303.902
1359.465, 691.117
1360.664, 604.219
1361.862, 608.375
1363.061, 738.039
1364.259, 396.109
1365.457, 602.207
1366.655, 852.699
1367.852, 569.234
1369.050, 668.824
1370.247, 769.211
1371.444, 502.203
1372.641, 311.012
1373.838, 560.727
1375.035, 521.320
1376.231, 514.633
1377.427, 714.645
1378.623, 381.250
1379.819, 494.266
1381.015, 402.742
1382.211, 534.812
1383.406, 694.566
1384.601, 497.168
1385.796, 685.621
1386.991, 570.156
1388.185, 602.008
1389.380, 573.098
1390.574, 763.160
1391.768, 442.125
1392.962, 764.629
1394.156, 354.402
1395.350, 588.809
1396.543, 884.660
1397.736, 407.355
1398.929, 770.246
1400.122, 614.598
1401.315, 553.785
1402.507, 499.164
1403.700, 501.867
1404.892, 568.832
1406.084, 479.574
1407.276, 330.117
1408.467, 712.527
1409.659, 531.590
1410.850, 488.867
1412.041, 696.500
1413.232, 529.750
1414.423, 793.707
1415.614, 503.762
1416.804, 599.398
1417.994, 673.227
1419.184, 904.016
1420.374, 841.004
1421.564, 716.738
1422.753, 678.477
1423.943, 726.871
1425.132, 425.785
1426.321, 740.734
1427.510, 927.492
1428.698, 684.145
1429.887, 715.238
1431.075, 877.359
1432.263, 820.277
1433.451, 763.738
1434.639, 1053.887
1435.827, 964.121
1437.014, 708.605
1438.201, 1196.395
1439.388, 1053.137
1440.575, 749.777
1441.762, 1115.785
1442.949, 1110.477
1444.135, 1068.238
1445.321, 982.297
1446.507, 1397.758
1447.693, 1134.086
1448.879, 1431.277
1450.064, 1166.133
1451.250, 1337.059
1452.435, 1399.164
1453.620, 1958.320
1454.805, 1367.855
1455.989, 1453.160
1457.174, 1708.203
1458.358, 1367.012
1459.542, 1327.406
1460.726, 1488.809
1461.910, 1424.766
1463.093, 1580.160
1464.277, 1106.270
1465.460, 1251.258
1466.643, 1233.227
1467.826, 947.066
1469.009, 1312.074
1470.191, 920.625
1471.373, 1058.262
1472.556, 1240.605
1473.738, 1156.109
1474.919, 856.637
1476.101, 888.082
1477.283, 795.508
1478.464, 799.086
1479.645, 833.938
1480.826, 949.961
1482.007, 612.195
1483.187, 796.676
1484.368, 530.137
1485.548, 825.594
1486.728, 864.039
1487.908, 648.504
1489.088, 593.023
1490.268, 1104.609
1491.447, 767.273
1492.626, 474.059
1493.805, 327.051
1494.984, 886.250
1496.163, 691.711
1497.341, 443.473
1498.520, 508.500
1499.698, 109.762
1500.876, 567.254
1502.054, 16.016
1503.232, 174.051
1504.409, 13.648
1505.586, 32.070
1506.763, 459.848
1507.940, 884.152
1509.117, 418.910
1510.294, 666.164
1511.470, 413.945
1512.647, 436.609
1513.823, 437.977
1514.999, 481.664
1516.174, 465.664
1517.350, 5.043
1518.526, 571.480
1519.701, 21.805
1520.876, 385.148
1522.051, 239.922
1523.226, 299.223
1524.400, 0.000
##END=



