##NAMES=Heulandite-Ca
##RRUFFID=R050017
##IDEAL CHEMISTRY=(Ca,Na,K)_5_(Si_27_Al_9_)O_72_&#183;26H_2_O
##LOCALITY=Poona, Maharashtra State, India
##OWNER=RRUFF
##SOURCE=Eugene Schlepp
##DESCRIPTION=Single crystals
##STATUS=The identification of this mineral has been confirmed by X-ray diffraction and chemical analysis
##URL=rruff.info/R050017
##MEASURED CHEMISTRY=(Ca_.70_Na_.22_K_.02_[box]_0.06_)_5_(Si_0.77_Al_0.23_)_36_O_72_Â·24H_2_O
##PIN_ID=L00164
##ORIENTATION=Laser parallel to (1 0 1). Fiducial mark perpendicular to laser is parallel to b [0 1 0]
82.592, 0.000
83.988, 440.781
85.384, 31.773
86.780, 959.338
88.175, 901.137
89.571, 2131.848
90.966, 2377.943
92.361, 3010.443
93.755, 3814.783
95.150, 3447.232
96.544, 4483.924
97.938, 4201.484
99.332, 4977.277
100.726, 4590.379
102.119, 4832.557
103.512, 5214.500
104.905, 4634.320
106.298, 5309.520
107.690, 4598.285
109.082, 4908.988
110.474, 4520.555
111.866, 4342.270
113.258, 4423.633
114.649, 3704.277
116.040, 4254.992
117.431, 3349.178
118.822, 3434.793
120.212, 3153.885
121.603, 3015.027
122.993, 2873.443
124.382, 2592.565
125.772, 2528.466
127.161, 2089.212
128.550, 2304.683
129.939, 1925.016
131.328, 2032.316
132.716, 2083.809
134.105, 1719.967
135.493, 2232.144
136.880, 1830.641
138.268, 2305.838
139.655, 2168.060
141.042, 2397.533
142.429, 2674.436
143.816, 2358.836
145.202, 3100.718
146.589, 2970.781
147.975, 3441.529
149.360, 3561.792
150.746, 3905.895
152.131, 4223.211
153.516, 4261.361
154.901, 5152.030
156.286, 4864.136
157.670, 5345.233
159.055, 5294.731
160.439, 5012.276
161.822, 5181.614
163.206, 4505.011
164.589, 4522.182
165.972, 3801.164
167.355, 3672.199
168.738, 3274.190
170.121, 3024.258
171.503, 2819.011
172.885, 2496.682
174.267, 2460.949
175.648, 1988.515
177.029, 2002.314
178.411, 1804.555
179.792, 1784.347
181.172, 2012.339
182.553, 1791.059
183.933, 2130.305
185.313, 2009.685
186.693, 2519.355
188.072, 2648.869
189.452, 2718.092
190.831, 2998.121
192.210, 3209.859
193.588, 3672.762
194.967, 3596.213
196.345, 3760.103
197.723, 3623.556
199.101, 3587.470
200.479, 3650.972
201.856, 3083.655
203.233, 3304.922
204.610, 2773.788
205.987, 2590.388
207.363, 2345.852
208.740, 1931.296
210.116, 1825.705
211.492, 1219.875
212.867, 1253.808
214.243, 827.496
215.618, 860.946
216.993, 574.162
218.367, 277.147
219.742, 229.908
221.116, 85.546
222.490, 194.204
223.864, 254.065
225.238, 358.119
226.611, 380.365
227.985, 511.793
229.357, 308.403
230.730, 579.231
232.103, 378.325
233.475, 547.759
234.847, 472.705
236.219, 440.505
237.591, 490.292
238.962, 399.124
240.334, 388.014
241.705, 218.919
243.075, 199.799
244.446, 161.590
245.816, 58.883
247.186, 145.196
248.556, 196.678
249.926, 82.589
251.296, 382.588
252.665, 407.141
254.034, 384.418
255.403, 742.188
256.771, 518.297
258.140, 873.602
259.508, 675.014
260.876, 793.435
262.244, 911.801
263.611, 822.062
264.978, 1248.172
266.346, 950.104
267.712, 1278.805
269.079, 1334.238
270.446, 1343.367
271.812, 1446.161
273.178, 1517.106
274.544, 1683.696
275.909, 1696.420
277.275, 1828.779
278.640, 1885.774
280.005, 1690.408
281.369, 1998.673
282.734, 1674.559
284.098, 2010.009
285.462, 1811.968
286.826, 1917.380
288.190, 1994.212
289.553, 1748.463
290.916, 2042.139
292.279, 1773.266
293.642, 1990.863
295.004, 1911.953
296.367, 1790.545
297.729, 2022.662
299.091, 1644.333
300.452, 1925.563
301.814, 1662.377
303.175, 1735.780
304.536, 1802.788
305.897, 1512.410
307.257, 1784.654
308.618, 1457.533
309.978, 1753.054
311.338, 1555.225
312.698, 1520.997
314.057, 1700.329
315.416, 1500.116
316.776, 1774.120
318.134, 1656.041
319.493, 1731.745
320.851, 1908.224
322.210, 1685.446
323.568, 2082.417
324.925, 1882.231
326.283, 2200.010
327.640, 2110.988
328.998, 2179.364
330.354, 2414.216
331.711, 2129.712
333.068, 2607.937
334.424, 2422.943
335.780, 2635.758
337.136, 2676.386
338.491, 2490.844
339.847, 2817.143
341.202, 2558.295
342.557, 2939.055
343.912, 2694.609
345.266, 3022.369
346.621, 3097.717
347.975, 2974.230
349.329, 3408.624
350.682, 3108.888
352.036, 3515.021
353.389, 3531.089
354.742, 3627.402
356.095, 4038.545
357.448, 3870.339
358.800, 4361.702
360.152, 4303.436
361.504, 4484.599
362.856, 4915.889
364.208, 4877.799
365.559, 5398.662
366.910, 5340.214
368.261, 5831.457
369.612, 6112.938
370.962, 6034.383
372.313, 6535.566
373.663, 6466.840
375.012, 7095.036
376.362, 7133.501
377.712, 7219.085
379.061, 7854.357
380.410, 7657.216
381.758, 8374.328
383.107, 8390.472
384.455, 8870.079
385.804, 9202.404
387.151, 9451.229
388.499, 10353.335
389.847, 10157.963
391.194, 11171.261
392.541, 11417.283
393.888, 11988.045
395.235, 12958.487
396.581, 12756.480
397.927, 14201.445
399.273, 14000.562
400.619, 14661.396
401.965, 15340.728
403.310, 15255.188
404.655, 15946.124
406.000, 15089.420
407.345, 15417.865
408.689, 14736.435
410.034, 13992.634
411.378, 14186.054
412.722, 12814.558
414.065, 12802.583
415.409, 11699.692
416.752, 11107.217
418.095, 10327.829
419.438, 9446.221
420.781, 9307.853
422.123, 7946.653
423.465, 7636.997
424.807, 7007.392
426.149, 6256.983
427.490, 5928.356
428.832, 4997.517
430.173, 4848.724
431.514, 4289.562
432.855, 3910.213
434.195, 3600.072
435.535, 3122.006
436.875, 3175.419
438.215, 2767.668
439.555, 2622.256
440.894, 2536.868
442.234, 2182.453
443.573, 2311.117
444.911, 1994.220
446.250, 2164.521
447.588, 2044.793
448.927, 1922.310
450.265, 2169.953
451.602, 1910.378
452.940, 2323.846
454.277, 2167.008
455.614, 2308.900
456.951, 2656.286
458.288, 2670.992
459.624, 3318.499
460.961, 3336.257
462.297, 3701.028
463.633, 4023.536
464.968, 3951.191
466.304, 4648.972
467.639, 4515.382
468.974, 5062.781
470.309, 5188.661
471.643, 5165.631
472.978, 5891.629
474.312, 5937.339
475.646, 6803.660
476.980, 7169.005
478.313, 7925.365
479.647, 9061.109
480.980, 9557.057
482.313, 10653.733
483.645, 10599.602
484.978, 11296.722
486.310, 11183.316
487.642, 10380.826
488.974, 10538.029
490.306, 9045.492
491.637, 8373.093
492.968, 7370.704
494.299, 6128.446
495.630, 5636.311
496.961, 4374.126
498.291, 3927.720
499.622, 3277.065
500.952, 2714.849
502.281, 2442.575
503.611, 1828.754
504.940, 1793.374
506.269, 1337.798
507.598, 1263.378
508.927, 1123.301
510.256, 889.873
511.584, 840.252
512.912, 716.271
514.240, 619.089
515.568, 618.553
516.895, 422.792
518.222, 483.276
519.549, 358.097
520.876, 451.042
522.203, 380.660
523.529, 190.659
524.856, 398.503
526.182, 194.618
527.508, 230.361
528.833, 139.861
530.159, 114.438
531.484, 141.722
532.809, 28.069
534.134, 122.229
535.458, 56.777
536.782, 65.791
538.107, 172.553
539.431, 15.499
540.754, 21.281
542.078, 20.579
543.401, 24.068
544.724, 109.684
546.047, 24.748
547.370, 46.518
548.692, 104.277
550.015, 34.025
551.337, 35.531
552.659, 82.896
553.980, 33.564
555.302, 183.815
556.623, 21.058
557.944, 81.852
559.265, 175.696
560.586, 14.385
561.906, 126.030
563.226, 24.420
564.546, 57.178
565.866, 117.820
567.186, 32.464
568.505, 33.630
569.824, 0.297
571.143, 34.571
572.462, 21.481
573.781, 137.477
575.099, 22.133
576.417, 175.927
577.735, 41.325
579.053, 68.366
580.370, 272.863
581.688, 85.725
583.005, 244.572
584.322, 190.970
585.639, 370.750
586.955, 430.883
588.271, 325.375
589.588, 537.434
590.903, 456.426
592.219, 578.854
593.535, 765.799
594.850, 751.723
596.165, 908.612
597.480, 921.467
598.794, 1037.296
600.109, 1365.100
601.423, 1211.875
602.737, 1532.625
604.051, 1441.356
605.365, 1714.051
606.678, 1708.729
607.991, 1694.375
609.304, 1891.991
610.617, 1735.593
611.930, 1793.161
613.242, 1806.714
614.554, 1622.237
615.866, 1697.731
617.178, 1476.210
618.490, 1464.662
619.801, 1222.090
621.112, 1286.492
622.423, 1305.871
623.734, 1047.239
625.045, 987.583
626.355, 922.913
627.665, 726.220
628.975, 759.509
630.285, 453.788
631.594, 549.048
632.904, 437.293
634.213, 376.519
635.522, 397.728
636.831, 310.931
638.139, 339.116
639.447, 281.282
640.756, 228.427
642.063, 338.550
643.371, 206.650
644.679, 285.726
645.986, 252.774
647.293, 241.797
648.600, 313.792
649.907, 125.759
651.213, 218.695
652.519, 170.602
653.825, 163.477
655.131, 198.401
656.437, 4.214
657.743, 115.990
659.048, 111.733
660.353, 1.445
661.658, 102.118
662.962, 38.241
664.267, 76.350
665.571, 53.094
666.875, 43.469
668.179, 72.619
669.483, 35.810
670.786, 5.413
672.089, 5.021
673.392, 21.017
674.695, 1.324
675.998, 82.891
677.300, 52.396
678.602, 36.891
679.904, 23.659
681.206, 21.791
682.508, 29.419
683.809, 9.224
685.111, 41.344
686.412, 21.003
687.712, 64.083
689.013, 35.115
690.313, 60.020
691.614, 0.034
692.914, 61.657
694.213, 107.544
695.513, 53.147
696.812, 80.973
698.112, 6.368
699.411, 104.582
700.709, 125.222
702.008, 43.761
703.306, 138.408
704.604, 65.253
705.902, 73.779
707.200, 53.363
708.498, 43.915
709.795, 121.600
711.092, 116.522
712.389, 101.554
713.686, 30.897
714.983, 76.803
716.279, 55.737
717.575, 77.944
718.871, 48.227
720.167, 156.055
721.463, 32.946
722.758, 160.130
724.053, 47.631
725.348, 46.638
726.643, 217.724
727.937, 50.430
729.232, 40.222
730.526, 171.074
731.820, 7.984
733.114, 158.349
734.407, 7.821
735.701, 128.620
736.994, 36.703
738.287, 38.942
739.579, 138.001
740.872, 46.570
742.164, 192.156
743.456, 101.385
744.748, 201.648
746.040, 226.321
747.332, 104.671
748.623, 260.250
749.914, 224.938
751.205, 258.497
752.496, 260.873
753.787, 263.277
755.077, 329.020
756.367, 299.006
757.657, 305.554
758.947, 484.448
760.236, 319.465
761.526, 435.705
762.815, 484.781
764.104, 407.425
765.393, 606.729
766.681, 493.453
767.969, 512.360
769.258, 643.136
770.546, 521.075
771.833, 639.430
773.121, 606.490
774.408, 610.151
775.695, 656.728
776.982, 532.169
778.269, 648.675
779.556, 547.989
780.842, 531.122
782.128, 668.271
783.414, 533.582
784.700, 715.930
785.986, 575.082
787.271, 622.487
788.556, 448.495
789.841, 838.384
791.126, 832.370
792.411, 841.283
793.695, 426.200
794.979, 542.021
796.263, 470.346
797.547, 451.123
798.831, 417.399
800.114, 334.898
801.397, 398.292
802.680, 338.514
803.963, 371.978
805.246, 340.650
806.528, 276.761
807.810, 335.557
809.092, 197.290
810.374, 323.137
811.656, 313.372
812.937, 231.809
814.218, 273.329
815.499, 237.157
816.780, 304.439
818.061, 330.810
819.341, 213.919
820.621, 194.580
821.901, 45.487
823.181, 175.479
824.461, 189.726
825.740, 81.069
827.019, 191.660
828.299, 55.368
829.577, 17.724
830.856, 69.632
832.134, 60.306
833.413, 97.199
834.691, 5.604
835.969, 20.049
837.246, 39.116
838.524, 10.556
839.801, 46.901
841.078, 77.172
842.355, 30.373
843.632, 32.899
844.908, 100.250
846.185, 126.119
847.461, 71.428
848.736, 2.097
850.012, 35.108
851.288, 9.403
852.563, 52.292
853.838, 85.632
855.113, 23.967
856.388, 83.036
857.662, 56.409
858.937, 127.450
860.211, 108.536
861.485, 102.521
862.758, 110.451
864.032, 26.705
865.305, 40.909
866.578, 121.092
867.851, 33.039
869.124, 75.980
870.397, 57.950
871.669, 91.010
872.941, 80.838
874.213, 69.882
875.485, 62.315
876.757, 77.547
878.028, 41.709
879.299, 101.969
880.570, 37.732
881.841, 55.873
883.112, 49.414
884.382, 19.525
885.652, 15.805
886.922, 69.270
888.192, 17.936
889.462, 4.617
890.731, 47.127
892.000, 58.064
893.269, 46.359
894.538, 43.761
895.807, 12.459
897.075, 33.260
898.344, 43.374
899.612, 46.991
900.880, 45.126
902.147, 20.338
903.415, 32.144
904.682, 63.593
905.949, 17.991
907.216, 24.625
908.483, 5.686
909.749, 23.042
911.016, 29.822
912.282, 88.342
913.548, 37.523
914.814, 53.552
916.079, 6.597
917.344, 41.396
918.610, 106.553
919.875, 36.527
921.139, 73.336
922.404, 27.171
923.668, 30.025
924.932, 14.726
926.196, 58.445
927.460, 68.135
928.724, 89.797
929.987, 37.568
931.251, 99.014
932.514, 1.568
933.776, 117.088
935.039, 67.584
936.301, 22.947
937.564, 84.477
938.826, 19.875
940.088, 97.247
941.349, 114.593
942.611, 39.084
943.872, 87.188
945.133, 75.435
946.394, 62.658
947.655, 124.856
948.915, 76.036
950.176, 92.190
951.436, 109.326
952.696, 92.439
953.955, 156.532
955.215, 96.604
956.474, 111.654
957.734, 90.687
958.993, 173.700
960.251, 170.694
961.510, 169.599
962.768, 45.566
964.027, 204.517
965.285, 71.459
966.542, 180.385
967.800, 232.296
969.057, 104.191
970.315, 331.081
971.572, 211.955
972.829, 223.763
974.085, 297.935
975.342, 225.639
976.598, 259.404
977.854, 345.706
979.110, 197.461
980.366, 383.642
981.621, 321.318
982.877, 377.571
984.132, 472.774
985.387, 336.144
986.641, 491.476
987.896, 441.325
989.150, 427.443
990.404, 485.908
991.658, 480.065
992.912, 581.348
994.166, 495.790
995.419, 550.872
996.672, 718.227
997.925, 525.686
999.178, 700.906
1000.431, 836.849
1001.683, 797.903
1002.936, 863.402
1004.188, 668.514
1005.440, 662.773
1006.691, 771.482
1007.943, 675.716
1009.194, 795.832
1010.445, 772.237
1011.696, 781.566
1012.947, 823.869
1014.197, 785.200
1015.448, 976.113
1016.698, 879.138
1017.948, 893.491
1019.198, 1003.578
1020.447, 830.730
1021.697, 892.801
1022.946, 903.356
1024.195, 836.512
1025.444, 909.370
1026.692, 855.448
1027.941, 889.584
1029.189, 925.143
1030.437, 862.373
1031.685, 845.151
1032.933, 842.185
1034.180, 729.188
1035.427, 878.024
1036.675, 810.616
1037.922, 884.506
1039.168, 939.164
1040.415, 805.360
1041.661, 947.587
1042.907, 865.646
1044.153, 793.939
1045.399, 817.963
1046.645, 795.515
1047.890, 872.611
1049.135, 866.648
1050.380, 790.967
1051.625, 925.010
1052.870, 741.915
1054.114, 783.907
1055.359, 845.039
1056.603, 831.130
1057.847, 783.840
1059.090, 809.266
1060.334, 709.088
1061.577, 865.523
1062.820, 789.799
1064.063, 778.812
1065.306, 909.958
1066.549, 823.505
1067.791, 986.350
1069.033, 808.733
1070.275, 920.896
1071.517, 952.147
1072.759, 919.204
1074.000, 1005.804
1075.241, 1112.660
1076.482, 1098.873
1077.723, 1161.130
1078.964, 1155.490
1080.204, 1217.772
1081.445, 1424.206
1082.685, 1272.788
1083.925, 1412.343
1085.164, 1434.696
1086.404, 1405.976
1087.643, 1588.414
1088.883, 1482.556
1090.122, 1660.063
1091.360, 1726.647
1092.599, 1678.097
1093.837, 1806.579
1095.076, 1818.019
1096.314, 1770.410
1097.552, 2040.050
1098.789, 1827.513
1100.027, 1944.270
1101.264, 2053.887
1102.501, 1912.439
1103.738, 2247.091
1104.975, 2057.675
1106.211, 2106.341
1107.448, 2173.916
1108.684, 2005.577
1109.920, 2102.344
1111.156, 2046.018
1112.391, 1884.476
1113.627, 2155.831
1114.862, 1997.382
1116.097, 2086.067
1117.332, 2205.765
1118.566, 1982.457
1119.801, 2166.238
1121.035, 2216.937
1122.269, 2221.639
1123.503, 2279.348
1124.737, 2086.060
1125.971, 2031.774
1127.204, 2323.495
1128.437, 1973.219
1129.670, 2223.152
1130.903, 2038.890
1132.136, 1993.635
1133.368, 2240.141
1134.600, 2080.896
1135.832, 2081.753
1137.064, 2350.592
1138.296, 1964.398
1139.527, 2178.906
1140.759, 2148.701
1141.990, 1949.743
1143.221, 2266.854
1144.452, 1880.678
1145.682, 2091.505
1146.912, 2146.336
1148.143, 1941.172
1149.373, 2186.359
1150.602, 1990.209
1151.832, 1944.066
1153.062, 2144.553
1154.291, 1790.505
1155.520, 1935.493
1156.749, 1928.547
1157.978, 1797.436
1159.206, 1883.374
1160.434, 1814.540
1161.663, 1687.436
1162.891, 1884.333
1164.118, 1561.340
1165.346, 1657.246
1166.573, 1603.375
1167.801, 1401.372
1169.028, 1588.313
1170.254, 1459.393
1171.481, 1330.512
1172.708, 1444.475
1173.934, 1292.590
1175.160, 1257.581
1176.386, 1261.912
1177.612, 1107.157
1178.837, 1206.457
1180.063, 1134.496
1181.288, 1104.816
1182.513, 1078.359
1183.738, 869.709
1184.962, 1075.805
1186.187, 899.076
1187.411, 798.282
1188.635, 869.718
1189.859, 789.469
1191.083, 642.689
1192.306, 789.355
1193.529, 582.685
1194.753, 620.814
1195.976, 532.772
1197.198, 487.076
1198.421, 571.269
1199.643, 489.969
1200.866, 420.140
1202.088, 491.401
1203.310, 349.677
1204.531, 355.040
1205.753, 425.690
1206.974, 265.353
1208.195, 299.625
1209.416, 218.217
1210.637, 166.546
1211.857, 341.895
1213.078, 160.203
1214.298, 240.516
1215.518, 220.980
1216.738, 180.669
1217.958, 261.926
1219.177, 119.520
1220.396, 129.797
1221.615, 104.063
1222.834, 61.654
1224.053, 97.918
1225.272, 45.868
1226.490, 69.433
1227.708, 87.256
1228.926, 32.848
1230.144, 119.100
1231.362, 143.396
1232.579, 106.322
1233.796, 148.715
1235.013, 126.059
1236.230, 89.377
1237.447, 180.643
1238.664, 40.094
1239.880, 93.433
1241.096, 167.722
1242.312, 57.068
1243.528, 147.780
1244.744, 92.077
1245.959, 4.302
1247.174, 207.024
1248.389, 44.482
1249.604, 76.800
1250.819, 146.090
1252.033, 37.598
1253.248, 104.200
1254.462, 106.496
1255.676, 45.690
1256.890, 173.823
1258.103, 38.113
1259.317, 37.219
1260.530, 97.225
1261.743, 117.491
1262.956, 48.111
1264.169, 80.376
1265.381, 31.689
1266.594, 144.349
1267.806, 146.615
1269.018, 88.891
1270.229, 264.134
1271.441, 99.366
1272.652, 115.935
1273.864, 137.158
1275.075, 11.379
1276.286, 174.938
1277.496, 117.156
1278.707, 31.523
1279.917, 133.828
1281.127, 43.031
1282.337, 50.224
1283.547, 60.409
1284.757, 28.428
1285.966, 185.950
1287.175, 13.068
1288.385, 2.140
1289.593, 119.375
1290.802, 90.406
1292.011, 122.409
1293.219, 148.359
1294.427, 0.300
1295.635, 116.231
1296.843, 118.147
1298.051, 53.981
1299.258, 58.867
1300.465, 54.706
1301.672, 40.520
1302.879, 187.326
1304.086, 26.889
1305.292, 14.170
1306.499, 115.462
1307.705, 88.081
1308.911, 60.688
1310.117, 159.276
1311.322, 33.854
1312.528, 70.419
1313.733, 84.971
1314.938, 53.508
1316.143, 52.032
1317.348, 92.542
1318.552, 61.036
1319.757, 109.499
1320.961, 11.943
1322.165, 37.371
1323.369, 25.343
1324.572, 4.833
1325.776, 26.532
1326.979, 3.881
1328.182, 24.206
1329.385, 86.508
1330.588, 38.209
1331.790, 68.038
1332.993, 15.265
1334.195, 60.533
1335.397, 72.630
1336.599, 90.229
1337.801, 51.864
1339.002, 127.938
1340.203, 62.006
1341.404, 64.011
1342.605, 95.008
1343.806, 41.013
1345.007, 117.936
1346.207, 82.868
1347.407, 97.214
1348.607, 61.657
1349.807, 13.512
1351.007, 13.349
1352.207, 90.169
1353.406, 5.027
1354.605, 79.756
1355.804, 32.475
1357.003, 15.733
1358.201, 87.986
1359.400, 56.030
1360.598, 17.725
1361.796, 171.408
1362.994, 18.919
1364.192, 103.736
1365.389, 170.383
1366.587, 32.024
1367.784, 119.660
1368.981, 7.708
1370.178, 81.079
1371.374, 92.498
1372.571, 8.917
1373.767, 91.344
1374.963, 105.204
1376.159, 11.914
1377.355, 84.484
1378.550, 96.080
1379.746, 4.540
1380.941, 137.246
1382.136, 72.298
1383.331, 104.343
1384.526, 195.377
1385.720, 106.175
1386.914, 32.186
1388.109, 204.188
1389.303, 46.166
1390.496, 113.891
1391.690, 83.788
1392.883, 115.876
1394.077, 134.756
1395.270, 73.537
1396.463, 52.397
1397.655, 182.245
1398.848, 3.080
1400.040, 75.666
1401.232, 215.470
1402.425, 45.192
1403.616, 90.757
1404.808, 171.402
1405.999, 50.817
1407.191, 224.148
1408.382, 122.823
1409.573, 49.059
1410.764, 193.708
1411.954, 125.605
1413.145, 149.827
1414.335, 222.720
1415.525, 53.569
1416.715, 178.934
1417.905, 179.128
1419.094, 57.496
1420.283, 213.550
1421.473, 112.843
1422.662, 103.828
1423.850, 174.537
1425.039, 142.102
1426.228, 240.329
1427.416, 172.920
1428.604, 84.542
1429.792, 173.622
1430.980, 145.451
1432.167, 72.025
1433.355, 279.715
1434.542, 215.025
1435.729, 146.237
1436.916, 347.923
1438.103, 205.749
1439.289, 301.924
1440.475, 443.638
1441.662, 315.625
1442.848, 438.327
1444.033, 432.548
1445.219, 342.341
1446.405, 446.578
1447.590, 330.866
1448.775, 405.177
1449.960, 517.634
1451.145, 395.992
1452.329, 390.583
1453.514, 494.688
1454.698, 349.060
1455.882, 489.566
1457.066, 427.095
1458.250, 367.884
1459.433, 476.520
1460.616, 418.812
1461.800, 409.632
1462.983, 527.403
1464.165, 321.576
1465.348, 337.172
1466.531, 378.374
1467.713, 241.490
1468.895, 292.619
1470.077, 298.734
1471.259, 235.667
1472.440, 334.046
1473.622, 217.121
1474.803, 175.477
1475.984, 269.088
1477.165, 122.488
1478.346, 242.395
1479.526, 347.052
1480.707, 143.734
1481.887, 227.462
1483.067, 238.179
1484.247, 68.875
1485.426, 164.702
1486.606, 215.163
1487.785, 85.602
1488.964, 211.010
1490.143, 45.386
1491.322, 72.726
1492.501, 270.126
1493.679, 67.624
1494.858, 109.185
1496.036, 213.795
1497.214, 44.515
1498.391, 142.372
1499.569, 105.399
1500.746, 11.375
1501.924, 185.036
1503.101, 100.636
1504.277, 44.458
1505.454, 215.465
1506.631, 78.679
1507.807, 85.157
1508.983, 212.939
1510.159, 46.086
1511.335, 46.654
1512.511, 165.969
1513.686, 50.938
1514.862, 150.381
1516.037, 121.359
1517.212, 30.727
1518.387, 180.922
1519.561, 185.052
1520.736, 0.836
1521.910, 0.000
##END=



