##NAMES=Heulandite-Ca
##RRUFFID=R050097
##IDEAL CHEMISTRY=(Ca,Na,K)_5_(Si_27_Al_9_)O_72_&#183;26H_2_O
##LOCALITY=Rat's Nest Claim, Custer County, Idaho, USA
##OWNER=RRUFF
##SOURCE=John Cornish
##DESCRIPTION=Pale pink coffin-shaped tabular single crystals
##STATUS=The identification of this mineral has been confirmed by X-ray diffraction and chemical analysis
##URL=rruff.info/R050097
##MEASURED CHEMISTRY=(Ca_0.66_Na_0.30_K_0.04_)_5_(Si_0.77_Al_0.23_)_36_O_72_Â·24H_2_O
##PIN_ID=L00100
##ORIENTATION=Laser parallel to a* (1 0 0). Fiducial mark perpendicular to laser is parallel to b [0 1 0]
120.5960, 0.0000000E+00
121.8270, 57.63477
123.0580, 193.5938
124.2880, 80.43359
125.5190, 165.8125
126.7490, 316.6758
127.9790, 493.0215
129.2090, 684.1367
130.4390, 870.2539
131.6680, 1263.775
132.8980, 1356.496
134.1270, 1689.457
135.3560, 1843.957
136.5850, 2090.152
137.8140, 2135.178
139.0430, 2766.445
140.2710, 2746.152
141.5000, 2669.188
142.7280, 2999.176
143.9560, 2562.082
145.1840, 2765.074
146.4120, 2686.146
147.6390, 2995.508
148.8670, 2654.615
150.0940, 2610.203
151.3210, 2708.223
152.5490, 2580.016
153.7750, 2236.680
155.0020, 2322.064
156.2290, 1987.826
157.4550, 2078.529
158.6810, 1669.320
159.9080, 1483.633
161.1340, 1601.035
162.3590, 1275.484
163.5850, 1639.455
164.8110, 1381.197
166.0360, 1654.236
167.2610, 1382.949
168.4860, 1213.828
169.7110, 1446.203
170.9360, 1336.932
172.1610, 1249.227
173.3850, 1106.963
174.6100, 1022.010
175.8340, 926.7871
177.0580, 735.0195
178.2820, 694.3672
179.5050, 750.1641
180.7290, 595.0352
181.9520, 550.7285
183.1760, 616.2246
184.3990, 563.5176
185.6220, 509.6094
186.8450, 451.5117
188.0670, 350.2305
189.2900, 192.7793
190.5120, 112.1680
191.7340, 263.4121
192.9560, 102.9355
194.1780, 124.1680
195.4000, 28.10156
196.6220, 181.1738
197.8430, 10.41211
199.0640, 80.00781
200.2860, 55.70508
201.5070, 201.6895
202.7270, 130.0684
203.9480, 92.16992
205.1690, 27.26758
206.3890, 53.16211
207.6090, 27.70703
208.8290, 172.6445
210.0490, 7.859375
211.2690, 11.58594
212.4890, 128.4746
213.7080, 151.6992
214.9280, 4.644531
216.1470, 337.3730
217.3660, 22.75391
218.5850, 28.10938
219.8030, 207.8027
221.0220, 269.6562
222.2400, 211.5703
223.4590, 100.4492
224.6770, 116.7051
225.8950, 11.37305
227.1120, 206.6465
228.3300, 81.27539
229.5480, 21.43359
230.7650, 169.5742
231.9820, 192.6387
233.1990, 68.46875
234.4160, 245.2031
235.6330, 287.8516
236.8490, 383.3516
238.0660, 546.5898
239.2820, 517.5996
240.4980, 697.3125
241.7140, 646.7051
242.9300, 648.8164
244.1460, 693.5605
245.3610, 754.9707
246.5770, 961.1973
247.7920, 936.3594
249.0070, 1123.445
250.2220, 829.4824
251.4370, 921.4805
252.6510, 1002.455
253.8660, 662.4180
255.0800, 848.3770
256.2940, 874.3730
257.5080, 1026.410
258.7220, 1181.469
259.9360, 1208.574
261.1490, 998.7949
262.3630, 690.9922
263.5760, 503.1992
264.7890, 423.5195
266.0020, 430.6387
267.2150, 368.1113
268.4270, 421.6465
269.6400, 437.7324
270.8520, 260.1289
272.0640, 240.6914
273.2760, 392.3340
274.4880, 238.9902
275.7000, 360.6133
276.9120, 382.1699
278.1230, 258.6309
279.3340, 239.9727
280.5450, 297.1680
281.7560, 25.20117
282.9670, 37.94336
284.1780, 98.74023
285.3880, 161.2344
286.5980, 30.55664
287.8090, 61.67188
289.0190, 171.5723
290.2290, 54.24609
291.4380, 47.66016
292.6480, 27.19531
293.8570, 122.3398
295.0670, 20.21680
296.2760, 22.47266
297.4850, 7.408203
298.6930, 107.4316
299.9020, 59.06836
301.1110, 192.4785
302.3190, 194.1348
303.5270, 8.617188
304.7350, 203.3184
305.9430, 214.7637
307.1510, 149.0117
308.3580, 273.4180
309.5660, 222.8223
310.7730, 251.1191
311.9800, 313.1484
313.1870, 45.68750
314.3940, 297.7070
315.6010, 78.45898
316.8070, 256.6309
318.0130, 305.4883
319.2200, 265.0840
320.4260, 461.5879
321.6310, 361.9805
322.8370, 519.2812
324.0430, 338.5215
325.2480, 533.7109
326.4540, 339.8633
327.6590, 542.9727
328.8640, 440.0449
330.0680, 636.0801
331.2730, 391.0801
332.4780, 680.8652
333.6820, 727.2012
334.8860, 485.7500
336.0900, 681.5410
337.2940, 615.4375
338.4980, 535.1035
339.7010, 555.0098
340.9050, 536.2617
342.1080, 530.4023
343.3110, 655.6367
344.5140, 660.9238
345.7170, 877.7832
346.9200, 814.0977
348.1220, 789.6816
349.3240, 677.7910
350.5270, 690.9355
351.7290, 835.4648
352.9310, 700.2676
354.1320, 886.7559
355.3340, 951.4512
356.5350, 882.3125
357.7370, 1117.334
358.9380, 885.8848
360.1390, 1039.652
361.3400, 1262.527
362.5400, 1133.111
363.7410, 1411.338
364.9410, 1413.277
366.1410, 1357.328
367.3410, 1310.549
368.5410, 1493.447
369.7410, 1523.104
370.9400, 1642.809
372.1400, 1668.623
373.3390, 1811.594
374.5380, 2009.832
375.7370, 2187.641
376.9360, 2183.605
378.1350, 2102.188
379.3330, 2360.439
380.5310, 2485.717
381.7300, 2493.695
382.9280, 2758.920
384.1260, 2966.145
385.3230, 3214.572
386.5210, 3430.771
387.7180, 3639.902
388.9160, 3833.695
390.1130, 3861.316
391.3100, 4397.102
392.5060, 4481.018
393.7030, 4787.109
394.9000, 5215.672
396.0960, 5273.992
397.2920, 5487.000
398.4880, 5867.219
399.6840, 5954.320
400.8800, 6167.271
402.0750, 6303.863
403.2710, 6382.004
404.4660, 6281.160
405.6610, 6203.990
406.8560, 6088.514
408.0510, 5724.746
409.2450, 5608.215
410.4400, 5408.703
411.6340, 4861.305
412.8280, 4909.049
414.0220, 4755.863
415.2160, 4316.529
416.4100, 3884.898
417.6030, 3846.184
418.7970, 3801.791
419.9900, 3291.699
421.1830, 3071.455
422.3760, 2978.598
423.5690, 2546.893
424.7610, 2410.523
425.9540, 1934.887
427.1460, 1803.420
428.3380, 2064.639
429.5300, 1413.111
430.7220, 1756.729
431.9140, 1486.795
433.1050, 1471.828
434.2970, 1298.633
435.4880, 1122.240
436.6790, 998.2832
437.8700, 871.2812
439.0610, 813.9082
440.2510, 873.9492
441.4420, 773.8457
442.6320, 805.8301
443.8220, 670.1113
445.0120, 690.6914
446.2020, 785.2305
447.3910, 704.7207
448.5810, 686.2305
449.7700, 795.7559
450.9600, 884.7129
452.1490, 733.3926
453.3370, 733.8203
454.5260, 921.3281
455.7150, 978.0605
456.9030, 944.5000
458.0910, 1343.104
459.2800, 1201.080
460.4670, 1508.463
461.6550, 1548.027
462.8430, 1726.402
464.0300, 1969.582
465.2180, 1829.328
466.4050, 2168.711
467.5920, 2605.322
468.7790, 2513.730
469.9650, 2952.311
471.1520, 2885.719
472.3380, 3414.684
473.5250, 3669.115
474.7110, 3972.840
475.8970, 4313.234
477.0820, 4534.609
478.2680, 4786.689
479.4540, 5060.037
480.6390, 5215.369
481.8240, 5369.633
483.0090, 5087.939
484.1940, 4901.211
485.3780, 4691.445
486.5630, 4421.734
487.7470, 3887.014
488.9320, 3463.285
490.1160, 3062.537
491.3000, 2826.785
492.4830, 2515.020
493.6670, 2084.254
494.8500, 1965.500
496.0340, 1518.766
497.2170, 1166.082
498.4000, 1000.412
499.5820, 1011.742
500.7650, 887.1895
501.9480, 773.6133
503.1300, 579.0469
504.3120, 565.5781
505.4940, 433.1230
506.6760, 348.6875
507.8580, 432.3125
509.0390, 84.01758
510.2210, 492.0391
511.4020, 413.7988
512.5830, 197.5977
513.7640, 200.4043
514.9450, 113.5371
516.1250, 198.6484
517.3060, 128.3164
518.4860, 131.0957
519.6660, 165.8867
520.8460, 120.3809
522.0260, 151.3086
523.2060, 74.59766
524.3850, 145.3145
525.5650, 140.5352
526.7440, 86.68359
527.9230, 137.4492
529.1020, 14.90430
530.2810, 72.75391
531.4590, 50.66797
532.6380, 1.140625
533.8160, 136.9629
534.9940, 154.0723
536.1720, 37.66016
537.3500, 91.38086
538.5270, 216.1738
539.7050, 139.9473
540.8820, 131.3145
542.0590, 234.2012
543.2360, 336.3047
544.4130, 59.40820
545.5900, 106.6777
546.7660, 85.98633
547.9430, 176.9727
549.1190, 145.9160
550.2950, 254.2910
551.4710, 212.1992
552.6470, 99.50391
553.8220, 102.7422
554.9980, 84.93359
556.1730, 167.5938
557.3480, 201.4258
558.5230, 113.5977
559.6980, 103.6113
560.8730, 135.4844
562.0470, 178.1777
563.2220, 182.2227
564.3960, 107.9766
565.5700, 67.13477
566.7440, 78.86914
567.9170, 117.8105
569.0910, 86.89648
570.2640, 50.17969
571.4380, 228.3574
572.6110, 283.7441
573.7840, 207.3867
574.9570, 285.8711
576.1290, 249.5059
577.3020, 256.1719
578.4740, 194.5059
579.6460, 295.1934
580.8180, 325.8828
581.9900, 399.0039
583.1620, 243.8672
584.3330, 407.9141
585.5040, 362.8242
586.6760, 308.6973
587.8470, 511.4277
589.0180, 410.2949
590.1880, 263.0957
591.3590, 250.1230
592.5290, 304.8887
593.7000, 566.6484
594.8700, 802.3984
596.0400, 844.9844
597.2090, 793.3398
598.3790, 942.0820
599.5490, 1026.969
600.7180, 968.7422
601.8870, 1151.480
603.0560, 1032.213
604.2250, 1195.941
605.3940, 1212.816
606.5620, 1189.535
607.7300, 1504.246
608.8990, 1142.949
610.0670, 1517.641
611.2350, 1156.350
612.4020, 1330.096
613.5700, 1113.840
614.7370, 1504.852
615.9050, 1227.578
617.0720, 1321.291
618.2390, 1142.994
619.4060, 968.7207
620.5720, 865.5918
621.7390, 961.3066
622.9050, 750.0137
624.0710, 720.7109
625.2370, 594.3945
626.4030, 550.0703
627.5690, 615.7500
628.7340, 734.4375
629.9000, 473.1152
631.0650, 527.7773
632.2300, 513.4297
633.3950, 377.0684
634.5600, 281.7109
635.7240, 412.3379
636.8890, 273.9512
638.0530, 307.5547
639.2170, 321.1738
640.3810, 175.7812
641.5450, 454.3750
642.7080, 331.9570
643.8720, 444.5234
645.0350, 362.0840
646.1980, 293.6289
647.3610, 386.1621
648.5240, 218.6895
649.6870, 132.6797
650.8490, 279.1758
652.0120, 255.6543
653.1740, 226.0801
654.3360, 112.5059
655.4980, 48.45117
656.6600, 41.11523
657.8210, 223.8594
658.9830, 7.833984
660.1440, 18.93164
661.3050, 150.8164
662.4660, 61.81250
663.6270, 204.4688
664.7870, 70.40625
665.9480, 83.30273
667.1080, 169.9551
668.2680, 228.8027
669.4280, 66.68555
670.5880, 34.13281
671.7480, 251.1758
672.9070, 28.28125
674.0670, 55.76953
675.2260, 137.9883
676.3850, 101.2422
677.5440, 161.7012
678.7030, 285.4512
679.8610, 135.9609
681.0200, 2.558594
682.1780, 179.4414
683.3360, 117.3086
684.4940, 23.23438
685.6520, 87.16797
686.8090, 258.8633
687.9670, 191.1953
689.1240, 51.06250
690.2810, 228.8164
691.4380, 60.55078
692.5950, 71.85156
693.7520, 79.33984
694.9080, 19.45703
696.0650, 169.5469
697.2210, 76.18359
698.3770, 109.4727
699.5330, 25.70703
700.6880, 28.92969
701.8440, 92.56641
702.9990, 204.4180
704.1550, 60.59375
705.3100, 224.0000
706.4650, 19.04297
707.6190, 135.7344
708.7740, 94.38672
709.9290, 3.308594
711.0830, 4.6875000E-02
712.2370, 215.1367
713.3910, 69.54297
714.5450, 155.7227
715.6980, 81.97266
716.8520, 51.20703
718.0050, 184.3828
719.1580, 181.5859
720.3110, 154.1094
721.4640, 31.47266
722.6170, 84.82031
723.7700, 116.9414
724.9220, 125.0508
726.0740, 158.1367
727.2260, 144.0977
728.3780, 158.1523
729.5300, 102.6367
730.6810, 259.6484
731.8330, 176.6445
732.9840, 313.6172
734.1350, 54.57812
735.2860, 312.5156
736.4370, 357.7891
737.5880, 128.0039
738.7380, 155.1367
739.8880, 348.9375
741.0390, 256.7812
742.1890, 335.1484
743.3380, 126.6758
744.4880, 390.4688
745.6380, 217.6328
746.7870, 284.3906
747.9360, 327.3984
749.0850, 433.5781
750.2340, 244.1680
751.3830, 388.0938
752.5310, 113.7422
753.6800, 521.7461
754.8280, 511.3555
755.9760, 374.2500
757.1240, 300.2656
758.2720, 153.7188
759.4190, 567.2461
760.5670, 468.4883
761.7140, 542.9727
762.8610, 418.9375
764.0080, 298.3789
765.1550, 675.2070
766.3020, 508.8008
767.4480, 859.1797
768.5950, 634.6758
769.7410, 776.0156
770.8870, 498.3320
772.0330, 942.8008
773.1780, 459.0742
774.3240, 602.3516
775.4690, 953.6953
776.6140, 775.0547
777.7590, 827.2383
778.9040, 730.6172
780.0490, 720.2070
781.1940, 919.3242
782.3380, 1202.734
783.4820, 1053.965
784.6260, 944.2578
785.7700, 836.6992
786.9140, 993.9336
788.0580, 695.0312
789.2010, 718.9922
790.3450, 890.2461
791.4880, 836.1641
792.6310, 793.8867
793.7730, 643.5781
794.9160, 813.5625
796.0590, 844.6875
797.2010, 633.6992
798.3430, 571.8789
799.4850, 414.4688
800.6270, 445.5625
801.7690, 541.4062
802.9100, 578.6055
804.0520, 722.8359
805.1930, 836.5195
806.3340, 687.1758
807.4750, 654.2852
808.6160, 592.4062
809.7560, 641.0352
810.8970, 468.9727
812.0370, 663.4844
813.1770, 517.9062
814.3170, 772.1484
815.4570, 529.2852
816.5960, 796.8906
817.7360, 683.3945
818.8750, 443.2266
820.0140, 317.8125
821.1530, 313.7383
822.2920, 605.6914
823.4310, 354.9141
824.5690, 516.4570
825.7070, 530.9805
826.8460, 329.0352
827.9840, 434.5195
829.1220, 257.0703
830.2590, 134.2422
831.3970, 197.6914
832.5340, 12.92188
833.6710, 220.3008
834.8080, 253.1328
835.9450, 230.2578
837.0820, 282.0234
838.2190, 277.8867
839.3550, 95.88672
840.4910, 181.3398
841.6270, 16.96484
842.7630, 174.1719
843.8990, 199.7734
845.0350, 118.9492
846.1700, 15.88281
847.3060, 29.15625
848.4410, 327.5547
849.5760, 168.6797
850.7100, 212.9297
851.8450, 239.0156
852.9800, 182.7891
854.1140, 291.4219
855.2480, 454.4531
856.3820, 8.464844
857.5160, 53.55078
858.6500, 108.8438
859.7830, 408.4414
860.9170, 171.1562
862.0500, 211.8906
863.1830, 113.2656
864.3160, 167.4023
865.4480, 46.11719
866.5810, 257.5742
867.7130, 235.2734
868.8460, 308.9609
869.9780, 373.6250
871.1100, 269.6875
872.2410, 65.44922
873.3730, 73.06641
874.5050, 88.50781
875.6360, 4.949219
876.7670, 168.5938
877.8980, 83.12109
879.0290, 171.6289
880.1590, 7.035156
881.2900, 48.42188
882.4200, 140.8633
883.5500, 75.28906
884.6800, 63.30859
885.8100, 165.9648
886.9400, 3.261719
888.0690, 322.4570
889.1990, 48.36328
890.3280, 355.5273
891.4570, 62.67188
892.5860, 97.19141
893.7140, 25.13672
894.8430, 162.7344
895.9710, 10.73047
897.1000, 141.7070
898.2280, 18.66797
899.3560, 184.6133
900.4830, 51.45703
901.6110, 48.57422
902.7380, 189.2500
903.8660, 90.06250
904.9930, 135.8594
906.1200, 156.6445
907.2460, 34.58203
908.3730, 196.1484
909.5000, 110.8633
910.6260, 86.56641
911.7520, 99.74219
912.8780, 129.8750
914.0040, 44.48438
915.1290, 10.07422
916.2550, 196.6484
917.3800, 8.789063
918.5050, 69.74609
919.6300, 47.12891
920.7550, 28.21875
921.8800, 48.25781
923.0040, 13.72266
924.1290, 123.1797
925.2530, 24.61719
926.3770, 223.0430
927.5010, 57.45703
928.6250, 61.86328
929.7480, 91.27344
930.8720, 22.69531
931.9950, 38.09766
933.1180, 61.53516
934.2410, 282.9609
935.3640, 260.6406
936.4860, 269.7930
937.6090, 302.1953
938.7310, 166.5898
939.8530, 55.97656
940.9750, 241.3516
942.0970, 119.7227
943.2180, 353.0820
944.3400, 92.44922
945.4610, 158.8086
946.5820, 136.8320
947.7030, 134.4609
948.8240, 227.7461
949.9450, 9.972656
951.0650, 125.2891
952.1860, 118.5469
953.3060, 168.7969
954.4260, 123.0430
955.5460, 206.2852
956.6650, 291.5312
957.7850, 292.7734
958.9040, 342.7305
960.0230, 249.7969
961.1420, 330.4688
962.2610, 87.68359
963.3800, 31.10547
964.4990, 32.08594
965.6170, 287.0781
966.7350, 201.2578
967.8530, 170.9570
968.9710, 88.86719
970.0890, 346.2578
971.2070, 60.62109
972.3240, 54.47266
973.4410, 251.5703
974.5580, 249.3164
975.6750, 533.4023
976.7920, 241.0742
977.9090, 383.1367
979.0250, 300.2148
980.1410, 403.1133
981.2580, 128.0117
982.3740, 117.3789
983.4890, 319.5039
984.6050, 115.6250
985.7200, 422.7656
986.8360, 454.8945
987.9510, 555.0195
989.0660, 519.1523
990.1810, 341.2734
991.2950, 673.0430
992.4100, 310.9570
993.5240, 396.8633
994.6390, 406.9883
995.7530, 489.1133
996.8660, 549.2695
997.9800, 444.5664
999.0940, 208.7500
1000.207, 361.4883
1001.320, 449.6719
1002.433, 680.8594
1003.546, 691.0430
1004.659, 682.2227
1005.772, 363.4297
1006.884, 318.2773
1007.996, 750.1680
1009.108, 400.1211
1010.220, 643.3867
1011.332, 539.5938
1012.444, 295.5430
1013.555, 630.7578
1014.666, 612.9648
1015.777, 532.7773
1016.888, 445.9844
1017.999, 659.9180
1019.110, 799.6641
1020.220, 499.9844
1021.331, 483.9453
1022.441, 762.1641
1023.551, 702.0156
1024.661, 553.2422
1025.770, 585.1719
1026.880, 663.9805
1027.989, 586.3438
1029.098, 418.6094
1030.207, 483.1445
1031.316, 674.4219
1032.425, 452.1992
1033.533, 536.4766
1034.642, 386.3594
1035.750, 420.7969
1036.858, 645.7539
1037.966, 549.9141
1039.073, 541.2461
1040.181, 664.5977
1041.288, 572.5391
1042.396, 501.1406
1043.503, 572.4883
1044.610, 584.7461
1045.716, 670.9805
1046.823, 714.3711
1047.929, 800.4805
1049.036, 607.4297
1050.142, 443.8359
1051.248, 602.9336
1052.353, 729.2031
1053.459, 484.3867
1054.564, 754.4102
1055.670, 639.6211
1056.775, 831.7031
1057.880, 502.1562
1058.985, 492.3086
1060.089, 318.7773
1061.194, 279.0938
1062.298, 276.4453
1063.402, 466.9258
1064.506, 438.8516
1065.610, 724.3086
1066.713, 641.7070
1067.817, 526.2227
1068.920, 801.7500
1070.023, 693.2891
1071.126, 576.8320
1072.229, 466.3867
1073.332, 781.8359
1074.435, 750.4023
1075.537, 698.9766
1076.639, 843.5586
1077.741, 792.9883
1078.843, 909.7461
1079.945, 815.8516
1081.046, 829.4648
1082.148, 846.0898
1083.249, 615.0703
1084.350, 732.7148
1085.451, 889.3594
1086.551, 1104.434
1087.652, 728.0977
1088.752, 891.8125
1089.853, 894.5078
1090.953, 841.2070
1092.053, 877.9180
1093.152, 1014.637
1094.252, 1098.359
1095.351, 1007.094
1096.451, 1176.336
1097.550, 848.0000
1098.649, 1242.762
1099.748, 1014.535
1100.846, 824.3203
1101.945, 922.2891
1103.043, 1024.094
1104.141, 903.0273
1105.239, 991.8477
1106.337, 891.6836
1107.434, 1089.535
1108.532, 1002.387
1109.629, 1001.262
1110.726, 1168.145
1111.823, 578.4514
1112.920, 896.6840
1114.017, 1079.546
1115.113, 1134.304
1116.210, 677.3129
1117.306, 881.1426
1118.402, 820.1414
1119.498, 748.2817
1120.593, 1045.111
1121.689, 662.5455
1122.784, 953.5287
1123.879, 975.6398
1124.974, 1120.807
1126.069, 999.5078
1127.164, 960.5118
1128.259, 1188.068
1129.353, 1268.023
1130.447, 1116.042
1131.541, 1269.022
1132.635, 877.1325
1133.729, 963.3742
1134.822, 932.0234
1135.916, 870.3281
1137.009, 772.6992
1138.102, 807.9844
1139.195, 716.2773
1140.288, 746.5977
1141.380, 909.9297
1142.473, 763.5625
1143.565, 784.9180
1144.657, 571.5898
1145.749, 613.3672
1146.841, 540.6836
1147.932, 709.9727
1149.024, 535.3906
1150.115, 716.8164
1151.206, 887.2773
1152.297, 477.9922
1153.388, 490.5234
1154.479, 532.1562
1155.569, 663.7070
1156.659, 616.2578
1157.750, 448.6680
1158.839, 645.4805
1159.929, 624.0977
1161.019, 396.7266
1162.108, 280.3633
1163.198, 436.0039
1164.287, 609.6562
1165.376, 534.3164
1166.465, 301.0039
1167.553, 515.7148
1168.642, 275.5469
1169.730, 549.3789
1170.818, 569.0469
1171.906, 426.7812
1172.994, 536.9453
1174.082, 682.7305
1175.170, 264.5234
1176.257, 77.36328
1177.344, 423.1992
1178.431, 302.0352
1179.518, 444.8750
1180.605, 358.7305
1181.691, 194.7383
1182.778, 276.6055
1183.864, 297.4727
1184.950, 268.3516
1186.036, 225.2383
1187.122, 265.1367
1188.207, 413.0352
1189.292, 355.9375
1190.378, 503.8516
1191.463, 320.7695
1192.548, 279.6875
1193.632, 168.6133
1194.717, 468.5430
1195.801, 162.5273
1196.886, 314.3398
1197.970, 162.2422
1199.054, 193.1484
1200.137, 119.2188
1201.221, 43.13281
1202.305, 142.2109
1203.388, 243.9727
1204.471, 286.8945
1205.554, 314.0859
1206.637, 118.7539
1207.719, 311.7500
1208.802, 166.6836
1209.884, 161.6367
1210.966, 275.9180
1212.048, 220.9023
1213.130, 319.8828
1214.212, 361.8711
1215.293, 321.0469
1216.374, 42.63672
1217.456, 193.8281
1218.536, 54.54688
1219.617, 267.9922
1220.698, 156.9531
1221.778, 446.9219
1222.859, 214.8789
1223.939, 134.1133
1225.019, 240.0820
1226.099, 304.0430
1227.178, 204.0156
1228.258, 180.9922
1229.337, 262.9648
1230.417, 99.94141
1231.496, 113.9141
1232.574, 173.9102
1233.653, 30.09766
1234.732, 294.8984
1235.810, 429.7070
1236.888, 136.7227
1237.966, 99.73047
1239.044, 197.7461
1240.122, 500.7500
1241.199, 224.7578
1242.277, 250.7617
1243.354, 25.14453
1244.431, 60.28516
1245.508, 219.9180
1246.585, 16.18750
1247.661, 291.1406
1248.738, 155.0938
1249.814, 217.0391
1250.890, 157.9805
1251.966, 294.9219
1253.042, 97.85547
1254.117, 262.7930
1255.193, 50.18750
1256.268, 77.14062
1257.343, 139.0273
1258.418, 128.0547
1259.493, 10.75781
1260.567, 167.3594
1261.642, 182.5820
1262.716, 58.56250
1263.790, 86.28516
1264.864, 81.12500
1265.938, 76.10547
1267.011, 116.5547
1268.085, 189.6094
1269.158, 202.1602
1270.231, 206.3828
1271.304, 11.17578
1272.377, 103.4570
1273.450, 21.08594
1274.522, 42.77344
1275.594, 302.6602
1276.666, 221.4922
1277.738, 140.7031
1278.810, 461.6875
1279.882, 267.3398
1280.953, 58.42188
1282.025, 109.9805
1283.096, 85.53516
1284.167, 322.1367
1285.238, 118.6641
1286.308, 92.80078
1287.379, 62.66016
1288.449, 294.1094
1289.519, 281.8594
1290.589, 223.2930
1291.659, 352.0312
1292.729, 135.4414
1293.798, 370.0977
1294.868, 449.4883
1295.937, 124.8750
1297.006, 96.25000
1298.075, 60.39062
1299.143, 57.24609
1300.212, 165.1641
1301.280, 43.23438
1302.348, 150.4570
1303.416, 152.0352
1304.484, 127.0898
1305.552, 215.2773
1306.620, 168.0742
1307.687, 213.2344
1308.754, 337.3789
1309.821, 106.5117
1310.888, 437.8281
1311.955, 267.9258
1313.021, 292.0312
1314.088, 218.1055
1315.154, 408.3594
1316.220, 200.4180
1317.286, 437.6484
1318.352, 250.5977
1319.417, 549.5977
1320.483, 304.5938
1321.548, 200.5703
1322.613, 504.5234
1323.678, 519.4648
1324.743, 306.8008
1325.807, 238.1523
1326.872, 235.0703
1327.936, 125.2969
1329.000, 201.0469
1330.064, 209.9805
1331.128, 366.1797
1332.191, 336.0508
1333.255, 462.9141
1334.318, 555.7656
1335.381, 155.5977
1336.444, 558.4727
1337.507, 167.7930
1338.569, 100.9219
1339.632, 263.0234
1340.694, 221.8047
1341.756, 198.5781
1342.818, 131.3359
1343.880, 101.0820
1344.941, 61.46875
1346.003, 43.25781
1347.064, 49.92969
1348.125, 276.5859
1349.186, 426.2266
1350.247, 465.8516
1351.308, 118.4688
1352.368, 210.0703
1353.428, 246.6641
1354.489, 222.5977
1355.549, 230.0938
1356.608, 396.6641
1357.668, 246.1094
1358.727, 483.5430
1359.787, 200.3945
1360.846, 360.9609
1361.905, 235.1914
1362.964, 44.77734
1364.022, 290.0859
1365.081, 485.3750
1366.139, 645.6562
1367.197, 384.9141
1368.255, 384.1641
1369.313, 263.4219
1370.371, 179.6406
1371.428, 14.76562
1372.486, 41.89844
1373.543, 125.2422
1374.600, 247.2500
1375.657, 459.3867
1376.713, 294.4336
1377.770, 245.4648
1378.826, 227.4805
1379.882, 299.4766
1380.938, 204.4648
1381.994, 183.7188
1383.050, 101.5703
1384.106, 41.83203
1385.161, 4.277344
1386.216, 93.56250
1387.271, 33.98047
1388.326, 40.26562
1389.381, 256.4375
1390.435, 513.6797
1391.490, 163.3516
1392.544, 183.3633
1393.598, 665.9023
1394.652, 96.29297
1395.705, 43.17188
1396.759, 122.3828
1397.812, 181.9141
1398.866, 221.4922
1399.919, 237.9531
1400.972, 178.1328
1402.024, 130.3711
1403.077, 140.8867
1404.129, 6.691406
1405.181, 101.6953
1406.233, 181.0117
1407.285, 76.50000
1408.337, 375.5859
1409.389, 382.0195
1410.440, 185.1445
1411.491, 506.3633
1412.542, 490.3359
1413.593, 335.6758
1414.644, 221.6641
1415.695, 122.8164
1416.745, 258.2539
1417.795, 121.3633
1418.845, 332.7773
1419.895, 137.0508
1420.945, 326.2188
1421.995, 382.2227
1423.044, 222.2148
1424.093, 236.5039
1425.142, 245.4883
1426.191, 325.3828
1427.240, 79.80078
1428.289, 327.5703
1429.337, 103.3086
1430.385, 76.01953
1431.433, 255.6016
1432.481, 297.2031
1433.529, 203.7695
1434.577, 302.2891
1435.624, 8.888145
1436.672, 316.9831
1437.719, 489.7090
1438.766, 534.3390
1439.812, 67.21295
1440.859, 260.9140
1441.905, 189.7861
1442.952, 107.7978
1443.998, 394.5086
1445.044, 1.816656
1446.090, 282.6805
1447.135, 294.6740
1448.181, 429.7223
1449.226, 298.3062
1450.271, 249.1927
1451.316, 466.6301
1452.361, 536.4763
1453.405, 374.3867
1454.450, 517.2582
1455.494, 115.2599
1456.538, 191.3934
1457.582, 473.8190
1458.626, 325.1274
1459.670, 472.8718
1460.713, 507.7179
1461.757, 29.48338
1462.800, 443.5469
1463.843, 471.7213
1464.886, 103.6715
1465.928, 487.1623
1466.971, 173.7365
1468.013, 311.2383
1469.055, 220.6875
1470.097, 175.0664
1471.139, 219.4297
1472.181, 214.6367
1473.222, 251.0625
1474.263, 317.9102
1475.305, 348.1211
1476.346, 451.3125
1477.386, 393.4766
1478.427, 294.9570
1479.468, 115.0234
1480.508, 247.2383
1481.548, 163.8828
1482.588, 393.7266
1483.628, 301.6953
1484.668, 76.23828
1485.707, 139.6211
1486.747, 267.5000
1487.786, 45.16016
1488.825, 312.4453
1489.864, 232.4922
1490.902, 191.4414
1491.941, 330.0508
1492.979, 260.7188
1494.017, 181.4453
1495.055, 306.6680
1496.093, 269.8398
1497.131, 153.0859
1498.168, 200.2734
1499.206, 348.3750
1500.243, 162.3828
1501.280, 365.3203
1502.317, 424.9453
1503.354, 433.8047
1504.390, 360.1250
1505.426, 500.2930
1506.463, 347.8047
1507.499, 260.9336
1508.535, 103.2500
1509.570, 190.7188
1510.606, 322.2109
1511.641, 169.0938
1512.676, 262.0703
1513.711, 501.3633
1514.746, 34.86328
1515.781, 381.7539
1516.816, 83.58984
1517.850, 193.0977
1518.884, 17.30469
1519.918, 34.10938
1520.952, 199.3984
1521.986, 197.4922
1523.019, 84.92578
1524.053, 194.3867
1525.086, 0.7617190
1526.119, 278.1094
1527.152, 148.4453
1528.185, 268.0938
1529.217, 284.9570
1530.250, 292.3867
1531.282, 112.5273
1532.314, 327.8984
1533.346, 265.1016
1534.377, 123.3125
1535.409, 242.9531
1536.440, 20.10547
1537.472, 241.1953
1538.503, 150.4219
1539.534, 264.5625
1540.564, 83.35156
1541.595, 197.3203
1542.625, 80.22266
1543.656, 106.9336
1544.686, 126.6289
1545.716, 184.2578
1546.745, 133.0156
1547.775, 32.71484
1548.804, 88.87500
1549.834, 231.4102
1550.863, 217.2266
1551.892, 394.3672
1552.920, 315.4844
1553.949, 445.4688
1554.977, 409.4453
1556.006, 149.9258
1557.034, 510.7891
1558.062, 453.9453
1559.089, 24.98828
1560.117, 287.0547
1561.144, 275.8711
1562.172, 102.6523
1563.199, 113.6797
1564.226, 389.5156
1565.252, 70.53125
1566.279, 40.46875
1567.305, 397.4805
1568.332, 103.0820
1569.358, 1.417969
1570.384, 245.6680
1571.409, 0.0000000E+00
##END=



