##NAMES=Heulandite-Ca
##RRUFFID=R050017
##IDEAL CHEMISTRY=(Ca,Na,K)_5_(Si_27_Al_9_)O_72_&#183;26H_2_O
##LOCALITY=Poona, Maharashtra State, India
##OWNER=RRUFF
##SOURCE=Eugene Schlepp
##DESCRIPTION=Single crystals
##STATUS=The identification of this mineral has been confirmed by X-ray diffraction and chemical analysis
##URL=rruff.info/R050017
##MEASURED CHEMISTRY=(Ca_.70_Na_.22_K_.02_[box]_0.06_)_5_(Si_0.77_Al_0.23_)_36_O_72_Â·24H_2_O
##PIN_ID=L00517
##ORIENTATION=Laser parallel to c* (0 0 1). Fiducial mark perpendicular to laser is parallel to -a [-1 0 0]
194.520, 0.000
195.898, 121.426
197.275, 84.846
198.652, 574.168
200.029, 205.609
201.405, 257.631
202.782, 26.207
204.158, 248.486
205.534, 509.342
206.909, 22.381
208.285, 340.410
209.660, 320.170
211.035, 204.676
212.410, 500.121
213.784, 263.359
215.159, 485.750
216.533, 659.689
217.907, 684.404
219.281, 841.969
220.654, 794.143
222.027, 1047.613
223.400, 1079.230
224.773, 1210.100
226.146, 1132.631
227.518, 1317.273
228.891, 1389.096
230.263, 1778.506
231.634, 1923.992
233.006, 2046.959
234.377, 2362.762
235.748, 2390.711
237.119, 2782.262
238.490, 3084.807
239.860, 3211.732
241.231, 3819.555
242.601, 3958.916
243.970, 4379.002
245.340, 4444.820
246.709, 4654.348
248.079, 5203.732
249.448, 4827.789
250.816, 5234.996
252.185, 4924.963
253.553, 4765.930
254.921, 4874.781
256.289, 4500.162
257.657, 4253.910
259.024, 4031.117
260.391, 3982.572
261.758, 3428.281
263.125, 3421.934
264.492, 3137.566
265.858, 2799.166
267.224, 2925.725
268.590, 2184.242
269.956, 2400.717
271.321, 2035.154
272.687, 1965.549
274.052, 1387.904
275.416, 1612.230
276.781, 1344.637
278.146, 984.439
279.510, 1068.586
280.874, 798.035
282.237, 867.762
283.601, 350.752
284.964, 98.012
286.327, 536.531
287.690, 155.297
289.053, 93.279
290.416, 204.479
291.778, 72.135
293.140, 102.420
294.502, 287.869
295.863, 4.982
297.225, 105.963
298.586, 95.783
299.947, 102.328
301.308, 239.652
302.668, 223.715
304.029, 96.686
305.389, 14.643
306.749, 148.645
308.108, 71.291
309.468, 133.141
310.827, 154.996
312.186, 316.525
313.545, 247.062
314.903, 279.498
316.262, 279.834
317.620, 363.566
318.978, 513.211
320.336, 541.221
321.693, 765.035
323.051, 762.643
324.408, 652.002
325.765, 1193.021
327.121, 1002.551
328.478, 1251.660
329.834, 1323.303
331.190, 1665.416
332.546, 1486.174
333.902, 1847.684
335.257, 1827.047
336.612, 2079.295
337.967, 2303.432
339.322, 2424.490
340.677, 2726.496
342.031, 2955.451
343.385, 3165.379
344.739, 3397.281
346.093, 3437.160
347.446, 3774.012
348.799, 4117.840
350.153, 4694.641
351.505, 5040.438
352.858, 5102.289
354.210, 5570.209
355.563, 5790.184
356.915, 6295.225
358.267, 6747.695
359.618, 7044.916
360.969, 7677.740
362.321, 7991.975
363.672, 8536.055
365.022, 9181.914
366.373, 9695.531
367.723, 10412.086
369.073, 10602.492
370.423, 11405.977
371.773, 11880.289
373.122, 12785.297
374.471, 13838.762
375.821, 14234.820
377.169, 15562.375
378.518, 15734.711
379.866, 16880.854
381.215, 18283.771
382.563, 19092.689
383.910, 20373.633
385.258, 21608.441
386.605, 23266.793
387.952, 23830.840
389.299, 26130.811
390.646, 27074.301
391.992, 28701.625
393.339, 30692.535
394.685, 32373.760
396.031, 34594.676
397.376, 35461.570
398.722, 37244.242
400.067, 38154.176
401.412, 38559.418
402.757, 39039.793
404.101, 39603.809
405.446, 38371.090
406.790, 37775.652
408.134, 36164.441
409.478, 34954.402
410.821, 33134.891
412.165, 30399.373
413.508, 29296.811
414.851, 26959.982
416.193, 24936.123
417.536, 23230.857
418.878, 21733.191
420.220, 20151.629
421.562, 18561.791
422.904, 17159.102
424.245, 15717.672
425.586, 14301.223
426.927, 13493.742
428.268, 11657.238
429.609, 10493.709
430.949, 9856.156
432.289, 9386.574
433.629, 8061.967
434.969, 7824.336
436.309, 7161.680
437.648, 6643.996
438.987, 6218.285
440.326, 5832.627
441.665, 5505.686
443.003, 5334.621
444.342, 5008.363
445.680, 4913.715
447.018, 4761.752
448.355, 4465.781
449.693, 4612.301
451.030, 4711.414
452.367, 5075.898
453.704, 4650.777
455.041, 5375.299
456.377, 5477.820
457.713, 6148.180
459.049, 6707.285
460.385, 7364.109
461.721, 8294.592
463.056, 8596.525
464.391, 9349.508
465.726, 10131.520
467.061, 10110.727
468.395, 10281.572
469.730, 11121.662
471.064, 10875.133
472.398, 11889.969
473.731, 12118.902
475.065, 13471.031
476.398, 14558.564
477.731, 16226.096
479.064, 17693.344
480.397, 19329.820
481.729, 20948.381
483.062, 21609.846
484.394, 22632.271
485.725, 22181.205
487.057, 21714.025
488.389, 20571.377
489.720, 18348.127
491.051, 16834.848
492.382, 14697.529
493.712, 13092.184
495.043, 11105.807
496.373, 9340.402
497.703, 8219.973
499.032, 7054.510
500.362, 5829.020
501.691, 5119.502
503.020, 4047.957
504.349, 3902.645
505.678, 3317.168
507.007, 2922.111
508.335, 2507.850
509.663, 2350.070
510.991, 2373.369
512.319, 1620.338
513.646, 1962.209
514.973, 1398.000
516.300, 1528.984
517.627, 1472.166
518.954, 995.078
520.280, 1257.307
521.607, 946.713
522.933, 1059.586
524.259, 883.238
525.584, 802.029
526.910, 905.195
528.235, 816.098
529.560, 915.016
530.885, 690.828
532.209, 468.102
533.534, 773.514
534.858, 338.500
536.182, 399.568
537.506, 412.889
538.829, 416.312
540.152, 412.346
541.476, 353.643
542.799, 276.025
544.121, 230.176
545.444, 262.432
546.766, 257.982
548.088, 202.324
549.410, 250.316
550.732, 226.920
552.053, 10.102
553.375, 8.604
554.696, 19.254
556.017, 132.828
557.337, 4.242
558.658, 12.912
559.978, 25.023
561.298, 54.816
562.618, 267.764
563.938, 43.705
565.257, 183.062
566.576, 214.283
567.895, 130.926
569.214, 214.510
570.533, 112.373
571.851, 26.312
573.170, 221.217
574.488, 13.051
575.805, 252.033
577.123, 76.729
578.440, 507.695
579.758, 481.268
581.075, 349.273
582.391, 890.740
583.708, 710.156
585.024, 801.523
586.341, 935.848
587.657, 1196.127
588.972, 1471.381
590.288, 1297.588
591.603, 1381.746
592.918, 1810.854
594.233, 1980.912
595.548, 2509.922
596.863, 2491.887
598.177, 2941.799
599.491, 3189.668
600.805, 3419.486
602.119, 3653.270
603.432, 4095.027
604.746, 4798.754
606.059, 4768.535
607.372, 4842.273
608.685, 5358.010
609.997, 4933.838
611.309, 5338.641
612.621, 5065.473
613.933, 5147.289
615.245, 5059.188
616.557, 4966.094
617.868, 4735.031
619.179, 4527.998
620.490, 4312.996
621.801, 4742.057
623.111, 4115.205
624.421, 4486.375
625.731, 3664.582
627.041, 3937.857
628.351, 3187.115
629.660, 2557.406
630.970, 2952.674
632.279, 1969.912
633.588, 2072.125
634.896, 1584.314
636.205, 1577.475
637.513, 1367.656
638.821, 1388.797
640.129, 1472.898
641.437, 1425.695
642.744, 1509.180
644.051, 1505.939
645.358, 1540.857
646.665, 1561.725
647.972, 1403.543
649.278, 1216.311
650.584, 1285.031
651.890, 1470.705
653.196, 1172.334
654.502, 990.916
655.807, 676.453
657.113, 819.939
658.418, 701.375
659.722, 582.762
661.027, 269.098
662.331, 62.393
663.636, 431.635
664.940, 211.160
666.244, 349.875
667.547, 27.129
668.851, 56.221
670.154, 169.584
671.457, 117.676
672.760, 124.928
674.062, 68.463
675.365, 217.070
676.667, 251.207
677.969, 187.424
679.271, 54.576
680.572, 5.340
681.874, 205.338
683.175, 161.480
684.476, 145.766
685.777, 177.832
687.077, 210.635
688.378, 50.461
689.678, 232.562
690.978, 73.781
692.278, 124.770
693.577, 423.773
694.877, 101.672
696.176, 445.752
697.475, 28.113
698.774, 405.174
700.072, 345.861
701.371, 56.312
702.669, 201.844
703.967, 467.305
705.265, 571.494
706.562, 357.844
707.860, 93.947
709.157, 570.357
710.454, 30.076
711.751, 499.846
713.047, 650.398
714.344, 386.168
715.640, 109.207
716.936, 244.234
718.232, 484.971
719.527, 410.215
720.823, 210.121
722.118, 454.600
723.413, 225.766
724.708, 399.510
726.002, 669.156
727.297, 41.912
728.591, 511.910
729.885, 536.350
731.179, 392.213
732.472, 446.725
733.766, 361.402
735.059, 447.924
736.352, 322.607
737.645, 60.730
738.937, 393.280
740.230, 581.541
741.522, 633.260
742.814, 139.492
744.106, 350.107
745.397, 278.436
746.689, 195.191
747.980, 504.943
749.271, 90.513
750.562, 394.033
751.853, 410.960
753.143, 559.051
754.433, 423.114
755.723, 374.904
757.013, 610.814
758.303, 689.404
759.592, 520.769
760.881, 677.195
762.170, 252.839
763.459, 338.127
764.748, 643.305
766.036, 488.948
767.325, 650.568
768.613, 691.845
769.901, 186.224
771.188, 631.711
772.476, 665.876
773.763, 277.699
775.050, 690.597
776.337, 360.644
777.624, 295.844
778.910, 430.585
780.196, 357.309
781.482, 611.996
782.768, 550.733
784.054, 461.240
785.339, 494.937
786.625, 179.549
787.910, 511.786
789.195, 401.639
790.479, 511.389
791.764, 670.984
793.048, 448.930
794.332, 630.918
795.616, 186.331
796.900, 266.023
798.183, 289.256
799.467, 647.599
800.750, 206.065
802.033, 271.187
803.316, 552.037
804.598, 531.032
805.880, 636.233
807.163, 367.815
808.445, 450.383
809.726, 436.203
811.008, 756.338
812.289, 812.545
813.570, 550.462
814.851, 289.727
816.132, 633.919
817.413, 404.755
818.693, 484.907
819.973, 245.598
821.253, 282.120
822.533, 314.268
823.813, 487.815
825.092, 232.601
826.371, 533.554
827.650, 513.057
828.929, 587.250
830.208, 650.909
831.486, 283.211
832.764, 269.121
834.042, 761.006
835.320, 481.252
836.598, 357.242
837.875, 343.943
839.152, 853.154
840.429, 876.699
841.706, 319.722
842.983, 805.908
844.259, 650.317
845.536, 685.443
846.812, 650.987
848.088, 637.128
849.363, 361.272
850.639, 430.677
851.914, 780.808
853.189, 652.339
854.464, 849.077
855.739, 453.141
857.013, 409.002
858.288, 458.248
859.562, 541.548
860.836, 352.730
862.110, 708.110
863.383, 701.145
864.656, 380.180
865.930, 399.841
867.203, 362.944
868.475, 628.318
869.748, 196.000
871.020, 306.246
872.292, 440.518
873.564, 180.605
874.836, 348.859
876.108, 177.125
877.379, 376.527
878.650, 294.713
879.922, 118.129
881.192, 191.846
882.463, 449.248
883.733, 186.631
885.004, 328.771
886.274, 103.117
887.544, 384.098
888.813, 252.391
890.083, 14.830
891.352, 391.395
892.621, 172.590
893.890, 84.752
895.159, 10.879
896.427, 79.033
897.695, 372.975
898.964, 330.955
900.232, 136.910
901.499, 385.830
902.767, 232.725
904.034, 22.588
905.301, 323.416
906.568, 257.215
907.835, 475.988
909.102, 40.734
910.368, 60.555
911.634, 289.102
912.900, 220.223
914.166, 549.346
915.432, 18.113
916.697, 383.621
917.962, 266.643
919.227, 79.879
920.492, 185.084
921.757, 89.264
923.021, 57.414
924.285, 79.537
925.550, 196.666
926.813, 60.770
928.077, 189.848
929.341, 84.096
930.604, 293.885
931.867, 112.146
933.130, 84.277
934.393, 436.561
935.655, 196.621
936.918, 458.070
938.180, 32.738
939.442, 19.133
940.703, 22.680
941.965, 20.629
943.226, 187.789
944.488, 97.664
945.749, 220.088
947.009, 465.488
948.270, 360.873
949.530, 345.240
950.791, 473.584
952.051, 300.559
953.311, 262.377
954.570, 122.500
955.830, 40.760
957.089, 43.986
958.348, 4.816
959.607, 69.342
960.866, 11.477
962.124, 60.305
963.383, 282.021
964.641, 57.312
965.899, 120.656
967.156, 47.021
968.414, 63.748
969.671, 67.471
970.928, 36.373
972.185, 65.199
973.442, 65.912
974.699, 101.020
975.955, 180.123
977.211, 210.209
978.468, 265.318
979.723, 201.412
980.979, 105.490
982.234, 860.607
983.490, 70.713
984.745, 546.795
986.000, 819.863
987.254, 487.926
988.509, 816.039
989.763, 803.137
991.017, 819.264
992.271, 1014.377
993.525, 863.537
994.779, 1213.682
996.032, 1216.814
997.285, 932.609
998.538, 1337.762
999.791, 1575.570
1001.044, 1655.068
1002.296, 1101.928
1003.548, 1365.617
1004.800, 1301.938
1006.052, 1224.820
1007.304, 1603.434
1008.555, 1446.010
1009.807, 1359.064
1011.058, 1307.098
1012.309, 1430.135
1013.559, 1413.154
1014.810, 1557.172
1016.060, 1514.186
1017.310, 1430.176
1018.560, 1494.920
1019.810, 1650.871
1021.060, 1738.240
1022.309, 1612.059
1023.558, 1879.961
1024.807, 1593.219
1026.056, 2004.084
1027.305, 1950.293
1028.553, 2342.121
1029.801, 2164.803
1031.049, 1742.725
1032.297, 2132.941
1033.545, 2153.701
1034.793, 2039.855
1036.040, 2115.576
1037.287, 1971.350
1038.534, 2014.176
1039.781, 2268.387
1041.027, 2016.635
1042.274, 2111.250
1043.520, 2042.217
1044.766, 2008.805
1046.012, 2037.062
1047.257, 1944.834
1048.503, 2547.369
1049.748, 1726.898
1050.993, 2365.648
1052.238, 2154.139
1053.483, 1970.246
1054.727, 2099.455
1055.971, 2053.875
1057.216, 1764.055
1058.459, 2089.438
1059.703, 1875.111
1060.947, 2127.869
1062.190, 2139.662
1063.433, 1769.213
1064.676, 1875.898
1065.919, 1844.598
1067.162, 1839.367
1068.404, 1719.363
1069.646, 1626.805
1070.888, 2028.424
1072.130, 1759.408
1073.372, 1951.900
1074.613, 2331.238
1075.855, 2052.285
1077.096, 2190.910
1078.337, 2645.371
1079.578, 2157.051
1080.818, 2852.828
1082.059, 2570.201
1083.299, 2882.820
1084.539, 2733.527
1085.779, 2902.840
1087.018, 2712.051
1088.258, 2696.160
1089.497, 2405.785
1090.736, 2621.375
1091.975, 2484.092
1093.213, 2575.590
1094.452, 2772.777
1095.690, 2632.789
1096.928, 3128.559
1098.166, 3306.779
1099.404, 3331.375
1100.642, 2923.234
1101.879, 3024.150
1103.116, 2914.512
1104.353, 3273.893
1105.590, 3042.941
1106.827, 3502.561
1108.063, 3012.725
1109.299, 3119.900
1110.536, 3103.277
1111.771, 2859.229
1113.007, 3102.098
1114.243, 3254.354
1115.478, 2922.973
1116.713, 3323.004
1117.948, 3209.057
1119.183, 2955.865
1120.418, 3226.750
1121.652, 3369.043
1122.886, 3395.711
1124.120, 2941.705
1125.354, 3107.742
1126.588, 3026.627
1127.821, 2934.262
1129.055, 3187.615
1130.288, 2802.955
1131.521, 3051.451
1132.753, 3046.547
1133.986, 3157.795
1135.218, 3018.955
1136.450, 2958.930
1137.682, 3147.367
1138.914, 3197.482
1140.146, 3029.719
1141.377, 3148.105
1142.609, 2755.191
1143.840, 2811.756
1145.071, 2837.775
1146.301, 2907.062
1147.532, 2716.656
1148.762, 2550.742
1149.992, 2464.617
1151.222, 2577.355
1152.452, 2737.871
1153.682, 2587.352
1154.911, 2415.160
1156.140, 2723.238
1157.369, 2423.801
1158.598, 2388.223
1159.827, 2791.133
1161.055, 2068.027
1162.284, 2474.402
1163.512, 2513.504
1164.740, 2374.848
1165.967, 2006.176
1167.195, 2475.488
1168.422, 2388.941
1169.650, 2446.227
1170.877, 2019.496
1172.103, 2108.750
1173.330, 1681.980
1174.557, 2285.121
1175.783, 1933.184
1177.009, 1660.047
1178.235, 1841.055
1179.461, 1472.039
1180.686, 1558.945
1181.912, 1463.809
1183.137, 1491.586
1184.362, 1361.957
1185.587, 1393.094
1186.811, 1141.219
1188.036, 1164.363
1189.260, 1237.047
1190.484, 945.445
1191.708, 848.242
1192.932, 1271.605
1194.155, 564.660
1195.378, 651.492
1196.602, 1116.723
1197.825, 507.246
1199.047, 1018.969
1200.270, 718.941
1201.492, 872.367
1202.715, 541.062
1203.937, 441.320
1205.159, 640.965
1206.380, 336.551
1207.602, 1.898
1208.823, 119.414
1210.044, 106.965
1211.265, 353.734
1212.486, 479.121
1213.707, 18.664
1214.927, 566.090
1216.147, 157.465
1217.367, 602.059
1218.587, 65.348
1219.807, 110.879
1221.027, 78.922
1222.246, 108.195
1223.465, 13.242
1224.684, 232.242
1225.903, 80.191
1227.121, 60.121
1228.340, 427.992
1229.558, 100.578
1230.776, 70.289
1231.994, 25.000
1233.212, 375.711
1234.429, 361.199
1235.646, 104.207
1236.864, 702.289
1238.081, 189.727
1239.297, 196.086
1240.514, 492.359
1241.730, 219.512
1242.947, 48.688
1244.163, 104.715
1245.378, 475.656
1246.594, 399.973
1247.810, 35.801
1249.025, 785.531
1250.240, 321.211
1251.455, 314.523
1252.670, 414.070
1253.885, 379.566
1255.099, 95.012
1256.313, 452.594
1257.527, 315.262
1258.741, 110.625
1259.955, 256.961
1261.168, 209.852
1262.382, 358.598
1263.595, 384.996
1264.808, 274.676
1266.021, 641.309
1267.233, 646.551
1268.446, 258.098
1269.658, 399.598
1270.870, 786.051
1272.082, 181.465
1273.294, 788.926
1274.505, 473.719
1275.716, 657.406
1276.928, 396.410
1278.139, 427.777
1279.349, 590.457
1280.560, 754.449
1281.770, 125.195
1282.981, 489.547
1284.191, 429.652
1285.401, 934.121
1286.610, 557.641
1287.820, 499.121
1289.029, 290.094
1290.239, 200.582
1291.448, 321.355
1292.656, 246.707
1293.865, 366.031
1295.073, 415.133
1296.282, 444.715
1297.490, 497.789
1298.698, 515.984
1299.906, 424.148
1301.113, 356.289
1302.320, 239.402
1303.528, 512.484
1304.735, 391.523
1305.942, 176.543
1307.148, 1075.520
1308.355, 340.480
1309.561, 942.406
1310.767, 750.305
1311.973, 558.148
1313.179, 487.914
1314.384, 1125.617
1315.590, 530.309
1316.795, 1090.941
1318.000, 807.969
1319.205, 889.375
1320.410, 1144.102
1321.614, 69.137
1322.819, 1184.617
1324.023, 1158.289
1325.227, 571.863
1326.431, 1152.996
1327.634, 130.043
1328.838, 596.910
1330.041, 822.766
1331.244, 398.145
1332.447, 361.883
1333.650, 470.367
1334.852, 292.836
1336.055, 198.082
1337.257, 288.664
1338.459, 37.465
1339.661, 93.340
1340.862, 70.969
1342.064, 115.395
1343.265, 241.723
1344.466, 348.164
1345.667, 229.418
1346.868, 646.988
1348.068, 68.730
1349.269, 153.090
1350.469, 626.379
1351.669, 547.859
1352.869, 167.699
1354.069, 934.746
1355.268, 11.996
1356.468, 951.996
1357.667, 353.324
1358.866, 531.727
1360.065, 915.547
1361.263, 108.762
1362.462, 1035.836
1363.660, 323.879
1364.858, 823.508
1366.056, 406.418
1367.254, 646.871
1368.451, 657.891
1369.649, 411.352
1370.846, 1166.094
1372.043, 567.867
1373.240, 243.281
1374.436, 361.910
1375.633, 919.660
1376.829, 528.855
1378.025, 166.426
1379.221, 686.395
1380.417, 438.434
1381.613, 783.309
1382.808, 653.945
1384.003, 466.422
1385.199, 804.930
1386.393, 322.172
1387.588, 798.570
1388.783, 697.594
1389.977, 239.742
1391.171, 582.859
1392.365, 518.156
1393.559, 601.289
1394.753, 169.461
1395.946, 461.379
1397.140, 368.266
1398.333, 642.043
1399.526, 790.520
1400.719, 386.633
1401.911, 588.082
1403.104, 227.902
1404.296, 563.238
1405.488, 848.562
1406.680, 91.645
1407.872, 644.965
1409.063, 732.184
1410.255, 196.762
1411.446, 800.531
1412.637, 495.383
1413.828, 500.297
1415.018, 910.703
1416.209, 348.191
1417.399, 499.273
1418.589, 918.820
1419.779, 157.527
1420.969, 749.348
1422.159, 1.867
1423.348, 412.715
1424.537, 500.594
1425.726, 0.793
1426.915, 0.000
##END=



