##NAMES=Heulandite-Ca
##RRUFFID=R050097
##IDEAL CHEMISTRY=(Ca,Na,K)_5_(Si_27_Al_9_)O_72_&#183;26H_2_O
##LOCALITY=Rat's Nest Claim, Custer County, Idaho, USA
##OWNER=RRUFF
##SOURCE=John Cornish
##DESCRIPTION=Pale pink coffin-shaped tabular single crystals
##STATUS=The identification of this mineral has been confirmed by X-ray diffraction and chemical analysis
##URL=rruff.info/R050097
##MEASURED CHEMISTRY=(Ca_0.66_Na_0.30_K_0.04_)_5_(Si_0.77_Al_0.23_)_36_O_72_Â·24H_2_O
##PIN_ID=L00358
##ORIENTATION=Laser parallel to -b* (0 -1 0). Fiducial mark perpendicular to laser is parallel to c [0 0 1]
206.221, 0.000
207.597, 116.259
208.972, 33.637
210.347, 223.035
211.722, 38.811
213.097, 267.984
214.472, 249.007
215.846, 158.082
217.220, 306.185
218.594, 40.929
219.967, 333.902
221.341, 103.641
222.714, 196.426
224.087, 298.766
225.460, 310.666
226.832, 464.769
228.204, 268.289
229.577, 660.037
230.948, 509.160
232.320, 685.458
233.692, 768.154
235.063, 892.702
236.434, 1134.155
237.805, 1109.656
239.175, 1368.468
240.545, 1576.737
241.916, 1710.692
243.286, 1908.283
244.655, 2031.584
246.025, 2161.706
247.394, 2261.421
248.763, 2327.252
250.132, 2410.585
251.501, 2345.331
252.869, 2675.906
254.237, 2405.413
255.605, 2555.951
256.973, 2227.509
258.340, 2281.966
259.708, 2196.750
261.075, 2138.311
262.442, 2155.211
263.808, 1726.656
265.175, 1813.520
266.541, 1624.548
267.907, 1375.669
269.273, 1372.276
270.639, 1210.443
272.004, 1164.909
273.369, 1023.038
274.734, 871.171
276.099, 712.306
277.463, 644.439
278.828, 619.569
280.192, 409.696
281.556, 448.818
282.919, 336.937
284.283, 348.054
285.646, 208.170
287.009, 125.310
288.372, 215.532
289.734, 29.940
291.097, 266.507
292.459, 53.207
293.821, 23.977
295.183, 76.880
296.544, 167.156
297.905, 51.917
299.266, 56.904
300.627, 49.324
301.988, 15.138
303.348, 92.516
304.709, 46.273
306.069, 116.764
307.428, 92.384
308.788, 61.691
310.147, 44.178
311.507, 131.688
312.865, 51.209
314.224, 299.713
315.583, 280.177
316.941, 224.595
318.299, 316.956
319.657, 328.253
321.015, 409.489
322.372, 305.664
323.729, 535.779
325.086, 475.835
326.443, 471.824
327.800, 598.738
329.156, 465.562
330.512, 751.276
331.868, 676.870
333.224, 778.270
334.579, 827.467
335.935, 901.468
337.290, 973.278
338.645, 885.906
339.999, 1146.449
341.354, 843.915
342.708, 1174.323
344.062, 1218.684
345.416, 1232.002
346.769, 1448.286
348.123, 1382.551
349.476, 1602.795
350.829, 1680.020
352.182, 1850.227
353.534, 1980.428
354.887, 2129.345
356.239, 2355.814
357.591, 2449.002
358.942, 2652.178
360.294, 2804.360
361.645, 2937.567
362.996, 3317.780
364.347, 3417.064
365.698, 3856.004
367.048, 3902.565
368.398, 4329.223
369.748, 4641.752
371.098, 4737.920
372.448, 5405.883
373.797, 5527.326
375.146, 5812.647
376.495, 6246.811
377.844, 6599.693
379.192, 7095.275
380.540, 7522.717
381.889, 8171.943
383.236, 8542.636
384.584, 9144.318
385.932, 9880.667
387.279, 10078.772
388.626, 11021.490
389.973, 11573.527
391.319, 12350.326
392.666, 13066.136
394.012, 13785.326
395.358, 14969.979
396.704, 15019.622
398.049, 15982.800
399.394, 16771.529
400.740, 16941.010
402.084, 17764.646
403.429, 17097.639
404.774, 17552.107
406.118, 16704.727
407.462, 16101.719
408.806, 15627.359
410.150, 14617.241
411.493, 14016.881
412.836, 12598.132
414.179, 12240.918
415.522, 11257.699
416.865, 10430.279
418.207, 9812.144
419.549, 8598.361
420.891, 8370.760
422.233, 7405.204
423.575, 6872.756
424.916, 6408.266
426.257, 5644.774
427.598, 5381.879
428.939, 4699.727
430.279, 4255.555
431.619, 3930.361
432.959, 3721.149
434.299, 3465.916
435.639, 3190.162
436.978, 3075.389
438.318, 2755.092
439.657, 2556.776
440.996, 2537.438
442.334, 2213.660
443.673, 2242.031
445.011, 2234.922
446.349, 1959.843
447.687, 2126.021
449.024, 1866.447
450.361, 2173.677
451.699, 2008.500
453.036, 2059.000
454.372, 2345.390
455.709, 2334.547
457.045, 2688.348
458.381, 2801.587
459.717, 3185.973
461.053, 3554.193
462.388, 3767.913
463.724, 4469.804
465.059, 4644.856
466.394, 5134.125
467.728, 5498.680
469.063, 5591.583
470.397, 6058.065
471.731, 6379.234
473.065, 7029.469
474.398, 7354.711
475.732, 8287.907
477.065, 8872.983
478.398, 9582.797
479.731, 10654.963
481.063, 10803.159
482.396, 12169.646
483.728, 12032.987
485.060, 11989.098
486.391, 12086.407
487.723, 10998.420
489.054, 10456.688
490.385, 9525.386
491.716, 8150.214
493.047, 7416.600
494.377, 6210.744
495.708, 5385.504
497.038, 4379.584
498.368, 3754.767
499.697, 3221.974
501.027, 2650.004
502.356, 2356.179
503.685, 1834.773
505.014, 1575.250
506.342, 1534.111
507.671, 1091.611
508.999, 1044.396
510.327, 934.373
511.655, 777.899
512.982, 647.425
514.310, 648.611
515.637, 592.452
516.964, 489.837
518.291, 522.029
519.617, 430.126
520.944, 363.251
522.270, 352.305
523.596, 256.085
524.921, 301.782
526.247, 258.867
527.572, 263.786
528.897, 287.197
530.222, 296.639
531.547, 251.574
532.871, 308.646
534.196, 204.930
535.520, 178.642
536.844, 220.750
538.167, 263.987
539.491, 199.727
540.814, 204.376
542.137, 196.565
543.460, 80.043
544.783, 212.012
546.105, 64.925
547.427, 104.095
548.749, 50.886
550.071, 67.613
551.393, 52.280
552.714, 32.116
554.035, 41.600
555.356, 24.826
556.677, 69.810
557.998, 48.550
559.318, 30.375
560.638, 50.276
561.958, 41.607
563.278, 98.318
564.597, 38.487
565.917, 109.731
567.236, 74.094
568.555, 2.441
569.874, 174.069
571.192, 25.284
572.511, 42.578
573.829, 29.183
575.147, 181.979
576.464, 21.895
577.782, 165.179
579.099, 99.204
580.416, 308.183
581.733, 57.120
583.050, 272.008
584.366, 263.856
585.683, 353.672
586.999, 483.448
588.315, 503.210
589.630, 618.940
590.946, 546.633
592.261, 617.312
593.576, 826.952
594.891, 895.555
596.206, 1104.122
597.520, 1201.652
598.834, 1307.151
600.148, 1576.612
601.462, 1584.046
602.776, 1872.439
604.089, 2106.816
605.402, 2154.156
606.715, 2349.463
608.028, 2346.773
609.341, 2419.049
610.653, 2441.304
611.965, 2454.522
613.277, 2396.683
614.589, 2186.951
615.901, 2184.131
617.212, 1974.336
618.523, 1779.525
619.834, 1735.710
621.145, 1537.891
622.456, 1485.055
623.766, 1322.234
625.076, 1185.387
626.386, 1159.549
627.696, 850.684
629.006, 908.806
630.315, 759.901
631.624, 734.964
632.933, 636.998
634.242, 507.999
635.551, 538.964
636.859, 422.892
638.167, 370.782
639.475, 404.635
640.783, 296.448
642.090, 278.235
643.398, 217.980
644.705, 276.679
646.012, 214.333
647.318, 89.940
648.625, 302.498
649.931, 161.012
651.237, 209.478
652.543, 54.896
653.849, 12.263
655.155, 176.575
656.460, 0.839
657.765, 6.044
659.070, 155.193
660.375, 7.706
661.679, 67.330
662.984, 10.315
664.288, 49.246
665.592, 11.124
666.895, 16.053
668.199, 33.702
669.502, 57.596
670.805, 81.016
672.108, 0.577
673.411, 40.920
674.713, 6.499
676.016, 68.859
677.318, 54.105
678.620, 100.020
679.921, 79.841
681.223, 128.209
682.524, 36.722
683.825, 54.005
685.126, 164.258
686.427, 141.564
687.727, 246.863
689.028, 198.932
690.328, 133.195
691.628, 254.978
692.927, 144.610
694.227, 344.009
695.526, 204.916
696.825, 328.634
698.124, 194.431
699.423, 228.301
700.721, 353.409
702.020, 349.010
703.318, 255.850
704.616, 387.249
705.913, 342.021
707.211, 405.061
708.508, 457.509
709.805, 344.493
711.102, 495.860
712.399, 464.314
713.695, 402.990
714.992, 435.661
716.288, 381.337
717.584, 462.519
718.879, 439.239
720.175, 506.321
721.470, 437.975
722.765, 405.132
724.060, 421.643
725.355, 376.586
726.649, 360.630
727.944, 490.969
729.238, 315.969
730.532, 515.163
731.825, 424.746
733.119, 331.780
734.412, 439.655
735.705, 383.386
736.998, 374.007
738.291, 410.341
739.584, 396.121
740.876, 457.561
742.168, 389.072
743.460, 444.979
744.752, 402.812
746.043, 522.411
747.334, 551.688
748.626, 581.996
749.916, 677.634
751.207, 622.592
752.498, 684.320
753.788, 735.955
755.078, 777.449
756.368, 843.330
757.658, 770.671
758.947, 955.692
760.237, 971.977
761.526, 1003.291
762.815, 1181.690
764.104, 1091.715
765.392, 1177.139
766.680, 1374.066
767.969, 1312.262
769.257, 1489.338
770.544, 1587.229
771.832, 1601.113
773.119, 1812.242
774.406, 1830.177
775.693, 1978.346
776.980, 1987.778
778.267, 2092.129
779.553, 2228.906
780.839, 2189.319
782.125, 2326.445
783.411, 2307.413
784.697, 2365.130
785.982, 2321.587
787.267, 2239.889
788.552, 2236.674
789.837, 2249.133
791.122, 2193.254
792.406, 2025.246
793.690, 1999.434
794.974, 2059.479
796.258, 1885.431
797.542, 1972.132
798.825, 1838.312
800.108, 1899.704
801.391, 1775.910
802.674, 1706.461
803.957, 1652.889
805.239, 1674.807
806.522, 1789.766
807.804, 1703.047
809.085, 1838.945
810.367, 1960.680
811.649, 1941.409
812.930, 1860.171
814.211, 2238.727
815.492, 2123.803
816.772, 1981.936
818.053, 2059.624
819.333, 1858.612
820.613, 1924.254
821.893, 1791.646
823.173, 1572.425
824.452, 1369.146
825.732, 1158.145
827.011, 1036.431
828.290, 911.110
829.568, 642.924
830.847, 630.771
832.125, 636.533
833.403, 513.465
834.681, 571.290
835.959, 442.706
837.236, 406.854
838.514, 307.509
839.791, 296.606
841.068, 400.589
842.345, 218.991
843.621, 390.175
844.898, 250.263
846.174, 263.273
847.450, 50.346
848.726, 249.039
850.001, 170.152
851.277, 145.766
852.552, 108.800
853.827, 144.955
855.102, 167.540
856.376, 159.103
857.651, 86.328
858.925, 127.850
860.199, 87.354
861.473, 204.839
862.746, 167.178
864.020, 162.772
865.293, 104.233
866.566, 124.678
867.839, 12.874
869.112, 11.443
870.384, 31.968
871.656, 92.627
872.928, 97.719
874.200, 21.924
875.472, 5.590
876.744, 34.749
878.015, 53.910
879.286, 54.620
880.557, 31.667
881.828, 139.937
883.098, 35.189
884.369, 32.563
885.639, 48.361
886.909, 63.801
888.178, 23.945
889.448, 12.069
890.717, 37.170
891.987, 0.253
893.256, 29.691
894.524, 51.323
895.793, 76.686
897.061, 11.763
898.330, 59.126
899.598, 85.007
900.865, 109.787
902.133, 21.562
903.401, 0.313
904.668, 4.037
905.935, 14.265
907.202, 18.399
908.468, 22.957
909.735, 69.648
911.001, 56.767
912.267, 31.765
913.533, 14.275
914.799, 113.236
916.064, 65.168
917.330, 0.555
918.595, 68.918
919.860, 97.738
921.124, 14.532
922.389, 48.782
923.653, 41.014
924.918, 36.772
926.182, 9.401
927.445, 2.445
928.709, 109.686
929.972, 44.198
931.236, 7.876
932.499, 84.932
933.761, 7.028
935.024, 58.011
936.286, 0.041
937.549, 34.909
938.811, 61.843
940.073, 5.238
941.334, 4.660
942.596, 75.542
943.857, 139.411
945.118, 36.266
946.379, 64.106
947.640, 57.065
948.900, 32.721
950.161, 139.495
951.421, 244.261
952.681, 60.016
953.940, 88.782
955.200, 77.543
956.459, 49.293
957.719, 156.036
958.978, 136.770
960.236, 95.500
961.495, 192.228
962.753, 52.949
964.012, 223.668
965.270, 118.386
966.527, 185.098
967.785, 283.812
969.043, 166.521
970.300, 232.230
971.557, 236.937
972.814, 182.640
974.071, 276.350
975.327, 279.058
976.583, 223.781
977.840, 212.504
979.095, 324.228
980.351, 264.964
981.607, 441.722
982.862, 469.479
984.117, 426.233
985.372, 435.000
986.627, 448.767
987.882, 375.530
989.136, 521.295
990.390, 392.060
991.644, 538.822
992.898, 580.583
994.152, 537.341
995.405, 536.113
996.659, 661.885
997.912, 573.660
999.165, 798.800
1000.417, 772.571
1001.670, 734.218
1002.922, 822.764
1004.174, 785.160
1005.426, 949.712
1006.678, 855.360
1007.930, 756.976
1009.181, 919.292
1010.432, 921.784
1011.683, 1030.115
1012.934, 1084.871
1014.185, 904.544
1015.435, 1154.200
1016.685, 1083.615
1017.935, 1066.119
1019.185, 1161.932
1020.435, 1159.844
1021.684, 1345.971
1022.934, 1286.812
1024.183, 1156.219
1025.432, 1340.521
1026.680, 1238.820
1027.929, 1297.977
1029.177, 1490.308
1030.425, 1365.605
1031.673, 1423.761
1032.921, 1810.374
1034.169, 1385.552
1035.416, 1621.290
1036.663, 1465.049
1037.911, 1573.366
1039.157, 1504.521
1040.404, 1481.633
1041.650, 1595.854
1042.897, 1435.597
1044.143, 1553.618
1045.389, 1597.914
1046.634, 1497.019
1047.880, 1586.161
1049.125, 1566.505
1050.371, 1357.139
1051.615, 1520.707
1052.860, 1487.913
1054.105, 1508.767
1055.349, 1381.816
1056.593, 1436.931
1057.837, 1361.152
1059.081, 1510.819
1060.325, 1560.273
1061.568, 1467.878
1062.812, 1503.192
1064.055, 1450.444
1065.298, 1442.584
1066.540, 1362.069
1067.783, 1495.128
1069.025, 1488.653
1070.267, 1530.884
1071.509, 1595.206
1072.751, 1602.366
1073.993, 1591.146
1075.234, 1659.335
1076.475, 1661.691
1077.716, 1703.785
1078.957, 1772.589
1080.198, 1756.450
1081.438, 1889.857
1082.679, 1823.602
1083.919, 2004.607
1085.159, 1987.747
1086.398, 1928.109
1087.638, 2214.710
1088.877, 2152.438
1090.116, 2238.658
1091.355, 2339.181
1092.594, 2101.016
1093.833, 2423.958
1095.071, 2377.663
1096.309, 2344.504
1097.547, 2450.096
1098.785, 2277.840
1100.023, 2452.834
1101.260, 2461.841
1102.498, 2414.361
1103.735, 2634.393
1104.972, 2390.415
1106.208, 2469.337
1107.445, 2495.402
1108.681, 2492.481
1109.918, 2497.691
1111.154, 2490.795
1112.389, 2393.829
1113.625, 2495.958
1114.860, 2427.102
1116.096, 2439.259
1117.331, 2568.428
1118.566, 2375.611
1119.800, 2586.810
1121.035, 2539.021
1122.269, 2534.250
1123.503, 2546.492
1124.737, 2412.750
1125.971, 2469.023
1127.205, 2488.312
1128.438, 2329.617
1129.671, 2432.055
1130.904, 2345.393
1132.137, 2430.747
1133.370, 2414.271
1134.602, 2410.660
1135.834, 2343.066
1137.066, 2572.491
1138.298, 2233.934
1139.530, 2373.395
1140.762, 2490.874
1141.993, 2199.374
1143.224, 2588.496
1144.455, 2325.036
1145.686, 2370.357
1146.917, 2245.938
1148.147, 2298.540
1149.377, 2328.098
1150.607, 2231.678
1151.837, 2192.277
1153.067, 2260.898
1154.296, 2078.541
1155.526, 2158.205
1156.755, 2131.891
1157.984, 2063.602
1159.213, 2049.363
1160.441, 2023.122
1161.670, 2040.905
1162.898, 1977.938
1164.126, 1822.305
1165.354, 1883.000
1166.581, 1682.714
1167.809, 1655.455
1169.036, 1720.130
1170.263, 1512.771
1171.490, 1658.448
1172.717, 1539.137
1173.943, 1516.846
1175.170, 1477.566
1176.396, 1367.294
1177.622, 1149.998
1178.848, 1391.720
1180.073, 1180.443
1181.299, 1042.164
1182.524, 1236.077
1183.749, 989.825
1184.974, 1074.594
1186.199, 949.373
1187.423, 774.167
1188.648, 995.845
1189.872, 718.544
1191.096, 773.171
1192.320, 817.780
1193.543, 612.383
1194.767, 820.909
1195.990, 472.488
1197.213, 473.113
1198.436, 571.770
1199.659, 489.465
1200.881, 471.200
1202.104, 455.996
1203.326, 342.853
1204.548, 452.771
1205.770, 193.746
1206.991, 257.782
1208.213, 345.859
1209.434, 350.981
1210.655, 347.148
1211.876, 372.209
1213.096, 172.627
1214.317, 342.948
1215.537, 224.305
1216.757, 151.697
1217.977, 176.120
1219.197, 224.594
1220.417, 182.156
1221.636, 202.646
1222.855, 191.182
1224.074, 147.748
1225.293, 210.344
1226.512, 157.970
1227.731, 133.627
1228.949, 233.315
1230.167, 211.035
1231.385, 101.787
1232.603, 113.572
1233.820, 140.388
1235.038, 210.211
1236.255, 6.042
1237.472, 254.865
1238.689, 118.719
1239.906, 9.604
1241.122, 173.520
1242.338, 90.421
1243.555, 225.327
1244.771, 241.263
1245.986, 17.229
1247.202, 513.228
1248.417, 99.744
1249.633, 158.308
1250.848, 222.382
1252.063, 68.487
1253.277, 117.627
1254.492, 223.801
1255.706, 8.987
1256.920, 306.262
1258.134, 106.550
1259.348, 119.879
1260.562, 88.250
1261.775, 79.645
1262.988, 168.082
1264.201, 100.563
1265.414, 11.095
1266.627, 220.682
1267.839, 113.331
1269.052, 133.045
1270.264, 295.824
1271.476, 18.666
1272.688, 202.573
1273.899, 212.540
1275.111, 68.430
1276.322, 239.662
1277.533, 172.812
1278.744, 48.976
1279.955, 240.295
1281.165, 145.626
1282.376, 113.021
1283.586, 270.478
1284.796, 50.000
1286.006, 133.590
1287.215, 93.246
1288.425, 44.027
1289.634, 235.775
1290.843, 11.344
1292.052, 176.620
1293.261, 108.671
1294.469, 208.718
1295.678, 216.523
1296.886, 183.403
1298.094, 65.928
1299.302, 280.944
1300.509, 82.038
1301.717, 212.212
1302.924, 172.465
1304.131, 12.799
1305.338, 241.210
1306.545, 169.697
1307.752, 209.963
1308.958, 200.427
1310.164, 231.616
1311.370, 66.737
1312.576, 261.763
1313.782, 127.658
1314.987, 222.525
1316.193, 282.291
1317.398, 96.507
1318.603, 300.336
1319.807, 218.680
1321.012, 71.395
1322.216, 244.213
1323.421, 148.186
1324.625, 233.272
1325.829, 314.440
1327.032, 10.591
1328.236, 204.615
1329.439, 297.459
1330.642, 46.868
1331.845, 194.595
1333.048, 113.783
1334.251, 4.418
1335.453, 180.476
1336.656, 10.819
1337.858, 0.000
##END=



