##NAMES=Heulandite-Ca
##RRUFFID=R050017
##IDEAL CHEMISTRY=(Ca,Na,K)_5_(Si_27_Al_9_)O_72_&#183;26H_2_O
##LOCALITY=Poona, Maharashtra State, India
##OWNER=RRUFF
##SOURCE=Eugene Schlepp
##DESCRIPTION=Single crystals
##STATUS=The identification of this mineral has been confirmed by X-ray diffraction and chemical analysis
##URL=rruff.info/R050017
##MEASURED CHEMISTRY=(Ca_.70_Na_.22_K_.02_[box]_0.06_)_5_(Si_0.77_Al_0.23_)_36_O_72_Â·24H_2_O
##PIN_ID=L00175
##ORIENTATION=Laser parallel to -b* (0 -1 0). Fiducial mark perpendicular to laser is parallel to c [0 0 1]
92.926, 0.000
94.324, 8.203
95.723, 129.139
97.121, 39.551
98.519, 744.688
99.917, 225.898
101.314, 689.945
102.712, 564.320
104.109, 1017.000
105.505, 1706.109
106.902, 1500.355
108.298, 1639.133
109.694, 2112.193
111.090, 2689.424
112.486, 2830.008
113.881, 3522.963
115.277, 3777.492
116.672, 4323.086
118.066, 4449.504
119.461, 4857.086
120.855, 4776.445
122.249, 4758.021
123.643, 5541.453
125.036, 5847.105
126.430, 5807.111
127.823, 6048.881
129.216, 5980.543
130.608, 6662.244
132.001, 6752.648
133.393, 6511.307
134.785, 6898.414
136.176, 6304.035
137.568, 6538.324
138.959, 6641.951
140.350, 6804.611
141.741, 6616.816
143.131, 6620.652
144.521, 6298.207
145.911, 6007.703
147.301, 5796.219
148.691, 5382.736
150.080, 5225.572
151.469, 4929.545
152.858, 4671.234
154.247, 4559.777
155.635, 4359.332
157.024, 4391.260
158.411, 4195.990
159.799, 3977.959
161.187, 3844.117
162.574, 3437.270
163.961, 3414.918
165.348, 3037.717
166.734, 2854.146
168.121, 2399.998
169.507, 2509.393
170.893, 2195.404
172.278, 2219.785
173.664, 1862.623
175.049, 1837.811
176.434, 1853.408
177.819, 1726.215
179.203, 1438.969
180.587, 1143.229
181.971, 1076.818
183.355, 972.832
184.739, 946.229
186.122, 991.137
187.505, 913.422
188.888, 820.842
190.271, 736.105
191.653, 721.910
193.035, 766.979
194.417, 698.984
195.799, 706.246
197.180, 767.645
198.562, 644.361
199.943, 570.715
201.324, 384.281
202.704, 354.938
204.084, 338.307
205.465, 226.457
206.844, 231.979
208.224, 269.873
209.603, 70.289
210.983, 244.650
212.362, 92.486
213.740, 278.088
215.119, 92.221
216.497, 25.293
217.875, 125.996
219.253, 6.889
220.631, 23.686
222.008, 146.162
223.385, 161.705
224.762, 15.451
226.139, 112.785
227.515, 111.795
228.891, 98.529
230.267, 78.602
231.643, 51.598
233.018, 27.922
234.394, 37.139
235.769, 36.049
237.144, 104.660
238.518, 47.080
239.893, 9.176
241.267, 248.230
242.641, 54.811
244.014, 291.725
245.388, 167.941
246.761, 243.830
248.134, 329.424
249.507, 184.674
250.879, 469.621
252.252, 214.285
253.624, 428.707
254.996, 212.883
256.367, 146.828
257.739, 110.533
259.110, 154.557
260.481, 146.160
261.852, 249.346
263.222, 180.744
264.592, 184.023
265.962, 167.135
267.332, 90.346
268.702, 133.488
270.071, 126.521
271.440, 70.591
272.809, 112.098
274.178, 35.407
275.546, 36.854
276.915, 78.871
278.283, 60.631
279.650, 122.112
281.018, 117.900
282.385, 5.764
283.752, 104.846
285.119, 74.848
286.486, 154.883
287.852, 85.296
289.218, 116.074
290.584, 57.241
291.950, 38.800
293.316, 90.756
294.681, 133.122
296.046, 125.912
297.411, 259.123
298.775, 102.781
300.140, 136.838
301.504, 38.701
302.868, 26.114
304.231, 81.299
305.595, 43.138
306.958, 7.223
308.321, 139.058
309.684, 195.756
311.047, 72.896
312.409, 149.524
313.771, 48.472
315.133, 53.071
316.495, 34.169
317.856, 574.828
319.217, 335.848
320.578, 379.497
321.939, 214.215
323.299, 132.883
324.660, 241.029
326.020, 128.706
327.380, 35.968
328.739, 222.849
330.099, 259.380
331.458, 325.500
332.817, 311.260
334.176, 386.728
335.534, 341.920
336.892, 416.843
338.251, 481.511
339.608, 435.911
340.966, 610.041
342.323, 513.913
343.681, 537.528
345.037, 630.882
346.394, 623.970
347.751, 626.759
349.107, 919.242
350.463, 801.461
351.819, 923.515
353.174, 915.210
354.530, 1097.031
355.885, 1125.266
357.240, 1179.975
358.594, 1250.409
359.949, 1330.268
361.303, 1409.357
362.657, 1428.079
364.011, 1595.544
365.365, 1562.357
366.718, 1689.068
368.071, 1805.202
369.424, 1900.422
370.777, 2184.715
372.129, 2059.612
373.481, 2362.394
374.833, 2366.298
376.185, 2419.020
377.537, 2612.715
378.888, 2595.386
380.239, 2773.516
381.590, 2839.057
382.941, 2960.934
384.291, 3103.016
385.642, 3143.010
386.992, 3501.162
388.341, 3438.965
389.691, 3740.382
391.040, 3952.514
392.389, 4332.740
393.738, 4362.904
395.087, 4348.568
396.435, 4997.738
397.784, 5106.713
399.132, 5545.904
400.479, 5875.752
401.827, 6080.409
403.174, 6386.557
404.521, 6357.748
405.868, 6791.924
407.215, 6682.368
408.561, 6822.303
409.908, 6802.672
411.254, 6533.713
412.599, 6432.896
413.945, 6043.553
415.290, 5803.890
416.636, 5384.252
417.980, 5044.022
419.325, 4812.335
420.670, 4220.213
422.014, 3958.854
423.358, 3706.971
424.702, 3535.656
426.045, 3253.368
427.389, 2941.560
428.732, 2679.932
430.075, 2566.985
431.417, 2254.374
432.760, 2160.850
434.102, 1861.188
435.444, 1948.080
436.786, 1570.422
438.127, 1625.610
439.469, 1500.670
440.810, 1394.695
442.151, 1500.208
443.492, 1444.557
444.832, 1265.775
446.172, 1249.508
447.512, 1085.818
448.852, 1226.846
450.192, 1121.983
451.531, 1354.933
452.870, 1061.325
454.209, 1348.626
455.548, 1342.420
456.887, 1253.314
458.225, 1304.424
459.563, 1336.940
460.901, 1599.043
462.238, 1528.784
463.576, 1618.635
464.913, 1834.891
466.250, 1807.470
467.587, 2066.847
468.923, 2034.565
470.259, 2192.899
471.596, 2267.569
472.931, 2269.662
474.267, 2460.689
475.603, 2484.518
476.938, 2642.889
478.273, 2841.604
479.608, 3075.052
480.942, 3417.018
482.276, 3619.115
483.611, 3779.730
484.944, 4079.686
486.278, 3889.998
487.612, 3810.948
488.945, 3888.391
490.278, 3538.877
491.611, 3139.545
492.943, 3060.562
494.276, 2760.671
495.608, 2170.912
496.940, 2061.045
498.271, 1753.171
499.603, 1444.406
500.934, 1335.672
502.265, 1207.347
503.596, 1058.721
504.927, 930.127
506.257, 941.231
507.587, 806.457
508.917, 727.504
510.247, 749.968
511.577, 663.063
512.906, 685.304
514.235, 547.623
515.564, 400.730
516.892, 516.996
518.221, 482.518
519.549, 466.034
520.877, 579.547
522.205, 465.314
523.533, 598.748
524.860, 464.111
526.187, 327.055
527.514, 371.197
528.841, 317.482
530.167, 511.793
531.493, 398.042
532.820, 380.845
534.145, 464.866
535.471, 347.547
536.796, 479.835
538.122, 262.437
539.447, 394.437
540.771, 336.649
542.096, 469.164
543.420, 421.068
544.744, 363.231
546.068, 537.890
547.392, 389.638
548.715, 421.976
550.039, 233.555
551.362, 475.622
552.684, 397.517
554.007, 199.448
555.329, 374.615
556.652, 435.641
557.973, 347.628
559.295, 398.316
560.617, 374.635
561.938, 606.219
563.259, 306.753
564.580, 302.465
565.901, 523.026
567.221, 379.610
568.541, 400.413
569.861, 362.246
571.181, 512.991
572.501, 583.903
573.820, 244.430
575.139, 514.700
576.458, 324.678
577.777, 515.371
579.095, 515.261
580.414, 376.129
581.732, 435.937
583.049, 456.073
584.367, 589.106
585.685, 348.945
587.002, 219.245
588.319, 299.592
589.636, 279.128
590.952, 428.616
592.268, 218.061
593.585, 177.634
594.900, 137.009
596.216, 216.534
597.532, 346.122
598.847, 505.414
600.162, 254.675
601.477, 463.902
602.792, 453.094
604.106, 742.267
605.420, 561.407
606.734, 570.548
608.048, 789.713
609.361, 728.881
610.675, 968.066
611.988, 887.250
613.301, 876.435
614.614, 885.639
615.926, 884.861
617.238, 974.109
618.550, 833.415
619.862, 572.755
621.174, 662.120
622.485, 761.474
623.797, 590.824
625.108, 650.189
626.418, 559.535
627.729, 498.877
629.039, 388.248
630.349, 477.674
631.659, 227.113
632.969, 266.527
634.279, 415.947
635.588, 145.354
636.897, 184.742
638.206, 214.092
639.515, 233.408
640.823, 222.695
642.131, 131.955
643.439, 281.189
644.747, 29.604
646.055, 159.568
647.362, 108.727
648.669, 107.854
649.976, 126.953
651.283, 286.021
652.589, 505.064
653.896, 284.086
655.202, 16.918
656.508, 152.037
657.814, 70.963
659.119, 119.893
660.424, 68.791
661.729, 57.652
663.034, 196.498
664.339, 84.670
665.643, 154.117
666.947, 82.875
668.251, 28.406
669.555, 90.182
670.859, 38.814
672.162, 6.875
673.465, 75.699
674.768, 57.857
676.071, 0.215
677.373, 47.330
678.676, 54.676
679.978, 22.785
681.280, 49.227
682.581, 98.152
683.883, 25.066
685.184, 211.859
686.485, 111.461
687.786, 74.061
689.087, 32.797
690.387, 30.443
691.687, 26.623
692.987, 103.176
694.287, 10.256
695.586, 136.404
696.886, 73.709
698.185, 0.119
699.484, 117.535
700.783, 66.045
702.081, 47.506
703.379, 160.268
704.677, 6.756
705.975, 184.008
707.273, 60.396
708.570, 87.162
709.868, 63.578
711.165, 60.861
712.462, 255.721
713.758, 12.229
715.055, 308.297
716.351, 85.043
717.647, 71.039
718.943, 317.869
720.238, 75.637
721.533, 280.023
722.829, 92.863
724.124, 193.014
725.418, 1.041
726.713, 174.725
728.007, 121.461
729.301, 198.445
730.595, 244.076
731.889, 330.768
733.182, 120.762
734.476, 327.041
735.769, 53.307
737.061, 353.656
738.354, 209.547
739.647, 33.984
740.939, 270.104
742.231, 145.541
743.523, 120.518
744.814, 386.340
746.106, 341.924
747.397, 328.186
748.688, 263.078
749.978, 347.693
751.269, 252.189
752.559, 227.156
753.849, 339.559
755.139, 445.346
756.429, 302.975
757.719, 398.859
759.008, 344.631
760.297, 480.865
761.586, 346.504
762.875, 312.656
764.163, 528.238
765.451, 294.057
766.739, 660.127
768.027, 326.736
769.315, 593.703
770.602, 589.564
771.890, 465.551
773.177, 751.203
774.463, 730.906
775.750, 456.215
777.036, 752.418
778.323, 457.688
779.609, 673.000
780.894, 628.184
782.180, 673.334
783.465, 778.688
784.750, 585.438
786.035, 710.492
787.320, 814.967
788.605, 609.906
789.889, 754.863
791.173, 898.893
792.457, 572.891
793.741, 606.986
795.024, 671.656
796.307, 645.738
797.591, 479.416
798.873, 653.697
800.156, 736.002
801.439, 409.723
802.721, 533.211
804.003, 456.666
805.285, 300.201
806.566, 684.369
807.848, 418.877
809.129, 502.973
810.410, 715.979
811.691, 359.473
812.971, 592.064
814.252, 535.375
815.532, 528.451
816.812, 925.699
818.092, 502.822
819.371, 928.092
820.651, 931.504
821.930, 904.920
823.209, 666.781
824.488, 629.768
825.766, 892.816
827.045, 595.783
828.323, 635.240
829.601, 606.086
830.878, 448.541
832.156, 611.688
833.433, 572.004
834.710, 264.537
835.987, 406.834
837.264, 339.637
838.540, 371.137
839.817, 334.383
841.093, 321.521
842.369, 311.020
843.644, 273.564
844.920, 594.697
846.195, 267.076
847.470, 279.758
848.745, 472.033
850.020, 94.820
851.294, 297.322
852.568, 129.490
853.842, 157.861
855.116, 504.410
856.390, 84.150
857.663, 236.775
858.936, 78.770
860.209, 91.453
861.482, 453.600
862.755, 256.148
864.027, 308.271
865.299, 147.107
866.571, 220.004
867.843, 231.869
869.115, 134.953
870.386, 242.332
871.657, 334.391
872.928, 47.439
874.199, 245.225
875.470, 88.105
876.740, 294.889
878.010, 257.369
879.280, 208.742
880.550, 121.121
881.820, 83.256
883.089, 105.691
884.358, 118.305
885.627, 48.871
886.896, 273.137
888.164, 205.883
889.433, 52.424
890.701, 250.240
891.969, 82.502
893.236, 108.207
894.504, 244.176
895.771, 176.027
897.038, 47.764
898.305, 80.240
899.572, 62.699
900.838, 175.131
902.105, 197.402
903.371, 179.809
904.637, 142.016
905.902, 95.846
907.168, 416.494
908.433, 21.184
909.698, 151.098
910.963, 163.361
912.228, 55.604
913.492, 277.824
914.757, 60.025
916.021, 302.203
917.285, 124.363
918.548, 56.504
919.812, 8.621
921.075, 0.711
922.338, 82.770
923.601, 44.807
924.864, 116.822
926.126, 51.152
927.388, 260.820
928.650, 12.775
929.912, 174.705
931.174, 156.617
932.435, 258.510
933.697, 190.391
934.958, 122.250
936.218, 5.904
937.479, 285.906
938.739, 127.699
940.000, 49.479
941.260, 241.240
942.520, 132.984
943.779, 184.719
945.039, 246.441
946.298, 48.154
947.557, 219.852
948.816, 321.535
950.074, 283.209
951.333, 348.582
952.591, 416.529
953.849, 318.178
955.107, 189.816
956.365, 161.445
957.622, 163.062
958.879, 194.670
960.136, 256.262
961.393, 37.842
962.650, 379.412
963.906, 139.025
965.162, 342.445
966.418, 163.908
967.674, 54.637
968.930, 43.227
970.185, 84.838
971.441, 139.467
972.696, 60.783
973.950, 132.086
975.205, 293.389
976.459, 84.686
977.714, 65.971
978.968, 147.248
980.222, 18.533
981.475, 349.818
982.729, 41.098
983.982, 162.369
985.235, 263.645
986.488, 15.086
987.740, 516.172
988.993, 177.422
990.245, 218.670
991.497, 279.910
992.749, 51.166
994.000, 122.434
995.252, 373.695
996.503, 174.957
997.754, 456.213
999.005, 327.461
1000.256, 318.736
1001.506, 389.387
1002.756, 130.654
1004.006, 571.465
1005.256, 400.953
1006.506, 412.232
1007.755, 332.869
1009.005, 124.143
1010.254, 264.760
1011.502, 565.424
1012.751, 56.695
1014.000, 317.957
1015.248, 379.219
1016.496, 330.137
1017.744, 471.355
1018.991, 382.617
1020.239, 283.480
1021.486, 494.754
1022.733, 326.023
1023.980, 436.555
1025.227, 517.838
1026.473, 488.570
1027.719, 740.141
1028.965, 291.430
1030.211, 572.705
1031.457, 533.801
1032.702, 294.545
1033.948, 705.383
1035.193, 386.266
1036.438, 483.027
1037.682, 554.281
1038.927, 425.521
1040.171, 552.066
1041.415, 443.297
1042.659, 364.012
1043.903, 667.277
1045.146, 358.975
1046.390, 540.086
1047.633, 631.473
1048.876, 312.180
1050.118, 842.801
1051.361, 654.373
1052.603, 545.555
1053.845, 876.664
1055.087, 618.598
1056.329, 762.633
1057.571, 464.311
1058.812, 572.705
1060.053, 863.693
1061.294, 465.109
1062.535, 585.699
1063.775, 726.854
1065.016, 387.914
1066.256, 719.092
1067.496, 550.166
1068.736, 511.080
1069.975, 461.105
1071.214, 371.223
1072.454, 582.201
1073.693, 472.758
1074.931, 581.543
1076.170, 628.314
1077.408, 609.453
1078.647, 560.000
1079.885, 691.107
1081.122, 532.266
1082.360, 743.854
1083.597, 484.990
1084.835, 695.891
1086.072, 765.270
1087.308, 746.406
1088.545, 687.408
1089.781, 798.020
1091.018, 709.164
1092.254, 880.613
1093.490, 591.760
1094.725, 493.424
1095.961, 1014.609
1097.196, 525.764
1098.431, 716.922
1099.666, 778.082
1100.900, 749.621
1102.135, 790.785
1103.369, 641.953
1104.603, 833.287
1105.837, 564.434
1107.071, 795.596
1108.304, 656.773
1109.538, 837.955
1110.771, 738.609
1112.004, 849.797
1113.236, 771.527
1114.469, 642.721
1115.701, 753.918
1116.933, 580.873
1118.165, 898.516
1119.397, 583.730
1120.629, 674.863
1121.860, 945.670
1123.091, 466.779
1124.322, 878.002
1125.553, 808.928
1126.783, 689.688
1128.014, 790.789
1129.244, 461.361
1130.474, 812.504
1131.704, 623.178
1132.933, 404.326
1134.163, 565.473
1135.392, 364.986
1136.621, 576.059
1137.850, 657.133
1139.079, 348.209
1140.307, 719.281
1141.535, 710.434
1142.763, 401.412
1143.991, 772.496
1145.219, 563.689
1146.446, 594.768
1147.674, 653.211
1148.901, 845.723
1150.128, 776.801
1151.354, 791.385
1152.581, 763.729
1153.807, 725.166
1155.033, 705.725
1156.259, 607.838
1157.485, 619.756
1158.710, 680.902
1159.936, 612.053
1161.161, 712.896
1162.386, 174.049
1163.611, 825.205
1164.835, 366.365
1166.060, 337.529
1167.284, 509.158
1168.508, 380.332
1169.732, 291.504
1170.955, 353.693
1172.179, 244.881
1173.402, 415.844
1174.625, 56.672
1175.848, 247.477
1177.070, 448.297
1178.293, 79.033
1179.515, 309.748
1180.737, 391.068
1181.959, 211.730
1183.181, 322.336
1184.402, 283.811
1185.624, 314.287
1186.845, 414.732
1188.066, 185.162
1189.286, 225.502
1190.507, 325.797
1191.727, 15.982
1192.947, 436.096
1194.167, 12.455
1195.387, 137.521
1196.607, 266.014
1197.826, 17.477
1199.045, 198.939
1200.264, 380.344
1201.483, 178.205
1202.702, 413.258
1203.920, 14.732
1205.138, 356.211
1206.356, 197.695
1207.574, 49.201
1208.792, 310.723
1210.009, 232.201
1211.227, 33.709
1212.444, 135.227
1213.661, 96.746
1214.877, 68.283
1216.094, 249.834
1217.310, 31.400
1218.526, 82.967
1219.742, 414.535
1220.958, 123.895
1222.173, 177.684
1223.389, 279.264
1224.604, 70.852
1225.819, 462.443
1227.034, 124.043
1228.248, 45.705
1229.463, 637.428
1230.677, 289.227
1231.891, 271.131
1233.105, 263.051
1234.318, 144.984
1235.532, 706.941
1236.745, 268.922
1237.958, 50.922
1239.171, 382.951
1240.384, 45.006
1241.596, 37.086
1242.809, 259.188
1244.021, 311.307
1245.233, 443.404
1246.444, 85.453
1247.656, 427.463
1248.867, 629.484
1250.079, 141.516
1251.290, 443.562
1252.500, 425.633
1253.711, 247.723
1254.921, 369.828
1256.132, 371.953
1257.342, 234.086
1258.552, 322.672
1259.761, 467.947
1260.971, 329.830
1262.180, 432.080
1263.389, 424.367
1264.598, 526.695
1265.807, 339.078
1267.015, 370.600
1268.223, 321.484
1269.432, 244.020
1270.640, 405.629
1271.847, 475.412
1273.055, 266.578
1274.262, 528.816
1275.470, 290.260
1276.677, 391.523
1277.883, 273.293
1279.090, 404.842
1280.296, 165.373
1281.503, 288.512
1282.709, 610.408
1283.915, 241.463
1285.120, 361.865
1286.326, 83.713
1287.531, 495.551
1288.736, 267.189
1289.941, 177.643
1291.146, 257.902
1292.350, 92.059
1293.555, 3.570
1294.759, 419.930
1295.963, 49.098
1297.167, 232.332
1298.370, 143.707
1299.574, 125.025
1300.777, 496.291
1301.980, 57.486
1303.183, 298.596
1304.386, 439.615
1305.588, 390.592
1306.790, 281.873
1307.993, 353.518
1309.195, 285.141
1310.396, 436.740
1311.598, 127.920
1312.799, 500.295
1314.000, 610.217
1315.201, 62.600
1316.402, 544.467
1317.603, 233.176
1318.803, 191.934
1320.003, 667.744
1321.203, 182.217
1322.403, 262.574
1323.603, 618.023
1324.802, 52.535
1326.002, 825.826
1327.201, 372.756
1328.400, 10.600
1329.599, 618.855
1330.797, 201.311
1331.995, 362.627
1333.194, 522.113
1334.392, 210.463
1335.589, 305.967
1336.787, 498.529
1337.985, 1.480
1339.182, 482.523
1340.379, 0.000
##END=



