##NAMES=Heulandite-Ca
##RRUFFID=R060465
##IDEAL CHEMISTRY=(Ca,Na,K)_5_(Si_27_Al_9_)O_72_&#183;26H_2_O
##LOCALITY=Garrawilla, near Gunnadah, New South Wales, Australia
##OWNER=RRUFF
##SOURCE=Michael Scott
##DESCRIPTION=Orange fan of platy crystals
##STATUS=The identification of this mineral has been confirmed by X-ray diffraction and chemical analysis
##URL=rruff.info/R060465
##MEASURED CHEMISTRY=(Ca_0.66_Na_0.24_K_0.10_)_5_(Si_0.77_Al_0.23_)_36_O_72_Â·24H_2_O
##PIN_ID=M01415
##ORIENTATION=Laser parallel to a* (1 0 0). Fiducial mark perpendicular to laser is parallel to b [0 1 0]
214.0490, 0.0000000E+00
215.2770, 62.54883
216.5040, 12.26367
217.7320, 73.77930
218.9590, 17.36133
220.1860, 170.6758
221.4130, 41.08594
222.6400, 304.5000
223.8660, 254.2734
225.0920, 405.5508
226.3190, 583.0840
227.5450, 563.4863
228.7700, 968.3945
229.9960, 1572.494
231.2210, 2124.113
232.4460, 3113.146
233.6710, 2572.826
234.8960, 2954.482
236.1210, 2649.268
237.3450, 3400.109
238.5690, 3679.285
239.7930, 4132.074
241.0170, 4434.250
242.2410, 4916.574
243.4640, 5152.678
244.6870, 5664.076
245.9100, 5701.205
247.1330, 6169.432
248.3560, 5741.836
249.5780, 6125.920
250.8000, 6443.723
252.0230, 6093.031
253.2440, 6169.152
254.4660, 5991.992
255.6880, 5838.775
256.9090, 5749.918
258.1300, 5781.617
259.3510, 5644.064
260.5720, 5411.383
261.7920, 5075.531
263.0130, 4857.008
264.2330, 4415.570
265.4530, 4034.926
266.6730, 3548.684
267.8920, 3256.260
269.1120, 2874.049
270.3310, 2641.033
271.5500, 2390.184
272.7690, 2281.461
273.9880, 1859.822
275.2060, 1877.250
276.4240, 1493.738
277.6430, 1379.285
278.8600, 1000.893
280.0780, 1148.561
281.2960, 920.2871
282.5130, 861.0742
283.7300, 712.9238
284.9470, 614.8281
286.1640, 373.7988
287.3810, 293.8926
288.5970, 345.3008
289.8130, 136.0020
291.0290, 100.9824
292.2450, 128.2344
293.4610, 33.73828
294.6760, 85.52148
295.8910, 30.42773
297.1060, 158.4219
298.3210, 175.0879
299.5360, 249.5879
300.7510, 239.9297
301.9650, 251.3945
303.1790, 154.1660
304.3930, 242.0391
305.6070, 46.25000
306.8200, 58.65820
308.0340, 60.82812
309.2470, 104.7578
310.4600, 13.36914
311.6730, 200.0137
312.8850, 393.6875
314.0980, 609.4121
315.3100, 763.1777
316.5220, 812.0625
317.7340, 1021.104
318.9460, 1108.189
320.1570, 1375.324
321.3690, 1545.477
322.5800, 1746.621
323.7910, 1804.707
325.0010, 2072.721
326.2120, 2089.604
327.4220, 2244.275
328.6330, 2418.670
329.8430, 2304.613
331.0520, 2259.061
332.2620, 2503.084
333.4720, 2534.926
334.6810, 2427.625
335.8900, 2301.254
337.0990, 2318.885
338.3070, 2549.557
339.5160, 2510.264
340.7240, 2498.006
341.9320, 2260.787
343.1400, 2170.602
344.3480, 2218.453
345.5560, 2415.332
346.7630, 2623.248
347.9700, 2958.195
349.1770, 2858.172
350.3840, 2935.176
351.5910, 3371.215
352.7970, 3434.283
354.0040, 3797.377
355.2100, 4110.500
356.4160, 4335.652
357.6220, 4666.830
358.8270, 5134.035
360.0320, 5268.223
361.2380, 5907.848
362.4430, 6366.891
363.6470, 6813.441
364.8520, 7219.422
366.0560, 7893.924
367.2610, 8529.354
368.4650, 9066.689
369.6690, 9661.926
370.8720, 10328.04
372.0760, 11057.01
373.2790, 11880.82
374.4820, 12471.47
375.6850, 13257.97
376.8880, 14577.31
378.0910, 15142.55
379.2930, 16225.68
380.4950, 17084.67
381.6970, 18295.43
382.8990, 19497.04
384.1010, 20474.55
385.3020, 21728.96
386.5040, 23057.84
387.7050, 24570.00
388.9060, 25914.69
390.1060, 27753.68
391.3070, 29214.05
392.5070, 30587.85
393.7080, 32444.75
394.9080, 33832.19
396.1070, 35315.32
397.3070, 36251.04
398.5070, 37770.75
399.7060, 38605.84
400.9050, 39403.85
402.1040, 39622.66
403.3030, 39584.18
404.5010, 39172.87
405.7000, 38753.20
406.8980, 37903.23
408.0960, 36898.32
409.2940, 35512.07
410.4910, 34216.09
411.6890, 32695.75
412.8860, 30902.38
414.0830, 29214.08
415.2800, 27980.19
416.4770, 26277.31
417.6730, 24743.56
418.8690, 23271.65
420.0660, 21807.65
421.2620, 20241.66
422.4570, 18902.02
423.6530, 17328.96
424.8480, 16204.98
426.0440, 14841.25
427.2390, 13538.25
428.4340, 12497.20
429.6280, 11467.39
430.8230, 10453.99
432.0170, 9322.254
433.2110, 8634.223
434.4050, 7787.590
435.5990, 7088.961
436.7930, 6613.383
437.9860, 6153.064
439.1800, 5566.719
440.3730, 5151.613
441.5660, 4791.062
442.7580, 4307.646
443.9510, 4095.717
445.1430, 3892.582
446.3350, 3748.885
447.5270, 3617.451
448.7190, 3629.664
449.9110, 3574.332
451.1020, 3680.463
452.2930, 3865.490
453.4850, 3983.758
454.6750, 4207.699
455.8660, 4616.398
457.0570, 5055.586
458.2470, 5421.689
459.4370, 6011.404
460.6270, 6513.109
461.8170, 7223.816
463.0070, 8061.512
464.1960, 8723.203
465.3850, 9420.891
466.5750, 10058.57
467.7630, 11026.24
468.9520, 12236.90
470.1410, 13619.56
471.3290, 14954.21
472.5170, 16449.86
473.7050, 18269.50
474.8930, 20293.15
476.0810, 22499.79
477.2680, 24840.44
478.4560, 26844.08
479.6430, 29120.73
480.8300, 30522.38
482.0160, 32098.04
483.2030, 33239.70
484.3890, 33338.37
485.5760, 32583.02
486.7620, 31643.68
487.9480, 29984.35
489.1330, 27698.01
490.3190, 25292.68
491.5040, 22816.34
492.6890, 19865.01
493.8740, 17335.66
495.0590, 15273.33
496.2440, 12768.99
497.4280, 10988.65
498.6120, 9469.312
499.7960, 8119.971
500.9800, 6777.627
502.1640, 5807.281
503.3470, 4932.898
504.5310, 4194.477
505.7140, 3589.025
506.8970, 3083.910
508.0800, 2549.389
509.2620, 2295.828
510.4450, 2119.863
511.6270, 1686.369
512.8090, 1325.072
513.9910, 1193.727
515.1730, 1291.984
516.3550, 1127.879
517.5360, 1118.676
518.7170, 801.4629
519.8980, 635.9551
521.0790, 539.4863
522.2600, 473.6797
523.4400, 438.2539
524.6210, 302.8379
525.8010, 271.9688
526.9810, 270.2676
528.1610, 113.1270
529.3400, 259.0645
530.5200, 101.5000
531.6990, 21.38867
532.8780, 143.2910
534.0570, 20.40234
535.2360, 95.22266
536.4140, 79.27344
537.5930, 23.42383
538.7710, 167.2168
539.9490, 112.8027
541.1270, 156.7676
542.3040, 55.82031
543.4820, 209.1406
544.6590, 119.1797
545.8360, 174.8711
547.0130, 2.957031
548.1900, 20.46484
549.3670, 8.945313
550.5430, 92.23242
551.7190, 36.62109
552.8960, 24.17969
554.0710, 21.95117
555.2470, 23.56445
556.4230, 9.681641
557.5980, 147.9219
558.7730, 2.1484001E-02
559.9480, 210.2090
561.1230, 59.64844
562.2980, 56.72852
563.4720, 90.51758
564.6470, 8.955078
565.8210, 65.76758
566.9950, 8.251953
568.1690, 33.45898
569.3420, 146.6270
570.5160, 238.7598
571.6890, 283.0977
572.8620, 203.1816
574.0350, 171.2461
575.2080, 375.2812
576.3800, 214.3164
577.5530, 386.3398
578.7250, 614.3535
579.8970, 666.3750
581.0690, 822.4922
582.2410, 793.6152
583.4120, 1043.732
584.5830, 1010.908
585.7550, 1387.158
586.9260, 1365.479
588.0960, 1730.877
589.2670, 1960.326
590.4380, 2166.844
591.6080, 2275.361
592.7780, 2616.873
593.9480, 2970.408
595.1180, 3251.295
596.2870, 3634.227
597.4570, 4113.734
598.6260, 4464.215
599.7950, 5037.680
600.9640, 5365.121
602.1330, 5856.170
603.3010, 6365.555
604.4700, 6585.434
605.6380, 7096.777
606.8060, 7491.098
607.9740, 7812.381
609.1420, 7725.645
610.3090, 7893.877
611.4760, 7838.082
612.6440, 7739.287
613.8110, 7696.461
614.9770, 7045.623
616.1440, 6874.781
617.3110, 6470.941
618.4770, 5860.113
619.6430, 5548.289
620.8090, 5035.469
621.9750, 4655.652
623.1400, 4489.834
624.3060, 3776.990
625.4710, 3450.113
626.6360, 3301.201
627.8010, 3041.277
628.9660, 2735.312
630.1300, 2552.314
631.2950, 2089.299
632.4590, 1979.244
633.6230, 2047.156
634.7870, 1632.033
635.9510, 1561.891
637.1140, 1524.762
638.2780, 1236.629
639.4410, 1178.455
640.6040, 1102.264
641.7670, 1047.061
642.9290, 869.8242
644.0920, 843.5605
645.2540, 676.2559
646.4160, 385.9082
647.5780, 492.5137
648.7400, 589.0781
649.9020, 330.6113
651.0630, 211.0957
652.2250, 396.5527
653.3860, 161.6504
654.5470, 490.3145
655.7080, 7.615234
656.8680, 108.8398
658.0290, 105.0059
659.1890, 128.8926
660.3490, 144.9395
661.5090, 139.1406
662.6690, 1.498047
663.8280, 64.93945
664.9880, 25.57031
666.1470, 193.4395
667.3060, 1.441406
668.4650, 101.4238
669.6240, 61.36914
670.7820, 164.0723
671.9410, 36.85352
673.0990, 24.24805
674.2570, 92.27344
675.4150, 96.61914
676.5720, 77.73633
677.7300, 12.15234
678.8870, 234.1582
680.0450, 133.8711
681.2020, 112.2969
682.3590, 111.0664
683.5150, 84.86328
684.6720, 160.2129
685.8280, 298.7246
686.9840, 189.4199
688.1400, 243.1562
689.2960, 170.5254
690.4520, 252.4258
691.6070, 169.9023
692.7630, 210.6914
693.9180, 401.4707
695.0730, 424.1406
696.2280, 380.3672
697.3820, 218.5391
698.5370, 251.5332
699.6910, 426.6211
700.8450, 365.8008
701.9990, 434.9062
703.1530, 460.1914
704.3070, 411.7070
705.4600, 459.6699
706.6130, 733.3281
707.7660, 578.1055
708.9190, 711.4883
710.0720, 463.5469
711.2250, 585.7637
712.3770, 594.1895
713.5300, 554.7227
714.6820, 626.2168
715.8340, 677.6816
716.9850, 713.3965
718.1370, 575.8223
719.2880, 510.6387
720.4400, 511.2773
721.5910, 729.8242
722.7420, 612.8750
723.8930, 645.0605
725.0430, 606.4023
726.1940, 606.6484
727.3440, 617.8105
728.4940, 603.3633
729.6440, 648.9805
730.7940, 560.3477
731.9430, 598.8262
733.0930, 446.2832
734.2420, 436.6562
735.3910, 783.8867
736.5400, 545.8047
737.6890, 655.6270
738.8370, 742.4844
739.9860, 386.9062
741.1340, 672.5078
742.2820, 419.4922
743.4300, 553.8164
744.5780, 765.7246
745.7250, 649.3008
746.8730, 786.2734
748.0200, 961.1699
749.1670, 844.0977
750.3140, 916.8516
751.4610, 1030.328
752.6070, 1135.145
753.7540, 1070.758
754.9000, 1050.432
756.0460, 1196.238
757.1920, 1356.738
758.3380, 1524.475
759.4830, 1637.918
760.6280, 1747.439
761.7740, 1915.404
762.9190, 1881.586
764.0640, 2077.223
765.2080, 2414.689
766.3530, 2316.014
767.4970, 2353.918
768.6420, 2716.723
769.7860, 2838.955
770.9300, 3120.998
772.0730, 3498.109
773.2170, 3361.373
774.3600, 4048.188
775.5040, 4742.891
776.6470, 4546.750
777.7900, 4401.250
778.9320, 4846.553
780.0750, 4878.822
781.2170, 5189.729
782.3600, 5356.223
783.5020, 5711.270
784.6440, 5739.039
785.7850, 5653.297
786.9270, 5714.008
788.0680, 5790.232
789.2100, 5695.789
790.3510, 5763.012
791.4920, 5799.020
792.6320, 5751.215
793.7730, 5720.500
794.9130, 5658.816
796.0540, 5452.332
797.1940, 5391.432
798.3340, 5231.281
799.4730, 5127.742
800.6130, 4941.727
801.7520, 4777.182
802.8920, 4718.945
804.0310, 4483.004
805.1700, 4212.312
806.3090, 4120.008
807.4470, 4066.473
808.5860, 4047.246
809.7240, 3968.959
810.8620, 3758.379
812.0000, 3902.955
813.1380, 3685.078
814.2750, 3733.537
815.4130, 3738.041
816.5500, 3830.719
817.6870, 3870.676
818.8240, 3975.129
819.9610, 3808.996
821.0980, 3729.312
822.2340, 3458.762
823.3700, 3219.688
824.5070, 2947.086
825.6430, 2689.949
826.7780, 2460.926
827.9140, 2192.375
829.0500, 1895.414
830.1850, 1697.803
831.3200, 1575.686
832.4550, 1391.213
833.5900, 1128.254
834.7250, 1190.221
835.8590, 897.2578
836.9930, 878.0508
838.1280, 734.5176
839.2620, 876.2031
840.3950, 688.9551
841.5290, 622.4414
842.6630, 602.0566
843.7960, 515.8438
844.9290, 469.5645
846.0620, 385.2148
847.1950, 376.7207
848.3280, 470.0625
849.4600, 397.4961
850.5930, 356.8574
851.7250, 426.7129
852.8570, 630.3555
853.9890, 349.5000
855.1210, 479.5684
856.2520, 267.5000
857.3840, 273.3574
858.5150, 376.1934
859.6460, 327.9551
860.7770, 274.6426
861.9080, 280.2559
863.0380, 231.7852
864.1690, 227.2402
865.2990, 142.6172
866.4290, 184.9082
867.5590, 140.9531
868.6890, 368.2578
869.8190, 130.9551
870.9480, 147.5254
872.0770, 204.4258
873.2070, 3.751953
874.3360, 34.96680
875.4640, 52.59766
876.5930, 37.50391
877.7220, 2.962891
878.8500, 4.189453
879.9780, 19.06445
881.1060, 141.2305
882.2340, 3.681641
883.3620, 47.30664
884.4890, 38.21094
885.6170, 100.9668
886.7440, 72.70508
887.8710, 57.70312
888.9980, 72.23633
890.1240, 106.9062
891.2510, 126.8965
892.3770, 139.8789
893.5040, 97.85742
894.6300, 127.1543
895.7560, 98.60938
896.8810, 12.20898
898.0070, 17.09375
899.1330, 53.31641
900.2580, 74.53906
901.3830, 86.47852
902.5080, 10.42383
903.6330, 54.71484
904.7570, 44.03125
905.8820, 0.7050780
907.0060, 2.707031
908.1300, 55.20703
909.2540, 177.8164
910.3780, 130.6035
911.5020, 13.46289
912.6250, 68.54883
913.7490, 99.67578
914.8720, 18.93555
915.9950, 56.28320
917.1180, 17.26367
918.2400, 60.74219
919.3630, 14.15039
920.4850, 1.509766
921.6080, 44.24219
922.7300, 13.92773
923.8520, 96.96680
924.9730, 39.02344
926.0950, 50.94727
927.2160, 317.8145
928.3380, 112.6230
929.4590, 96.38477
930.5800, 259.0898
931.7010, 77.75000
932.8210, 17.39258
933.9420, 80.02930
935.0620, 70.65625
936.1820, 12.75781
937.3020, 167.7949
938.4220, 173.3145
939.5420, 133.8457
940.6610, 138.3379
941.7810, 43.82031
942.9000, 70.27734
944.0190, 214.7383
945.1380, 113.1758
946.2570, 146.5840
947.3750, 191.9805
948.4940, 126.3711
949.6120, 242.7461
950.7300, 184.0859
951.8480, 235.3809
952.9660, 219.6367
954.0830, 196.8887
955.2010, 282.0996
956.3180, 304.2754
957.4350, 316.3906
958.5520, 309.5176
959.6690, 384.5859
960.7860, 274.6211
961.9020, 377.6172
963.0190, 353.5781
964.1350, 235.5215
965.2510, 335.4238
966.3670, 310.2910
967.4830, 362.1191
968.5980, 472.9512
969.7140, 485.2070
970.8290, 657.5098
971.9440, 631.2578
973.0590, 559.9863
974.1740, 700.7500
975.2880, 666.1992
976.4030, 771.0371
977.5170, 644.6699
978.6310, 811.1973
979.7450, 621.5000
980.8590, 623.4258
981.9730, 663.2871
983.0860, 843.5410
984.2000, 949.4766
985.3130, 906.2168
986.4260, 875.2461
987.5390, 900.4863
988.6520, 898.5195
989.7640, 935.5410
990.8770, 939.8164
991.9890, 1084.111
993.1010, 1089.812
994.2130, 997.2949
995.3250, 1284.551
996.4370, 1050.801
997.5480, 1236.857
998.6590, 1511.871
999.7710, 1254.562
1000.882, 1604.410
1001.993, 1494.059
1003.103, 1405.633
1004.214, 1512.193
1005.324, 1613.801
1006.434, 1565.629
1007.545, 1618.504
1008.655, 1652.240
1009.764, 1531.314
1010.874, 1677.117
1011.983, 1626.480
1013.093, 1736.406
1014.202, 1767.654
1015.311, 1655.139
1016.420, 1521.133
1017.528, 1697.107
1018.637, 1850.975
1019.745, 2047.922
1020.854, 1907.053
1021.962, 1835.748
1023.070, 1841.555
1024.177, 2114.242
1025.285, 1962.705
1026.392, 1981.381
1027.500, 2089.730
1028.607, 2016.275
1029.714, 2141.648
1030.821, 1997.486
1031.927, 2070.014
1033.034, 2277.990
1034.140, 2280.047
1035.246, 2234.152
1036.352, 2221.582
1037.458, 2137.023
1038.564, 2249.938
1039.670, 2243.953
1040.775, 2208.807
1041.880, 2146.414
1042.986, 2064.379
1044.090, 2436.367
1045.195, 2385.102
1046.300, 2345.105
1047.404, 2186.219
1048.509, 2137.463
1049.613, 2257.432
1050.717, 2327.248
1051.821, 2394.252
1052.925, 2421.816
1054.028, 2230.680
1055.132, 2398.748
1056.235, 2346.582
1057.338, 2269.486
1058.441, 2482.441
1059.544, 2498.453
1060.647, 2348.590
1061.749, 2532.881
1062.851, 2611.109
1063.954, 2512.029
1065.056, 2498.201
1066.158, 2554.129
1067.259, 2531.258
1068.361, 2666.498
1069.462, 2632.072
1070.564, 2651.668
1071.665, 2788.297
1072.766, 2662.469
1073.867, 2863.270
1074.967, 3003.543
1076.068, 3087.129
1077.168, 2944.086
1078.268, 3093.969
1079.368, 3126.459
1080.468, 3154.309
1081.568, 3345.559
1082.668, 3235.719
1083.767, 3424.562
1084.866, 3494.279
1085.966, 3618.629
1087.065, 3624.539
1088.163, 3667.270
1089.262, 3828.512
1090.361, 3926.807
1091.459, 3919.527
1092.557, 4047.924
1093.655, 3934.303
1094.753, 4023.238
1095.851, 4122.432
1096.949, 4081.533
1098.046, 4161.363
1099.143, 4095.246
1100.241, 4249.916
1101.338, 4156.787
1102.434, 4533.641
1103.531, 4317.512
1104.628, 4515.086
1105.724, 4530.758
1106.820, 4491.574
1107.916, 4752.389
1109.012, 4511.406
1110.108, 4590.785
1111.204, 4917.547
1112.299, 4696.367
1113.395, 4576.098
1114.490, 4667.342
1115.585, 4630.656
1116.680, 4888.633
1117.775, 4646.467
1118.869, 5020.785
1119.964, 4858.777
1121.058, 5145.461
1122.152, 5034.070
1123.246, 4799.254
1124.340, 5008.443
1125.434, 4578.424
1126.527, 4890.793
1127.620, 4605.723
1128.714, 4401.271
1129.807, 4632.447
1130.900, 4540.510
1131.992, 4379.656
1133.085, 4461.658
1134.178, 4541.010
1135.270, 4335.125
1136.362, 4445.918
1137.454, 4332.656
1138.546, 4275.797
1139.638, 4169.279
1140.729, 4077.033
1141.821, 4274.424
1142.912, 3882.318
1144.003, 4090.732
1145.094, 4235.729
1146.185, 4032.537
1147.276, 4048.613
1148.366, 3934.172
1149.456, 3581.088
1150.547, 3881.605
1151.637, 4017.449
1152.727, 3816.010
1153.816, 3457.359
1154.906, 3870.607
1155.995, 3642.043
1157.085, 3743.244
1158.174, 3688.098
1159.263, 3538.895
1160.352, 3577.734
1161.441, 3478.217
1162.529, 3310.496
1163.618, 3402.188
1164.706, 3275.598
1165.794, 3303.551
1166.882, 3190.475
1167.970, 3226.402
1169.058, 2983.357
1170.145, 2941.312
1171.232, 2958.273
1172.320, 2828.885
1173.407, 2839.234
1174.494, 2707.277
1175.580, 2637.359
1176.667, 2535.443
1177.754, 2639.549
1178.840, 2528.686
1179.926, 2427.830
1181.012, 2254.994
1182.098, 2325.156
1183.184, 2256.318
1184.269, 2050.480
1185.355, 2064.645
1186.440, 1963.820
1187.525, 1796.994
1188.610, 1753.195
1189.695, 1662.635
1190.780, 1534.594
1191.864, 1534.781
1192.949, 1430.971
1194.033, 1335.154
1195.117, 1329.334
1196.201, 1175.510
1197.285, 1175.682
1198.369, 1001.852
1199.452, 1021.018
1200.536, 949.1816
1201.619, 754.3418
1202.702, 663.4961
1203.785, 809.6445
1204.868, 878.7891
1205.950, 684.9297
1207.033, 597.0645
1208.115, 468.1914
1209.197, 624.3125
1210.279, 396.4297
1211.361, 252.5371
1212.443, 464.6406
1213.525, 426.7324
1214.606, 379.8184
1215.687, 300.8926
1216.769, 248.9609
1217.850, 394.0215
1218.930, 229.0898
1220.011, 48.86719
1221.092, 331.1387
1222.172, 79.31836
1223.252, 92.29688
1224.333, 20.26758
1225.413, 67.77930
1226.492, 223.1289
1227.572, 47.02539
1228.652, 35.90430
1229.731, 151.2285
1230.810, 41.56250
1231.889, 47.33594
1232.968, 87.90234
1234.047, 50.20703
1235.126, 51.00000
1236.204, 52.39062
1237.283, 83.33203
1238.361, 16.17188
1239.439, 170.3535
1240.517, 80.90430
1241.595, 31.63672
1242.673, 91.78125
1243.750, 116.8145
1244.827, 69.34570
1245.905, 36.91211
1246.982, 91.84766
1248.059, 98.78516
1249.135, 36.70117
1250.212, 112.2031
1251.288, 130.7168
1252.365, 77.63281
1253.441, 7.416016
1254.517, 24.99609
1255.593, 62.24414
1256.669, 63.51172
1257.744, 111.3711
1258.820, 11.67578
1259.895, 197.8223
1260.970, 20.06445
1262.045, 20.23438
1263.120, 333.0430
1264.195, 31.69727
1265.270, 111.2578
1266.344, 3.208984
1267.418, 130.4648
1268.492, 193.9473
1269.566, 132.3438
1270.640, 300.2266
1271.714, 139.3418
1272.788, 229.2578
1273.861, 94.77539
1274.934, 143.6953
1276.007, 98.88867
1277.080, 227.1309
1278.153, 33.86328
1279.226, 367.3789
1280.299, 174.4512
1281.371, 258.0605
1282.443, 63.09180
1283.515, 98.24609
1284.587, 63.36719
1285.659, 131.2539
1286.731, 226.1152
1287.802, 290.2188
1288.874, 343.5371
1289.945, 303.3359
1291.016, 332.7656
1292.087, 187.5195
1293.158, 246.9160
1294.229, 249.6250
1295.299, 340.2832
1296.370, 286.0469
1297.440, 436.1035
1298.510, 375.0957
1299.580, 379.8008
1300.650, 556.6406
1301.720, 400.1797
1302.789, 489.8105
1303.859, 649.8086
1304.928, 467.3262
1305.997, 434.2109
1307.066, 564.9023
1308.135, 635.4668
1309.203, 649.1406
1310.272, 435.6328
1311.340, 515.4160
1312.409, 477.6289
1313.477, 434.9648
1314.545, 555.9512
1315.612, 375.3164
1316.680, 493.6621
1317.748, 492.6348
1318.815, 546.2012
1319.882, 481.4492
1320.949, 453.2246
1322.016, 543.2871
1323.083, 567.8184
1324.150, 489.3691
1325.216, 546.2539
1326.283, 361.2637
1327.349, 388.4824
1328.415, 507.2500
1329.481, 434.6074
1330.547, 493.5430
1331.613, 502.3379
1332.678, 392.6055
1333.744, 468.3984
1334.809, 342.1660
1335.874, 413.9102
1336.939, 476.6309
1338.004, 436.3281
1339.068, 466.9941
1340.133, 509.6387
1341.197, 496.2539
1342.262, 484.0332
1343.326, 367.4082
1344.390, 405.9531
1345.453, 346.4668
1346.517, 291.9922
1347.581, 298.3398
1348.644, 310.4785
1349.707, 252.4551
1350.770, 403.6602
1351.833, 375.7461
1352.896, 413.2246
1353.959, 318.6816
1355.022, 520.9609
1356.084, 567.9082
1357.146, 598.7070
1358.208, 425.0957
1359.270, 563.6484
1360.332, 347.0039
1361.394, 446.5000
1362.455, 157.2539
1363.517, 351.3438
1364.578, 168.5957
1365.639, 329.8535
1366.700, 117.0605
1367.761, 263.8770
1368.822, 377.4102
1369.883, 329.7305
1370.943, 282.1270
1372.003, 239.9863
1373.063, 303.3203
1374.123, 287.5195
1375.183, 185.0508
1376.243, 323.8613
1377.303, 240.8965
1378.362, 263.1973
1379.421, 188.9219
1380.481, 151.6797
1381.540, 123.4180
1382.598, 115.6230
1383.657, 371.1816
1384.716, 48.12305
1385.774, 346.4297
1386.833, 306.0957
1387.891, 172.8555
1388.949, 212.6211
1390.007, 91.31641
1391.065, 236.7422
1392.122, 331.3887
1393.180, 158.6230
1394.237, 66.60742
1395.294, 332.1719
1396.351, 388.3926
1397.408, 14.32812
1398.465, 231.6562
1399.522, 157.3594
1400.578, 20.41406
1401.635, 72.17188
1402.691, 127.0723
1403.747, 224.3867
1404.803, 50.36133
1405.859, 202.9707
1406.914, 261.9551
1407.970, 106.5820
1409.025, 456.4766
1410.081, 6.003906
1411.136, 66.23047
1412.191, 366.2637
1413.245, 357.5605
1414.300, 56.23242
1415.355, 338.6582
1416.409, 243.1895
1417.463, 79.51758
1418.518, 272.8027
1419.572, 82.77344
1420.625, 232.9414
1421.679, 278.0762
1422.733, 210.1953
1423.786, 134.8145
1424.840, 146.2832
1425.893, 209.2305
1426.946, 171.1211
1427.999, 317.9570
1429.051, 482.6992
1430.104, 480.3945
1431.157, 605.3848
1432.209, 473.6055
1433.261, 711.9961
1434.313, 574.3125
1435.365, 565.9648
1436.417, 562.1035
1437.468, 434.2812
1438.520, 699.8906
1439.571, 749.6836
1440.623, 768.8789
1441.674, 617.0352
1442.725, 603.1504
1443.775, 659.2266
1444.826, 498.2617
1445.877, 745.2559
1446.927, 707.2070
1447.977, 550.7676
1449.028, 455.9863
1450.078, 505.8164
1451.127, 441.6016
1452.177, 521.2832
1453.227, 567.0469
1454.276, 672.7051
1455.325, 546.3223
1456.375, 544.8730
1457.424, 439.4102
1458.473, 488.7031
1459.521, 605.1699
1460.570, 456.6367
1461.618, 415.0645
1462.667, 517.5039
1463.715, 365.9395
1464.763, 434.7285
1465.811, 527.6289
1466.859, 320.1543
1467.906, 728.6387
1468.954, 338.9492
1470.001, 447.5293
1471.049, 307.6797
1472.096, 232.1641
1473.143, 77.73438
1474.190, 436.7578
1475.236, 310.0703
1476.283, 207.8418
1477.329, 366.1816
1478.376, 79.84766
1479.422, 370.9805
1480.468, 355.5508
1481.514, 199.0938
1482.559, 216.2852
1483.605, 37.99219
1484.650, 381.0625
1485.696, 59.07422
1486.741, 328.7793
1487.786, 373.6699
1488.831, 121.1738
1489.876, 64.54102
1490.920, 62.15625
1491.965, 298.6367
1493.009, 301.0918
1494.054, 206.4805
1495.098, 308.6055
1496.142, 303.4375
1497.185, 352.9824
1498.229, 101.5449
1499.273, 212.1270
1500.316, 18.27148
1501.359, 215.3535
1502.403, 235.0371
1503.446, 244.7227
1504.489, 154.3828
1505.531, 292.0234
1506.574, 334.6426
1507.616, 180.2383
1508.659, 57.81641
1509.701, 307.3848
1510.743, 268.1094
1511.785, 317.4883
1512.827, 308.0273
1513.868, 228.5645
1514.910, 194.9023
1515.951, 290.6543
1516.993, 341.2148
1518.034, 50.76562
1519.075, 347.2754
1520.116, 291.8320
1521.156, 476.9805
1522.197, 713.3945
1523.237, 253.3730
1524.278, 329.5352
1525.318, 245.6953
1526.358, 564.4609
1527.398, 351.0957
1528.438, 390.0137
1529.477, 265.3027
1530.517, 379.0488
1531.556, 299.6270
1532.596, 399.8379
1533.635, 333.4805
1534.674, 165.0234
1535.712, 550.0078
1536.751, 498.0059
1537.790, 340.6016
1538.828, 394.0918
1539.866, 263.1309
1540.905, 25.96484
1541.943, 241.2578
1542.981, 201.8262
1544.018, 311.5801
1545.056, 413.4336
1546.094, 355.9707
1547.131, 251.8887
1548.168, 71.81641
1549.205, 0.5468750
1550.242, 250.4043
1551.279, 535.5664
1552.316, 371.1855
1553.352, 632.0898
1554.389, 610.6660
1555.425, 712.1602
1556.461, 593.3984
1557.497, 267.3418
1558.533, 377.0215
1559.569, 3.173828
1560.605, 137.9570
1561.640, 106.1602
1562.675, 47.25195
1563.711, 0.0000000E+00
##END=



