##NAMES=Heulandite-Ca
##RRUFFID=R050017
##IDEAL CHEMISTRY=(Ca,Na,K)_5_(Si_27_Al_9_)O_72_&#183;26H_2_O
##LOCALITY=Poona, Maharashtra State, India
##OWNER=RRUFF
##SOURCE=Eugene Schlepp
##DESCRIPTION=Single crystals
##STATUS=The identification of this mineral has been confirmed by X-ray diffraction and chemical analysis
##URL=rruff.info/R050017
##MEASURED CHEMISTRY=(Ca_.70_Na_.22_K_.02_[box]_0.06_)_5_(Si_0.77_Al_0.23_)_36_O_72_Â·24H_2_O
##PIN_ID=L00164
##ORIENTATION=Laser parallel to (1 0 1). Fiducial mark perpendicular to laser is parallel to b [0 1 0]
77.004, 0.000
78.401, 37.018
79.798, 454.674
81.195, 537.207
82.592, 914.244
83.988, 1670.436
85.384, 1329.189
86.780, 2640.930
88.175, 2869.941
89.571, 4170.264
90.966, 4646.520
92.361, 5055.215
93.755, 6795.139
95.150, 5807.412
96.544, 6902.385
97.938, 6647.771
99.332, 7189.738
100.726, 6805.207
102.119, 6822.129
103.512, 6949.363
104.905, 6057.303
106.298, 6627.121
107.690, 5530.088
109.082, 5658.867
110.474, 5527.695
111.866, 5260.902
113.258, 5555.947
114.649, 4739.529
116.040, 5777.166
117.431, 5201.551
118.822, 5717.904
120.212, 5695.275
121.603, 6423.881
122.993, 6504.406
124.382, 6277.750
125.772, 6774.920
127.161, 6636.611
128.550, 7503.419
129.939, 7052.176
131.328, 7655.043
132.716, 8092.514
134.105, 7749.535
135.493, 8702.989
136.880, 8395.006
138.268, 9238.149
139.655, 9061.636
141.042, 9361.262
142.429, 9959.266
143.816, 9375.283
145.202, 10454.291
146.589, 10064.220
147.975, 10471.091
149.360, 10405.987
150.746, 10486.674
152.131, 10460.301
153.516, 10054.135
154.901, 10571.011
156.286, 9416.628
157.670, 9546.750
159.055, 9048.170
160.439, 8472.100
161.822, 8217.294
163.206, 7426.354
164.589, 7401.697
165.972, 6505.080
167.355, 6479.002
168.738, 5824.578
170.121, 5251.545
171.503, 5141.689
172.885, 4376.524
174.267, 4614.535
175.648, 3611.121
177.029, 3440.703
178.411, 3061.374
179.792, 2583.095
181.172, 2575.899
182.553, 1939.588
183.933, 2143.666
185.313, 1546.600
186.693, 1549.881
188.072, 1392.012
189.452, 1042.977
190.831, 1013.466
192.210, 692.307
193.588, 859.120
194.967, 483.812
196.345, 586.944
197.723, 458.906
199.101, 209.796
200.479, 209.369
201.856, 44.503
203.233, 110.196
204.610, 124.051
205.987, 140.579
207.363, 133.389
208.740, 399.475
210.116, 251.836
211.492, 615.473
212.867, 399.391
214.243, 537.623
215.618, 440.201
216.993, 354.163
218.367, 620.551
219.742, 434.400
221.116, 679.753
222.490, 499.696
223.864, 456.326
225.238, 548.809
226.611, 361.308
227.985, 587.993
229.357, 251.838
230.730, 335.771
232.103, 148.864
233.475, 177.071
234.847, 23.707
236.219, 282.539
237.591, 129.688
238.962, 458.315
240.334, 431.707
241.705, 770.955
243.075, 983.387
244.446, 1052.182
245.816, 1575.993
247.186, 1451.041
248.556, 2006.921
249.926, 1913.337
251.296, 2120.078
252.665, 2246.989
254.034, 2163.932
255.403, 2420.801
256.771, 2207.514
258.140, 2474.010
259.508, 2100.232
260.876, 2086.115
262.244, 2241.598
263.611, 1866.632
264.978, 2141.177
266.346, 1715.219
267.712, 1738.739
269.079, 1671.735
270.446, 1408.199
271.812, 1592.115
273.178, 1746.470
274.544, 1535.238
275.909, 1423.368
277.275, 1426.796
278.640, 1406.466
280.005, 1202.341
281.369, 1495.396
282.734, 1146.649
284.098, 1394.128
285.462, 1200.874
286.826, 1197.921
288.190, 1376.301
289.553, 1034.049
290.916, 1324.183
292.279, 1147.731
293.642, 1233.712
295.004, 1153.118
296.367, 1163.928
297.729, 1370.123
299.091, 1183.665
300.452, 1500.521
301.814, 1242.661
303.175, 1476.027
304.536, 1507.524
305.897, 1435.040
307.257, 1767.444
308.618, 1459.548
309.978, 1770.163
311.338, 1750.376
312.698, 1691.245
314.057, 2019.733
315.416, 1747.993
316.776, 2077.091
318.134, 1945.117
319.493, 1968.308
320.851, 2085.879
322.210, 1957.084
323.568, 2353.010
324.925, 2090.732
326.283, 2483.290
327.640, 2423.713
328.998, 2505.015
330.354, 2751.204
331.711, 2591.280
333.068, 2961.233
334.424, 2745.059
335.780, 3053.742
337.136, 3187.266
338.491, 3100.614
339.847, 3458.798
341.202, 3220.800
342.557, 3577.625
343.912, 3492.272
345.266, 3644.725
346.621, 3880.963
347.975, 3797.868
349.329, 4262.113
350.682, 4006.212
352.036, 4459.482
353.389, 4530.558
354.742, 4711.232
356.095, 5189.093
357.448, 4978.233
358.800, 5463.290
360.152, 5489.558
361.504, 5764.116
362.856, 6314.145
364.208, 6144.617
365.559, 6908.568
366.910, 6816.260
368.261, 7310.366
369.612, 7773.706
370.962, 7787.825
372.313, 8364.374
373.663, 8131.136
375.012, 8904.692
376.362, 9112.278
377.712, 9311.016
379.061, 9775.461
380.410, 9645.970
381.758, 10709.104
383.107, 10625.241
384.455, 11485.034
385.804, 11816.153
387.151, 12402.860
388.499, 13680.901
389.847, 13642.636
391.194, 15149.417
392.541, 15807.516
393.888, 16725.836
395.235, 18359.781
396.581, 18366.467
397.927, 20632.363
399.273, 20606.152
400.619, 21925.756
401.965, 22872.320
403.310, 22872.084
404.655, 24141.896
406.000, 22902.895
407.345, 23596.939
408.689, 22668.660
410.034, 21891.725
411.378, 21855.006
412.722, 20127.709
414.065, 19771.430
415.409, 18184.561
416.752, 17167.480
418.095, 16299.523
419.438, 14751.673
420.781, 14163.676
422.123, 12374.228
423.465, 11664.473
424.807, 10525.133
426.149, 9493.982
427.490, 8963.744
428.832, 7541.492
430.173, 7249.105
431.514, 6356.214
432.855, 5841.992
434.195, 5428.318
435.535, 4635.072
436.875, 4740.726
438.215, 4145.699
439.555, 3940.479
440.894, 3764.972
442.234, 3280.413
443.573, 3432.886
444.911, 3095.715
446.250, 3067.394
447.588, 2954.088
448.927, 2891.596
450.265, 3170.680
451.602, 2770.789
452.940, 3391.328
454.277, 3216.970
455.614, 3514.817
456.951, 4046.178
458.288, 4057.433
459.624, 5019.410
460.961, 5500.466
462.297, 6192.711
463.633, 6343.745
464.968, 6125.629
466.304, 7087.525
467.639, 6988.999
468.974, 7651.759
470.309, 8073.133
471.643, 8055.717
472.978, 9358.143
474.312, 9380.255
475.646, 11203.682
476.980, 12025.925
478.313, 13329.504
479.647, 15442.497
480.980, 16335.562
482.313, 18479.092
483.645, 18562.068
484.978, 19686.678
486.310, 19450.172
487.642, 18015.062
488.974, 18049.906
490.306, 15504.696
491.637, 14279.439
492.968, 12544.236
494.299, 10438.879
495.630, 9643.913
496.961, 7498.632
498.291, 6543.144
499.622, 5398.769
500.952, 4733.696
502.281, 4929.938
503.611, 3707.735
504.940, 4202.622
506.269, 2292.353
507.598, 1916.207
508.927, 1705.948
510.256, 1242.890
511.584, 1325.091
512.912, 1013.291
514.240, 926.070
515.568, 855.345
516.895, 606.700
518.222, 740.081
519.549, 583.224
520.876, 519.190
522.203, 440.098
523.529, 315.022
524.856, 498.863
526.182, 256.812
527.508, 299.604
528.833, 229.136
530.159, 144.754
531.484, 344.813
532.809, 111.277
534.134, 195.695
535.458, 78.909
536.782, 115.904
538.107, 207.667
539.431, 46.510
540.754, 199.786
542.078, 25.542
543.401, 108.130
544.724, 101.029
546.047, 93.448
547.370, 112.654
548.692, 60.942
550.015, 30.072
551.337, 35.353
552.659, 184.063
553.980, 38.158
555.302, 137.604
556.623, 29.216
557.944, 44.540
559.265, 256.709
560.586, 48.780
561.906, 143.453
563.226, 54.454
564.546, 43.527
565.866, 124.949
567.186, 84.828
568.505, 65.317
569.824, 31.734
571.143, 16.496
572.462, 14.299
573.781, 130.541
575.099, 35.882
576.417, 288.778
577.735, 141.281
579.053, 206.991
580.370, 385.652
581.688, 336.528
583.005, 484.800
584.322, 830.908
585.639, 664.877
586.955, 746.488
588.271, 796.359
589.588, 1104.167
590.903, 1003.590
592.219, 1303.485
593.535, 1538.909
594.850, 1589.454
596.165, 2004.048
597.480, 1957.414
598.794, 2323.334
600.109, 2715.636
601.423, 2699.182
602.737, 3198.827
604.051, 3185.121
605.365, 3596.740
606.678, 3776.059
607.991, 3767.388
609.304, 4067.950
610.617, 3628.319
611.930, 3875.705
613.242, 3776.126
614.554, 3465.575
615.866, 3607.058
617.178, 2953.560
618.490, 3072.075
619.801, 2775.605
621.112, 2595.145
622.423, 2499.697
623.734, 2086.266
625.045, 2059.843
626.355, 1789.438
627.665, 1545.038
628.975, 1540.649
630.285, 1091.295
631.594, 1198.946
632.904, 867.609
634.213, 839.283
635.522, 850.961
636.831, 578.665
638.139, 760.370
639.447, 533.077
640.756, 486.784
642.063, 572.492
643.371, 357.197
644.679, 538.902
645.986, 324.599
647.293, 294.290
648.600, 447.972
649.907, 199.648
651.213, 341.316
652.519, 118.976
653.825, 182.625
655.131, 220.265
656.437, 6.897
657.743, 98.510
659.048, 9.889
660.353, 46.313
661.658, 87.222
662.962, 105.255
664.267, 64.202
665.571, 65.354
666.875, 88.959
668.179, 32.625
669.483, 113.327
670.786, 50.898
672.089, 93.890
673.392, 94.743
674.695, 34.467
675.998, 108.204
677.300, 2.161
678.602, 62.455
679.904, 41.549
681.206, 54.071
682.508, 58.720
683.809, 90.691
685.111, 3.932
686.412, 3.012
687.712, 104.824
689.013, 50.796
690.313, 92.309
691.614, 25.550
692.914, 49.132
694.213, 154.024
695.513, 25.068
696.812, 113.513
698.112, 75.731
699.411, 115.717
700.709, 119.166
702.008, 10.741
703.306, 154.673
704.604, 22.127
705.902, 52.517
707.200, 136.687
708.498, 43.062
709.795, 59.706
711.092, 78.909
712.389, 55.441
713.686, 32.677
714.983, 17.968
716.279, 17.050
717.575, 6.233
718.871, 50.033
720.167, 132.216
721.463, 22.617
722.758, 146.174
724.053, 121.279
725.348, 62.735
726.643, 123.392
727.937, 30.854
729.232, 94.491
730.526, 23.910
731.820, 84.439
733.114, 172.297
734.407, 58.670
735.701, 141.182
736.994, 84.847
738.287, 66.293
739.579, 180.966
740.872, 57.873
742.164, 139.937
743.456, 75.534
744.748, 95.595
746.040, 186.120
747.332, 72.459
748.623, 185.044
749.914, 154.432
751.205, 147.202
752.496, 203.123
753.787, 75.679
755.077, 227.683
756.367, 170.550
757.657, 147.289
758.947, 330.989
760.236, 156.742
761.526, 258.709
762.815, 282.688
764.104, 184.866
765.393, 359.358
766.681, 295.638
767.969, 433.969
769.258, 439.125
770.546, 304.822
771.833, 444.612
773.121, 349.881
774.408, 407.672
775.695, 494.308
776.982, 421.833
778.269, 565.550
779.556, 471.708
780.842, 490.676
782.128, 492.945
783.414, 475.066
784.700, 656.035
785.986, 513.019
787.271, 643.150
788.556, 624.091
789.841, 543.995
791.126, 628.483
792.411, 523.281
793.695, 585.121
794.979, 690.067
796.263, 550.696
797.547, 628.899
798.831, 545.559
800.114, 581.055
801.397, 567.859
802.680, 522.208
803.963, 534.698
805.246, 479.918
806.528, 535.139
807.810, 506.120
809.092, 449.083
810.374, 545.162
811.656, 554.204
812.937, 500.689
814.218, 665.109
815.499, 450.499
816.780, 657.812
818.061, 596.329
819.341, 497.461
820.621, 562.727
821.901, 356.623
823.181, 435.191
824.461, 361.763
825.740, 272.632
827.019, 317.956
828.299, 190.156
829.577, 181.282
830.856, 210.617
832.134, 69.092
833.413, 187.597
834.691, 122.076
835.969, 128.630
837.246, 104.096
838.524, 7.277
839.801, 193.658
841.078, 125.575
842.355, 65.113
843.632, 173.382
844.908, 84.791
846.185, 124.592
847.461, 87.745
848.736, 34.298
850.012, 122.911
851.288, 26.210
852.563, 69.299
853.838, 179.524
855.113, 17.728
856.388, 234.460
857.662, 165.746
858.937, 230.902
860.211, 239.708
861.485, 120.838
862.758, 335.485
864.032, 124.285
865.305, 41.130
866.578, 162.871
867.851, 2.665
869.124, 157.606
870.397, 51.728
871.669, 12.408
872.941, 161.355
874.213, 7.678
875.485, 105.566
876.757, 95.537
878.028, 39.369
879.299, 137.933
880.570, 32.282
881.841, 47.978
883.112, 7.471
884.382, 98.499
885.652, 75.818
886.922, 100.536
888.192, 15.195
889.462, 99.121
890.731, 20.164
892.000, 78.083
893.269, 29.555
894.538, 30.215
895.807, 68.285
897.075, 34.951
898.344, 65.816
899.612, 100.925
900.880, 46.524
902.147, 70.169
903.415, 17.575
904.682, 20.197
905.949, 15.840
907.216, 7.474
908.483, 146.470
909.749, 278.143
911.016, 363.688
912.282, 144.560
913.548, 28.918
914.814, 70.865
916.079, 0.386
917.344, 23.899
918.610, 4.250
919.875, 72.648
921.139, 38.432
922.404, 64.665
923.668, 0.278
924.932, 13.064
926.196, 37.371
927.460, 51.903
928.724, 67.829
929.987, 4.901
931.251, 134.269
932.514, 11.588
933.776, 86.510
935.039, 110.579
936.301, 97.379
937.564, 121.576
938.826, 3.497
940.088, 18.606
941.349, 107.239
942.611, 79.942
943.872, 109.802
945.133, 88.521
946.394, 51.213
947.655, 115.879
948.915, 9.521
950.176, 85.132
951.436, 112.720
952.696, 28.283
953.955, 217.820
955.215, 79.334
956.474, 106.824
957.734, 197.292
958.993, 60.737
960.251, 153.160
961.510, 176.564
962.768, 74.947
964.027, 205.314
965.285, 30.664
966.542, 209.998
967.800, 188.329
969.057, 62.652
970.315, 246.983
971.572, 80.301
972.829, 194.619
974.085, 270.943
975.342, 84.262
976.598, 289.594
977.854, 203.910
979.110, 208.235
980.366, 269.377
981.621, 231.489
982.877, 225.762
984.132, 383.335
985.387, 273.530
986.641, 450.463
987.896, 351.411
989.150, 323.277
990.404, 419.357
991.658, 360.586
992.912, 530.530
994.166, 430.174
995.419, 517.297
996.672, 620.037
997.925, 450.937
999.178, 686.675
1000.431, 787.633
1001.683, 745.500
1002.936, 817.221
1004.188, 698.830
1005.440, 689.918
1006.691, 670.312
1007.943, 673.512
1009.194, 772.534
1010.445, 709.718
1011.696, 714.892
1012.947, 825.707
1014.197, 657.862
1015.448, 913.690
1016.698, 859.822
1017.948, 833.797
1019.198, 1007.229
1020.447, 823.190
1021.697, 978.560
1022.946, 983.896
1024.195, 850.896
1025.444, 1041.264
1026.692, 888.037
1027.941, 900.760
1029.189, 911.013
1030.437, 884.900
1031.685, 959.890
1032.933, 981.272
1034.180, 787.719
1035.427, 944.627
1036.675, 896.236
1037.922, 889.021
1039.168, 982.211
1040.415, 909.964
1041.661, 1000.894
1042.907, 893.581
1044.153, 824.994
1045.399, 942.221
1046.645, 860.879
1047.890, 974.031
1049.135, 960.700
1050.380, 915.521
1051.625, 1038.054
1052.870, 862.748
1054.114, 878.020
1055.359, 967.100
1056.603, 794.521
1057.847, 878.451
1059.090, 905.487
1060.334, 839.629
1061.577, 1030.770
1062.820, 768.827
1064.063, 990.631
1065.306, 1047.383
1066.549, 882.910
1067.791, 1131.082
1069.033, 1034.430
1070.275, 1094.692
1071.517, 1294.090
1072.759, 1112.928
1074.000, 1289.636
1075.241, 1322.825
1076.482, 1338.458
1077.723, 1521.208
1078.964, 1517.037
1080.204, 1506.642
1081.445, 1841.767
1082.685, 1570.062
1083.925, 1873.045
1085.164, 1923.136
1086.404, 2279.359
1087.643, 2212.528
1088.883, 1984.513
1090.122, 2089.652
1091.360, 2317.789
1092.599, 2245.302
1093.837, 2380.466
1095.076, 2397.550
1096.314, 2358.639
1097.552, 2723.857
1098.789, 2414.461
1100.027, 2620.791
1101.264, 2834.029
1102.501, 2457.918
1103.738, 2828.226
1104.975, 2729.353
1106.211, 3312.606
1107.448, 2827.947
1108.684, 2613.028
1109.920, 2784.868
1111.156, 2772.201
1112.391, 2542.374
1113.627, 2773.093
1114.862, 2681.114
1116.097, 2632.496
1117.332, 2825.139
1118.566, 2549.325
1119.801, 2757.486
1121.035, 2815.771
1122.269, 2715.161
1123.503, 2966.557
1124.737, 2607.890
1125.971, 2603.294
1127.204, 2831.705
1128.437, 2401.120
1129.670, 2732.565
1130.903, 2638.992
1132.136, 2470.424
1133.368, 2873.068
1134.600, 2743.515
1135.832, 2894.104
1137.064, 2822.633
1138.296, 2464.097
1139.527, 2858.677
1140.759, 2679.164
1141.990, 2598.702
1143.221, 2867.518
1144.452, 2556.021
1145.682, 2817.820
1146.912, 2826.599
1148.143, 2465.121
1149.373, 2906.891
1150.602, 2642.493
1151.832, 2587.040
1153.062, 2787.913
1154.291, 2408.471
1155.520, 2645.068
1156.749, 2577.062
1157.978, 2305.639
1159.206, 2486.386
1160.434, 2354.967
1161.663, 2223.553
1162.891, 2481.140
1164.118, 2059.000
1165.346, 2234.599
1166.573, 2183.385
1167.801, 1848.001
1169.028, 2141.739
1170.254, 1846.704
1171.481, 1723.340
1172.708, 2002.061
1173.934, 1639.839
1175.160, 1774.496
1176.386, 1695.482
1177.612, 1523.148
1178.837, 1692.817
1180.063, 1475.506
1181.288, 1377.199
1182.513, 1482.504
1183.738, 1194.456
1184.962, 1343.202
1186.187, 1201.260
1187.411, 1036.268
1188.635, 1140.365
1189.859, 952.014
1191.083, 837.945
1192.306, 1019.027
1193.529, 756.455
1194.753, 768.287
1195.976, 697.487
1197.198, 603.577
1198.421, 685.618
1199.643, 548.950
1200.866, 489.807
1202.088, 629.812
1203.310, 419.980
1204.531, 386.876
1205.753, 522.386
1206.974, 226.383
1208.195, 413.596
1209.416, 250.041
1210.637, 254.213
1211.857, 382.391
1213.078, 195.612
1214.298, 238.789
1215.518, 213.107
1216.738, 185.917
1217.958, 221.064
1219.177, 144.818
1220.396, 188.119
1221.615, 221.120
1222.834, 32.298
1224.053, 185.300
1225.272, 87.336
1226.490, 97.741
1227.708, 231.012
1228.926, 65.360
1230.144, 70.103
1231.362, 171.202
1232.579, 72.906
1233.796, 147.076
1235.013, 169.230
1236.230, 45.511
1237.447, 165.564
1238.664, 23.622
1239.880, 51.922
1241.096, 191.012
1242.312, 4.563
1243.528, 62.827
1244.744, 132.930
1245.959, 7.692
1247.174, 112.417
1248.389, 78.529
1249.604, 77.005
1250.819, 138.109
1252.033, 63.346
1253.248, 25.672
1254.462, 107.786
1255.676, 18.696
1256.890, 144.525
1258.103, 68.643
1259.317, 11.256
1260.530, 127.866
1261.743, 36.990
1262.956, 54.701
1264.169, 164.413
1265.381, 24.274
1266.594, 162.509
1267.806, 105.605
1269.018, 80.835
1270.229, 226.930
1271.441, 124.027
1272.652, 153.680
1273.864, 238.759
1275.075, 48.843
1276.286, 146.487
1277.496, 95.565
1278.707, 9.826
1279.917, 202.940
1281.127, 28.018
1282.337, 45.202
1283.547, 168.246
1284.757, 41.287
1285.966, 95.288
1287.175, 56.262
1288.385, 0.802
1289.593, 166.120
1290.802, 2.038
1292.011, 8.928
1293.219, 209.981
1294.427, 16.821
1295.635, 59.644
1296.843, 167.442
1298.051, 54.767
1299.258, 102.997
1300.465, 72.716
1301.672, 2.579
1302.879, 172.103
1304.086, 42.765
1305.292, 93.329
1306.499, 147.846
1307.705, 45.648
1308.911, 22.826
1310.117, 138.288
1311.322, 44.738
1312.528, 207.176
1313.733, 62.591
1314.938, 9.991
1316.143, 152.378
1317.348, 73.751
1318.552, 64.105
1319.757, 142.417
1320.961, 17.713
1322.165, 198.991
1323.369, 140.245
1324.572, 590.480
1325.776, 231.699
1326.979, 0.107
1328.182, 51.060
1329.385, 425.203
1330.588, 57.674
1331.790, 53.408
1332.993, 33.467
1334.195, 81.496
1335.397, 76.496
1336.599, 39.537
1337.801, 3.395
1339.002, 144.303
1340.203, 71.810
1341.404, 5.967
1342.605, 64.851
1343.806, 11.650
1345.007, 119.430
1346.207, 79.192
1347.407, 37.065
1348.607, 110.646
1349.807, 9.661
1351.007, 48.993
1352.207, 38.641
1353.406, 7.744
1354.605, 48.848
1355.804, 51.453
1357.003, 18.988
1358.201, 54.546
1359.400, 27.973
1360.598, 5.479
1361.796, 75.049
1362.994, 56.472
1364.192, 47.976
1365.389, 121.414
1366.587, 1.883
1367.784, 142.300
1368.981, 11.181
1370.178, 0.842
1371.374, 61.473
1372.571, 47.112
1373.767, 84.847
1374.963, 104.361
1376.159, 51.733
1377.355, 95.399
1378.550, 97.779
1379.746, 4.765
1380.941, 140.741
1382.136, 180.708
1383.331, 82.511
1384.526, 159.227
1385.720, 57.156
1386.914, 68.074
1388.109, 263.960
1389.303, 10.306
1390.496, 162.188
1391.690, 175.632
1392.883, 55.916
1394.077, 224.834
1395.270, 113.604
1396.463, 94.361
1397.655, 214.104
1398.848, 58.806
1400.040, 125.518
1401.232, 229.974
1402.425, 12.595
1403.616, 174.954
1404.808, 200.552
1405.999, 112.803
1407.191, 205.739
1408.382, 112.044
1409.573, 47.557
1410.764, 269.854
1411.954, 127.794
1413.145, 188.087
1414.335, 270.593
1415.525, 54.684
1416.715, 234.880
1417.905, 162.157
1419.094, 59.113
1420.283, 286.243
1421.473, 123.190
1422.662, 159.598
1423.850, 228.003
1425.039, 144.211
1426.228, 185.179
1427.416, 242.720
1428.604, 212.788
1429.792, 245.992
1430.980, 245.632
1432.167, 199.336
1433.355, 241.523
1434.542, 223.817
1435.729, 105.971
1436.916, 444.305
1438.103, 237.873
1439.289, 318.029
1440.475, 522.465
1441.662, 347.118
1442.848, 476.368
1444.033, 418.571
1445.219, 339.084
1446.405, 505.166
1447.590, 393.850
1448.775, 356.234
1449.960, 548.370
1451.145, 361.418
1452.329, 440.424
1453.514, 611.074
1454.698, 390.682
1455.882, 551.022
1457.066, 489.192
1458.250, 366.808
1459.433, 474.090
1460.616, 488.543
1461.800, 339.843
1462.983, 523.051
1464.165, 397.657
1465.348, 428.334
1466.531, 474.777
1467.713, 211.398
1468.895, 308.362
1470.077, 324.075
1471.259, 239.631
1472.440, 415.372
1473.622, 265.758
1474.803, 274.451
1475.984, 377.304
1477.165, 154.115
1478.346, 270.294
1479.526, 404.130
1480.707, 158.934
1481.887, 225.721
1483.067, 271.558
1484.247, 183.696
1485.426, 170.344
1486.606, 188.958
1487.785, 128.476
1488.964, 260.998
1490.143, 195.437
1491.322, 163.974
1492.501, 234.604
1493.679, 84.315
1494.858, 104.064
1496.036, 211.974
1497.214, 57.003
1498.391, 184.168
1499.569, 233.490
1500.746, 14.007
1501.924, 192.693
1503.101, 46.574
1504.277, 90.613
1505.454, 225.859
1506.631, 173.360
1507.807, 61.150
1508.983, 177.909
1510.159, 49.369
1511.335, 117.803
1512.511, 182.472
1513.686, 45.105
1514.862, 149.959
1516.037, 164.274
1517.212, 0.793
1518.387, 204.981
1519.561, 0.000
##END=



