##NAMES=Heulandite-Ca
##RRUFFID=R040021
##IDEAL CHEMISTRY=(Ca,Na,K)_5_(Si_27_Al_9_)O_72_&#183;26H_2_O
##LOCALITY=Prospect Park, Patterson, Passaic County, New Jersey, USA
##OWNER=RRUFF
##SOURCE=University of Arizona Mineral Museum
##DESCRIPTION=Group of colorless lamellar crystals
##STATUS=The identification of this mineral has been confirmed by X-ray diffraction and chemical analysis
##URL=rruff.info/R040021
##MEASURED CHEMISTRY=Na_0.25_(Na_0.55_K_0.45_)_Σ=1_(Ca_2.42_Na_0.85_Sr_0.73_)_Σ=4.00_(Si_27.60_Al_8.40_)_Σ=36_O_72_·24H_2_O ; H_2_O estimated by difference
##PIN_ID=m00146
##ORIENTATION=Laser parallel to [-1 0 -1]. Fiducial mark perpendicular to laser is parallel to b* (0 1 0)
94.768, 0.000
96.161, 32.865
97.554, 24.229
98.947, 266.812
100.340, 617.148
101.732, 1064.043
103.124, 1339.863
104.516, 1818.945
105.908, 2367.430
107.300, 2593.023
108.691, 3539.838
110.082, 3558.803
111.473, 4240.145
112.864, 5194.576
114.254, 6063.684
115.644, 7124.547
117.034, 8088.518
118.424, 8005.918
119.813, 9120.676
121.203, 9079.123
122.592, 9828.072
123.981, 10802.609
125.369, 11614.965
126.758, 12795.496
128.146, 13692.031
129.534, 15945.207
130.922, 16780.680
132.309, 18497.369
133.696, 19353.904
135.083, 21699.818
136.470, 22018.461
137.857, 23595.135
139.243, 24027.631
140.630, 24471.928
142.016, 24110.254
143.401, 24073.664
144.787, 23624.119
146.172, 22916.051
147.557, 22048.006
148.942, 21284.748
150.327, 20590.830
151.711, 19510.158
153.096, 19304.984
154.480, 18365.473
155.863, 17543.080
157.247, 16924.289
158.630, 16069.574
160.013, 15379.965
161.396, 14737.633
162.779, 14128.990
164.161, 13040.504
165.544, 12253.104
166.926, 11288.504
168.308, 10674.766
169.689, 9759.160
171.070, 9218.680
172.452, 8277.346
173.833, 7471.205
175.213, 6697.293
176.594, 5711.648
177.974, 5282.682
179.354, 4742.652
180.734, 3843.699
182.114, 3264.240
183.493, 2959.625
184.872, 2620.738
186.251, 2286.416
187.630, 1762.951
189.008, 1683.285
190.387, 1359.795
191.765, 1058.459
193.143, 1042.818
194.520, 783.316
195.898, 819.416
197.275, 594.928
198.652, 563.480
200.029, 334.066
201.405, 258.631
202.782, 22.275
204.158, 51.859
205.534, 8.359
206.909, 246.705
208.285, 253.439
209.660, 391.564
211.035, 583.639
212.410, 613.014
213.784, 738.387
215.159, 882.121
216.533, 830.217
217.907, 830.664
219.281, 792.463
220.654, 735.605
222.027, 574.090
223.400, 573.967
224.773, 329.297
226.146, 319.145
227.518, 138.578
228.891, 140.344
230.263, 375.537
231.634, 868.822
233.006, 1151.986
234.377, 1585.861
235.748, 2094.234
237.119, 2365.861
238.490, 3137.578
239.860, 3354.459
241.231, 4014.676
242.601, 4648.504
243.970, 4762.248
245.340, 5180.371
246.709, 5072.211
248.079, 5537.887
249.448, 5218.463
250.816, 5531.989
252.185, 5310.467
253.553, 5332.898
254.921, 5197.260
256.289, 4840.543
257.657, 4720.750
259.024, 4364.875
260.391, 4238.954
261.758, 4098.309
263.125, 3891.733
264.492, 3858.639
265.858, 3422.399
267.224, 3354.605
268.590, 2772.962
269.956, 2809.227
271.321, 2467.231
272.687, 2220.841
274.052, 1951.954
275.416, 1971.461
276.781, 1589.250
278.146, 1286.228
279.510, 1311.339
280.874, 1037.564
282.237, 1166.887
283.601, 722.307
284.964, 572.785
286.327, 624.290
287.690, 552.759
289.053, 406.098
290.416, 468.176
291.778, 415.901
293.140, 478.237
294.502, 454.230
295.863, 436.952
297.225, 463.234
298.586, 327.867
299.947, 455.185
301.308, 441.486
302.668, 390.827
304.029, 618.221
305.389, 569.643
306.749, 567.040
308.108, 785.338
309.468, 909.493
310.827, 792.468
312.186, 788.147
313.545, 1108.269
314.903, 1257.690
316.262, 1295.154
317.620, 1506.398
318.978, 1651.263
320.336, 1952.601
321.693, 1942.596
323.051, 2251.561
324.408, 2431.857
325.765, 2785.852
327.121, 2778.148
328.478, 3226.037
329.834, 3309.640
331.190, 3667.035
332.546, 3777.579
333.902, 3946.312
335.257, 3887.201
336.612, 4088.929
337.967, 3985.501
339.322, 4143.929
340.677, 4306.208
342.031, 4404.340
343.385, 4584.345
344.739, 4572.231
346.093, 4532.969
347.446, 4818.354
348.799, 4866.183
350.153, 5070.436
351.505, 5258.286
352.858, 5612.574
354.210, 5791.201
355.563, 6017.008
356.915, 6493.320
358.267, 6861.142
359.618, 7150.256
360.969, 7822.316
362.321, 8050.379
363.672, 8703.966
365.022, 9134.302
366.373, 9788.296
367.723, 10577.290
369.073, 11104.838
370.423, 11530.091
371.773, 11837.734
373.122, 12572.793
374.471, 13337.804
375.821, 13635.765
377.169, 14494.854
378.518, 14917.238
379.866, 15642.696
381.215, 16420.807
382.563, 17170.730
383.910, 18026.666
385.258, 19163.141
386.605, 20561.316
387.952, 21294.406
389.299, 23407.598
390.646, 24551.938
391.992, 26515.523
393.339, 28622.270
394.685, 30689.654
396.031, 33486.633
397.376, 34832.621
398.722, 37258.023
400.067, 38597.074
401.412, 39795.539
402.757, 40474.547
404.101, 40621.969
405.446, 40243.473
406.790, 39712.844
408.134, 38274.188
409.478, 36738.305
410.821, 34656.891
412.165, 32237.348
413.508, 30315.740
414.851, 27907.414
416.193, 25647.102
417.536, 23824.570
418.878, 21974.039
420.220, 20037.393
421.562, 17895.691
422.904, 16586.736
424.245, 15148.518
425.586, 13542.014
426.927, 12634.220
428.268, 10765.131
429.609, 9755.742
430.949, 9064.302
432.289, 8393.650
433.629, 7312.202
434.969, 6930.358
436.309, 6177.025
437.648, 5694.416
438.987, 5386.852
440.326, 4922.665
441.665, 4672.236
443.003, 4541.636
444.342, 4280.742
445.680, 4138.769
447.018, 4154.797
448.355, 3923.099
449.693, 3982.135
451.030, 3885.723
452.367, 4338.986
453.704, 4211.025
455.041, 4828.769
456.377, 5015.795
457.713, 5820.225
459.049, 6382.800
460.385, 7369.611
461.721, 8277.497
463.056, 8973.895
464.391, 9999.191
465.726, 11439.538
467.061, 12504.051
468.395, 13771.310
469.730, 15880.824
471.064, 17460.180
472.398, 20337.365
473.731, 22408.332
475.065, 25370.809
476.398, 28388.381
477.731, 30993.129
479.064, 32484.621
480.397, 33655.617
481.729, 33957.781
483.062, 32666.822
484.394, 31087.104
485.725, 28411.082
487.057, 26009.506
488.389, 22974.863
489.720, 19753.994
491.051, 17242.043
492.382, 15032.017
493.712, 12548.977
495.043, 10582.794
496.373, 8991.600
497.703, 7721.005
499.032, 6632.453
500.362, 5544.389
501.691, 4678.039
503.020, 3906.542
504.349, 3455.971
505.678, 2949.663
507.007, 2543.316
508.335, 2059.575
509.663, 1823.079
510.991, 1660.696
512.319, 1398.477
513.646, 1348.627
514.973, 1023.878
516.300, 1113.701
517.627, 914.854
518.954, 670.685
520.280, 802.352
521.607, 475.185
522.933, 503.828
524.259, 340.860
525.584, 254.180
526.910, 309.659
528.235, 114.710
529.560, 178.114
530.885, 0.162
532.209, 8.127
533.534, 6.392
534.858, 27.874
536.182, 43.248
537.506, 68.106
538.829, 53.831
540.152, 84.634
541.476, 64.119
542.799, 68.457
544.121, 139.806
545.444, 6.047
546.766, 123.866
548.088, 33.588
549.410, 101.508
550.732, 137.980
552.053, 112.761
553.375, 8.900
554.696, 17.592
556.017, 69.417
557.337, 229.686
558.658, 87.784
559.978, 10.239
561.298, 152.318
562.618, 18.933
563.938, 63.495
565.257, 185.995
566.576, 18.561
567.895, 209.819
569.214, 319.148
570.533, 331.435
571.851, 329.684
573.170, 483.899
574.488, 464.084
575.805, 502.236
577.123, 482.357
578.440, 718.447
579.758, 984.502
581.075, 997.527
582.391, 1284.521
583.708, 1291.480
585.024, 1389.419
586.341, 1684.336
587.657, 2032.232
588.972, 2338.097
590.288, 2391.939
591.603, 2518.762
592.918, 2990.572
594.233, 3341.375
595.548, 3713.170
596.863, 4322.961
598.177, 4641.742
599.491, 5295.520
600.805, 5723.296
602.119, 6128.088
603.432, 6747.907
604.746, 7299.746
606.059, 7512.621
607.372, 7685.525
608.685, 7916.476
609.997, 7876.498
611.309, 7643.562
612.621, 7467.682
613.933, 7266.843
615.245, 6687.068
616.557, 6356.338
617.868, 5936.658
619.179, 5533.047
620.490, 4907.494
621.801, 4692.005
623.111, 4126.576
624.421, 3852.188
625.731, 3149.859
627.041, 3062.578
628.351, 2585.328
629.660, 2202.126
630.970, 2190.956
632.279, 1736.826
633.588, 1455.722
634.896, 1299.636
636.205, 1234.567
637.513, 1031.515
638.821, 991.473
640.129, 927.436
641.437, 856.404
642.744, 787.032
644.051, 711.526
645.358, 619.288
646.665, 569.229
647.972, 474.150
649.278, 430.052
650.584, 390.936
651.890, 434.798
653.196, 151.641
654.502, 229.455
655.807, 24.757
657.113, 66.982
658.418, 117.690
659.722, 120.632
661.027, 180.040
662.331, 81.559
663.636, 184.146
664.940, 215.849
666.244, 160.680
667.547, 142.615
668.851, 241.649
670.154, 210.825
671.457, 230.130
672.760, 221.085
674.062, 169.506
675.365, 181.851
676.667, 76.839
677.969, 99.729
679.271, 94.650
680.572, 100.519
681.874, 124.138
683.175, 20.204
684.476, 51.064
685.777, 55.786
687.077, 14.961
688.378, 17.539
689.678, 19.177
690.978, 79.790
692.278, 113.414
693.577, 116.298
694.877, 43.567
696.176, 128.156
697.475, 32.054
698.774, 213.573
700.072, 76.528
701.371, 138.842
702.669, 56.373
703.967, 122.097
705.265, 353.901
706.562, 251.340
707.860, 190.652
709.157, 348.191
710.454, 255.054
711.751, 366.150
713.047, 295.688
714.344, 325.809
715.640, 229.577
716.936, 308.484
718.232, 529.167
719.527, 471.684
720.823, 469.332
722.118, 603.885
723.413, 534.980
724.708, 511.246
726.002, 623.246
727.297, 458.092
728.591, 639.952
729.885, 618.665
731.179, 485.389
732.472, 512.646
733.766, 550.114
735.059, 618.938
736.352, 676.699
737.645, 517.621
738.937, 733.709
740.230, 606.653
741.522, 755.124
742.814, 802.002
744.106, 984.484
745.397, 1040.523
746.689, 1114.811
747.980, 1045.166
749.271, 1196.281
750.562, 1325.835
751.853, 1291.057
753.143, 1439.272
754.433, 1513.139
755.723, 1526.000
757.013, 1815.656
758.303, 1761.831
759.592, 1943.375
760.881, 2217.299
762.170, 2456.386
763.459, 2500.985
764.748, 2772.965
766.036, 3229.670
767.325, 3128.107
768.613, 3684.330
769.901, 3940.836
771.188, 4128.907
772.476, 4455.842
773.763, 4452.057
775.050, 4883.648
776.337, 5018.855
777.624, 5314.979
778.910, 5336.582
780.196, 5702.585
781.482, 5494.451
782.768, 5671.764
784.054, 5716.541
785.339, 5588.021
786.625, 5334.905
787.910, 5375.670
789.195, 5257.699
790.479, 5039.857
791.764, 4870.924
793.048, 4622.756
794.332, 4420.308
795.616, 4268.837
796.900, 4118.189
798.183, 3910.275
799.467, 3661.246
800.750, 3590.042
802.033, 3389.717
803.316, 3457.355
804.598, 3069.055
805.880, 3260.357
807.163, 3209.975
808.445, 3033.136
809.726, 3056.551
811.008, 3142.773
812.289, 3154.366
813.570, 3275.100
814.851, 3331.836
816.132, 3137.502
817.413, 3028.764
818.693, 2888.920
819.973, 2627.334
821.253, 2403.373
822.533, 2190.175
823.813, 1810.701
825.092, 1580.748
826.371, 1430.592
827.650, 1191.777
828.929, 1122.550
830.208, 990.573
831.486, 766.691
832.764, 663.590
834.042, 572.624
835.320, 555.248
836.598, 546.571
837.875, 448.772
839.152, 410.459
840.429, 447.834
841.706, 356.995
842.983, 337.949
844.259, 363.345
845.536, 309.400
846.812, 236.545
848.088, 212.650
849.363, 192.386
850.639, 233.449
851.914, 180.199
853.189, 248.523
854.464, 318.231
855.739, 353.148
857.013, 188.673
858.288, 309.416
859.562, 219.078
860.836, 277.257
862.110, 189.129
863.383, 231.604
864.656, 99.638
865.930, 122.081
867.203, 134.175
868.475, 74.333
869.748, 1.971
871.020, 38.964
872.292, 12.760
873.564, 66.430
874.836, 45.167
876.108, 23.625
877.379, 22.624
878.650, 3.244
879.922, 17.613
881.192, 35.867
882.463, 23.224
883.733, 25.679
885.004, 16.231
886.274, 21.891
887.544, 11.221
888.813, 28.462
890.083, 15.398
891.352, 2.428
892.621, 52.544
893.890, 45.769
895.159, 54.103
896.427, 2.454
897.695, 25.547
898.964, 22.690
900.232, 42.403
901.499, 14.218
902.767, 6.121
904.034, 19.106
905.301, 60.817
906.568, 110.680
907.835, 97.483
909.102, 1.228
910.368, 60.104
911.634, 128.457
912.900, 9.962
914.166, 36.395
915.432, 23.235
916.697, 80.951
917.962, 45.218
919.227, 8.674
920.492, 95.357
921.757, 47.667
923.021, 99.214
924.285, 14.040
925.550, 14.198
926.813, 22.513
928.077, 17.906
929.341, 1.378
930.604, 109.084
931.867, 54.507
933.130, 35.811
934.393, 125.071
935.655, 39.718
936.918, 49.411
938.180, 12.488
939.442, 13.507
940.703, 102.470
941.965, 52.383
943.226, 56.244
944.488, 94.057
945.749, 141.818
947.009, 128.535
948.270, 152.205
949.530, 196.830
950.791, 205.831
952.051, 227.951
953.311, 238.452
954.570, 227.910
955.830, 194.330
957.089, 262.709
958.348, 176.051
959.607, 283.353
960.866, 274.624
962.124, 375.882
963.383, 434.117
964.641, 416.322
965.899, 452.506
967.156, 485.687
968.414, 372.878
969.671, 417.061
970.928, 434.254
972.185, 472.468
973.442, 486.691
974.699, 561.920
975.955, 589.176
977.211, 633.449
978.468, 617.752
979.723, 657.078
980.979, 691.418
982.234, 930.772
983.490, 680.127
984.745, 894.482
986.000, 1018.834
987.254, 922.189
988.509, 1049.551
989.763, 1089.906
991.017, 1141.256
992.271, 1189.599
993.525, 1242.722
994.779, 1316.981
996.032, 1346.249
997.285, 1379.277
998.538, 1410.984
999.791, 1810.584
1001.044, 1749.091
1002.296, 2021.749
1003.548, 1822.201
1004.800, 1774.916
1006.052, 1831.904
1007.304, 1822.020
1008.555, 1859.427
1009.807, 1893.758
1011.058, 1953.856
1012.309, 1967.611
1013.559, 2000.991
1014.810, 2045.527
1016.060, 2103.488
1017.310, 2173.521
1018.560, 2121.586
1019.810, 2366.350
1021.060, 2350.584
1022.309, 2303.604
1023.558, 2491.177
1024.807, 2381.748
1026.056, 2530.875
1027.305, 2494.334
1028.553, 2691.739
1029.801, 2543.813
1031.049, 2555.037
1032.297, 2519.184
1033.545, 2661.066
1034.793, 2545.805
1036.040, 2653.097
1037.287, 2611.057
1038.534, 2768.658
1039.781, 2770.254
1041.027, 2757.630
1042.274, 2743.803
1043.520, 2706.049
1044.766, 2715.723
1046.012, 2741.936
1047.257, 2690.502
1048.503, 2791.445
1049.748, 2661.583
1050.993, 2830.604
1052.238, 2746.299
1053.483, 2812.500
1054.727, 2858.972
1055.971, 2833.352
1057.216, 2859.076
1058.459, 2858.725
1059.703, 2863.510
1060.947, 2900.718
1062.190, 2855.490
1063.433, 2932.814
1064.676, 3011.907
1065.919, 3052.419
1067.162, 3264.490
1068.404, 3314.987
1069.646, 3415.514
1070.888, 3529.920
1072.130, 3606.249
1073.372, 3729.948
1074.613, 3886.719
1075.855, 3969.138
1077.096, 4162.116
1078.337, 4355.062
1079.578, 4547.717
1080.818, 4799.675
1082.059, 4945.969
1083.299, 5148.332
1084.539, 5358.173
1085.779, 5332.979
1087.018, 5599.518
1088.258, 5647.580
1089.497, 5876.867
1090.736, 5902.643
1091.975, 5894.211
1093.213, 6053.803
1094.452, 6147.632
1095.690, 6026.785
1096.928, 6237.896
1098.166, 6199.027
1099.404, 6364.234
1100.642, 6158.771
1101.879, 6304.646
1103.116, 6248.186
1104.353, 6347.641
1105.590, 6300.426
1106.827, 6367.316
1108.063, 6325.065
1109.299, 6281.017
1110.536, 6229.793
1111.771, 6135.505
1113.007, 6073.446
1114.243, 6192.328
1115.478, 6090.259
1116.713, 6136.182
1117.948, 6249.920
1119.183, 6039.668
1120.418, 6291.797
1121.652, 6461.842
1122.886, 6504.477
1124.120, 6415.276
1125.354, 6086.721
1126.588, 6141.674
1127.821, 5738.390
1129.055, 5917.061
1130.288, 5888.682
1131.521, 5784.119
1132.753, 5570.740
1133.986, 5661.196
1135.218, 5662.193
1136.450, 5362.938
1137.682, 5448.926
1138.914, 5203.986
1140.146, 5145.812
1141.377, 5089.805
1142.609, 4945.501
1143.840, 4881.624
1145.071, 4800.438
1146.301, 4733.492
1147.532, 4653.773
1148.762, 4511.641
1149.992, 4430.561
1151.222, 4279.907
1152.452, 4340.777
1153.682, 3989.392
1154.911, 4038.477
1156.140, 3995.260
1157.369, 3841.698
1158.598, 3814.504
1159.827, 3672.569
1161.055, 3461.263
1162.284, 3480.021
1163.512, 3384.718
1164.740, 3382.207
1165.967, 3283.244
1167.195, 3265.656
1168.422, 3052.251
1169.650, 3001.800
1170.877, 2830.412
1172.103, 2796.831
1173.330, 2756.682
1174.557, 2698.383
1175.783, 2631.539
1177.009, 2559.905
1178.235, 2470.198
1179.461, 2364.228
1180.686, 2274.067
1181.912, 2146.243
1183.137, 2023.072
1184.362, 1898.723
1185.587, 1780.326
1186.811, 1698.958
1188.036, 1577.729
1189.260, 1558.505
1190.484, 1515.188
1191.708, 1451.744
1192.932, 1358.422
1194.155, 1246.188
1195.378, 1129.250
1196.602, 1100.775
1197.825, 997.219
1199.047, 927.366
1200.270, 874.182
1201.492, 870.939
1202.715, 663.924
1203.937, 800.098
1205.159, 653.358
1206.380, 625.113
1207.602, 454.311
1208.823, 570.471
1210.044, 425.846
1211.265, 352.192
1212.486, 375.049
1213.707, 331.010
1214.927, 340.864
1216.147, 251.453
1217.367, 313.192
1218.587, 371.339
1219.807, 164.723
1221.027, 252.099
1222.246, 157.065
1223.465, 126.695
1224.684, 185.589
1225.903, 178.402
1227.121, 58.509
1228.340, 150.352
1229.558, 124.126
1230.776, 134.664
1231.994, 1.689
1233.212, 120.329
1234.429, 134.268
1235.646, 73.840
1236.864, 168.462
1238.081, 121.917
1239.297, 213.422
1240.514, 102.969
1241.730, 75.328
1242.947, 74.840
1244.163, 96.145
1245.378, 183.426
1246.594, 57.650
1247.810, 3.240
1249.025, 95.458
1250.240, 107.648
1251.455, 1.137
1252.670, 37.305
1253.885, 5.893
1255.099, 12.137
1256.313, 97.112
1257.527, 82.969
1258.741, 29.074
1259.955, 48.871
1261.168, 32.242
1262.382, 35.173
1263.595, 80.147
1264.808, 79.006
1266.021, 2.154
1267.233, 9.014
1268.446, 106.739
1269.658, 67.446
1270.870, 169.135
1272.082, 30.787
1273.294, 87.419
1274.505, 98.032
1275.716, 109.625
1276.928, 13.773
1278.139, 109.778
1279.349, 148.462
1280.560, 18.950
1281.770, 79.403
1282.981, 22.214
1284.191, 3.084
1285.401, 58.314
1286.610, 52.528
1287.820, 87.572
1289.029, 101.364
1290.239, 20.384
1291.448, 15.449
1292.656, 54.547
1293.865, 31.528
1295.073, 30.122
1296.282, 38.177
1297.490, 40.449
1298.698, 101.034
1299.906, 2.579
1301.113, 58.084
1302.320, 53.456
1303.528, 27.045
1304.735, 46.694
1305.942, 40.394
1307.148, 57.861
1308.355, 71.080
1309.561, 120.265
1310.767, 38.416
1311.973, 86.529
1313.179, 36.394
1314.384, 105.629
1315.590, 90.608
1316.795, 139.550
1318.000, 35.453
1319.205, 71.307
1320.410, 116.120
1321.614, 18.893
1322.819, 171.624
1324.023, 82.319
1325.227, 164.974
1326.431, 24.588
1327.634, 56.157
1328.838, 101.684
1330.041, 28.831
1331.244, 34.603
1332.447, 9.004
1333.650, 93.657
1334.852, 104.620
1336.055, 57.138
1337.257, 29.955
1338.459, 71.823
1339.661, 37.249
1340.862, 6.716
1342.064, 52.726
1343.265, 34.210
1344.466, 9.894
1345.667, 7.960
1346.868, 54.771
1348.068, 34.549
1349.269, 31.708
1350.469, 102.985
1351.669, 1.647
1352.869, 37.273
1354.069, 193.866
1355.268, 207.433
1356.468, 75.973
1357.667, 7.527
1358.866, 82.009
1360.065, 1.135
1361.263, 98.798
1362.462, 25.427
1363.660, 28.913
1364.858, 29.335
1366.056, 59.639
1367.254, 19.717
1368.451, 68.825
1369.649, 86.757
1370.846, 47.599
1372.043, 15.274
1373.240, 90.781
1374.436, 148.932
1375.633, 123.535
1376.829, 15.423
1378.025, 69.458
1379.221, 148.383
1380.417, 137.935
1381.613, 197.744
1382.808, 147.771
1384.003, 157.377
1385.199, 202.152
1386.393, 164.771
1387.588, 203.361
1388.783, 203.781
1389.977, 250.323
1391.171, 128.214
1392.365, 214.248
1393.559, 339.063
1394.753, 147.856
1395.946, 293.592
1397.140, 119.446
1398.333, 200.403
1399.526, 91.476
1400.719, 269.839
1401.911, 210.864
1403.104, 204.919
1404.296, 180.768
1405.488, 207.229
1406.680, 44.209
1407.872, 240.696
1409.063, 330.570
1410.255, 115.075
1411.446, 319.601
1412.637, 229.534
1413.828, 209.564
1415.018, 268.400
1416.209, 237.458
1417.399, 229.319
1418.589, 231.186
1419.779, 195.879
1420.969, 295.979
1422.159, 166.856
1423.348, 299.000
1424.537, 272.349
1425.726, 270.595
1426.915, 316.980
1428.104, 232.000
1429.293, 197.134
1430.481, 241.648
1431.669, 322.065
1432.857, 306.671
1434.045, 230.271
1435.233, 405.245
1436.420, 508.671
1437.608, 486.108
1438.795, 401.598
1439.982, 439.296
1441.169, 563.683
1442.355, 545.525
1443.542, 621.351
1444.728, 537.560
1445.914, 629.415
1447.100, 623.402
1448.286, 664.757
1449.472, 602.355
1450.657, 653.749
1451.842, 723.176
1453.027, 660.951
1454.212, 837.720
1455.397, 744.443
1456.581, 784.607
1457.766, 853.782
1458.950, 681.427
1460.134, 879.694
1461.318, 660.568
1462.501, 660.146
1463.685, 768.742
1464.868, 550.257
1466.051, 679.644
1467.234, 495.789
1468.417, 439.598
1469.600, 405.819
1470.782, 473.543
1471.965, 328.670
1473.147, 408.101
1474.329, 401.570
1475.510, 408.054
1476.692, 445.396
1477.873, 378.342
1479.055, 339.424
1480.236, 444.560
1481.416, 305.750
1482.597, 435.975
1483.778, 370.168
1484.958, 320.328
1486.138, 349.521
1487.318, 389.822
1488.498, 273.249
1489.678, 297.946
1490.857, 160.516
1492.037, 211.350
1493.216, 207.422
1494.395, 116.701
1495.574, 117.176
1496.752, 71.874
1497.931, 147.765
1499.109, 53.869
1500.287, 67.233
1501.465, 24.079
1502.643, 97.977
1503.820, 142.453
1504.998, 135.403
1506.175, 52.889
1507.352, 185.237
1508.529, 110.831
1509.706, 20.338
1510.882, 78.075
1512.059, 98.702
1513.235, 0.303
1514.411, 0.000
##END=



