##NAMES=Heulandite-Ca
##RRUFFID=R060465
##IDEAL CHEMISTRY=(Ca,Na,K)_5_(Si_27_Al_9_)O_72_&#183;26H_2_O
##LOCALITY=Garrawilla, near Gunnadah, New South Wales, Australia
##OWNER=RRUFF
##SOURCE=Michael Scott
##DESCRIPTION=Orange fan of platy crystals
##STATUS=The identification of this mineral has been confirmed by X-ray diffraction and chemical analysis
##URL=rruff.info/R060465
##MEASURED CHEMISTRY=(Ca_0.66_Na_0.24_K_0.10_)_5_(Si_0.77_Al_0.23_)_36_O_72_Â·24H_2_O
##PIN_ID=M01254
##ORIENTATION=Laser parallel to c* (0 0 1). Fiducial mark perpendicular to laser is parallel to a [1 0 0]
238.9720, 0.0000000E+00
240.1920, 35.50391
241.4110, 28.18555
242.6300, 157.7539
243.8490, 6.632813
245.0680, 203.7949
246.2860, 34.60547
247.5040, 424.8398
248.7230, 350.1953
249.9410, 610.2988
251.1590, 144.4512
252.3760, 252.6738
253.5940, 421.2891
254.8110, 440.8516
256.0280, 537.4688
257.2450, 336.6543
258.4620, 541.2754
259.6790, 944.1992
260.8950, 788.3242
262.1120, 606.5645
263.3280, 608.8457
264.5440, 81.09961
265.7600, 48.73242
266.9750, 31.29297
268.1910, 315.1172
269.4060, 25.31250
270.6210, 138.0430
271.8360, 296.8809
273.0510, 263.4180
274.2650, 277.5312
275.4800, 53.18555
276.6940, 186.3379
277.9080, 140.9453
279.1220, 146.9766
280.3360, 152.4199
281.5490, 197.2656
282.7630, 303.5254
283.9760, 70.20508
285.1890, 322.2949
286.4020, 225.7832
287.6150, 364.6523
288.8270, 260.8750
290.0400, 352.4355
291.2520, 259.3086
292.4640, 407.4824
293.6760, 343.9316
294.8870, 412.6426
296.0990, 628.5996
297.3100, 524.7930
298.5210, 782.2090
299.7320, 653.8320
300.9430, 401.6562
302.1540, 566.6660
303.3640, 667.8574
304.5750, 496.2207
305.7850, 643.7461
306.9950, 857.4219
308.2050, 807.2480
309.4140, 937.2129
310.6240, 1075.311
311.8330, 1135.508
313.0420, 1182.676
314.2510, 1426.844
315.4600, 1448.072
316.6680, 1578.336
317.8770, 2043.674
319.0850, 1707.205
320.2930, 1821.896
321.5010, 2202.752
322.7090, 2273.889
323.9160, 2237.316
325.1240, 2406.205
326.3310, 2554.541
327.5380, 2545.039
328.7450, 2807.764
329.9520, 2623.762
331.1580, 2795.924
332.3650, 2830.219
333.5710, 2724.594
334.7770, 2889.123
335.9830, 2922.607
337.1880, 2985.031
338.3940, 3160.596
339.5990, 3065.182
340.8040, 3229.771
342.0090, 3409.375
343.2140, 3225.992
344.4190, 3330.619
345.6230, 3709.260
346.8280, 3536.912
348.0320, 3864.578
349.2360, 3890.256
350.4400, 4012.945
351.6430, 4123.648
352.8470, 4518.363
354.0500, 4534.092
355.2530, 4870.832
356.4560, 4989.580
357.6590, 5336.340
358.8620, 5434.111
360.0640, 5744.891
361.2660, 5880.680
362.4680, 6279.477
363.6700, 6528.279
364.8720, 6940.090
366.0740, 7354.906
367.2750, 7608.729
368.4760, 7836.553
369.6770, 7996.387
370.8780, 8580.219
372.0790, 8925.053
373.2800, 9509.895
374.4800, 9837.732
375.6800, 9916.574
376.8800, 10715.42
378.0800, 11107.26
379.2800, 11743.11
380.4790, 12457.95
381.6790, 13120.80
382.8780, 13609.68
384.0770, 14278.79
385.2760, 14858.42
386.4750, 16084.85
387.6730, 16845.04
388.8720, 17689.03
390.0700, 18381.88
391.2680, 19417.69
392.4660, 20830.08
393.6630, 21617.66
394.8610, 22665.94
396.0580, 24071.67
397.2550, 24745.86
398.4520, 25965.02
399.6490, 26695.60
400.8460, 27162.64
402.0420, 27556.02
403.2390, 27726.56
404.4350, 27674.61
405.6310, 27565.61
406.8270, 27108.90
408.0220, 26582.11
409.2180, 25725.64
410.4130, 24798.46
411.6080, 23934.57
412.8030, 22785.64
413.9980, 21723.76
415.1920, 20841.38
416.3870, 19360.32
417.5810, 18349.29
418.7750, 17401.98
419.9690, 15816.08
421.1630, 15015.95
422.3570, 14150.95
423.5500, 13155.07
424.7430, 12029.88
425.9360, 11130.63
427.1290, 9910.053
428.3220, 9446.322
429.5150, 8377.105
430.7070, 7695.670
431.8990, 7213.945
433.0910, 6705.508
434.2830, 6047.529
435.4750, 5411.410
436.6670, 5073.312
437.8580, 4789.465
439.0490, 4564.301
440.2400, 3917.160
441.4310, 3980.035
442.6220, 3635.928
443.8130, 3703.834
445.0030, 3868.758
446.1930, 3697.691
447.3830, 4021.637
448.5730, 3819.590
449.7630, 4195.553
450.9520, 4355.523
452.1420, 4663.500
453.3310, 4888.482
454.5200, 5370.475
455.7090, 5955.469
456.8980, 6136.469
458.0860, 6889.475
459.2740, 7534.480
460.4630, 8022.492
461.6510, 8381.508
462.8380, 8845.523
464.0260, 9394.541
465.2140, 9950.559
466.4010, 10492.57
467.5880, 11015.59
468.7750, 10995.59
469.9620, 11160.60
471.1490, 12000.59
472.3350, 12085.58
473.5220, 12818.55
474.7080, 13572.51
475.8940, 14266.46
477.0800, 14955.77
478.2650, 15679.62
479.4510, 16261.23
480.6360, 16923.12
481.8210, 17519.01
483.0060, 17770.88
484.1910, 17872.73
485.3760, 17553.57
486.5600, 16819.39
487.7440, 15849.20
488.9290, 14764.00
490.1130, 13383.78
491.2960, 11918.55
492.4800, 10844.29
493.6630, 9634.027
494.8470, 8228.746
496.0300, 7217.449
497.2130, 6197.135
498.3960, 5438.807
499.5780, 4643.461
500.7610, 4110.100
501.9430, 3414.811
503.1250, 2876.324
504.3070, 2354.910
505.4890, 2195.479
506.6710, 1994.029
507.8520, 1639.561
509.0330, 1427.074
510.2140, 1438.570
511.3950, 1175.406
512.5760, 1193.863
513.7570, 1031.334
514.9370, 1031.754
516.1170, 694.5430
517.2980, 475.9219
518.4780, 565.3770
519.6570, 462.4570
520.8370, 534.7832
522.0160, 432.9941
523.1960, 312.7871
524.3750, 152.6113
525.5540, 456.6211
526.7320, 332.9375
527.9110, 243.3613
529.0890, 5.476563
530.2680, 232.1562
531.4460, 12.21289
532.6240, 10.48828
533.8010, 152.9531
534.9790, 101.0938
536.1560, 11.58203
537.3340, 8.794922
538.5110, 77.30469
539.6880, 40.79102
540.8650, 31.46094
542.0410, 19.56641
543.2180, 10.29883
544.3940, 126.1309
545.5700, 113.3066
546.7460, 23.53125
547.9220, 153.0938
549.0970, 69.85742
550.2730, 232.0020
551.4480, 284.7402
552.6230, 198.7070
553.7980, 129.8379
554.9730, 86.28711
556.1470, 175.9844
557.3210, 100.3730
558.4960, 3.855469
559.6700, 141.3906
560.8440, 130.7637
562.0170, 14.25000
563.1910, 15.08789
564.3640, 31.98047
565.5380, 25.78125
566.7110, 31.73047
567.8840, 1.630859
569.0560, 71.41016
570.2290, 5.470703
571.4010, 49.60742
572.5740, 95.45117
573.7460, 56.43359
574.9180, 172.1562
576.0890, 3.152344
577.2610, 214.5078
578.4320, 161.2188
579.6040, 245.9688
580.7750, 383.9473
581.9450, 312.2051
583.1160, 484.2715
584.2870, 487.4648
585.4570, 468.1738
586.6270, 647.0469
587.7980, 524.6816
588.9670, 492.0488
590.1370, 885.5898
591.3070, 847.9004
592.4760, 1019.170
593.6450, 1099.803
594.8140, 1166.359
595.9830, 1564.244
597.1520, 1443.379
598.3210, 1728.484
599.4890, 1879.553
600.6570, 1969.594
601.8250, 2232.910
602.9930, 2352.525
604.1610, 2683.863
605.3290, 2656.184
606.4960, 2885.094
607.6630, 2975.969
608.8300, 3270.020
609.9970, 3274.824
611.1640, 3435.791
612.3300, 3932.604
613.4970, 4299.400
614.6630, 2886.164
615.8290, 2883.889
616.9950, 3078.580
618.1610, 2740.246
619.3260, 2419.875
620.4920, 2440.562
621.6570, 2234.262
622.8220, 1861.000
623.9870, 1744.732
625.1520, 1596.473
626.3160, 1416.176
627.4810, 1424.871
628.6450, 1195.566
629.8090, 1223.225
630.9730, 1061.869
632.1370, 1034.479
633.3000, 834.0840
634.4640, 980.6504
635.6270, 873.2246
636.7900, 799.7617
637.9530, 703.2598
639.1160, 564.7188
640.2780, 598.1348
641.4410, 611.5137
642.6030, 701.8496
643.7650, 566.1465
644.9270, 625.4043
646.0890, 324.6191
647.2500, 619.8086
648.4120, 490.9570
649.5730, 603.0781
650.7340, 241.1582
651.8950, 338.1914
653.0560, 321.3320
654.2160, 356.2852
655.3770, 238.2031
656.5370, 340.0762
657.6970, 310.9062
658.8570, 157.6973
660.0170, 334.4434
661.1760, 131.1484
662.3360, 78.79883
663.4950, 203.4102
664.6540, 154.9727
665.8130, 53.48047
666.9720, 295.8711
668.1310, 55.71875
669.2890, 232.0703
670.4470, 244.3594
671.6050, 214.6406
672.7630, 274.9102
673.9210, 352.5508
675.0790, 261.8203
676.2360, 226.5000
677.3930, 249.4297
678.5510, 4.054688
679.7080, 242.5430
680.8640, 120.4727
682.0210, 48.40625
683.1770, 159.0781
684.3340, 305.3594
685.4900, 285.8945
686.6460, 318.2852
687.8020, 156.2266
688.9570, 189.1172
690.1130, 277.7305
691.2680, 269.2070
692.4230, 350.6953
693.5780, 163.4609
694.7330, 326.4766
695.8880, 265.3438
697.0420, 235.6094
698.1960, 302.2891
699.3510, 155.9570
700.5040, 145.5977
701.6580, 330.7578
702.8120, 316.3555
703.9650, 9.675781
705.1190, 77.39453
706.2720, 111.3438
707.4250, 114.4414
708.5780, 150.5781
709.7300, 145.2461
710.8830, 192.7852
712.0350, 153.7773
713.1870, 225.8008
714.3390, 212.0078
715.4910, 310.2070
716.6430, 195.0547
717.7940, 177.7227
718.9460, 116.1289
720.0970, 42.52734
721.2480, 81.58984
722.3990, 49.03516
723.5500, 159.4336
724.7000, 113.0859
725.8500, 162.4766
727.0010, 304.7148
728.1510, 170.2461
729.3010, 217.6992
730.4500, 539.5977
731.6000, 125.1602
732.7490, 135.0703
733.8980, 49.57422
735.0470, 245.3906
736.1960, 305.5391
737.3450, 231.4961
738.4940, 366.0078
739.6420, 147.8008
740.7900, 296.0820
741.9380, 389.1211
743.0860, 129.7891
744.2340, 444.3945
745.3810, 248.8672
746.5290, 177.7148
747.6760, 236.2305
748.8230, 196.6016
749.9700, 295.6523
751.1170, 303.6484
752.2630, 317.1328
753.4100, 356.7422
754.5560, 407.3242
755.7020, 440.1992
756.8480, 322.1250
757.9940, 568.1992
759.1390, 429.2891
760.2850, 338.6016
761.4300, 493.1367
762.5750, 507.8711
763.7200, 481.6680
764.8650, 790.8281
766.0100, 697.5898
767.1540, 720.3789
768.2980, 749.5078
769.4420, 697.1367
770.5860, 781.5156
771.7300, 858.3711
772.8740, 910.9453
774.0170, 868.7539
775.1610, 938.4844
776.3040, 812.9961
777.4470, 625.1953
778.5900, 868.7422
779.7320, 895.8398
780.8750, 686.2656
782.0170, 852.5938
783.1590, 638.5508
784.3010, 849.0273
785.4430, 894.8867
786.5850, 697.7578
787.7260, 589.5234
788.8680, 726.5703
790.0090, 304.5039
791.1500, 737.0898
792.2910, 499.9414
793.4310, 582.0742
794.5720, 500.1133
795.7120, 483.4453
796.8520, 554.7891
797.9920, 584.1523
799.1320, 446.5195
800.2720, 394.3242
801.4120, 412.9414
802.5510, 469.3047
803.6900, 117.3086
804.8290, 494.5156
805.9680, 289.0508
807.1070, 506.7695
808.2450, 468.5078
809.3840, 347.8242
810.5220, 216.3633
811.6600, 70.13672
812.7980, 67.50000
813.9360, 330.1406
815.0730, 378.8906
816.2110, 396.1016
817.3480, 120.2773
818.4850, 267.8438
819.6220, 265.3633
820.7590, 198.0977
821.8960, 305.4805
823.0320, 225.8008
824.1680, 277.2344
825.3040, 349.0352
826.4400, 345.9805
827.5760, 252.3867
828.7120, 97.86719
829.8470, 326.3789
830.9830, 252.5234
832.1180, 72.99219
833.2530, 28.46875
834.3880, 236.9219
835.5220, 309.3438
836.6570, 218.4805
837.7910, 153.6133
838.9250, 65.00781
840.0590, 139.3672
841.1930, 187.5352
842.3270, 50.69141
843.4600, 272.1055
844.5940, 297.8906
845.7270, 74.78516
846.8600, 125.6328
847.9930, 90.62891
849.1250, 14.75391
850.2580, 257.3711
851.3900, 54.71875
852.5230, 190.1172
853.6550, 167.8203
854.7870, 308.4062
855.9180, 291.6953
857.0500, 183.6289
858.1810, 8.320313
859.3130, 66.51172
860.4440, 184.7578
861.5750, 235.7656
862.7050, 262.9297
863.8360, 180.2969
864.9660, 211.4102
866.0970, 313.6758
867.2270, 140.9141
868.3570, 341.7109
869.4870, 133.5117
870.6160, 424.9102
871.7460, 195.9805
872.8750, 232.0078
874.0040, 17.99609
875.1330, 249.9297
876.2620, 30.48828
877.3910, 169.3281
878.5190, 247.0977
879.6470, 38.56641
880.7760, 271.0781
881.9040, 170.6875
883.0310, 45.04688
884.1590, 86.43359
885.2870, 130.1797
886.4140, 27.89453
887.5410, 98.31641
888.6680, 159.4844
889.7950, 154.6133
890.9220, 5.300781
892.0480, 61.72266
893.1750, 313.2930
894.3010, 155.5352
895.4270, 239.9141
896.5530, 85.48047
897.6790, 137.7344
898.8040, 244.0625
899.9300, 83.76562
901.0550, 110.6953
902.1800, 206.2656
903.3050, 71.81250
904.4300, 218.0195
905.5540, 109.1836
906.6790, 113.5078
907.8030, 148.8359
908.9270, 120.6914
910.0510, 123.1797
911.1750, 162.6367
912.2990, 285.9062
913.4220, 126.4492
914.5450, 402.8008
915.6690, 127.1289
916.7920, 136.4219
917.9140, 237.6836
919.0370, 36.08203
920.1600, 278.0898
921.2820, 29.76562
922.4040, 294.3164
923.5260, 32.37109
924.6480, 132.3945
925.7700, 288.2344
926.8910, 21.79688
928.0130, 211.1172
929.1340, 50.01172
930.2550, 265.8672
931.3760, 16.29688
932.4970, 166.4922
933.6170, 306.2617
934.7380, 40.99609
935.8580, 233.7031
936.9780, 374.3750
938.0980, 329.0312
939.2180, 17.26953
940.3370, 162.6758
941.4570, 97.64453
942.5760, 89.14062
943.6950, 221.6094
944.8140, 184.0625
945.9330, 217.0039
947.0520, 167.0352
948.1700, 23.01953
949.2890, 8.382813
950.4070, 115.7227
951.5250, 402.0586
952.6430, 220.5195
953.7600, 391.5859
954.8780, 167.6445
955.9950, 476.3984
957.1120, 368.5898
958.2290, 352.4336
959.3460, 271.4766
960.4630, 244.6758
961.5800, 386.8516
962.6960, 144.7578
963.8120, 150.9492
964.9280, 644.0781
966.0440, 256.9375
967.1600, 436.8789
968.2760, 479.0664
969.3910, 411.8125
970.5060, 632.8516
971.6210, 621.5000
972.7360, 437.8555
973.8510, 618.6367
974.9660, 366.9023
976.0800, 572.3828
977.1950, 449.1055
978.3090, 738.9805
979.4230, 468.9609
980.5370, 421.8789
981.6500, 542.1094
982.7640, 640.1367
983.8770, 641.8555
984.9900, 782.6406
986.1030, 631.0977
987.2160, 702.5781
988.3290, 912.9492
989.4420, 578.8711
990.5540, 624.7500
991.6660, 698.1797
992.7780, 664.5625
993.8900, 694.3594
995.0020, 760.7734
996.1140, 808.3984
997.2250, 809.1289
998.3360, 836.5039
999.4470, 622.0039
1000.558, 1022.840
1001.669, 671.0859
1002.780, 946.9453
1003.890, 848.1797
1005.001, 817.0508
1006.111, 1022.547
1007.221, 751.1836
1008.331, 967.2148
1009.440, 1020.926
1010.550, 1027.094
1011.659, 793.4531
1012.768, 971.1406
1013.877, 819.8359
1014.986, 940.6250
1016.095, 872.0000
1017.204, 1050.672
1018.312, 1144.453
1019.420, 937.5117
1020.528, 1068.043
1021.636, 1004.176
1022.744, 1071.574
1023.852, 906.9766
1024.959, 940.0352
1026.066, 951.0039
1027.173, 831.8203
1028.280, 800.5859
1029.387, 943.0859
1030.494, 1090.324
1031.600, 993.3320
1032.707, 1057.219
1033.813, 957.7070
1034.919, 898.5469
1036.025, 961.3242
1037.130, 1271.723
1038.236, 780.5781
1039.341, 942.7422
1040.446, 1170.195
1041.552, 855.9844
1042.656, 805.5078
1043.761, 934.0625
1044.866, 959.7969
1045.970, 1019.801
1047.074, 1212.422
1048.179, 1072.449
1049.282, 1258.109
1050.386, 1207.793
1051.490, 1189.887
1052.593, 1072.383
1053.697, 1036.453
1054.800, 808.4844
1055.903, 1070.578
1057.006, 871.9961
1058.108, 1133.852
1059.211, 696.9844
1060.313, 1121.848
1061.415, 1041.004
1062.517, 1134.605
1063.619, 968.7852
1064.721, 1206.270
1065.823, 1160.430
1066.924, 1127.648
1068.025, 1119.801
1069.126, 1395.047
1070.227, 1300.309
1071.328, 1431.586
1072.429, 1355.508
1073.529, 1313.387
1074.629, 1375.473
1075.729, 1208.547
1076.829, 1547.898
1077.929, 1233.270
1079.029, 1433.656
1080.128, 1429.066
1081.228, 1646.020
1082.327, 1667.941
1083.426, 2025.332
1084.525, 2043.832
1085.623, 1918.348
1086.722, 2105.883
1087.820, 1871.438
1088.919, 1842.012
1090.017, 1951.598
1091.115, 2250.207
1092.212, 2001.836
1093.310, 2307.477
1094.407, 2274.363
1095.505, 2321.047
1096.602, 2140.750
1097.699, 2419.469
1098.795, 2431.207
1099.892, 2268.223
1100.989, 2498.012
1102.085, 2461.680
1103.181, 2540.512
1104.277, 2521.363
1105.373, 2685.238
1106.469, 2671.137
1107.564, 2616.387
1108.660, 2691.613
1109.755, 2637.602
1110.850, 2653.074
1111.945, 2985.098
1113.040, 2942.148
1114.134, 3108.211
1115.229, 2867.305
1116.323, 2959.348
1117.417, 3020.484
1118.511, 3155.676
1119.605, 3316.883
1120.698, 3307.359
1121.792, 3534.609
1122.885, 3604.574
1123.978, 3738.867
1125.071, 3157.191
1126.164, 3176.539
1127.257, 3377.902
1128.349, 3133.293
1129.442, 3357.699
1130.534, 3248.129
1131.626, 3023.898
1132.718, 3438.953
1133.810, 3572.625
1134.901, 3395.406
1135.993, 3210.457
1137.084, 3209.027
1138.175, 3187.621
1139.266, 3272.238
1140.357, 3273.781
1141.448, 3307.152
1142.538, 3333.258
1143.628, 3350.988
1144.719, 3347.742
1145.809, 3326.914
1146.898, 3213.203
1147.988, 2928.492
1149.078, 3548.816
1150.167, 2949.996
1151.256, 3066.746
1152.345, 2984.770
1153.434, 3620.820
1154.523, 3184.820
1155.612, 3324.906
1156.700, 2740.023
1157.788, 2824.230
1158.877, 2714.293
1159.964, 2880.621
1161.052, 2824.289
1162.140, 2541.770
1163.227, 2727.320
1164.315, 2627.883
1165.402, 2417.500
1166.489, 2395.082
1167.576, 2434.770
1168.663, 2457.504
1169.749, 2268.258
1170.836, 2497.070
1171.922, 2464.926
1173.008, 2429.852
1174.094, 2204.797
1175.180, 2128.758
1176.265, 1972.742
1177.351, 2073.738
1178.436, 1908.754
1179.521, 1554.789
1180.606, 2220.840
1181.691, 1710.910
1182.776, 1861.996
1183.860, 1794.117
1184.944, 1560.258
1186.029, 1614.426
1187.113, 1314.609
1188.197, 1325.812
1189.280, 1324.035
1190.364, 1077.273
1191.447, 1187.930
1192.531, 990.8242
1193.614, 1398.125
1194.697, 768.4414
1195.779, 1139.781
1196.862, 975.3906
1197.945, 1018.512
1199.027, 700.9219
1200.109, 973.3398
1201.191, 623.7773
1202.273, 795.2266
1203.355, 557.6992
1204.436, 598.2344
1205.518, 572.7891
1206.599, 384.3555
1207.680, 471.9375
1208.761, 572.5352
1209.842, 452.1484
1210.922, 618.7734
1212.003, 474.4180
1213.083, 502.0820
1214.163, 159.6602
1215.243, 445.3477
1216.323, 631.0547
1217.402, 627.7734
1218.482, 227.5117
1219.561, 321.2578
1220.641, 364.0156
1221.720, 138.7930
1222.798, 185.5820
1223.877, 65.61328
1224.956, 333.1758
1226.034, 270.9844
1227.112, 37.79688
1228.191, 43.63281
1229.269, 11.52344
1230.346, 214.3438
1231.424, 52.78906
1232.501, 167.0820
1233.579, 182.9609
1234.656, 155.8555
1235.733, 393.7578
1236.810, 98.32812
1237.886, 277.4375
1238.963, 450.3281
1240.039, 59.89453
1241.116, 91.86719
1242.192, 46.64453
1243.268, 58.42969
1244.343, 14.22656
1245.419, 137.9648
1246.494, 172.7891
1247.570, 154.5586
1248.645, 159.3320
1249.720, 28.88672
1250.795, 101.8945
1251.869, 37.31641
1252.944, 189.4727
1254.018, 138.2617
1255.093, 12.06250
1256.167, 149.8750
1257.240, 154.6914
1258.314, 9.519531
1259.388, 116.3594
1260.461, 63.79297
1261.535, 135.9688
1262.608, 40.84375
1263.681, 77.58984
1264.753, 24.86328
1265.826, 44.23047
1266.899, 58.60547
1267.971, 124.3359
1269.043, 164.0742
1270.115, 58.45312
1271.187, 221.2695
1272.259, 151.0352
1273.330, 263.8008
1274.402, 16.42578
1275.473, 2.339844
1276.544, 36.15625
1277.615, 34.75000
1278.686, 9.976563
1279.756, 122.2852
1280.827, 105.3867
1281.897, 173.0664
1282.967, 75.24609
1284.037, 382.3984
1285.107, 183.0469
1286.177, 123.2969
1287.247, 54.71094
1288.316, 157.8516
1289.385, 15.41406
1290.454, 300.9531
1291.523, 150.5195
1292.592, 180.0898
1293.661, 205.6602
1294.729, 15.76562
1295.797, 101.7930
1296.866, 82.35547
1297.934, 269.9180
1299.001, 233.4844
1300.069, 123.0117
1301.137, 433.5859
1302.204, 200.1602
1303.271, 156.7383
1304.338, 317.3203
1305.405, 228.9023
1306.472, 169.4883
1307.539, 215.8828
1308.605, 667.6602
1309.671, 233.2539
1310.737, 545.8477
1311.803, 656.4453
1312.869, 267.0273
1313.935, 591.6172
1315.000, 349.2031
1316.066, 703.7891
1317.131, 677.1641
1318.196, 572.9609
1319.261, 645.5508
1320.326, 558.1328
1321.390, 324.7227
1322.455, 450.5859
1323.519, 317.8945
1324.583, 566.4727
1325.647, 463.0586
1326.711, 561.6406
1327.775, 400.2031
1328.838, 558.7695
1329.902, 310.3320
1330.965, 487.8906
1332.028, 557.4492
1333.091, 491.0039
1334.153, 507.5586
1335.216, 508.1094
1336.279, 244.6523
1337.341, 364.1992
1338.403, 662.7383
1339.465, 378.2734
1340.527, 512.3906
1341.588, 11.07031
1342.650, 702.4453
1343.711, 189.9609
1344.772, 418.4688
1345.834, 311.9805
1346.894, 70.48828
1347.955, 340.9922
1349.016, 450.4961
1350.076, 402.9961
1351.136, 156.4922
1352.197, 437.7383
1353.257, 601.2031
1354.316, 683.6523
1355.376, 218.0938
1356.436, 300.5312
1357.495, 273.7734
1358.554, 263.1953
1359.613, 269.7461
1360.672, 248.1484
1361.731, 500.5547
1362.789, 443.9531
1363.848, 345.3516
1364.906, 105.4180
1365.964, 330.5039
1367.022, 398.8750
1368.080, 311.7773
1369.138, 106.1523
1370.195, 152.4609
1371.253, 52.77734
1372.310, 428.0859
1373.367, 194.4766
1374.424, 227.7812
1375.480, 132.0859
1376.537, 70.02344
1377.593, 551.4453
1378.650, 110.7422
1379.706, 106.3477
1380.762, 370.6445
1381.818, 150.9375
1382.873, 194.2266
1383.929, 315.5195
1384.984, 478.8086
1386.039, 207.6680
1387.094, 320.9492
1388.149, 326.9102
1389.204, 466.9805
1390.259, 41.93750
1391.313, 291.2461
1392.367, 490.9883
1393.422, 15.76172
1394.476, 541.4766
1395.529, 283.7148
1396.583, 7.953125
1397.637, 0.1914060
1398.690, 85.39062
1399.743, 219.5859
1400.796, 160.7891
1401.849, 558.6094
1402.902, 139.3281
1403.954, 22.92969
1405.007, 468.8047
1406.059, 55.73438
1407.111, 423.8281
1408.163, 257.1445
1409.215, 453.3516
1410.267, 80.62891
1411.318, 464.8359
1412.370, 346.0469
1413.421, 68.17969
1414.472, 15.57422
1415.523, 177.7695
1416.574, 45.27344
1417.624, 154.2422
1418.675, 137.4453
1419.725, 254.6484
1420.775, 370.8711
1421.825, 289.1836
1422.875, 107.6680
1423.925, 206.8867
1424.974, 20.11328
1426.024, 108.9805
1427.073, 261.2422
1428.122, 176.1055
1429.171, 627.3398
1430.220, 258.5859
1431.268, 163.8281
1432.317, 172.8320
1433.365, 466.0508
1434.413, 87.21094
1435.461, 382.4453
1436.509, 422.4180
1437.557, 199.6836
1438.605, 374.9375
1439.652, 319.6484
1440.699, 569.5312
1441.746, 339.8086
1442.793, 482.0742
1443.840, 433.3320
1444.887, 183.5742
1445.933, 251.8047
1446.980, 171.1719
1448.026, 505.2305
1449.072, 205.4219
1450.118, 376.6055
1451.163, 518.7656
1452.209, 554.9219
1453.254, 492.7734
1454.300, 521.5547
1455.345, 404.9258
1456.390, 412.9805
1457.435, 564.0234
1458.479, 476.0586
1459.524, 916.0859
1460.568, 345.1055
1461.612, 311.0898
1462.656, 149.0820
1463.700, 460.0625
1464.744, 175.0430
1465.788, 7.796875
1466.831, 440.3828
1467.874, 559.5547
1468.918, 483.7578
1469.961, 352.9922
1471.003, 338.2227
1472.046, 409.4688
1473.089, 361.7148
1474.131, 425.0781
1475.173, 163.1797
1476.215, 613.4219
1477.257, 277.1953
1478.299, 541.5547
1479.341, 201.9102
1480.382, 245.2891
1481.424, 420.9844
1482.465, 35.72266
1483.506, 673.5781
1484.547, 377.1562
1485.587, 380.5352
1486.628, 222.9648
1487.668, 379.4609
1488.709, 60.01953
1489.749, 170.6992
1490.789, 111.2695
1491.828, 276.8867
1492.868, 376.5234
1493.908, 210.1719
1494.947, 316.1289
1495.986, 449.5742
1497.025, 225.0156
1498.064, 363.4453
1499.103, 199.8594
1500.141, 163.2422
1501.180, 371.6562
1502.218, 364.0820
1503.256, 82.49609
1504.294, 278.9062
1505.332, 89.30859
1506.370, 165.7148
1507.407, 167.1094
1508.445, 421.5430
1509.482, 166.0156
1510.519, 13.51562
1511.556, 332.9688
1512.593, 213.4492
1513.629, 5.050781
1514.666, 358.9570
1515.702, 27.43359
1516.738, 237.9023
1517.774, 370.3789
1518.810, 209.8398
1519.846, 331.3086
1520.882, 205.9141
1521.917, 288.4180
1522.952, 367.6445
1523.987, 259.6719
1525.022, 650.3906
1526.057, 274.1094
1527.092, 522.8945
1528.126, 547.7500
1529.161, 421.7969
1530.195, 522.0664
1531.229, 12.62891
1532.263, 60.71484
1533.297, 89.10547
1534.330, 208.5430
1535.364, 451.0352
1536.397, 367.5781
1537.430, 417.4102
1538.463, 230.1094
1539.496, 268.7734
1540.529, 382.4258
1541.561, 32.17188
1542.594, 116.0039
1543.626, 469.2852
1544.658, 444.6992
1545.690, 614.6758
1546.722, 66.98047
1547.753, 582.4297
1548.785, 506.8750
1549.816, 9.500000
1550.847, 477.5820
1551.878, 23.05078
1552.909, 647.7305
1553.940, 483.2227
1554.971, 378.8906
1556.001, 33.99609
1557.031, 435.8516
1558.062, 209.8516
1559.092, 3.636719
1560.121, 209.3867
1561.151, 69.66797
1562.181, 0.0000000E+00
##END=



