##NAMES=Heulandite-Ca
##RRUFFID=R050097
##IDEAL CHEMISTRY=(Ca,Na,K)_5_(Si_27_Al_9_)O_72_&#183;26H_2_O
##LOCALITY=Rat's Nest Claim, Custer County, Idaho, USA
##OWNER=RRUFF
##SOURCE=John Cornish
##DESCRIPTION=Pale pink coffin-shaped tabular single crystals
##STATUS=The identification of this mineral has been confirmed by X-ray diffraction and chemical analysis
##URL=rruff.info/R050097
##MEASURED CHEMISTRY=(Ca_0.66_Na_0.30_K_0.04_)_5_(Si_0.77_Al_0.23_)_36_O_72_Â·24H_2_O
##PIN_ID=L00100
##ORIENTATION=Laser parallel to a* (1 0 0). Fiducial mark perpendicular to laser is parallel to b [0 1 0]
120.5960, 0.0000000E+00
121.8270, 5.861328
123.0580, 131.3555
124.2880, 101.2070
125.5190, 80.48828
126.7490, 370.8164
127.9790, 343.0039
129.2090, 333.7656
130.4390, 702.4316
131.6680, 522.6562
132.8980, 479.1836
134.1270, 714.9922
135.3560, 805.8945
136.5850, 921.7637
137.8140, 1177.365
139.0430, 1418.926
140.2710, 1460.002
141.5000, 1419.348
142.7280, 1431.326
143.9560, 1248.594
145.1840, 1722.744
146.4120, 1472.992
147.6390, 1833.723
148.8670, 1659.428
150.0940, 1963.496
151.3210, 1951.061
152.5490, 2088.145
153.7750, 1913.994
155.0020, 2011.785
156.2290, 1888.939
157.4550, 1995.088
158.6810, 1773.615
159.9080, 1663.225
161.1340, 1671.000
162.3590, 1795.055
163.5850, 1539.889
164.8110, 1476.150
166.0360, 1215.980
167.2610, 1256.486
168.4860, 1186.393
169.7110, 1166.145
170.9360, 929.7441
172.1610, 932.5508
173.3850, 948.3984
174.6100, 1079.215
175.8340, 1093.873
177.0580, 870.5312
178.2820, 925.5996
179.5050, 863.9375
180.7290, 690.7051
181.9520, 722.6055
183.1760, 843.0332
184.3990, 782.5801
185.6220, 837.6992
186.8450, 736.6523
188.0670, 866.8613
189.2900, 628.6641
190.5120, 775.0781
191.7340, 729.0449
192.9560, 664.5840
194.1780, 673.3457
195.4000, 742.2148
196.6220, 610.9883
197.8430, 710.1406
199.0640, 628.6387
200.2860, 683.1328
201.5070, 755.4082
202.7270, 456.0723
203.9480, 479.0332
205.1690, 177.5273
206.3890, 250.7266
207.6090, 161.7461
208.8290, 112.3223
210.0490, 138.1484
211.2690, 59.99609
212.4890, 25.54688
213.7080, 97.96094
214.9280, 51.27148
216.1470, 23.50781
217.3660, 206.4512
218.5850, 211.8008
219.8030, 134.9434
221.0220, 102.1660
222.2400, 157.9531
223.4590, 116.3223
224.6770, 131.2852
225.8950, 98.54492
227.1120, 145.2422
228.3300, 82.00000
229.5480, 99.81445
230.7650, 21.31055
231.9820, 205.3770
233.1990, 19.38281
234.4160, 236.3301
235.6330, 59.20703
236.8490, 67.98047
238.0660, 28.63281
239.2820, 357.1504
240.4980, 69.51172
241.7140, 100.2949
242.9300, 341.5039
244.1460, 279.9395
245.3610, 414.0430
246.5770, 69.83789
247.7920, 517.3398
249.0070, 376.6328
250.2220, 457.8555
251.4370, 300.0117
252.6510, 216.0977
253.8660, 512.1621
255.0800, 442.1602
256.2940, 346.1406
257.5080, 505.1074
258.7220, 764.0879
259.9360, 972.1133
261.1490, 480.1523
262.3630, 284.1855
263.5760, 303.2207
264.7890, 236.2715
266.0020, 228.3809
267.2150, 174.5625
268.4270, 267.2578
269.6400, 334.5527
270.8520, 365.9336
272.0640, 391.3340
273.2760, 404.7109
274.4880, 328.0312
275.7000, 118.2656
276.9120, 302.3867
278.1230, 377.4238
279.3340, 217.3477
280.5450, 344.1230
281.7560, 189.7363
282.9670, 106.1816
284.1780, 141.4453
285.3880, 169.5293
286.5980, 304.4453
287.8090, 344.1895
289.0190, 427.7578
290.2290, 467.1309
291.4380, 499.3418
292.6480, 505.3105
293.8570, 359.0410
295.0670, 343.5273
296.2760, 303.7832
297.4850, 265.8047
298.6930, 344.6113
299.9020, 446.2129
301.1110, 455.6191
302.3190, 277.8496
303.5270, 368.8984
304.7350, 515.7832
305.9430, 298.5059
307.1510, 382.0801
308.3580, 444.4863
309.5660, 472.6797
310.7730, 519.9492
311.9800, 606.3828
313.1870, 567.8750
314.3940, 654.0840
315.6010, 675.6914
316.8070, 456.8652
318.0130, 576.5996
319.2200, 581.9512
320.4260, 682.9395
321.6310, 496.6836
322.8370, 707.3105
324.0430, 886.8418
325.2480, 577.2539
326.4540, 738.2617
327.6590, 656.1660
328.8640, 816.2910
330.0680, 846.3555
331.2730, 961.3867
332.4780, 932.2207
333.6820, 818.1699
334.8860, 801.5273
336.0900, 1243.430
337.2940, 920.1934
338.4980, 1147.664
339.7010, 1078.143
340.9050, 1033.889
342.1080, 1007.072
343.3110, 1071.652
344.5140, 1216.854
345.7170, 1211.260
346.9200, 1097.805
348.1220, 1246.180
349.3240, 1197.615
350.5270, 1257.846
351.7290, 1338.850
352.9310, 1309.895
354.1320, 1619.197
355.3340, 1557.934
356.5350, 1305.154
357.7370, 1661.238
358.9380, 1559.322
360.1390, 1811.365
361.3400, 1762.736
362.5400, 1988.680
363.7410, 1938.338
364.9410, 2161.869
366.1410, 2185.512
367.3410, 2234.594
368.5410, 2298.717
369.7410, 2333.527
370.9400, 2416.771
372.1400, 2435.855
373.3390, 2567.447
374.5380, 2660.609
375.7370, 2733.104
376.9360, 2762.408
378.1350, 3077.426
379.3330, 3034.426
380.5310, 3405.848
381.7300, 3412.545
382.9280, 3536.041
384.1260, 3712.697
385.3230, 3917.131
386.5210, 4170.291
387.7180, 4319.070
388.9160, 4411.648
390.1130, 4790.018
391.3100, 5127.473
392.5060, 5330.393
393.7030, 5394.596
394.9000, 5837.490
396.0960, 5910.078
397.2920, 6359.242
398.4880, 6501.168
399.6840, 6429.049
400.8800, 6556.223
402.0750, 6470.137
403.2710, 6433.191
404.4660, 6377.648
405.6610, 6237.352
406.8560, 6121.568
408.0510, 5935.680
409.2450, 5707.582
410.4400, 5520.084
411.6340, 5347.766
412.8280, 5070.777
414.0220, 4874.375
415.2160, 4409.430
416.4100, 4083.801
417.6030, 3788.148
418.7970, 3468.055
419.9900, 3205.086
421.1830, 2914.350
422.3760, 2744.613
423.5690, 2394.504
424.7610, 2237.428
425.9540, 1969.781
427.1460, 2077.580
428.3380, 1862.738
429.5300, 1897.701
430.7220, 1911.910
431.9140, 1209.393
433.1050, 1138.209
434.2970, 1092.219
435.4880, 1091.939
436.6790, 1039.512
437.8700, 1130.924
439.0610, 1139.922
440.2510, 1180.088
441.4420, 968.1992
442.6320, 1192.369
443.8220, 991.9160
445.0120, 785.7949
446.2020, 977.0078
447.3910, 798.1094
448.5810, 948.7891
449.7700, 1003.520
450.9600, 1022.562
452.1490, 1060.826
453.3370, 1153.324
454.5260, 1114.688
455.7150, 1404.527
456.9030, 1444.176
458.0910, 1687.010
459.2800, 1660.812
460.4670, 1898.918
461.6550, 1963.508
462.8430, 2003.102
464.0300, 2316.807
465.2180, 2622.018
466.4050, 2617.684
467.5920, 2953.326
468.7790, 3004.844
469.9650, 3218.449
471.1520, 3138.033
472.3380, 3729.598
473.5250, 3801.146
474.7110, 4264.672
475.8970, 4477.180
477.0820, 4625.668
478.2680, 4639.137
479.4540, 4621.590
480.6390, 4519.020
481.8240, 4466.430
483.0090, 4472.822
484.1940, 4182.193
485.3780, 3861.551
486.5630, 3608.885
487.7470, 3151.203
488.9320, 2906.504
490.1160, 2562.783
491.3000, 2474.049
492.4830, 2000.297
493.6670, 1751.695
494.8500, 1362.932
496.0340, 1545.160
497.2170, 1179.652
498.4000, 1074.873
499.5820, 810.0996
500.7650, 609.3320
501.9480, 432.5625
503.1300, 443.7988
504.3120, 535.3379
505.4940, 452.8477
506.6760, 484.6152
507.8580, 273.8672
509.0390, 347.3438
510.2210, 497.4570
511.4020, 311.6992
512.5830, 222.0762
513.7640, 313.6973
514.9450, 144.8281
516.1250, 246.3828
517.3060, 12.14453
518.4860, 36.00586
519.6660, 129.8672
520.8460, 170.8086
522.0260, 58.53711
523.2060, 34.28320
524.3850, 123.4336
525.5650, 64.43359
526.7440, 117.7480
527.9230, 134.0918
529.1020, 144.8066
530.2810, 131.4102
531.4590, 24.18555
532.6380, 170.7227
533.8160, 69.02539
534.9940, 99.78906
536.1720, 28.74219
537.3500, 76.41016
538.5270, 93.33008
539.7050, 69.14258
540.8820, 11.24023
542.0590, 86.20898
543.2360, 69.87695
544.4130, 135.5645
545.5900, 51.98633
546.7660, 40.84961
547.9430, 1.222656
549.1190, 80.68359
550.2950, 145.1914
551.4710, 136.8691
552.6470, 49.85938
553.8220, 64.63086
554.9980, 185.8223
556.1730, 100.6445
557.3480, 35.61914
558.5230, 39.49414
559.6980, 87.54492
560.8730, 15.38477
562.0470, 124.4551
563.2220, 81.11523
564.3960, 128.5820
565.5700, 283.8418
566.7440, 26.48438
567.9170, 140.9062
569.0910, 111.8672
570.2640, 44.08594
571.4380, 78.74805
572.6110, 40.56641
573.7840, 32.43164
574.9570, 254.6777
576.1290, 101.3125
577.3020, 131.8242
578.4740, 279.8633
579.6460, 84.30469
580.8180, 176.9434
581.9900, 302.3438
583.1620, 390.7285
584.3330, 317.1523
585.5040, 171.5137
586.6760, 142.9805
587.8470, 589.4258
589.0180, 322.7148
590.1880, 570.9824
591.3590, 535.2324
592.5290, 483.5117
593.7000, 525.9199
594.8700, 682.1152
596.0400, 596.6543
597.2090, 718.0059
598.3790, 888.1699
599.5490, 698.3105
600.7180, 801.5176
601.8870, 844.6172
603.0560, 1004.311
604.2250, 983.9805
605.3940, 1137.598
606.5620, 1046.617
607.7300, 1102.215
608.8990, 1291.398
610.0670, 1192.352
611.2350, 1233.746
612.4020, 1152.195
613.5700, 1144.590
614.7370, 1008.453
615.9050, 931.6445
617.0720, 904.4648
618.2390, 954.2617
619.4060, 865.0449
620.5720, 806.8047
621.7390, 587.5391
622.9050, 720.2500
624.0710, 612.9746
625.2370, 736.6738
626.4030, 684.3496
627.5690, 461.0020
628.7340, 362.6348
629.9000, 389.2402
631.0650, 371.8242
632.2300, 518.3828
633.3950, 218.9336
634.5600, 472.4590
635.7240, 462.9609
636.8890, 193.4355
638.0530, 303.8848
639.2170, 354.3066
640.3810, 474.7012
641.5450, 295.0742
642.7080, 506.4297
643.8720, 188.7598
645.0350, 213.0566
646.1980, 167.3555
647.3610, 62.61914
648.5240, 261.8574
649.6870, 118.5293
650.8490, 98.24219
652.0120, 77.40625
653.1740, 27.48828
654.3360, 156.5781
655.4980, 62.27148
656.6600, 271.5645
657.8210, 236.6367
658.9830, 18.77734
660.1440, 213.6973
661.3050, 414.3281
662.4660, 256.4609
663.6270, 157.4590
664.7870, 160.8047
665.9480, 137.3613
667.1080, 70.37109
668.2680, 188.7930
669.4280, 318.0312
670.5880, 60.21680
671.7480, 54.54883
672.9070, 86.66992
674.0670, 39.08789
675.2260, 261.2578
676.3850, 39.00781
677.5440, 83.14062
678.7030, 210.2676
679.8610, 55.30273
681.0200, 79.72461
682.1780, 146.3516
683.3360, 135.8750
684.4940, 192.6387
685.6520, 260.0215
686.8090, 19.62500
687.9670, 249.6855
689.1240, 134.0234
690.2810, 208.4199
691.4380, 14.90625
692.5950, 155.0645
693.7520, 4.980469
694.9080, 39.72656
696.0650, 216.3535
697.2210, 256.8242
698.3770, 212.8848
699.5330, 301.4395
700.6880, 178.3496
701.8440, 109.2109
702.9990, 323.3418
704.1550, 122.9434
705.3100, 266.5156
706.4650, 74.35352
707.6190, 173.8691
708.7740, 152.6406
709.9290, 21.09961
711.0830, 199.1875
712.2370, 56.76367
713.3910, 212.2207
714.5450, 227.3652
715.6980, 22.06445
716.8520, 118.9551
718.0050, 290.9883
719.1580, 204.2910
720.3110, 257.3965
721.4640, 406.9102
722.6170, 242.8105
723.7700, 253.9648
724.9220, 223.4609
726.0740, 223.7793
727.2260, 300.7695
728.3780, 266.5664
729.5300, 313.3496
730.6810, 244.9238
731.8330, 209.9102
732.9840, 369.5020
734.1350, 168.6250
735.2860, 210.3750
736.4370, 300.8848
737.5880, 292.4883
738.7380, 239.9082
739.8880, 485.2910
741.0390, 112.6387
742.1890, 112.9473
743.3380, 121.6348
744.4880, 281.3125
745.6380, 116.5742
746.7870, 209.0898
747.9360, 444.4883
749.0850, 271.3945
750.2340, 338.7070
751.3830, 138.1016
752.5310, 334.0820
753.6800, 174.0645
754.8280, 292.4492
755.9760, 344.4707
757.1240, 351.8848
758.2720, 399.3691
759.4190, 425.9668
760.5670, 391.2012
761.7140, 460.3730
762.8610, 411.0371
764.0080, 347.0703
765.1550, 563.7305
766.3020, 457.7383
767.4480, 502.7656
768.5950, 455.2500
769.7410, 422.8594
770.8870, 549.3789
772.0330, 506.8047
773.1780, 632.1484
774.3240, 561.4570
775.4690, 535.4648
776.6140, 656.7031
777.7590, 585.9062
778.9040, 473.3125
780.0490, 588.5898
781.1940, 807.6836
782.3380, 706.4570
783.4820, 676.2500
784.6260, 509.8555
785.7700, 771.1484
786.9140, 925.2070
788.0580, 464.5000
789.2010, 792.3438
790.3450, 476.6602
791.4880, 562.4609
792.6310, 387.7734
793.7730, 199.6484
794.9160, 373.3164
796.0590, 378.8477
797.2010, 160.3320
798.3430, 425.6992
799.4850, 396.2734
800.6270, 383.7500
801.7690, 351.8438
802.9100, 440.8516
804.0520, 603.0938
805.1930, 537.0078
806.3340, 271.3086
807.4750, 482.3789
808.6160, 184.8750
809.7560, 433.3672
810.8970, 313.2695
812.0370, 590.9844
813.1770, 187.1914
814.3170, 242.4688
815.4570, 219.9258
816.5960, 142.9297
817.7360, 238.5039
818.8750, 397.8164
820.0140, 439.4453
821.1530, 369.0000
822.2920, 452.1914
823.4310, 401.1406
824.5690, 415.7070
825.7070, 361.6133
826.8460, 222.4414
827.9840, 236.2227
829.1220, 24.73438
830.2590, 67.22656
831.3970, 68.58203
832.5340, 42.38672
833.6710, 133.3398
834.8080, 0.1601560
835.9450, 129.4102
837.0820, 47.82422
838.2190, 234.8555
839.3550, 40.37109
840.4910, 7.945313
841.6270, 417.6406
842.7630, 73.86719
843.8990, 92.31641
845.0350, 14.15234
846.1700, 37.97656
847.3060, 55.67188
848.4410, 32.45703
849.5760, 176.6094
850.7100, 277.3828
851.8450, 169.1875
852.9800, 142.0664
854.1140, 292.3594
855.2480, 215.2070
856.3820, 106.8047
857.5160, 73.59375
858.6500, 260.3477
859.7830, 141.0117
860.9170, 279.6914
862.0500, 159.2188
863.1830, 259.7188
864.3160, 188.3242
865.4480, 494.9102
866.5810, 434.4570
867.7130, 114.9414
868.8460, 293.2422
869.9780, 62.71094
871.1100, 20.78125
872.2410, 61.01562
873.3730, 156.3008
874.5050, 332.5898
875.6360, 208.7656
876.7670, 389.0039
877.8980, 243.5977
879.0290, 11.16797
880.1590, 76.73438
881.2900, 165.8477
882.4200, 94.33984
883.5500, 112.1914
884.6800, 26.22266
885.8100, 112.2266
886.9400, 83.20312
888.0690, 234.6484
889.1990, 160.5703
890.3280, 54.11719
891.4570, 129.9883
892.5860, 14.16797
893.7140, 193.6328
894.8430, 260.4102
895.9710, 156.1602
897.1000, 110.1094
898.2280, 267.5234
899.3560, 57.13672
900.4830, 135.7188
901.6110, 42.28516
902.7380, 28.82031
903.8660, 180.3359
904.9930, 106.8281
906.1200, 44.70312
907.2460, 93.70312
908.3730, 289.0977
909.5000, 138.4648
910.6260, 203.8125
911.7520, 148.1367
912.8780, 427.4492
914.0040, 72.73828
915.1290, 18.00000
916.2550, 212.2305
917.3800, 175.4375
918.5050, 80.37500
919.6300, 217.7461
920.7550, 5.152344
921.8800, 82.92188
923.0040, 116.9805
924.1290, 62.97656
925.2530, 46.00391
926.3770, 190.9727
927.5010, 193.9297
928.6250, 269.9414
929.7480, 304.6602
930.8720, 244.4297
931.9950, 319.3242
933.1180, 141.7812
934.2410, 83.64844
935.3640, 284.5000
936.4860, 11.66797
937.6090, 118.1445
938.7310, 50.05859
939.8530, 73.69531
940.9750, 33.46484
942.0970, 121.7812
943.2180, 80.88672
944.3400, 6.921875
945.4610, 102.1094
946.5820, 12.51562
947.7030, 223.0703
948.8240, 161.3594
949.9450, 149.8672
951.0650, 158.2734
952.1860, 136.6484
953.3060, 84.28516
954.4260, 388.1289
955.5460, 359.5898
956.6650, 67.03906
957.7850, 334.4766
958.9040, 168.9062
960.0230, 314.3242
961.1420, 31.26953
962.2610, 416.9609
963.3800, 103.2383
964.4990, 185.5430
965.6170, 146.0078
966.7350, 319.7695
967.8530, 350.2695
968.9710, 305.3711
970.0890, 84.25391
971.2070, 157.1094
972.3240, 310.2578
973.4410, 119.5508
974.5580, 239.2305
975.6750, 460.9336
976.7920, 291.2852
977.9090, 245.9688
979.0250, 357.7305
980.1410, 141.0742
981.2580, 329.2656
982.3740, 487.8516
983.4890, 334.9531
984.6050, 493.0938
985.7200, 394.4219
986.8360, 444.5430
987.9510, 498.5469
989.0660, 397.2031
990.1810, 350.1953
991.2950, 323.0586
992.4100, 333.7852
993.5240, 443.0977
994.6390, 573.1172
995.7530, 492.4180
996.8660, 752.5156
997.9800, 766.8359
999.0940, 567.0859
1000.207, 529.3984
1001.320, 430.7109
1002.433, 623.6914
1003.546, 157.0234
1004.659, 542.8008
1005.772, 597.9062
1006.884, 369.2227
1007.996, 492.4023
1009.108, 429.7383
1010.220, 596.1016
1011.332, 642.4648
1012.444, 443.8320
1013.555, 577.7812
1014.666, 713.7070
1015.777, 320.0156
1016.888, 448.0469
1017.999, 477.1602
1019.110, 716.7695
1020.220, 455.9336
1021.331, 473.9844
1022.441, 643.4297
1023.551, 840.8359
1024.661, 589.8008
1025.770, 477.0977
1026.880, 672.9805
1027.989, 538.4453
1029.098, 565.9180
1030.207, 691.3750
1031.316, 634.4180
1032.425, 587.9414
1033.533, 573.0547
1034.642, 665.5156
1035.750, 538.6016
1036.858, 647.6680
1037.966, 622.2422
1039.073, 445.6680
1040.181, 675.1523
1041.288, 612.5430
1042.396, 563.1484
1043.503, 850.7539
1044.610, 613.3711
1045.716, 719.9961
1046.823, 562.6250
1047.929, 663.0195
1049.036, 386.5195
1050.142, 688.1719
1051.248, 439.8320
1052.353, 752.5469
1053.459, 362.2266
1054.564, 373.7852
1055.670, 297.3711
1056.775, 288.1055
1057.880, 304.4805
1058.985, 396.6641
1060.089, 496.4297
1061.194, 539.2031
1062.298, 925.9844
1063.402, 588.7812
1064.506, 247.5820
1065.610, 808.3984
1066.713, 647.2227
1067.817, 564.0195
1068.920, 716.8672
1070.023, 491.6680
1071.126, 630.5430
1072.229, 634.0781
1073.332, 525.9375
1074.435, 671.6445
1075.537, 665.8398
1076.639, 662.7695
1077.741, 648.1523
1078.843, 655.8906
1079.945, 847.9141
1081.046, 752.8984
1082.148, 856.8945
1083.249, 1077.902
1084.350, 759.9219
1085.451, 688.6953
1086.551, 907.8203
1087.652, 793.8828
1088.752, 917.9648
1089.853, 814.0625
1090.953, 848.1641
1092.053, 896.2852
1093.152, 1078.426
1094.252, 924.1836
1095.351, 978.3477
1096.451, 1004.523
1097.550, 891.4180
1098.649, 848.6445
1099.748, 772.9102
1100.846, 1249.223
1101.945, 1207.598
1103.043, 1243.996
1104.141, 1154.418
1105.239, 1007.855
1106.337, 962.3125
1107.434, 964.8047
1108.532, 1011.328
1109.629, 1072.863
1110.726, 1118.723
1111.823, 838.2969
1112.920, 1112.898
1114.017, 1255.539
1115.113, 933.3789
1116.210, 1007.473
1117.306, 1046.840
1118.402, 1053.371
1119.498, 928.6992
1120.593, 973.4688
1121.689, 950.3750
1122.784, 924.4727
1123.879, 993.1406
1124.974, 887.6172
1126.069, 954.8086
1127.164, 953.0859
1128.259, 982.9180
1129.353, 948.7344
1130.447, 931.3555
1131.541, 982.3477
1132.635, 995.7969
1133.729, 954.9648
1134.822, 986.8594
1135.916, 879.4727
1137.009, 894.2812
1138.102, 962.0039
1139.195, 919.2305
1140.288, 952.4883
1141.380, 748.8867
1142.473, 970.0000
1143.565, 890.1250
1144.657, 965.2695
1145.749, 785.4336
1146.841, 869.6211
1147.932, 983.8945
1149.024, 567.1211
1150.115, 916.7070
1151.206, 516.0156
1152.297, 1184.344
1153.388, 725.7500
1154.479, 879.1133
1155.569, 796.4844
1156.659, 699.0469
1157.750, 761.1289
1158.839, 713.9805
1159.929, 725.4297
1161.019, 812.8945
1162.108, 761.9648
1163.198, 755.8086
1164.287, 730.0156
1165.376, 712.6211
1166.465, 710.1992
1167.553, 808.6992
1168.642, 985.7461
1169.730, 735.3789
1170.818, 1001.027
1171.906, 576.7070
1172.994, 665.4062
1174.082, 794.1172
1175.170, 378.8438
1176.257, 696.5859
1177.344, 377.3359
1178.431, 696.1055
1179.518, 295.8945
1180.605, 467.7031
1181.691, 268.5312
1182.778, 381.3711
1183.864, 560.2500
1184.950, 562.3867
1186.036, 402.3047
1187.122, 440.2344
1188.207, 413.1836
1189.292, 232.1641
1190.378, 344.1602
1191.463, 112.1641
1192.548, 323.1914
1193.632, 254.2266
1194.717, 201.2773
1195.801, 398.3398
1196.886, 479.4219
1197.970, 335.6367
1199.054, 372.7422
1200.137, 151.8633
1201.221, 168.0000
1202.305, 395.1562
1203.388, 216.3398
1204.471, 315.5391
1205.554, 342.7461
1206.637, 121.0078
1207.719, 223.2773
1208.802, 233.5664
1209.884, 293.9023
1210.966, 136.2500
1212.048, 160.6133
1213.130, 16.98828
1214.212, 239.3789
1215.293, 104.7812
1216.374, 164.2305
1217.456, 286.2812
1218.536, 261.0859
1219.617, 143.4727
1220.698, 111.8711
1221.778, 398.2773
1222.859, 247.7031
1223.939, 80.13672
1225.019, 253.5938
1226.099, 278.0664
1227.178, 24.45703
1228.258, 311.0352
1229.337, 242.5312
1230.417, 406.0469
1231.496, 176.5664
1232.574, 312.1133
1233.653, 116.6719
1234.732, 142.2422
1235.810, 276.8242
1236.888, 388.4180
1237.966, 374.0234
1239.044, 331.6367
1240.122, 9.855469
1241.199, 456.7891
1242.277, 395.4375
1243.354, 83.10156
1244.431, 398.7773
1245.508, 239.4570
1246.585, 80.15625
1247.661, 156.8555
1248.738, 27.57422
1249.814, 227.2969
1250.890, 239.0312
1251.966, 270.7812
1253.042, 283.5352
1254.117, 145.3008
1255.193, 310.0742
1256.268, 302.8633
1257.343, 32.65625
1258.418, 88.53906
1259.493, 162.2539
1260.567, 158.0625
1261.642, 4.121094
1262.716, 108.2969
1263.790, 10.48438
1264.864, 5.722656
1265.938, 55.07422
1267.011, 136.8867
1268.085, 80.70312
1269.158, 24.53125
1270.231, 118.6328
1271.304, 156.1602
1272.377, 27.95703
1273.450, 133.7695
1274.522, 149.5938
1275.594, 74.42578
1276.666, 58.73828
1277.738, 122.3242
1278.810, 133.8516
1279.882, 185.2344
1280.953, 188.0391
1282.025, 12.15234
1283.096, 167.6562
1284.167, 385.4766
1285.238, 258.3008
1286.308, 34.86719
1287.379, 183.9570
1288.449, 67.78516
1289.519, 332.6211
1290.589, 143.5352
1291.659, 31.24219
1292.729, 77.02344
1293.798, 395.8164
1294.868, 170.6133
1295.937, 121.5781
1297.006, 233.1797
1298.075, 396.9336
1299.143, 196.7031
1300.212, 532.4805
1301.280, 225.2656
1302.348, 219.0508
1303.416, 335.8438
1304.484, 192.6445
1305.552, 258.2734
1306.620, 91.26172
1307.687, 240.0781
1308.754, 147.8984
1309.821, 74.72656
1310.888, 356.5586
1311.955, 280.3906
1313.021, 114.7656
1314.088, 287.0156
1315.154, 44.80078
1316.220, 328.5859
1317.286, 320.3828
1318.352, 402.1875
1319.417, 441.9922
1320.483, 535.8047
1321.548, 278.6250
1322.613, 371.4414
1323.678, 311.2578
1324.743, 95.08203
1325.807, 19.91016
1326.872, 152.7461
1327.936, 127.5859
1329.000, 187.4258
1330.064, 232.2695
1331.128, 271.1211
1332.191, 366.9766
1333.255, 327.8359
1334.318, 375.7031
1335.381, 223.5742
1336.444, 344.4453
1337.507, 202.3203
1338.569, 139.2070
1339.632, 419.0938
1340.694, 568.9844
1341.756, 548.9219
1342.818, 637.8438
1343.880, 594.6875
1344.941, 475.5938
1346.003, 535.5078
1347.064, 222.4180
1348.125, 180.3320
1349.186, 491.2539
1350.247, 249.1758
1351.308, 291.1016
1352.368, 326.0352
1353.428, 247.9727
1354.489, 200.9102
1355.549, 210.6484
1356.608, 367.1055
1357.668, 265.0547
1358.727, 247.0117
1359.787, 411.0820
1360.846, 361.0430
1361.905, 345.0312
1362.964, 214.9805
1364.022, 252.9453
1365.081, 210.8438
1366.139, 212.7500
1367.197, 1.347656
1368.255, 365.8945
1369.313, 269.8047
1370.371, 356.7148
1371.428, 142.6250
1372.486, 198.5430
1373.543, 189.4648
1374.600, 492.3906
1375.657, 326.3164
1376.713, 558.2500
1377.770, 432.1875
1378.826, 419.1328
1379.882, 150.0742
1380.938, 379.0273
1381.994, 247.9844
1383.050, 195.9414
1384.106, 352.9062
1385.161, 543.8750
1386.216, 443.7305
1387.271, 377.4180
1388.326, 58.40234
1389.381, 196.1367
1390.435, 79.65625
1391.490, 30.65234
1392.544, 96.15234
1393.598, 74.53516
1394.652, 115.4961
1395.705, 237.5195
1396.759, 176.5508
1397.812, 399.3906
1398.866, 307.4844
1399.919, 344.8125
1400.972, 234.2539
1402.024, 229.3086
1403.077, 253.3711
1404.129, 12.62891
1405.181, 228.4141
1406.233, 176.7500
1407.285, 237.2578
1408.337, 104.2773
1409.389, 431.0469
1410.440, 164.0586
1411.491, 90.07812
1412.542, 229.1094
1413.593, 340.0977
1414.644, 37.14844
1415.695, 258.2070
1416.745, 122.2773
1417.795, 294.6953
1418.845, 47.69531
1419.895, 354.9023
1420.945, 68.36719
1421.995, 157.6875
1423.044, 250.0039
1424.093, 224.2891
1425.142, 333.8906
1426.191, 36.92969
1427.240, 64.96875
1428.289, 181.8867
1429.337, 279.7812
1430.385, 302.6758
1431.433, 112.5625
1432.481, 214.4492
1433.529, 125.3320
1434.577, 94.20312
1435.624, 247.0430
1436.672, 370.8359
1437.719, 252.5938
1438.766, 447.4609
1439.812, 193.9492
1440.859, 463.6758
1441.905, 319.4844
1442.952, 377.2930
1443.998, 421.0000
1445.044, 438.7266
1446.090, 187.4375
1447.135, 702.8906
1448.181, 153.9648
1449.226, 745.0859
1450.271, 366.0781
1451.316, 553.1953
1452.361, 487.3164
1453.405, 991.4375
1454.450, 497.5625
1455.494, 549.6875
1456.538, 794.8164
1457.582, 455.9414
1458.626, 410.0664
1459.670, 228.1914
1460.713, 448.4609
1461.757, 412.7344
1462.800, 355.0039
1463.843, 532.2852
1464.886, 198.5703
1465.928, 399.8594
1466.971, 548.1406
1468.013, 382.4102
1469.055, 567.6836
1470.097, 689.9609
1471.139, 344.1523
1472.181, 622.4062
1473.222, 276.6719
1474.263, 447.9336
1475.305, 412.2070
1476.346, 191.4727
1477.386, 191.7461
1478.427, 487.0156
1479.468, 315.2969
1480.508, 302.5703
1481.548, 136.8398
1482.588, 116.1875
1483.628, 170.5156
1484.668, 33.10938
1485.707, 385.2891
1486.747, 453.7188
1487.786, 656.1523
1488.825, 606.2031
1489.864, 135.2617
1490.902, 258.5430
1491.941, 271.8281
1492.979, 32.88281
1494.017, 124.4297
1495.055, 296.7539
1496.093, 287.1953
1497.131, 388.6367
1498.168, 372.1055
1499.206, 272.6602
1500.243, 291.1953
1501.280, 171.7422
1502.317, 109.3047
1503.354, 280.8789
1504.390, 276.4609
1505.426, 171.0664
1506.463, 260.7461
1507.499, 348.5117
1508.535, 202.2969
1509.570, 257.0938
1510.606, 68.09766
1511.641, 8.242188
1512.676, 462.6328
1513.711, 103.5234
1514.746, 118.4375
1515.781, 329.3633
1516.816, 71.31250
1517.850, 206.2773
1518.884, 701.2578
1519.918, 213.2578
1520.952, 299.2734
1521.986, 134.3242
1523.019, 12.41406
1524.053, 115.5273
1525.086, 97.57422
1526.119, 364.8320
1527.152, 318.0273
1528.185, 205.2500
1529.217, 366.4258
1530.250, 76.44531
1531.282, 284.9766
1532.314, 375.6680
1533.346, 3.796875
1534.377, 279.8633
1535.409, 603.5820
1536.440, 209.3594
1537.472, 111.1836
1538.503, 225.0625
1539.534, 381.0039
1540.564, 386.0039
1541.595, 366.0977
1542.625, 290.6641
1543.656, 114.9688
1544.686, 56.54297
1545.716, 96.96875
1546.745, 30.69141
1547.775, 111.3047
1548.804, 41.40625
1549.834, 300.6445
1550.863, 325.0039
1551.892, 200.0664
1552.920, 165.6680
1553.949, 596.1758
1554.977, 570.9258
1556.006, 386.6133
1557.034, 381.3867
1558.062, 263.8281
1559.089, 242.3398
1560.117, 296.8359
1561.144, 249.5039
1562.172, 151.5625
1563.199, 232.0469
1564.226, 303.1484
1565.252, 175.6875
1566.279, 180.5664
1567.305, 429.9570
1568.332, 32.22656
1569.358, 305.3203
1570.384, 1.496094
1571.409, 0.0000000E+00
##END=



