##NAMES=Heulandite-Ca
##RRUFFID=R050017
##IDEAL CHEMISTRY=(Ca,Na,K)_5_(Si_27_Al_9_)O_72_&#183;26H_2_O
##LOCALITY=Poona, Maharashtra State, India
##OWNER=RRUFF
##SOURCE=Eugene Schlepp
##DESCRIPTION=Single crystals
##STATUS=The identification of this mineral has been confirmed by X-ray diffraction and chemical analysis
##URL=rruff.info/R050017
##MEASURED CHEMISTRY=(Ca_.70_Na_.22_K_.02_[box]_0.06_)_5_(Si_0.77_Al_0.23_)_36_O_72_Â·24H_2_O
##PIN_ID=L00517
##ORIENTATION=Laser parallel to c* (0 0 1). Fiducial mark perpendicular to laser is parallel to -a [-1 0 0]
200.029, 0.000
201.405, 120.836
202.782, 1.170
204.158, 207.303
205.534, 286.225
206.909, 12.760
208.285, 297.855
209.660, 229.242
211.035, 28.578
212.410, 200.213
213.784, 246.350
215.159, 248.584
216.533, 205.566
217.907, 88.963
219.281, 68.705
220.654, 17.711
222.027, 201.916
223.400, 32.766
224.773, 39.600
226.146, 53.959
227.518, 159.738
228.891, 35.537
230.263, 28.484
231.634, 71.373
233.006, 90.992
234.377, 94.336
235.748, 87.363
237.119, 30.039
238.490, 138.648
239.860, 301.203
241.231, 357.635
242.601, 341.586
243.970, 477.020
245.340, 784.900
246.709, 603.207
248.079, 895.941
249.448, 653.109
250.816, 985.711
252.185, 972.750
253.553, 985.203
254.921, 1250.051
256.289, 1103.271
257.657, 1230.844
259.024, 1157.754
260.391, 1185.980
261.758, 1113.508
263.125, 1063.326
264.492, 1149.420
265.858, 1040.779
267.224, 1183.393
268.590, 882.246
269.956, 1184.334
271.321, 1169.646
272.687, 984.174
274.052, 900.910
275.416, 906.846
276.781, 991.973
278.146, 929.285
279.510, 983.781
280.874, 999.457
282.237, 1208.293
283.601, 936.219
284.964, 961.211
286.327, 1264.250
287.690, 1088.336
289.053, 1398.461
290.416, 1620.676
291.778, 1342.107
293.140, 1349.760
294.502, 1278.740
295.863, 1502.100
297.225, 1514.730
298.586, 1534.703
299.947, 1778.969
301.308, 1630.582
302.668, 1559.371
304.029, 1902.355
305.389, 1877.451
306.749, 2048.605
308.108, 2135.816
309.468, 2206.072
310.827, 2392.379
312.186, 2462.738
313.545, 2723.137
314.903, 2946.588
316.262, 3014.086
317.620, 3359.633
318.978, 3614.227
320.336, 3688.869
321.693, 3904.561
323.051, 4130.301
324.408, 3980.088
325.765, 4639.926
327.121, 4205.807
328.478, 4561.736
329.834, 4720.711
331.190, 4827.732
332.546, 4536.797
333.902, 5000.906
335.257, 4877.055
336.612, 5067.248
337.967, 5022.482
339.322, 5194.754
340.677, 5397.066
342.031, 5265.414
343.385, 5495.801
344.739, 5686.223
346.093, 5745.680
347.446, 6052.459
348.799, 6204.691
350.153, 6536.242
351.505, 6772.828
352.858, 6936.441
354.210, 7177.094
355.563, 7544.805
356.915, 7755.602
358.267, 8376.463
359.618, 8528.367
360.969, 9076.359
362.321, 9493.451
363.672, 10017.666
365.022, 10531.180
366.373, 10830.961
367.723, 11319.902
369.073, 11754.688
370.423, 12583.414
371.773, 12627.320
373.122, 13383.895
374.471, 14333.459
375.821, 14716.871
377.169, 15849.949
378.518, 16246.004
379.866, 16993.605
381.215, 18042.748
382.563, 18939.369
383.910, 19775.719
385.258, 21205.453
386.605, 22514.740
387.952, 23235.977
389.299, 25190.094
390.646, 26222.215
391.992, 27829.262
393.339, 29681.055
394.685, 31397.488
396.031, 33265.527
397.376, 34736.422
398.722, 36525.344
400.067, 37290.578
401.412, 38347.312
402.757, 38771.898
404.101, 38784.512
405.446, 38789.293
406.790, 37860.844
408.134, 37148.816
409.478, 35759.172
410.821, 34280.211
412.165, 31922.111
413.508, 30947.785
414.851, 28882.775
416.193, 26735.842
417.536, 25358.922
418.878, 23627.828
420.220, 22070.014
421.562, 19645.236
422.904, 18684.502
424.245, 17449.805
425.586, 15463.148
426.927, 14466.527
428.268, 12695.945
429.609, 11469.398
430.949, 10569.879
432.289, 9877.391
433.629, 8499.934
434.969, 8215.500
436.309, 6988.096
437.648, 6785.715
438.987, 6171.359
440.326, 5770.029
441.665, 5431.721
443.003, 5330.434
444.342, 5201.168
445.680, 5097.922
447.018, 5141.693
448.355, 4944.484
449.693, 5234.293
451.030, 5438.115
452.367, 5972.955
453.704, 6019.809
455.041, 6777.676
456.377, 7213.555
457.713, 7875.443
459.049, 8754.344
460.385, 9695.250
461.721, 10848.160
463.056, 11356.074
464.391, 12038.988
465.726, 13134.910
467.061, 13230.828
468.395, 13750.742
469.730, 14530.664
471.064, 14550.578
472.398, 15802.496
473.731, 16044.408
475.065, 17236.316
476.398, 18680.227
477.731, 20225.135
479.064, 21602.041
480.397, 23163.936
481.729, 24533.832
483.062, 25114.723
484.394, 25483.609
485.725, 24840.482
487.057, 23992.361
488.389, 22304.225
489.720, 20158.082
491.051, 18438.938
492.382, 16069.781
493.712, 13942.621
495.043, 11714.453
496.373, 9979.273
497.703, 8564.086
499.032, 7355.908
500.362, 5996.721
501.691, 5308.523
503.020, 4213.318
504.349, 3869.348
505.678, 3176.178
507.007, 2872.570
508.335, 2473.818
509.663, 2067.207
510.991, 1917.574
512.319, 1618.846
513.646, 1521.955
514.973, 1205.816
516.300, 1273.234
517.627, 1122.004
518.954, 735.465
520.280, 928.207
521.607, 673.783
522.933, 645.105
524.259, 549.453
525.584, 426.359
526.910, 444.865
528.235, 406.234
529.560, 416.256
530.885, 63.615
532.209, 171.004
533.534, 284.014
534.858, 296.672
536.182, 491.207
537.506, 4.730
538.829, 57.443
540.152, 133.533
541.476, 21.205
542.799, 113.662
544.121, 138.945
545.444, 180.707
546.766, 157.043
548.088, 197.438
549.410, 264.652
550.732, 67.494
552.053, 242.131
553.375, 124.996
554.696, 96.965
556.017, 108.230
557.337, 136.338
558.658, 170.869
559.978, 110.152
561.298, 3.543
562.618, 76.684
563.938, 79.434
565.257, 30.496
566.576, 39.213
567.895, 101.523
569.214, 199.648
570.533, 27.045
571.851, 89.248
573.170, 316.844
574.488, 263.127
575.805, 285.936
577.123, 89.779
578.440, 317.967
579.758, 559.561
581.075, 295.008
582.391, 910.482
583.708, 778.635
585.024, 844.568
586.341, 979.631
587.657, 1205.953
588.972, 1394.844
590.288, 1208.699
591.603, 1161.516
592.918, 1494.684
594.233, 1695.600
595.548, 2048.305
596.863, 2214.816
598.177, 2333.816
599.491, 2733.402
600.805, 2871.824
602.119, 3035.326
603.432, 3573.213
604.746, 3768.633
606.059, 3722.221
607.372, 3965.561
608.685, 4271.859
609.997, 4131.115
611.309, 4084.328
612.621, 3968.508
613.933, 4240.658
615.245, 4023.771
616.557, 4090.842
617.868, 4055.885
619.179, 3758.881
620.490, 3747.836
621.801, 3975.744
623.111, 3627.607
624.421, 3870.441
625.731, 3350.250
627.041, 3278.010
628.351, 2673.729
629.660, 2194.414
630.970, 2285.070
632.279, 1902.676
633.588, 1596.234
634.896, 1242.875
636.205, 1428.359
637.513, 1252.795
638.821, 1327.344
640.129, 1467.684
641.437, 1575.975
642.744, 1627.320
644.051, 1549.611
645.358, 1634.797
646.665, 1669.936
647.972, 1473.469
649.278, 1411.527
650.584, 1252.164
651.890, 1453.166
653.196, 1263.133
654.502, 1080.627
655.807, 860.869
657.113, 702.703
658.418, 623.174
659.722, 533.951
661.027, 340.625
662.331, 155.988
663.636, 254.135
664.940, 20.635
666.244, 251.656
667.547, 13.395
668.851, 275.848
670.154, 126.486
671.457, 151.875
672.760, 234.217
674.062, 2.086
675.365, 104.801
676.667, 34.637
677.969, 14.229
679.271, 44.549
680.572, 71.066
681.874, 140.762
683.175, 193.131
684.476, 41.369
685.777, 53.803
687.077, 24.889
688.378, 215.609
689.678, 132.648
690.978, 167.504
692.278, 233.709
693.577, 287.906
694.877, 115.510
696.176, 306.859
697.475, 499.027
698.774, 432.840
700.072, 237.963
701.371, 154.350
702.669, 20.033
703.967, 222.760
705.265, 407.875
706.562, 241.641
707.860, 9.354
709.157, 177.543
710.454, 66.428
711.751, 215.010
713.047, 25.379
714.344, 213.229
715.640, 67.447
716.936, 8.359
718.232, 294.426
719.527, 154.066
720.823, 202.582
722.118, 107.656
723.413, 23.367
724.708, 117.803
726.002, 340.428
727.297, 77.725
728.591, 217.240
729.885, 316.902
731.179, 149.480
732.472, 132.043
733.766, 48.203
735.059, 173.658
736.352, 200.154
737.645, 184.510
738.937, 251.816
740.230, 56.123
741.522, 35.326
742.814, 185.230
744.106, 290.713
745.397, 289.121
746.689, 337.961
747.980, 185.090
749.271, 235.418
750.562, 288.285
751.853, 73.119
753.143, 184.889
754.433, 284.914
755.723, 63.770
757.013, 389.609
758.303, 170.188
759.592, 323.719
760.881, 220.268
762.170, 520.072
763.459, 413.465
764.748, 304.152
766.036, 659.674
767.325, 438.926
768.613, 508.549
769.901, 515.666
771.188, 369.051
772.476, 673.238
773.763, 383.484
775.050, 635.729
776.337, 603.822
777.624, 712.777
778.910, 575.658
780.196, 819.061
781.482, 699.832
782.768, 460.248
784.054, 663.164
785.339, 643.531
786.625, 376.129
787.910, 621.680
789.195, 253.184
790.479, 456.646
791.764, 590.260
793.048, 237.787
794.332, 586.340
795.616, 350.885
796.900, 462.578
798.183, 246.812
799.467, 323.035
800.750, 310.502
802.033, 169.578
803.316, 326.094
804.598, 137.891
805.880, 345.727
807.163, 310.898
808.445, 151.838
809.726, 17.357
811.008, 341.098
812.289, 118.777
813.570, 271.410
814.851, 293.000
816.132, 103.303
817.413, 32.744
818.693, 329.564
819.973, 130.410
821.253, 132.238
822.533, 343.031
823.813, 157.748
825.092, 199.570
826.371, 194.689
827.650, 93.090
828.929, 293.082
830.208, 248.326
831.486, 151.230
832.764, 201.291
834.042, 242.502
835.320, 174.635
836.598, 293.162
837.875, 187.119
839.152, 305.084
840.429, 372.051
841.706, 384.373
842.983, 187.801
844.259, 265.363
845.536, 233.135
846.812, 176.441
848.088, 293.521
849.363, 126.771
850.639, 241.459
851.914, 244.828
853.189, 299.359
854.464, 242.340
855.739, 219.186
857.013, 301.363
858.288, 328.139
859.562, 259.164
860.836, 316.564
862.110, 143.094
863.383, 172.576
864.656, 280.867
865.930, 217.082
867.203, 272.326
868.475, 284.947
869.748, 77.834
871.020, 245.742
872.292, 256.025
873.564, 100.965
874.836, 258.688
876.108, 126.168
877.379, 96.574
878.650, 145.377
879.922, 113.715
881.192, 203.119
882.463, 175.826
883.733, 137.746
885.004, 147.178
886.274, 20.299
887.544, 145.697
888.813, 99.025
890.083, 138.256
891.352, 196.840
892.621, 106.781
893.890, 173.523
895.159, 4.379
896.427, 22.941
897.695, 28.613
898.964, 165.014
900.232, 10.691
901.499, 10.857
902.767, 116.779
904.034, 105.066
905.301, 141.740
906.568, 33.098
907.835, 61.742
909.102, 51.754
910.368, 173.053
911.634, 190.930
912.900, 85.039
914.166, 20.549
915.432, 110.064
916.697, 16.945
917.962, 44.500
919.227, 52.605
920.492, 42.137
921.757, 33.408
923.021, 30.453
924.285, 72.994
925.550, 40.520
926.813, 28.584
928.077, 53.592
929.341, 74.479
930.604, 72.965
931.867, 82.449
933.130, 105.439
934.393, 7.715
935.655, 60.104
936.918, 69.326
938.180, 125.266
939.442, 130.359
940.703, 91.068
941.965, 94.355
943.226, 29.473
944.488, 39.004
945.749, 21.201
947.009, 11.578
948.270, 100.268
949.530, 77.479
950.791, 54.668
952.051, 0.201
953.311, 72.615
954.570, 86.670
955.830, 108.291
957.089, 94.152
958.348, 66.178
959.607, 43.771
960.866, 87.984
962.124, 38.041
963.383, 61.283
964.641, 157.902
965.899, 91.193
967.156, 153.531
968.414, 134.119
969.671, 115.863
970.928, 44.807
972.185, 18.914
973.442, 17.650
974.699, 155.002
975.955, 193.898
977.211, 16.980
978.468, 80.049
979.723, 139.699
980.979, 189.076
982.234, 403.439
983.490, 25.430
984.745, 382.682
986.000, 439.127
987.254, 270.322
988.509, 551.777
989.763, 387.049
991.017, 596.549
992.271, 400.064
993.525, 522.615
994.779, 823.055
996.032, 729.668
997.285, 484.617
998.538, 831.820
999.791, 1035.330
1001.044, 1102.562
1002.296, 626.551
1003.548, 852.320
1004.800, 796.850
1006.052, 729.852
1007.304, 1054.402
1008.555, 918.471
1009.807, 956.232
1011.058, 958.992
1012.309, 956.756
1013.559, 938.451
1014.810, 792.242
1016.060, 1266.064
1017.310, 1210.891
1018.560, 998.736
1019.810, 1443.584
1021.060, 1536.188
1022.309, 1393.078
1023.558, 1550.971
1024.807, 1348.707
1026.056, 1615.600
1027.305, 1310.453
1028.553, 1596.197
1029.801, 1484.104
1031.049, 1311.926
1032.297, 1245.859
1033.545, 1196.787
1034.793, 1321.734
1036.040, 1236.674
1037.287, 1262.193
1038.534, 1432.145
1039.781, 1494.010
1041.027, 1499.977
1042.274, 1265.965
1043.520, 1506.908
1044.766, 1258.928
1046.012, 1285.203
1047.257, 1315.881
1048.503, 1559.586
1049.748, 1269.648
1050.993, 1826.762
1052.238, 1861.455
1053.483, 1781.562
1054.727, 1409.666
1055.971, 1459.787
1057.216, 1196.605
1058.459, 1332.561
1059.703, 1369.482
1060.947, 1383.631
1062.190, 1448.785
1063.433, 1422.871
1064.676, 1402.723
1065.919, 1433.943
1067.162, 1608.824
1068.404, 1377.836
1069.646, 1352.076
1070.888, 1518.904
1072.130, 1591.197
1073.372, 1627.326
1074.613, 1810.193
1075.855, 1778.293
1077.096, 2033.451
1078.337, 2124.537
1079.578, 2202.863
1080.818, 2400.916
1082.059, 2571.770
1083.299, 2704.795
1084.539, 2665.428
1085.779, 2814.621
1087.018, 2804.520
1088.258, 2852.801
1089.497, 2857.389
1090.736, 2950.684
1091.975, 2977.975
1093.213, 3051.078
1094.452, 3277.227
1095.690, 2997.311
1096.928, 3321.361
1098.166, 3212.293
1099.404, 3468.572
1100.642, 3357.973
1101.879, 3581.715
1103.116, 3476.033
1104.353, 3740.344
1105.590, 3619.406
1106.827, 3875.838
1108.063, 3609.180
1109.299, 3988.932
1110.536, 3937.656
1111.771, 3896.588
1113.007, 3850.947
1114.243, 3845.176
1115.478, 3920.658
1116.713, 3857.031
1117.948, 4012.410
1119.183, 4048.137
1120.418, 3896.543
1121.652, 4212.838
1122.886, 4285.135
1124.120, 4368.543
1125.354, 4109.953
1126.588, 4260.260
1127.821, 4090.674
1129.055, 4151.086
1130.288, 4335.500
1131.521, 4255.910
1132.753, 4144.270
1133.986, 4155.676
1135.218, 4413.082
1136.450, 3990.480
1137.682, 4440.324
1138.914, 4093.713
1140.146, 4258.146
1141.377, 4258.016
1142.609, 4181.383
1143.840, 4341.484
1145.071, 4302.908
1146.301, 4241.297
1147.532, 4313.695
1148.762, 4057.102
1149.992, 4126.516
1151.222, 4139.941
1152.452, 3968.373
1153.682, 3911.812
1154.911, 4002.539
1156.140, 3762.996
1157.369, 3766.463
1158.598, 3690.936
1159.827, 3592.904
1161.055, 3480.570
1162.284, 3492.068
1163.512, 3530.574
1164.740, 3527.090
1165.967, 3439.717
1167.195, 3366.148
1168.422, 3186.689
1169.650, 3200.238
1170.877, 3012.795
1172.103, 2850.359
1173.330, 2924.930
1174.557, 3035.508
1175.783, 2821.094
1177.009, 2516.688
1178.235, 2777.289
1179.461, 2492.895
1180.686, 2348.506
1181.912, 2436.123
1183.137, 2343.793
1184.362, 1929.688
1185.587, 1951.156
1186.811, 1942.670
1188.036, 1733.238
1189.260, 1806.254
1190.484, 1739.027
1191.708, 1708.465
1192.932, 1487.803
1194.155, 1356.389
1195.378, 1016.041
1196.602, 1359.117
1197.825, 825.396
1199.047, 1108.900
1200.270, 1013.475
1201.492, 1070.533
1202.715, 825.945
1203.937, 954.135
1205.159, 739.699
1206.380, 789.123
1207.602, 713.236
1208.823, 474.637
1210.044, 607.066
1211.265, 428.326
1212.486, 463.051
1213.707, 340.832
1214.927, 462.193
1216.147, 388.611
1217.367, 260.318
1218.587, 174.709
1219.807, 133.059
1221.027, 6.852
1222.246, 158.242
1223.465, 134.605
1224.684, 101.963
1225.903, 5.318
1227.121, 83.330
1228.340, 88.498
1229.558, 97.203
1230.776, 69.350
1231.994, 6.070
1233.212, 102.217
1234.429, 199.584
1235.646, 115.877
1236.864, 243.725
1238.081, 222.455
1239.297, 317.686
1240.514, 298.807
1241.730, 225.832
1242.947, 308.221
1244.163, 183.041
1245.378, 323.900
1246.594, 166.758
1247.810, 34.564
1249.025, 303.326
1250.240, 91.850
1251.455, 75.350
1252.670, 312.830
1253.885, 140.279
1255.099, 89.703
1256.313, 78.568
1257.527, 139.766
1258.741, 260.164
1259.955, 84.578
1261.168, 190.148
1262.382, 258.375
1263.595, 236.752
1264.808, 232.461
1266.021, 163.418
1267.233, 262.336
1268.446, 489.205
1269.658, 356.025
1270.870, 538.807
1272.082, 453.549
1273.294, 457.242
1274.505, 501.205
1275.716, 464.730
1276.928, 455.023
1278.139, 450.816
1279.349, 389.789
1280.560, 352.740
1281.770, 318.541
1282.981, 128.227
1284.191, 322.758
1285.401, 224.100
1286.610, 19.723
1287.820, 236.305
1289.029, 165.430
1290.239, 231.789
1291.448, 311.020
1292.656, 286.262
1293.865, 342.518
1295.073, 444.783
1296.282, 320.057
1297.490, 331.342
1298.698, 490.633
1299.906, 194.936
1301.113, 313.250
1302.320, 272.574
1303.528, 290.912
1304.735, 169.258
1305.942, 218.615
1307.148, 538.984
1308.355, 351.363
1309.561, 622.746
1310.767, 519.117
1311.973, 559.469
1313.179, 432.750
1314.384, 774.973
1315.590, 626.148
1316.795, 671.281
1318.000, 695.414
1319.205, 642.537
1320.410, 678.262
1321.614, 561.764
1322.819, 667.730
1324.023, 690.693
1325.227, 657.652
1326.431, 454.406
1327.634, 308.283
1328.838, 257.586
1330.041, 141.561
1331.244, 317.543
1332.447, 1.811
1333.650, 176.201
1334.852, 92.262
1336.055, 44.232
1337.257, 139.277
1338.459, 28.316
1339.661, 279.971
1340.862, 181.268
1342.064, 83.857
1343.265, 596.197
1344.466, 290.371
1345.667, 178.256
1346.868, 321.836
1348.068, 153.080
1349.269, 55.832
1350.469, 318.053
1351.669, 96.307
1352.869, 272.594
1354.069, 450.918
1355.268, 144.707
1356.468, 263.723
1357.667, 252.346
1358.866, 157.812
1360.065, 395.453
1361.263, 95.928
1362.462, 302.990
1363.660, 528.000
1364.858, 213.949
1366.056, 315.230
1367.254, 437.035
1368.451, 361.795
1369.649, 393.893
1370.846, 424.434
1372.043, 360.881
1373.240, 401.236
1374.436, 462.498
1375.633, 341.660
1376.829, 458.717
1378.025, 323.666
1379.221, 406.502
1380.417, 530.340
1381.613, 416.893
1382.808, 616.648
1384.003, 606.715
1385.199, 445.436
1386.393, 228.689
1387.588, 511.043
1388.783, 352.281
1389.977, 374.283
1391.171, 350.973
1392.365, 456.729
1393.559, 472.627
1394.753, 435.221
1395.946, 323.600
1397.140, 334.775
1398.333, 270.285
1399.526, 140.943
1400.719, 232.117
1401.911, 190.578
1403.104, 235.240
1404.296, 23.012
1405.488, 176.395
1406.680, 122.133
1407.872, 40.016
1409.063, 464.287
1410.255, 189.502
1411.446, 299.111
1412.637, 195.951
1413.828, 197.184
1415.018, 364.596
1416.209, 169.617
1417.399, 88.383
1418.589, 509.453
1419.779, 217.965
1420.969, 108.178
1422.159, 1.631
1423.348, 247.008
1424.537, 117.811
1425.726, 85.676
1426.915, 16.447
1428.104, 73.586
1429.293, 148.924
1430.481, 0.000
##END=



