##NAMES=Hubnerite
##RRUFFID=R050139
##IDEAL CHEMISTRY=Mn^2+^W^6+^O_4_
##LOCALITY=Pasto Bueno District, Pallasca Province, Ancash Department, Peru
##OWNER=RRUFF
##SOURCE=Dave Bunk Minerals
##DESCRIPTION=Black tabular crystals associated with quartz
##STATUS=The identification of this mineral has been confirmed by X-ray diffraction and chemical analysis
##URL=rruff.info/R050139
##MEASURED CHEMISTRY=(Mn^2+^_0.79_Fe^2+^_0.20_)W_1.00_O4
##PIN_ID=L00188
##ORIENTATION=Laser parallel to -c* (0 0 -1). Fiducial mark perpendicular to laser is parallel to -a [-1 0 0]
88.728, 0.000
90.128, 57.337
91.527, 193.368
92.926, 202.262
94.324, 59.290
95.723, 199.851
97.121, 245.156
98.519, 413.449
99.917, 285.657
101.314, 241.308
102.712, 307.894
104.109, 171.614
105.505, 303.318
106.902, 343.199
108.298, 172.419
109.694, 140.384
111.090, 252.298
112.486, 343.635
113.881, 371.034
115.277, 428.302
116.672, 458.023
118.066, 204.636
119.461, 277.187
120.855, 389.456
122.249, 721.986
123.643, 1458.577
125.036, 2090.892
126.430, 2699.577
127.823, 3325.829
129.216, 3508.622
130.608, 3253.469
132.001, 2474.059
133.393, 1847.940
134.785, 1434.537
136.176, 1065.127
137.568, 824.250
138.959, 864.694
140.350, 686.174
141.741, 560.696
143.131, 445.832
144.521, 374.254
145.911, 317.447
147.301, 229.761
148.691, 114.927
150.080, 101.121
151.469, 62.404
152.858, 77.449
154.247, 82.098
155.635, 14.190
157.024, 46.983
158.411, 28.605
159.799, 34.825
161.187, 49.677
162.574, 83.360
163.961, 105.136
165.348, 69.573
166.734, 155.112
168.121, 39.494
169.507, 45.250
170.893, 68.982
172.278, 69.928
173.664, 6.059
175.049, 27.875
176.434, 53.302
177.819, 26.781
179.203, 13.692
180.587, 21.342
181.971, 110.838
183.355, 48.729
184.739, 19.340
186.122, 58.315
187.505, 53.603
188.888, 13.431
190.271, 51.782
191.653, 122.362
193.035, 58.375
194.417, 118.846
195.799, 1.960
197.180, 118.790
198.562, 238.227
199.943, 1601.783
201.324, 905.083
202.704, 1771.908
204.084, 352.809
205.465, 298.825
206.844, 313.074
208.224, 246.890
209.603, 196.122
210.983, 134.740
212.362, 121.047
213.740, 86.850
215.119, 56.156
216.497, 41.532
217.875, 29.389
219.253, 8.372
220.631, 54.286
222.008, 4.521
223.385, 18.810
224.762, 3.884
226.139, 36.410
227.515, 14.514
228.891, 20.235
230.267, 5.310
231.643, 4.813
233.018, 35.344
234.394, 4.250
235.769, 27.416
237.144, 3.645
238.518, 70.561
239.893, 84.051
241.267, 64.835
242.641, 41.878
244.014, 30.183
245.388, 15.752
246.761, 41.586
248.134, 40.738
249.507, 28.161
250.879, 27.834
252.252, 25.767
253.624, 56.058
254.996, 22.566
256.367, 90.746
257.739, 204.463
259.110, 195.661
260.481, 300.323
261.852, 385.430
263.222, 358.904
264.592, 251.832
265.962, 340.071
267.332, 353.824
268.702, 276.078
270.071, 307.756
271.440, 296.783
272.809, 332.227
274.178, 420.830
275.546, 414.367
276.915, 411.586
278.283, 391.285
279.650, 460.369
281.018, 483.847
282.385, 439.597
283.752, 505.867
285.119, 491.637
286.486, 505.084
287.852, 512.167
289.218, 552.643
290.584, 544.411
291.950, 591.553
293.316, 565.124
294.681, 584.120
296.046, 620.588
297.411, 571.433
298.775, 674.729
300.140, 645.412
301.504, 610.612
302.868, 650.183
304.231, 601.354
305.595, 602.404
306.958, 656.388
308.321, 620.718
309.684, 718.379
311.047, 679.260
312.409, 721.513
313.771, 708.391
315.133, 695.977
316.495, 674.839
317.856, 728.468
319.217, 729.749
320.578, 743.980
321.939, 760.922
323.299, 761.045
324.660, 762.833
326.020, 743.747
327.380, 777.357
328.739, 741.800
330.099, 792.112
331.458, 751.000
332.817, 735.931
334.176, 771.325
335.534, 743.854
336.892, 760.304
338.251, 761.193
339.608, 729.532
340.966, 783.376
342.323, 777.549
343.681, 798.039
345.037, 756.650
346.394, 756.888
347.751, 826.108
349.107, 757.194
350.463, 845.318
351.819, 751.058
353.174, 840.995
354.530, 832.651
355.885, 780.350
357.240, 818.877
358.594, 860.175
359.949, 848.828
361.303, 834.985
362.657, 863.077
364.011, 872.522
365.365, 866.540
366.718, 849.705
368.071, 894.288
369.424, 841.336
370.777, 859.491
372.129, 876.659
373.481, 863.686
374.833, 879.235
376.185, 887.205
377.537, 880.979
378.888, 839.615
380.239, 880.098
381.590, 876.312
382.941, 882.773
384.291, 906.497
385.642, 1011.855
386.992, 1081.594
388.341, 1159.485
389.691, 1319.206
391.040, 1551.236
392.389, 1907.063
393.738, 2356.660
395.087, 2843.930
396.435, 3342.473
397.784, 3367.610
399.132, 3446.902
400.479, 3049.975
401.827, 2621.587
403.174, 2091.205
404.521, 1757.827
405.868, 1470.610
407.215, 1280.465
408.561, 1143.319
409.908, 1088.371
411.254, 972.350
412.599, 899.250
413.945, 867.029
415.290, 805.143
416.636, 759.233
417.980, 690.565
419.325, 672.756
420.670, 636.038
422.014, 601.022
423.358, 591.463
424.702, 597.138
426.045, 579.738
427.389, 588.297
428.732, 555.317
430.075, 528.227
431.417, 499.525
432.760, 499.166
434.102, 488.838
435.444, 513.005
436.786, 557.351
438.127, 569.915
439.469, 545.737
440.810, 544.420
442.151, 538.725
443.492, 558.879
444.832, 552.626
446.172, 579.583
447.512, 549.954
448.852, 534.829
450.192, 519.896
451.531, 516.513
452.870, 525.019
454.209, 517.975
455.548, 504.829
456.887, 488.943
458.225, 489.212
459.563, 475.385
460.901, 490.350
462.238, 491.927
463.576, 497.509
464.913, 474.139
466.250, 443.556
467.587, 457.833
468.923, 380.858
470.259, 392.088
471.596, 491.693
472.931, 432.152
474.267, 452.868
475.603, 405.990
476.938, 410.289
478.273, 400.521
479.608, 383.883
480.942, 418.216
482.276, 389.588
483.611, 398.006
484.944, 400.404
486.278, 354.790
487.612, 372.107
488.945, 356.028
490.278, 362.819
491.611, 363.291
492.943, 326.576
494.276, 364.797
495.608, 343.168
496.940, 315.424
498.271, 279.749
499.603, 281.847
500.934, 276.323
502.265, 285.777
503.596, 272.239
504.927, 277.800
506.257, 262.200
507.587, 233.600
508.917, 291.295
510.247, 237.717
511.577, 275.514
512.906, 294.925
514.235, 223.743
515.564, 192.535
516.892, 223.109
518.221, 215.852
519.549, 211.771
520.877, 189.667
522.205, 206.507
523.533, 198.675
524.860, 227.433
526.187, 202.363
527.514, 198.201
528.841, 197.147
530.167, 173.940
531.493, 146.805
532.820, 177.689
534.145, 207.557
535.471, 195.413
536.796, 193.258
538.122, 181.094
539.447, 208.923
540.771, 190.747
542.096, 199.568
543.420, 154.394
544.744, 143.903
546.068, 170.034
547.392, 104.861
548.715, 122.691
550.039, 125.531
551.362, 106.378
552.684, 104.223
554.007, 79.071
555.329, 121.920
556.652, 81.781
557.973, 40.644
559.295, 68.515
560.617, 14.388
561.938, 40.280
563.259, 80.197
564.580, 8.866
565.901, 51.079
567.221, 22.036
568.541, 59.000
569.861, 83.978
571.181, 47.972
572.501, 77.978
573.820, 25.996
575.139, 45.024
576.458, 36.051
577.777, 34.079
579.095, 1.896
580.414, 65.880
581.732, 6.091
583.049, 1.031
584.367, 49.003
585.685, 13.877
587.002, 0.608
588.319, 45.805
589.636, 22.129
590.952, 7.549
592.268, 55.982
593.585, 45.523
594.900, 44.924
596.216, 32.150
597.532, 26.656
598.847, 4.398
600.162, 72.845
601.477, 7.137
602.792, 15.364
604.106, 23.405
605.420, 17.176
606.734, 11.050
608.048, 50.722
609.361, 45.458
610.675, 46.373
611.988, 38.009
613.301, 50.766
614.614, 8.514
615.926, 23.220
617.238, 37.953
618.550, 30.654
619.862, 16.557
621.174, 14.249
622.485, 21.062
623.797, 2.854
625.108, 39.544
626.418, 12.677
627.729, 58.801
629.039, 3.354
630.349, 0.787
631.659, 5.011
632.969, 17.975
634.279, 30.571
635.588, 0.672
636.897, 13.073
638.206, 47.777
639.515, 50.654
640.823, 60.440
642.131, 9.290
643.439, 44.180
644.747, 11.908
646.055, 39.737
647.362, 65.529
648.669, 63.378
649.976, 25.258
651.283, 55.015
652.589, 60.961
653.896, 77.846
655.202, 99.495
656.508, 102.325
657.814, 137.043
659.119, 127.767
660.424, 140.560
661.729, 203.325
663.034, 210.142
664.339, 172.923
665.643, 204.614
666.947, 247.574
668.251, 255.339
669.555, 346.290
670.859, 377.350
672.162, 404.141
673.465, 443.829
674.768, 496.673
676.071, 541.514
677.373, 579.366
678.676, 642.152
679.978, 720.510
681.280, 804.915
682.581, 912.940
683.883, 992.888
685.184, 1112.846
686.485, 1274.827
687.786, 1482.739
689.087, 1632.564
690.387, 1770.547
691.687, 1989.683
692.987, 2312.804
694.287, 2359.945
695.586, 2528.062
696.886, 2673.335
698.185, 2770.561
699.484, 2685.860
700.783, 2702.916
702.081, 2500.586
703.379, 2530.405
704.677, 2001.436
705.975, 1834.575
707.273, 1550.770
708.570, 1401.916
709.868, 1176.080
711.165, 992.175
712.462, 898.487
713.758, 754.501
715.055, 735.689
716.351, 578.867
717.647, 572.850
718.943, 508.973
720.238, 435.289
721.533, 379.879
722.829, 330.127
724.124, 284.280
725.418, 221.613
726.713, 168.078
728.007, 247.417
729.301, 200.909
730.595, 147.209
731.889, 135.615
733.182, 63.015
734.476, 82.432
735.769, 20.598
737.061, 56.823
738.354, 97.210
739.647, 28.562
740.939, 46.723
742.231, 23.778
743.523, 88.583
744.814, 24.965
746.106, 1.516
747.397, 3.664
748.688, 36.371
749.978, 31.110
751.269, 11.653
752.559, 24.829
753.849, 24.611
755.139, 18.328
756.429, 40.597
757.719, 94.002
759.008, 67.094
760.297, 115.002
761.586, 105.912
762.875, 145.277
764.163, 197.383
765.451, 243.495
766.739, 313.639
768.027, 308.924
769.315, 337.118
770.602, 421.187
771.890, 418.345
773.177, 388.585
774.463, 478.831
775.750, 375.275
777.036, 426.508
778.323, 432.797
779.609, 401.037
780.894, 344.368
782.180, 344.130
783.465, 361.493
784.750, 325.848
786.035, 309.147
787.320, 329.331
788.605, 277.027
789.889, 271.469
791.173, 229.869
792.457, 235.343
793.741, 292.833
795.024, 260.579
796.307, 265.435
797.591, 245.396
798.873, 238.948
800.156, 207.516
801.439, 212.100
802.721, 209.700
804.003, 165.316
805.285, 206.947
806.566, 259.595
807.848, 183.259
809.129, 244.938
810.410, 222.633
811.691, 131.345
812.971, 292.074
814.252, 249.819
815.532, 227.585
816.812, 231.368
818.092, 247.599
819.371, 276.001
820.651, 312.818
821.930, 335.668
823.209, 346.535
824.488, 309.418
825.766, 352.168
827.045, 353.882
828.323, 384.163
829.601, 417.112
830.878, 395.077
832.156, 472.058
833.433, 486.056
834.710, 491.070
835.987, 547.101
837.264, 562.146
838.540, 642.208
839.817, 657.286
841.093, 722.383
842.369, 767.497
843.644, 823.727
844.920, 924.874
846.195, 946.112
847.470, 1061.291
848.745, 1182.505
850.020, 1251.488
851.294, 1448.712
852.568, 1533.040
853.842, 1638.293
855.116, 1994.730
856.390, 2018.517
857.663, 2314.816
858.936, 2564.759
860.209, 2820.817
861.482, 3262.831
862.755, 3656.190
864.027, 4035.513
865.299, 4514.485
866.571, 5195.244
867.843, 5771.667
869.115, 6698.349
870.386, 7683.724
871.657, 9065.194
872.928, 10485.693
874.199, 12376.212
875.470, 14676.744
876.740, 17897.354
878.010, 21547.916
879.280, 25958.557
880.550, 30749.145
881.820, 35389.859
883.089, 38890.594
884.358, 40571.258
885.627, 39213.086
886.896, 36293.898
888.164, 31855.236
889.433, 26466.123
890.701, 22367.957
891.969, 18318.691
893.236, 14889.504
894.504, 12570.312
895.771, 10410.523
897.038, 8691.335
898.305, 7032.175
899.572, 6005.551
900.838, 5133.423
902.105, 4401.372
903.371, 3775.295
904.637, 3327.239
905.902, 2809.203
907.168, 2568.179
908.433, 2178.167
909.698, 1998.181
910.963, 1827.210
912.228, 1573.253
913.492, 1523.309
914.757, 1270.374
916.021, 1218.454
917.285, 1081.544
918.548, 992.644
919.812, 929.753
921.075, 842.881
922.338, 799.018
923.601, 725.166
924.864, 687.322
926.126, 659.490
927.388, 586.665
928.650, 571.327
929.912, 508.053
931.174, 503.261
932.435, 453.478
933.697, 387.704
934.958, 374.941
936.218, 339.202
937.479, 330.283
938.739, 304.707
940.000, 331.980
941.260, 320.266
942.520, 320.584
943.779, 267.887
945.039, 280.197
946.298, 239.516
947.557, 266.842
948.816, 223.176
950.074, 257.556
951.333, 231.905
952.591, 256.262
953.849, 220.625
955.107, 242.997
956.365, 240.375
957.622, 242.760
958.879, 246.296
960.136, 218.598
961.393, 207.021
962.650, 171.524
963.906, 148.946
965.162, 151.381
966.418, 106.781
967.674, 116.377
968.930, 64.992
970.185, 58.446
971.441, 59.346
972.696, 95.812
973.950, 69.282
975.205, 70.758
976.459, 60.240
977.714, 56.761
978.968, 55.850
980.222, 3.065
981.475, 63.567
982.729, 37.074
983.982, 61.587
985.235, 19.105
986.488, 30.628
987.740, 70.155
988.993, 31.687
990.245, 39.223
991.497, 19.720
992.749, 28.265
994.000, 1.016
995.252, 48.567
996.503, 37.878
997.754, 22.780
999.005, 5.364
1000.256, 49.796
1001.506, 18.732
1002.756, 36.629
1004.006, 18.889
1005.256, 37.576
1006.506, 25.070
1007.755, 23.441
1009.005, 26.894
1010.254, 65.238
1011.502, 7.764
1012.751, 13.712
1014.000, 31.817
1015.248, 43.306
1016.496, 0.878
1017.744, 24.565
1018.991, 17.290
1020.239, 10.683
1021.486, 12.042
1022.733, 18.165
1023.980, 18.696
1025.227, 52.313
1026.473, 11.725
1027.719, 22.137
1028.965, 12.551
1030.211, 36.031
1031.457, 9.770
1032.702, 10.185
1033.948, 15.598
1035.193, 12.988
1036.438, 8.416
1037.682, 3.182
1038.927, 7.215
1040.171, 10.752
1041.415, 57.376
1042.659, 16.980
1043.903, 21.657
1045.146, 101.056
1046.390, 38.579
1047.633, 46.083
1048.876, 1.884
1050.118, 88.281
1051.361, 96.663
1052.603, 56.224
1053.845, 65.622
1055.087, 78.129
1056.329, 39.580
1057.571, 77.993
1058.812, 33.510
1060.053, 72.900
1061.294, 104.428
1062.535, 69.812
1063.775, 110.194
1065.016, 49.667
1066.256, 133.043
1067.496, 43.416
1068.736, 52.801
1069.975, 53.169
1071.214, 51.534
1072.454, 107.897
1073.693, 43.272
1074.931, 81.718
1076.170, 85.070
1077.408, 54.418
1078.647, 70.764
1079.885, 124.106
1081.122, 79.444
1082.360, 110.778
1083.597, 54.108
1084.835, 72.458
1086.072, 96.781
1087.308, 67.099
1088.545, 88.413
1089.781, 63.721
1091.018, 34.026
1092.254, 94.326
1093.490, 65.620
1094.725, 45.911
1095.961, 66.197
1097.196, 62.501
1098.431, 34.777
1099.666, 83.047
1100.900, 71.314
1102.135, 82.574
1103.369, 61.830
1104.603, 93.081
1105.837, 43.429
1107.071, 28.669
1108.304, 49.624
1109.538, 53.851
1110.771, 80.073
1112.004, 50.288
1113.236, 43.498
1114.469, 2.701
1115.701, 29.890
1116.933, 29.071
1118.165, 63.244
1119.397, 16.411
1120.629, 75.567
1121.860, 77.718
1123.091, 65.861
1124.322, 96.999
1125.553, 43.189
1126.783, 23.313
1128.014, 52.427
1129.244, 50.534
1130.474, 77.634
1131.704, 55.952
1132.933, 66.265
1134.163, 57.210
1135.392, 66.355
1136.621, 58.420
1137.850, 59.666
1139.079, 6.717
1140.307, 63.752
1141.535, 32.873
1142.763, 80.795
1143.991, 89.901
1145.219, 36.857
1146.446, 44.855
1147.674, 27.079
1148.901, 91.338
1150.128, 36.427
1151.354, 65.839
1152.581, 44.825
1153.807, 49.711
1155.033, 41.563
1156.259, 28.978
1157.485, 27.779
1158.710, 38.369
1159.936, 36.882
1161.161, 38.882
1162.386, 30.885
1163.611, 46.223
1164.835, 4.182
1166.060, 15.242
1167.284, 7.371
1168.508, 15.972
1169.732, 1.948
1170.955, 7.030
1172.179, 16.958
1173.402, 35.745
1174.625, 63.624
1175.848, 66.598
1177.070, 28.416
1178.293, 12.253
1179.515, 58.928
1180.737, 57.571
1181.959, 75.312
1183.181, 37.935
1184.402, 42.465
1185.624, 44.975
1186.845, 15.552
1188.066, 0.825
1189.286, 18.209
1190.507, 24.949
1191.727, 45.066
1192.947, 25.663
1194.167, 5.827
1195.387, 10.883
1196.607, 99.044
1197.826, 4.158
1199.045, 23.486
1200.264, 94.219
1201.483, 27.839
1202.702, 34.726
1203.920, 42.263
1205.138, 26.814
1206.356, 74.384
1207.574, 25.886
1208.792, 55.396
1210.009, 52.924
1211.227, 31.367
1212.444, 78.939
1213.661, 65.364
1214.877, 47.167
1216.094, 54.584
1217.310, 75.983
1218.526, 55.891
1219.742, 48.328
1220.958, 33.707
1222.173, 63.076
1223.389, 70.510
1224.604, 86.050
1225.819, 74.393
1227.034, 79.306
1228.248, 57.281
1229.463, 76.596
1230.677, 48.934
1231.891, 56.508
1233.105, 74.870
1234.318, 122.272
1235.532, 78.543
1236.745, 70.808
1237.958, 83.041
1239.171, 64.312
1240.384, 86.979
1241.596, 65.215
1242.809, 52.444
1244.021, 68.702
1245.233, 87.873
1246.444, 76.428
1247.656, 102.625
1248.867, 104.814
1250.079, 90.329
1251.290, 35.590
1252.500, 97.757
1253.711, 0.208
1254.921, 72.942
1256.132, 93.083
1257.342, 65.873
1258.552, 119.340
1259.761, 73.451
1260.971, 84.595
1262.180, 116.543
1263.389, 82.469
1264.598, 75.568
1265.807, 81.201
1267.015, 67.351
1268.223, 79.412
1269.432, 79.955
1270.640, 46.502
1271.847, 82.503
1273.055, 88.204
1274.262, 72.252
1275.470, 94.246
1276.677, 24.322
1277.883, 39.386
1279.090, 66.413
1280.296, 44.422
1281.503, 92.373
1282.709, 27.313
1283.915, 90.275
1285.120, 70.216
1286.326, 39.689
1287.531, 67.406
1288.736, 39.271
1289.941, 55.367
1291.146, 65.133
1292.350, 20.939
1293.555, 48.486
1294.759, 33.447
1295.963, 3.171
1297.167, 54.052
1298.370, 35.898
1299.574, 9.717
1300.777, 5.517
1301.980, 4.158
1303.183, 9.953
1304.386, 18.595
1305.588, 37.379
1306.790, 47.161
1307.993, 51.888
1309.195, 43.723
1310.396, 41.491
1311.598, 16.551
1312.799, 5.133
1314.000, 16.667
1315.201, 28.625
1316.402, 19.251
1317.603, 51.785
1318.803, 21.517
1320.003, 18.241
1321.203, 26.955
1322.403, 32.596
1323.603, 40.969
1324.802, 47.734
1326.002, 40.421
1327.201, 35.562
1328.400, 59.230
1329.599, 0.891
1330.797, 63.545
1331.995, 29.453
1333.194, 4.440
1334.392, 15.083
1335.589, 0.312
1336.787, 54.905
1337.985, 10.474
1339.182, 22.000
1340.379, 21.167
1341.576, 11.727
1342.772, 25.294
1343.969, 14.056
1345.165, 26.632
1346.361, 1.636
1347.557, 42.103
1348.753, 36.600
1349.949, 29.984
1351.144, 44.118
1352.339, 39.828
1353.534, 33.305
1354.729, 51.775
1355.924, 21.143
1357.118, 64.598
1358.312, 1.042
1359.506, 49.465
1360.700, 62.936
1361.894, 3.639
1363.088, 41.240
1364.281, 65.637
1365.474, 55.956
1366.667, 35.361
1367.860, 16.764
1369.052, 58.162
1370.245, 22.431
1371.437, 31.666
1372.629, 63.856
1373.821, 44.996
1375.013, 9.070
1376.204, 34.144
1377.395, 23.926
1378.586, 53.698
1379.777, 90.461
1380.968, 93.210
1382.159, 47.925
1383.349, 0.346
1384.539, 54.371
1385.729, 60.967
1386.919, 42.882
1388.109, 72.560
1389.298, 3.229
1390.487, 60.894
1391.676, 61.556
1392.865, 4.213
1394.054, 31.862
1395.242, 78.433
1396.431, 48.066
1397.619, 71.691
1398.807, 54.932
1399.995, 99.449
1401.182, 81.816
1402.370, 115.405
1403.557, 86.874
1404.744, 54.298
1405.931, 81.540
1407.118, 48.879
1408.304, 58.693
1409.490, 31.546
1410.676, 48.757
1411.862, 80.348
1413.048, 46.613
1414.234, 47.928
1415.419, 73.921
1416.604, 39.446
1417.789, 64.469
1418.974, 28.674
1420.159, 28.645
1421.343, 35.872
1422.528, 38.179
1423.712, 54.496
1424.896, 61.213
1426.079, 35.703
1427.263, 51.468
1428.446, 7.594
1429.629, 33.340
1430.812, 54.145
1431.995, 5.011
1433.178, 36.680
1434.360, 79.778
1435.543, 42.991
1436.725, 17.205
1437.907, 62.303
1439.088, 30.925
1440.270, 32.300
1441.451, 55.487
1442.632, 53.621
1443.813, 84.529
1444.994, 79.342
1446.175, 41.529
1447.355, 66.069
1448.535, 43.045
1449.715, 43.249
1450.895, 31.495
1452.075, 78.643
1453.255, 95.698
1454.434, 74.032
1455.613, 44.356
1456.792, 75.201
1457.971, 51.173
1459.149, 71.171
1460.328, 76.150
1461.506, 47.105
1462.684, 69.006
1463.862, 73.719
1465.040, 49.643
1466.217, 22.504
1467.395, 39.315
1468.572, 4.010
1469.749, 94.465
1470.925, 124.198
1472.102, 40.978
1473.278, 63.137
1474.455, 45.999
1475.631, 22.102
1476.807, 22.150
1477.982, 71.618
1479.158, 11.239
1480.333, 58.201
1481.508, 95.162
1482.683, 80.103
1483.858, 60.063
1485.033, 107.849
1486.207, 95.674
1487.381, 92.904
1488.555, 98.844
1489.729, 93.856
1490.903, 47.877
1492.076, 84.490
1493.250, 40.765
1494.423, 44.696
1495.596, 67.685
1496.769, 56.272
1497.941, 59.844
1499.114, 82.711
1500.286, 91.734
1501.458, 33.763
1502.630, 121.796
1503.802, 12.182
1504.973, 77.844
1506.145, 64.183
1507.316, 55.609
1508.487, 69.278
1509.657, 60.116
1510.828, 24.790
1511.999, 27.136
1513.169, 28.856
1514.339, 25.667
1515.509, 9.805
1516.678, 0.000
##END=



