##NAMES=Hydroxylbastnasite-(Ce)
##RRUFFID=R060283
##IDEAL CHEMISTRY=CeCO_3_(OH)
##LOCALITY=Trimouns, Luzenac, France
##OWNER=RRUFF
##SOURCE=Herb Obodda
##DESCRIPTION=Brown hexagonal tablet
##STATUS=The identification of this mineral has been confirmed by X-ray diffraction and chemical analysis
##URL=rruff.info/R060283
##MEASURED CHEMISTRY=(Ce_0.50_Nd_0.24_(La,Pr)_0.23_Y_0.03_)_Σ=1_CO_3_((OH)_0.65_F_0.35_)_Σ=1_
##PIN_ID=M00330
##ORIENTATION=Laser parallel to a* (1 0 0). Fiducial mark perpendicular to laser is parallel to c [0 0 1]
41.83100, 0.0000000E+00
43.08100, 0.4164730
44.32900, 4.079620
45.57800, 32.45453
46.82700, 30.53571
48.07500, 27.95447
49.32300, 12.27243
50.57100, 40.32520
51.81900, 64.55380
53.06700, 60.97864
54.31400, 80.24323
55.56200, 97.94980
56.80900, 94.20105
58.05600, 101.1049
59.30200, 114.8016
60.54900, 116.7411
61.79500, 129.0027
63.04200, 131.1771
64.28800, 132.4955
65.53300, 148.7257
66.77900, 178.6551
68.02500, 210.3063
69.27000, 240.2516
70.51500, 254.2944
71.76000, 263.1989
73.00500, 246.3430
74.24900, 218.6020
75.49400, 212.6911
76.73800, 186.9965
77.98200, 173.5190
79.22600, 150.2591
80.46900, 129.2166
81.71300, 95.38919
82.95600, 91.77240
84.19900, 54.36057
85.44200, 48.14728
86.68500, 37.12488
87.92800, 2.285522
89.17000, 6.377869
90.41200, 20.87201
91.65500, 37.20508
92.89600, 46.38889
94.13800, 44.43365
95.38000, 57.34369
96.62100, 57.11823
97.86200, 45.75616
99.10300, 54.25659
100.3440, 39.61859
101.5850, 48.84161
102.8250, 19.67548
104.0650, 3.132141
105.3050, 53.32971
106.5450, 114.6682
107.7850, 182.1478
109.0250, 268.7687
110.2640, 340.5311
111.5030, 407.4347
112.7420, 532.4799
113.9810, 676.6671
115.2200, 810.9972
116.4580, 1000.472
117.6970, 1106.092
118.9350, 1279.845
120.1730, 1397.721
121.4100, 1539.713
122.6480, 1751.813
123.8850, 1954.013
125.1230, 2052.303
126.3600, 2235.680
127.5960, 2527.139
128.8330, 2895.672
130.0700, 3062.269
131.3060, 3387.921
132.5420, 3496.627
133.7780, 3685.392
135.0140, 3799.214
136.2500, 3913.095
137.4850, 3788.028
138.7200, 3812.010
139.9550, 3599.013
141.1900, 3459.012
142.4250, 3362.990
143.6600, 3267.949
144.8940, 3161.910
146.1280, 3027.899
147.3620, 2953.956
148.5960, 2926.111
149.8300, 2908.363
151.0630, 2907.713
152.2960, 2896.160
153.5300, 2992.705
154.7620, 3002.346
155.9950, 2950.085
157.2280, 2875.920
158.4600, 2848.852
159.6920, 2697.879
160.9250, 2606.002
162.1560, 2492.221
163.3880, 2363.535
164.6200, 2243.944
165.8510, 2083.447
167.0820, 2033.044
168.3130, 2006.735
169.5440, 1968.520
170.7750, 2006.397
172.0050, 2005.212
173.2350, 2013.431
174.4650, 2068.587
175.6950, 2090.834
176.9250, 2139.172
178.1550, 2321.601
179.3840, 2321.121
180.6130, 2433.731
181.8420, 2660.430
183.0710, 2668.228
184.3000, 2789.134
185.5280, 2830.139
186.7570, 2858.233
187.9850, 2902.602
189.2130, 2889.133
190.4400, 2890.628
191.6680, 2833.385
192.8960, 2737.104
194.1230, 2653.788
195.3500, 2458.418
196.5770, 2387.993
197.8030, 2206.380
199.0300, 2126.822
200.2560, 2137.259
201.4830, 2006.649
202.7090, 1915.981
203.9340, 1863.236
205.1600, 1784.404
206.3860, 1710.489
207.6110, 1653.567
208.8360, 1615.525
210.0610, 1663.661
211.2860, 1596.679
212.5100, 1658.649
213.7350, 1725.505
214.9590, 1645.238
216.1830, 1774.838
217.4070, 1910.307
218.6310, 1977.700
219.8540, 2064.078
221.0780, 2173.519
222.3010, 2252.999
223.5240, 2418.602
224.7470, 2564.250
225.9690, 2623.990
227.1920, 2814.751
228.4140, 2839.522
229.6360, 3078.136
230.8580, 3326.921
232.0800, 3387.311
233.3020, 3606.838
234.5230, 3686.372
235.7440, 3930.722
236.9650, 4142.905
238.1860, 4293.539
239.4070, 4681.507
240.6280, 4799.260
241.8480, 4918.484
243.0680, 5244.236
244.2880, 5390.342
245.5080, 5591.493
246.7280, 5672.438
247.9470, 5790.622
249.1660, 5844.542
250.3860, 5905.505
251.6040, 5833.117
252.8230, 5875.801
254.0420, 5959.552
255.2600, 5766.370
256.4790, 5768.252
257.6970, 5680.196
258.9150, 5744.203
260.1320, 5444.273
261.3500, 5533.402
262.5670, 5353.589
263.7840, 5407.837
265.0010, 5288.145
266.2180, 5331.509
267.4350, 5323.930
268.6510, 5133.409
269.8680, 5186.946
271.0840, 5107.538
272.3000, 5048.187
273.5160, 4890.891
274.7310, 4808.651
275.9470, 4690.467
277.1620, 4451.336
278.3770, 4335.263
279.5920, 4264.242
280.8070, 4025.276
282.0210, 3911.365
283.2360, 3748.508
284.4500, 3651.704
285.6640, 3461.955
286.8780, 3299.260
288.0920, 3231.617
289.3050, 3063.030
290.5180, 2980.496
291.7320, 2904.017
292.9450, 2840.592
294.1570, 2767.221
295.3700, 2690.903
296.5830, 2595.638
297.7950, 2469.425
299.0070, 2477.266
300.2190, 2439.158
301.4310, 2350.102
302.6420, 2354.097
303.8540, 2430.143
305.0650, 2292.239
306.2760, 2355.385
307.4870, 2345.580
308.6980, 2311.825
309.9080, 2392.119
311.1190, 2368.461
312.3290, 2408.851
313.5390, 2359.288
314.7490, 2498.773
315.9580, 2464.305
317.1680, 2510.883
318.3770, 2563.507
319.5860, 2623.177
320.7950, 2658.892
322.0040, 2686.536
323.2130, 2704.774
324.4210, 2815.440
325.6290, 2845.883
326.8380, 2916.818
328.0460, 2964.958
329.2530, 2972.977
330.4610, 3051.039
331.6680, 3034.330
332.8760, 3102.690
334.0830, 3093.074
335.2890, 2954.082
336.4960, 2993.586
337.7030, 2953.887
338.9090, 2987.489
340.1150, 2918.882
341.3210, 2858.696
342.5270, 2918.882
343.7330, 2761.848
344.9380, 2757.684
346.1440, 2591.721
347.3490, 2523.341
348.5540, 2498.002
349.7590, 2385.793
350.9630, 2246.537
352.1680, 2207.698
353.3720, 2095.358
354.5760, 2066.464
355.7800, 2039.657
356.9840, 1803.752
358.1870, 1829.967
359.3910, 1759.967
360.5940, 1579.130
361.7970, 1627.000
363.0000, 1512.934
364.2030, 1525.361
365.4050, 1489.505
366.6080, 1326.903
367.8100, 1315.561
369.0120, 1335.877
370.2140, 1234.450
371.4150, 1327.280
372.6170, 1199.656
373.8180, 1109.113
375.0190, 1145.942
376.2200, 1077.318
377.4210, 1071.777
378.6220, 1040.312
379.8220, 1039.581
381.0230, 1056.809
382.2230, 955.9717
383.4230, 910.6179
384.6220, 927.8792
385.8220, 915.5696
387.0220, 895.7461
388.2210, 849.7173
389.4200, 818.1755
390.6190, 765.4094
391.8180, 779.5032
393.0160, 710.3262
394.2150, 693.8328
395.4130, 717.5427
396.6110, 665.8252
397.8090, 713.8740
399.0060, 696.9746
400.2040, 604.7559
401.4010, 653.3218
402.5980, 646.8293
403.7950, 562.5786
404.9920, 601.1399
406.1890, 548.7593
407.3860, 495.3735
408.5820, 505.0134
409.7780, 465.6797
410.9740, 499.3706
412.1700, 436.0872
413.3650, 442.8281
414.5610, 420.5938
415.7560, 429.3838
416.9510, 328.1978
418.1460, 366.0354
419.3410, 267.8962
420.5360, 277.7803
421.7300, 272.6873
422.9240, 263.6167
424.1180, 256.5684
425.3120, 224.5417
426.5060, 217.2041
427.7000, 202.7261
428.8930, 190.5916
430.0860, 187.6504
431.2790, 186.7292
432.4720, 196.8289
433.6650, 173.9482
434.8580, 174.1223
436.0500, 154.2458
437.2420, 154.4236
438.4340, 157.6204
439.6260, 147.8354
440.8180, 125.0688
442.0090, 109.3203
443.2010, 75.58960
444.3920, 70.87646
445.5830, 133.1802
446.7740, 55.50122
447.9640, 56.83887
449.1550, 44.19263
450.3450, 125.5627
451.5350, 55.94873
452.7250, 88.35010
453.9150, 119.7671
455.1050, 56.19897
456.2940, 94.64600
457.4830, 50.10718
458.6720, 158.5830
459.8610, 101.0725
461.0500, 86.57642
462.2390, 42.09375
463.4270, 15.41235
464.6150, 60.83228
465.8040, 22.29443
466.9910, 33.74951
468.1790, 25.20093
469.3670, 33.35303
470.5540, 9.081055
471.7410, 10.49390
472.9280, 40.08057
474.1150, 9.321777
475.3020, 37.71655
476.4890, 9.113037
477.6750, 47.50220
478.8610, 9.898193
480.0470, 7.711914
481.2330, 53.66797
482.4190, 2.940186
483.6040, 12.44360
484.7900, 19.82275
485.9750, 12.91870
487.1600, 85.57739
488.3450, 31.98340
489.5290, 31.60425
490.7140, 36.05933
491.8980, 59.19507
493.0820, 41.38867
494.2660, 44.01978
495.4500, 51.44312
496.6340, 57.88550
497.8170, 39.35107
499.0010, 35.83105
500.1840, 36.32520
501.3670, 83.83398
502.5500, 50.38086
503.7320, 24.95020
504.9150, 77.53125
506.0970, 50.14941
507.2790, 77.79199
508.4610, 80.49341
509.6430, 49.19507
510.8250, 75.94312
512.0060, 61.73047
513.1870, 47.55103
514.3680, 55.39819
515.5490, 38.27661
516.7300, 43.17847
517.9110, 51.10645
519.0910, 34.06494
520.2710, 51.04614
521.4510, 28.05884
522.6310, 60.09253
523.8110, 5.163086
524.9910, 30.24438
526.1700, 56.34863
527.3490, 10.48999
528.5280, 0.3542480
529.7070, 12.81177
530.8860, 1.994141
532.0650, 3.434326
533.2430, 7.606934
534.4210, 15.39453
535.5990, 27.17627
536.7770, 21.95581
537.9550, 8.731445
539.1320, 15.29248
540.3100, 15.25708
541.4870, 26.00952
542.6640, 36.75781
543.8410, 68.50488
545.0170, 32.25171
546.1940, 66.99585
547.3700, 43.73975
548.5470, 79.48242
549.7230, 99.22485
550.8980, 83.96704
552.0740, 174.7087
553.2500, 157.4500
554.4250, 147.1904
555.6000, 244.9302
556.7750, 171.6687
557.9500, 248.4067
559.1250, 269.1433
560.2990, 333.8792
561.4730, 237.6138
562.6480, 377.3467
563.8220, 317.0784
564.9950, 417.8088
566.1690, 437.5374
567.3430, 456.2646
568.5160, 378.9897
569.6890, 476.7131
570.8620, 481.4348
572.0350, 440.1545
573.2070, 586.8723
574.3800, 556.5874
575.5520, 611.3005
576.7240, 614.0117
577.8960, 632.7202
579.0680, 597.4265
580.2400, 650.1301
581.4110, 620.8313
582.5830, 635.5298
583.7540, 665.2258
584.9250, 585.9189
586.0950, 641.6091
587.2660, 597.2969
588.4370, 617.9817
589.6070, 529.6633
590.7770, 529.3420
591.9470, 609.0178
593.1170, 459.6907
594.2860, 510.3601
595.4560, 457.0264
596.6250, 429.6895
597.7940, 403.3491
598.9630, 439.0059
600.1320, 378.6589
601.3000, 411.3088
602.4690, 313.9553
603.6370, 342.5984
604.8050, 332.2378
605.9730, 292.9895
607.1410, 279.1875
608.3090, 313.9990
609.4760, 266.0735
610.6430, 260.6958
611.8100, 214.1523
612.9770, 251.7681
614.1440, 245.3804
615.3110, 214.8013
616.4770, 224.1938
617.6430, 111.6133
618.8090, 144.4453
619.9750, 224.8196
621.1410, 155.9299
622.3070, 241.7861
623.4720, 153.3867
624.6370, 136.6157
625.8020, 203.5220
626.9670, 179.6978
628.1320, 185.0425
629.2970, 119.2261
630.4610, 190.8699
631.6250, 144.5110
632.7890, 176.0591
633.9530, 239.7039
635.1170, 176.9709
636.2810, 112.7766
637.4440, 120.1814
638.6070, 123.5398
639.7700, 159.0359
640.9330, 114.4517
642.0960, 113.1213
643.2590, 132.6704
644.4210, 117.5537
645.5830, 145.4165
646.7450, 125.5466
647.9070, 126.5652
649.0690, 103.0920
650.2310, 75.40356
651.3920, 88.09985
652.5530, 107.5818
653.7140, 61.85303
654.8750, 153.6199
656.0360, 171.3594
657.1970, 105.7847
658.3570, 91.70581
659.5170, 164.5869
660.6770, 126.4465
661.8370, 79.61719
662.9970, 149.8806
664.1570, 290.2603
665.3160, 306.2080
666.4750, 287.5952
667.6340, 355.6133
668.7930, 375.1982
669.9520, 392.0449
671.1110, 457.4663
672.2690, 571.1641
673.4270, 602.0527
674.5850, 645.2578
675.7430, 783.8269
676.9010, 766.2310
678.0590, 828.0981
679.2160, 775.2368
680.3730, 768.3704
681.5300, 652.8562
682.6870, 651.5989
683.8440, 666.4534
685.0010, 619.0981
686.1570, 715.9805
687.3130, 660.8413
688.4690, 598.7393
689.6250, 666.6458
690.7810, 585.5576
691.9370, 598.4749
693.0920, 500.3989
694.2470, 542.3298
695.4020, 538.2661
696.5570, 420.2085
697.7120, 375.1565
698.8670, 414.1096
700.0210, 413.0684
701.1750, 520.0327
702.3290, 484.0024
703.4830, 565.9778
704.6370, 596.9592
705.7910, 583.9460
706.9440, 686.9387
708.0970, 732.9375
709.2510, 730.9419
710.4030, 772.9517
711.5560, 879.9675
712.7090, 960.9893
713.8610, 981.0166
715.0140, 1088.050
716.1660, 1236.090
717.3180, 1429.135
718.4690, 1675.186
719.6210, 1943.243
720.7730, 2359.307
721.9240, 2772.377
723.0750, 3532.452
724.2260, 3903.533
725.3770, 4512.622
726.5270, 4858.715
727.6780, 5304.815
728.8280, 5213.921
729.9780, 4931.035
731.1280, 4440.153
732.2780, 3846.279
733.4280, 3280.410
734.5770, 2937.549
735.7260, 2636.693
736.8760, 2299.844
738.0250, 2041.001
739.1730, 1857.165
740.3220, 1638.335
741.4700, 1449.512
742.6190, 1318.696
743.7670, 1144.886
744.9150, 1128.092
746.0630, 1012.308
747.2100, 1022.535
748.3580, 983.7717
749.5050, 968.0166
750.6520, 890.2686
751.7990, 887.5269
752.9460, 759.7925
754.0930, 678.5938
755.2390, 646.2388
756.3860, 550.5344
757.5320, 484.0398
758.6780, 408.3591
759.8240, 430.3723
760.9690, 517.7163
762.1150, 419.9312
763.2600, 530.4084
764.4060, 519.3350
765.5510, 589.0513
766.6950, 502.6404
767.8400, 534.4526
768.9850, 586.8843
770.1290, 590.3169
771.2730, 552.5999
772.4170, 593.2446
773.5610, 655.7207
774.7050, 726.2695
775.8480, 645.8708
776.9920, 692.4048
778.1350, 702.9731
779.2780, 633.5400
780.4210, 659.1355
781.5640, 682.7515
782.7060, 676.3821
783.8490, 596.0405
784.9910, 676.7305
786.1330, 616.5366
787.2750, 629.6001
788.4170, 609.5483
789.5580, 695.3801
790.7000, 625.2529
791.8410, 662.0852
792.9820, 604.7759
794.1230, 572.0605
795.2640, 540.0352
796.4040, 604.1260
797.5450, 597.5618
798.6850, 662.6895
799.8250, 598.5566
800.9650, 515.8477
802.1050, 562.8625
803.2450, 513.8953
804.3840, 590.7646
805.5230, 505.9402
806.6630, 514.0222
807.8020, 450.9717
808.9400, 468.4443
810.0790, 399.5627
811.2170, 552.7349
812.3560, 523.0637
813.4940, 503.2451
814.6320, 354.6956
815.7700, 417.8018
816.9070, 398.8145
818.0450, 407.9897
819.1820, 365.1082
820.3190, 361.0100
821.4560, 365.2009
822.5930, 348.4585
823.7300, 341.7720
824.8670, 286.8381
826.0030, 291.7795
827.1390, 327.0010
828.2750, 257.2236
829.4110, 292.6804
830.5470, 337.1958
831.6820, 375.5273
832.8180, 357.7920
833.9530, 435.0229
835.0880, 473.2573
836.2230, 487.4949
837.3580, 396.7356
838.4920, 431.9790
839.6270, 451.2258
840.7610, 336.4756
841.8950, 354.7866
843.0290, 294.0420
844.1630, 332.3403
845.2960, 223.6016
846.4300, 264.8657
847.5630, 296.1331
848.6960, 292.4028
849.8290, 229.6750
850.9620, 177.9504
852.0940, 276.2280
853.2270, 305.5344
854.3590, 320.8169
855.4910, 260.1021
856.6230, 223.3896
857.7550, 249.6797
858.8870, 148.9719
860.0180, 245.2661
861.1500, 182.5630
862.2810, 230.8618
863.4120, 168.1628
864.5430, 233.4661
865.6730, 269.7710
866.8040, 258.0781
867.9340, 287.3872
869.0640, 258.6980
870.1940, 318.0103
871.3240, 280.3247
872.4540, 351.6406
873.5830, 290.9583
874.7130, 252.2776
875.8420, 185.5986
876.9710, 117.9211
878.1000, 98.68481
879.2290, 86.57031
880.3570, 58.89697
881.4860, 62.22534
882.6140, 57.55493
883.7420, 54.88525
884.8700, 8.217041
885.9980, 31.54980
887.1250, 32.88330
888.2530, 69.21777
889.3800, 10.44678
890.5070, 57.11597
891.6340, 18.18579
892.7610, 3.511475
893.8880, 20.78955
895.0140, 28.90942
896.1400, 15.37695
897.2670, 47.33618
898.3930, 51.07422
899.5180, 41.83960
900.6440, 4.627441
901.7700, 1.418945
902.8950, 22.21313
904.0200, 17.97998
905.1450, 52.17285
906.2700, 28.63452
907.3950, 0.4589840
908.5190, 61.71387
909.6440, 15.11377
910.7680, 7.047852
911.8920, 44.20801
913.0160, 19.36768
914.1400, 32.52612
915.2630, 53.68359
916.3870, 41.66406
917.5100, 47.99512
918.6330, 37.14917
919.7560, 24.30176
920.8790, 9.452393
922.0010, 0.3996580
923.1240, 2.742920
924.2460, 17.88062
925.3680, 11.98389
926.4900, 87.14087
927.6120, 39.73682
928.7340, 48.64185
929.8550, 15.42041
930.9760, 6.479248
932.0980, 33.46558
933.2190, 7.564209
934.3390, 7.408936
935.4600, 2.605957
936.5810, 44.61572
937.7010, 37.64771
938.8210, 5.320801
939.9410, 15.69946
941.0610, 64.71582
942.1810, 21.27124
943.3010, 2.720703
944.4200, 55.70483
945.5390, 26.68481
946.6580, 9.660156
947.7770, 28.63135
948.8960, 5.597656
950.0150, 5.439453
951.1330, 35.48877
952.2510, 78.43555
953.3690, 20.64453
954.4870, 64.74072
955.6050, 72.12134
956.7230, 54.01709
957.8400, 4.195313
958.9580, 33.61279
960.0750, 0.5842290
961.1920, 39.21533
962.3090, 40.01001
963.4250, 11.79980
964.5420, 9.582275
965.6580, 22.08008
966.7740, 34.12622
967.8900, 53.89014
969.0060, 96.65454
970.1220, 107.4185
971.2380, 100.7937
972.3530, 98.94165
973.4680, 62.69556
974.5830, 57.44409
975.6980, 30.85034
976.8130, 47.93091
977.9280, 35.66895
979.0420, 91.40112
980.1560, 101.1282
981.2710, 115.8511
982.3850, 134.5686
983.4980, 120.2832
984.6120, 100.9924
985.7260, 134.6963
986.8390, 40.39624
987.9520, 161.0906
989.0650, 156.7793
990.1780, 93.46289
991.2910, 75.14087
992.4030, 166.8132
993.5160, 208.4800
994.6280, 273.1414
995.7400, 221.7974
996.8520, 123.4475
997.9640, 198.0918
999.0750, 167.7307
1000.187, 238.3638
1001.298, 214.9915
1002.409, 264.6133
1003.520, 184.2295
1004.631, 191.8401
1005.741, 174.4448
1006.852, 238.0435
1007.962, 146.6440
1009.072, 213.2390
1010.182, 200.8276
1011.292, 174.4182
1012.402, 171.0054
1013.511, 184.5864
1014.621, 176.8245
1015.730, 205.7329
1016.839, 178.2983
1017.948, 193.8577
1019.056, 174.4097
1020.165, 95.95703
1021.273, 133.5078
1022.382, 128.0522
1023.490, 158.0632
1024.598, 172.2378
1025.706, 196.7773
1026.813, 99.11743
1027.921, 207.6453
1029.028, 148.4812
1030.135, 252.9973
1031.242, 312.6445
1032.349, 156.0322
1033.456, 270.9758
1034.562, 204.1646
1035.668, 272.4705
1036.775, 194.5615
1037.881, 234.0337
1038.987, 203.5066
1040.092, 214.1445
1041.198, 227.4216
1042.303, 334.8789
1043.408, 349.2783
1044.514, 350.6414
1045.618, 374.0908
1046.723, 384.1177
1047.828, 390.3901
1048.932, 422.3911
1050.037, 411.8198
1051.141, 448.2437
1052.245, 479.6624
1053.349, 454.0657
1054.452, 539.3755
1055.556, 597.4514
1056.659, 697.6589
1057.762, 808.0063
1058.865, 958.6235
1059.968, 1002.007
1061.071, 1106.550
1062.174, 1189.514
1063.276, 1202.804
1064.378, 1327.091
1065.480, 1463.951
1066.582, 1677.362
1067.684, 2047.822
1068.786, 2449.145
1069.887, 3353.580
1070.988, 4531.541
1072.090, 6953.060
1073.191, 10437.45
1074.291, 15741.78
1075.392, 22910.24
1076.493, 31191.19
1077.593, 39537.50
1078.693, 46550.76
1079.793, 50527.11
1080.893, 51856.37
1081.993, 50713.21
1083.092, 48611.71
1084.192, 46957.75
1085.291, 46510.02
1086.390, 46771.68
1087.489, 46753.87
1088.588, 45170.95
1089.686, 42577.16
1090.785, 38865.47
1091.883, 35740.69
1092.981, 33839.12
1094.079, 33556.36
1095.177, 35333.58
1096.275, 37954.58
1097.373, 41072.53
1098.470, 42914.65
1099.567, 42724.84
1100.664, 40673.36
1101.761, 36040.46
1102.858, 30505.78
1103.954, 24056.99
1105.051, 18115.20
1106.147, 12896.41
1107.243, 8963.101
1108.339, 6061.242
1109.435, 3979.914
1110.531, 2633.067
1111.626, 1798.255
1112.722, 1434.588
1113.817, 1029.769
1114.912, 935.3901
1116.007, 682.5642
1117.101, 684.7351
1118.196, 627.1384
1119.290, 559.2754
1120.385, 496.4360
1121.479, 540.5928
1122.573, 538.7461
1123.666, 491.8960
1124.760, 467.0425
1125.853, 448.1855
1126.947, 348.3257
1128.040, 312.4624
1129.133, 232.5957
1130.226, 120.7258
1131.318, 209.8530
1132.411, 158.9768
1133.503, 115.0979
1134.596, 188.2156
1135.688, 166.3301
1136.780, 149.4417
1137.871, 123.5503
1138.963, 43.39941
1140.054, 108.5020
1141.146, 81.60156
1142.237, 109.3599
1143.328, 36.91699
1144.419, 94.00732
1145.509, 80.09473
1146.600, 87.62695
1147.690, 120.7085
1148.780, 101.7866
1149.870, 90.86230
1150.960, 114.9353
1152.050, 62.11523
1153.139, 87.18237
1154.229, 73.24658
1155.318, 126.3108
1156.407, 69.47803
1157.496, 80.55127
1158.585, 128.6228
1159.674, 94.69141
1160.762, 100.7646
1161.850, 53.83521
1162.939, 40.02881
1164.027, 41.98901
1165.114, 12.10693
1166.202, 50.20630
1167.290, 78.30371
1168.377, 90.40527
1169.464, 32.51489
1170.551, 56.61157
1171.638, 65.71387
1172.725, 36.81494
1173.812, 84.91406
1174.898, 18.01538
1175.984, 124.7844
1177.071, 77.88184
1178.157, 44.97729
1179.242, 22.07007
1180.328, 126.1609
1181.414, 50.24902
1182.499, 75.33521
1183.584, 119.4194
1184.669, 21.50146
1185.754, 43.58203
1186.839, 27.66260
1187.924, 49.74243
1189.008, 0.8200680
1190.092, 79.89771
1191.177, 116.9734
1192.260, 59.05957
1193.344, 47.15894
1194.428, 4.256836
1195.512, 46.35254
1196.595, 1.457275
1197.678, 18.55835
1198.761, 0.6621090
1199.844, 92.23706
1200.927, 5.190430
1202.009, 33.84912
1203.092, 1.890869
1204.174, 75.92920
1205.256, 24.96582
1206.338, 21.00952
1207.420, 38.05371
1208.502, 34.09644
1209.583, 0.1379390
1210.665, 25.17627
1211.746, 9.786621
1212.827, 1.242676
1213.908, 5.684814
1214.988, 20.30884
1216.069, 17.65649
1217.149, 6.626709
1218.230, 9.583984
1219.310, 61.45044
1220.390, 9.500732
1221.470, 8.554932
1222.549, 27.39209
1223.629, 49.64697
1224.708, 66.68506
1225.787, 46.72241
1226.866, 31.75977
1227.945, 8.798096
1229.024, 24.83569
1230.103, 18.12671
1231.181, 12.10205
1232.259, 15.08618
1233.337, 34.91895
1234.415, 69.92310
1235.493, 91.92700
1236.571, 6.069336
1237.648, 19.92822
1238.726, 6.073975
1239.803, 48.91821
1240.880, 49.91016
1241.957, 1.097900
1243.034, 22.89136
1244.110, 6.119629
1245.187, 55.86450
1246.263, 22.85229
1247.339, 3.160400
1248.415, 73.82422
1249.491, 25.80884
1250.566, 22.79321
1251.642, 36.77930
1252.717, 31.76562
1253.793, 24.75171
1254.868, 32.73828
1255.943, 55.72485
1257.017, 80.71191
1258.092, 67.69946
1259.166, 58.68677
1260.241, 95.67505
1261.315, 1.663330
1262.389, 29.10498
1263.462, 33.64087
1264.536, 25.63062
1265.610, 25.62109
1266.683, 46.61182
1267.756, 29.39624
1268.829, 43.58081
1269.902, 49.55859
1270.975, 28.46240
1272.048, 9.497559
1273.120, 68.46362
1274.192, 32.42578
1275.264, 9.610840
1276.336, 33.34888
1277.408, 115.3098
1278.480, 68.27222
1279.551, 87.23584
1280.623, 36.79883
1281.694, 36.14917
1282.765, 5.098633
1283.836, 95.04980
1284.907, 52.99731
1285.977, 48.93018
1287.048, 88.85938
1288.118, 29.79028
1289.188, 64.72290
1290.258, 29.65747
1291.328, 68.59399
1292.398, 37.53247
1293.467, 69.47314
1294.537, 38.38501
1295.606, 14.32959
1296.675, 6.276123
1297.744, 0.2343750
1298.813, 114.1943
1299.882, 73.15747
1300.950, 76.12378
1302.018, 58.09229
1303.086, 23.06348
1304.155, 32.96216
1305.222, 14.00024
1306.290, 53.96460
1307.358, 166.9316
1308.425, 46.90161
1309.492, 102.8740
1310.559, 52.84863
1311.626, 89.82568
1312.693, 74.97998
1313.760, 74.78638
1314.826, 68.76855
1315.893, 48.75146
1316.959, 89.73511
1318.025, 21.42822
1319.091, 128.4136
1320.157, 72.39941
1321.222, 24.38647
1322.288, 100.3740
1323.353, 122.2681
1324.418, 71.25830
1325.483, 92.02637
1326.548, 142.0186
1327.612, 200.7468
1328.677, 142.6494
1329.741, 180.0220
1330.806, 142.0205
1331.870, 127.8506
1332.934, 193.8530
1333.997, 168.8577
1335.061, 168.8640
1336.124, 190.8730
1337.188, 153.8840
1338.251, 183.6768
1339.314, 196.6670
1340.377, 200.8267
1341.439, 221.6875
1342.502, 198.1218
1343.564, 225.1484
1344.627, 192.8481
1345.689, 231.2488
1346.751, 163.4724
1347.813, 163.5103
1348.874, 227.5508
1349.936, 174.5950
1350.997, 187.7339
1352.058, 210.7839
1353.119, 128.8374
1354.180, 226.8931
1355.241, 147.9531
1356.301, 220.0161
1357.362, 245.0830
1358.422, 212.8667
1359.482, 154.0391
1360.542, 158.0342
1361.602, 263.1167
1362.662, 149.2031
1363.721, 249.2939
1364.781, 239.8994
1365.840, 297.9995
1366.899, 284.6279
1367.958, 323.7373
1369.017, 335.9351
1370.075, 328.8228
1371.134, 357.9463
1372.192, 374.6318
1373.250, 387.5513
1374.308, 409.6904
1375.366, 401.5981
1376.424, 462.7466
1377.481, 451.9009
1378.539, 521.3877
1379.596, 532.5522
1380.653, 595.7227
1381.710, 663.8989
1382.767, 747.0806
1383.824, 849.1816
1384.880, 927.4634
1385.937, 1113.664
1386.993, 1300.872
1388.049, 1519.085
1389.105, 1926.306
1390.161, 2148.534
1391.216, 2643.769
1392.272, 3344.011
1393.327, 3857.260
1394.382, 4425.519
1395.437, 4950.040
1396.492, 5405.313
1397.547, 5587.594
1398.601, 5616.222
1399.656, 5404.058
1400.710, 5211.365
1401.764, 4829.684
1402.818, 4603.562
1403.872, 3983.897
1404.925, 3811.244
1405.979, 3526.601
1407.032, 3352.954
1408.085, 3068.208
1409.139, 2934.583
1410.191, 2833.962
1411.244, 2871.353
1412.297, 2855.663
1413.349, 3002.077
1414.402, 2971.503
1415.454, 3161.941
1416.506, 3251.394
1417.558, 3586.859
1418.609, 3582.338
1419.661, 3795.831
1420.712, 3970.339
1421.764, 4056.862
1422.815, 4501.400
1423.866, 4759.047
1424.916, 5055.609
1425.967, 5445.424
1427.018, 5913.059
1428.068, 6479.690
1429.118, 7002.344
1430.168, 7509.021
1431.218, 7881.054
1432.268, 7910.638
1433.318, 7721.212
1434.367, 7444.844
1435.416, 6950.396
1436.465, 6353.928
1437.514, 5652.440
1438.563, 4934.939
1439.612, 4325.440
1440.661, 3832.646
1441.709, 3297.855
1442.757, 2895.072
1443.805, 2669.294
1444.853, 2433.521
1445.901, 2213.754
1446.949, 2070.607
1447.996, 1896.117
1449.044, 1824.617
1450.091, 1631.941
1451.138, 1528.271
1452.185, 1411.609
1453.232, 1428.959
1454.278, 1306.327
1455.325, 1279.710
1456.371, 1085.121
1457.417, 1008.542
1458.463, 932.9819
1459.509, 878.4385
1460.555, 738.9043
1461.601, 673.3779
1462.646, 666.8799
1463.691, 500.4072
1464.737, 473.9443
1465.782, 446.4971
1466.826, 451.0659
1467.871, 449.6455
1468.916, 422.2393
1469.960, 384.8369
1471.004, 372.7412
1472.048, 324.0674
1473.092, 325.6948
1474.136, 344.3320
1475.180, 319.9800
1476.223, 278.6382
1477.267, 249.3062
1478.310, 230.5493
1479.353, 224.6738
1480.396, 200.3843
1481.439, 161.1162
1482.481, 152.8853
1483.524, 158.6689
1484.566, 211.4712
1485.608, 133.2842
1486.650, 132.1230
1487.692, 220.9883
1488.734, 92.88770
1489.775, 144.8223
1490.817, 137.7681
1491.858, 156.7271
1492.899, 49.69727
1493.940, 102.6787
1494.981, 57.63867
1496.022, 33.60352
1497.062, 65.57617
1498.103, 30.43018
1499.143, 40.58594
1500.183, 26.61230
1501.223, 56.65186
1502.263, 12.70557
1503.302, 17.21631
1504.342, 98.89111
1505.381, 138.0293
1506.420, 146.1973
1507.459, 143.3955
1508.498, 132.6250
1509.537, 153.7988
1510.576, 124.1787
1511.614, 175.5044
1512.652, 174.8623
1513.691, 155.2544
1514.729, 294.6797
1515.767, 184.1396
1516.804, 184.6348
1517.842, 282.1660
1518.879, 254.7358
1519.917, 200.3452
1520.954, 309.9951
1521.991, 263.6890
1523.028, 176.4272
1524.064, 201.2104
1525.101, 181.0396
1526.137, 206.9165
1527.173, 182.8413
1528.210, 182.8154
1529.245, 157.8408
1530.281, 87.92383
1531.317, 54.08496
1532.352, 85.19629
1533.388, 10.36963
1534.423, 6.237793
1535.458, 105.4961
1536.493, 58.82178
1537.528, 87.21729
1538.562, 82.68457
1539.597, 32.22656
1540.631, 64.84717
1541.665, 112.5483
1542.700, 55.33301
1543.733, 71.20557
1544.767, 42.16797
1545.801, 50.22314
1546.834, 39.19336
1547.868, 28.26855
1548.901, 29.32422
1549.934, 5.187012
1550.967, 20.24023
1551.999, 163.5063
1553.032, 62.01123
1554.064, 162.7920
1555.097, 125.8950
1556.129, 21.07129
1557.161, 55.72900
1558.193, 3.837402
1559.224, 62.43652
1560.256, 101.0312
1561.287, 17.29297
1562.318, 49.47754
1563.350, 0.0000000E+00
##END=



