##NAMES=Ilvaite
##RRUFFID=R050040
##IDEAL CHEMISTRY=CaFe^2+^_2_Fe^3+^OSi_2_O_7_(OH)
##LOCALITY=Capo Calamita, Isle of Elba, Italy
##OWNER=RRUFF
##SOURCE=University of Arizona Mineral Museum
##DESCRIPTION=Brown fragment
##STATUS=The identification of this mineral has been confirmed by X-ray diffraction and chemical analysis
##URL=rruff.info/R050040
##MEASURED CHEMISTRY=Ca_1.00_(Fe^2+^_1.89_Mn_0.10_Mg_0.01_)_Î£=2_Fe^3+^_1.00_OSi_2.00_O_7_(OH); trace amounts of Al; OH estimated by charge balance
##PIN_ID=M00410
##ORIENTATION=Laser parallel to b* (0 1 0). Fiducial mark perpendicular to laser is parallel to c [0 0 1]
143.6600, 0.0000000E+00
144.8940, 6.242188
146.1280, 32.25781
147.3620, 682.2852
148.5960, 639.6914
149.8300, 1410.898
151.0630, 2347.801
152.2960, 1736.750
153.5300, 2000.684
154.7620, 1942.051
155.9950, 1205.344
157.2280, 412.2539
158.4600, 275.0820
159.6920, 250.6133
160.9250, 568.7969
162.1560, 1053.605
163.3880, 1635.082
164.6200, 1929.633
165.8510, 2055.691
167.0820, 2197.320
168.3130, 2482.820
169.5440, 2683.043
170.7750, 2574.941
172.0050, 2266.301
173.2350, 1954.660
174.4650, 1839.348
175.6950, 1526.008
176.9250, 2179.168
178.1550, 1883.684
179.3840, 1726.027
180.6130, 1279.211
181.8420, 1445.430
183.0710, 1577.008
184.3000, 1845.105
185.5280, 2087.684
186.7570, 2526.711
187.9850, 2716.840
189.2130, 3092.555
190.4400, 3444.812
191.6680, 3659.176
192.8960, 3914.953
194.1230, 4345.738
195.3500, 4396.508
196.5770, 4436.379
197.8030, 4744.762
199.0300, 5281.566
200.2560, 5869.117
201.4830, 5897.051
202.7090, 4837.594
203.9340, 2859.941
205.1600, 902.0586
206.3860, 61.00781
207.6110, 265.4258
208.8360, 373.1016
210.0610, 389.2422
211.2860, 40.38281
212.5100, 162.3438
213.7350, 95.32422
214.9590, 20.38672
216.1830, 208.0781
217.4070, 88.52734
218.6310, 97.38281
219.8540, 96.93750
221.0780, 185.1914
222.3010, 104.3750
223.5240, 63.41797
224.7470, 228.9453
225.9690, 285.8086
227.1920, 181.4023
228.4140, 310.0352
229.6360, 24.14844
230.8580, 65.40625
232.0800, 252.1016
233.3020, 129.7148
234.5230, 218.7070
235.7440, 227.2852
236.9650, 129.8008
238.1860, 149.1211
239.4070, 153.0078
240.6280, 125.5391
241.8480, 131.5664
243.0680, 108.0977
244.2880, 170.5352
245.5080, 99.62109
246.7280, 167.8789
247.9470, 16.89453
249.1660, 77.39844
250.3860, 156.9297
251.6040, 137.5547
252.8230, 62.82812
254.0420, 175.2930
255.2600, 103.8555
256.4790, 535.0938
257.6970, 869.8906
258.9150, 1115.504
260.1320, 994.1875
261.3500, 1342.887
262.5670, 1502.633
263.7840, 1653.578
265.0010, 2103.258
266.2180, 2119.414
267.4350, 2296.270
268.6510, 2552.770
269.8680, 3030.008
271.0840, 3010.930
272.3000, 3543.410
273.5160, 3502.309
274.7310, 4176.973
275.9470, 4372.656
277.1620, 4186.352
278.3770, 4226.062
279.5920, 4106.930
280.8070, 3771.527
282.0210, 3681.293
283.2360, 3376.074
284.4500, 2899.879
285.6640, 2481.695
286.8780, 2094.535
288.0920, 1554.391
289.3050, 1425.270
290.5180, 1084.930
291.7320, 905.1094
292.9450, 434.6523
294.1570, 256.1172
295.3700, 239.4336
296.5830, 229.5469
297.7950, 151.4219
299.0070, 113.0391
300.2190, 184.0703
301.4310, 26.84375
302.6420, 140.9805
303.8540, 163.4609
305.0650, 179.1211
306.2760, 51.05469
307.4870, 112.1289
308.6980, 181.3398
309.9080, 11.84375
311.1190, 279.6016
312.3290, 91.38672
313.5390, 95.19141
314.7490, 11.66016
315.9580, 387.1523
317.1680, 421.3438
318.3770, 532.1758
319.5860, 502.6914
320.7950, 910.8945
322.0040, 1239.562
323.2130, 1667.859
324.4210, 1947.027
325.6290, 2168.094
326.8380, 2474.812
328.0460, 2541.266
329.2530, 2704.406
330.4610, 2949.238
331.6680, 3215.816
332.8760, 3506.066
334.0830, 3243.027
335.2890, 3322.395
336.4960, 3594.066
337.7030, 3094.180
338.9090, 3016.934
340.1150, 3037.172
341.3210, 2587.945
342.5270, 2595.402
343.7330, 2360.430
344.9380, 2143.258
346.1440, 1940.000
347.3490, 1517.723
348.5540, 1343.430
349.7590, 1175.199
350.9630, 1006.035
352.1680, 929.6328
353.3720, 878.6992
354.5760, 760.8555
355.7800, 808.2188
356.9840, 659.7812
358.1870, 796.7656
359.3910, 609.5000
360.5940, 389.6914
361.7970, 730.6133
363.0000, 548.4609
364.2030, 481.7930
365.4050, 521.2031
366.6080, 431.8555
367.8100, 203.4375
369.0120, 313.8477
370.2140, 183.8555
371.4150, 49.74219
372.6170, 231.3047
373.8180, 319.3594
375.0190, 23.09766
376.2200, 204.9531
377.4210, 275.5469
378.6220, 183.5039
379.8220, 241.8438
381.0230, 382.3711
382.2230, 241.7383
383.4230, 316.1016
384.6220, 324.2773
385.8220, 317.5039
387.0220, 353.2695
388.2210, 405.0312
389.4200, 410.0625
390.6190, 613.7344
391.8180, 511.3125
393.0160, 811.5664
394.2150, 740.2109
395.4130, 926.0625
396.6110, 804.3516
397.8090, 761.5234
399.0060, 1130.645
400.2040, 1036.062
401.4010, 1099.418
402.5980, 1107.207
403.7950, 1257.098
404.9920, 1458.992
406.1890, 1475.898
407.3860, 1460.816
408.5820, 1645.750
409.7780, 1689.703
410.9740, 1653.492
412.1700, 1690.664
413.3650, 1551.672
414.5610, 1540.707
415.7560, 1487.766
416.9510, 1423.102
418.1460, 1492.961
419.3410, 1369.098
420.5360, 1551.258
421.7300, 1617.441
422.9240, 1637.656
424.1180, 1748.891
425.3120, 1900.020
426.5060, 1995.672
427.7000, 2173.746
428.8930, 2268.082
430.0860, 2186.445
431.2790, 2292.836
432.4720, 1839.246
433.6650, 2070.688
434.8580, 2249.078
436.0500, 2060.430
437.2420, 2326.684
438.4340, 2002.055
439.6260, 2367.496
440.8180, 1535.766
442.0090, 1597.668
443.2010, 1660.355
444.3920, 1918.469
445.5830, 1451.379
446.7740, 1681.105
447.9640, 1502.008
449.1550, 1617.660
450.3450, 1366.871
451.5350, 1553.891
452.7250, 1422.605
453.9150, 1363.543
455.1050, 1555.254
456.2940, 1542.797
457.4830, 1416.188
458.6720, 1261.836
459.8610, 1314.766
461.0500, 1394.891
462.2390, 1607.484
463.4270, 1446.961
464.6150, 1562.121
465.8040, 1608.508
466.9910, 1506.422
468.1790, 1671.562
469.3670, 1560.703
470.5540, 1499.840
471.7410, 1748.980
472.9280, 1598.125
474.1150, 1544.285
475.3020, 2084.449
476.4890, 1759.680
477.6750, 2074.895
478.8610, 1830.203
480.0470, 2291.801
481.2330, 1978.184
482.4190, 2046.582
483.6040, 2130.547
484.7900, 2108.508
485.9750, 2165.859
487.1600, 2330.324
488.3450, 2361.805
489.5290, 2515.309
490.7140, 2618.828
491.8980, 2550.367
493.0820, 2897.938
494.2660, 2929.574
495.4500, 3017.297
496.6340, 3617.125
497.8170, 3332.723
499.0010, 3584.641
500.1840, 3511.617
501.3670, 3522.637
502.5500, 3662.719
503.7320, 3390.652
504.9150, 3633.887
506.0970, 3586.207
507.2790, 3454.672
508.4610, 3279.152
509.6430, 3468.672
510.8250, 3504.441
512.0060, 3350.754
513.1870, 3212.105
514.3680, 3396.086
515.5490, 3529.352
516.7300, 3126.055
517.9110, 3458.008
519.0910, 3247.453
520.2710, 3445.266
521.4510, 2999.012
522.6310, 3458.832
523.8110, 3339.992
524.9910, 3503.059
526.1700, 3476.156
527.3490, 3457.867
528.5280, 3410.852
529.7070, 3419.586
530.8860, 3219.164
532.0650, 3419.203
533.2430, 3334.965
534.4210, 3339.066
535.5990, 2899.984
536.7770, 3243.980
537.9550, 3030.676
539.1320, 2921.953
540.3100, 3322.203
541.4870, 3182.566
542.6640, 2759.879
543.8410, 3315.215
545.0170, 2979.574
546.1940, 2999.945
547.3700, 2992.336
548.5470, 2862.953
549.7230, 3132.375
550.8980, 3130.812
552.0740, 2710.262
553.2500, 2744.727
554.4250, 2431.203
555.6000, 2878.699
556.7750, 2915.207
557.9500, 2747.668
559.1250, 2491.266
560.2990, 2428.816
561.4730, 2463.383
562.6480, 2251.961
563.8220, 2315.547
564.9950, 2327.148
566.1690, 2243.766
567.3430, 2409.387
568.5160, 2598.027
569.6890, 2403.676
570.8620, 2388.336
572.0350, 2300.004
573.2070, 2146.688
574.3800, 2339.375
575.5520, 1855.082
576.7240, 1851.793
577.8960, 1582.512
579.0680, 1646.246
580.2400, 1737.996
581.4110, 1579.770
582.5830, 1499.555
583.7540, 1267.363
584.9250, 1136.195
586.0950, 1091.051
587.2660, 962.9688
588.4370, 810.6328
589.6070, 949.2188
590.7770, 945.4141
591.9470, 1125.527
593.1170, 508.3242
594.2860, 692.9688
595.4560, 788.7266
596.6250, 785.3906
597.7940, 416.3047
598.9630, 514.6953
600.1320, 429.7734
601.3000, 346.4766
602.4690, 511.4688
603.6370, 193.4141
604.8050, 369.4258
605.9730, 338.5430
607.1410, 395.4258
608.3090, 303.7773
609.4760, 416.1445
610.6430, 379.5859
611.8100, 290.8203
612.9770, 217.5039
614.1440, 493.3008
615.3110, 433.8164
616.4770, 4.375000
617.6430, 404.7422
618.8090, 421.3047
619.9750, 20.02734
621.1410, 432.3281
622.3070, 146.6953
623.4720, 364.1836
624.6370, 327.6406
625.8020, 271.9727
626.9670, 352.4023
628.1320, 347.6055
629.2970, 237.0430
630.4610, 397.3555
631.6250, 293.6602
632.7890, 218.4922
633.9530, 289.4844
635.1170, 196.4141
636.2810, 167.0469
637.4440, 90.45703
638.6070, 402.5508
639.7700, 55.76562
640.9330, 415.9688
642.0960, 252.9570
643.2590, 295.1523
644.4210, 208.3203
645.5830, 344.4766
646.7450, 30.55078
647.9070, 66.10156
649.0690, 341.2109
650.2310, 365.7305
651.3920, 95.80859
652.5530, 6.484375
653.7140, 11.44141
654.8750, 83.25000
656.0360, 355.4180
657.1970, 45.38281
658.3570, 147.5312
659.5170, 160.4258
660.6770, 36.30078
661.8370, 165.1562
662.9970, 251.9883
664.1570, 142.8008
665.3160, 4.414063
666.4750, 16.66016
667.6340, 166.9453
668.7930, 48.34375
669.9520, 90.19922
671.1110, 21.71484
672.2690, 406.7812
673.4270, 27.34375
674.5850, 906.0820
675.7430, 147.4648
676.9010, 110.1758
678.0590, 93.12500
679.2160, 492.3203
680.3730, 100.5234
681.5300, 168.6953
682.6870, 427.8398
683.8440, 121.9492
685.0010, 280.0352
686.1570, 645.0898
687.3130, 75.11328
688.4690, 526.1016
689.6250, 197.0625
690.7810, 484.9922
691.9370, 649.8906
693.0920, 914.7578
694.2470, 907.5977
695.4020, 1235.398
696.5570, 1270.172
697.7120, 1446.492
698.8670, 1572.824
700.0210, 1764.500
701.1750, 2133.145
702.3290, 2304.758
703.4830, 2394.336
704.6370, 2305.887
705.7910, 2268.398
706.9440, 1854.879
708.0970, 1522.328
709.2510, 1249.746
710.4030, 1243.129
711.5560, 1877.480
712.7090, 1621.793
713.8610, 1124.078
715.0140, 911.3359
716.1660, 396.5547
717.3180, 771.7305
718.4690, 1135.875
719.6210, 762.9883
720.7730, 628.0664
721.9240, 269.1055
723.0750, 452.1172
724.2260, 41.08594
725.3770, 243.0078
726.5270, 391.0977
727.6780, 38.48047
728.8280, 18.05078
729.9780, 283.4688
731.1280, 47.78125
732.2780, 25.00781
733.4280, 145.8828
734.5770, 19.89844
735.7260, 2.996094
736.8760, 228.8359
738.0250, 32.37500
739.1730, 180.6719
740.3220, 78.87109
741.4700, 36.36719
742.6190, 191.1875
743.7670, 101.0859
744.9150, 87.32422
746.0630, 220.5156
747.2100, 222.6719
748.3580, 116.7891
749.5050, 50.86719
750.6520, 71.90234
751.7990, 15.89453
752.9460, 94.82422
754.0930, 92.90234
755.2390, 281.4688
756.3860, 268.7969
757.5320, 159.2695
758.6780, 171.8828
759.8240, 115.2148
760.9690, 81.51562
762.1150, 86.77344
763.2600, 112.9961
764.4060, 87.17969
765.5510, 178.3242
766.6950, 166.3281
767.8400, 111.0938
768.9850, 139.5391
770.1290, 25.53516
771.2730, 123.5117
772.4170, 43.69922
773.5610, 198.9688
774.7050, 59.58984
775.8480, 33.62500
776.9920, 153.8164
778.1350, 432.2227
779.2780, 4.410156
780.4210, 152.1016
781.5640, 167.1836
782.7060, 175.3164
783.8490, 105.5820
784.9910, 66.66016
786.1330, 110.2305
787.2750, 4.910156
788.4170, 83.89062
789.5580, 42.33984
790.7000, 178.8633
791.8410, 81.11328
792.9820, 132.5781
794.1230, 5.859375
795.2640, 87.89453
796.4040, 295.2617
797.5450, 156.5977
798.6850, 334.3828
799.8250, 410.1406
800.9650, 402.1641
802.1050, 572.3750
803.2450, 383.7656
804.3840, 337.5547
805.5230, 481.1406
806.6630, 192.0547
807.8020, 428.0508
808.9400, 201.7305
810.0790, 401.7461
811.2170, 370.4883
812.3560, 493.4492
813.4940, 338.3828
814.6320, 454.6875
815.7700, 402.1133
816.9070, 498.3320
818.0450, 377.0859
819.1820, 512.8945
820.3190, 584.6797
821.4560, 338.4414
822.5930, 611.1836
823.7300, 358.8984
824.8670, 385.3828
826.0030, 140.0547
827.1390, 494.7031
828.2750, 705.3281
829.4110, 275.9375
830.5470, 55.52344
831.6820, 231.0859
832.8180, 351.6328
833.9530, 10.83984
835.0880, 1119.668
836.2230, 416.1562
837.3580, 408.6289
838.4920, 921.0820
839.6270, 727.5195
840.7610, 524.9375
841.8950, 369.3359
843.0290, 65.72266
844.1630, 129.8320
845.2960, 121.4492
846.4300, 321.7930
847.5630, 215.1172
848.6960, 482.4297
849.8290, 382.7305
850.9620, 4.015625
852.0940, 517.2852
853.2270, 67.54297
854.3590, 514.7852
855.4910, 402.6953
856.6230, 824.2422
857.7550, 353.4570
858.8870, 461.6523
860.0180, 595.8477
861.1500, 204.0547
862.2810, 138.2266
863.4120, 153.8750
864.5430, 503.1797
865.6730, 312.1523
866.8040, 314.2266
867.9340, 563.4727
869.0640, 496.7109
870.1940, 575.3477
871.3240, 216.8672
872.4540, 540.4297
873.5830, 398.5547
874.7130, 596.2500
875.8420, 698.6250
876.9710, 400.4922
878.1000, 541.1719
879.2290, 1660.879
880.3570, 1030.848
881.4860, 1371.789
882.6140, 690.9297
883.7420, 683.0898
884.8700, 717.1797
885.9980, 925.4844
887.1250, 879.3438
888.2530, 808.0938
889.3800, 955.1406
890.5070, 796.1484
891.6340, 1126.355
892.7610, 644.3672
893.8880, 581.2852
895.0140, 860.5273
896.1400, 787.7656
897.2670, 500.8867
898.3930, 511.0508
899.5180, 592.3438
900.6440, 471.5547
901.7700, 587.8750
902.8950, 690.2109
904.0200, 630.5664
905.1450, 509.9297
906.2700, 534.8047
907.3950, 376.5273
908.5190, 436.3203
909.6440, 467.4414
910.7680, 321.1016
911.8920, 579.3945
913.0160, 341.9219
914.1400, 229.5039
915.2630, 760.3086
916.3870, 19.06641
917.5100, 540.5938
918.6330, 397.2812
919.7560, 1317.059
920.8790, 750.3633
922.0010, 724.1211
923.1240, 318.4805
924.2460, 359.1133
925.3680, 599.4766
926.4900, 698.3438
927.6120, 316.3281
928.7340, 800.3281
929.8550, 318.0586
930.9760, 917.0742
932.0980, 473.1484
933.2190, 967.2578
934.3390, 785.1328
935.4600, 1279.656
936.5810, 609.9102
937.7010, 446.1914
938.8210, 622.5195
939.9410, 396.8906
941.0610, 741.3398
942.1810, 455.8359
943.3010, 558.3672
944.4200, 708.9336
945.5390, 697.5352
946.6580, 793.1836
947.7770, 594.8672
948.8960, 640.5781
950.0150, 649.3633
951.1330, 760.1875
952.2510, 502.0430
953.3690, 467.9414
954.4870, 721.8711
955.6050, 737.8359
956.7230, 861.8398
957.8400, 922.7812
958.9580, 971.5898
960.0750, 950.0859
961.1920, 1002.262
962.3090, 959.5273
963.4250, 1002.027
964.5420, 1061.242
965.6580, 1070.711
966.7740, 1040.258
967.8900, 1084.840
969.0060, 1119.305
970.1220, 1962.004
971.2380, 2419.742
972.3530, 2828.527
973.4680, 2821.453
974.5830, 1841.418
975.6980, 1532.426
976.8130, 2661.473
977.9280, 1689.562
979.0420, 1954.691
980.1560, 1713.867
981.2710, 1708.086
982.3850, 1860.348
983.4980, 1734.652
984.6120, 1954.000
985.7260, 2043.371
986.8390, 1555.828
987.9520, 2232.320
989.0650, 1957.863
990.1780, 1295.445
991.2910, 1441.074
992.4030, 1193.789
993.5160, 1045.547
994.6280, 1299.348
995.7400, 961.2031
996.8520, 1147.098
997.9640, 790.1602
999.0750, 811.6758
1000.187, 788.8047
1001.298, 765.8047
1002.409, 770.1836
1003.520, 760.6406
1004.631, 804.2070
1005.741, 758.8359
1006.852, 740.5312
1007.962, 833.2695
1009.072, 1472.078
1010.182, 939.9961
1011.292, 824.0195
1012.402, 1495.098
1013.511, 795.3008
1014.621, 651.5625
1015.730, 575.8789
1016.839, 959.8867
1017.948, 1061.297
1019.056, 841.7578
1020.165, 372.2695
1021.273, 556.8320
1022.382, 716.4727
1023.490, 505.1641
1024.598, 548.9609
1025.706, 542.8008
1026.813, 451.7734
1027.921, 419.8555
1029.028, 459.1367
1030.135, 528.1602
1031.242, 536.3867
1032.349, 615.6562
1033.456, 610.9805
1034.562, 396.3555
1035.668, 939.7812
1036.775, 678.2539
1037.881, 554.7734
1038.987, 773.9727
1040.092, 589.5898
1041.198, 840.3047
1042.303, 713.0859
1043.408, 809.1289
1044.514, 838.2031
1045.618, 895.9492
1046.723, 870.1719
1047.828, 740.2734
1048.932, 777.3711
1050.037, 676.5156
1051.141, 791.8203
1052.245, 769.1719
1053.349, 847.6133
1054.452, 744.1172
1055.556, 702.6758
1056.659, 677.2852
1057.762, 913.9375
1058.865, 1021.664
1059.968, 1491.430
1061.071, 1100.270
1062.174, 1055.203
1063.276, 671.1836
1064.378, 899.9805
1065.480, 822.0469
1066.582, 1295.016
1067.684, 1055.035
1068.786, 1157.359
1069.887, 904.5938
1070.988, 815.4297
1072.090, 1111.750
1073.191, 553.1094
1074.291, 985.5117
1075.392, 817.9492
1076.493, 807.4336
1077.593, 855.9492
1078.693, 840.5312
1079.793, 749.1133
1080.893, 1015.754
1081.993, 659.4336
1083.092, 838.1523
1084.192, 1093.910
1085.291, 662.7109
1086.390, 983.5469
1087.489, 734.4180
1088.588, 699.3281
1089.686, 747.2773
1090.785, 743.2617
1091.883, 1022.316
1092.981, 1136.730
1094.079, 857.4531
1095.177, 1145.633
1096.275, 1101.566
1097.373, 881.5117
1098.470, 893.2773
1099.567, 781.5508
1100.664, 866.9570
1101.761, 838.2930
1102.858, 710.6680
1103.954, 945.0000
1105.051, 598.4023
1106.147, 841.8828
1107.243, 690.3945
1108.339, 706.9336
1109.435, 868.5000
1110.531, 856.1055
1111.626, 1032.883
1112.722, 972.0977
1113.817, 888.4805
1114.912, 802.1953
1116.007, 865.9336
1117.101, 663.7031
1118.196, 1039.621
1119.290, 847.4492
1120.385, 968.8555
1121.479, 845.7344
1122.573, 670.6445
1123.666, 922.8984
1124.760, 954.8555
1125.853, 869.9141
1126.947, 666.9258
1128.040, 569.9570
1129.133, 340.0156
1130.226, 653.0977
1131.318, 676.2031
1132.411, 921.3281
1133.503, 712.0430
1134.596, 158.6367
1135.688, 148.8320
1136.780, 377.0508
1137.871, 646.2930
1138.963, 197.5586
1140.054, 172.8359
1141.146, 420.1367
1142.237, 620.5234
1143.328, 460.8633
1144.419, 476.3594
1145.509, 192.3047
1146.600, 283.9336
1147.690, 82.66016
1148.780, 473.3281
1149.870, 183.7500
1150.960, 413.1953
1152.050, 180.6445
1153.139, 113.2461
1154.229, 442.7305
1155.318, 130.2422
1156.407, 321.7500
1157.496, 398.2773
1158.585, 338.8477
1159.674, 336.3906
1160.762, 47.94922
1161.850, 209.5195
1162.939, 182.0547
1164.027, 123.6719
1165.114, 293.5312
1166.202, 198.6445
1167.290, 146.2617
1168.377, 368.8906
1169.464, 131.4727
1170.551, 237.1328
1171.638, 57.74609
1172.725, 76.36719
1173.812, 225.9961
1174.898, 131.6289
1175.984, 187.2695
1177.071, 150.0781
1178.157, 440.5195
1179.242, 105.8750
1180.328, 115.6992
1181.414, 222.2812
1182.499, 153.8672
1183.584, 258.4570
1184.669, 163.0469
1185.754, 364.6445
1186.839, 231.2461
1187.924, 231.8477
1189.008, 65.45703
1190.092, 127.0664
1191.177, 315.6758
1192.260, 196.2891
1193.344, 281.9062
1194.428, 138.4805
1195.512, 138.0820
1196.595, 205.3633
1197.678, 183.1016
1198.761, 202.5586
1199.844, 50.02344
1200.927, 54.51562
1202.009, 151.9219
1203.092, 23.35547
1204.174, 121.7891
1205.256, 46.22266
1206.338, 132.6523
1207.420, 159.5938
1208.502, 213.5078
1209.583, 245.9375
1210.665, 59.35938
1211.746, 88.78125
1212.827, 102.1953
1213.908, 150.6055
1214.988, 203.0156
1216.069, 212.9688
1217.149, 231.8242
1218.230, 234.2148
1219.310, 139.6094
1220.390, 107.9961
1221.470, 22.62109
1222.549, 45.26172
1223.629, 150.9414
1224.708, 54.71094
1225.787, 150.5273
1226.866, 98.43359
1227.945, 127.8555
1229.024, 89.54297
1230.103, 118.5156
1231.181, 82.34375
1232.259, 256.1992
1233.337, 8.628906
1234.415, 351.5430
1235.493, 158.8516
1236.571, 92.47266
1237.648, 305.0820
1238.726, 92.67969
1239.803, 48.27344
1240.880, 38.85938
1241.957, 35.43359
1243.034, 65.23047
1244.110, 258.5430
1245.187, 67.08594
1246.263, 163.6211
1247.339, 35.85938
1248.415, 220.6172
1249.491, 33.08594
1250.566, 110.5586
1251.642, 190.0234
1252.717, 117.5234
1253.793, 252.8398
1254.868, 60.19141
1255.943, 123.5234
1257.017, 121.8555
1258.092, 121.1719
1259.166, 137.3750
1260.241, 75.76953
1261.315, 113.0586
1262.389, 44.32812
1263.462, 13.41406
1264.536, 120.7930
1265.610, 344.2031
1266.683, 312.3984
1267.756, 354.5898
1268.829, 234.7656
1269.902, 358.9375
1270.975, 163.9062
1272.048, 138.1250
1273.120, 15.14062
1274.192, 9.871094
1275.264, 71.07422
1276.336, 103.0000
1277.408, 56.26562
1278.480, 274.1602
1279.551, 44.04297
1280.623, 119.9062
1281.694, 33.24219
1282.765, 314.5508
1283.836, 2.328125
1284.907, 226.0664
1285.977, 298.7891
1287.048, 47.50000
1288.118, 204.1836
1289.188, 231.8594
1290.258, 184.5234
1291.328, 257.1758
1292.398, 43.80859
1293.467, 389.4219
1294.537, 38.01953
1295.606, 110.5898
1296.675, 228.1484
1297.744, 385.6875
1298.813, 390.2578
1299.882, 396.1133
1300.950, 368.6094
1302.018, 323.1055
1303.086, 337.2422
1304.155, 351.0508
1305.222, 328.5000
1306.290, 436.7812
1307.358, 416.1680
1308.425, 489.9258
1309.492, 356.0977
1310.559, 439.4883
1311.626, 364.8672
1312.693, 370.9141
1313.760, 355.5898
1314.826, 417.9375
1315.893, 453.0547
1316.959, 535.6055
1318.025, 430.9258
1319.091, 739.2344
1320.157, 280.5352
1321.222, 168.8242
1322.288, 353.0938
1323.353, 290.5781
1324.418, 333.8203
1325.483, 380.1875
1326.548, 137.3984
1327.612, 474.5977
1328.677, 479.7812
1329.741, 249.3984
1330.806, 252.5586
1331.870, 225.9180
1332.934, 464.8281
1333.997, 290.9453
1335.061, 272.0430
1336.124, 413.1289
1337.188, 376.1992
1338.251, 371.2578
1339.314, 500.3047
1340.377, 351.3398
1341.439, 337.2969
1342.502, 338.7070
1343.564, 336.3320
1344.627, 228.3047
1345.689, 238.3906
1346.751, 261.7188
1347.813, 217.1602
1348.874, 403.0859
1349.936, 485.9727
1350.997, 651.5273
1352.058, 302.8008
1353.119, 510.6445
1354.180, 371.7617
1355.241, 239.8867
1356.301, 399.2227
1357.362, 289.0664
1358.422, 86.80078
1359.482, 133.6289
1360.542, 8.078125
1361.602, 408.3281
1362.662, 23.83594
1363.721, 341.9492
1364.781, 594.7305
1365.840, 443.5078
1366.899, 394.2812
1367.958, 308.0430
1369.017, 162.6602
1370.075, 397.1562
1371.134, 188.9102
1372.192, 624.6602
1373.250, 380.4062
1374.308, 415.1484
1375.366, 201.7656
1376.424, 377.5039
1377.481, 158.1719
1378.539, 265.9023
1379.596, 309.6289
1380.653, 486.0273
1381.710, 273.7500
1382.767, 433.3984
1383.824, 300.1133
1384.880, 210.8281
1385.937, 397.5430
1386.993, 487.2617
1388.049, 675.9766
1389.105, 300.6875
1390.161, 303.8281
1391.216, 86.12500
1392.272, 24.16016
1393.327, 518.2305
1394.382, 402.9414
1395.437, 732.6484
1396.492, 309.0898
1397.547, 307.8047
1398.601, 492.5508
1399.656, 300.2695
1400.710, 548.8594
1401.764, 539.0156
1402.818, 97.51562
1403.872, 213.2539
1404.925, 390.4297
1405.979, 319.1914
1407.032, 278.9570
1408.085, 411.7383
1409.139, 217.3867
1410.191, 125.1797
1411.244, 105.9648
1412.297, 500.7812
1413.349, 352.5195
1414.402, 421.2344
1415.454, 362.9844
1416.506, 266.7500
1417.558, 499.5273
1418.609, 175.3164
1419.661, 305.8672
1420.712, 450.6211
1421.764, 526.8906
1422.815, 568.6484
1423.866, 194.4141
1424.916, 136.1875
1425.967, 255.0000
1427.018, 227.8164
1428.068, 258.3750
1429.118, 308.0156
1430.168, 303.2578
1431.218, 338.2031
1432.268, 353.0898
1433.318, 127.1055
1434.367, 352.7930
1435.416, 482.0469
1436.465, 520.0117
1437.514, 193.2539
1438.563, 337.5469
1439.612, 293.1094
1440.661, 240.9805
1441.709, 451.6992
1442.757, 179.8594
1443.805, 386.5430
1444.853, 401.6875
1445.901, 504.1406
1446.949, 416.1055
1447.996, 386.5703
1449.044, 547.0703
1450.091, 602.4453
1451.138, 492.5000
1452.185, 599.9219
1453.232, 318.9570
1454.278, 378.7656
1455.325, 585.6016
1456.371, 485.1367
1457.417, 595.9336
1458.463, 626.2539
1459.509, 290.8477
1460.555, 591.4258
1461.601, 616.9453
1462.646, 360.1328
1463.691, 639.1133
1464.737, 421.5156
1465.782, 381.2930
1466.826, 473.8359
1467.871, 425.9844
1468.916, 369.7656
1469.960, 343.7773
1471.004, 221.7969
1472.048, 300.8203
1473.092, 224.8438
1474.136, 247.8828
1475.180, 319.9414
1476.223, 209.9688
1477.267, 364.1016
1478.310, 165.2422
1479.353, 507.3828
1480.396, 345.5352
1481.439, 351.6953
1482.481, 516.2227
1483.524, 265.3906
1484.566, 208.5586
1485.608, 566.8125
1486.650, 78.17188
1487.692, 313.6016
1488.734, 235.0469
1489.775, 403.5234
1490.817, 444.5820
1491.858, 167.6562
1492.899, 508.2969
1493.940, 309.9766
1494.981, 273.6641
1496.022, 393.3906
1497.062, 161.1602
1498.103, 238.5586
1499.143, 500.7812
1500.183, 30.62891
1501.223, 375.4961
1502.263, 117.6055
1503.302, 144.3086
1504.342, 474.2500
1505.381, 452.2031
1506.420, 143.1797
1507.459, 147.1602
1508.498, 292.1328
1509.537, 177.1250
1510.576, 216.1680
1511.614, 435.2578
1512.652, 196.1523
1513.691, 658.6016
1514.729, 32.85938
1515.767, 211.1758
1516.804, 477.5664
1517.842, 66.97266
1518.879, 410.5508
1519.917, 304.1797
1520.954, 31.10547
1521.991, 243.6680
1523.028, 7.496094
1524.064, 429.4180
1525.101, 375.3945
1526.137, 558.4492
1527.173, 465.6016
1528.210, 157.8711
1529.245, 253.2227
1530.281, 91.66016
1531.317, 232.1875
1532.352, 126.8008
1533.388, 268.5078
1534.423, 199.3086
1535.458, 203.3164
1536.493, 157.2070
1537.528, 163.1484
1538.562, 109.7422
1539.597, 91.42188
1540.631, 60.27344
1541.665, 285.8203
1542.700, 414.9883
1543.733, 452.9531
1544.767, 113.6602
1545.801, 257.5781
1546.834, 209.0938
1547.868, 155.9453
1548.901, 366.1250
1549.934, 92.04688
1550.967, 298.0703
1551.999, 312.4102
1553.032, 414.4180
1554.064, 326.4062
1555.097, 298.2969
1556.129, 460.2539
1557.161, 517.0820
1558.193, 409.1875
1559.224, 519.5898
1560.256, 242.3281
1561.287, 306.4453
1562.318, 518.3906
1563.350, 424.0938
1564.380, 542.2773
1565.411, 581.5234
1566.442, 6.429688
1567.472, 225.9961
1568.503, 269.3555
1569.533, 51.81641
1570.563, 0.0000000E+00
##END=



