##NAMES=Ilvaite
##RRUFFID=R050040
##IDEAL CHEMISTRY=CaFe^2+^_2_Fe^3+^OSi_2_O_7_(OH)
##LOCALITY=Capo Calamita, Isle of Elba, Italy
##OWNER=RRUFF
##SOURCE=University of Arizona Mineral Museum
##DESCRIPTION=Brown fragment
##STATUS=The identification of this mineral has been confirmed by X-ray diffraction and chemical analysis
##URL=rruff.info/R050040
##MEASURED CHEMISTRY=Ca_1.00_(Fe^2+^_1.89_Mn_0.10_Mg_0.01_)_Î£=2_Fe^3+^_1.00_OSi_2.00_O_7_(OH); trace amounts of Al; OH estimated by charge balance
##PIN_ID=M00376
##ORIENTATION=Laser parallel to -a* (-1 0 0). Fiducial mark perpendicular to laser is parallel to -b [0 -1 0]
135.0140, 0.0000000E+00
136.2500, 202.2578
137.4850, 208.6133
138.7200, 779.3047
139.9550, 650.6641
141.1900, 476.5117
142.4250, 289.8047
143.6600, 753.5000
144.8940, 1126.508
146.1280, 1723.168
147.3620, 1970.094
148.5960, 2201.723
149.8300, 3012.488
151.0630, 3634.441
152.2960, 3658.426
153.5300, 3553.250
154.7620, 3697.918
155.9950, 3880.227
157.2280, 3953.113
158.4600, 4039.887
159.6920, 4158.828
160.9250, 4162.109
162.1560, 4276.992
163.3880, 4420.680
164.6200, 4336.676
165.8510, 4165.270
167.0820, 4422.852
168.3130, 4281.676
169.5440, 4601.297
170.7750, 4755.180
172.0050, 5063.633
173.2350, 5193.895
174.4650, 5479.684
175.6950, 5868.586
176.9250, 6176.789
178.1550, 6326.625
179.3840, 6649.238
180.6130, 6878.805
181.8420, 7068.770
183.0710, 7434.848
184.3000, 7548.129
185.5280, 7947.250
186.7570, 7745.949
187.9850, 8199.086
189.2130, 8563.688
190.4400, 9049.086
191.6680, 8886.168
192.8960, 8875.648
194.1230, 9001.789
195.3500, 9006.133
196.5770, 8945.273
197.8030, 8487.516
199.0300, 9176.965
200.2560, 8865.312
201.4830, 8395.750
202.7090, 7353.133
203.9340, 6296.336
205.1600, 5095.949
206.3860, 4291.316
207.6110, 3842.355
208.8360, 3674.605
210.0610, 3334.254
211.2860, 2997.840
212.5100, 3065.133
213.7350, 2546.977
214.9590, 2239.074
216.1830, 2197.402
217.4070, 1860.406
218.6310, 1518.375
219.8540, 1402.504
221.0780, 1338.574
222.3010, 1194.453
223.5240, 1006.312
224.7470, 766.8867
225.9690, 842.0859
227.1920, 779.6562
228.4140, 916.6172
229.6360, 614.4766
230.8580, 352.6836
232.0800, 458.7930
233.3020, 353.7656
234.5230, 398.5469
235.7440, 499.0977
236.9650, 129.3320
238.1860, 41.66406
239.4070, 115.6445
240.6280, 313.2148
241.8480, 400.4570
243.0680, 478.7383
244.2880, 574.8750
245.5080, 347.6484
246.7280, 354.5000
247.9470, 328.0234
249.1660, 284.3477
250.3860, 216.6602
251.6040, 603.3320
252.8230, 786.8906
254.0420, 493.5898
255.2600, 294.7461
256.4790, 180.6992
257.6970, 417.5586
258.9150, 205.1328
260.1320, 176.1406
261.3500, 155.3594
262.5670, 114.1914
263.7840, 82.37891
265.0010, 178.6797
266.2180, 241.9219
267.4350, 457.1055
268.6510, 549.3789
269.8680, 737.6602
271.0840, 610.9961
272.3000, 1046.070
273.5160, 1049.461
274.7310, 1384.088
275.9470, 1313.660
277.1620, 1737.865
278.3770, 1599.422
279.5920, 1877.520
280.8070, 1331.543
282.0210, 1387.180
283.2360, 1156.258
284.4500, 1439.389
285.6640, 1390.195
286.8780, 1152.184
288.0920, 1135.371
289.3050, 1000.043
290.5180, 768.7109
291.7320, 843.7148
292.9450, 730.7051
294.1570, 755.5762
295.3700, 713.9746
296.5830, 705.6406
297.7950, 596.3203
299.0070, 651.8027
300.2190, 608.8965
301.4310, 774.8945
302.6420, 637.9434
303.8540, 730.2090
305.0650, 847.0586
306.2760, 727.6543
307.4870, 995.1211
308.6980, 1014.408
309.9080, 1030.707
311.1190, 1093.889
312.3290, 1515.283
313.5390, 1208.508
314.7490, 1121.529
315.9580, 1482.797
317.1680, 1814.547
318.3770, 1749.236
319.5860, 1925.098
320.7950, 2167.105
322.0040, 2384.719
323.2130, 2781.453
324.4210, 2987.303
325.6290, 3150.498
326.8380, 3231.262
328.0460, 3345.387
329.2530, 3313.543
330.4610, 3289.746
331.6680, 3330.055
332.8760, 3143.195
334.0830, 3195.781
335.2890, 2998.824
336.4960, 3145.518
337.7030, 2728.465
338.9090, 2601.137
340.1150, 2687.004
341.3210, 2396.520
342.5270, 2498.854
343.7330, 2379.178
344.9380, 2078.723
346.1440, 2164.574
347.3490, 1874.936
348.5540, 1993.883
349.7590, 1905.459
350.9630, 1877.715
352.1680, 1847.678
353.3720, 1837.873
354.5760, 1851.248
355.7800, 1831.887
356.9840, 1904.691
358.1870, 1843.176
359.3910, 1866.627
360.5940, 1792.451
361.7970, 1723.758
363.0000, 1535.283
364.2030, 1623.020
365.4050, 1377.914
366.6080, 1477.195
367.8100, 1090.270
369.0120, 1164.488
370.2140, 1006.438
371.4150, 896.7754
372.6170, 1123.365
373.8180, 919.8672
375.0190, 806.1465
376.2200, 612.3301
377.4210, 699.1641
378.6220, 649.0605
379.8220, 710.5352
381.0230, 774.4023
382.2230, 796.8184
383.4230, 798.8574
384.6220, 750.5508
385.8220, 654.4375
387.0220, 855.7812
388.2210, 704.1504
389.4200, 603.4004
390.6190, 684.8477
391.8180, 539.7949
393.0160, 907.3477
394.2150, 719.5879
395.4130, 785.0234
396.6110, 702.1484
397.8090, 658.6875
399.0060, 883.5469
400.2040, 788.8125
401.4010, 895.1465
402.5980, 1030.531
403.7950, 854.1953
404.9920, 671.6270
406.1890, 931.3203
407.3860, 792.3555
408.5820, 882.6406
409.7780, 748.4355
410.9740, 746.5293
412.1700, 654.7207
413.3650, 643.0273
414.5610, 850.8652
415.7560, 746.5859
416.9510, 697.6836
418.1460, 887.7070
419.3410, 854.0430
420.5360, 953.9980
421.7300, 728.6484
422.9240, 631.6406
424.1180, 757.7188
425.3120, 905.4297
426.5060, 626.0488
427.7000, 862.3477
428.8930, 574.4727
430.0860, 800.0176
431.2790, 734.2031
432.4720, 773.9434
433.6650, 925.7480
434.8580, 722.5020
436.0500, 586.4844
437.2420, 461.1250
438.4340, 407.4453
439.6260, 403.6523
440.8180, 447.6152
442.0090, 529.6094
443.2010, 716.7148
444.3920, 884.1094
445.5830, 724.5586
446.7740, 459.5391
447.9640, 582.9297
449.1550, 666.0020
450.3450, 714.7344
451.5350, 766.4004
452.7250, 757.8867
453.9150, 792.1367
455.1050, 668.3633
456.2940, 950.0957
457.4830, 742.2676
458.6720, 914.3770
459.8610, 804.1504
461.0500, 835.6270
462.2390, 819.0430
463.4270, 815.9414
464.6150, 972.6641
465.8040, 997.7812
466.9910, 1035.152
468.1790, 1042.131
469.3670, 1089.924
470.5540, 1080.061
471.7410, 1140.891
472.9280, 1102.498
474.1150, 1051.863
475.3020, 1139.031
476.4890, 1216.449
477.6750, 1432.352
478.8610, 1490.502
480.0470, 1537.590
481.2330, 1651.062
482.4190, 1647.988
483.6040, 1622.900
484.7900, 1493.793
485.9750, 1937.562
487.1600, 1965.309
488.3450, 1746.379
489.5290, 2146.258
490.7140, 1905.801
491.8980, 2025.688
493.0820, 2041.414
494.2660, 2232.145
495.4500, 2040.633
496.6340, 2415.939
497.8170, 2338.219
499.0010, 2476.959
500.1840, 2368.734
501.3670, 2819.322
502.5500, 2681.154
503.7320, 2660.801
504.9150, 2770.025
506.0970, 2627.752
507.2790, 2493.871
508.4610, 2506.205
509.6430, 2482.096
510.8250, 2456.531
512.0060, 2492.652
513.1870, 2448.180
514.3680, 2483.600
515.5490, 2425.059
516.7300, 2281.920
517.9110, 2513.617
519.0910, 2471.273
520.2710, 2345.500
521.4510, 2448.363
522.6310, 2284.992
523.8110, 2313.225
524.9910, 2367.436
526.1700, 2157.035
527.3490, 2167.811
528.5280, 2261.594
529.7070, 2151.555
530.8860, 2261.180
532.0650, 2017.365
533.2430, 2136.346
534.4210, 2170.656
535.5990, 1988.439
536.7770, 2117.639
537.9550, 1803.912
539.1320, 1943.385
540.3100, 1932.582
541.4870, 2163.871
542.6640, 1997.182
543.8410, 1835.125
545.0170, 2039.449
546.1940, 1835.123
547.3700, 1986.275
548.5470, 1910.152
549.7230, 1893.484
550.8980, 1946.850
552.0740, 1932.887
553.2500, 1828.955
554.4250, 1931.750
555.6000, 1894.209
556.7750, 1949.307
557.9500, 1889.809
559.1250, 1642.762
560.2990, 1715.949
561.4730, 1652.965
562.6480, 1517.367
563.8220, 1633.785
564.9950, 1535.760
566.1690, 1401.219
567.3430, 1732.264
568.5160, 1670.316
569.6890, 1444.117
570.8620, 1442.348
572.0350, 1420.459
573.2070, 1149.359
574.3800, 1356.496
575.5520, 1271.947
576.7240, 918.2285
577.8960, 1033.645
579.0680, 1114.543
580.2400, 911.0664
581.4110, 923.8164
582.5830, 712.0332
583.7540, 825.6426
584.9250, 748.2539
586.0950, 751.5273
587.2660, 728.1328
588.4370, 680.1523
589.6070, 584.7461
590.7770, 642.4141
591.9470, 501.8379
593.1170, 521.7051
594.2860, 473.0098
595.4560, 382.4668
596.6250, 435.6953
597.7940, 405.4180
598.9630, 241.5156
600.1320, 487.1016
601.3000, 249.8652
602.4690, 407.2734
603.6370, 450.1465
604.8050, 371.3672
605.9730, 196.4121
607.1410, 347.1367
608.3090, 512.4219
609.4760, 292.0352
610.6430, 293.5312
611.8100, 378.4492
612.9770, 300.3359
614.1440, 315.4766
615.3110, 313.1895
616.4770, 244.9746
617.6430, 253.5332
618.8090, 181.3066
619.9750, 153.9570
621.1410, 258.5586
622.3070, 96.09375
623.4720, 82.31641
624.6370, 72.45312
625.8020, 175.1270
626.9670, 33.52734
628.1320, 106.4980
629.2970, 211.6250
630.4610, 215.7969
631.6250, 226.6328
632.7890, 152.5957
633.9530, 98.57031
635.1170, 113.8730
636.2810, 122.9883
637.4440, 130.3613
638.6070, 215.9414
639.7700, 256.4805
640.9330, 216.3926
642.0960, 159.4453
643.2590, 108.8672
644.4210, 127.8320
645.5830, 40.17188
646.7450, 17.64258
647.9070, 48.09570
649.0690, 136.4746
650.2310, 35.35156
651.3920, 33.78320
652.5530, 168.1133
653.7140, 137.1074
654.8750, 75.82031
656.0360, 61.28320
657.1970, 12.43555
658.3570, 52.41992
659.5170, 97.17773
660.6770, 95.95312
661.8370, 44.71094
662.9970, 30.55859
664.1570, 71.49414
665.3160, 113.8633
666.4750, 172.6602
667.6340, 139.1992
668.7930, 118.8262
669.9520, 37.53711
671.1110, 89.29297
672.2690, 51.90820
673.4270, 102.0059
674.5850, 55.96680
675.7430, 110.9980
676.9010, 139.1152
678.0590, 85.33789
679.2160, 104.3574
680.3730, 153.0156
681.5300, 113.1289
682.6870, 114.2285
683.8440, 18.27930
685.0010, 23.17578
686.1570, 10.57617
687.3130, 138.9277
688.4690, 246.2266
689.6250, 0.4804690
690.7810, 6.673828
691.9370, 207.8066
693.0920, 179.8945
694.2470, 246.9375
695.4020, 359.9336
696.5570, 204.8828
697.7120, 424.7891
698.8670, 301.6523
700.0210, 436.4668
701.1750, 541.2344
702.3290, 473.9570
703.4830, 429.6367
704.6370, 362.2754
705.7910, 392.8691
706.9440, 227.4180
708.0970, 290.9219
709.2510, 115.3809
710.4030, 9.794922
711.5560, 99.14844
712.7090, 75.45117
713.8610, 145.7051
715.0140, 218.9082
716.1660, 47.06641
717.3180, 85.82227
718.4690, 77.18945
719.6210, 259.1582
720.7730, 72.91406
721.9240, 73.07617
723.0750, 21.33594
724.2260, 56.67188
725.3770, 91.09961
726.5270, 118.3574
727.6780, 176.2227
728.8280, 64.04492
729.9780, 86.73633
731.1280, 28.37695
732.2780, 182.4316
733.4280, 10.44141
734.5770, 119.6152
735.7260, 86.20703
736.8760, 44.97461
738.0250, 78.10938
739.1730, 84.22656
740.3220, 40.21875
741.4700, 141.2461
742.6190, 38.33398
743.7670, 37.95703
744.9150, 160.5332
746.0630, 117.4258
747.2100, 143.4980
748.3580, 56.97656
749.5050, 47.55859
750.6520, 147.1133
751.7990, 35.57812
752.9460, 72.70312
754.0930, 25.06445
755.2390, 160.7969
756.3860, 91.65820
757.5320, 27.17773
758.6780, 90.53516
759.8240, 51.71094
760.9690, 156.2676
762.1150, 178.1484
763.2600, 46.95703
764.4060, 64.15234
765.5510, 161.7188
766.6950, 97.55664
767.8400, 72.79883
768.9850, 163.0234
770.1290, 96.25977
771.2730, 80.15234
772.4170, 69.21680
773.5610, 257.3711
774.7050, 65.03516
775.8480, 287.4824
776.9920, 225.3301
778.1350, 225.3145
779.2780, 159.0996
780.4210, 176.6133
781.5640, 28.11328
782.7060, 232.1621
783.8490, 56.97852
784.9910, 583.7891
786.1330, 10.20508
787.2750, 189.3750
788.4170, 404.0859
789.5580, 334.7637
790.7000, 139.1055
791.8410, 257.0273
792.9820, 70.79883
794.1230, 404.2480
795.2640, 176.3438
796.4040, 308.9355
797.5450, 207.6855
798.6850, 334.4062
799.8250, 340.8828
800.9650, 181.1953
802.1050, 384.6562
803.2450, 479.8516
804.3840, 562.7051
805.5230, 370.3340
806.6630, 504.9844
807.8020, 404.6699
808.9400, 412.7559
810.0790, 579.6484
811.2170, 453.8750
812.3560, 474.4219
813.4940, 394.9980
814.6320, 723.9707
815.7700, 578.7949
816.9070, 622.1992
818.0450, 546.7910
819.1820, 593.1992
820.3190, 543.5957
821.4560, 467.4805
822.5930, 485.9492
823.7300, 438.6309
824.8670, 438.8340
826.0030, 414.7148
827.1390, 348.2031
828.2750, 351.9121
829.4110, 306.5938
830.5470, 238.1484
831.6820, 272.2441
832.8180, 463.9980
833.9530, 350.6270
835.0880, 286.6152
836.2230, 405.5879
837.3580, 129.5430
838.4920, 135.4824
839.6270, 345.4062
840.7610, 218.3164
841.8950, 306.2109
843.0290, 337.0879
844.1630, 300.7422
845.2960, 390.5938
846.4300, 379.7676
847.5630, 472.5215
848.6960, 533.0566
849.8290, 573.0469
850.9620, 593.3281
852.0940, 427.9121
853.2270, 517.7734
854.3590, 558.6133
855.4910, 416.5977
856.6230, 574.3281
857.7550, 320.7754
858.8870, 607.1777
860.0180, 469.3633
861.1500, 661.5938
862.2810, 538.8438
863.4120, 470.0020
864.5430, 563.2070
865.6730, 641.1465
866.8040, 744.5430
867.9340, 723.9531
869.0640, 619.4043
870.1940, 676.0918
871.3240, 475.4863
872.4540, 823.5605
873.5830, 839.3906
874.7130, 584.4512
875.8420, 834.8750
876.9710, 875.7754
878.1000, 758.1387
879.2290, 761.1367
880.3570, 788.8027
881.4860, 877.7402
882.6140, 596.0625
883.7420, 984.0078
884.8700, 689.0215
885.9980, 1012.562
887.1250, 877.0820
888.2530, 681.3047
889.3800, 862.5547
890.5070, 809.3867
891.6340, 706.0566
892.7610, 982.4648
893.8880, 929.9902
895.0140, 903.4492
896.1400, 943.9629
897.2670, 1062.746
898.3930, 891.5723
899.5180, 1093.820
900.6440, 1037.305
901.7700, 1003.180
902.8950, 873.8750
904.0200, 1011.516
905.1450, 1222.463
906.2700, 1013.275
907.3950, 1045.049
908.5190, 1073.561
909.6440, 985.9492
910.7680, 1061.391
911.8920, 940.4746
913.0160, 849.5918
914.1400, 830.7246
915.2630, 792.3789
916.3870, 822.0508
917.5100, 794.6602
918.6330, 764.8730
919.7560, 755.9414
920.8790, 622.2012
922.0010, 720.1328
923.1240, 631.4473
924.2460, 669.8926
925.3680, 699.1641
926.4900, 727.5918
927.6120, 548.0703
928.7340, 515.5723
929.8550, 607.1094
930.9760, 432.6758
932.0980, 540.2676
933.2190, 457.8945
934.3390, 519.5488
935.4600, 464.2676
936.5810, 370.0195
937.7010, 401.8320
938.8210, 374.7188
939.9410, 382.6680
941.0610, 376.6777
942.1810, 284.7402
943.3010, 443.8379
944.4200, 616.9844
945.5390, 469.1680
946.6580, 308.4062
947.7770, 243.7090
948.8960, 481.0664
950.0150, 308.8770
951.1330, 456.1895
952.2510, 305.5430
953.3690, 472.1230
954.4870, 660.7500
955.6050, 347.4199
956.7230, 424.1289
957.8400, 464.8867
958.9580, 345.6836
960.0750, 278.5312
961.1920, 524.4062
962.3090, 494.3477
963.4250, 360.3418
964.5420, 584.3652
965.6580, 336.4434
966.7740, 402.5508
967.8900, 560.7305
969.0060, 531.9707
970.1220, 473.2500
971.2380, 471.5781
972.3530, 261.7617
973.4680, 480.5234
974.5830, 606.7109
975.6980, 645.3242
976.8130, 333.9355
977.9280, 474.5723
979.0420, 434.0879
980.1560, 386.2012
981.2710, 590.5527
982.3850, 330.2383
983.4980, 530.6348
984.6120, 547.1836
985.7260, 647.9102
986.8390, 566.4160
987.9520, 541.2422
989.0650, 698.4473
990.1780, 754.7246
991.2910, 456.7090
992.4030, 649.6758
993.5160, 539.7012
994.6280, 735.7695
995.7400, 454.8906
996.8520, 412.0723
997.9640, 344.2871
999.0750, 550.5820
1000.187, 480.9082
1001.298, 507.3008
1002.409, 430.7285
1003.520, 589.2129
1004.631, 309.7344
1005.741, 300.3242
1006.852, 240.9473
1007.962, 567.5977
1009.072, 159.2832
1010.182, 474.0391
1011.292, 339.1641
1012.402, 330.5977
1013.511, 262.5625
1014.621, 321.4824
1015.730, 463.4805
1016.839, 341.5156
1017.948, 411.2383
1019.056, 349.4004
1020.165, 510.6133
1021.273, 504.8574
1022.382, 526.1484
1023.490, 127.4688
1024.598, 173.3672
1025.706, 86.76172
1026.813, 285.7168
1027.921, 227.1699
1029.028, 125.6543
1030.135, 228.1914
1031.242, 390.7578
1032.349, 358.3477
1033.456, 320.9668
1034.562, 415.6152
1035.668, 295.0742
1036.775, 258.2988
1037.881, 470.9668
1038.987, 594.7969
1040.092, 627.3066
1041.198, 312.4375
1042.303, 446.9824
1043.408, 400.4238
1044.514, 346.4746
1045.618, 547.7266
1046.723, 281.3242
1047.828, 475.6348
1048.932, 486.0703
1050.037, 580.6914
1051.141, 493.0977
1052.245, 544.5703
1053.349, 165.7051
1054.452, 595.8633
1055.556, 257.6113
1056.659, 427.8203
1057.762, 283.0879
1058.865, 357.3398
1059.968, 287.6152
1061.071, 485.9141
1062.174, 265.2344
1063.276, 197.5762
1064.378, 378.9375
1065.480, 390.0898
1066.582, 472.4922
1067.684, 468.8203
1068.786, 446.2637
1069.887, 466.8613
1070.988, 498.9512
1072.090, 492.3789
1073.191, 560.3457
1074.291, 487.8770
1075.392, 449.4258
1076.493, 399.9922
1077.593, 260.5742
1078.693, 343.1738
1079.793, 471.7812
1080.893, 567.4805
1081.993, 324.3262
1083.092, 270.0957
1084.192, 454.0625
1085.291, 512.9746
1086.390, 608.8691
1087.489, 613.6133
1088.588, 565.6777
1089.686, 550.8379
1090.785, 393.7988
1091.883, 356.4453
1092.981, 267.2129
1094.079, 240.1191
1095.177, 287.7051
1096.275, 231.5098
1097.373, 392.3984
1098.470, 422.3223
1099.567, 410.6797
1100.664, 470.3926
1101.761, 442.7695
1102.858, 445.0215
1103.954, 453.8672
1105.051, 404.7207
1106.147, 355.5781
1107.243, 472.6367
1108.339, 301.5898
1109.435, 420.4629
1110.531, 378.5234
1111.626, 349.4746
1112.722, 376.8809
1113.817, 356.0410
1114.912, 342.9336
1116.007, 308.8262
1117.101, 288.8184
1118.196, 283.7168
1119.290, 282.9883
1120.385, 313.8008
1121.479, 316.2266
1122.573, 367.3301
1123.666, 409.0508
1124.760, 213.9590
1125.853, 257.8672
1126.947, 195.9316
1128.040, 394.6387
1129.133, 500.7559
1130.226, 519.5547
1131.318, 188.0488
1132.411, 309.3613
1133.503, 248.7051
1134.596, 187.4277
1135.688, 371.5234
1136.780, 90.90820
1137.871, 271.0098
1138.963, 267.1836
1140.054, 347.6895
1141.146, 248.1582
1142.237, 202.8145
1143.328, 339.6914
1144.419, 375.4297
1145.509, 252.9082
1146.600, 338.5898
1147.690, 53.36914
1148.780, 29.21289
1149.870, 263.6133
1150.960, 11.43164
1152.050, 48.33398
1153.139, 212.2754
1154.229, 44.06836
1155.318, 45.14844
1156.407, 163.6133
1157.496, 22.63281
1158.585, 69.21875
1159.674, 60.73242
1160.762, 166.4512
1161.850, 106.1562
1162.939, 150.8535
1164.027, 61.53906
1165.114, 40.21484
1166.202, 39.97266
1167.290, 85.33594
1168.377, 39.27734
1169.464, 70.15039
1170.551, 182.3770
1171.638, 49.10938
1172.725, 20.36914
1173.812, 111.8340
1174.898, 63.28906
1175.984, 51.26953
1177.071, 94.18555
1178.157, 211.5742
1179.242, 36.94727
1180.328, 80.30469
1181.414, 228.6504
1182.499, 47.98242
1183.584, 55.29688
1184.669, 24.60156
1185.754, 1.113281
1186.839, 119.1543
1187.924, 18.40430
1189.008, 163.6387
1190.092, 67.85938
1191.177, 84.54297
1192.260, 231.7285
1193.344, 132.9004
1194.428, 178.0586
1195.512, 29.80078
1196.595, 144.2949
1197.678, 125.6230
1198.761, 166.3633
1199.844, 63.66602
1200.927, 56.75977
1202.009, 69.08789
1203.092, 29.91797
1204.174, 162.7285
1205.256, 176.9688
1206.338, 204.2930
1207.420, 155.0508
1208.502, 120.7891
1209.583, 69.49219
1210.665, 60.15430
1211.746, 55.21484
1212.827, 54.34961
1213.908, 71.10547
1214.988, 11.36719
1216.069, 36.19141
1217.149, 33.82812
1218.230, 169.5195
1219.310, 42.17188
1220.390, 16.07422
1221.470, 59.70898
1222.549, 140.4355
1223.629, 80.44141
1224.708, 38.39844
1225.787, 132.5801
1226.866, 77.46289
1227.945, 306.4160
1229.024, 129.7285
1230.103, 86.98242
1231.181, 17.32617
1232.259, 30.72266
1233.337, 226.8223
1234.415, 116.3477
1235.493, 257.8496
1236.571, 6.332031
1237.648, 98.77344
1238.726, 278.1934
1239.803, 78.59180
1240.880, 105.9688
1241.957, 14.67773
1243.034, 81.62109
1244.110, 162.8984
1245.187, 319.1543
1246.263, 105.3887
1247.339, 200.3613
1248.415, 311.7930
1249.491, 156.9668
1250.566, 203.1133
1251.642, 200.2422
1252.717, 19.34766
1253.793, 293.5039
1254.868, 753.5508
1255.943, 81.57617
1257.017, 344.5781
1258.092, 211.5586
1259.166, 79.51953
1260.241, 263.4570
1261.315, 49.38086
1262.389, 143.2773
1263.462, 60.84766
1264.536, 249.9473
1265.610, 170.7188
1266.683, 160.4707
1267.756, 161.3906
1268.829, 112.5801
1269.902, 11.59766
1270.975, 87.24023
1272.048, 105.8574
1273.120, 156.4609
1274.192, 78.04102
1275.264, 201.5957
1276.336, 25.13086
1277.408, 281.6270
1278.480, 239.4941
1279.551, 208.9473
1280.623, 129.3828
1281.694, 118.7949
1282.765, 452.1875
1283.836, 214.5547
1284.907, 406.3691
1285.977, 373.6973
1287.048, 124.4746
1288.118, 54.76172
1289.188, 412.0195
1290.258, 293.2598
1291.328, 302.4785
1292.398, 251.6797
1293.467, 183.8613
1294.537, 119.0215
1295.606, 164.3770
1296.675, 141.9922
1297.744, 174.7324
1298.813, 298.4375
1299.882, 254.5000
1300.950, 351.9180
1302.018, 387.9414
1303.086, 258.9512
1304.155, 172.9395
1305.222, 127.9219
1306.290, 271.8730
1307.358, 249.8066
1308.425, 243.7246
1309.492, 381.6250
1310.559, 401.5078
1311.626, 240.3730
1312.693, 328.2227
1313.760, 306.0547
1314.826, 284.3086
1315.893, 227.1074
1316.959, 358.8535
1318.025, 461.6211
1319.091, 55.38281
1320.157, 333.1250
1321.222, 184.8438
1322.288, 287.5410
1323.353, 269.2188
1324.418, 381.1094
1325.483, 455.7480
1326.548, 250.4609
1327.612, 386.0645
1328.677, 330.5098
1329.741, 306.3145
1330.806, 289.8594
1331.870, 283.1582
1332.934, 315.4082
1333.997, 326.0098
1335.061, 384.6387
1336.124, 383.0996
1337.188, 377.5410
1338.251, 388.9746
1339.314, 481.3203
1340.377, 328.0000
1341.439, 363.2715
1342.502, 238.3457
1343.564, 401.4785
1344.627, 234.6250
1345.689, 340.8613
1346.751, 309.1816
1347.813, 185.7852
1348.874, 438.8672
1349.936, 201.2617
1350.997, 295.5332
1352.058, 291.5273
1353.119, 226.1113
1354.180, 342.3496
1355.241, 387.3926
1356.301, 373.6113
1357.362, 341.2852
1358.422, 307.6055
1359.482, 243.2578
1360.542, 216.7168
1361.602, 151.2168
1362.662, 198.3867
1363.721, 157.5547
1364.781, 260.5156
1365.840, 252.5918
1366.899, 222.7266
1367.958, 312.6816
1369.017, 286.7441
1370.075, 348.2578
1371.134, 275.1992
1372.192, 303.3164
1373.250, 158.4258
1374.308, 245.4375
1375.366, 261.5391
1376.424, 225.6387
1377.481, 394.7305
1378.539, 191.8203
1379.596, 403.9062
1380.653, 3.175781
1381.710, 305.2539
1382.767, 50.32812
1383.824, 275.1445
1384.880, 173.2129
1385.937, 396.7676
1386.993, 320.5410
1388.049, 193.0352
1389.105, 80.24414
1390.161, 455.3047
1391.216, 62.52930
1392.272, 165.5879
1393.327, 303.6465
1394.382, 149.6992
1395.437, 417.7539
1396.492, 314.6680
1397.547, 156.3301
1398.601, 242.1172
1399.656, 213.8301
1400.710, 355.3848
1401.764, 325.0801
1402.818, 404.1504
1403.872, 448.4512
1404.925, 354.5566
1405.979, 413.6426
1407.032, 267.7324
1408.085, 300.7344
1409.139, 126.6953
1410.191, 310.8027
1411.244, 336.9180
1412.297, 296.0488
1413.349, 64.18359
1414.402, 263.4668
1415.454, 142.8379
1416.506, 253.0059
1417.558, 301.1738
1418.609, 290.4180
1419.661, 71.56055
1420.712, 204.7129
1421.764, 186.7383
1422.815, 412.9219
1423.866, 160.4434
1424.916, 374.6387
1425.967, 336.8633
1427.018, 328.1035
1428.068, 184.3652
1429.118, 263.6406
1430.168, 229.9316
1431.218, 335.2305
1432.268, 341.4980
1433.318, 288.8359
1434.367, 298.2734
1435.416, 458.6484
1436.465, 185.0352
1437.514, 385.4414
1438.563, 281.8789
1439.612, 382.3457
1440.661, 392.8457
1441.709, 315.3848
1442.757, 230.9648
1443.805, 356.7012
1444.853, 179.3379
1445.901, 417.6113
1446.949, 236.4922
1447.996, 234.1074
1449.044, 102.7168
1450.091, 87.25781
1451.138, 345.0430
1452.185, 69.78125
1453.232, 379.5039
1454.278, 383.2129
1455.325, 395.9043
1456.371, 299.6406
1457.417, 340.4102
1458.463, 352.2344
1459.509, 164.1172
1460.555, 289.0312
1461.601, 230.0059
1462.646, 260.0371
1463.691, 269.1504
1464.737, 341.3281
1465.782, 26.34961
1466.826, 179.0781
1467.871, 81.52930
1468.916, 350.9980
1469.960, 333.4844
1471.004, 68.98047
1472.048, 424.5254
1473.092, 290.0801
1474.136, 365.6426
1475.180, 280.2148
1476.223, 269.5859
1477.267, 190.2891
1478.310, 206.9102
1479.353, 165.5410
1480.396, 45.16602
1481.439, 196.8027
1482.481, 295.5332
1483.524, 302.2793
1484.566, 163.0391
1485.608, 74.84570
1486.650, 41.66016
1487.692, 159.4922
1488.734, 304.3672
1489.775, 13.26172
1490.817, 334.1758
1491.858, 77.10938
1492.899, 282.0625
1493.940, 161.0352
1494.981, 331.0352
1496.022, 198.0547
1497.062, 285.0996
1498.103, 223.1621
1499.143, 198.2441
1500.183, 62.34766
1501.223, 109.4707
1502.263, 266.6133
1503.302, 154.7793
1504.342, 210.9629
1505.381, 316.1660
1506.420, 120.3906
1507.459, 301.6289
1508.498, 181.8633
1509.537, 224.1152
1510.576, 21.57227
1511.614, 132.7969
1512.652, 72.78125
1513.691, 103.6992
1514.729, 87.24414
1515.767, 139.8496
1516.804, 114.5117
1517.842, 117.0273
1518.879, 90.32617
1519.917, 124.6855
1520.954, 48.54297
1521.991, 107.4570
1523.028, 182.4160
1524.064, 43.56641
1525.101, 65.50977
1526.137, 77.64844
1527.173, 156.8477
1528.210, 137.1113
1529.245, 35.43750
1530.281, 149.5098
1531.317, 124.2910
1532.352, 209.8242
1533.388, 258.4355
1534.423, 126.1270
1535.458, 341.8984
1536.493, 283.7578
1537.528, 111.7109
1538.562, 3.121094
1539.597, 215.5566
1540.631, 335.5312
1541.665, 365.9512
1542.700, 37.87891
1543.733, 172.1016
1544.767, 125.2754
1545.801, 71.18555
1546.834, 269.3809
1547.868, 4.027344
1548.901, 190.0762
1549.934, 200.3711
1550.967, 294.7539
1551.999, 207.1270
1553.032, 175.8750
1554.064, 327.0176
1555.097, 375.3516
1556.129, 266.8984
1557.161, 366.6152
1558.193, 95.12695
1559.224, 150.7441
1560.256, 344.3105
1561.287, 247.1016
1562.318, 353.0410
1563.350, 382.3828
1564.380, 294.3418
1565.411, 197.4629
1566.442, 255.7910
1567.472, 168.7578
1568.503, 1.707031
1569.533, 486.8633
1570.563, 0.0000000E+00
##END=



