##NAMES=Ilvaite
##RRUFFID=R050040
##IDEAL CHEMISTRY=CaFe^2+^_2_Fe^3+^OSi_2_O_7_(OH)
##LOCALITY=Capo Calamita, Isle of Elba, Italy
##OWNER=RRUFF
##SOURCE=University of Arizona Mineral Museum
##DESCRIPTION=Brown fragment
##STATUS=The identification of this mineral has been confirmed by X-ray diffraction and chemical analysis
##URL=rruff.info/R050040
##MEASURED CHEMISTRY=Ca_1.00_(Fe^2+^_1.89_Mn_0.10_Mg_0.01_)_Î£=2_Fe^3+^_1.00_OSi_2.00_O_7_(OH); trace amounts of Al; OH estimated by charge balance
##PIN_ID=M00410
##ORIENTATION=Laser parallel to b* (0 1 0). Fiducial mark perpendicular to laser is parallel to c [0 0 1]
127.5960, 0.0000000E+00
128.8330, 221.6172
130.0700, 418.2461
131.3060, 47.36719
132.5420, 99.00391
133.7780, 553.3359
135.0140, 1067.367
136.2500, 1322.531
137.4850, 2206.852
138.7200, 2904.320
139.9550, 2801.441
141.1900, 2448.039
142.4250, 2567.547
143.6600, 2738.109
144.8940, 3353.434
146.1280, 3658.559
147.3620, 3899.590
148.5960, 4420.102
149.8300, 4958.934
151.0630, 5394.961
152.2960, 5431.047
153.5300, 5830.797
154.7620, 5956.301
155.9950, 5822.211
157.2280, 5291.250
158.4600, 5556.086
159.6920, 5591.840
160.9250, 6077.207
162.1560, 5918.875
163.3880, 6428.871
164.6200, 6176.852
165.8510, 5884.691
167.0820, 6211.707
168.3130, 5708.965
169.5440, 5927.707
170.7750, 5997.152
172.0050, 5518.168
173.2350, 5530.449
174.4650, 6179.742
175.6950, 6290.988
176.9250, 6921.781
178.1550, 7294.254
179.3840, 7582.016
180.6130, 8434.145
181.8420, 8062.531
183.0710, 8710.625
184.3000, 9295.434
185.5280, 9320.133
186.7570, 9027.809
187.9850, 9189.953
189.2130, 8837.938
190.4400, 9284.707
191.6680, 8966.445
192.8960, 8818.406
194.1230, 8771.242
195.3500, 8887.832
196.5770, 8451.531
197.8030, 8252.117
199.0300, 8245.543
200.2560, 7974.004
201.4830, 7974.332
202.7090, 6677.336
203.9340, 4899.289
205.1600, 3553.430
206.3860, 2921.188
207.6110, 2449.098
208.8360, 2099.473
210.0610, 2052.934
211.2860, 1700.953
212.5100, 1766.820
213.7350, 1599.898
214.9590, 1750.664
216.1830, 780.8438
217.4070, 1006.250
218.6310, 557.0781
219.8540, 701.5781
221.0780, 348.0742
222.3010, 474.1758
223.5240, 610.8164
224.7470, 313.3125
225.9690, 489.6523
227.1920, 330.0430
228.4140, 462.5703
229.6360, 93.09375
230.8580, 134.7461
232.0800, 505.1445
233.3020, 231.6406
234.5230, 71.52344
235.7440, 20.18750
236.9650, 406.4336
238.1860, 230.5547
239.4070, 282.7891
240.6280, 343.2305
241.8480, 86.25391
243.0680, 409.1055
244.2880, 155.6328
245.5080, 131.1680
246.7280, 1.722656
247.9470, 91.39062
249.1660, 113.1367
250.3860, 91.67188
251.6040, 171.7266
252.8230, 52.71094
254.0420, 191.8516
255.2600, 136.8672
256.4790, 54.92188
257.6970, 196.6406
258.9150, 73.71094
260.1320, 203.8594
261.3500, 239.2305
262.5670, 169.7500
263.7840, 184.2344
265.0010, 208.2266
266.2180, 38.20312
267.4350, 6.539063
268.6510, 58.20312
269.8680, 108.2656
271.0840, 163.4688
272.3000, 604.6172
273.5160, 560.6992
274.7310, 844.9453
275.9470, 1083.859
277.1620, 1154.383
278.3770, 1273.816
279.5920, 1223.934
280.8070, 1504.203
282.0210, 1502.066
283.2360, 1281.367
284.4500, 1425.727
285.6640, 1275.805
286.8780, 1040.387
288.0920, 1126.320
289.3050, 867.3594
290.5180, 795.8477
291.7320, 769.4297
292.9450, 740.1992
294.1570, 718.1641
295.3700, 566.2266
296.5830, 592.5195
297.7950, 411.1328
299.0070, 485.7773
300.2190, 427.1914
301.4310, 196.5586
302.6420, 543.0508
303.8540, 464.1562
305.0650, 688.3047
306.2760, 472.3281
307.4870, 692.3867
308.6980, 812.8789
309.9080, 992.9453
311.1190, 764.1445
312.3290, 947.2695
313.5390, 1032.012
314.7490, 1228.031
315.9580, 1348.309
317.1680, 2420.844
318.3770, 2937.730
319.5860, 2644.684
320.7950, 2349.785
322.0040, 2754.074
323.2130, 2428.555
324.4210, 2518.238
325.6290, 2663.867
326.8380, 2976.988
328.0460, 2913.129
329.2530, 3005.957
330.4610, 2881.527
331.6680, 2725.988
332.8760, 2857.520
334.0830, 2620.281
335.2890, 2761.336
336.4960, 2564.816
337.7030, 2386.637
338.9090, 2047.859
340.1150, 1927.574
341.3210, 1847.195
342.5270, 1887.320
343.7330, 1822.414
344.9380, 1831.688
346.1440, 2077.137
347.3490, 1917.980
348.5540, 2048.539
349.7590, 2257.812
350.9630, 1979.059
352.1680, 1909.094
353.3720, 1728.559
354.5760, 1602.941
355.7800, 1609.594
356.9840, 1431.598
358.1870, 1376.555
359.3910, 1374.461
360.5940, 1280.625
361.7970, 1154.086
363.0000, 898.1445
364.2030, 713.9805
365.4050, 611.0898
366.6080, 449.5586
367.8100, 542.7031
369.0120, 253.2695
370.2140, 492.8516
371.4150, 268.7031
372.6170, 230.3555
373.8180, 226.4570
375.0190, 190.5430
376.2200, 174.5703
377.4210, 336.3438
378.6220, 9.750000
379.8220, 167.1523
381.0230, 159.2344
382.2230, 63.97266
383.4230, 12.18750
384.6220, 182.3164
385.8220, 87.01953
387.0220, 273.7188
388.2210, 849.3672
389.4200, 333.7852
390.6190, 491.7344
391.8180, 180.0000
393.0160, 7.390625
394.2150, 623.3398
395.4130, 560.0664
396.6110, 345.3008
397.8090, 538.7188
399.0060, 442.9844
400.2040, 267.2031
401.4010, 389.5078
402.5980, 629.5078
403.7950, 914.1953
404.9920, 756.2305
406.1890, 466.6211
407.3860, 797.0664
408.5820, 645.6680
409.7780, 683.5469
410.9740, 710.5898
412.1700, 844.5664
413.3650, 886.9922
414.5610, 852.0117
415.7560, 926.4062
416.9510, 904.6641
418.1460, 921.7266
419.3410, 843.3906
420.5360, 713.7344
421.7300, 760.0508
422.9240, 730.5742
424.1180, 610.5625
425.3120, 606.3984
426.5060, 623.7422
427.7000, 477.1562
428.8930, 616.6875
430.0860, 643.9609
431.2790, 614.5547
432.4720, 666.6680
433.6650, 624.8203
434.8580, 664.1523
436.0500, 680.0859
437.2420, 690.6016
438.4340, 725.7734
439.6260, 858.3945
440.8180, 810.0078
442.0090, 744.8594
443.2010, 844.0664
444.3920, 651.5195
445.5830, 880.4961
446.7740, 753.4609
447.9640, 764.5352
449.1550, 820.2656
450.3450, 599.9531
451.5350, 772.2578
452.7250, 673.9102
453.9150, 1106.316
455.1050, 760.3555
456.2940, 1172.938
457.4830, 1567.656
458.6720, 1094.996
459.8610, 1210.707
461.0500, 851.2461
462.2390, 999.3359
463.4270, 1115.504
464.6150, 893.1953
465.8040, 967.7617
466.9910, 1010.586
468.1790, 1155.117
469.3670, 1238.414
470.5540, 1374.988
471.7410, 1279.906
472.9280, 1633.969
474.1150, 1262.129
475.3020, 1598.688
476.4890, 1529.152
477.6750, 1799.082
478.8610, 1558.148
480.0470, 1667.934
481.2330, 1801.699
482.4190, 1857.902
483.6040, 1844.637
484.7900, 2055.758
485.9750, 1930.969
487.1600, 2210.953
488.3450, 1979.426
489.5290, 2258.824
490.7140, 2458.555
491.8980, 2513.652
493.0820, 2658.391
494.2660, 2562.301
495.4500, 2521.598
496.6340, 2699.109
497.8170, 2479.258
499.0010, 2925.004
500.1840, 2871.051
501.3670, 3130.324
502.5500, 3441.754
503.7320, 3031.000
504.9150, 3064.176
506.0970, 2778.039
507.2790, 2635.508
508.4610, 2879.227
509.6430, 2898.031
510.8250, 2919.141
512.0060, 2728.250
513.1870, 2562.832
514.3680, 2797.922
515.5490, 2638.133
516.7300, 2689.285
517.9110, 2600.293
519.0910, 2930.145
520.2710, 2784.855
521.4510, 2963.164
522.6310, 2694.715
523.8110, 2722.738
524.9910, 2690.145
526.1700, 2500.328
527.3490, 2405.691
528.5280, 2424.980
529.7070, 2362.020
530.8860, 2431.250
532.0650, 2428.539
533.2430, 2352.414
534.4210, 2434.203
535.5990, 2494.527
536.7770, 2454.082
537.9550, 2220.219
539.1320, 2468.332
540.3100, 2354.336
541.4870, 2428.852
542.6640, 2554.066
543.8410, 2421.461
545.0170, 3219.508
546.1940, 2440.121
547.3700, 2525.875
548.5470, 1986.684
549.7230, 2356.230
550.8980, 2160.750
552.0740, 2450.676
553.2500, 2091.723
554.4250, 2412.578
555.6000, 2208.445
556.7750, 2334.258
557.9500, 2357.391
559.1250, 2419.422
560.2990, 2209.566
561.4730, 2064.625
562.6480, 2272.391
563.8220, 1896.715
564.9950, 2112.887
566.1690, 2164.535
567.3430, 2165.133
568.5160, 1905.770
569.6890, 1900.770
570.8620, 1708.578
572.0350, 2010.230
573.2070, 1773.742
574.3800, 1433.457
575.5520, 1712.238
576.7240, 1563.227
577.8960, 1503.695
579.0680, 1422.574
580.2400, 1277.480
581.4110, 1265.039
582.5830, 996.4961
583.7540, 1152.914
584.9250, 838.5703
586.0950, 694.0000
587.2660, 706.0039
588.4370, 639.6406
589.6070, 573.4688
590.7770, 685.4336
591.9470, 516.0078
593.1170, 312.7852
594.2860, 514.8359
595.4560, 366.7305
596.6250, 471.9023
597.7940, 478.7344
598.9630, 396.6484
600.1320, 555.0469
601.3000, 580.1367
602.4690, 216.7930
603.6370, 624.7266
604.8050, 218.8203
605.9730, 199.4102
607.1410, 330.0898
608.3090, 129.9570
609.4760, 378.4570
610.6430, 29.73047
611.8100, 411.9453
612.9770, 311.0898
614.1440, 248.5273
615.3110, 117.1133
616.4770, 97.83594
617.6430, 6.972656
618.8090, 131.1562
619.9750, 167.1289
621.1410, 393.1211
622.3070, 60.94141
623.4720, 262.7422
624.6370, 303.3594
625.8020, 55.93359
626.9670, 258.4570
628.1320, 443.9375
629.2970, 125.3789
630.4610, 99.77344
631.6250, 409.1133
632.7890, 311.1719
633.9530, 70.42578
635.1170, 613.6250
636.2810, 346.7891
637.4440, 300.5938
638.6070, 143.6875
639.7700, 113.7031
640.9330, 229.5195
642.0960, 172.4922
643.2590, 116.5820
644.4210, 235.4805
645.5830, 38.34766
646.7450, 10.81641
647.9070, 8.988281
649.0690, 155.2422
650.2310, 77.44531
651.3920, 85.10156
652.5530, 144.7461
653.7140, 127.3672
654.8750, 267.9727
656.0360, 36.56641
657.1970, 17.14453
658.3570, 107.2969
659.5170, 285.1992
660.6770, 21.68359
661.8370, 127.6133
662.9970, 271.5898
664.1570, 156.0234
665.3160, 103.5508
666.4750, 47.19141
667.6340, 146.8789
668.7930, 18.33594
669.9520, 32.47656
671.1110, 163.3516
672.2690, 87.33594
673.4270, 143.4023
674.5850, 60.43750
675.7430, 30.06250
676.9010, 75.47266
678.0590, 28.70703
679.2160, 17.37891
680.3730, 39.52344
681.5300, 76.10156
682.6870, 63.73828
683.8440, 21.39453
685.0010, 65.02734
686.1570, 112.4062
687.3130, 359.7383
688.4690, 30.96094
689.6250, 114.7266
690.7810, 32.40234
691.9370, 42.48828
693.0920, 14.52734
694.2470, 292.5156
695.4020, 527.4609
696.5570, 532.3672
697.7120, 439.2305
698.8670, 250.0586
700.0210, 185.8398
701.1750, 117.5781
702.3290, 487.2734
703.4830, 604.9297
704.6370, 352.5508
705.7910, 1032.133
706.9440, 715.6797
708.0970, 266.1875
709.2510, 186.6680
710.4030, 337.1094
711.5560, 259.5117
712.7090, 334.8789
713.8610, 175.2148
715.0140, 20.49219
716.1660, 56.73438
717.3180, 88.07812
718.4690, 136.9922
719.6210, 82.03516
720.7730, 93.17188
721.9240, 124.5859
723.0750, 166.2969
724.2260, 8.031250
725.3770, 141.4219
726.5270, 57.94141
727.6780, 23.54688
728.8280, 72.76953
729.9780, 185.0430
731.1280, 68.28516
732.2780, 69.78906
733.4280, 297.3125
734.5770, 99.66797
735.7260, 183.2852
736.8760, 5.199219
738.0250, 243.9492
739.1730, 36.28516
740.3220, 31.69922
741.4700, 1.078125
742.6190, 16.53125
743.7670, 140.2070
744.9150, 100.7773
746.0630, 109.1367
747.2100, 110.9727
748.3580, 243.0977
749.5050, 375.7344
750.6520, 31.18750
751.7990, 59.51953
752.9460, 5.066406
754.0930, 50.26172
755.2390, 181.3711
756.3860, 19.46094
757.5320, 17.83594
758.6780, 61.95312
759.8240, 0.5898440
760.9690, 76.85547
762.1150, 209.9375
763.2600, 191.1641
764.4060, 163.3242
765.5510, 204.8281
766.6950, 255.7227
767.8400, 141.1055
768.9850, 168.3516
770.1290, 189.9414
771.2730, 86.42969
772.4170, 246.0938
773.5610, 297.4844
774.7050, 88.53906
775.8480, 89.83984
776.9920, 41.22656
778.1350, 16.81250
779.2780, 240.6445
780.4210, 82.74609
781.5640, 169.1250
782.7060, 191.6914
783.8490, 318.5859
784.9910, 217.3281
786.1330, 186.6680
787.2750, 376.9922
788.4170, 448.2305
789.5580, 321.2695
790.7000, 455.1641
791.8410, 123.3203
792.9820, 200.6406
794.1230, 453.2734
795.2640, 337.3867
796.4040, 470.0469
797.5450, 512.0859
798.6850, 114.5273
799.8250, 479.9297
800.9650, 516.1523
802.1050, 213.2617
803.2450, 547.0977
804.3840, 288.2031
805.5230, 236.5078
806.6630, 352.2188
807.8020, 299.6211
808.9400, 502.8398
810.0790, 456.9453
811.2170, 355.9414
812.3560, 517.9570
813.4940, 345.1953
814.6320, 515.2539
815.7700, 567.1094
816.9070, 645.9102
818.0450, 543.7891
819.1820, 618.3516
820.3190, 523.3242
821.4560, 487.6367
822.5930, 699.5977
823.7300, 421.7500
824.8670, 620.6328
826.0030, 609.2812
827.1390, 301.3242
828.2750, 451.1250
829.4110, 586.9531
830.5470, 278.5820
831.6820, 231.3828
832.8180, 267.1758
833.9530, 405.9531
835.0880, 240.7188
836.2230, 385.4062
837.3580, 232.8281
838.4920, 425.9688
839.6270, 211.6953
840.7610, 225.4141
841.8950, 421.1211
843.0290, 494.8203
844.1630, 370.5156
845.2960, 382.2031
846.4300, 372.6406
847.5630, 336.3164
848.6960, 250.9844
849.8290, 416.6445
850.9620, 718.0508
852.0940, 499.4023
853.2270, 810.3164
854.3590, 540.8711
855.4910, 480.5273
856.6230, 471.4102
857.7550, 353.1602
858.8870, 398.7969
860.0180, 355.2266
861.1500, 356.5938
862.2810, 421.1797
863.4120, 398.5000
864.5430, 570.4961
865.6730, 658.5977
866.8040, 745.1758
867.9340, 483.2891
869.0640, 426.7227
870.1940, 491.3750
871.3240, 733.0586
872.4540, 244.7148
873.5830, 714.2734
874.7130, 487.3125
875.8420, 403.6289
876.9710, 744.2109
878.1000, 596.5977
879.2290, 398.7695
880.3570, 535.4023
881.4860, 751.9023
882.6140, 693.1641
883.7420, 689.7617
884.8700, 921.5312
885.9980, 534.3242
887.1250, 863.1445
888.2530, 564.6367
889.3800, 858.9375
890.5070, 932.8359
891.6340, 686.7305
892.7610, 600.3906
893.8880, 714.1719
895.0140, 668.9023
896.1400, 720.7617
897.2670, 659.6172
898.3930, 798.6406
899.5180, 812.6797
900.6440, 804.7422
901.7700, 1091.824
902.8950, 654.9258
904.0200, 884.0547
905.1450, 838.2031
906.2700, 1132.617
907.3950, 978.8047
908.5190, 708.0547
909.6440, 1033.320
910.7680, 855.9414
911.8920, 711.2695
913.0160, 1214.477
914.1400, 1376.270
915.2630, 760.6953
916.3870, 588.9961
917.5100, 756.4766
918.6330, 410.9805
919.7560, 637.5195
920.8790, 428.0898
922.0010, 568.6914
923.1240, 417.3516
924.2460, 433.0430
925.3680, 309.7617
926.4900, 222.5156
927.6120, 636.2969
928.7340, 398.1250
929.8550, 514.9883
930.9760, 367.8789
932.0980, 359.8281
933.2190, 411.8008
934.3390, 240.8164
935.4600, 251.8594
936.5810, 208.9336
937.7010, 387.0391
938.8210, 353.2031
939.9410, 388.6133
941.0610, 456.7148
942.1810, 427.0430
943.3010, 404.4141
944.4200, 448.8633
945.5390, 331.3750
946.6580, 192.9531
947.7770, 341.5664
948.8960, 508.2266
950.0150, 420.9375
951.1330, 442.7031
952.2510, 435.4336
953.3690, 402.3398
954.4870, 350.2344
955.6050, 410.1680
956.7230, 371.1367
957.8400, 389.1484
958.9580, 318.1914
960.0750, 492.2734
961.1920, 349.4023
962.3090, 370.5977
963.4250, 238.8320
964.5420, 249.1250
965.6580, 428.4141
966.7740, 311.7578
967.8900, 366.1328
969.0060, 505.5430
970.1220, 528.0391
971.2380, 506.5625
972.3530, 631.1641
973.4680, 595.7656
974.5830, 630.9531
975.6980, 571.3750
976.8130, 644.2383
977.9280, 576.1641
979.0420, 547.1289
980.1560, 594.1250
981.2710, 808.1719
982.3850, 509.2578
983.4980, 813.3750
984.6120, 605.5273
985.7260, 731.7266
986.8390, 690.9766
987.9520, 865.2617
989.0650, 515.6172
990.1780, 504.0547
991.2910, 745.5508
992.4030, 636.1172
993.5160, 880.7188
994.6280, 403.3594
995.7400, 510.0469
996.8520, 429.8164
997.9640, 377.6641
999.0750, 594.5664
1000.187, 426.5078
1001.298, 402.4844
1002.409, 273.5000
1003.520, 458.5781
1004.631, 393.6875
1005.741, 418.8945
1006.852, 413.1367
1007.962, 570.4219
1009.072, 308.8242
1010.182, 350.2812
1011.292, 241.7969
1012.402, 396.3516
1013.511, 280.9570
1014.621, 166.6016
1015.730, 354.2891
1016.839, 438.0547
1017.948, 369.8672
1019.056, 410.6992
1020.165, 522.5703
1021.273, 357.4922
1022.382, 235.4492
1023.490, 365.0039
1024.598, 292.0352
1025.706, 294.1328
1026.813, 467.2734
1027.921, 476.4609
1029.028, 527.6797
1030.135, 413.9492
1031.242, 509.8516
1032.349, 429.1914
1033.456, 383.5625
1034.562, 368.9922
1035.668, 497.4766
1036.775, 62.79297
1037.881, 417.4453
1038.987, 497.0469
1040.092, 255.7891
1041.198, 498.7578
1042.303, 311.5156
1043.408, 622.3359
1044.514, 467.1836
1045.618, 425.9219
1046.723, 510.3945
1047.828, 547.7930
1048.932, 543.7812
1050.037, 413.8281
1051.141, 485.9023
1052.245, 375.0078
1053.349, 447.1445
1054.452, 592.3125
1055.556, 380.5078
1056.659, 241.7305
1057.762, 495.9883
1058.865, 606.2734
1059.968, 608.5859
1061.071, 489.7031
1062.174, 574.0703
1063.276, 481.4727
1064.378, 407.8945
1065.480, 423.3477
1066.582, 731.6367
1067.684, 509.1406
1068.786, 445.7383
1069.887, 567.3008
1070.988, 305.8867
1072.090, 517.1875
1073.191, 517.5625
1074.291, 702.2305
1075.392, 701.2578
1076.493, 381.9727
1077.593, 608.5156
1078.693, 484.2852
1079.793, 346.4570
1080.893, 518.2695
1081.993, 443.0977
1083.092, 379.2148
1084.192, 394.0977
1085.291, 351.1289
1086.390, 462.9297
1087.489, 365.8789
1088.588, 494.8477
1089.686, 568.9297
1090.785, 556.0820
1091.883, 471.9922
1092.981, 311.3164
1094.079, 397.3867
1095.177, 531.4766
1096.275, 600.5898
1097.373, 383.9492
1098.470, 372.1016
1099.567, 429.2656
1100.664, 202.4531
1101.761, 448.3359
1102.858, 649.5586
1103.954, 525.8242
1105.051, 738.6367
1106.147, 509.9180
1107.243, 820.0820
1108.339, 578.9688
1109.435, 441.2852
1110.531, 537.1992
1111.626, 375.5430
1112.722, 523.7031
1113.817, 178.0664
1114.912, 598.4453
1116.007, 611.8359
1117.101, 470.7930
1118.196, 419.2031
1119.290, 511.6328
1120.385, 412.0625
1121.479, 297.5117
1122.573, 434.9648
1123.666, 364.4297
1124.760, 225.9062
1125.853, 178.3867
1126.947, 215.8750
1128.040, 303.3789
1129.133, 121.0273
1130.226, 237.5391
1131.318, 256.0625
1132.411, 209.6953
1133.503, 376.2305
1134.596, 29.81250
1135.688, 118.3555
1136.780, 100.2227
1137.871, 65.77734
1138.963, 137.3398
1140.054, 228.4492
1141.146, 199.0430
1142.237, 239.7891
1143.328, 152.3633
1144.419, 93.17969
1145.509, 85.04297
1146.600, 75.03516
1147.690, 74.61719
1148.780, 2.203125
1149.870, 95.79297
1150.960, 203.3789
1152.050, 148.9688
1153.139, 75.56250
1154.229, 98.85156
1155.318, 42.25781
1156.407, 84.50781
1157.496, 43.05469
1158.585, 97.59766
1159.674, 80.14453
1160.762, 16.68750
1161.850, 73.77344
1162.939, 191.3320
1164.027, 275.8438
1165.114, 104.9531
1166.202, 48.46094
1167.290, 29.47656
1168.377, 4.988281
1169.464, 44.65234
1170.551, 1.863281
1171.638, 127.3906
1172.725, 176.0195
1173.812, 85.56250
1174.898, 340.8047
1175.984, 98.83203
1177.071, 101.4727
1178.157, 90.77734
1179.242, 53.07422
1180.328, 207.8438
1181.414, 120.2578
1182.499, 350.9180
1183.584, 137.1875
1184.669, 80.44531
1185.754, 258.6992
1186.839, 278.9414
1187.924, 190.3359
1189.008, 214.3984
1190.092, 73.62109
1191.177, 82.17188
1192.260, 43.98047
1193.344, 15.12891
1194.428, 92.26172
1195.512, 84.39062
1196.595, 7.492188
1197.678, 138.6055
1198.761, 9.691406
1199.844, 97.76562
1200.927, 163.8281
1202.009, 37.66016
1203.092, 19.64453
1204.174, 60.34375
1205.256, 8.316406
1206.338, 70.27344
1207.420, 17.77734
1208.502, 122.1406
1209.583, 11.04688
1210.665, 41.92969
1211.746, 33.19531
1212.827, 68.36328
1213.908, 66.41406
1214.988, 219.1758
1216.069, 255.9219
1217.149, 158.6562
1218.230, 230.3750
1219.310, 38.08203
1220.390, 35.77344
1221.470, 9.449219
1222.549, 30.10156
1223.629, 84.73438
1224.708, 139.3477
1225.787, 139.2891
1226.866, 37.53906
1227.945, 163.1094
1229.024, 135.6641
1230.103, 177.2031
1231.181, 155.2695
1232.259, 93.13672
1233.337, 111.4727
1234.415, 113.1719
1235.493, 35.96875
1236.571, 106.7812
1237.648, 69.76562
1238.726, 59.78516
1239.803, 37.12891
1240.880, 94.01953
1241.957, 23.10547
1243.034, 283.7148
1244.110, 93.51953
1245.187, 108.3125
1246.263, 0.9179690
1247.339, 166.8125
1248.415, 106.5312
1249.491, 154.2266
1250.566, 206.9062
1251.642, 162.7695
1252.717, 256.6719
1253.793, 94.83984
1254.868, 329.4531
1255.943, 248.0430
1257.017, 149.6172
1258.092, 36.82422
1259.166, 176.6641
1260.241, 135.1445
1261.315, 82.59766
1262.389, 220.0391
1263.462, 93.45703
1264.536, 317.8633
1265.610, 36.75781
1266.683, 290.5625
1267.756, 153.8633
1268.829, 30.14844
1269.902, 101.4180
1270.975, 86.67188
1272.048, 160.9062
1273.120, 41.12109
1274.192, 125.3945
1275.264, 8.472656
1276.336, 173.5938
1277.408, 284.7031
1278.480, 231.7812
1279.551, 119.8516
1280.623, 337.9023
1281.694, 257.9375
1282.765, 284.9531
1283.836, 105.4062
1284.907, 89.40625
1285.977, 219.3711
1287.048, 383.3086
1288.118, 123.2344
1289.188, 224.1406
1290.258, 386.0312
1291.328, 69.29688
1292.398, 207.1445
1293.467, 39.02344
1294.537, 29.25781
1295.606, 72.44922
1296.675, 115.3398
1297.744, 16.08984
1298.813, 163.5234
1299.882, 328.0625
1300.950, 387.3984
1302.018, 107.9570
1303.086, 291.4727
1304.155, 186.0039
1305.222, 345.6602
1306.290, 465.1562
1307.358, 187.6328
1308.425, 355.0977
1309.492, 160.5469
1310.559, 266.9766
1311.626, 447.3945
1312.693, 182.8008
1313.760, 248.1914
1314.826, 152.5664
1315.893, 241.9219
1316.959, 256.2656
1318.025, 387.5938
1319.091, 178.9102
1320.157, 309.4258
1321.222, 191.7070
1322.288, 320.9727
1323.353, 187.2148
1324.418, 242.4453
1325.483, 298.8477
1326.548, 202.0391
1327.612, 373.1523
1328.677, 294.3047
1329.741, 65.44531
1330.806, 335.8789
1331.870, 256.5312
1332.934, 540.3320
1333.997, 360.0703
1335.061, 374.1211
1336.124, 310.3594
1337.188, 129.3789
1338.251, 447.9922
1339.314, 329.9766
1340.377, 581.9570
1341.439, 293.6523
1342.502, 276.5898
1343.564, 264.5156
1344.627, 314.4219
1345.689, 358.3164
1346.751, 298.1992
1347.813, 236.9805
1348.874, 497.6953
1349.936, 375.6562
1350.997, 410.2227
1352.058, 361.0391
1353.119, 234.8438
1354.180, 498.6367
1355.241, 406.1836
1356.301, 528.9531
1357.362, 400.7109
1358.422, 246.4570
1359.482, 315.5117
1360.542, 189.2344
1361.602, 409.9141
1362.662, 193.4336
1363.721, 332.7422
1364.781, 366.5508
1365.840, 281.6367
1366.899, 506.2969
1367.958, 263.3672
1369.017, 304.0156
1370.075, 335.8438
1371.134, 212.4766
1372.192, 405.1016
1373.250, 285.7188
1374.308, 297.7773
1375.366, 406.3789
1376.424, 452.9805
1377.481, 447.5898
1378.539, 256.1562
1379.596, 409.7383
1380.653, 382.3164
1381.710, 329.8828
1382.767, 505.4492
1383.824, 360.0078
1384.880, 209.5625
1385.937, 391.9688
1386.993, 424.5156
1388.049, 393.0547
1389.105, 466.4883
1390.161, 406.0195
1391.216, 287.5117
1392.272, 287.0391
1393.327, 440.2500
1394.382, 271.7773
1395.437, 460.2969
1396.492, 256.2617
1397.547, 481.7578
1398.601, 352.1055
1399.656, 610.6250
1400.710, 549.4219
1401.764, 345.4336
1402.818, 382.2656
1403.872, 533.7852
1404.925, 225.3086
1405.979, 466.8359
1407.032, 180.3672
1408.085, 138.8984
1409.139, 231.4297
1410.191, 29.96875
1411.244, 419.4922
1412.297, 341.1641
1413.349, 320.7344
1414.402, 580.3125
1415.454, 245.8984
1416.506, 319.4883
1417.558, 457.0859
1418.609, 227.1172
1419.661, 497.7422
1420.712, 305.7734
1421.764, 336.3125
1422.815, 591.2969
1423.866, 412.8594
1424.916, 357.2695
1425.967, 450.8398
1427.018, 245.1758
1428.068, 449.0430
1429.118, 85.65625
1430.168, 85.29688
1431.218, 227.9453
1432.268, 904.6250
1433.318, 396.3125
1434.367, 479.0039
1435.416, 378.6602
1436.465, 314.3320
1437.514, 432.0117
1438.563, 236.0547
1439.612, 301.7578
1440.661, 342.4727
1441.709, 185.2070
1442.757, 403.9727
1443.805, 267.5625
1444.853, 168.1836
1445.901, 372.6719
1446.949, 203.6602
1447.996, 463.8008
1449.044, 608.2422
1450.091, 643.2031
1451.138, 240.8164
1452.185, 402.6641
1453.232, 338.6914
1454.278, 265.4180
1455.325, 507.2344
1456.371, 168.4336
1457.417, 405.2734
1458.463, 412.3633
1459.509, 524.5859
1460.555, 409.0859
1461.601, 363.9062
1462.646, 546.5234
1463.691, 602.9883
1464.737, 461.2383
1465.782, 580.0820
1466.826, 233.4180
1467.871, 295.4609
1468.916, 533.9336
1469.960, 404.1328
1471.004, 527.6914
1472.048, 554.8203
1473.092, 143.4805
1474.136, 494.7070
1475.180, 516.1523
1476.223, 199.0195
1477.267, 524.1133
1478.310, 253.6523
1479.353, 195.8047
1480.396, 297.9688
1481.439, 233.3711
1482.481, 431.7070
1483.524, 376.8086
1484.566, 299.2734
1485.608, 320.4922
1486.650, 376.1211
1487.692, 238.0391
1488.734, 290.9805
1489.775, 161.9336
1490.817, 186.8906
1491.858, 178.8594
1492.899, 165.0625
1493.940, 127.8125
1494.981, 143.8008
1496.022, 231.8008
1497.062, 93.92188
1498.103, 136.6875
1499.143, 120.8438
1500.183, 231.6055
1501.223, 67.88672
1502.263, 403.1797
1503.302, 330.4805
1504.342, 226.8047
1505.381, 46.12891
1506.420, 170.4531
1507.459, 413.7930
1508.498, 157.1523
1509.537, 351.5312
1510.576, 328.9453
1511.614, 245.4648
1512.652, 421.8984
1513.691, 196.4453
1514.729, 308.6055
1515.767, 400.6797
1516.804, 297.3672
1517.842, 103.1094
1518.879, 504.9141
1519.917, 252.7734
1520.954, 94.31250
1521.991, 132.6523
1523.028, 95.65625
1524.064, 356.7109
1525.101, 304.5234
1526.137, 494.9727
1527.173, 264.1875
1528.210, 277.4609
1529.245, 310.7852
1530.281, 282.1797
1531.317, 316.0039
1532.352, 334.1602
1533.388, 362.7617
1534.423, 320.8633
1535.458, 363.6523
1536.493, 7.492188
1537.528, 256.1641
1538.562, 404.2227
1539.597, 442.8984
1540.631, 44.35547
1541.665, 210.6445
1542.700, 150.7227
1543.733, 81.64062
1544.767, 327.7617
1545.801, 6.589844
1546.834, 209.4336
1547.868, 220.0586
1548.901, 335.8867
1549.934, 224.0391
1550.967, 182.5625
1551.999, 368.8984
1553.032, 429.1094
1554.064, 288.7695
1555.097, 411.1719
1556.129, 67.86719
1557.161, 133.0000
1558.193, 374.1953
1559.224, 238.5078
1560.256, 365.6484
1561.287, 396.2773
1562.318, 11.62500
1563.350, 343.2734
1564.380, 368.4336
1565.411, 56.00000
1566.442, 387.1250
1567.472, 77.58594
1568.503, 9.789063
1569.533, 94.59375
1570.563, 0.0000000E+00
##END=



