##NAMES=Ilvaite
##RRUFFID=R050040
##IDEAL CHEMISTRY=CaFe^2+^_2_Fe^3+^OSi_2_O_7_(OH)
##LOCALITY=Capo Calamita, Isle of Elba, Italy
##OWNER=RRUFF
##SOURCE=University of Arizona Mineral Museum
##DESCRIPTION=Brown fragment
##STATUS=The identification of this mineral has been confirmed by X-ray diffraction and chemical analysis
##URL=rruff.info/R050040
##MEASURED CHEMISTRY=Ca_1.00_(Fe^2+^_1.89_Mn_0.10_Mg_0.01_)_Î£=2_Fe^3+^_1.00_OSi_2.00_O_7_(OH); trace amounts of Al; OH estimated by charge balance
##PIN_ID=M00423
##ORIENTATION=Laser parallel to -c* (0 0 -1). Fiducial mark perpendicular to laser is parallel to a [1 0 0]
148.5960, 0.0000000E+00
149.8300, 404.6992
151.0630, 1112.938
152.2960, 1051.535
153.5300, 793.8438
154.7620, 928.1172
155.9950, 892.0195
157.2280, 136.8633
158.4600, 224.7969
159.6920, 28.98047
160.9250, 110.5977
162.1560, 341.5898
163.3880, 395.3828
164.6200, 835.8359
165.8510, 731.7227
167.0820, 1104.590
168.3130, 1271.871
169.5440, 1376.324
170.7750, 1576.711
172.0050, 1163.723
173.2350, 733.0938
174.4650, 863.4766
175.6950, 812.1133
176.9250, 1015.820
178.1550, 899.1992
179.3840, 751.1680
180.6130, 797.1641
181.8420, 1324.102
183.0710, 1146.219
184.3000, 2014.777
185.5280, 1975.488
186.7570, 2766.727
187.9850, 2846.598
189.2130, 3462.367
190.4400, 4192.438
191.6680, 4851.258
192.8960, 5418.242
194.1230, 6236.695
195.3500, 6765.766
196.5770, 7135.945
197.8030, 8435.547
199.0300, 7493.172
200.2560, 7815.539
201.4830, 7568.965
202.7090, 6460.637
203.9340, 4523.621
205.1600, 3066.797
206.3860, 1398.082
207.6110, 1160.465
208.8360, 411.3438
210.0610, 284.5195
211.2860, 375.1562
212.5100, 309.9336
213.7350, 100.3086
214.9590, 374.6914
216.1830, 214.3594
217.4070, 199.3516
218.6310, 12.27734
219.8540, 39.14062
221.0780, 7.929688
222.3010, 79.57422
223.5240, 4.539063
224.7470, 176.9766
225.9690, 120.0039
227.1920, 142.4961
228.4140, 345.4141
229.6360, 434.7227
230.8580, 350.3906
232.0800, 258.3750
233.3020, 749.6328
234.5230, 746.1406
235.7440, 922.8633
236.9650, 398.7812
238.1860, 426.8594
239.4070, 272.0547
240.6280, 55.33203
241.8480, 68.34375
243.0680, 38.97656
244.2880, 235.5781
245.5080, 31.85156
246.7280, 213.9219
247.9470, 117.7344
249.1660, 546.8516
250.3860, 225.4531
251.6040, 398.0664
252.8230, 6.195313
254.0420, 22.48438
255.2600, 320.4766
256.4790, 568.9219
257.6970, 727.7656
258.9150, 530.5078
260.1320, 792.3867
261.3500, 870.1680
262.5670, 940.2695
263.7840, 1266.711
265.0010, 1120.844
266.2180, 1443.328
267.4350, 1578.918
268.6510, 1799.883
269.8680, 1900.418
271.0840, 1876.473
272.3000, 1789.281
273.5160, 1973.793
274.7310, 2057.055
275.9470, 2250.305
277.1620, 2340.672
278.3770, 2280.160
279.5920, 1786.770
280.8070, 1796.512
282.0210, 1365.375
283.2360, 1589.367
284.4500, 1191.488
285.6640, 1285.730
286.8780, 1450.105
288.0920, 1105.605
289.3050, 1220.234
290.5180, 1275.988
291.7320, 1393.875
292.9450, 1285.891
294.1570, 1467.391
295.3700, 1413.777
296.5830, 1678.977
297.7950, 1698.289
299.0070, 1641.551
300.2190, 1640.680
301.4310, 1662.523
302.6420, 1619.312
303.8540, 1829.750
305.0650, 1570.883
306.2760, 1872.695
307.4870, 1539.188
308.6980, 1737.352
309.9080, 1754.191
311.1190, 1945.691
312.3290, 2137.812
313.5390, 2457.496
314.7490, 2652.750
315.9580, 2476.609
317.1680, 3121.113
318.3770, 3075.285
319.5860, 3749.129
320.7950, 4073.004
322.0040, 4578.066
323.2130, 4971.672
324.4210, 5879.273
325.6290, 6552.379
326.8380, 7451.051
328.0460, 7650.227
329.2530, 8211.211
330.4610, 8423.508
331.6680, 8881.301
332.8760, 8835.727
334.0830, 8309.902
335.2890, 8515.992
336.4960, 8042.973
337.7030, 7607.941
338.9090, 7169.898
340.1150, 6734.805
341.3210, 6028.477
342.5270, 5303.746
343.7330, 4876.719
344.9380, 4352.953
346.1440, 3966.141
347.3490, 3634.012
348.5540, 3372.945
349.7590, 3174.961
350.9630, 3062.059
352.1680, 2764.238
353.3720, 2675.945
354.5760, 2783.742
355.7800, 2437.570
356.9840, 2716.461
358.1870, 2324.605
359.3910, 2252.957
360.5940, 2341.781
361.7970, 2064.488
363.0000, 1874.684
364.2030, 1361.148
365.4050, 1745.469
366.6080, 1063.273
367.8100, 1214.324
369.0120, 958.3906
370.2140, 911.5742
371.4150, 779.5898
372.6170, 561.6875
373.8180, 481.1094
375.0190, 726.4844
376.2200, 492.3555
377.4210, 525.5938
378.6220, 100.9297
379.8220, 597.3984
381.0230, 334.6055
382.2230, 286.1055
383.4230, 586.4102
384.6220, 227.9922
385.8220, 57.66016
387.0220, 280.5898
388.2210, 174.7930
389.4200, 47.87891
390.6190, 111.4766
391.8180, 230.0195
393.0160, 152.6562
394.2150, 129.2148
395.4130, 257.2305
396.6110, 17.10156
397.8090, 140.6445
399.0060, 35.57422
400.2040, 281.4883
401.4010, 153.7617
402.5980, 24.41406
403.7950, 238.8047
404.9920, 265.6406
406.1890, 186.5586
407.3860, 151.5703
408.5820, 394.6758
409.7780, 144.8711
410.9740, 382.1641
412.1700, 507.5391
413.3650, 276.0117
414.5610, 665.5703
415.7560, 595.2305
416.9510, 816.9844
418.1460, 790.8320
419.3410, 1122.770
420.5360, 1142.785
421.7300, 1307.898
422.9240, 1670.109
424.1180, 1536.418
425.3120, 1652.824
426.5060, 2309.332
427.7000, 2400.930
428.8930, 2651.629
430.0860, 2787.426
431.2790, 2624.312
432.4720, 2419.297
433.6650, 2326.379
434.8580, 2145.551
436.0500, 1993.305
437.2420, 1767.492
438.4340, 1816.652
439.6260, 1328.148
440.8180, 1496.672
442.0090, 1443.230
443.2010, 1199.812
444.3920, 1421.434
445.5830, 1282.090
446.7740, 1139.773
447.9640, 936.4961
449.1550, 997.2539
450.3450, 844.0469
451.5350, 997.8828
452.7250, 1070.777
453.9150, 1092.719
455.1050, 1164.703
456.2940, 1347.730
457.4830, 1439.848
458.6720, 1391.055
459.8610, 1191.398
461.0500, 1310.801
462.2390, 1187.289
463.4270, 1320.844
464.6150, 1304.508
465.8040, 1226.297
466.9910, 1611.148
468.1790, 1324.066
469.3670, 1516.066
470.5540, 1577.223
471.7410, 1768.496
472.9280, 2009.934
474.1150, 1931.547
475.3020, 1826.332
476.4890, 1850.227
477.6750, 2179.281
478.8610, 2279.453
480.0470, 2604.750
481.2330, 2707.191
482.4190, 2807.766
483.6040, 2804.512
484.7900, 3154.320
485.9750, 3433.449
487.1600, 3870.602
488.3450, 4160.941
489.5290, 4582.391
490.7140, 4744.988
491.8980, 4921.684
493.0820, 5854.492
494.2660, 6150.449
495.4500, 6863.590
496.6340, 7011.914
497.8170, 7543.391
499.0010, 7854.062
500.1840, 7906.883
501.3670, 7994.824
502.5500, 8284.953
503.7320, 8020.270
504.9150, 7696.160
506.0970, 7853.938
507.2790, 7658.914
508.4610, 6956.070
509.6430, 7337.383
510.8250, 6827.797
512.0060, 6833.395
513.1870, 6492.102
514.3680, 6471.922
515.5490, 6335.711
516.7300, 6207.352
517.9110, 6168.008
519.0910, 6059.227
520.2710, 6074.547
521.4510, 6025.414
522.6310, 5934.898
523.8110, 5868.457
524.9910, 5871.871
526.1700, 5837.707
527.3490, 5869.676
528.5280, 5895.711
529.7070, 5845.895
530.8860, 5988.277
532.0650, 5950.656
533.2430, 5791.117
534.4210, 5911.738
535.5990, 5762.168
536.7770, 5746.410
537.9550, 5589.531
539.1320, 5559.730
540.3100, 5465.637
541.4870, 5254.906
542.6640, 5280.164
543.8410, 5116.832
545.0170, 5273.570
546.1940, 5218.375
547.3700, 4666.250
548.5470, 4788.199
549.7230, 4700.211
550.8980, 4370.293
552.0740, 4490.438
553.2500, 4283.648
554.4250, 4159.918
555.6000, 3920.254
556.7750, 3839.656
557.9500, 3834.117
559.1250, 3865.645
560.2990, 3701.238
561.4730, 3866.891
562.6480, 3620.598
563.8220, 3502.367
564.9950, 3333.191
566.1690, 3303.078
567.3430, 3507.023
568.5160, 3457.027
569.6890, 3605.090
570.8620, 3532.199
572.0350, 3577.367
573.2070, 3693.594
574.3800, 3486.871
575.5520, 3957.195
576.7240, 4024.578
577.8960, 4259.012
579.0680, 4669.500
580.2400, 4806.035
581.4110, 4971.617
582.5830, 5286.250
583.7540, 5157.938
584.9250, 5070.668
586.0950, 4495.445
587.2660, 4583.273
588.4370, 4228.148
589.6070, 3817.070
590.7770, 3584.039
591.9470, 3148.055
593.1170, 3043.562
594.2860, 2717.664
595.4560, 2546.816
596.6250, 2176.008
597.7940, 2044.742
598.9630, 2086.699
600.1320, 2045.621
601.3000, 1739.188
602.4690, 1805.594
603.6370, 1564.727
604.8050, 1712.465
605.9730, 1511.344
607.1410, 1099.883
608.3090, 999.4609
609.4760, 1199.590
610.6430, 1524.664
611.8100, 1239.328
612.9770, 927.7539
614.1440, 894.2812
615.3110, 786.2734
616.4770, 567.6328
617.6430, 831.0156
618.8090, 465.4766
619.9750, 393.5078
621.1410, 504.5039
622.3070, 407.7930
623.4720, 352.4570
624.6370, 483.3359
625.8020, 361.9570
626.9670, 241.8281
628.1320, 152.2031
629.2970, 320.9648
630.4610, 267.6719
631.6250, 478.3203
632.7890, 309.5000
633.9530, 351.3438
635.1170, 267.2070
636.2810, 321.8594
637.4440, 303.6172
638.6070, 57.29688
639.7700, 326.3984
640.9330, 309.2188
642.0960, 354.4375
643.2590, 17.96875
644.4210, 59.07422
645.5830, 318.2969
646.7450, 57.10938
647.9070, 115.2695
649.0690, 127.0977
650.2310, 39.92578
651.3920, 280.8945
652.5530, 202.6914
653.7140, 181.4688
654.8750, 319.2305
656.0360, 120.9688
657.1970, 167.6875
658.3570, 93.91406
659.5170, 76.98047
660.6770, 14.30078
661.8370, 55.31641
662.9970, 121.9062
664.1570, 17.47266
665.3160, 213.0078
666.4750, 31.52344
667.6340, 5.007813
668.7930, 36.45703
669.9520, 220.1172
671.1110, 107.7188
672.2690, 184.4102
673.4270, 59.60156
674.5850, 90.76562
675.7430, 380.8984
676.9010, 430.9883
678.0590, 290.0508
679.2160, 547.0742
680.3730, 200.0664
681.5300, 184.0273
682.6870, 352.9648
683.8440, 267.8633
685.0010, 527.7266
686.1570, 620.5469
687.3130, 659.3242
688.4690, 714.0664
689.6250, 736.7656
690.7810, 843.4219
691.9370, 1269.035
693.0920, 1386.605
694.2470, 1857.129
695.4020, 1761.609
696.5570, 2407.047
697.7120, 2687.445
698.8670, 3016.793
700.0210, 3785.098
701.1750, 4385.355
702.3290, 4354.562
703.4830, 4837.723
704.6370, 5026.836
705.7910, 4832.902
706.9440, 4589.918
708.0970, 3996.887
709.2510, 3837.809
710.4030, 3259.676
711.5560, 2564.492
712.7090, 2073.262
713.8610, 1795.980
715.0140, 1503.648
716.1660, 1284.262
717.3180, 1334.820
718.4690, 901.3359
719.6210, 620.7930
720.7730, 730.1953
721.9240, 776.5469
723.0750, 403.8477
724.2260, 297.0938
725.3770, 311.2773
726.5270, 182.4141
727.6780, 364.4961
728.8280, 188.5547
729.9780, 251.4844
731.1280, 6.394531
732.2780, 100.2109
733.4280, 126.9688
734.5770, 171.6758
735.7260, 83.67578
736.8760, 53.17969
738.0250, 225.8086
739.1730, 41.33984
740.3220, 6.593750
741.4700, 56.36328
742.6190, 103.7578
743.7670, 168.0391
744.9150, 184.4805
746.0630, 183.9375
747.2100, 25.34375
748.3580, 260.3516
749.5050, 77.29688
750.6520, 247.3906
751.7990, 279.7266
752.9460, 238.3203
754.0930, 36.15625
755.2390, 179.1211
756.3860, 20.28906
757.5320, 60.58203
758.6780, 155.0273
759.8240, 79.66016
760.9690, 244.4531
762.1150, 56.48828
763.2600, 195.6641
764.4060, 56.06250
765.5510, 207.5977
766.6950, 47.63672
767.8400, 121.2148
768.9850, 117.7539
770.1290, 37.66016
771.2730, 152.5352
772.4170, 232.9219
773.5610, 246.2188
774.7050, 51.39844
775.8480, 174.3945
776.9920, 48.59375
778.1350, 95.07422
779.2780, 68.33203
780.4210, 217.8828
781.5640, 134.3438
782.7060, 27.83984
783.8490, 75.79297
784.9910, 63.10938
786.1330, 43.14453
787.2750, 113.6797
788.4170, 224.3906
789.5580, 166.0117
790.7000, 247.5820
791.8410, 327.0938
792.9820, 364.1016
794.1230, 268.9453
795.2640, 531.2891
796.4040, 650.5742
797.5450, 764.8086
798.6850, 674.5156
799.8250, 1177.637
800.9650, 1038.703
802.1050, 1234.031
803.2450, 1130.680
804.3840, 1608.594
805.5230, 1454.348
806.6630, 1922.152
807.8020, 2007.594
808.9400, 2453.898
810.0790, 2352.551
811.2170, 2484.152
812.3560, 2865.707
813.4940, 3116.207
814.6320, 3531.664
815.7700, 3739.074
816.9070, 3910.434
818.0450, 4172.750
819.1820, 4028.012
820.3190, 4337.230
821.4560, 4039.406
822.5930, 3903.535
823.7300, 3585.617
824.8670, 3228.652
826.0030, 2829.645
827.1390, 2589.863
828.2750, 2417.496
829.4110, 2080.359
830.5470, 1908.172
831.6820, 1654.949
832.8180, 1686.688
833.9530, 1559.379
835.0880, 1059.039
836.2230, 1154.652
837.3580, 1147.227
838.4920, 873.7695
839.6270, 1172.266
840.7610, 1018.730
841.8950, 1157.156
843.0290, 1072.551
844.1630, 1338.906
845.2960, 1592.227
846.4300, 1944.512
847.5630, 1865.074
848.6960, 1886.988
849.8290, 1743.172
850.9620, 1877.328
852.0940, 1956.453
853.2270, 1927.539
854.3590, 2260.602
855.4910, 2474.629
856.6230, 2384.633
857.7550, 2400.602
858.8870, 2513.543
860.0180, 2638.461
861.1500, 2375.344
862.2810, 2195.203
863.4120, 1960.031
864.5430, 1909.258
865.6730, 1985.621
866.8040, 1866.375
867.9340, 1977.652
869.0640, 1992.359
870.1940, 1974.289
871.3240, 1849.699
872.4540, 1884.840
873.5830, 1835.777
874.7130, 1575.773
875.8420, 1498.141
876.9710, 1587.695
878.1000, 1440.535
879.2290, 1378.805
880.3570, 1327.945
881.4860, 1294.410
882.6140, 1271.887
883.7420, 1010.043
884.8700, 1198.578
885.9980, 1304.438
887.1250, 1310.492
888.2530, 958.6602
889.3800, 1068.824
890.5070, 1007.527
891.6340, 929.6758
892.7610, 1118.094
893.8880, 831.6484
895.0140, 1007.586
896.1400, 1001.316
897.2670, 1070.258
898.3930, 965.7422
899.5180, 909.7148
900.6440, 955.0469
901.7700, 927.6133
902.8950, 785.9336
904.0200, 820.5391
905.1450, 802.6836
906.2700, 807.0859
907.3950, 905.8828
908.5190, 980.7148
909.6440, 998.7695
910.7680, 977.1484
911.8920, 986.4375
913.0160, 788.6016
914.1400, 987.6641
915.2630, 897.3516
916.3870, 960.7422
917.5100, 1303.727
918.6330, 1242.305
919.7560, 1221.980
920.8790, 1200.551
922.0010, 1104.461
923.1240, 1750.496
924.2460, 1300.703
925.3680, 1566.941
926.4900, 1713.215
927.6120, 1493.535
928.7340, 1820.938
929.8550, 1824.371
930.9760, 1930.840
932.0980, 1999.348
933.2190, 1943.926
934.3390, 1874.539
935.4600, 1900.348
936.5810, 1835.363
937.7010, 1876.684
938.8210, 1823.535
939.9410, 1801.742
941.0610, 1916.348
942.1810, 1813.316
943.3010, 1944.375
944.4200, 1932.500
945.5390, 1855.664
946.6580, 2060.871
947.7770, 1693.121
948.8960, 1638.414
950.0150, 1843.777
951.1330, 1828.184
952.2510, 2030.633
953.3690, 1894.133
954.4870, 1817.672
955.6050, 1753.254
956.7230, 2193.887
957.8400, 1970.562
958.9580, 2259.293
960.0750, 2327.090
961.1920, 2348.934
962.3090, 2256.918
963.4250, 2462.949
964.5420, 2591.027
965.6580, 2715.254
966.7740, 2556.539
967.8900, 3046.895
969.0060, 3112.723
970.1220, 3265.805
971.2380, 3651.371
972.3530, 3945.055
973.4680, 4343.867
974.5830, 4330.738
975.6980, 4791.703
976.8130, 4863.750
977.9280, 5205.852
979.0420, 5761.000
980.1560, 5697.207
981.2710, 5903.465
982.3850, 6290.785
983.4980, 6023.164
984.6120, 6327.590
985.7260, 5911.074
986.8390, 5997.613
987.9520, 5463.203
989.0650, 5299.855
990.1780, 4997.562
991.2910, 4871.328
992.4030, 4263.145
993.5160, 4189.020
994.6280, 3634.953
995.7400, 3232.938
996.8520, 2832.988
997.9640, 2564.094
999.0750, 2482.250
1000.187, 2243.371
1001.298, 2070.719
1002.409, 1988.105
1003.520, 1837.523
1004.631, 1683.996
1005.741, 1601.414
1006.852, 1340.262
1007.962, 1441.039
1009.072, 1381.961
1010.182, 1379.957
1011.292, 1157.059
1012.402, 1305.273
1013.511, 847.6016
1014.621, 1285.051
1015.730, 1122.617
1016.839, 841.2578
1017.948, 1070.969
1019.056, 1138.836
1020.165, 805.8047
1021.273, 740.9297
1022.382, 737.2148
1023.490, 789.6523
1024.598, 873.1875
1025.706, 850.8555
1026.813, 902.7617
1027.921, 852.9414
1029.028, 892.9258
1030.135, 840.0234
1031.242, 722.3086
1032.349, 793.6992
1033.456, 508.2227
1034.562, 596.0117
1035.668, 803.6250
1036.775, 749.4727
1037.881, 605.4375
1038.987, 907.4648
1040.092, 955.2148
1041.198, 767.7266
1042.303, 778.1016
1043.408, 854.6641
1044.514, 804.2852
1045.618, 748.8633
1046.723, 1104.082
1047.828, 693.9961
1048.932, 604.0039
1050.037, 672.1523
1051.141, 1251.352
1052.245, 1004.648
1053.349, 880.0352
1054.452, 851.4883
1055.556, 718.0117
1056.659, 837.5898
1057.762, 1009.223
1058.865, 902.9141
1059.968, 774.0898
1061.071, 974.9336
1062.174, 915.7852
1063.276, 861.6836
1064.378, 888.6367
1065.480, 882.4102
1066.582, 844.0742
1067.684, 856.0664
1068.786, 781.7852
1069.887, 845.9961
1070.988, 828.2305
1072.090, 827.5391
1073.191, 859.8984
1074.291, 890.3047
1075.392, 855.7578
1076.493, 807.3789
1077.593, 967.9258
1078.693, 930.5312
1079.793, 908.9102
1080.893, 791.8672
1081.993, 836.3906
1083.092, 795.3281
1084.192, 1010.238
1085.291, 775.9141
1086.390, 879.8516
1087.489, 861.8281
1088.588, 563.8477
1089.686, 615.9141
1090.785, 645.1875
1091.883, 862.2656
1092.981, 978.4609
1094.079, 632.1562
1095.177, 635.4336
1096.275, 769.7539
1097.373, 381.0898
1098.470, 607.4453
1099.567, 765.8516
1100.664, 768.5430
1101.761, 798.1797
1102.858, 776.0742
1103.954, 407.7656
1105.051, 725.0742
1106.147, 543.2031
1107.243, 721.6016
1108.339, 451.0938
1109.435, 952.8320
1110.531, 539.6016
1111.626, 754.3984
1112.722, 873.2266
1113.817, 514.3633
1114.912, 617.2500
1116.007, 327.1641
1117.101, 541.1094
1118.196, 679.0781
1119.290, 571.0781
1120.385, 788.1016
1121.479, 694.1484
1122.573, 683.2266
1123.666, 393.3242
1124.760, 563.4492
1125.853, 495.6016
1126.947, 737.7734
1128.040, 590.9766
1129.133, 334.1953
1130.226, 416.4375
1131.318, 484.7070
1132.411, 286.9922
1133.503, 264.3047
1134.596, 293.6367
1135.688, 257.0234
1136.780, 2.632813
1137.871, 369.6289
1138.963, 107.2695
1140.054, 188.6133
1141.146, 574.2148
1142.237, 458.5234
1143.328, 383.8984
1144.419, 129.3984
1145.509, 238.9062
1146.600, 403.0547
1147.690, 266.9414
1148.780, 350.4883
1149.870, 225.1328
1150.960, 253.7031
1152.050, 458.2812
1153.139, 358.6016
1154.229, 438.5938
1155.318, 192.1992
1156.407, 278.8086
1157.496, 155.5820
1158.585, 259.0078
1159.674, 155.4805
1160.762, 301.9688
1161.850, 596.3203
1162.939, 251.8164
1164.027, 61.31250
1165.114, 68.80469
1166.202, 294.4531
1167.290, 80.94531
1168.377, 102.4375
1169.464, 127.9258
1170.551, 197.4375
1171.638, 154.0312
1172.725, 36.31250
1173.812, 180.3477
1174.898, 74.91797
1175.984, 100.5586
1177.071, 211.3477
1178.157, 143.7617
1179.242, 34.86719
1180.328, 56.96484
1181.414, 179.0508
1182.499, 121.1289
1183.584, 123.9844
1184.669, 141.2500
1185.754, 159.2969
1186.839, 112.5625
1187.924, 53.35547
1189.008, 54.36328
1190.092, 69.63672
1191.177, 160.4961
1192.260, 54.85156
1193.344, 176.0625
1194.428, 208.2148
1195.512, 115.4648
1196.595, 20.23438
1197.678, 28.21094
1198.761, 84.24609
1199.844, 116.0039
1200.927, 156.1289
1202.009, 39.94141
1203.092, 49.04297
1204.174, 143.6875
1205.256, 53.06250
1206.338, 19.63672
1207.420, 171.4961
1208.502, 220.7344
1209.583, 108.7070
1210.665, 208.9922
1211.746, 69.87500
1212.827, 83.39453
1213.908, 145.6250
1214.988, 129.6328
1216.069, 198.3711
1217.149, 155.2031
1218.230, 201.3555
1219.310, 168.4766
1220.390, 45.57812
1221.470, 39.34766
1222.549, 202.6602
1223.629, 283.3555
1224.708, 144.4258
1225.787, 197.6289
1226.866, 302.6367
1227.945, 1.882813
1229.024, 12.65625
1230.103, 64.74609
1231.181, 107.8789
1232.259, 38.37500
1233.337, 200.4102
1234.415, 224.3555
1235.493, 67.51562
1236.571, 126.6523
1237.648, 14.94531
1238.726, 104.6914
1239.803, 158.3047
1240.880, 124.6016
1241.957, 382.4336
1243.034, 56.96094
1244.110, 142.4453
1245.187, 297.9102
1246.263, 364.3438
1247.339, 244.7500
1248.415, 172.1289
1249.491, 147.4766
1250.566, 148.9570
1251.642, 234.0859
1252.717, 218.3438
1253.793, 305.5781
1254.868, 302.7734
1255.943, 291.6250
1257.017, 361.3555
1258.092, 248.1914
1259.166, 333.2695
1260.241, 324.3164
1261.315, 276.0352
1262.389, 322.4102
1263.462, 187.2734
1264.536, 252.1953
1265.610, 171.0898
1266.683, 54.10547
1267.756, 92.64844
1268.829, 105.3555
1269.902, 149.0234
1270.975, 31.66016
1272.048, 82.77734
1273.120, 271.6602
1274.192, 204.0625
1275.264, 92.56641
1276.336, 97.67578
1277.408, 404.8711
1278.480, 172.0352
1279.551, 200.1641
1280.623, 356.2578
1281.694, 177.3203
1282.765, 191.3477
1283.836, 344.3398
1284.907, 446.3047
1285.977, 486.2344
1287.048, 266.2500
1288.118, 311.5352
1289.188, 255.3672
1290.258, 51.83203
1291.328, 437.8594
1292.398, 341.5234
1293.467, 518.1484
1294.537, 104.2852
1295.606, 325.8125
1296.675, 453.1992
1297.744, 491.5000
1298.813, 173.9609
1299.882, 307.1836
1300.950, 258.6133
1302.018, 208.7461
1303.086, 407.1484
1304.155, 141.2070
1305.222, 339.6875
1306.290, 344.6602
1307.358, 445.5352
1308.425, 361.1133
1309.492, 333.8867
1310.559, 491.9648
1311.626, 547.3906
1312.693, 441.5312
1313.760, 547.6758
1314.826, 274.9609
1315.893, 334.6523
1316.959, 537.7500
1318.025, 441.0898
1319.091, 547.0742
1320.157, 568.9023
1321.222, 243.0352
1322.288, 537.5195
1323.353, 563.6719
1324.418, 603.8359
1325.483, 482.5898
1326.548, 494.0898
1327.612, 610.9531
1328.677, 416.6172
1329.741, 401.2734
1330.806, 434.8789
1331.870, 346.4336
1332.934, 589.9648
1333.997, 564.8398
1335.061, 283.8125
1336.124, 518.2461
1337.188, 510.6562
1338.251, 103.0352
1339.314, 531.3828
1340.377, 5.917969
1341.439, 461.1953
1342.502, 158.4492
1343.564, 510.6797
1344.627, 281.8828
1345.689, 364.0625
1346.751, 625.2227
1347.813, 463.3516
1348.874, 674.2930
1349.936, 443.4492
1350.997, 585.5117
1352.058, 406.0898
1353.119, 59.10547
1354.180, 461.0938
1355.241, 590.0859
1356.301, 182.0703
1357.362, 289.0312
1358.422, 366.7148
1359.482, 470.4688
1360.542, 394.9883
1361.602, 461.7266
1362.662, 607.8594
1363.721, 462.5703
1364.781, 559.2734
1365.840, 199.2773
1366.899, 506.0469
1367.958, 278.8008
1369.017, 417.5469
1370.075, 356.2734
1371.134, 546.7109
1372.192, 364.7773
1373.250, 518.4688
1374.308, 259.1484
1375.366, 380.8125
1376.424, 339.4648
1377.481, 334.1094
1378.539, 339.7461
1379.596, 364.3672
1380.653, 342.0352
1381.710, 312.5820
1382.767, 380.1719
1383.824, 351.7539
1384.880, 516.3242
1385.937, 475.0703
1386.993, 506.6211
1388.049, 419.1641
1389.105, 397.7031
1390.161, 412.3320
1391.216, 473.7500
1392.272, 429.9219
1393.327, 555.4297
1394.382, 548.0586
1395.437, 412.3320
1396.492, 726.9141
1397.547, 110.2500
1398.601, 434.8984
1399.656, 116.4883
1400.710, 577.9766
1401.764, 349.4609
1402.818, 145.3203
1403.872, 219.4609
1404.925, 628.9492
1405.979, 523.3555
1407.032, 601.8516
1408.085, 366.3516
1409.139, 290.7656
1410.191, 426.2031
1411.244, 134.6797
1412.297, 274.5625
1413.349, 346.0547
1414.402, 487.5781
1415.454, 306.1562
1416.506, 912.8672
1417.558, 468.5977
1418.609, 205.1992
1419.661, 569.8203
1420.712, 533.4336
1421.764, 497.9844
1422.815, 393.8672
1423.866, 423.5234
1424.916, 304.2031
1425.967, 202.7539
1427.018, 471.5078
1428.068, 339.3086
1429.118, 207.1367
1430.168, 595.0117
1431.218, 548.6445
1432.268, 323.5898
1433.318, 368.6133
1434.367, 564.6719
1435.416, 357.7500
1436.465, 640.8711
1437.514, 592.0312
1438.563, 443.4766
1439.612, 424.7344
1440.661, 400.0195
1441.709, 576.4727
1442.757, 400.6016
1443.805, 570.1250
1444.853, 550.7305
1445.901, 351.2188
1446.949, 590.6562
1447.996, 513.3320
1449.044, 227.6797
1450.091, 423.6914
1451.138, 725.7344
1452.185, 333.8359
1453.232, 190.9062
1454.278, 227.9453
1455.325, 529.9570
1456.371, 373.5977
1457.417, 396.7305
1458.463, 418.9062
1459.509, 330.1836
1460.555, 326.4805
1461.601, 299.3711
1462.646, 230.3594
1463.691, 334.9180
1464.737, 515.1914
1465.782, 224.5156
1466.826, 388.9414
1467.871, 167.6172
1468.916, 641.4492
1469.960, 423.3906
1471.004, 429.3359
1472.048, 162.2852
1473.092, 177.2188
1474.136, 374.1523
1475.180, 213.0859
1476.223, 159.0156
1477.267, 186.9531
1478.310, 422.8945
1479.353, 134.8320
1480.396, 308.7734
1481.439, 491.7227
1482.481, 361.6641
1483.524, 273.6680
1484.566, 346.4297
1485.608, 101.8867
1486.650, 326.1992
1487.692, 555.5938
1488.734, 479.1094
1489.775, 562.1758
1490.817, 120.1953
1491.858, 429.7734
1492.899, 510.3711
1493.940, 372.6172
1494.981, 896.6914
1496.022, 342.4805
1497.062, 94.69531
1498.103, 515.1680
1499.143, 443.0547
1500.183, 517.9648
1501.223, 22.90234
1502.263, 184.8750
1503.302, 263.8594
1504.342, 359.8672
1505.381, 326.8945
1506.420, 138.9258
1507.459, 111.9375
1508.498, 261.9297
1509.537, 295.9531
1510.576, 12.95312
1511.614, 365.2031
1512.652, 339.4258
1513.691, 441.7227
1514.729, 100.1367
1515.767, 193.6602
1516.804, 35.72266
1517.842, 288.0000
1518.879, 326.8164
1519.917, 104.7148
1520.954, 424.6914
1521.991, 43.74609
1523.028, 176.8789
1524.064, 147.1016
1525.101, 215.4102
1526.137, 189.8203
1527.173, 52.33594
1528.210, 253.9531
1529.245, 342.6875
1530.281, 46.51562
1531.317, 139.4531
1532.352, 562.5000
1533.388, 178.6602
1534.423, 269.0000
1535.458, 322.1680
1536.493, 11.67578
1537.528, 206.6914
1538.562, 331.0820
1539.597, 366.5547
1540.631, 46.37500
1541.665, 185.0430
1542.700, 140.5117
1543.733, 88.60156
1544.767, 290.1484
1545.801, 22.46094
1546.834, 223.2617
1547.868, 237.3125
1548.901, 337.1328
1549.934, 251.9023
1550.967, 224.0859
1551.999, 381.8398
1553.032, 437.4727
1554.064, 329.5508
1555.097, 436.7031
1556.129, 164.3984
1557.161, 225.9375
1558.193, 431.4766
1559.224, 334.7969
1560.256, 447.7227
1561.287, 482.8359
1562.318, 162.0000
1563.350, 462.7812
1564.380, 496.5312
1565.411, 256.4062
1566.442, 8.343750
1567.472, 361.2852
1568.503, 497.5469
1569.533, 362.5664
1570.563, 0.0000000E+00
##END=



