##NAMES=Ilvaite
##RRUFFID=R050040
##IDEAL CHEMISTRY=CaFe^2+^_2_Fe^3+^OSi_2_O_7_(OH)
##LOCALITY=Capo Calamita, Isle of Elba, Italy
##OWNER=RRUFF
##SOURCE=University of Arizona Mineral Museum
##DESCRIPTION=Brown fragment
##STATUS=The identification of this mineral has been confirmed by X-ray diffraction and chemical analysis
##URL=rruff.info/R050040
##MEASURED CHEMISTRY=Ca_1.00_(Fe^2+^_1.89_Mn_0.10_Mg_0.01_)_Î£=2_Fe^3+^_1.00_OSi_2.00_O_7_(OH); trace amounts of Al; OH estimated by charge balance
##PIN_ID=M00376
##ORIENTATION=Laser parallel to -a* (-1 0 0). Fiducial mark perpendicular to laser is parallel to -b [0 -1 0]
144.8940, 0.0000000E+00
146.1280, 100.5117
147.3620, 202.6523
148.5960, 261.0078
149.8300, 3.101563
151.0630, 202.9727
152.2960, 241.3477
153.5300, 282.6055
154.7620, 582.9453
155.9950, 424.4375
157.2280, 731.4570
158.4600, 859.8828
159.6920, 1078.031
160.9250, 1116.500
162.1560, 1210.922
163.3880, 1698.418
164.6200, 1766.781
165.8510, 2067.648
167.0820, 2107.043
168.3130, 2407.531
169.5440, 2592.344
170.7750, 2683.207
172.0050, 2303.008
173.2350, 2757.855
174.4650, 2679.922
175.6950, 3047.867
176.9250, 3941.121
178.1550, 3969.688
179.3840, 3894.203
180.6130, 3720.766
181.8420, 4142.406
183.0710, 4318.332
184.3000, 4930.270
185.5280, 5301.242
186.7570, 5555.301
187.9850, 6040.930
189.2130, 6344.469
190.4400, 6736.840
191.6680, 7210.516
192.8960, 7519.227
194.1230, 8200.844
195.3500, 8492.883
196.5770, 8758.273
197.8030, 9102.230
199.0300, 9726.242
200.2560, 10068.02
201.4830, 10074.48
202.7090, 9152.730
203.9340, 7059.555
205.1600, 5246.738
206.3860, 4471.898
207.6110, 3977.812
208.8360, 3804.926
210.0610, 3291.559
211.2860, 3212.156
212.5100, 3303.598
213.7350, 2938.480
214.9590, 1812.391
216.1830, 1724.941
217.4070, 1158.859
218.6310, 1012.727
219.8540, 997.2383
221.0780, 530.0039
222.3010, 670.4922
223.5240, 414.5547
224.7470, 161.6836
225.9690, 225.9844
227.1920, 563.2930
228.4140, 113.7578
229.6360, 386.9375
230.8580, 201.8086
232.0800, 225.9688
233.3020, 362.2539
234.5230, 212.6992
235.7440, 453.2617
236.9650, 270.9180
238.1860, 40.37109
239.4070, 48.35938
240.6280, 41.07031
241.8480, 30.73438
243.0680, 37.06641
244.2880, 93.65234
245.5080, 247.8984
246.7280, 254.7930
247.9470, 337.9023
249.1660, 400.2344
250.3860, 440.4844
251.6040, 566.2227
252.8230, 282.1797
254.0420, 90.94531
255.2600, 12.33984
256.4790, 234.6523
257.6970, 28.48047
258.9150, 1.003906
260.1320, 20.23047
261.3500, 292.5586
262.5670, 103.8203
263.7840, 373.9219
265.0010, 327.9727
266.2180, 463.2969
267.4350, 495.7656
268.6510, 681.4180
269.8680, 1143.895
271.0840, 1018.215
272.3000, 1201.234
273.5160, 1212.086
274.7310, 1674.195
275.9470, 2031.320
277.1620, 1897.215
278.3770, 1458.133
279.5920, 1520.930
280.8070, 1571.004
282.0210, 1408.500
283.2360, 1155.418
284.4500, 1121.316
285.6640, 1001.660
286.8780, 1436.043
288.0920, 677.8516
289.3050, 1016.617
290.5180, 414.3203
291.7320, 536.8477
292.9450, 598.9609
294.1570, 476.2070
295.3700, 731.3867
296.5830, 342.3477
297.7950, 633.0352
299.0070, 626.3672
300.2190, 473.2969
301.4310, 410.7812
302.6420, 318.7930
303.8540, 431.3047
305.0650, 592.2930
306.2760, 614.7383
307.4870, 775.6289
308.6980, 575.9648
309.9080, 740.7461
311.1190, 872.9648
312.3290, 685.6094
313.5390, 837.6562
314.7490, 1364.117
315.9580, 1190.980
317.1680, 1650.227
318.3770, 1476.801
319.5860, 2131.711
320.7950, 2367.973
322.0040, 2682.617
323.2130, 2981.684
324.4210, 3322.500
325.6290, 3689.227
326.8380, 4000.734
328.0460, 4310.703
329.2530, 4536.008
330.4610, 4770.641
331.6680, 4931.516
332.8760, 5051.719
334.0830, 4935.281
335.2890, 4340.270
336.4960, 4083.711
337.7030, 3927.461
338.9090, 3591.543
340.1150, 3320.355
341.3210, 2983.391
342.5270, 2698.820
343.7330, 2474.070
344.9380, 2206.207
346.1440, 1923.812
347.3490, 1971.801
348.5540, 1434.379
349.7590, 1706.699
350.9630, 1625.801
352.1680, 1419.727
353.3720, 1301.527
354.5760, 1661.223
355.7800, 1620.840
356.9840, 1638.402
358.1870, 1424.898
359.3910, 1581.336
360.5940, 1604.844
361.7970, 1393.969
363.0000, 1760.676
364.2030, 1507.699
365.4050, 1348.594
366.6080, 1421.422
367.8100, 1254.637
369.0120, 947.0312
370.2140, 886.0703
371.4150, 708.2656
372.6170, 658.2188
373.8180, 559.8828
375.0190, 589.9453
376.2200, 691.7383
377.4210, 356.1875
378.6220, 116.0195
379.8220, 354.3359
381.0230, 276.3555
382.2230, 519.9062
383.4230, 346.6484
384.6220, 43.90234
385.8220, 185.9609
387.0220, 121.6680
388.2210, 203.3945
389.4200, 50.80859
390.6190, 176.7539
391.8180, 125.4219
393.0160, 48.89844
394.2150, 96.03516
395.4130, 314.6289
396.6110, 149.5000
397.8090, 134.3633
399.0060, 37.39844
400.2040, 62.06641
401.4010, 138.4219
402.5980, 36.12500
403.7950, 197.1992
404.9920, 110.9688
406.1890, 375.8242
407.3860, 311.8516
408.5820, 409.5742
409.7780, 191.9062
410.9740, 386.3594
412.1700, 393.0820
413.3650, 623.2109
414.5610, 548.2461
415.7560, 363.7539
416.9510, 386.0273
418.1460, 721.3477
419.3410, 623.2891
420.5360, 786.1953
421.7300, 1024.086
422.9240, 1173.523
424.1180, 1267.262
425.3120, 1210.113
426.5060, 1389.445
427.7000, 1399.766
428.8930, 1522.973
430.0860, 1510.719
431.2790, 1512.320
432.4720, 1487.785
433.6650, 1527.703
434.8580, 1630.887
436.0500, 1511.699
437.2420, 1278.633
438.4340, 1477.914
439.6260, 1231.117
440.8180, 1168.062
442.0090, 1156.609
443.2010, 1355.043
444.3920, 1208.711
445.5830, 1320.746
446.7740, 1590.883
447.9640, 1509.871
449.1550, 1662.742
450.3450, 1776.355
451.5350, 1783.723
452.7250, 1695.188
453.9150, 1741.262
455.1050, 1471.793
456.2940, 1541.438
457.4830, 1677.617
458.6720, 1586.969
459.8610, 1804.527
461.0500, 1875.301
462.2390, 1731.938
463.4270, 1678.574
464.6150, 1529.121
465.8040, 1915.613
466.9910, 2072.051
468.1790, 2043.402
469.3670, 1729.711
470.5540, 2051.980
471.7410, 1971.164
472.9280, 2183.277
474.1150, 2102.340
475.3020, 2518.422
476.4890, 2632.465
477.6750, 2560.438
478.8610, 2567.344
480.0470, 2753.262
481.2330, 2734.152
482.4190, 3098.047
483.6040, 3093.938
484.7900, 3413.273
485.9750, 3511.043
487.1600, 3603.805
488.3450, 3958.531
489.5290, 4114.223
490.7140, 4736.883
491.8980, 4616.516
493.0820, 5070.309
494.2660, 5379.887
495.4500, 5491.430
496.6340, 6093.309
497.8170, 6237.883
499.0010, 6321.781
500.1840, 6681.008
501.3670, 6476.449
502.5500, 6814.867
503.7320, 6453.262
504.9150, 6527.398
506.0970, 6324.016
507.2790, 6154.422
508.4610, 6273.000
509.6430, 5970.359
510.8250, 5614.887
512.0060, 5787.449
513.1870, 5654.035
514.3680, 5380.719
515.5490, 5393.969
516.7300, 5226.926
517.9110, 5121.176
519.0910, 5106.652
520.2710, 4956.680
521.4510, 5086.363
522.6310, 5087.051
523.8110, 4892.930
524.9910, 5139.523
526.1700, 5199.516
527.3490, 5221.355
528.5280, 5498.938
529.7070, 5108.305
530.8860, 5195.430
532.0650, 4809.195
533.2430, 5102.613
534.4210, 5111.824
535.5990, 4959.715
536.7770, 4971.910
537.9550, 4952.449
539.1320, 4952.590
540.3100, 4808.637
541.4870, 4807.406
542.6640, 4718.883
543.8410, 4734.031
545.0170, 4620.914
546.1940, 4627.727
547.3700, 4705.633
548.5470, 4476.469
549.7230, 4420.535
550.8980, 4203.039
552.0740, 4097.672
553.2500, 4239.137
554.4250, 4186.656
555.6000, 4045.898
556.7750, 3954.086
557.9500, 3696.512
559.1250, 3641.043
560.2990, 3553.195
561.4730, 3483.324
562.6480, 3480.422
563.8220, 3158.488
564.9950, 3139.523
566.1690, 3096.441
567.3430, 3120.508
568.5160, 3110.461
569.6890, 3091.492
570.8620, 3312.277
572.0350, 3092.156
573.2070, 3011.996
574.3800, 3070.824
575.5520, 3348.625
576.7240, 3200.414
577.8960, 3159.188
579.0680, 3122.938
580.2400, 3160.898
581.4110, 3112.570
582.5830, 2924.422
583.7540, 2844.469
584.9250, 2757.746
586.0950, 2643.074
587.2660, 2552.691
588.4370, 2406.105
589.6070, 2118.840
590.7770, 1875.230
591.9470, 1774.070
593.1170, 1500.836
594.2860, 1600.031
595.4560, 1146.906
596.6250, 1066.332
597.7940, 900.4297
598.9630, 1086.211
600.1320, 1102.531
601.3000, 1157.531
602.4690, 1151.344
603.6370, 731.2461
604.8050, 921.5312
605.9730, 809.7070
607.1410, 1125.742
608.3090, 734.9141
609.4760, 780.2617
610.6430, 542.3359
611.8100, 367.5234
612.9770, 644.1055
614.1440, 437.9688
615.3110, 348.4141
616.4770, 642.6523
617.6430, 598.7695
618.8090, 621.0938
619.9750, 805.8711
621.1410, 487.9609
622.3070, 680.4102
623.4720, 366.1562
624.6370, 249.0938
625.8020, 836.7734
626.9670, 531.6680
628.1320, 788.0859
629.2970, 449.6562
630.4610, 591.3203
631.6250, 436.8672
632.7890, 341.3086
633.9530, 547.7422
635.1170, 461.9492
636.2810, 251.2383
637.4440, 381.4180
638.6070, 296.4883
639.7700, 212.0391
640.9330, 411.9023
642.0960, 519.2500
643.2590, 538.8164
644.4210, 208.3242
645.5830, 329.7656
646.7450, 270.0195
647.9070, 202.8086
649.0690, 387.7070
650.2310, 107.8711
651.3920, 288.6914
652.5530, 244.3125
653.7140, 62.05469
654.8750, 366.5117
656.0360, 164.1406
657.1970, 35.05859
658.3570, 275.2070
659.5170, 191.3125
660.6770, 238.0977
661.8370, 61.40625
662.9970, 13.38672
664.1570, 36.31250
665.3160, 188.8164
666.4750, 65.10938
667.6340, 187.4883
668.7930, 48.96094
669.9520, 284.6367
671.1110, 190.4492
672.2690, 223.5742
673.4270, 230.4492
674.5850, 1.664063
675.7430, 61.94531
676.9010, 135.6680
678.0590, 159.2266
679.2160, 224.7266
680.3730, 65.17578
681.5300, 160.5664
682.6870, 187.9102
683.8440, 165.1953
685.0010, 262.4297
686.1570, 174.6016
687.3130, 223.7227
688.4690, 411.7773
689.6250, 549.7852
690.7810, 400.7344
691.9370, 676.6289
693.0920, 684.4648
694.2470, 1186.242
695.4020, 1057.969
696.5570, 1052.629
697.7120, 1628.230
698.8670, 1703.777
700.0210, 2200.270
701.1750, 2269.695
702.3290, 2599.059
703.4830, 2353.367
704.6370, 2440.613
705.7910, 2076.801
706.9440, 1992.934
708.0970, 1387.000
709.2510, 1427.008
710.4030, 1284.961
711.5560, 802.8555
712.7090, 669.6914
713.8610, 647.4648
715.0140, 591.1797
716.1660, 312.8398
717.3180, 344.4375
718.4690, 247.9766
719.6210, 100.5430
720.7730, 259.7891
721.9240, 154.9414
723.0750, 18.15234
724.2260, 127.1602
725.3770, 31.10547
726.5270, 67.03125
727.6780, 152.2930
728.8280, 163.4297
729.9780, 171.3320
731.1280, 139.1445
732.2780, 83.10938
733.4280, 31.21094
734.5770, 59.57812
735.7260, 35.30078
736.8760, 224.0430
738.0250, 74.60547
739.1730, 198.2930
740.3220, 35.82812
741.4700, 120.1250
742.6190, 300.7695
743.7670, 92.38672
744.9150, 66.68359
746.0630, 285.9023
747.2100, 103.5664
748.3580, 85.17188
749.5050, 169.0938
750.6520, 60.30469
751.7990, 21.54297
752.9460, 337.4844
754.0930, 14.67969
755.2390, 114.0391
756.3860, 50.70312
757.5320, 207.6992
758.6780, 87.27734
759.8240, 190.9766
760.9690, 126.1562
762.1150, 64.17969
763.2600, 39.33984
764.4060, 90.40234
765.5510, 55.41797
766.6950, 87.18359
767.8400, 47.90234
768.9850, 58.56641
770.1290, 69.17969
771.2730, 54.68359
772.4170, 98.07812
773.5610, 55.54688
774.7050, 106.1797
775.8480, 127.1211
776.9920, 267.4727
778.1350, 319.7812
779.2780, 22.77734
780.4210, 177.7070
781.5640, 151.4609
782.7060, 116.9492
783.8490, 335.1094
784.9910, 88.25781
786.1330, 301.7734
787.2750, 332.1367
788.4170, 445.4453
789.5580, 377.1914
790.7000, 365.0234
791.8410, 534.3516
792.9820, 603.9570
794.1230, 502.6641
795.2640, 620.7617
796.4040, 367.1289
797.5450, 440.1719
798.6850, 654.4453
799.8250, 573.0664
800.9650, 693.9492
802.1050, 407.5938
803.2450, 616.5234
804.3840, 750.1250
805.5230, 780.9492
806.6630, 854.8125
807.8020, 733.3711
808.9400, 931.7656
810.0790, 1301.289
811.2170, 1185.035
812.3560, 1368.074
813.4940, 1659.273
814.6320, 1776.359
815.7700, 1440.520
816.9070, 1846.945
818.0450, 1872.691
819.1820, 1676.820
820.3190, 1873.055
821.4560, 1521.176
822.5930, 1409.695
823.7300, 1165.840
824.8670, 1273.180
826.0030, 1053.066
827.1390, 921.5039
828.2750, 1059.789
829.4110, 646.6328
830.5470, 680.4570
831.6820, 683.2695
832.8180, 557.0742
833.9530, 569.8555
835.0880, 525.7148
836.2230, 516.9219
837.3580, 493.1523
838.4920, 566.8984
839.6270, 597.6328
840.7610, 672.2227
841.8950, 717.0781
843.0290, 730.7852
844.1630, 779.7891
845.2960, 780.9922
846.4300, 795.8750
847.5630, 806.5586
848.6960, 727.2344
849.8290, 777.9141
850.9620, 824.9531
852.0940, 841.2500
853.2270, 991.9180
854.3590, 1028.582
855.4910, 1118.027
856.6230, 1145.738
857.7550, 1154.258
858.8870, 1284.570
860.0180, 982.6328
861.1500, 1335.637
862.2810, 1390.344
863.4120, 1175.246
864.5430, 1008.820
865.6730, 907.7305
866.8040, 1174.180
867.9340, 956.6914
869.0640, 1084.766
870.1940, 1209.148
871.3240, 901.9688
872.4540, 1065.109
873.5830, 1181.562
874.7130, 1126.457
875.8420, 1183.660
876.9710, 1157.035
878.1000, 1027.301
879.2290, 904.1719
880.3570, 1309.348
881.4860, 1250.223
882.6140, 1048.164
883.7420, 969.3906
884.8700, 1172.984
885.9980, 1291.879
887.1250, 1322.746
888.2530, 1000.301
889.3800, 1110.246
890.5070, 1059.258
891.6340, 1003.938
892.7610, 1200.605
893.8880, 918.1094
895.0140, 1103.996
896.1400, 1099.602
897.2670, 1193.105
898.3930, 1104.125
899.5180, 1067.695
900.6440, 752.2500
901.7700, 951.5859
902.8950, 1058.535
904.0200, 1077.781
905.1450, 747.0977
906.2700, 868.5273
907.3950, 808.8281
908.5190, 741.9219
909.6440, 927.1133
910.7680, 640.7148
911.8920, 822.1094
913.0160, 819.6602
914.1400, 901.4141
915.2630, 800.8438
916.3870, 756.7305
917.5100, 894.9844
918.6330, 932.3320
919.7560, 811.0938
920.8790, 898.4883
922.0010, 613.2695
923.1240, 655.1250
924.2460, 838.1719
925.3680, 726.3867
926.4900, 817.4609
927.6120, 832.7070
928.7340, 791.3242
929.8550, 844.3945
930.9760, 844.4336
932.0980, 750.5312
933.2190, 878.2734
934.3390, 1078.730
935.4600, 1186.656
936.5810, 1207.031
937.7010, 877.4570
938.8210, 999.9805
939.9410, 941.4492
941.0610, 875.6406
942.1810, 1062.086
943.3010, 783.9727
944.4200, 966.7266
945.5390, 965.6602
946.6580, 1048.953
947.7770, 839.3984
948.8960, 795.2773
950.0150, 856.9062
951.1330, 784.5977
952.2510, 786.3477
953.3690, 1049.160
954.4870, 845.0664
955.6050, 722.1133
956.7230, 1110.215
957.8400, 1004.398
958.9580, 943.6445
960.0750, 1066.953
961.1920, 1009.367
962.3090, 1319.844
963.4250, 1362.398
964.5420, 1693.027
965.6580, 1334.746
966.7740, 1184.547
967.8900, 1709.410
969.0060, 1748.332
970.1220, 2022.320
971.2380, 2226.367
972.3530, 2685.492
973.4680, 2210.680
974.5830, 2519.934
975.6980, 2547.246
976.8130, 3036.621
977.9280, 2887.062
979.0420, 3224.562
980.1560, 3538.125
981.2710, 3470.789
982.3850, 3796.520
983.4980, 3762.094
984.6120, 3495.555
985.7260, 3729.105
986.8390, 2969.113
987.9520, 2869.180
989.0650, 2971.305
990.1780, 2665.504
991.2910, 2558.801
992.4030, 2039.172
993.5160, 2330.664
994.6280, 1831.234
995.7400, 1608.867
996.8520, 1924.582
997.9640, 1455.422
999.0750, 1445.379
1000.187, 1417.492
1001.298, 1344.734
1002.409, 1259.090
1003.520, 1134.656
1004.631, 751.1367
1005.741, 842.8086
1006.852, 633.3320
1007.962, 828.3828
1009.072, 930.9492
1010.182, 946.0391
1011.292, 612.6016
1012.402, 729.8477
1013.511, 666.0195
1014.621, 594.8477
1015.730, 775.9883
1016.839, 492.5000
1017.948, 669.8125
1019.056, 666.5977
1020.165, 744.3477
1021.273, 639.9062
1022.382, 591.8438
1023.490, 726.2656
1024.598, 759.8125
1025.706, 636.0039
1026.813, 475.4453
1027.921, 405.7812
1029.028, 572.5039
1030.135, 769.6914
1031.242, 1012.586
1032.349, 705.5352
1033.456, 455.5703
1034.562, 628.6992
1035.668, 613.8867
1036.775, 690.1367
1037.881, 689.6094
1038.987, 759.6797
1040.092, 647.1133
1041.198, 678.6055
1042.303, 684.1602
1043.408, 530.7734
1044.514, 666.4688
1045.618, 726.1289
1046.723, 809.9453
1047.828, 521.8242
1048.932, 693.7578
1050.037, 763.7422
1051.141, 913.7930
1052.245, 1024.895
1053.349, 778.0547
1054.452, 675.2734
1055.556, 1055.629
1056.659, 793.8359
1057.762, 765.2148
1058.865, 745.5039
1059.968, 705.9883
1061.071, 698.5273
1062.174, 657.5391
1063.276, 768.6367
1064.378, 693.3320
1065.480, 731.0781
1066.582, 999.8711
1067.684, 876.5898
1068.786, 1013.246
1069.887, 909.1836
1070.988, 861.3008
1072.090, 1028.332
1073.191, 809.0898
1074.291, 693.4922
1075.392, 941.6602
1076.493, 781.2656
1077.593, 963.3203
1078.693, 1192.445
1079.793, 848.2930
1080.893, 759.6719
1081.993, 742.0898
1083.092, 795.5430
1084.192, 715.0430
1085.291, 630.5781
1086.390, 762.9453
1087.489, 839.2461
1088.588, 786.8945
1089.686, 820.4922
1090.785, 694.2109
1091.883, 706.5703
1092.981, 651.6367
1094.079, 455.4531
1095.177, 693.4141
1096.275, 847.7852
1097.373, 815.2500
1098.470, 699.1797
1099.567, 905.1562
1100.664, 593.1602
1101.761, 701.1875
1102.858, 550.5078
1103.954, 757.7969
1105.051, 870.4727
1106.147, 894.1523
1107.243, 567.8438
1108.339, 693.5625
1109.435, 638.1484
1110.531, 575.5156
1111.626, 764.9336
1112.722, 498.5938
1113.817, 684.0469
1114.912, 686.1602
1116.007, 772.8438
1117.101, 677.4453
1118.196, 639.5039
1119.290, 781.6992
1120.385, 822.9492
1121.479, 705.6055
1122.573, 796.8594
1123.666, 515.4766
1124.760, 561.1172
1125.853, 748.7266
1126.947, 640.6328
1128.040, 735.3281
1129.133, 759.3359
1130.226, 425.8984
1131.318, 708.4648
1132.411, 721.4336
1133.503, 463.4219
1134.596, 496.0859
1135.688, 471.2344
1136.780, 371.2422
1137.871, 345.9453
1138.963, 207.6641
1140.054, 120.3906
1141.146, 363.1250
1142.237, 78.22656
1143.328, 426.5117
1144.419, 205.7773
1145.509, 378.5234
1146.600, 54.80469
1147.690, 133.6953
1148.780, 441.4609
1149.870, 122.7695
1150.960, 446.5703
1152.050, 297.3125
1153.139, 87.05859
1154.229, 199.8047
1155.318, 58.55469
1156.407, 57.55078
1157.496, 31.92188
1158.585, 97.80078
1159.674, 0.6132810
1160.762, 59.68750
1161.850, 160.7031
1162.939, 269.3789
1164.027, 663.2383
1165.114, 112.9062
1166.202, 371.6680
1167.290, 236.3242
1168.377, 14.02344
1169.464, 79.37500
1170.551, 159.2422
1171.638, 188.8555
1172.725, 216.4570
1173.812, 165.4961
1174.898, 270.6367
1175.984, 30.78125
1177.071, 199.7773
1178.157, 275.3203
1179.242, 462.8555
1180.328, 184.3828
1181.414, 324.8984
1182.499, 326.0547
1183.584, 87.74609
1184.669, 380.7539
1185.754, 63.78125
1186.839, 113.3555
1187.924, 347.9961
1189.008, 157.6641
1190.092, 128.5820
1191.177, 133.8125
1192.260, 277.9688
1193.344, 342.9180
1194.428, 35.94141
1195.512, 153.7812
1196.595, 90.61328
1197.678, 351.4180
1198.761, 16.79297
1199.844, 39.96094
1200.927, 17.69922
1202.009, 67.41016
1203.092, 79.89062
1204.174, 2.265625
1205.256, 169.3281
1206.338, 165.1016
1207.420, 25.64844
1208.502, 200.2383
1209.583, 49.97656
1210.665, 307.2227
1211.746, 269.3984
1212.827, 131.5586
1213.908, 190.6914
1214.988, 177.8047
1216.069, 76.10547
1217.149, 248.0977
1218.230, 178.7305
1219.310, 25.46094
1220.390, 174.2891
1221.470, 39.01953
1222.549, 122.2852
1223.629, 278.2930
1224.708, 21.15234
1225.787, 9.660156
1226.866, 57.22656
1227.945, 30.87500
1229.024, 457.4023
1230.103, 313.6562
1231.181, 191.8828
1232.259, 463.0898
1233.337, 0.2617190
1234.415, 40.38281
1235.493, 113.6172
1236.571, 124.5078
1237.648, 173.5273
1238.726, 283.5195
1239.803, 90.48828
1240.880, 160.4258
1241.957, 77.66016
1243.034, 234.1445
1244.110, 83.32812
1245.187, 71.66016
1246.263, 69.36719
1247.339, 41.04688
1248.415, 171.6797
1249.491, 212.2852
1250.566, 175.8594
1251.642, 257.4023
1252.717, 240.9219
1253.793, 322.4102
1254.868, 90.87109
1255.943, 183.2930
1257.017, 171.6836
1258.092, 23.95312
1259.166, 257.3242
1260.241, 8.429688
1261.315, 477.7344
1262.389, 540.8672
1263.462, 19.97656
1264.536, 211.0273
1265.610, 37.94922
1266.683, 327.9727
1267.756, 188.8711
1268.829, 199.7383
1269.902, 203.5703
1270.975, 112.3750
1272.048, 212.7070
1273.120, 131.4453
1274.192, 307.1445
1275.264, 63.81641
1276.336, 160.4336
1277.408, 329.0156
1278.480, 574.5625
1279.551, 91.81250
1280.623, 459.2930
1281.694, 396.7422
1282.765, 220.1602
1283.836, 497.5586
1284.907, 4.085938
1285.977, 338.0039
1287.048, 618.7148
1288.118, 479.1523
1289.188, 471.2734
1290.258, 18.00391
1291.328, 399.0664
1292.398, 170.0898
1293.467, 292.0820
1294.537, 184.0391
1295.606, 368.9648
1296.675, 648.8555
1297.744, 436.5469
1298.813, 503.7656
1299.882, 638.5508
1300.950, 481.9023
1302.018, 260.0156
1303.086, 395.6914
1304.155, 460.3398
1305.222, 528.0664
1306.290, 516.6328
1307.358, 640.1797
1308.425, 292.6953
1309.492, 509.1719
1310.559, 168.6211
1311.626, 577.0312
1312.693, 569.4102
1313.760, 1090.758
1314.826, 587.9922
1315.893, 381.3945
1316.959, 723.6484
1318.025, 493.0234
1319.091, 364.2148
1320.157, 622.3867
1321.222, 445.6953
1322.288, 528.7656
1323.353, 361.8477
1324.418, 674.9023
1325.483, 559.9297
1326.548, 454.9336
1327.612, 552.2656
1328.677, 196.2148
1329.741, 627.0078
1330.806, 424.9062
1331.870, 615.1016
1332.934, 685.6719
1333.997, 605.4961
1335.061, 463.9023
1336.124, 485.8750
1337.188, 573.7930
1338.251, 584.0078
1339.314, 691.7070
1340.377, 676.3906
1341.439, 687.0469
1342.502, 295.6875
1343.564, 507.3008
1344.627, 396.0977
1345.689, 259.9766
1346.751, 517.5273
1347.813, 413.1445
1348.874, 553.6602
1349.936, 424.5469
1350.997, 291.7422
1352.058, 543.2031
1353.119, 506.5312
1354.180, 568.4688
1355.241, 602.3008
1356.301, 627.7305
1357.362, 627.7578
1358.422, 659.4727
1359.482, 656.8047
1360.542, 525.1172
1361.602, 661.9766
1362.662, 489.8594
1363.721, 479.1289
1364.781, 521.3906
1365.840, 346.6445
1366.899, 357.9883
1367.958, 378.8047
1369.017, 447.2578
1370.075, 514.5312
1371.134, 416.7383
1372.192, 605.4023
1373.250, 335.6719
1374.308, 635.6172
1375.366, 904.5898
1376.424, 507.7539
1377.481, 402.9219
1378.539, 525.0781
1379.596, 821.2305
1380.653, 610.6211
1381.710, 480.6953
1382.767, 518.0078
1383.824, 175.1523
1384.880, 395.3008
1385.937, 495.9258
1386.993, 596.0781
1388.049, 379.5938
1389.105, 550.7578
1390.161, 263.2852
1391.216, 339.9375
1392.272, 464.1211
1393.327, 621.4414
1394.382, 340.5312
1395.437, 632.6328
1396.492, 255.7383
1397.547, 415.8477
1398.601, 391.2148
1399.656, 735.3594
1400.710, 526.9844
1401.764, 494.9844
1402.818, 464.4570
1403.872, 426.3164
1404.925, 324.3164
1405.979, 348.5273
1407.032, 355.1445
1408.085, 417.0898
1409.139, 359.2109
1410.191, 517.9258
1411.244, 332.0000
1412.297, 509.4492
1413.349, 339.0312
1414.402, 597.7461
1415.454, 393.0156
1416.506, 414.3203
1417.558, 449.6797
1418.609, 336.9844
1419.661, 413.2461
1420.712, 362.4648
1421.764, 624.6289
1422.815, 309.7500
1423.866, 49.17969
1424.916, 530.3984
1425.967, 112.3594
1427.018, 129.3359
1428.068, 392.3359
1429.118, 269.3359
1430.168, 553.5625
1431.218, 535.8555
1432.268, 352.1016
1433.318, 394.3359
1434.367, 381.5195
1435.416, 657.7461
1436.465, 215.0039
1437.514, 128.3945
1438.563, 475.8828
1439.612, 164.3359
1440.661, 548.7617
1441.709, 197.3359
1442.757, 178.0117
1443.805, 245.6836
1444.853, 58.45703
1445.901, 439.2891
1446.949, 416.2344
1447.996, 387.1992
1449.044, 292.1523
1450.091, 480.1445
1451.138, 656.1328
1452.185, 343.1055
1453.232, 225.0742
1454.278, 253.7305
1455.325, 189.6445
1456.371, 343.2852
1457.417, 247.3516
1458.463, 558.4141
1459.509, 466.4609
1460.555, 495.5156
1461.601, 160.6094
1462.646, 365.7852
1463.691, 383.9922
1464.737, 463.2148
1465.782, 358.5586
1466.826, 568.8984
1467.871, 460.2422
1468.916, 507.6055
1469.960, 151.9883
1471.004, 309.4023
1472.048, 227.8359
1473.092, 480.2773
1474.136, 187.7148
1475.180, 245.2930
1476.223, 349.9883
1477.267, 558.7344
1478.310, 385.5195
1479.353, 279.3594
1480.396, 750.5625
1481.439, 25.44922
1482.481, 599.3945
1483.524, 271.4102
1484.566, 345.4961
1485.608, 597.6445
1486.650, 281.8711
1487.692, 553.1719
1488.734, 591.5391
1489.775, 176.9805
1490.817, 468.4961
1491.858, 36.07812
1492.899, 272.7305
1493.940, 303.4492
1494.981, 488.2422
1496.022, 512.1211
1497.062, 166.0781
1498.103, 234.1289
1499.143, 81.72656
1500.183, 171.5156
1501.223, 263.8594
1502.263, 158.3125
1503.302, 251.8789
1504.342, 210.5742
1505.381, 460.4062
1506.420, 52.36328
1507.459, 324.4609
1508.498, 624.8086
1509.537, 244.9688
1510.576, 180.7461
1511.614, 314.7188
1512.652, 108.8945
1513.691, 453.2891
1514.729, 36.32031
1515.767, 38.83203
1516.804, 138.2930
1517.842, 212.6133
1518.879, 205.0859
1519.917, 189.1055
1520.954, 193.5703
1521.991, 238.7344
1523.028, 103.3477
1524.064, 574.0117
1525.101, 256.4219
1526.137, 649.7812
1527.173, 159.1406
1528.210, 416.2305
1529.245, 420.4023
1530.281, 376.7422
1531.317, 117.2656
1532.352, 105.5273
1533.388, 156.8164
1534.423, 1.406250
1535.458, 0.0000000E+00
##END=



