##NAMES=Inderite
##RRUFFID=R050195
##IDEAL CHEMISTRY=MgB_3_O_3_(OH)_5_&#183;5H_2_O
##LOCALITY=Boron, Kern County, California, USA
##OWNER=RRUFF
##SOURCE=Dave Bunk Minerals
##DESCRIPTION=Colorless prismatic crystal
##STATUS=The identification of this mineral has been confirmed by X-ray diffraction and chemical analysis
##URL=rruff.info/R050195
##MEASURED CHEMISTRY=Mg_1.00_B_3.00_O_3_(OH)_5_Â·5H_2_O ; Mg measured, only
##PIN_ID=L00488
##ORIENTATION=Laser parallel to a* (1 0 0). Fiducial mark perpendicular to laser is parallel to b [0 1 0]
102.428, 0.000
103.820, 177.242
105.212, 1017.994
106.604, 2120.980
107.995, 3205.268
109.387, 2551.193
110.777, 2663.369
112.168, 2423.154
113.559, 2273.771
114.949, 2072.738
116.339, 1765.422
117.729, 1510.904
119.119, 447.629
120.508, 1751.756
121.897, 3266.750
123.286, 6195.018
124.675, 8581.227
126.063, 9384.393
127.452, 10145.105
128.840, 9258.350
130.228, 8481.602
131.615, 5951.936
133.003, 3690.592
134.390, 1780.637
135.777, 678.348
137.164, 375.533
138.550, 102.709
139.937, 122.715
141.323, 21.064
142.709, 332.180
144.094, 734.676
145.480, 1260.279
146.865, 2577.143
148.250, 3681.301
149.635, 5303.625
151.019, 5475.398
152.403, 5058.871
153.788, 4690.260
155.171, 4334.756
156.555, 3928.523
157.939, 2664.809
159.322, 2805.641
160.705, 2839.602
162.088, 3794.182
163.470, 5192.777
164.853, 6355.723
166.235, 8809.305
167.617, 9926.219
168.998, 11483.547
170.380, 10496.316
171.761, 9239.574
173.142, 7412.367
174.523, 5535.734
175.904, 4624.684
177.284, 3398.242
178.664, 3376.430
180.044, 3386.318
181.424, 4329.906
182.803, 5891.648
184.183, 7160.328
185.562, 9076.045
186.940, 10118.555
188.319, 11939.064
189.698, 13202.846
191.076, 14151.412
192.454, 15424.037
193.831, 14075.051
195.209, 13085.443
196.586, 10126.197
197.963, 8311.297
199.340, 6034.730
200.717, 4339.477
202.093, 3299.514
203.470, 2049.814
204.846, 1701.363
206.221, 781.148
207.597, 600.152
208.972, 382.354
210.347, 252.734
211.722, 211.281
213.097, 110.098
214.472, 201.809
215.846, 49.752
217.220, 50.773
218.594, 46.863
219.967, 59.982
221.341, 69.770
222.714, 339.504
224.087, 105.188
225.460, 216.834
226.832, 218.475
228.204, 70.863
229.577, 230.156
230.948, 834.408
232.320, 1060.619
233.692, 1505.791
235.063, 2058.924
236.434, 2390.035
237.805, 3002.145
239.175, 2685.467
240.545, 2701.990
241.916, 2187.762
243.286, 2078.719
244.655, 2227.770
246.025, 1941.557
247.394, 2023.109
248.763, 1604.752
250.132, 1647.438
251.501, 955.084
252.869, 696.688
254.237, 453.248
255.605, 179.770
256.973, 101.250
258.340, 229.311
259.708, 152.910
261.075, 341.547
262.442, 175.246
263.808, 149.281
265.175, 633.777
266.541, 456.746
267.907, 630.518
269.273, 572.211
270.639, 619.139
272.004, 602.920
273.369, 116.916
274.734, 334.238
276.099, 125.887
277.463, 69.559
278.828, 306.281
280.192, 666.396
281.556, 528.723
282.919, 1126.207
284.283, 1187.805
285.646, 1467.441
287.009, 1905.125
288.372, 2217.830
289.734, 2942.525
291.097, 3513.195
292.459, 4516.820
293.821, 5494.385
295.183, 6992.883
296.544, 8433.297
297.905, 9709.590
299.266, 11401.730
300.627, 11094.723
301.988, 11631.578
303.348, 10678.559
304.709, 9532.152
306.069, 8175.619
307.428, 6930.947
308.788, 6435.100
310.147, 5457.045
311.507, 5449.773
312.865, 4974.301
314.224, 4841.633
315.583, 4862.789
316.941, 4190.773
318.299, 4087.598
319.657, 3206.271
321.015, 2812.797
322.372, 2145.146
323.729, 1416.289
325.086, 1489.164
326.443, 1055.613
327.800, 1004.441
329.156, 902.672
330.512, 803.781
331.868, 1080.818
333.224, 915.785
334.579, 1563.689
335.935, 1565.529
337.290, 2093.311
338.645, 2716.033
339.999, 3157.697
341.354, 4141.305
342.708, 4806.861
344.062, 5564.322
345.416, 6006.359
346.769, 6056.910
348.123, 6439.855
349.476, 5720.055
350.829, 5856.479
352.182, 5378.379
353.534, 5536.016
354.887, 5466.547
356.239, 5323.088
357.591, 5510.639
358.942, 5033.195
360.294, 5352.760
361.645, 4743.326
362.996, 4664.900
364.347, 4778.475
365.698, 3950.051
367.048, 4462.629
368.398, 4039.924
369.748, 4039.344
371.098, 4128.922
372.448, 3899.770
373.797, 4351.344
375.146, 4326.762
376.495, 4927.760
377.844, 4910.238
379.192, 5268.646
380.540, 5598.164
381.889, 5698.270
383.236, 6339.611
384.584, 6196.613
385.932, 6516.051
387.279, 6924.262
388.626, 6734.879
389.973, 7143.242
391.319, 6848.436
392.666, 7253.258
394.012, 7003.012
395.358, 6768.455
396.704, 6550.891
398.049, 5861.574
399.394, 5697.986
400.740, 5032.393
402.084, 5148.785
403.429, 5028.166
404.774, 4705.531
406.118, 5216.885
407.462, 4883.221
408.806, 5284.545
410.150, 5806.857
411.493, 6069.154
412.836, 6984.438
414.179, 7470.709
415.522, 8634.967
416.865, 9468.215
418.207, 10955.215
419.549, 12679.801
420.891, 13280.602
422.233, 14431.172
423.575, 13733.887
424.916, 13196.021
426.257, 12244.781
427.598, 9930.139
428.939, 9016.633
430.279, 7307.203
431.619, 6571.344
432.959, 5829.391
434.299, 5346.289
435.639, 5522.492
436.978, 5064.846
438.318, 5918.361
439.657, 6508.871
440.996, 6844.809
442.334, 7124.711
443.673, 6421.574
445.011, 6008.396
446.349, 4816.184
447.687, 4047.928
449.024, 3419.631
450.361, 2647.295
451.699, 2201.922
453.036, 1909.504
454.372, 1421.047
455.709, 1350.549
457.045, 1247.014
458.381, 1351.438
459.717, 1071.820
461.053, 1098.168
462.388, 1021.480
463.724, 1123.750
465.059, 1229.990
466.394, 1315.514
467.728, 1616.363
469.063, 1685.500
470.397, 1803.598
471.731, 2159.664
473.065, 2243.699
474.398, 2907.701
475.732, 3096.674
477.065, 3637.617
478.398, 4324.531
479.731, 4937.420
481.063, 6321.275
482.396, 7016.107
483.728, 8780.910
485.060, 10999.691
486.391, 13514.449
487.723, 17098.189
489.054, 21129.912
490.385, 26209.621
491.716, 29775.314
493.047, 33891.992
494.377, 33938.660
495.708, 31987.328
497.038, 30145.994
498.368, 24954.658
499.697, 21846.301
501.027, 19007.941
502.356, 16512.566
503.685, 14725.182
505.014, 12213.787
506.342, 10639.377
507.671, 8887.990
508.999, 6883.607
510.327, 5713.225
511.655, 3925.920
512.982, 3379.617
514.310, 2515.383
515.637, 1862.229
516.964, 1694.074
518.291, 1058.023
519.617, 989.992
520.944, 846.082
522.270, 564.281
523.596, 345.545
524.921, 379.941
526.247, 228.398
527.572, 15.008
528.897, 10.732
530.222, 169.486
531.547, 348.613
532.871, 126.156
534.196, 326.988
535.520, 19.217
536.844, 265.400
538.167, 359.670
539.491, 122.059
540.814, 374.496
542.137, 260.119
543.460, 137.848
544.783, 128.613
546.105, 194.338
547.427, 138.121
548.749, 72.898
550.071, 250.637
551.393, 248.504
552.714, 40.477
554.035, 126.455
555.356, 346.432
556.677, 45.410
557.998, 478.387
559.318, 826.363
560.638, 655.340
561.958, 1159.314
563.278, 1310.291
564.597, 1391.266
565.917, 2142.240
567.236, 1899.217
568.555, 2825.191
569.874, 2773.164
571.192, 3635.139
572.511, 4079.109
573.829, 4488.084
575.147, 5309.057
576.464, 5356.027
577.782, 6336.000
579.099, 6923.988
580.416, 7415.078
581.733, 8182.242
583.050, 8353.539
584.366, 8969.918
585.683, 8911.375
586.999, 8334.039
588.315, 8247.859
589.630, 7365.885
590.946, 6927.096
592.261, 6321.510
593.576, 5970.121
594.891, 5673.801
596.206, 4820.613
597.520, 4773.438
598.834, 4460.320
600.148, 4334.203
601.462, 4253.082
602.776, 4004.957
604.089, 3977.832
605.402, 4410.703
606.715, 4380.574
608.028, 4708.441
609.341, 4767.305
610.653, 5222.168
611.965, 5412.031
613.277, 6013.891
614.589, 6725.746
615.901, 7025.602
617.212, 7910.451
618.523, 8783.301
619.834, 9439.146
621.145, 10791.990
622.456, 11305.832
623.766, 12940.672
625.076, 13995.512
626.386, 15282.344
627.696, 16828.174
629.006, 17946.004
630.315, 19627.828
631.624, 20359.652
632.933, 21683.475
634.242, 22868.291
635.551, 22972.107
636.859, 24112.924
638.167, 23765.734
639.475, 24320.537
640.783, 23112.445
642.090, 22526.250
643.398, 22021.045
644.705, 20537.055
646.012, 19909.846
647.318, 18925.227
648.625, 17474.010
649.931, 16390.791
651.237, 15120.072
652.543, 13739.031
653.849, 13095.668
655.155, 11498.852
656.460, 10981.609
657.765, 9970.457
659.070, 9408.203
660.375, 8373.102
661.679, 7874.635
662.984, 7309.367
664.288, 6619.746
665.592, 6184.973
666.895, 5636.188
668.199, 5311.488
669.502, 5102.086
670.805, 4511.051
672.108, 4207.023
673.411, 4370.066
674.713, 3678.539
676.016, 3681.918
677.318, 3294.258
678.620, 3147.178
679.921, 2922.834
681.223, 2832.166
682.524, 2754.721
683.825, 2408.176
685.126, 2480.578
686.427, 2401.852
687.727, 2623.016
689.028, 2391.486
690.328, 2339.420
691.628, 2016.020
692.927, 2075.049
694.227, 1930.590
695.526, 1889.299
696.825, 1863.939
698.124, 1575.906
699.423, 1736.748
700.721, 1525.283
702.020, 1640.420
703.318, 1226.453
704.616, 1203.039
705.913, 1363.736
707.211, 769.301
708.508, 1110.025
709.805, 920.785
711.102, 846.814
712.399, 844.820
713.695, 735.539
714.992, 1044.494
716.288, 942.422
717.584, 1027.324
718.879, 1158.203
720.175, 1086.051
721.470, 1256.875
722.765, 1457.674
724.060, 1525.445
725.355, 2051.189
726.649, 2089.906
727.944, 2742.598
729.238, 3079.260
730.532, 3810.896
731.825, 4184.508
733.119, 5404.088
734.412, 6475.643
735.705, 7908.168
736.998, 10061.668
738.291, 12095.137
739.584, 14236.574
740.876, 17406.984
742.168, 19526.361
743.460, 21257.703
744.752, 21674.021
746.043, 20373.301
747.334, 19141.547
748.626, 16464.760
749.916, 14258.938
751.207, 12418.074
752.498, 10117.178
753.788, 8916.244
755.078, 7552.268
756.368, 6521.256
757.658, 5815.207
758.947, 4734.121
760.237, 4571.994
761.526, 4128.830
762.815, 3570.629
764.104, 3602.387
765.392, 3311.109
766.680, 3246.789
767.969, 3009.436
769.257, 2794.039
770.544, 2759.607
771.832, 2407.135
773.119, 2405.623
774.406, 2039.072
775.693, 1650.484
776.980, 1715.855
778.267, 1627.188
779.553, 1384.482
780.839, 1258.736
782.125, 1113.951
783.411, 1113.127
784.697, 1174.266
785.982, 534.361
787.267, 960.422
788.552, 521.441
789.837, 605.420
791.122, 640.361
792.406, 344.262
793.690, 731.125
794.974, 291.947
796.258, 343.727
797.542, 382.469
798.825, 126.176
800.108, 434.826
801.391, 180.439
802.674, 384.016
803.957, 378.555
805.239, 71.053
806.522, 262.484
807.804, 17.875
809.085, 205.180
810.367, 329.438
811.649, 81.660
812.930, 386.818
814.211, 264.355
815.492, 146.434
816.772, 527.461
818.053, 5.316
819.333, 68.211
820.613, 189.418
821.893, 165.803
823.173, 140.791
824.452, 129.668
825.732, 162.291
827.011, 218.115
828.290, 248.738
829.568, 42.174
830.847, 327.762
832.125, 290.195
833.403, 111.887
834.681, 394.734
835.959, 96.887
837.236, 463.188
838.514, 379.832
839.791, 78.762
841.068, 447.816
842.345, 172.203
843.621, 218.668
844.898, 321.336
846.174, 143.168
847.450, 176.148
848.726, 163.230
850.001, 47.625
851.277, 149.461
852.552, 500.367
853.827, 533.312
855.102, 269.277
856.376, 557.246
857.651, 852.250
858.925, 1510.258
860.199, 1844.266
861.473, 1655.316
862.746, 1626.406
864.020, 1761.465
865.293, 1838.496
866.566, 2109.492
867.839, 1866.457
869.112, 2179.398
870.384, 1956.301
871.656, 2095.176
872.928, 2211.020
874.200, 2158.836
875.472, 2871.621
876.744, 2503.379
878.015, 3056.105
879.286, 3003.805
880.557, 2992.477
881.828, 3200.117
883.098, 3096.734
884.369, 3350.328
885.639, 3196.891
886.909, 3052.426
888.178, 3011.941
889.448, 2967.426
890.717, 2872.891
891.987, 2758.328
893.256, 2644.316
894.524, 2595.129
895.793, 2340.492
897.061, 2256.836
898.330, 2061.156
899.598, 2079.453
900.865, 1918.730
902.133, 1639.984
903.401, 1707.223
904.668, 1755.434
905.935, 1522.625
907.202, 1439.797
908.468, 1543.953
909.735, 1390.086
911.001, 1163.203
912.267, 1288.305
913.533, 1020.383
914.799, 1397.441
916.064, 861.488
917.330, 969.516
918.595, 1076.531
919.860, 729.531
921.124, 1119.512
922.389, 528.477
923.653, 1045.430
924.918, 890.367
926.182, 556.289
927.445, 762.199
928.709, 756.098
929.972, 650.980
931.236, 898.855
932.499, 798.719
933.761, 806.570
935.024, 802.422
936.286, 862.262
937.549, 1055.098
938.811, 1087.918
940.073, 1338.734
941.334, 1536.535
942.596, 1197.336
943.857, 1709.129
945.118, 1495.906
946.379, 1904.684
947.640, 1678.344
948.900, 1720.105
950.161, 1790.355
951.421, 1451.891
952.681, 1323.637
953.940, 1240.023
955.200, 953.781
956.459, 988.516
957.719, 809.734
958.978, 618.273
960.236, 680.945
961.495, 295.246
962.753, 422.969
964.012, 322.594
965.270, 15.684
966.527, 571.879
967.785, 182.809
969.043, 70.473
970.300, 340.586
971.557, 164.203
972.814, 104.988
974.071, 152.094
975.327, 13.898
976.583, 179.340
977.840, 124.234
979.095, 29.102
980.351, 97.012
981.607, 12.996
982.862, 202.043
984.117, 369.504
985.372, 156.223
986.627, 497.266
987.882, 229.094
989.136, 608.016
990.390, 617.273
991.644, 542.543
992.898, 999.762
994.152, 843.402
995.405, 1414.270
996.659, 1705.824
997.912, 1465.707
999.165, 2316.664
1000.417, 2583.574
1001.670, 2679.520
1002.922, 3115.336
1004.174, 2913.520
1005.426, 3049.742
1006.678, 3033.008
1007.930, 3122.309
1009.181, 3406.691
1010.432, 3216.113
1011.683, 3333.582
1012.934, 3645.164
1014.185, 3482.785
1015.435, 3922.441
1016.685, 3504.180
1017.935, 3614.953
1019.185, 3921.816
1020.435, 3604.727
1021.684, 4018.668
1022.934, 3924.676
1024.183, 3183.723
1025.432, 3624.816
1026.680, 3156.953
1027.929, 3164.129
1029.177, 2826.363
1030.425, 2557.645
1031.673, 2762.973
1032.921, 2524.426
1034.169, 1879.934
1035.416, 2057.484
1036.663, 1661.098
1037.911, 1650.758
1039.157, 1600.500
1040.404, 1690.289
1041.650, 1674.133
1042.897, 1515.039
1044.143, 1666.992
1045.389, 1848.000
1046.634, 1650.059
1047.880, 2042.172
1049.125, 2015.332
1050.371, 1952.551
1051.615, 2703.820
1052.860, 2108.141
1054.105, 2721.516
1055.349, 2863.941
1056.593, 2577.418
1057.837, 2900.949
1059.081, 2918.535
1060.325, 2648.164
1061.568, 2896.848
1062.812, 2647.578
1064.055, 2412.363
1065.298, 2471.195
1066.540, 1975.078
1067.783, 2000.008
1069.025, 1431.984
1070.267, 1591.012
1071.509, 1498.090
1072.751, 872.215
1073.993, 1282.391
1075.234, 1203.613
1076.475, 891.883
1077.716, 1173.203
1078.957, 678.570
1080.198, 947.516
1081.438, 1039.984
1082.679, 618.504
1083.919, 1027.414
1085.159, 865.039
1086.398, 681.723
1087.638, 835.453
1088.877, 440.098
1090.116, 500.941
1091.355, 616.844
1092.594, 403.801
1093.833, 544.188
1095.071, 532.855
1096.309, 351.969
1097.547, 602.137
1098.785, 59.637
1100.023, 243.652
1101.260, 252.008
1102.498, 168.578
1103.735, 259.898
1104.972, 135.434
1106.208, 201.031
1107.445, 229.711
1108.681, 85.543
1109.918, 463.293
1111.154, 316.191
1112.389, 286.160
1113.625, 618.211
1114.860, 289.910
1116.096, 537.102
1117.331, 1090.359
1118.566, 846.824
1119.800, 1060.258
1121.035, 1296.391
1122.269, 1405.984
1123.503, 2006.715
1124.737, 1978.527
1125.971, 2056.477
1127.205, 2482.348
1128.438, 2275.512
1129.671, 3004.844
1130.904, 3059.035
1132.137, 3012.648
1133.370, 3892.441
1134.602, 3857.371
1135.834, 3577.496
1137.066, 4155.148
1138.298, 4327.234
1139.530, 4494.918
1140.762, 3982.719
1141.993, 3702.742
1143.224, 4589.789
1144.455, 3533.117
1145.686, 3997.629
1146.917, 3994.285
1148.147, 3321.082
1149.377, 3976.027
1150.607, 3392.062
1151.837, 3572.168
1153.067, 3668.945
1154.296, 3106.215
1155.526, 3578.559
1156.755, 3911.070
1157.984, 3242.543
1159.213, 3766.102
1160.441, 4019.898
1161.670, 3796.602
1162.898, 4337.387
1164.126, 4105.535
1165.354, 4191.484
1166.581, 4758.332
1167.809, 4306.445
1169.036, 4817.645
1170.263, 4788.820
1171.490, 4378.188
1172.717, 5282.645
1173.943, 4659.188
1175.170, 4578.812
1176.396, 4880.938
1177.622, 4083.738
1178.848, 4562.633
1180.073, 3895.734
1181.299, 3495.805
1182.524, 3956.969
1183.749, 3017.371
1184.974, 3334.719
1186.199, 3235.293
1187.423, 2740.793
1188.648, 2985.387
1189.872, 2716.254
1191.096, 2101.035
1192.320, 2642.887
1193.543, 1899.828
1194.767, 1973.695
1195.990, 1858.324
1197.213, 1622.051
1198.436, 2021.680
1199.659, 1607.688
1200.881, 1249.188
1202.104, 1810.750
1203.326, 1115.371
1204.548, 1288.008
1205.770, 1123.223
1206.991, 738.449
1208.213, 1145.602
1209.434, 646.570
1210.655, 403.438
1211.876, 740.266
1213.096, 281.035
1214.317, 456.754
1215.537, 671.402
1216.757, 180.992
1217.977, 603.512
1219.197, 423.984
1220.417, 195.414
1221.636, 418.824
1222.855, 277.215
1224.074, 468.617
1225.293, 212.047
1226.512, 49.461
1227.731, 565.152
1228.949, 139.984
1230.167, 133.734
1231.385, 466.742
1232.603, 116.348
1233.820, 191.074
1235.038, 67.109
1236.255, 370.758
1237.472, 639.805
1238.689, 748.609
1239.906, 216.957
1241.122, 512.492
1242.338, 477.672
1243.555, 428.598
1244.771, 658.629
1245.986, 198.676
1247.202, 701.859
1248.417, 413.211
1249.633, 462.762
1250.848, 829.457
1252.063, 418.312
1253.277, 574.332
1254.492, 730.496
1255.706, 440.797
1256.920, 707.234
1258.134, 616.797
1259.348, 274.492
1260.562, 994.285
1261.775, 607.199
1262.988, 347.227
1264.201, 1075.367
1265.414, 424.602
1266.627, 784.891
1267.839, 737.230
1269.052, 329.473
1270.264, 1054.766
1271.476, 738.059
1272.688, 679.387
1273.899, 1020.777
1275.111, 503.270
1276.322, 957.844
1277.533, 758.504
1278.744, 356.012
1279.955, 1017.582
1281.165, 707.176
1282.376, 282.809
1283.586, 932.480
1284.796, 358.234
1286.006, 365.062
1287.215, 750.977
1288.425, 63.023
1289.634, 675.074
1290.843, 425.270
1292.052, 90.586
1293.261, 516.027
1294.469, 196.602
1295.678, 98.328
1296.886, 650.211
1298.094, 38.738
1299.302, 73.492
1300.509, 240.906
1301.717, 177.527
1302.924, 669.535
1304.131, 52.414
1305.338, 297.320
1306.545, 482.875
1307.752, 28.289
1308.958, 125.102
1310.164, 486.707
1311.370, 139.301
1312.576, 311.859
1313.782, 493.188
1314.987, 13.316
1316.193, 598.340
1317.398, 484.160
1318.603, 84.137
1319.807, 504.270
1321.012, 44.570
1322.216, 265.039
1323.421, 591.684
1324.625, 227.480
1325.829, 385.551
1327.032, 354.785
1328.236, 52.242
1329.439, 657.934
1330.642, 9.867
1331.845, 504.762
1333.048, 596.043
1334.251, 117.586
1335.453, 730.410
1336.656, 496.484
1337.858, 323.672
1339.060, 1004.359
1340.261, 392.742
1341.463, 208.793
1342.664, 993.480
1343.866, 103.016
1345.067, 753.348
1346.267, 1066.750
1347.468, 391.582
1348.669, 987.918
1349.869, 794.402
1351.069, 431.617
1352.269, 1304.582
1353.469, 610.820
1354.668, 748.078
1355.868, 1240.605
1357.067, 508.195
1358.266, 852.770
1359.465, 835.785
1360.664, 63.855
1361.862, 970.129
1363.061, 725.762
1364.259, 480.102
1365.457, 789.328
1366.655, 92.270
1367.852, 590.641
1369.050, 417.914
1370.247, 202.559
1371.444, 471.371
1372.641, 371.305
1373.838, 0.000
##END=



