##NAMES=Inderite
##RRUFFID=R050195
##IDEAL CHEMISTRY=MgB_3_O_3_(OH)_5_&#183;5H_2_O
##LOCALITY=Boron, Kern County, California, USA
##OWNER=RRUFF
##SOURCE=Dave Bunk Minerals
##DESCRIPTION=Colorless prismatic crystal
##STATUS=The identification of this mineral has been confirmed by X-ray diffraction and chemical analysis
##URL=rruff.info/R050195
##MEASURED CHEMISTRY=Mg_1.00_B_3.00_O_3_(OH)_5_Â·5H_2_O ; Mg measured, only
##PIN_ID=L00296
##ORIENTATION=Laser parallel to c* (0 0 1). Fiducial mark perpendicular to laser is parallel to a [1 0 0]
99.644, 0.000
101.036, 495.214
102.428, 1852.832
103.820, 4074.932
105.212, 7023.156
106.604, 7754.943
107.995, 7748.623
109.387, 5135.481
110.777, 3534.920
112.168, 2016.112
113.559, 1326.729
114.949, 728.728
116.339, 125.925
117.729, 71.674
119.119, 143.008
120.508, 274.859
121.897, 1065.938
123.286, 2079.279
124.675, 3522.186
126.063, 4712.192
127.452, 6679.418
128.840, 7980.755
130.228, 8941.054
131.615, 8180.518
133.003, 6890.771
134.390, 6094.797
135.777, 4974.093
137.164, 4929.373
138.550, 4493.736
139.937, 4515.502
141.323, 4330.949
142.709, 4347.738
144.094, 4432.901
145.480, 3934.360
146.865, 4159.305
148.250, 4157.902
149.635, 4660.295
151.019, 4909.609
152.403, 4715.991
153.788, 5311.851
155.171, 4504.170
156.555, 4648.064
157.939, 4330.105
159.322, 4472.639
160.705, 4710.955
162.088, 4758.801
163.470, 5541.626
164.853, 5599.847
166.235, 6389.063
167.617, 6215.119
168.998, 6480.768
170.380, 5864.230
171.761, 5105.826
173.142, 4373.740
174.523, 3033.857
175.904, 2383.158
177.284, 1446.619
178.664, 1137.226
180.044, 757.979
181.424, 404.872
182.803, 491.881
184.183, 314.841
185.562, 635.496
186.940, 728.709
188.319, 911.479
189.698, 1351.581
191.076, 1491.016
192.454, 2052.762
193.831, 1801.807
195.209, 2183.152
196.586, 1958.785
197.963, 1875.688
199.340, 1727.841
200.717, 1213.231
202.093, 1072.837
203.470, 322.643
204.846, 165.633
206.221, 83.202
207.597, 157.873
208.972, 64.605
210.347, 132.222
211.722, 161.960
213.097, 372.782
214.472, 311.330
215.846, 438.393
217.220, 350.417
218.594, 258.419
219.967, 282.399
221.341, 29.356
222.714, 211.290
224.087, 209.197
225.460, 54.080
226.832, 117.939
228.204, 3.773
229.577, 18.582
230.948, 13.676
232.320, 95.121
233.692, 38.762
235.063, 103.233
236.434, 186.671
237.805, 238.994
239.175, 231.157
240.545, 21.590
241.916, 5.555
243.286, 261.392
244.655, 466.993
246.025, 500.445
247.394, 977.822
248.763, 875.124
250.132, 1284.310
251.501, 1150.229
252.869, 1117.891
254.237, 1258.523
255.605, 992.215
256.973, 1201.968
258.340, 740.778
259.708, 971.646
261.075, 670.572
262.442, 476.554
263.808, 610.593
265.175, 269.613
266.541, 381.823
267.907, 19.882
269.273, 15.170
270.639, 280.317
272.004, 76.140
273.369, 300.479
274.734, 226.109
276.099, 460.074
277.463, 556.305
278.828, 638.744
280.192, 659.342
281.556, 584.051
282.919, 737.830
284.283, 409.074
285.646, 603.910
287.009, 635.748
288.372, 409.574
289.734, 601.387
291.097, 515.170
292.459, 905.908
293.821, 1027.576
295.183, 1231.127
296.544, 1535.539
297.905, 1696.803
299.266, 2113.914
300.627, 2146.865
301.988, 2257.668
303.348, 2066.340
304.709, 1867.885
306.069, 1741.320
307.428, 1461.650
308.788, 1610.881
310.147, 1336.021
311.507, 1597.076
312.865, 1611.057
314.224, 1562.961
315.583, 2054.803
316.941, 1803.574
318.299, 2146.926
319.657, 1869.178
321.015, 2170.381
322.372, 2558.840
323.729, 2765.695
325.086, 3422.174
326.443, 3529.229
327.800, 4087.041
329.156, 4095.719
330.512, 3869.211
331.868, 3557.512
333.224, 2877.455
334.579, 2848.158
335.935, 2530.840
337.290, 2540.559
338.645, 2516.318
339.999, 2701.117
341.354, 3263.949
342.708, 3450.818
344.062, 3900.721
345.416, 4004.660
346.769, 3861.633
348.123, 3936.602
349.476, 3352.564
350.829, 3080.543
352.182, 2548.555
353.534, 2150.592
354.887, 1974.660
356.239, 1447.756
357.591, 1655.875
358.942, 1257.020
360.294, 1189.188
361.645, 1173.377
362.996, 933.588
364.347, 1254.939
365.698, 882.582
367.048, 1226.734
368.398, 1175.008
369.748, 1133.938
371.098, 1846.957
372.448, 1425.678
373.797, 1888.201
375.146, 1729.605
376.495, 2123.666
377.844, 2276.262
379.192, 2322.656
380.540, 2605.871
381.889, 2359.920
383.236, 2574.525
384.584, 2665.475
385.932, 2530.227
387.279, 2537.500
388.626, 2045.111
389.973, 2420.879
391.319, 2083.516
392.666, 2236.256
394.012, 2318.391
395.358, 2183.252
396.704, 2162.992
398.049, 1722.988
399.394, 2174.020
400.740, 2068.787
402.084, 2174.072
403.429, 2533.986
404.774, 2305.539
406.118, 2703.240
407.462, 2827.961
408.806, 3431.699
410.150, 4056.459
411.493, 4231.238
412.836, 5374.035
414.179, 5978.857
415.522, 7270.703
416.865, 8566.570
418.207, 9886.461
419.549, 11586.371
420.891, 12214.307
422.233, 13578.262
423.575, 13669.242
424.916, 12880.244
426.257, 12659.270
427.598, 11033.320
428.939, 10170.398
430.279, 8682.980
431.619, 7966.219
432.959, 7454.307
434.299, 7021.945
435.639, 6988.023
436.978, 7031.098
438.318, 7846.162
439.657, 8050.217
440.996, 8856.258
442.334, 9827.289
443.673, 8558.309
445.011, 8451.316
446.349, 6941.318
447.687, 5577.309
449.024, 4726.281
450.361, 3644.242
451.699, 3097.191
453.036, 2504.127
454.372, 2284.051
455.709, 2057.959
457.045, 1527.857
458.381, 1523.744
459.717, 1156.619
461.053, 1264.484
462.388, 1100.344
463.724, 902.191
465.059, 1227.035
466.394, 937.869
467.728, 1252.709
469.063, 1086.541
470.397, 945.398
471.731, 1594.254
473.065, 1250.105
474.398, 1811.996
475.732, 1707.885
477.065, 1987.809
478.398, 2438.736
479.731, 2598.664
481.063, 3157.654
482.396, 3890.648
483.728, 4643.658
485.060, 5735.703
486.391, 7349.754
487.723, 9074.861
489.054, 10845.977
490.385, 13994.104
491.716, 15609.246
493.047, 16981.396
494.377, 18198.586
495.708, 16534.787
497.038, 15032.004
498.368, 12395.238
499.697, 10256.482
501.027, 8142.740
502.356, 6447.826
503.685, 5101.301
505.014, 3852.600
506.342, 3046.912
507.671, 2515.238
508.999, 1819.576
510.327, 1779.930
511.655, 1146.293
512.982, 909.670
514.310, 678.064
515.637, 398.469
516.964, 316.295
518.291, 362.316
519.617, 169.760
520.944, 63.287
522.270, 13.828
523.596, 34.611
524.921, 173.943
526.247, 134.309
527.572, 16.266
528.897, 337.148
530.222, 86.332
531.547, 331.074
532.871, 10.625
534.196, 155.105
535.520, 133.619
536.844, 48.848
538.167, 294.484
539.491, 63.182
540.814, 38.021
542.137, 4.859
543.460, 73.154
544.783, 32.156
546.105, 10.908
547.427, 38.936
548.749, 105.752
550.071, 29.443
551.393, 38.320
552.714, 288.930
554.035, 99.688
555.356, 354.994
556.677, 291.340
557.998, 289.795
559.318, 843.287
560.638, 511.875
561.958, 896.963
563.278, 1170.686
564.597, 1196.816
565.917, 1717.580
567.236, 1558.350
568.555, 2052.127
569.874, 1890.910
571.192, 2171.701
572.511, 2502.498
573.829, 2140.303
575.147, 2867.113
576.464, 2690.932
577.782, 3004.754
579.099, 3442.582
580.416, 3318.418
581.733, 4150.256
583.050, 3974.100
584.366, 4178.951
585.683, 4199.809
586.999, 3844.668
588.315, 3829.531
589.630, 3168.420
590.946, 3101.334
592.261, 2841.250
593.576, 2172.180
594.891, 2354.117
596.206, 1804.053
597.520, 1979.996
598.834, 1773.941
600.148, 1477.893
601.462, 1646.848
602.776, 1575.807
604.089, 1865.768
605.402, 1767.736
606.715, 1492.705
608.028, 2036.676
609.341, 1925.656
610.653, 2259.637
611.965, 2540.621
613.277, 2589.611
614.589, 3442.607
615.901, 3303.605
617.212, 3720.605
618.523, 4185.609
619.834, 4456.619
621.145, 5245.797
622.456, 5566.814
623.766, 6319.854
625.076, 7089.156
626.386, 7794.182
627.696, 8448.131
629.006, 8927.484
630.315, 9705.404
631.624, 10587.818
632.933, 11030.066
634.242, 11995.773
635.551, 11926.910
636.859, 12675.215
638.167, 12264.559
639.475, 12585.477
640.783, 12656.342
642.090, 12021.664
643.398, 12166.203
644.705, 11430.746
646.012, 10980.781
647.318, 10509.879
648.625, 9875.252
649.931, 9361.281
651.237, 8728.621
652.543, 8154.646
653.849, 7902.666
655.155, 6993.682
656.460, 7020.697
657.765, 6171.707
659.070, 6162.713
660.375, 5719.715
661.679, 4999.715
662.984, 5036.711
664.288, 4529.699
665.592, 4244.688
666.895, 4448.672
668.199, 3479.742
669.502, 3291.715
670.805, 3291.006
672.108, 2703.967
673.411, 2816.926
674.713, 2353.580
676.016, 2547.047
677.318, 2026.195
678.620, 2028.131
679.921, 2160.547
681.223, 1660.133
682.524, 1671.301
683.825, 1638.578
685.126, 1377.658
686.427, 1561.570
687.727, 1127.877
689.028, 1304.883
690.328, 1019.930
691.628, 949.072
692.927, 983.789
694.227, 865.750
695.526, 829.895
696.825, 774.281
698.124, 564.641
699.423, 804.549
700.721, 492.729
702.020, 590.893
703.318, 398.701
704.616, 320.498
705.913, 593.422
707.211, 176.195
708.508, 491.018
709.805, 127.760
711.102, 67.025
712.399, 376.734
713.695, 48.570
714.992, 313.061
716.288, 217.678
717.584, 70.277
718.879, 245.855
720.175, 76.418
721.470, 374.957
722.765, 341.482
724.060, 486.988
725.355, 719.480
726.649, 421.951
727.944, 897.406
729.238, 899.840
730.532, 1339.260
731.825, 1743.680
733.119, 1576.082
734.412, 2480.479
735.705, 3026.854
736.998, 3346.211
738.291, 4857.561
739.584, 5390.895
740.876, 6778.205
742.168, 7895.500
743.460, 8345.773
744.752, 8804.031
746.043, 8064.266
747.334, 7433.480
748.626, 6652.678
749.916, 5454.852
751.207, 4804.010
752.498, 3620.145
753.788, 3273.260
755.078, 2760.355
756.368, 2092.430
757.658, 1884.482
758.947, 1499.518
760.237, 1140.527
761.526, 1076.520
762.815, 914.488
764.104, 963.713
765.392, 690.641
766.680, 761.549
767.969, 658.971
769.257, 315.834
770.544, 740.676
771.832, 391.496
773.119, 427.613
774.406, 486.400
775.693, 185.164
776.980, 268.904
778.267, 222.621
779.553, 12.316
780.839, 236.963
782.125, 61.406
783.411, 155.139
784.697, 73.660
785.982, 99.846
787.267, 185.545
788.552, 104.090
789.837, 59.164
791.122, 176.387
792.406, 193.391
793.690, 77.674
794.974, 5.709
796.258, 49.266
797.542, 122.678
798.825, 116.395
800.108, 325.463
801.391, 231.301
802.674, 165.127
803.957, 307.928
805.239, 33.295
806.522, 573.447
807.804, 326.168
809.085, 390.861
810.367, 742.531
811.649, 274.182
812.930, 683.828
814.211, 745.451
815.492, 493.051
816.772, 722.625
818.053, 548.426
819.333, 869.703
820.613, 499.205
821.893, 234.684
823.173, 478.137
824.452, 181.564
825.732, 334.965
827.011, 308.520
828.290, 107.873
829.568, 137.191
830.847, 205.467
832.125, 333.660
833.403, 17.934
834.681, 386.443
835.959, 128.402
837.236, 225.986
838.514, 243.719
839.791, 18.426
841.068, 59.830
842.345, 63.824
843.621, 178.471
844.898, 90.914
846.174, 94.424
847.450, 247.006
848.726, 275.221
850.001, 150.498
851.277, 147.748
852.552, 246.979
853.827, 190.186
855.102, 432.385
856.376, 566.568
857.651, 501.730
858.925, 754.879
860.199, 439.029
861.473, 858.154
862.746, 530.268
864.020, 604.268
865.293, 879.980
866.566, 811.049
867.839, 944.045
869.112, 1131.064
870.384, 1227.061
871.656, 1410.859
872.928, 1719.580
874.200, 1734.135
875.472, 2043.039
876.744, 2196.924
878.015, 2533.787
879.286, 2493.625
880.557, 2559.445
881.828, 3009.238
883.098, 2582.014
884.369, 2732.383
885.639, 2483.109
886.909, 2365.680
888.178, 2334.363
889.448, 2035.025
890.717, 1892.092
891.987, 1834.730
893.256, 1740.328
894.524, 1698.902
895.793, 1284.455
897.061, 1280.984
898.330, 1273.496
899.598, 1029.986
900.865, 1201.449
902.133, 723.895
903.401, 871.318
904.668, 838.719
905.935, 706.100
907.202, 804.461
908.468, 707.240
909.735, 553.121
911.001, 618.418
912.267, 505.697
913.533, 438.957
914.799, 420.193
916.064, 193.412
917.330, 406.605
918.595, 520.779
919.860, 128.934
921.124, 406.062
922.389, 332.174
923.653, 455.266
924.918, 178.336
926.182, 252.385
927.445, 310.768
928.709, 812.240
929.972, 353.232
931.236, 717.182
932.499, 442.852
933.761, 715.754
935.024, 748.748
936.286, 799.320
937.549, 1010.633
938.811, 1213.113
940.073, 1355.002
941.334, 1469.158
942.596, 1728.867
943.857, 2409.088
945.118, 2329.559
946.379, 2788.443
947.640, 2806.859
948.900, 3036.305
950.161, 3273.953
951.421, 3305.375
952.681, 3206.061
953.940, 3187.004
955.200, 2752.314
956.459, 2534.082
957.719, 2321.229
958.978, 1938.840
960.236, 1676.434
961.495, 1588.016
962.753, 1187.689
964.012, 1558.475
965.270, 1126.012
966.527, 1171.533
967.785, 1168.045
969.043, 866.541
970.300, 955.021
971.557, 500.490
972.814, 826.945
974.071, 544.293
975.327, 432.721
976.583, 424.816
977.840, 170.219
979.095, 575.609
980.351, 774.285
981.607, 199.135
982.862, 232.279
984.117, 91.377
985.372, 56.432
986.627, 24.068
987.882, 53.447
989.136, 344.533
990.390, 179.580
991.644, 396.199
992.898, 325.988
994.152, 757.906
995.405, 372.250
996.659, 775.092
997.912, 775.721
999.165, 813.781
1000.417, 708.908
1001.670, 943.514
1002.922, 1340.129
1004.174, 940.154
1005.426, 1137.004
1006.678, 1025.193
1007.930, 666.379
1009.181, 906.600
1010.432, 800.820
1011.683, 999.041
1012.934, 1161.301
1014.185, 637.559
1015.435, 993.814
1016.685, 901.127
1017.935, 774.436
1019.185, 883.768
1020.435, 704.102
1021.684, 730.473
1022.934, 821.844
1024.183, 439.215
1025.432, 814.584
1026.680, 361.955
1027.929, 286.328
1029.177, 668.705
1030.425, 379.086
1031.673, 258.465
1032.921, 353.854
1034.169, 103.762
1035.416, 363.582
1036.663, 46.068
1037.911, 193.262
1039.157, 81.596
1040.404, 60.068
1041.650, 73.553
1042.897, 171.559
1044.143, 144.873
1045.389, 211.191
1046.634, 245.514
1047.880, 378.836
1049.125, 575.162
1050.371, 600.146
1051.615, 688.816
1052.860, 679.143
1054.105, 771.473
1055.349, 692.803
1056.593, 617.131
1057.837, 724.463
1059.081, 952.791
1060.325, 1059.121
1061.568, 1087.447
1062.812, 866.773
1064.055, 697.100
1065.298, 807.426
1066.540, 547.477
1067.783, 595.803
1069.025, 579.125
1070.267, 145.910
1071.509, 403.230
1072.751, 352.551
1073.993, 338.869
1075.234, 441.865
1076.475, 52.826
1077.716, 512.471
1078.957, 203.766
1080.198, 180.252
1081.438, 464.547
1082.679, 24.146
1083.919, 249.191
1085.159, 395.561
1086.398, 35.068
1087.638, 368.293
1088.877, 12.699
1090.116, 199.104
1091.355, 375.541
1092.594, 130.025
1093.833, 287.346
1095.071, 154.791
1096.309, 190.795
1097.547, 76.535
1098.785, 65.111
1100.023, 218.764
1101.260, 116.547
1102.498, 86.137
1103.735, 321.152
1104.972, 45.445
1106.208, 181.250
1107.445, 467.043
1108.681, 993.348
1109.918, 236.660
1111.154, 50.980
1112.389, 123.691
1113.625, 290.625
1114.860, 137.945
1116.096, 141.281
1117.331, 350.629
1118.566, 190.984
1119.800, 597.352
1121.035, 759.730
1122.269, 706.121
1123.503, 864.523
1124.737, 900.934
1125.971, 843.355
1127.205, 1271.613
1128.438, 1069.062
1129.671, 1426.516
1130.904, 1635.941
1132.137, 1731.496
1133.370, 1837.879
1134.602, 2016.895
1135.834, 1970.371
1137.066, 2725.598
1138.298, 1896.387
1139.530, 2328.184
1140.762, 2686.109
1141.993, 1572.973
1143.224, 2314.078
1144.455, 2203.035
1145.686, 1939.047
1146.917, 2288.645
1148.147, 1767.801
1149.377, 2044.977
1150.607, 2022.199
1151.837, 1636.398
1153.067, 2199.086
1154.296, 1784.707
1155.526, 1647.945
1156.755, 1877.141
1157.984, 1685.172
1159.213, 1848.625
1160.441, 1743.953
1161.670, 1622.773
1162.898, 2182.219
1164.126, 1764.574
1165.354, 1842.922
1166.581, 2317.969
1167.809, 1829.984
1169.036, 1890.609
1170.263, 2152.027
1171.490, 2193.457
1172.717, 2227.906
1173.943, 2155.207
1175.170, 2076.699
1176.396, 2226.109
1177.622, 1849.438
1178.848, 2216.996
1180.073, 2347.305
1181.299, 1876.906
1182.524, 2091.914
1183.749, 1804.203
1184.974, 1829.016
1186.199, 2152.715
1187.423, 1645.664
1188.648, 2007.984
1189.872, 1921.316
1191.096, 1502.121
1192.320, 1902.949
1193.543, 1552.805
1194.767, 2193.676
1195.990, 1774.492
1197.213, 1539.137
1198.436, 1914.797
1199.659, 1979.332
1200.881, 1450.719
1202.104, 1884.113
1203.326, 2379.301
1204.548, 1522.477
1205.770, 1433.488
1206.991, 1319.500
1208.213, 1381.492
1209.434, 1210.422
1210.655, 1218.305
1211.876, 1220.176
1213.096, 1013.988
1214.317, 1080.773
1215.537, 1159.508
1216.757, 633.207
1217.977, 950.863
1219.197, 1031.473
1220.417, 775.047
1221.636, 940.586
1222.855, 558.105
1224.074, 556.629
1225.293, 962.129
1226.512, 185.699
1227.731, 699.188
1228.949, 767.688
1230.167, 482.156
1231.385, 615.699
1232.603, 610.285
1233.820, 280.965
1235.038, 1074.688
1236.255, 290.062
1237.472, 871.941
1238.689, 1102.027
1239.906, 433.793
1241.122, 1070.133
1242.338, 541.848
1243.555, 352.145
1244.771, 1144.926
1245.986, 360.027
1247.202, 1006.984
1248.417, 815.203
1249.633, 483.734
1250.848, 980.969
1252.063, 736.234
1253.277, 671.531
1254.492, 1046.867
1255.706, 654.238
1256.920, 702.645
1258.134, 1364.082
1259.348, 498.562
1260.562, 867.156
1261.775, 1264.832
1262.988, 584.562
1264.201, 1036.336
1265.414, 500.133
1266.627, 433.961
1267.839, 1185.809
1269.052, 471.637
1270.264, 1081.328
1271.476, 719.004
1272.688, 344.641
1273.899, 1387.188
1275.111, 542.676
1276.322, 624.109
1277.533, 1116.496
1278.744, 421.844
1279.955, 954.211
1281.165, 978.574
1282.376, 283.930
1283.586, 970.277
1284.796, 598.691
1286.006, 296.133
1287.215, 797.602
1288.425, 275.094
1289.634, 562.602
1290.843, 655.113
1292.052, 55.637
1293.261, 453.188
1294.469, 562.766
1295.678, 42.629
1296.886, 587.016
1298.094, 190.301
1299.302, 264.426
1300.509, 797.203
1301.717, 97.969
1302.924, 184.918
1304.131, 331.867
1305.338, 111.086
1306.545, 256.676
1307.752, 354.785
1308.958, 154.109
1310.164, 631.086
1311.370, 232.387
1312.576, 247.898
1313.782, 87.324
1314.987, 449.688
1316.193, 775.301
1317.398, 900.797
1318.603, 226.355
1319.807, 571.027
1321.012, 115.848
1322.216, 249.750
1323.421, 592.730
1324.625, 144.789
1325.829, 514.930
1327.032, 609.148
1328.236, 170.461
1329.439, 764.875
1330.642, 571.398
1331.845, 434.055
1333.048, 1082.848
1334.251, 363.453
1335.453, 896.230
1336.656, 1274.812
1337.858, 598.215
1339.060, 1436.922
1340.261, 1586.074
1341.463, 898.727
1342.664, 2044.523
1343.866, 1577.113
1345.067, 1717.848
1346.267, 2430.547
1347.468, 1802.539
1348.669, 2313.422
1349.869, 2427.523
1351.069, 2063.633
1352.269, 2941.547
1353.469, 2125.902
1354.668, 2283.312
1355.868, 2580.004
1357.067, 1696.066
1358.266, 1777.105
1359.465, 2114.688
1360.664, 1102.953
1361.862, 1593.527
1363.061, 1458.539
1364.259, 527.133
1365.457, 1609.484
1366.655, 698.051
1367.852, 526.645
1369.050, 1341.426
1370.247, 388.160
1371.444, 788.012
1372.641, 1044.348
1373.838, 62.148
1375.035, 722.137
1376.231, 499.242
1377.427, 393.961
1378.623, 1094.559
1379.819, 204.020
1381.015, 259.457
1382.211, 501.180
1383.406, 0.000
##END=



