##NAMES=Inderite
##RRUFFID=R050195
##IDEAL CHEMISTRY=MgB_3_O_3_(OH)_5_&#183;5H_2_O
##LOCALITY=Boron, Kern County, California, USA
##OWNER=RRUFF
##SOURCE=Dave Bunk Minerals
##DESCRIPTION=Colorless prismatic crystal
##STATUS=The identification of this mineral has been confirmed by X-ray diffraction and chemical analysis
##URL=rruff.info/R050195
##MEASURED CHEMISTRY=Mg_1.00_B_3.00_O_3_(OH)_5_Â·5H_2_O ; Mg measured, only
##PIN_ID=L00296
##ORIENTATION=Laser parallel to c* (0 0 1). Fiducial mark perpendicular to laser is parallel to a [1 0 0]
103.820, 0.000
105.212, 1092.918
106.604, 2079.570
107.995, 3703.656
109.387, 3433.756
110.777, 2949.254
112.168, 1684.580
113.559, 848.607
114.949, 373.961
116.339, 62.834
117.729, 293.422
119.119, 736.537
120.508, 1513.986
121.897, 3146.703
123.286, 4883.613
124.675, 7930.150
126.063, 9843.385
127.452, 12059.408
128.840, 13970.402
130.228, 14139.771
131.615, 12013.057
133.003, 8620.904
134.390, 5885.043
135.777, 3554.715
137.164, 2296.328
138.550, 1355.764
139.937, 822.574
141.323, 1085.023
142.709, 1116.023
144.094, 1789.904
145.480, 2195.912
146.865, 3366.801
148.250, 4212.924
149.635, 5006.965
151.019, 5658.047
152.403, 4675.285
153.788, 3962.771
155.171, 2877.604
156.555, 2204.867
157.939, 1310.637
159.322, 1182.963
160.705, 1463.893
162.088, 1290.467
163.470, 2056.721
164.853, 2280.682
166.235, 3200.723
167.617, 3323.998
168.998, 3139.635
170.380, 2798.391
171.761, 1944.047
173.142, 1746.611
174.523, 774.098
175.904, 472.521
177.284, 127.883
178.664, 134.312
180.044, 78.262
181.424, 155.695
182.803, 224.088
184.183, 90.564
185.562, 538.512
186.940, 1032.680
188.319, 1159.135
189.698, 2213.994
191.076, 2305.234
192.454, 2863.441
193.831, 2470.873
195.209, 2350.547
196.586, 1981.465
197.963, 1365.625
199.340, 1138.027
200.717, 722.664
202.093, 643.527
203.470, 266.615
204.846, 155.121
206.221, 172.941
207.597, 249.021
208.972, 119.393
210.347, 232.396
211.722, 416.773
213.097, 343.684
214.472, 402.729
215.846, 435.902
217.220, 395.205
218.594, 872.623
219.967, 531.148
221.341, 785.779
222.714, 521.508
224.087, 324.311
225.460, 421.135
226.832, 103.002
228.204, 124.928
229.577, 13.895
230.948, 18.934
232.320, 14.951
233.692, 72.744
235.063, 273.662
236.434, 51.824
237.805, 201.926
239.175, 431.033
240.545, 282.340
241.916, 493.699
243.286, 495.199
244.655, 943.770
246.025, 482.402
247.394, 829.057
248.763, 538.760
250.132, 317.428
251.501, 321.082
252.869, 86.676
254.237, 261.250
255.605, 140.162
256.973, 19.561
258.340, 213.943
259.708, 280.316
261.075, 205.680
262.442, 494.088
263.808, 100.658
265.175, 551.523
266.541, 122.756
267.907, 495.357
269.273, 362.553
270.639, 16.049
272.004, 320.861
273.369, 264.430
274.734, 42.359
276.099, 38.502
277.463, 399.951
278.828, 175.904
280.192, 688.273
281.556, 546.541
282.919, 796.564
284.283, 811.848
285.646, 822.354
287.009, 1485.055
288.372, 1396.912
289.734, 2077.906
291.097, 2261.012
292.459, 2969.211
293.821, 3437.488
295.183, 4112.834
296.544, 5316.240
297.905, 5402.699
299.266, 6645.203
300.627, 6681.811
301.988, 6863.377
303.348, 6588.988
304.709, 5605.594
306.069, 5379.246
307.428, 4177.012
308.788, 3941.449
310.147, 3330.879
311.507, 3192.230
312.865, 3146.016
314.224, 2777.279
315.583, 2979.504
316.941, 2564.789
318.299, 2658.949
319.657, 1989.086
321.015, 1613.195
322.372, 1886.279
323.729, 1359.346
325.086, 1570.391
326.443, 1463.418
327.800, 1458.428
329.156, 1944.424
330.512, 1694.402
331.868, 2248.289
333.224, 2264.027
334.579, 2734.682
335.935, 3578.334
337.290, 3963.980
338.645, 5266.627
339.999, 5936.268
341.354, 7508.908
342.708, 8562.479
344.062, 9409.371
345.416, 10426.295
346.769, 9920.295
348.123, 9813.934
349.476, 8495.184
350.829, 7739.971
352.182, 6803.555
353.534, 5937.113
354.887, 5633.680
356.239, 4416.379
357.591, 4671.008
358.942, 3440.672
360.294, 3029.814
361.645, 3200.539
362.996, 2445.953
364.347, 2724.734
365.698, 1994.867
367.048, 2028.592
368.398, 1895.447
369.748, 1747.738
371.098, 2147.637
372.448, 1341.359
373.797, 1843.293
375.146, 1415.631
376.495, 1230.256
377.844, 1537.236
379.192, 1007.996
380.540, 1461.008
381.889, 1332.033
383.236, 1250.281
384.584, 1436.334
385.932, 1104.398
387.279, 1575.475
388.626, 1052.832
389.973, 1494.240
391.319, 1514.355
392.666, 1449.877
394.012, 2371.230
395.358, 1498.932
396.704, 1944.727
398.049, 1512.900
399.394, 2035.734
400.740, 2302.928
402.084, 2230.129
403.429, 3065.340
404.774, 3019.555
406.118, 3567.777
407.462, 4148.004
408.806, 4634.238
410.150, 5814.480
411.493, 6350.727
412.836, 7947.982
414.179, 9083.244
415.522, 10823.826
416.865, 13317.098
418.207, 15422.844
419.549, 18429.006
420.891, 19814.703
422.233, 21479.643
423.575, 22034.742
424.916, 20393.104
426.257, 19395.891
427.598, 16370.855
428.939, 14238.453
430.279, 11771.730
431.619, 9997.832
432.959, 9363.234
434.299, 7863.707
435.639, 7791.223
436.978, 7853.086
438.318, 8314.895
439.657, 9574.465
440.996, 9743.045
442.334, 11102.637
443.673, 10234.240
445.011, 9699.852
446.349, 7710.473
447.687, 6021.094
449.024, 4953.723
450.361, 3426.357
451.699, 2773.994
453.036, 2048.635
454.372, 1788.279
455.709, 1495.926
457.045, 704.576
458.381, 1033.229
459.717, 533.883
461.053, 149.541
462.388, 296.197
463.724, 165.143
465.059, 309.393
466.394, 14.068
467.728, 1.580
469.063, 159.871
470.397, 15.186
471.731, 297.732
473.065, 126.857
474.398, 357.473
475.732, 241.807
477.065, 135.148
478.398, 771.490
479.731, 334.840
481.063, 636.211
482.396, 1200.590
483.728, 1279.973
485.060, 2400.375
486.391, 2440.783
487.723, 3829.236
489.054, 4567.693
490.385, 6298.164
491.716, 7200.639
493.047, 7960.119
494.377, 8258.375
495.708, 8205.143
497.038, 7481.666
498.368, 6690.199
499.697, 5039.742
501.027, 4557.297
502.356, 3297.861
503.685, 2829.449
505.014, 2205.057
506.342, 1620.699
507.671, 1604.352
508.999, 824.020
510.327, 1023.707
511.655, 451.410
512.982, 458.137
514.310, 654.881
515.637, 64.352
516.964, 386.375
518.291, 185.145
519.617, 39.064
520.944, 312.814
522.270, 215.283
523.596, 266.508
524.921, 12.414
526.247, 119.678
527.572, 102.172
528.897, 471.943
530.222, 309.707
531.547, 544.543
532.871, 136.936
534.196, 47.484
535.520, 20.920
536.844, 341.668
538.167, 178.607
539.491, 250.035
540.814, 193.703
542.137, 155.555
543.460, 239.119
544.783, 147.879
546.105, 155.664
547.427, 6.527
548.749, 28.691
550.071, 406.141
551.393, 23.016
552.714, 488.926
554.035, 111.129
555.356, 537.797
556.677, 657.777
557.998, 258.785
559.318, 1102.844
560.638, 640.930
561.958, 1063.035
563.278, 1739.168
564.597, 1480.324
565.917, 2365.504
567.236, 2101.707
568.555, 2932.938
569.874, 3052.195
571.192, 3229.469
572.511, 4256.777
573.829, 3806.098
575.147, 5230.453
576.464, 5311.836
577.782, 6055.297
579.099, 7138.797
580.416, 7415.402
581.733, 8480.109
583.050, 9314.914
584.366, 9145.879
585.683, 9947.914
586.999, 8791.125
588.315, 8889.410
589.630, 8000.859
590.946, 7135.441
592.261, 6952.070
593.576, 5420.820
594.891, 5350.594
596.206, 4832.422
597.520, 4541.297
598.834, 4599.188
600.148, 3797.109
601.462, 4175.055
602.776, 3931.020
604.089, 4083.016
605.402, 4475.031
606.715, 3953.074
608.028, 4860.141
609.341, 4609.234
610.653, 5051.352
611.965, 5827.492
613.277, 5609.656
614.589, 6736.852
615.901, 7096.070
617.212, 7645.312
618.523, 8690.582
619.834, 8656.816
621.145, 10591.133
622.456, 10679.453
623.766, 11934.828
625.076, 13593.129
626.386, 14173.266
627.696, 15876.750
629.006, 16654.234
630.315, 17912.773
631.624, 19588.562
632.933, 19577.164
634.242, 21696.785
635.551, 21824.336
636.859, 22693.023
638.167, 22542.715
639.475, 22590.445
640.783, 23262.211
642.090, 21560.945
643.398, 21667.762
644.705, 20934.738
646.012, 19569.602
647.318, 18930.500
648.625, 17615.438
649.931, 16762.383
651.237, 16178.738
652.543, 14547.742
653.849, 14341.773
655.155, 12728.832
656.460, 12491.922
657.765, 11146.031
659.070, 10748.172
660.375, 10365.340
661.679, 9042.531
662.984, 8883.754
664.288, 8507.000
665.592, 7526.270
666.895, 7371.590
668.199, 6513.938
669.502, 6317.305
670.805, 6229.703
672.108, 5415.125
673.411, 5401.578
674.713, 4610.984
676.016, 4811.629
677.318, 4131.137
678.620, 4361.902
679.921, 4217.113
681.223, 4246.980
682.524, 3691.598
683.825, 3286.734
685.126, 2859.516
686.427, 3356.211
687.727, 2314.965
689.028, 2631.367
690.328, 2475.320
691.628, 2037.312
692.927, 2339.984
694.227, 1874.750
695.526, 1968.414
696.825, 1760.203
698.124, 1255.906
699.423, 2006.199
700.721, 1201.465
702.020, 1326.008
703.318, 1144.574
704.616, 702.797
705.913, 1562.969
707.211, 550.980
708.508, 1025.254
709.805, 663.941
711.102, 177.641
712.399, 1045.363
713.695, 393.113
714.992, 925.883
716.288, 781.672
717.584, 595.484
718.879, 904.316
720.175, 611.172
721.470, 879.051
722.765, 994.945
724.060, 819.863
725.355, 1479.801
726.649, 1045.758
727.944, 1864.738
729.238, 1803.738
730.532, 2137.754
731.825, 2806.793
733.119, 2804.855
734.412, 4075.930
735.705, 5025.027
736.998, 5407.148
738.291, 7580.285
739.584, 8436.438
740.876, 10555.609
742.168, 12286.797
743.460, 12369.000
744.752, 13361.219
746.043, 12511.457
747.334, 11292.711
748.626, 10657.969
749.916, 8238.246
751.207, 7725.535
752.498, 6016.840
753.788, 5390.156
755.078, 4991.484
756.368, 3574.824
757.658, 3624.180
758.947, 3253.551
760.237, 2504.930
761.526, 2476.324
762.815, 2099.727
764.104, 2319.145
765.392, 1884.578
766.680, 1657.016
767.969, 1910.730
769.257, 1167.191
770.544, 1856.664
771.832, 1316.148
773.119, 1080.648
774.406, 1318.160
775.693, 770.680
776.980, 926.207
778.267, 989.816
779.553, 323.426
780.839, 1541.828
782.125, 1764.512
783.411, 589.203
784.697, 793.930
785.982, 74.336
787.267, 863.418
788.552, 323.188
789.837, 342.965
791.122, 598.750
792.406, 59.457
793.690, 666.316
794.974, 43.098
796.258, 40.113
797.542, 440.656
798.825, 144.566
800.108, 593.148
801.391, 310.867
802.674, 307.594
803.957, 643.328
805.239, 43.926
806.522, 638.793
807.804, 385.523
809.085, 279.258
810.367, 989.000
811.649, 59.754
812.930, 712.516
814.211, 859.273
815.492, 420.051
816.772, 841.824
818.053, 402.609
819.333, 485.398
820.613, 583.027
821.893, 390.828
823.173, 838.633
824.452, 200.445
825.732, 508.262
827.011, 587.316
828.290, 48.832
829.568, 336.074
830.847, 404.594
832.125, 300.027
833.403, 259.301
834.681, 307.727
835.959, 278.777
837.236, 138.074
838.514, 0.629
839.791, 365.941
841.068, 220.562
842.345, 245.938
843.621, 121.543
844.898, 41.816
846.174, 201.668
847.450, 364.609
848.726, 318.660
850.001, 107.977
851.277, 122.715
852.552, 374.488
853.827, 178.262
855.102, 284.848
856.376, 495.957
857.651, 14.941
858.925, 679.121
860.199, 11.199
861.473, 768.230
862.746, 289.262
864.020, 207.289
865.293, 876.352
866.566, 697.406
867.839, 567.457
869.112, 1054.504
870.384, 779.547
871.656, 900.586
872.928, 1352.617
874.200, 776.648
875.472, 1697.680
876.744, 1214.699
878.015, 1745.715
879.286, 1874.730
880.557, 1692.738
881.828, 2441.738
883.098, 1961.738
884.369, 2223.734
885.639, 2321.719
886.909, 2116.703
888.178, 2843.688
889.448, 1959.660
890.717, 1948.633
891.987, 2326.594
893.256, 1669.555
894.524, 2214.508
895.793, 1761.457
897.061, 1820.402
898.330, 2135.344
899.598, 1145.273
900.865, 1843.203
902.133, 1336.129
903.401, 1178.047
904.668, 1628.961
905.935, 886.867
907.202, 1429.773
908.468, 1009.672
909.735, 598.566
911.001, 1109.453
912.267, 536.336
913.533, 557.211
914.799, 745.090
916.064, 265.957
917.330, 783.820
918.595, 827.676
919.860, 88.531
921.124, 811.387
922.389, 300.238
923.653, 547.086
924.918, 304.926
926.182, 353.770
927.445, 761.602
928.709, 360.430
929.972, 115.254
931.236, 691.090
932.499, 69.074
933.761, 929.680
935.024, 411.434
936.286, 543.180
937.549, 1225.922
938.811, 616.953
940.073, 927.688
941.334, 614.422
942.596, 661.141
943.857, 1600.863
945.118, 1080.594
946.379, 1391.305
947.640, 1378.012
948.900, 1245.770
950.161, 1936.473
951.421, 1531.059
952.681, 1289.762
953.940, 1564.465
955.200, 869.172
956.459, 1379.871
957.719, 1003.195
958.978, 776.895
960.236, 945.594
961.495, 695.289
962.753, 305.980
964.012, 845.676
965.270, 288.371
966.527, 731.066
967.785, 625.754
969.043, 323.449
970.300, 675.141
971.557, 22.160
972.814, 409.496
974.071, 274.156
975.327, 251.816
976.583, 606.469
977.840, 340.863
979.095, 303.598
980.351, 116.770
981.607, 221.387
982.862, 246.648
984.117, 301.094
985.372, 49.008
986.627, 104.098
987.882, 203.844
989.136, 244.109
990.390, 104.664
991.644, 174.762
992.898, 160.480
994.152, 132.699
995.405, 16.625
996.659, 100.055
997.912, 182.180
999.165, 478.137
1000.417, 209.832
1001.670, 333.215
1002.922, 885.715
1004.174, 83.465
1005.426, 584.492
1006.678, 463.281
1007.930, 298.090
1009.181, 631.039
1010.432, 202.910
1011.683, 505.426
1012.934, 865.312
1014.185, 105.207
1015.435, 1101.105
1016.685, 715.012
1017.935, 316.922
1019.185, 1056.836
1020.435, 442.758
1021.684, 1014.691
1022.934, 1098.621
1024.183, 720.559
1025.432, 1577.504
1026.680, 780.453
1027.929, 985.414
1029.177, 1427.383
1030.425, 1066.355
1031.673, 1363.336
1032.921, 821.328
1034.169, 538.328
1035.416, 1588.328
1036.663, 625.344
1037.911, 1159.363
1039.157, 1054.398
1040.404, 588.438
1041.650, 1376.488
1042.897, 1047.547
1044.143, 1132.621
1045.389, 1533.703
1046.634, 949.793
1047.880, 1696.895
1049.125, 1761.008
1050.371, 1071.129
1051.615, 2060.266
1052.860, 1774.410
1054.105, 2169.570
1055.349, 2477.742
1056.593, 2147.930
1057.837, 2811.129
1059.081, 2578.340
1060.325, 2258.570
1061.568, 2978.809
1062.812, 2135.062
1064.055, 2312.332
1065.298, 2530.617
1066.540, 1529.918
1067.783, 2280.227
1069.025, 1596.555
1070.267, 1515.680
1071.509, 1712.039
1072.751, 948.422
1073.993, 1616.828
1075.234, 1184.250
1076.475, 873.703
1077.716, 1265.176
1078.957, 738.676
1080.198, 1035.359
1081.438, 927.914
1082.679, 639.742
1083.919, 921.352
1085.159, 909.984
1086.398, 456.648
1087.638, 1225.340
1088.877, 417.078
1090.116, 1030.848
1091.355, 1249.648
1092.594, 355.477
1093.833, 919.336
1095.071, 692.250
1096.309, 405.191
1097.547, 980.168
1098.785, 80.191
1100.023, 323.094
1101.260, 838.227
1102.498, 453.402
1103.735, 1081.613
1104.972, 535.867
1106.208, 693.164
1107.445, 999.516
1108.681, 622.910
1109.918, 1420.348
1111.154, 725.836
1112.389, 717.371
1113.625, 1370.961
1114.860, 982.598
1116.096, 1185.238
1117.331, 1562.938
1118.566, 1060.695
1119.800, 1619.504
1121.035, 1747.473
1122.269, 1707.328
1123.503, 2331.246
1124.737, 2233.227
1125.971, 3062.273
1127.205, 3152.156
1128.438, 2664.336
1129.671, 3319.523
1130.904, 3505.312
1132.137, 3592.809
1133.370, 4191.727
1134.602, 4446.098
1135.834, 4176.934
1137.066, 5060.070
1138.298, 4089.086
1139.530, 4459.418
1140.762, 4908.809
1141.993, 3940.223
1143.224, 5077.891
1144.455, 4047.414
1145.686, 4230.281
1146.917, 4295.109
1148.147, 3742.352
1149.377, 4116.809
1150.607, 3386.590
1151.837, 3122.480
1153.067, 3773.586
1154.296, 2977.004
1155.526, 3128.676
1156.755, 2805.570
1157.984, 2603.938
1159.213, 3040.762
1160.441, 2565.742
1161.670, 2402.758
1162.898, 3121.809
1164.126, 2264.887
1165.354, 2649.004
1166.581, 2572.160
1167.809, 2316.352
1169.036, 2866.578
1170.263, 2664.844
1171.490, 2296.152
1172.717, 2900.492
1173.943, 2399.883
1175.170, 2572.309
1176.396, 2599.777
1177.622, 1956.289
1178.848, 2481.844
1180.073, 1965.445
1181.299, 1655.090
1182.524, 1957.777
1183.749, 1424.512
1184.974, 1661.289
1186.199, 1741.121
1187.423, 834.992
1188.648, 1685.906
1189.872, 1079.855
1191.096, 949.852
1192.320, 1196.910
1193.543, 355.988
1194.767, 1163.145
1195.990, 520.395
1197.213, 233.699
1198.436, 733.062
1199.659, 827.469
1200.881, 399.938
1202.104, 1111.457
1203.326, 303.016
1204.548, 662.621
1205.770, 579.277
1206.991, 342.977
1208.213, 821.730
1209.434, 415.527
1210.655, 527.379
1211.876, 621.277
1213.096, 269.223
1214.317, 528.277
1215.537, 633.379
1216.757, 161.309
1217.977, 782.293
1219.197, 543.250
1220.417, 438.586
1221.636, 848.125
1222.855, 195.879
1224.074, 266.922
1225.293, 1162.168
1226.512, 196.430
1227.731, 629.105
1228.949, 671.680
1230.167, 386.270
1231.385, 837.840
1232.603, 343.383
1233.820, 267.051
1235.038, 1191.871
1236.255, 39.840
1237.472, 854.969
1238.689, 1031.254
1239.906, 197.711
1241.122, 1176.344
1242.338, 641.156
1243.555, 514.164
1244.771, 1277.363
1245.986, 109.234
1247.202, 1436.379
1248.417, 1891.219
1249.633, 718.281
1250.848, 1602.594
1252.063, 573.148
1253.277, 824.973
1254.492, 1416.070
1255.706, 458.461
1256.920, 1344.156
1258.134, 1760.176
1259.348, 416.543
1260.562, 870.273
1261.775, 1044.141
1262.988, 383.324
1264.201, 1144.852
1265.414, 334.730
1266.627, 703.180
1267.839, 1196.277
1269.052, 154.762
1270.264, 1229.656
1271.476, 781.988
1272.688, 440.773
1273.899, 1580.043
1275.111, 224.824
1276.322, 782.758
1277.533, 1255.215
1278.744, 374.215
1279.955, 1078.793
1281.165, 771.973
1282.376, 58.773
1283.586, 1336.527
1284.796, 387.336
1286.006, 279.500
1287.215, 802.242
1288.425, 196.180
1289.634, 646.445
1290.843, 540.617
1292.052, 91.078
1293.261, 899.781
1294.469, 634.152
1295.678, 3.660
1296.886, 1047.809
1298.094, 319.449
1299.302, 743.570
1300.509, 1231.625
1301.717, 5.277
1302.924, 1140.008
1304.131, 0.000
##END=



