##NAMES=Inyoite
##RRUFFID=R040161
##IDEAL CHEMISTRY=CaB_3_O_3_(OH)_5_&#183;4H_2_O
##LOCALITY=Kramer deposit, Boron, Kern County, California, USA
##OWNER=RRUFF
##SOURCE=University of Arizona Mineral Museum
##DESCRIPTION=Group of colorless indistinct rounded crystals
##STATUS=The identification of this mineral has been confirmed by X-ray diffraction and chemical analysis
##URL=rruff.info/R040161
##MEASURED CHEMISTRY=Ca_1.00_B_3.00_O_3_(OH)_5_Â·4H_2_O
##PIN_ID=L00078
##ORIENTATION=Laser parallel to -c* (0 0 -1). Fiducial mark perpendicular to laser is parallel to a [1 0 0]
105.5290, 0.0000000E+00
106.7660, 190.7686
108.0020, 297.6465
109.2390, 315.4697
110.4750, 11.38867
111.7110, 16.41992
112.9460, 156.4473
114.1820, 129.1895
115.4170, 323.3535
116.6530, 359.8613
117.8880, 648.8662
119.1230, 988.7412
120.3580, 1248.970
121.5920, 1674.114
122.8270, 2284.811
124.0610, 2688.816
125.2950, 2922.925
126.5290, 2928.866
127.7630, 2735.416
128.9970, 1997.414
130.2300, 1345.853
131.4640, 815.6230
132.6970, 716.5752
133.9300, 584.5859
135.1630, 477.5498
136.3950, 555.3760
137.6280, 906.9854
138.8600, 943.3105
140.0920, 1450.291
141.3240, 1785.310
142.5560, 2289.506
143.7880, 2654.100
145.0190, 3459.049
146.2510, 4338.320
147.4820, 5103.896
148.7130, 6112.756
149.9440, 6518.883
151.1750, 6499.313
152.4050, 6057.739
153.6360, 5162.375
154.8660, 4314.578
156.0960, 4023.926
157.3260, 3857.421
158.5560, 3907.061
159.7850, 3828.841
161.0150, 4001.756
162.2440, 4224.800
163.4730, 4648.969
164.7020, 5411.260
165.9310, 6205.664
167.1590, 7131.182
168.3880, 8488.808
169.6160, 10092.54
170.8440, 11865.36
172.0720, 13488.29
173.3000, 14809.31
174.5280, 15810.41
175.7550, 16830.61
176.9820, 17431.89
178.2100, 17697.25
179.4370, 17648.14
180.6630, 16875.36
181.8900, 16103.70
183.1170, 14174.42
184.3430, 12289.16
185.5690, 9901.911
186.7950, 8036.712
188.0210, 6358.559
189.2470, 4908.461
190.4720, 4019.423
191.6970, 3184.447
192.9230, 2811.545
194.1480, 2265.716
195.3730, 2030.071
196.5970, 1780.324
197.8220, 1529.736
199.0460, 1255.694
200.2700, 1290.983
201.4940, 1147.224
202.7180, 1088.244
203.9420, 1152.396
205.1660, 1109.774
206.3890, 1110.226
207.6120, 1284.891
208.8350, 1118.652
210.0580, 1237.457
211.2810, 962.3018
212.5040, 1067.187
213.7260, 724.1113
214.9480, 572.0732
216.1700, 520.0713
217.3920, 398.1045
218.6140, 267.1719
219.8360, 380.2744
221.0570, 172.4092
222.2790, 219.5801
223.5000, 245.7812
224.7210, 276.0156
225.9410, 211.2822
227.1620, 249.5742
228.3820, 191.8906
229.6030, 346.2539
230.8230, 309.6387
232.0430, 454.0469
233.2630, 320.4775
234.4820, 334.9287
235.7020, 557.4053
236.9210, 479.9004
238.1400, 534.4199
239.3590, 481.9590
240.5780, 238.5195
241.7970, 194.1016
243.0150, 226.7041
244.2340, 119.3281
245.4520, 146.9727
246.6700, 80.36523
247.8880, 230.6807
249.1060, 88.97754
250.3230, 23.31934
251.5400, 12.28809
252.7580, 94.57031
253.9750, 215.9121
255.1920, 221.3779
256.4080, 220.2705
257.6250, 340.0713
258.8410, 412.3975
260.0580, 505.4268
261.2740, 437.7441
262.4900, 439.3203
263.7050, 418.1279
264.9210, 330.1465
266.1360, 393.7949
267.3520, 487.1826
268.5670, 452.7314
269.7820, 322.4307
270.9960, 388.2676
272.2110, 455.2344
273.4250, 297.3203
274.6400, 311.5205
275.8540, 326.8252
277.0680, 331.2285
278.2810, 340.7256
279.4950, 303.6621
280.7090, 119.3271
281.9220, 215.0693
283.1350, 88.28418
284.3480, 11.52344
285.5610, 6.000977
286.7730, 22.67773
287.9860, 164.0029
289.1980, 94.68164
290.4100, 131.7588
291.6220, 32.08398
292.8340, 69.81836
294.0460, 111.1221
295.2570, 208.6885
296.4690, 170.3584
297.6800, 80.84668
298.8910, 27.03320
300.1020, 138.7705
301.3120, 60.16113
302.5230, 68.62305
303.7330, 198.9111
304.9440, 312.2637
306.1540, 375.6758
307.3630, 418.0693
308.5730, 474.6055
309.7830, 685.1602
310.9920, 707.6162
312.2010, 801.0898
313.4100, 1113.583
314.6190, 1483.092
315.8280, 1674.618
317.0370, 1786.162
318.2450, 1884.722
319.4530, 2311.297
320.6610, 2506.887
321.8690, 2743.492
323.0770, 3021.005
324.2850, 3182.502
325.4920, 3375.015
326.6990, 3588.545
327.9060, 3497.093
329.1130, 3286.658
330.3200, 3274.240
331.5270, 2939.841
332.7330, 2699.459
333.9390, 2532.096
335.1450, 2177.747
336.3510, 2286.415
337.5570, 2261.102
338.7630, 2171.804
339.9680, 2562.522
341.1740, 2672.255
342.3790, 2961.991
343.5840, 3456.655
344.7890, 4017.278
345.9930, 4472.848
347.1980, 5061.291
348.4020, 5803.746
349.6060, 6110.214
350.8100, 6532.336
352.0140, 6739.828
353.2180, 6855.328
354.4210, 6654.840
355.6250, 6370.363
356.8280, 5930.895
358.0310, 5259.437
359.2340, 4789.988
360.4360, 4132.553
361.6390, 3936.123
362.8410, 3499.705
364.0430, 3262.297
365.2450, 3072.898
366.4470, 2764.510
367.6490, 2628.131
368.8510, 2503.762
370.0520, 2396.402
371.2530, 2356.053
372.4540, 2421.714
373.6550, 2450.384
374.8560, 2298.064
376.0560, 2213.755
377.2570, 2135.456
378.4570, 2239.166
379.6570, 2257.886
380.8570, 2127.615
382.0570, 2467.355
383.2560, 2574.105
384.4560, 2383.865
385.6550, 2684.635
386.8540, 2708.413
388.0530, 2810.201
389.2520, 2471.000
390.4510, 2438.807
391.6490, 2428.270
392.8470, 1910.701
394.0450, 1621.798
395.2430, 1333.191
396.4410, 1077.048
397.6390, 878.4502
398.8360, 660.8643
400.0340, 553.8184
401.2310, 513.8008
402.4280, 421.8125
403.6250, 367.8496
404.8210, 339.9121
406.0180, 279.9951
407.2140, 155.1006
408.4100, 321.2236
409.6060, 55.36621
410.8020, 190.5225
411.9980, 169.6953
413.1930, 89.88477
414.3890, 195.0889
415.5840, 103.3105
416.7790, 144.5459
417.9740, 157.7979
419.1680, 232.0625
420.3630, 147.3418
421.5570, 98.63477
422.7510, 60.94141
423.9450, 102.2559
425.1390, 150.5830
426.3330, 84.07812
427.5270, 61.20605
428.7200, 188.5020
429.9130, 65.53027
431.1060, 71.16992
432.2990, 154.5361
433.4920, 8.243164
434.6840, 148.9043
435.8770, 176.5557
437.0690, 11.27051
438.2610, 133.1465
439.4530, 103.5625
440.6450, 16.15430
441.8360, 191.4814
443.0280, 12.06445
444.2190, 74.35156
445.4100, 144.8018
446.6010, 17.32227
447.7920, 99.14844
448.9820, 1.367188
450.1730, 126.8838
451.3630, 129.4619
452.5530, 23.90039
453.7430, 170.2705
454.9330, 96.65430
456.1230, 338.0498
457.3120, 363.4580
458.5010, 243.8770
459.6910, 557.3086
460.8800, 745.7539
462.0680, 924.2100
463.2570, 1117.678
464.4460, 1216.158
465.6340, 1423.652
466.8220, 1539.157
468.0100, 1500.846
469.1980, 1456.207
470.3860, 1348.750
471.5730, 1209.307
472.7600, 1088.876
473.9480, 900.4570
475.1350, 928.0518
476.3210, 905.6582
477.5080, 778.2793
478.6950, 625.9170
479.8810, 707.5684
481.0670, 469.2520
482.2530, 507.9463
483.4390, 347.6592
484.6250, 332.3828
485.8100, 347.1270
486.9960, 286.9043
488.1810, 74.70117
489.3660, 231.5420
490.5510, 14.39746
491.7360, 33.28125
492.9200, 34.75391
494.1050, 51.23340
495.2890, 235.2363
496.4730, 350.2988
497.6570, 369.3740
498.8400, 464.4844
500.0240, 628.6113
501.2070, 971.7549
502.3910, 941.9141
503.5740, 1045.124
504.7570, 1451.369
505.9400, 1403.662
507.1220, 1411.998
508.3050, 1595.352
509.4870, 1611.132
510.6690, 1671.138
511.8510, 1810.568
513.0330, 1683.034
514.2140, 1761.557
515.3960, 1665.149
516.5770, 1736.780
517.7580, 2005.429
518.9390, 1905.094
520.1200, 1821.772
521.3010, 2032.468
522.4810, 2033.177
523.6610, 2064.902
524.8420, 2077.641
526.0220, 1954.392
527.2010, 2250.157
528.3810, 2235.938
529.5610, 2070.729
530.7400, 2366.533
531.9190, 2227.352
533.0980, 2036.184
534.2770, 2085.037
535.4560, 1982.947
536.6340, 1819.883
537.8120, 1783.838
538.9910, 1534.805
540.1690, 1204.789
541.3460, 1222.789
542.5240, 872.8008
543.7020, 885.8359
544.8790, 833.8867
546.0560, 579.9668
547.2330, 692.0586
548.4100, 596.1621
549.5870, 449.2812
550.7630, 774.4238
551.9400, 771.1406
553.1160, 767.3477
554.2920, 847.5859
555.4680, 912.8555
556.6440, 947.1777
557.8190, 967.5156
558.9950, 1228.871
560.1700, 1341.234
561.3450, 1237.645
562.5200, 1238.070
563.6950, 1251.527
564.8690, 1191.064
566.0440, 1205.133
567.2180, 1170.662
568.3920, 1056.805
569.5660, 1117.031
570.7400, 1118.098
571.9130, 1040.391
573.0870, 1040.404
574.2600, 1015.838
575.4330, 1059.883
576.6060, 1179.971
577.7790, 1172.707
578.9520, 1248.070
580.1240, 1299.750
581.2960, 1307.588
582.4690, 1405.605
583.6410, 1540.686
584.8120, 1559.260
585.9840, 1636.217
587.1560, 1662.145
588.3270, 2035.283
589.4980, 2127.395
590.6690, 2261.488
591.8400, 2344.633
593.0110, 2912.672
594.1810, 3164.730
595.3510, 3302.920
596.5220, 4065.127
597.6920, 4571.348
598.8610, 5052.582
600.0310, 6047.836
601.2010, 7180.100
602.3700, 8308.379
603.5390, 9832.676
604.7080, 11813.98
605.8770, 14136.31
607.0460, 16909.64
608.2140, 20477.00
609.3830, 24706.37
610.5510, 29008.75
611.7190, 33774.15
612.8870, 38215.56
614.0550, 41838.97
615.2220, 44310.41
616.3900, 44462.89
617.5570, 42732.61
618.7240, 38494.62
619.8910, 33320.61
621.0580, 28221.01
622.2240, 23432.52
623.3910, 19150.83
624.5570, 15410.36
625.7230, 12673.14
626.8890, 10497.29
628.0550, 8967.820
629.2200, 7648.398
630.3860, 6319.080
631.5510, 5377.508
632.7160, 5012.553
633.8810, 4198.732
635.0460, 3760.352
636.2100, 3303.457
637.3750, 3124.092
638.5390, 2979.074
639.7030, 2645.211
640.8670, 2458.361
642.0310, 2418.385
643.1950, 2255.207
644.3580, 2039.727
645.5210, 1966.643
646.6850, 1837.727
647.8480, 1744.258
649.0100, 1695.861
650.1730, 1663.676
651.3350, 1674.377
652.4980, 1637.949
653.6600, 1498.150
654.8220, 1627.035
655.9840, 1671.193
657.1450, 1518.518
658.3070, 1556.973
659.4680, 1387.873
660.6300, 1450.938
661.7910, 1480.844
662.9510, 1348.863
664.1120, 1471.547
665.2730, 1395.230
666.4330, 1232.906
667.5930, 1334.584
668.7530, 1551.258
669.9130, 1177.928
671.0730, 1428.596
672.2320, 1456.262
673.3920, 1438.922
674.5510, 1441.584
675.7100, 1457.236
676.8690, 1379.418
678.0280, 1406.062
679.1860, 1407.615
680.3450, 1438.930
681.5030, 1439.561
682.6610, 1430.828
683.8190, 1446.600
684.9770, 1455.699
686.1340, 1417.910
687.2920, 1447.736
688.4490, 1352.881
689.6060, 1172.762
690.7630, 1340.963
691.9200, 1133.512
693.0760, 1036.584
694.2330, 1139.180
695.3890, 894.5469
696.5450, 1141.539
697.7010, 1160.875
698.8570, 1002.682
700.0130, 890.6992
701.1680, 984.4277
702.3230, 858.1816
703.4780, 1049.814
704.6330, 945.0645
705.7880, 567.8398
706.9430, 732.3672
708.0970, 631.3809
709.2520, 651.2539
710.4060, 691.9414
711.5600, 808.9785
712.7140, 720.5195
713.8670, 690.0820
715.0210, 704.0137
716.1740, 811.8809
717.3270, 863.5059
718.4800, 947.5391
719.6330, 1137.006
720.7860, 1174.666
721.9380, 1259.322
723.0910, 1448.012
724.2430, 1718.688
725.3950, 2160.369
726.5470, 2436.072
727.6980, 2736.768
728.8500, 3263.443
730.0010, 3364.477
731.1530, 3467.156
732.3040, 3524.855
733.4550, 3156.537
734.6050, 2634.195
735.7560, 2444.834
736.9060, 1995.457
738.0560, 1741.057
739.2060, 1613.635
740.3560, 1216.197
741.5060, 1095.586
742.6560, 700.2559
743.8050, 784.7539
744.9540, 489.2285
746.1030, 418.0352
747.2520, 457.4688
748.4010, 179.9629
749.5500, 492.3555
750.6980, 200.7227
751.8460, 160.0703
752.9950, 186.3945
754.1420, 98.69922
755.2900, 58.97656
756.4380, 31.23047
757.5850, 35.45703
758.7330, 44.34375
759.8800, 188.7930
761.0270, 18.90820
762.1730, 132.9902
763.3200, 1.050781
764.4670, 51.92773
765.6130, 13.02930
766.7590, 89.04883
767.9050, 111.7871
769.0510, 21.40430
770.1960, 221.6445
771.3420, 74.04492
772.4870, 232.4844
773.6320, 141.0117
774.7770, 187.3730
775.9220, 42.26367
777.0670, 62.03320
778.2110, 62.30078
779.3560, 79.53906
780.5000, 101.2520
781.6440, 48.14258
782.7880, 88.10352
783.9320, 80.15430
785.0750, 109.7070
786.2180, 33.53711
787.3620, 82.66406
788.5050, 161.0449
789.6480, 46.27539
790.7900, 119.6641
791.9330, 178.1621
793.0750, 54.80273
794.2170, 60.48047
795.3590, 50.44336
796.5010, 120.9492
797.6430, 92.13672
798.7850, 120.2949
799.9260, 98.42383
801.0670, 184.5234
802.2080, 207.5957
803.3490, 210.6426
804.4900, 305.6602
805.6310, 499.6504
806.7710, 241.6152
807.9110, 427.5527
809.0510, 423.4609
810.1910, 235.3438
811.3310, 288.1992
812.4710, 205.0254
813.6100, 80.82812
814.7490, 253.5938
815.8880, 45.33398
817.0270, 64.04102
818.1660, 200.7129
819.3050, 6.646484
820.4430, 94.94336
821.5820, 15.49805
822.7200, 75.00195
823.8580, 133.4707
824.9950, 81.91016
826.1330, 0.6835940
827.2710, 73.67188
828.4080, 107.0059
829.5450, 35.78906
830.6820, 44.24219
831.8190, 104.5684
832.9560, 15.40234
834.0920, 55.32812
835.2280, 122.2227
836.3650, 83.91406
837.5010, 24.85352
838.6360, 48.41797
839.7720, 153.2363
840.9080, 6.861328
842.0430, 81.54688
843.1780, 169.9531
844.3130, 69.57422
845.4480, 95.81055
846.5830, 63.16602
847.7170, 183.4863
848.8520, 34.78125
849.9860, 314.0371
851.1200, 115.7383
852.2540, 66.61914
853.3870, 203.4141
854.5210, 241.4219
855.6540, 131.3984
856.7880, 253.3477
857.9210, 356.2656
859.0540, 187.1562
860.1860, 432.0215
861.3190, 218.8535
862.4510, 359.6582
863.5840, 471.4375
864.7160, 399.1953
865.8480, 92.92578
866.9790, 480.6250
868.1110, 494.2930
869.2420, 221.9336
870.3740, 349.5801
871.5050, 390.2129
872.6360, 343.8184
873.7660, 312.4434
874.8970, 444.0449
876.0280, 350.6172
877.1580, 337.1719
878.2880, 271.7012
879.4180, 217.2031
880.5480, 306.6855
881.6770, 88.14062
882.8070, 339.5664
883.9360, 150.9648
885.0650, 342.3398
886.1940, 318.6934
887.3230, 337.0547
888.4520, 280.3945
889.5800, 514.7070
890.7090, 422.1094
891.8370, 495.9629
892.9650, 411.6602
894.0930, 454.3672
895.2200, 491.6465
896.3480, 721.8066
897.4750, 662.1816
898.6020, 1021.334
899.7290, 983.2207
900.8560, 859.7344
901.9830, 1192.846
903.1090, 1268.902
904.2360, 1386.842
905.3620, 1697.020
906.4880, 1789.570
907.6140, 1945.809
908.7400, 1956.277
909.8650, 2263.727
910.9900, 2266.635
912.1160, 2551.184
913.2410, 2649.566
914.3660, 2750.918
915.4900, 3006.389
916.6150, 2993.049
917.7390, 2979.996
918.8640, 3277.395
919.9880, 3318.250
921.1120, 3764.789
922.2350, 3907.600
923.3590, 3822.188
924.4820, 4465.879
925.6060, 4761.684
926.7290, 4706.848
927.8520, 4587.311
928.9740, 4845.488
930.0970, 4677.490
931.2190, 4449.348
932.3420, 4438.746
933.4640, 4004.963
934.5860, 3642.330
935.7080, 3433.568
936.8290, 3011.129
937.9510, 2881.678
939.0720, 2661.219
940.1930, 2462.746
941.3140, 2339.262
942.4350, 2066.768
943.5560, 2115.262
944.6760, 2221.750
945.7960, 1957.227
946.9170, 1917.691
948.0370, 1673.146
949.1560, 1591.062
950.2760, 1763.498
951.3960, 1708.016
952.5150, 1669.752
953.6340, 1657.160
954.7530, 1753.918
955.8720, 1572.879
956.9910, 1415.055
958.1090, 1581.828
959.2280, 1389.969
960.3460, 1379.779
961.4640, 1469.838
962.5820, 1107.562
963.6990, 1182.928
964.8170, 1260.758
965.9340, 1162.049
967.0510, 1008.551
968.1690, 1015.418
969.2850, 1004.924
970.4020, 1177.945
971.5190, 1271.744
972.6350, 1022.812
973.7510, 1287.844
974.8670, 1132.980
975.9830, 1021.971
977.0990, 1207.938
978.2150, 1192.139
979.3300, 924.8730
980.4450, 952.7363
981.5600, 874.3281
982.6750, 645.5859
983.7900, 684.8535
984.9050, 644.1367
986.0190, 619.0430
987.1340, 579.0488
988.2480, 514.6406
989.3620, 528.6133
990.4750, 390.6660
991.5890, 346.9512
992.7020, 317.2402
993.8160, 248.1602
994.9290, 264.7422
996.0420, 195.1152
997.1550, 292.6797
998.2670, 318.5918
999.3800, 338.8906
1000.492, 486.8242
1001.604, 466.6504
1002.716, 496.8203
1003.828, 488.7539
1004.940, 511.7637
1006.051, 460.0820
1007.163, 498.2871
1008.274, 457.6094
1009.385, 455.5059
1010.496, 534.9766
1011.606, 479.3086
1012.717, 432.6445
1013.827, 505.8652
1014.937, 601.2070
1016.047, 429.1973
1017.157, 352.5449
1018.267, 430.3340
1019.377, 393.6895
1020.486, 352.2305
1021.595, 241.0469
1022.704, 301.4121
1023.813, 246.7793
1024.922, 184.1523
1026.030, 248.7715
1027.139, 217.1562
1028.247, 126.5488
1029.355, 300.9609
1030.463, 140.8652
1031.571, 182.0508
1032.678, 232.4863
1033.786, 297.9863
1034.893, 357.5781
1036.000, 190.2422
1037.107, 274.9434
1038.214, 230.7051
1039.321, 251.6035
1040.427, 294.5742
1041.533, 537.6113
1042.639, 557.6602
1043.745, 463.7598
1044.851, 317.8633
1045.957, 617.9922
1047.062, 620.1270
1048.168, 893.2715
1049.273, 868.4258
1050.378, 1049.619
1051.482, 1018.844
1052.587, 1195.104
1053.692, 1189.400
1054.796, 1354.703
1055.900, 1635.020
1057.004, 1491.373
1058.108, 1616.732
1059.212, 1672.121
1060.315, 1605.557
1061.418, 1880.057
1062.522, 1961.590
1063.625, 2005.129
1064.728, 1832.680
1065.830, 1863.238
1066.933, 1598.803
1068.035, 1586.379
1069.137, 1790.961
1070.239, 1401.551
1071.341, 1544.145
1072.443, 1313.748
1073.545, 932.3594
1074.646, 1348.977
1075.747, 1203.600
1076.848, 1037.230
1077.949, 996.8672
1079.050, 859.5117
1080.150, 883.1641
1081.251, 894.8223
1082.351, 875.4922
1083.451, 593.1680
1084.551, 824.8535
1085.651, 549.5508
1086.750, 640.2559
1087.850, 556.9805
1088.949, 469.7148
1090.048, 417.4707
1091.147, 491.2402
1092.246, 683.0137
1093.345, 307.7988
1094.443, 501.6016
1095.541, 261.4180
1096.639, 155.2773
1097.737, 319.1680
1098.835, 385.0859
1099.933, 232.0508
1101.030, 256.0312
1102.128, 176.0215
1103.225, 226.0215
1104.322, 438.0625
1105.419, 97.11523
1106.515, 81.20117
1107.612, 72.70508
1108.708, 146.3809
1109.804, 113.5078
1110.900, 164.6406
1111.996, 191.8105
1113.092, 246.9902
1114.187, 291.1797
1115.283, 155.3750
1116.378, 205.5840
1117.473, 193.8008
1118.568, 9.062500
1119.662, 91.36133
1120.757, 346.6699
1121.851, 82.98438
1122.946, 200.3066
1124.040, 371.6348
1125.134, 122.9727
1126.227, 135.3145
1127.321, 234.6660
1128.414, 9.976563
1129.508, 44.61914
1130.601, 175.7344
1131.693, 176.0918
1132.786, 45.45898
1133.879, 245.8320
1134.971, 148.7871
1136.064, 62.47070
1137.156, 234.8340
1138.248, 208.8574
1139.339, 179.3516
1140.431, 172.5723
1141.522, 60.20312
1142.614, 97.00391
1143.705, 215.2148
1144.796, 43.56641
1145.887, 15.63867
1146.977, 89.85352
1148.068, 34.07031
1149.158, 34.70312
1150.248, 95.51367
1151.338, 143.2637
1152.428, 32.10547
1153.518, 185.0430
1154.607, 34.19922
1155.696, 237.3613
1156.785, 2.472656
1157.874, 66.69727
1158.963, 23.87305
1160.052, 145.0547
1161.141, 79.75781
1162.229, 99.60742
1163.317, 147.6074
1164.405, 305.3398
1165.493, 102.8750
1166.581, 324.3242
1167.668, 92.79688
1168.756, 196.5918
1169.843, 312.8145
1170.930, 153.9414
1172.017, 360.1426
1173.103, 102.7988
1174.190, 187.9238
1175.276, 452.0508
1176.363, 369.1758
1177.449, 233.2988
1178.535, 325.4219
1179.620, 365.5430
1180.706, 166.6855
1181.791, 321.8301
1182.877, 502.9727
1183.962, 302.1133
1185.047, 315.2539
1186.131, 417.3906
1187.216, 449.5234
1188.300, 601.6582
1189.385, 561.7891
1190.469, 296.9180
1191.553, 665.0430
1192.637, 485.1680
1193.720, 373.2891
1194.804, 550.4062
1195.887, 649.5234
1196.970, 558.6328
1198.053, 687.7422
1199.136, 496.8477
1200.219, 373.9512
1201.301, 773.0508
1202.383, 942.1484
1203.465, 489.2402
1204.547, 1084.330
1205.629, 553.4141
1206.711, 860.4961
1207.792, 648.5762
1208.874, 707.6504
1209.955, 568.7207
1211.036, 569.7891
1212.117, 687.8535
1213.198, 661.9141
1214.278, 760.9707
1215.359, 677.0234
1216.439, 773.0723
1217.519, 790.1172
1218.599, 773.1562
1219.678, 398.1934
1220.758, 940.2246
1221.837, 363.2520
1222.917, 442.2754
1223.996, 526.2949
1225.075, 377.3086
1226.153, 421.3164
1227.232, 417.1230
1228.310, 597.3203
1229.389, 460.3145
1230.467, 559.3047
1231.545, 647.2871
1232.622, 247.2637
1233.700, 537.2363
1234.777, 712.2031
1235.855, 471.1621
1236.932, 381.1172
1238.009, 960.5840
1239.086, 567.5254
1240.162, 855.4609
1241.239, 953.3906
1242.315, 607.3105
1243.391, 1004.230
1244.467, 1124.139
1245.543, 876.0410
1246.619, 976.9375
1247.694, 1044.828
1248.769, 1034.711
1249.844, 1062.588
1250.919, 1111.455
1251.994, 1100.316
1253.069, 1062.170
1254.144, 1116.818
1255.218, 1246.857
1256.292, 1130.688
1257.366, 1145.516
1258.440, 1039.064
1259.514, 1068.264
1260.587, 1059.184
1261.661, 967.8613
1262.734, 1020.650
1263.807, 1102.430
1264.880, 940.2031
1265.952, 739.2363
1267.025, 995.9941
1268.097, 800.8613
1269.170, 461.6074
1270.242, 853.3496
1271.314, 723.3730
1272.385, 358.1035
1273.457, 586.8281
1274.528, 694.6602
1275.600, 756.3730
1276.671, 527.0781
1277.742, 517.7793
1278.812, 378.9531
1279.883, 412.6406
1280.954, 502.1406
1282.024, 272.3613
1283.094, 430.0332
1284.164, 342.7012
1285.234, 527.3633
1286.303, 416.7773
1287.373, 445.6875
1288.442, 325.0742
1289.511, 374.7168
1290.580, 198.8672
1291.649, 31.74023
1292.718, 156.6465
1293.786, 201.1445
1294.855, 183.7773
1295.923, 54.45898
1296.991, 157.3105
1298.059, 403.1934
1299.126, 199.6816
1300.194, 84.44922
1301.261, 47.34766
1302.328, 227.1328
1303.395, 293.9141
1304.462, 175.6934
1305.529, 436.4688
1306.596, 469.2422
1307.662, 387.0234
1308.728, 583.4902
1309.794, 501.2656
1310.860, 372.0352
1311.926, 384.8047
1312.991, 368.5723
1314.057, 367.3359
1315.122, 325.1016
1316.187, 476.8652
1317.252, 449.4453
1318.317, 396.3867
1319.381, 553.1426
1320.446, 531.8926
1321.510, 661.6406
1322.574, 609.0918
1323.638, 349.1152
1324.702, 482.8457
1325.766, 463.5684
1326.829, 390.2891
1327.892, 567.0020
1328.956, 558.7109
1330.019, 383.4121
1331.081, 358.1113
1332.144, 485.8047
1333.206, 486.4941
1334.269, 519.1758
1335.331, 458.8516
1336.393, 373.5234
1337.455, 364.1875
1338.516, 601.8496
1339.578, 319.5039
1340.639, 334.1562
1341.701, 641.8008
1342.762, 303.4434
1343.822, 483.0781
1344.883, 329.7090
1345.944, 467.3340
1347.004, 416.9551
1348.064, 535.5703
1349.124, 480.1797
1350.184, 403.7871
1351.244, 319.3848
1352.304, 424.9805
1353.363, 157.5703
1354.422, 292.1582
1355.481, 492.7383
1356.540, 357.3105
1357.599, 574.8750
1358.657, 155.4336
1359.716, 284.9883
1360.774, 202.5332
1361.832, 505.0781
1362.890, 193.6172
1363.948, 410.1504
1365.006, 321.6797
1366.063, 280.2148
1367.120, 457.7461
1368.178, 400.2715
1369.234, 397.7910
1370.291, 399.3086
1371.348, 630.8203
1372.404, 237.3262
1373.461, 618.8340
1374.517, 400.3398
1375.573, 348.8477
1376.629, 292.3555
1377.684, 296.9727
1378.740, 396.3281
1379.795, 400.7930
1380.850, 274.3574
1381.905, 251.8242
1382.960, 460.2910
1384.015, 300.7578
1385.070, 537.2246
1386.124, 226.6934
1387.178, 261.1719
1388.232, 323.6523
1389.286, 289.1328
1390.340, 489.6133
1391.393, 279.0977
1392.447, 7.615234
1393.500, 484.1484
1394.553, 384.6797
1395.606, 132.2637
1396.659, 441.8516
1397.711, 349.9297
1398.764, 263.5352
1399.816, 420.1465
1400.868, 367.7598
1401.920, 69.38867
1402.972, 401.0195
1404.023, 322.6543
1405.075, 266.2969
1406.126, 477.9531
1407.177, 460.6152
1408.228, 268.3164
1409.279, 432.0352
1410.330, 367.7598
1411.380, 583.4941
1412.431, 385.2363
1413.481, 277.9902
1414.531, 581.7500
1415.580, 376.5195
1416.630, 578.3027
1417.680, 344.1191
1418.729, 241.8633
1419.778, 378.1113
1420.827, 325.5742
1421.876, 384.1367
1422.925, 407.6914
1423.973, 386.2520
1425.022, 198.7852
1426.070, 352.7461
1427.118, 213.6562
1428.166, 190.1289
1429.214, 509.1582
1430.261, 524.3594
1431.309, 163.4434
1432.356, 490.5527
1433.403, 672.0684
1434.450, 113.7598
1435.497, 352.4180
1436.543, 300.6367
1437.590, 118.8926
1438.636, 327.1895
1439.682, 381.5215
1440.728, 231.5996
1441.774, 363.8066
1442.819, 487.0195
1443.865, 298.6953
1444.910, 377.7168
1445.955, 456.4648
1447.000, 244.9473
1448.045, 286.6133
1449.090, 323.2734
1450.134, 349.9297
1451.178, 358.5840
1452.223, 310.2363
1453.267, 337.8848
1454.310, 183.5273
1455.354, 350.1719
1456.398, 217.8105
1457.441, 329.4473
1458.484, 284.0801
1459.527, 292.7090
1460.570, 295.3379
1461.613, 269.9453
1462.655, 264.6016
1463.698, 246.2070
1464.740, 229.8281
1465.782, 226.4414
1466.824, 216.0586
1467.866, 412.6719
1468.907, 379.2852
1469.948, 411.4062
1470.990, 383.5039
1472.031, 374.1133
1473.072, 316.7148
1474.112, 234.3164
1475.153, 254.9180
1476.194, 207.5156
1477.234, 374.1133
1478.274, 337.7031
1479.314, 201.3008
1480.354, 396.8906
1481.393, 385.4844
1482.433, 139.7227
1483.472, 254.2969
1484.511, 372.8594
1485.550, 526.4062
1486.589, 224.9492
1487.628, 293.4883
1488.666, 378.0156
1489.704, 136.5352
1490.743, 375.0430
1491.781, 239.5391
1492.819, 237.0234
1493.856, 404.4922
1494.894, 405.9414
1495.931, 194.4883
1496.968, 373.4297
1498.005, 298.5625
1499.042, 414.2031
1500.079, 417.9844
1501.115, 428.7852
1502.152, 26.58984
1503.188, 239.9883
1504.224, 230.6211
1505.260, 10.75391
1506.296, 237.8711
1507.331, 279.4883
1508.367, 139.0977
1509.402, 189.7266
1510.437, 229.3789
1511.472, 110.0586
1512.507, 82.76562
1513.541, 587.4961
1514.576, 437.2617
1515.610, 205.0625
1516.644, 513.8984
1517.678, 36.76172
1518.712, 216.6719
1519.746, 405.6172
1520.779, 88.60547
1521.813, 29.35938
1522.846, 399.7227
1523.879, 204.8594
1524.912, 155.0469
1525.944, 363.2969
1526.977, 367.6250
1528.009, 249.0508
1529.041, 404.5469
1530.073, 311.1289
1531.105, 162.7969
1532.137, 251.5664
1533.168, 264.4336
1534.200, 338.4180
1535.231, 359.4805
1536.262, 386.6016
1537.293, 399.3945
1538.324, 11.13672
1539.354, 318.8164
1540.385, 242.6133
1541.415, 39.53125
1542.445, 219.5703
1543.475, 27.75391
1544.505, 101.0859
1545.534, 263.5781
1546.564, 273.7852
1547.593, 340.4883
1548.622, 275.4609
1549.651, 327.5938
1550.680, 277.9492
1551.708, 113.5312
1552.737, 303.3516
1553.765, 10.43750
1554.793, 54.82031
1555.821, 370.4961
1556.849, 31.51953
1557.877, 260.7930
1558.904, 215.5977
1559.932, 402.9609
1560.959, 357.8281
1561.986, 355.2656
1563.013, 226.9805
1564.039, 1.238281
1565.066, 342.9961
1566.092, 592.3984
1567.119, 11.17188
1568.145, 390.7852
1569.170, 157.6445
1570.196, 0.0000000E+00
##END=



