##NAMES=Inyoite
##RRUFFID=R040161
##IDEAL CHEMISTRY=CaB_3_O_3_(OH)_5_&#183;4H_2_O
##LOCALITY=Kramer deposit, Boron, Kern County, California, USA
##OWNER=RRUFF
##SOURCE=University of Arizona Mineral Museum
##DESCRIPTION=Group of colorless indistinct rounded crystals
##STATUS=The identification of this mineral has been confirmed by X-ray diffraction and chemical analysis
##URL=rruff.info/R040161
##MEASURED CHEMISTRY=Ca_1.00_B_3.00_O_3_(OH)_5_Â·4H_2_O
##PIN_ID=L00078
##ORIENTATION=Laser parallel to -c* (0 0 -1). Fiducial mark perpendicular to laser is parallel to a [1 0 0]
93.15500, 0.0000000E+00
94.39300, 1.742676
95.63100, 23.43652
96.86900, 19.62061
98.10600, 173.4194
99.34400, 481.0469
100.5810, 792.0659
101.8190, 1064.668
103.0560, 1283.873
104.2930, 1504.186
105.5290, 1261.446
106.7660, 1206.752
108.0020, 953.4609
109.2390, 868.0752
110.4750, 559.1406
111.7110, 467.2515
112.9460, 400.0513
114.1820, 466.2251
115.4170, 450.5049
116.6530, 459.6592
117.8880, 504.4932
119.1230, 514.8584
120.3580, 700.7778
121.5920, 984.3071
122.8270, 1133.372
124.0610, 1255.796
125.2950, 1452.414
126.5290, 1908.087
127.7630, 2336.700
128.9970, 2933.154
130.2300, 3572.361
131.4640, 4356.234
132.6970, 4773.695
133.9300, 4656.687
135.1630, 4248.160
136.3950, 3513.078
137.6280, 3013.409
138.8600, 2724.125
140.0920, 2684.203
141.3240, 2745.353
142.5560, 3063.144
143.7880, 3496.420
145.0190, 4192.440
146.2510, 5066.922
147.4820, 6013.123
148.7130, 7000.512
149.9440, 7656.836
151.1750, 7855.617
152.4050, 7318.382
153.6360, 5787.045
154.8660, 4309.621
156.0960, 3301.121
157.3260, 2775.554
158.5560, 2289.932
159.7850, 2061.259
161.0150, 2039.542
162.2440, 2094.789
163.4730, 2211.006
164.7020, 2338.197
165.9310, 2536.368
167.1590, 2862.475
168.3880, 3126.373
169.6160, 3334.130
170.8440, 3949.796
172.0720, 4388.402
173.3000, 4665.975
174.5280, 5030.534
175.7550, 5166.094
176.9820, 5170.668
178.2100, 5306.264
179.4370, 5554.891
180.6630, 5819.556
181.8900, 6368.263
183.1170, 7039.019
184.3430, 7729.823
185.5690, 8787.680
186.7950, 9857.592
188.0210, 11189.56
189.2470, 12618.59
190.4720, 13878.67
191.6970, 15030.81
192.9230, 15574.01
194.1480, 15761.51
195.3730, 14947.25
196.5970, 13462.41
197.8220, 11692.60
199.0460, 9623.854
200.2700, 8262.735
201.4940, 6689.070
202.7180, 5751.410
203.9420, 4797.576
205.1660, 3902.080
206.3890, 3403.955
207.6120, 3165.027
208.8350, 2833.837
210.0580, 2425.354
211.2810, 1976.705
212.5040, 1722.140
213.7260, 1584.656
214.9480, 1294.256
216.1700, 1080.933
217.3920, 884.6895
218.6140, 875.5215
219.8360, 733.4229
221.0570, 768.3867
222.2790, 644.4092
223.5000, 623.4854
224.7210, 390.6113
225.9410, 553.7871
227.1620, 482.0127
228.3820, 349.2881
229.6030, 420.6123
230.8230, 378.9863
232.0430, 411.4102
233.2630, 304.8818
234.4820, 406.4043
235.7020, 381.9746
236.9210, 332.5947
238.1400, 403.2627
239.3590, 287.9795
240.5780, 259.8350
241.7970, 251.7959
243.0150, 237.4150
244.2340, 188.4580
245.4520, 153.3389
246.6700, 85.70801
247.8880, 236.5010
249.1060, 117.6699
250.3230, 92.17188
251.5400, 287.9727
252.7580, 185.0459
253.9750, 257.3672
255.1920, 275.9131
256.4080, 155.6670
257.6250, 381.6143
258.8410, 345.7383
260.0580, 558.0264
261.2740, 650.4678
262.4900, 516.0527
263.7050, 745.7734
264.9210, 730.6191
266.1360, 714.5850
267.3520, 937.6641
268.5670, 992.8477
269.7820, 1125.131
270.9960, 1193.503
272.2110, 1150.962
273.4250, 992.5020
274.6400, 1124.119
275.8540, 1021.809
277.0680, 1047.567
278.2810, 992.3936
279.4950, 824.2832
280.7090, 798.2324
281.9220, 673.2412
283.1350, 537.3076
284.3480, 627.4307
285.5610, 276.6055
286.7730, 256.8320
287.9860, 254.1084
289.1980, 265.4346
290.4100, 115.8086
291.6220, 134.2246
292.8340, 20.67871
294.0460, 68.15723
295.2570, 3.661133
296.4690, 164.8223
297.6800, 104.3281
298.8910, 176.8457
300.1020, 133.3906
301.3120, 151.9502
302.5230, 259.5322
303.7330, 135.1582
304.9440, 170.8018
306.1540, 263.4688
307.3630, 243.1826
308.5730, 188.9385
309.7830, 152.7217
310.9920, 119.5273
312.2010, 72.34570
313.4100, 168.1650
314.6190, 104.0078
315.8280, 201.8604
317.0370, 106.7412
318.2450, 46.57715
319.4530, 67.46191
320.6610, 58.34473
321.8690, 23.10352
323.0770, 3.973633
324.2850, 150.1699
325.4920, 51.33789
326.6990, 101.3291
327.9060, 246.5459
329.1130, 166.7861
330.3200, 173.0508
331.5270, 256.3408
332.7330, 80.65625
333.9390, 220.9941
335.1450, 264.3564
336.3510, 234.7441
337.5570, 228.1543
338.7630, 232.5889
339.9680, 448.0459
341.1740, 212.4580
342.3790, 339.7910
343.5840, 218.0449
344.7890, 383.1855
345.9930, 446.2041
347.1980, 369.1006
348.4020, 435.9277
349.6060, 341.6953
350.8100, 579.3828
352.0140, 702.0371
353.2180, 567.6670
354.4210, 495.2979
355.6250, 686.9619
356.8280, 755.6582
358.0310, 923.3896
359.2340, 1044.156
360.4360, 1189.984
361.6390, 1147.787
362.8410, 1545.652
364.0430, 1836.551
365.2450, 2107.483
366.4470, 2640.448
367.6490, 2848.446
368.8510, 3179.476
370.0520, 3734.539
371.2530, 4036.635
372.4540, 4288.764
373.6550, 4643.926
374.8560, 4917.118
376.0560, 4747.348
377.2570, 4666.605
378.4570, 4731.896
379.6570, 4537.221
380.8570, 4547.577
382.0570, 4573.968
383.2560, 4763.412
384.4560, 4976.889
385.6550, 5063.439
386.8540, 5358.061
388.0530, 5645.760
389.2520, 5765.524
390.4510, 5324.381
391.6490, 5412.314
392.8470, 4838.303
394.0450, 4603.336
395.2430, 4233.412
396.4410, 3838.546
397.6390, 3551.721
398.8360, 3449.960
400.0340, 3245.240
401.2310, 3436.556
402.4280, 3336.907
403.6250, 3360.293
404.8210, 3623.729
406.0180, 3767.196
407.2140, 3852.697
408.4100, 3745.229
409.6060, 3528.791
410.8020, 3393.385
411.9980, 3133.009
413.1930, 2889.662
414.3890, 2426.346
415.5840, 2170.060
416.7790, 1950.803
417.9740, 1663.574
419.1680, 1483.376
420.3630, 1335.205
421.5570, 1301.063
422.7510, 1057.951
423.9450, 891.8652
425.1390, 913.8096
426.3330, 786.7803
427.5270, 794.7812
428.7200, 640.8086
429.9130, 637.8643
431.1060, 647.9482
432.2990, 577.0586
433.4920, 592.1982
434.6840, 605.3643
435.8770, 542.5586
437.0690, 487.6182
438.2610, 381.8652
439.4530, 344.2939
440.6450, 344.3643
441.8360, 451.4971
443.0280, 195.8232
444.2190, 463.4326
445.4100, 266.0303
446.6010, 200.7373
447.7920, 212.1758
448.9820, 137.6416
450.1730, 233.0352
451.3630, 227.5049
452.5530, 216.8994
453.7430, 303.2402
454.9330, 259.3604
456.1230, 93.83691
457.3120, 229.2803
458.5010, 135.1504
459.6910, 355.7314
460.8800, 1.545898
462.0680, 205.1904
463.2570, 176.8779
464.4460, 8.977539
465.6340, 169.9287
466.8220, 31.79688
468.0100, 114.8350
469.1980, 42.29980
470.3860, 98.79980
471.5730, 137.9346
472.7600, 254.1045
473.9480, 266.3086
475.1350, 283.3584
476.3210, 190.8232
477.5080, 252.1348
478.6950, 177.4795
479.8810, 124.8604
481.0670, 144.2754
482.2530, 300.7256
483.4390, 250.2100
484.6250, 260.7305
485.8100, 181.2861
486.9960, 314.8779
488.1810, 284.5068
489.3660, 216.1719
490.5510, 222.8760
491.7360, 190.6172
492.9200, 240.3984
494.1050, 200.2178
495.2890, 332.0762
496.4730, 421.9746
497.6570, 454.9111
498.8400, 417.8887
500.0240, 439.9043
501.2070, 363.9639
502.3910, 347.4111
503.5740, 308.2041
504.7570, 247.3887
505.9400, 241.6162
507.1220, 142.9014
508.3050, 134.2314
509.4870, 69.60156
510.6690, 179.0176
511.8510, 116.4717
513.0330, 133.9717
514.2140, 86.50977
515.3960, 289.1074
516.5770, 145.7490
517.7580, 283.4395
518.9390, 268.1660
520.1200, 406.9424
521.3010, 466.7588
522.4810, 491.6113
523.6610, 497.5215
524.8420, 452.7051
526.0220, 471.7461
527.2010, 496.2246
528.3810, 584.3115
529.5610, 714.1113
530.7400, 725.1270
531.9190, 777.2568
533.0980, 704.4629
534.2770, 746.2227
535.4560, 727.9355
536.6340, 761.3301
537.8120, 740.2051
538.9910, 643.0713
540.1690, 680.8721
541.3460, 656.9805
542.5240, 597.5371
543.7020, 664.6250
544.8790, 739.2754
546.0560, 731.4902
547.2330, 622.2041
548.4100, 628.9512
549.5870, 612.7285
550.7630, 615.5518
551.9400, 848.4092
553.1160, 528.3223
554.2920, 644.2861
555.4680, 617.2803
556.6440, 873.3174
557.8190, 616.3945
558.9950, 728.5137
560.1700, 805.6787
561.3450, 746.8760
562.5200, 902.1094
563.6950, 945.3809
564.8690, 968.6963
566.0440, 1050.077
567.2180, 1166.508
568.3920, 1292.966
569.5660, 1218.455
570.7400, 1492.972
571.9130, 1448.545
573.0870, 1578.147
574.2600, 1621.785
575.4330, 1779.447
576.6060, 1833.137
577.7790, 2048.852
578.9520, 2242.598
580.1240, 2371.369
581.2960, 2498.431
582.4690, 2428.041
583.6410, 2675.962
584.8120, 2715.954
585.9840, 2807.005
587.1560, 3068.121
588.3270, 3101.326
589.4980, 3395.590
590.6690, 3460.923
591.8400, 3753.346
593.0110, 4090.853
594.1810, 4549.434
595.3510, 5053.078
596.5220, 5476.781
597.6920, 6045.529
598.8610, 6921.348
600.0310, 7877.219
601.2010, 9092.165
602.3700, 10333.11
603.5390, 12374.15
604.7080, 14388.24
605.8770, 16792.25
607.0460, 19638.41
608.2140, 23174.61
609.3830, 26659.82
610.5510, 30891.27
611.7190, 35088.53
612.8870, 38458.80
614.0550, 41518.11
615.2220, 42725.43
616.3900, 42207.75
617.5570, 39250.12
618.7240, 34556.50
619.8910, 29447.89
621.0580, 23947.30
622.2240, 18960.74
623.3910, 15206.19
624.5570, 12093.67
625.7230, 9712.148
626.8890, 7798.652
628.0550, 6342.172
629.2200, 5151.707
630.3860, 4454.258
631.5510, 3547.823
632.7160, 3112.406
633.8810, 2590.004
635.0460, 2442.617
636.2100, 1880.244
637.3750, 1530.885
638.5390, 1540.539
639.7030, 1289.208
640.8670, 1126.714
642.0310, 1172.408
643.1950, 1015.276
644.3580, 731.7168
645.5210, 674.3516
646.6850, 614.4248
647.8480, 682.6475
649.0100, 565.5137
650.1730, 426.9912
651.3350, 398.7773
652.4980, 316.2148
653.6600, 202.1025
654.8220, 205.8760
655.9840, 326.2510
657.1450, 62.18262
658.3070, 51.07227
659.4680, 228.4561
660.6300, 109.9043
661.7910, 106.7607
662.9510, 141.9365
664.1120, 103.7676
665.2730, 76.85156
666.4330, 66.31738
667.5930, 39.45996
668.7530, 104.8096
669.9130, 54.06836
671.0730, 192.7881
672.2320, 124.5508
673.3920, 44.08984
674.5510, 5.129883
675.7100, 97.16992
676.8690, 81.24902
678.0280, 1.747070
679.1860, 108.9736
680.3450, 7.441406
681.5030, 34.99316
682.6610, 2.543945
683.8190, 35.54004
684.9770, 56.63867
686.1340, 89.97852
687.2920, 215.1211
688.4490, 60.63477
689.6060, 243.6338
690.7630, 30.15430
691.9200, 275.5596
693.0760, 91.94531
694.2330, 105.4980
695.3890, 212.1621
696.5450, 113.8271
697.7010, 187.5371
698.8570, 217.5801
700.0130, 314.0049
701.1680, 267.8994
702.3230, 366.7832
703.4780, 436.7998
704.6330, 429.7783
705.7880, 502.1885
706.9430, 500.7832
708.0970, 563.8516
709.2520, 735.3564
710.4060, 847.3887
711.5600, 1015.524
712.7140, 981.5078
713.8670, 1063.748
715.0210, 1324.981
716.1740, 1486.205
717.3270, 1727.827
718.4800, 1977.221
719.6330, 2264.485
720.7860, 2635.674
721.9380, 3092.690
723.0910, 3517.014
724.2430, 4199.164
725.3950, 4768.300
726.5470, 5458.420
727.6980, 6062.545
728.8500, 6918.652
730.0010, 7313.748
731.1530, 7118.826
732.3040, 6751.889
733.4550, 6120.933
734.6050, 5364.959
735.7560, 4515.969
736.9060, 3582.959
738.0560, 2757.932
739.2060, 2325.885
740.3560, 1795.819
741.5060, 1328.733
742.6560, 1425.628
743.8050, 1171.502
744.9540, 930.3555
746.1030, 1003.189
747.2520, 856.0000
748.4010, 675.7910
749.5500, 786.5645
750.6980, 624.3154
751.8460, 575.0459
752.9950, 451.0225
754.1420, 673.8145
755.2900, 466.8457
756.4380, 560.5547
757.5850, 526.1758
758.7330, 409.6465
759.8800, 564.2207
761.0270, 386.0908
762.1730, 356.6162
763.3200, 366.1191
764.4670, 330.5977
765.6130, 467.0518
766.7590, 315.4814
767.9050, 294.8867
769.0510, 436.2676
770.1960, 328.0576
771.3420, 409.3887
772.4870, 322.6934
773.6320, 262.9736
774.7770, 232.2285
775.9220, 319.5244
777.0670, 226.7266
778.2110, 78.90234
779.3560, 164.0459
780.5000, 65.15918
781.6440, 89.23828
782.7880, 79.96973
783.9320, 8.022461
785.0750, 56.65430
786.2180, 146.8262
787.3620, 49.70117
788.5050, 206.5352
789.6480, 53.33789
790.7900, 156.0996
791.9330, 15.16602
793.0750, 59.49609
794.2170, 41.11523
795.3590, 167.6875
796.5010, 30.23047
797.6430, 114.7227
798.7850, 195.1816
799.9260, 2.388672
801.0670, 12.97461
802.2080, 91.94531
803.3490, 184.2422
804.4900, 167.0020
805.6310, 94.16211
806.7710, 211.6094
807.9110, 19.84766
809.0510, 95.96875
810.1910, 28.98633
811.3310, 104.4902
812.4710, 78.01953
813.6100, 146.8652
814.7490, 232.0684
815.8880, 115.6230
817.0270, 133.0762
818.1660, 215.2266
819.3050, 69.07031
820.4430, 80.07812
821.5820, 101.6621
822.7200, 117.6836
823.8580, 71.20703
824.9950, 131.6992
826.1330, 15.83984
827.2710, 48.56250
828.4080, 54.07227
829.5450, 37.78516
830.6820, 129.4297
831.8190, 10.38477
832.9560, 5.744141
834.0920, 11.17578
835.2280, 16.57031
836.3650, 54.81055
837.5010, 29.73633
838.6360, 1.619141
839.7720, 16.54688
840.9080, 95.77148
842.0430, 39.09961
843.1780, 122.5000
844.3130, 77.11133
845.4480, 131.6465
846.5830, 65.84766
847.7170, 69.98828
848.8520, 22.37305
849.9860, 180.7148
851.1200, 189.7188
852.2540, 275.0059
853.3870, 96.75586
854.5210, 323.9844
855.6540, 160.1816
856.7880, 250.3516
857.9210, 381.4961
859.0540, 204.6133
860.1860, 219.7012
861.3190, 300.7988
862.4510, 302.8320
863.5840, 363.1328
864.7160, 276.1074
865.8480, 375.0586
866.9790, 423.9805
868.1110, 516.8750
869.2420, 283.9844
870.3740, 344.8496
871.5050, 389.6875
872.6360, 416.5020
873.7660, 412.2891
874.8970, 415.7285
876.0280, 455.7891
877.1580, 378.5039
878.2880, 352.1895
879.4180, 325.8516
880.5480, 336.4883
881.6770, 271.0957
882.8070, 498.6797
883.9360, 398.2363
885.0650, 419.7676
886.1940, 365.2734
887.3230, 205.7480
888.4520, 132.1992
889.5800, 160.6172
890.7090, 121.0117
891.8370, 169.3789
892.9650, 189.7305
894.0930, 68.06055
895.2200, 275.3633
896.3480, 124.6387
897.4750, 360.8848
898.6020, 371.1680
899.7290, 414.3887
900.8560, 311.5859
901.9830, 228.7559
903.1090, 289.9238
904.2360, 224.0664
905.3620, 107.1855
906.4880, 325.2754
907.6140, 228.3418
908.7400, 205.3848
909.8650, 260.4043
910.9900, 164.4004
912.1160, 182.4004
913.2410, 327.3203
914.3660, 180.4180
915.4900, 187.3184
916.6150, 256.0371
917.7390, 70.16992
918.8640, 342.0938
919.9880, 364.5723
921.1120, 440.8848
922.2350, 334.5449
923.3590, 339.5820
924.4820, 316.3008
925.6060, 314.7715
926.7290, 342.5840
927.8520, 398.6387
928.9740, 392.7188
930.0970, 512.2285
931.2190, 527.7676
932.3420, 409.8008
933.4640, 666.7559
934.5860, 723.2891
935.7080, 474.4883
936.8290, 442.5566
937.9510, 400.2637
939.0720, 363.7461
940.1930, 443.1719
941.3140, 421.7793
942.4350, 352.2578
943.5560, 597.1699
944.6760, 253.0645
945.7960, 320.6875
946.9170, 529.7852
948.0370, 528.5273
949.1560, 428.9707
950.2760, 685.4590
951.3960, 797.6562
952.5150, 552.0527
953.6340, 676.5293
954.7530, 942.9590
955.8720, 627.7500
956.9910, 767.7871
958.1090, 619.9941
959.2280, 700.6602
960.3460, 459.9414
961.4640, 670.7168
962.5820, 565.9590
963.6990, 455.2949
964.8170, 455.6367
965.9340, 387.7930
967.0510, 339.8203
968.1690, 328.9102
969.2850, 270.3672
970.4020, 283.3750
971.5190, 209.5723
972.6350, 174.2852
973.7510, 175.9883
974.8670, 80.54102
975.9830, 177.1133
977.0990, 179.2344
978.2150, 41.15625
979.3300, 113.5840
980.4450, 268.5586
981.5600, 9.015625
982.6750, 79.28711
983.7900, 58.72461
984.9050, 19.11523
986.0190, 97.02930
987.1340, 69.83203
988.2480, 162.6914
989.3620, 112.7812
990.4750, 48.80664
991.5890, 37.88281
992.7020, 149.9551
993.8160, 89.01953
994.9290, 22.07812
996.0420, 156.1270
997.1550, 84.82812
998.2670, 155.1738
999.3800, 88.16992
1000.492, 233.1602
1001.604, 67.14453
1002.716, 7.875000
1003.828, 239.5469
1004.940, 256.5117
1006.051, 310.8340
1007.163, 228.0625
1008.274, 359.0117
1009.385, 226.6250
1010.496, 419.5645
1011.606, 341.7031
1012.717, 458.6348
1013.827, 358.0215
1014.937, 324.9414
1016.047, 327.8574
1017.157, 226.7715
1018.267, 407.6797
1019.377, 338.5820
1020.486, 102.4824
1021.595, 152.3789
1022.704, 29.99805
1023.813, 197.7812
1024.922, 34.63281
1026.030, 20.46289
1027.139, 90.45898
1028.247, 197.0957
1029.355, 250.9609
1030.463, 166.5059
1031.571, 9.248047
1032.678, 83.10938
1033.786, 31.96875
1034.893, 132.8672
1036.000, 229.5449
1037.107, 204.5332
1038.214, 257.3887
1039.321, 155.1035
1040.427, 310.1191
1041.533, 235.1289
1042.639, 362.1387
1043.745, 117.1484
1044.851, 93.08594
1045.957, 472.0918
1047.062, 261.0957
1048.168, 280.1016
1049.273, 225.1094
1050.378, 415.1172
1051.482, 422.4434
1052.587, 465.4590
1053.692, 418.4961
1054.796, 508.5352
1055.900, 478.5762
1057.004, 693.6250
1058.108, 625.6738
1059.212, 589.7285
1060.315, 787.7852
1061.418, 774.8633
1062.522, 762.9492
1063.625, 667.0449
1064.728, 938.1406
1065.830, 838.2500
1066.933, 791.3633
1068.035, 793.4785
1069.137, 498.6113
1070.239, 696.7598
1071.341, 517.9512
1072.443, 569.1465
1073.545, 589.3438
1074.646, 615.5430
1075.747, 302.7441
1076.848, 663.9570
1077.949, 346.1758
1079.050, 474.4180
1080.150, 256.6602
1081.251, 458.9082
1082.351, 349.1582
1083.451, 281.4082
1084.551, 144.6641
1085.651, 289.9180
1086.750, 219.1777
1087.850, 274.4668
1088.949, 184.7617
1090.048, 205.0566
1091.147, 141.3594
1092.246, 420.6641
1093.345, 123.9727
1094.443, 354.2988
1095.541, 287.6328
1096.639, 239.9922
1097.737, 279.3789
1098.835, 103.7656
1099.933, 302.1719
1101.030, 196.5898
1102.128, 311.0234
1103.225, 207.4805
1104.322, 165.9414
1105.419, 200.4121
1106.515, 252.8965
1107.612, 195.4004
1108.708, 193.9453
1109.804, 225.9746
1110.900, 233.0449
1111.996, 265.6230
1113.092, 390.2070
1114.187, 385.4062
1115.283, 90.02930
1116.378, 126.6641
1117.473, 243.6094
1118.568, 360.2480
1119.662, 394.4004
1120.757, 448.8496
1121.851, 463.7012
1122.946, 402.3594
1124.040, 436.0195
1125.134, 241.6855
1126.227, 237.3516
1127.321, 196.9863
1128.414, 99.66016
1129.508, 178.0488
1130.601, 198.7324
1131.693, 214.4219
1132.786, 136.1152
1133.879, 140.4395
1134.971, 103.7305
1136.064, 88.92578
1137.156, 11.41016
1138.248, 8.746094
1139.339, 144.9199
1140.431, 41.41211
1141.522, 80.24805
1142.614, 6.087891
1143.705, 170.5762
1144.796, 13.75195
1145.887, 7.917969
1146.977, 97.59375
1148.068, 26.27344
1149.158, 105.6484
1150.248, 18.65039
1151.338, 95.34375
1152.428, 21.04297
1153.518, 14.20898
1154.607, 109.4668
1155.696, 9.818359
1156.785, 47.09570
1157.874, 29.39062
1158.963, 17.68750
1160.052, 103.0156
1161.141, 52.72656
1162.229, 108.5566
1163.317, 63.74414
1164.405, 353.4219
1165.493, 127.3047
1166.581, 79.04492
1167.668, 214.8633
1168.756, 120.3574
1169.843, 43.62109
1170.930, 169.4590
1172.017, 141.1270
1173.103, 343.7969
1174.190, 155.4707
1175.276, 145.1504
1176.363, 154.8320
1177.449, 285.5156
1178.535, 256.2031
1179.620, 412.8945
1180.706, 266.5898
1181.791, 151.2891
1182.877, 204.9961
1183.962, 222.7070
1185.047, 319.4199
1186.131, 301.1387
1187.216, 159.8594
1188.300, 282.5820
1189.385, 210.0586
1190.469, 240.0410
1191.553, 186.7754
1192.637, 271.5137
1193.720, 248.2539
1194.804, 268.9824
1195.887, 309.7500
1196.970, 288.5020
1198.053, 380.2559
1199.136, 358.0156
1200.219, 262.7773
1201.301, 589.5410
1202.383, 453.3086
1203.465, 314.0801
1204.547, 542.8555
1205.629, 407.6348
1206.711, 520.4160
1207.792, 530.1992
1208.874, 388.9844
1209.955, 443.7734
1211.036, 588.5645
1212.117, 853.3594
1213.198, 482.1602
1214.278, 807.9609
1215.359, 541.7656
1216.439, 537.5742
1217.519, 564.3848
1218.599, 802.1992
1219.678, 732.0156
1220.758, 717.8359
1221.837, 687.6562
1222.917, 746.4805
1223.996, 681.3066
1225.075, 743.1387
1226.153, 643.9844
1227.232, 572.8203
1228.310, 486.6582
1229.389, 799.5000
1230.467, 586.3438
1231.545, 750.1914
1232.622, 463.0410
1233.700, 641.8945
1234.777, 542.7461
1235.855, 485.6016
1236.932, 638.4590
1238.009, 652.3203
1239.086, 522.1836
1240.162, 542.0488
1241.239, 315.9160
1242.315, 343.7852
1243.391, 534.6562
1244.467, 641.5312
1245.543, 498.4082
1246.619, 693.2871
1247.694, 744.1699
1248.769, 578.0566
1249.844, 676.9590
1250.919, 775.8652
1251.994, 511.7734
1253.069, 679.6816
1254.144, 764.5918
1255.218, 498.5039
1256.292, 593.4180
1257.366, 814.3340
1258.440, 608.2930
1259.514, 368.2734
1260.587, 599.2559
1261.661, 405.2402
1262.734, 571.2246
1263.807, 518.2109
1264.880, 643.7480
1265.952, 518.7402
1267.025, 428.3730
1268.097, 349.0957
1269.170, 266.0957
1270.242, 361.4297
1271.314, 137.4355
1272.385, 279.2402
1273.457, 343.2500
1274.528, 293.8008
1275.600, 124.8184
1276.671, 186.8379
1277.742, 247.8594
1278.812, 308.8848
1279.883, 125.9121
1280.954, 363.9453
1282.024, 266.9785
1283.094, 48.01562
1284.164, 240.0840
1285.234, 147.8125
1286.303, 183.8633
1287.373, 323.8164
1288.442, 139.2559
1289.511, 212.3398
1290.580, 253.4238
1291.649, 5.369141
1292.718, 11.71289
1293.786, 158.2012
1294.855, 186.2012
1295.923, 161.3594
1296.991, 27.19727
1298.059, 55.38672
1299.126, 16.60742
1300.194, 70.16406
1301.261, 176.9395
1302.328, 163.7188
1303.395, 155.5000
1304.462, 58.28320
1305.529, 99.07031
1306.596, 85.88281
1307.662, 168.6523
1308.728, 91.44531
1309.794, 262.2441
1310.860, 209.0410
1311.926, 384.8398
1312.991, 252.6426
1314.057, 207.4434
1315.122, 261.2480
1316.187, 246.0547
1317.252, 363.8613
1318.317, 475.6699
1319.381, 388.4785
1320.446, 371.2871
1321.510, 348.0957
1322.574, 398.9062
1323.638, 460.7188
1324.702, 326.5352
1325.766, 306.3555
1326.829, 230.1777
1327.892, 310.0039
1328.956, 440.8320
1330.019, 175.6621
1331.081, 557.4941
1332.144, 419.3320
1333.206, 254.1719
1334.269, 191.0137
1335.331, 428.8594
1336.393, 227.7051
1337.455, 403.5566
1338.516, 203.4062
1339.578, 297.2637
1340.639, 475.1230
1341.701, 341.9863
1342.762, 312.8516
1343.822, 218.7207
1344.883, 220.5898
1345.944, 91.46680
1347.004, 245.3457
1348.064, 166.2266
1349.124, 166.1094
1350.184, 297.9961
1351.244, 336.8848
1352.304, 320.7773
1353.363, 9.673828
1354.422, 290.5742
1355.481, 123.4746
1356.540, 281.3809
1357.599, 511.2891
1358.657, 171.2012
1359.716, 437.1133
1360.774, 396.0293
1361.832, 458.9473
1362.890, 469.8672
1363.948, 225.7930
1365.006, 343.7207
1366.063, 60.65039
1367.120, 442.5840
1368.178, 418.5195
1369.234, 227.4551
1370.291, 341.3945
1371.348, 293.3379
1372.404, 182.3633
1373.461, 220.3145
1374.517, 107.2676
1375.573, 228.2285
1376.629, 257.1934
1377.684, 283.2715
1378.740, 237.2441
1379.795, 316.2246
1380.850, 290.2090
1381.905, 251.7773
1382.960, 191.1914
1384.015, 151.1914
1385.070, 141.7305
1386.124, 94.76172
1387.178, 333.7617
1388.232, 132.7832
1389.286, 291.8125
1390.340, 309.8477
1391.393, 268.8887
1392.447, 192.9570
1393.500, 162.0352
1394.553, 85.11914
1395.606, 116.2129
1396.659, 171.3125
1397.711, 103.4258
1398.764, 315.5488
1399.816, 198.9414
1400.868, 225.0801
1401.920, 235.4902
1402.972, 177.6465
1404.023, 61.80859
1405.075, 282.9805
1406.126, 162.1582
1407.177, 238.3477
1408.228, 159.5449
1409.279, 244.7500
1410.330, 329.7324
1411.380, 170.9590
1412.431, 259.2812
1413.481, 272.5371
1414.531, 284.8066
1415.580, 271.0918
1416.630, 295.2246
1417.680, 327.9434
1418.729, 228.8672
1419.778, 424.0410
1420.827, 283.0195
1421.876, 324.2988
1422.925, 286.2520
1423.973, 252.8789
1425.022, 132.4824
1426.070, 159.5234
1427.118, 59.74414
1428.166, 176.0781
1429.214, 189.1387
1430.261, 380.4570
1431.309, 111.5820
1432.356, 78.69531
1433.403, 215.7168
1434.450, 170.7266
1435.497, 232.6777
1436.543, 132.5957
1437.590, 208.4883
1438.636, 289.3516
1439.682, 184.1719
1440.728, 251.3906
1441.774, 384.1484
1442.819, 289.8828
1443.865, 206.7031
1444.910, 155.3047
1445.955, 213.7988
1447.000, 137.1992
1448.045, 141.4277
1449.090, 250.6621
1450.134, 139.9023
1451.178, 288.1504
1452.223, 333.4043
1453.267, 194.6602
1454.310, 333.9258
1455.354, 284.1973
1456.398, 308.4727
1457.441, 83.75586
1458.484, 311.0449
1459.527, 200.3418
1460.570, 183.6465
1461.613, 307.9531
1462.655, 178.2676
1463.698, 320.5742
1464.740, 340.9023
1465.782, 113.2344
1466.824, 375.5742
1467.866, 409.9238
1468.907, 298.2754
1469.948, 119.6367
1470.990, 45.00391
1472.031, 71.37695
1473.072, 225.7578
1474.112, 201.1426
1475.153, 489.5352
1476.194, 414.9355
1477.234, 431.3398
1478.274, 192.7520
1479.314, 301.0625
1480.354, 237.3750
1481.393, 97.69336
1482.433, 84.01367
1483.472, 271.3340
1484.511, 183.6621
1485.550, 287.9883
1486.589, 301.3145
1487.628, 299.6406
1488.666, 246.9629
1489.704, 143.2852
1490.743, 450.6074
1491.781, 263.8535
1492.819, 405.0938
1493.856, 235.3281
1494.894, 219.5586
1495.931, 63.80078
1496.968, 36.26172
1498.005, 261.9688
1499.042, 182.7617
1500.079, 258.5762
1501.115, 329.4004
1502.152, 35.24023
1503.188, 454.0996
1504.224, 283.9766
1505.260, 170.8828
1506.296, 366.8125
1507.331, 144.7695
1508.367, 378.7578
1509.402, 138.2109
1510.437, 269.8516
1511.472, 105.9336
1512.507, 322.0410
1513.541, 353.1699
1514.576, 362.3281
1515.610, 169.5117
1516.644, 201.7207
1517.678, 297.9570
1518.712, 244.2227
1519.746, 360.5195
1520.779, 330.8477
1521.813, 126.2070
1522.846, 99.60352
1523.879, 42.67578
1524.912, 129.5020
1525.944, 46.01367
1526.977, 186.5684
1528.009, 341.1738
1529.041, 227.8340
1530.073, 669.5488
1531.105, 181.3281
1532.137, 293.1758
1533.168, 328.0977
1534.200, 60.17773
1535.231, 228.8789
1536.262, 95.99414
1537.293, 177.7676
1538.324, 274.9980
1539.354, 149.2988
1540.385, 343.0508
1541.415, 179.1387
1542.445, 330.2051
1543.475, 196.2422
1544.505, 228.2461
1545.534, 10.20312
1546.564, 169.0996
1547.593, 53.52148
1548.622, 260.7188
1549.651, 234.1973
1550.680, 120.5215
1551.708, 79.65039
1552.737, 77.39648
1553.765, 23.01562
1554.793, 45.98633
1555.821, 45.18555
1556.849, 101.8945
1557.877, 175.0000
1558.904, 247.3750
1559.932, 253.9316
1560.959, 224.5391
1561.986, 222.1562
1563.013, 130.2695
1564.039, 3.158203
1565.066, 38.12695
1566.092, 171.0156
1567.119, 8.314453
1568.145, 199.2500
1569.170, 29.54102
1570.196, 0.0000000E+00
##END=



