##NAMES=Inyoite
##RRUFFID=R040161
##IDEAL CHEMISTRY=CaB_3_O_3_(OH)_5_&#183;4H_2_O
##LOCALITY=Kramer deposit, Boron, Kern County, California, USA
##OWNER=RRUFF
##SOURCE=University of Arizona Mineral Museum
##DESCRIPTION=Group of colorless indistinct rounded crystals
##STATUS=The identification of this mineral has been confirmed by X-ray diffraction and chemical analysis
##URL=rruff.info/R040161
##MEASURED CHEMISTRY=Ca_1.00_B_3.00_O_3_(OH)_5_Â·4H_2_O
##PIN_ID=L00113
##ORIENTATION=Laser parallel to b* (0 1 0). Fiducial mark perpendicular to laser is parallel to c [0 0 1]
99.34400, 0.0000000E+00
100.5810, 43.49902
101.8190, 61.91602
103.0560, 35.31152
104.2930, 249.4336
105.5290, 152.0713
106.7660, 371.8662
108.0020, 539.3984
109.2390, 385.5918
110.4750, 578.1963
111.7110, 549.5098
112.9460, 722.2461
114.1820, 770.3994
115.4170, 1002.146
116.6530, 1095.805
117.8880, 1150.816
119.1230, 1306.699
120.3580, 1383.038
121.5920, 1689.468
122.8270, 1659.687
124.0610, 2035.492
125.2950, 1988.745
126.5290, 1875.234
127.7630, 1595.767
128.9970, 1603.175
130.2300, 1257.308
131.4640, 1136.037
132.6970, 1106.250
133.9300, 1275.845
135.1630, 1210.732
136.3950, 1226.826
137.6280, 1285.016
138.8600, 1565.195
140.0920, 1984.285
141.3240, 2266.219
142.5560, 2723.945
143.7880, 3041.416
145.0190, 3711.596
146.2510, 4381.602
147.4820, 5330.662
148.7130, 5942.885
149.9440, 6721.219
151.1750, 6849.111
152.4050, 6481.508
153.6360, 5546.395
154.8660, 4793.752
156.0960, 4678.561
157.3260, 4144.807
158.5560, 3749.473
159.7850, 3483.545
161.0150, 3430.014
162.2440, 3203.875
163.4730, 3282.119
164.7020, 3628.734
165.9310, 4071.711
167.1590, 4658.031
168.3880, 5162.686
169.6160, 6230.666
170.8440, 7071.961
172.0720, 7916.557
173.3000, 8751.064
174.5280, 9474.945
175.7550, 10208.50
176.9820, 10789.04
178.2100, 11373.64
179.4370, 11644.31
180.6630, 11478.09
181.8900, 10787.99
183.1170, 9773.023
184.3430, 8541.211
185.5690, 7340.559
186.7950, 6369.070
188.0210, 5463.758
189.2470, 5064.629
190.4720, 4750.820
191.6970, 4176.193
192.9230, 4142.822
194.1480, 3832.279
195.3730, 3548.699
196.5970, 3048.020
197.8220, 2846.076
199.0460, 2376.344
200.2700, 2106.621
201.4940, 1862.945
202.7180, 1641.453
203.9420, 1468.260
205.1660, 1291.211
206.3890, 1188.303
207.6120, 1011.535
208.8350, 1119.904
210.0580, 952.4082
211.2810, 857.0469
212.5040, 609.8164
213.7260, 811.7168
214.9480, 514.7441
216.1700, 518.9004
217.3920, 534.1816
218.6140, 316.5820
219.8360, 337.1055
221.0570, 523.8535
222.2790, 432.7773
223.5000, 361.8984
224.7210, 271.3086
225.9410, 295.8242
227.1620, 236.4453
228.3820, 251.1816
229.6030, 146.0098
230.8230, 174.9316
232.0430, 189.4141
233.2630, 271.0449
234.4820, 263.2324
235.7020, 274.5059
236.9210, 298.8633
238.1400, 493.3047
239.3590, 409.8281
240.5780, 417.4316
241.7970, 254.1133
243.0150, 107.8711
244.2340, 369.7051
245.4520, 422.6152
246.6700, 293.3477
247.8880, 321.6152
249.1060, 297.9180
250.3230, 745.4688
251.5400, 572.7012
252.7580, 816.6855
253.9750, 888.3223
255.1920, 982.5410
256.4080, 1080.283
257.6250, 1113.496
258.8410, 1063.146
260.0580, 1103.713
261.2740, 1087.219
262.4900, 1079.414
263.7050, 1027.520
264.9210, 1006.957
266.1360, 875.6875
267.3520, 512.6777
268.5670, 713.9277
269.7820, 663.4316
270.9960, 364.1582
272.2110, 476.0957
273.4250, 350.2344
274.6400, 470.5625
275.8540, 192.1035
277.0680, 201.7852
278.2810, 104.5977
279.4950, 181.0078
280.7090, 148.8066
281.9220, 67.71484
283.1350, 9.792969
284.3480, 98.61328
285.5610, 72.40820
286.7730, 6.177734
287.9860, 102.6309
289.1980, 197.4375
290.4100, 209.3535
291.6220, 78.29883
292.8340, 191.1152
294.0460, 49.39648
295.2570, 93.74805
296.4690, 236.6367
297.6800, 180.8066
298.8910, 40.02734
300.1020, 43.26953
301.3120, 35.17383
302.5230, 149.7383
303.7330, 104.7246
304.9440, 252.4766
306.1540, 273.8848
307.3630, 412.4844
308.5730, 301.7520
309.7830, 445.0820
310.9920, 608.4805
312.2010, 641.9375
313.4100, 862.4531
314.6190, 927.0312
315.8280, 1032.666
317.0370, 1247.355
318.2450, 1216.100
319.4530, 1408.896
320.6610, 1808.750
321.8690, 1901.658
323.0770, 2059.619
324.2850, 2326.637
325.4920, 2236.707
326.6990, 2414.830
327.9060, 2314.010
329.1130, 2169.240
330.3200, 2090.523
331.5270, 1862.855
332.7330, 1578.240
333.9390, 1414.674
335.1450, 1239.057
336.3510, 855.6875
337.5570, 1039.252
338.7630, 961.8398
339.9680, 1029.527
341.1740, 727.9102
342.3790, 1112.160
343.5840, 895.8164
344.7890, 1038.705
345.9930, 1079.953
347.1980, 1050.812
348.4020, 1337.912
349.6060, 1531.660
350.8100, 1537.811
352.0140, 1494.566
353.2180, 1207.186
354.4210, 1289.486
355.6250, 1225.334
356.8280, 1177.213
358.0310, 1075.119
359.2340, 700.0586
360.4360, 532.0215
361.6390, 684.0137
362.8410, 534.0312
364.0430, 623.0781
365.2450, 324.1484
366.4470, 480.2461
367.6490, 505.3652
368.8510, 470.5098
370.0520, 560.6562
371.2530, 285.8633
372.4540, 591.0703
373.6550, 472.2988
374.8560, 400.5469
376.0560, 539.8164
377.2570, 402.1035
378.4570, 535.4102
379.6570, 686.7363
380.8570, 756.0781
382.0570, 864.4375
383.2560, 968.8125
384.4560, 976.2070
385.6550, 1100.619
386.8540, 1176.045
388.0530, 1072.486
389.2520, 1200.943
390.4510, 1219.414
391.6490, 1181.961
392.8470, 1254.576
394.0450, 1100.258
395.2430, 942.0039
396.4410, 937.8027
397.6390, 722.6543
398.8360, 788.8066
400.0340, 691.7520
401.2310, 775.3535
402.4280, 695.6230
403.6250, 874.7070
404.8210, 981.8301
406.0180, 911.5605
407.2140, 933.6953
408.4100, 946.9785
409.6060, 810.4258
410.8020, 797.6836
411.9980, 698.0039
413.1930, 639.5000
414.3890, 460.5684
415.5840, 492.9258
416.7790, 257.3047
417.9740, 111.7031
419.1680, 91.12305
420.3630, 106.5586
421.5570, 51.01367
422.7510, 63.52539
423.9450, 47.79883
425.1390, 166.4141
426.3330, 226.0781
427.5270, 62.01758
428.7200, 78.64648
429.9130, 39.73438
431.1060, 72.21094
432.2990, 125.6992
433.4920, 5.289063
434.6840, 51.18750
435.8770, 51.73438
437.0690, 80.83203
438.2610, 3.861328
439.4530, 31.94531
440.6450, 82.13281
441.8360, 27.27734
443.0280, 112.7090
444.2190, 17.37305
445.4100, 55.29492
446.6010, 220.9629
447.7920, 34.36523
448.9820, 117.7285
450.1730, 71.83398
451.3630, 186.3965
452.5530, 422.9629
453.7430, 511.5352
454.9330, 585.1113
456.1230, 683.6914
457.3120, 716.2773
458.5010, 947.8652
459.6910, 1216.457
460.8800, 1172.053
462.0680, 1593.650
463.2570, 1585.250
464.4460, 1916.852
465.6340, 1586.457
466.8220, 1779.062
468.0100, 1339.670
469.1980, 1295.279
470.3860, 863.8965
471.5730, 735.5137
472.7600, 783.1367
473.9480, 637.7578
475.1350, 339.4336
476.3210, 437.1074
477.5080, 393.7949
478.6950, 255.4844
479.8810, 355.2129
481.0670, 387.9492
482.2530, 71.31250
483.4390, 26.35352
484.6250, 59.99023
485.8100, 34.38867
486.9960, 74.17383
488.1810, 60.28125
489.3660, 171.8008
490.5510, 117.5527
491.7360, 149.9023
492.9200, 121.2520
494.1050, 355.5977
495.2890, 102.9355
496.4730, 76.28516
497.6570, 185.6172
498.8400, 350.9473
500.0240, 522.2754
501.2070, 543.0996
502.3910, 368.9609
503.5740, 576.3379
504.7570, 480.7422
505.9400, 458.1504
507.1220, 488.5723
508.3050, 489.9980
509.4870, 485.4551
510.6690, 471.8535
511.8510, 524.2773
513.0330, 441.7012
514.2140, 546.1191
515.3960, 381.5293
516.5770, 586.9336
517.7580, 517.3359
518.9390, 577.7910
520.1200, 413.2383
521.3010, 487.6973
522.4810, 742.1504
523.6610, 721.5957
524.8420, 589.0332
526.0220, 543.4648
527.2010, 552.8867
528.3810, 646.3008
529.5610, 617.7051
530.7400, 595.0996
531.9190, 514.4883
533.0980, 697.8672
534.2770, 636.2344
535.4560, 651.5938
536.6340, 337.9453
537.8120, 423.2852
538.9910, 377.6191
540.1690, 180.9434
541.3460, 307.2539
542.5240, 153.5488
543.7020, 119.8340
544.8790, 89.08984
546.0560, 132.3203
547.2330, 15.57812
548.4100, 136.7812
549.5870, 45.01758
550.7630, 52.10352
551.9400, 245.1797
553.1160, 58.24609
554.2920, 21.26953
555.4680, 168.2402
556.6440, 268.1973
557.8190, 447.1406
558.9950, 426.1387
560.1700, 460.5586
561.3450, 350.8906
562.5200, 377.8047
563.6950, 279.7383
564.8690, 184.2148
566.0440, 341.4512
567.2180, 346.1387
568.3920, 294.5039
569.5660, 373.7363
570.7400, 312.0664
571.9130, 203.4844
573.0870, 288.6973
574.2600, 287.3691
575.4330, 375.2539
576.6060, 239.2617
577.7790, 268.2324
578.9520, 357.7578
580.1240, 196.4375
581.2960, 303.7324
582.4690, 495.3809
583.6410, 527.1523
584.8120, 630.0898
585.9840, 468.2676
587.1560, 740.4609
588.3270, 742.2949
589.4980, 776.4277
590.6690, 912.9648
591.8400, 1002.367
593.0110, 1134.162
594.1810, 1077.943
595.3510, 1185.715
596.5220, 1405.475
597.6920, 1621.395
598.8610, 1947.152
600.0310, 2327.689
601.2010, 2785.406
602.3700, 3267.111
603.5390, 3883.807
604.7080, 4702.488
605.8770, 5503.162
607.0460, 6656.826
608.2140, 7783.488
609.3830, 9110.141
610.5510, 10357.58
611.7190, 12097.21
612.8870, 13467.82
614.0550, 14798.94
615.2220, 14892.29
616.3900, 14785.08
617.5570, 14133.29
618.7240, 12186.45
619.8910, 10152.93
621.0580, 8446.430
622.2240, 6680.943
623.3910, 5599.807
624.5570, 4511.496
625.7230, 3609.291
626.8890, 3189.691
628.0550, 2605.803
629.2200, 2186.980
630.3860, 1773.602
631.5510, 1617.566
632.7160, 1269.867
633.8810, 1286.863
635.0460, 1008.240
636.2100, 920.9492
637.3750, 791.8066
638.5390, 745.1348
639.7030, 545.9551
640.8670, 737.2910
642.0310, 647.7988
643.1950, 536.6895
644.3580, 884.9023
645.5210, 467.4277
646.6850, 835.0566
647.8480, 651.3203
649.0100, 560.8457
650.1730, 834.8945
651.3350, 801.8027
652.4980, 751.7969
653.6600, 499.9395
654.8220, 412.5391
655.9840, 647.6484
657.1450, 383.4609
658.3070, 526.5703
659.4680, 457.6309
660.6300, 454.3691
661.7910, 330.3945
662.9510, 455.4062
664.1120, 307.4004
665.2730, 385.4473
666.4330, 389.3301
667.5930, 397.3711
668.7530, 411.2949
669.9130, 405.1992
671.0730, 394.0879
672.2320, 710.9590
673.3920, 524.8105
674.5510, 568.6465
675.7100, 333.4922
676.8690, 581.2930
678.0280, 583.5371
679.1860, 617.3008
680.3450, 863.7930
681.5030, 624.5195
682.6610, 743.2090
683.8190, 640.0566
684.9770, 674.7773
686.1340, 477.4062
687.2920, 753.5469
688.4490, 549.8711
689.6060, 446.9785
690.7630, 641.3457
691.9200, 385.1621
693.0760, 539.8008
694.2330, 600.3750
695.3890, 555.2227
696.5450, 437.3574
697.7010, 529.5000
698.8570, 444.2891
700.0130, 432.9883
701.1680, 409.8809
702.3230, 462.4023
703.4780, 484.7930
704.6330, 666.6797
705.7880, 356.4141
706.9430, 354.8574
708.0970, 152.6055
709.2520, 329.1543
710.4060, 450.6738
711.5600, 389.2598
712.7140, 593.7695
713.8670, 664.3066
715.0210, 499.9375
716.1740, 473.4766
717.3270, 469.0293
718.4800, 555.8066
719.6330, 658.1680
720.7860, 882.7266
721.9380, 931.2988
723.0910, 1120.871
724.2430, 1096.436
725.3950, 1619.996
726.5470, 1425.543
727.6980, 1759.066
728.8500, 1840.596
730.0010, 1994.145
731.1530, 2106.680
732.3040, 1905.189
733.4550, 1759.682
734.6050, 1566.152
735.7560, 1381.604
736.9060, 1066.033
738.0560, 852.4434
739.2060, 707.8320
740.3560, 503.2031
741.5060, 502.8887
742.6560, 323.3418
743.8050, 294.5469
744.9540, 323.0039
746.1030, 265.0840
747.2520, 262.2090
748.4010, 8.791016
749.5500, 227.3457
750.6980, 54.51953
751.8460, 92.66602
752.9950, 159.1074
754.1420, 126.2129
755.2900, 13.81445
756.4380, 19.11328
757.5850, 113.9961
758.7330, 2.023438
759.8800, 56.80078
761.0270, 102.5508
762.1730, 188.3105
763.3200, 184.8027
764.4670, 242.8105
765.6130, 189.5742
766.7590, 109.3633
767.9050, 106.1680
769.0510, 59.05859
770.1960, 62.95703
771.3420, 156.8320
772.4870, 167.6875
773.6320, 53.48047
774.7770, 295.2891
775.9220, 341.0430
777.0670, 105.7773
778.2110, 50.51562
779.3560, 141.1250
780.5000, 123.2578
781.6440, 80.74219
782.7880, 4.312500
783.9320, 39.92969
785.0750, 2.398438
786.2180, 41.68750
787.3620, 10.93750
788.5050, 87.15234
789.6480, 79.33984
790.7900, 247.5000
791.9330, 116.6328
793.0750, 194.7461
794.2170, 89.83203
795.3590, 193.1094
796.5010, 250.8086
797.6430, 44.29688
798.7850, 220.5391
799.9260, 248.3477
801.0670, 210.1367
802.2080, 179.9023
803.3490, 191.6484
804.4900, 223.3828
805.6310, 491.0703
806.7710, 305.7500
807.9110, 512.4062
809.0510, 495.0430
810.1910, 383.6602
811.3310, 236.2500
812.4710, 195.8203
813.6100, 360.3672
814.7490, 32.89453
815.8880, 335.3828
817.0270, 389.8555
818.1660, 310.3047
819.3050, 107.7344
820.4430, 131.1367
821.5820, 191.5273
822.7200, 161.1016
823.8580, 185.1562
824.9950, 44.59375
826.1330, 108.6016
827.2710, 263.8008
828.4080, 149.0000
829.5450, 180.1719
830.6820, 126.3320
831.8190, 77.48828
832.9560, 102.6211
834.0920, 18.25781
835.2280, 217.7969
836.3650, 32.15234
837.5010, 49.83984
838.6360, 184.8047
839.7720, 331.7422
840.9080, 9.660156
842.0430, 140.5469
843.1780, 495.4062
844.3130, 154.2461
845.4480, 0.9375000
846.5830, 341.8359
847.7170, 59.58984
848.8520, 350.3164
849.9860, 508.0117
851.1200, 192.6914
852.2540, 471.3477
853.3870, 393.1602
854.5210, 325.7734
855.6540, 335.3984
856.7880, 312.4102
857.9210, 246.5039
859.0540, 356.0234
860.1860, 585.2578
861.3190, 656.7344
862.4510, 609.2773
863.5840, 487.7852
864.7160, 436.4180
865.8480, 713.7969
866.9790, 309.1562
868.1110, 473.4922
869.2420, 554.8008
870.3740, 423.0898
871.5050, 464.3555
872.6360, 436.1875
873.7660, 262.8164
874.8970, 374.0117
876.0280, 221.5078
877.1580, 140.6602
878.2880, 191.7891
879.4180, 70.02344
880.5480, 181.4961
881.6770, 3.546875
882.8070, 72.25391
883.9360, 137.2578
885.0650, 133.6328
886.1940, 305.5977
887.3230, 356.5469
888.4520, 191.9492
889.5800, 130.1172
890.7090, 348.8125
891.8370, 333.0938
892.9650, 533.3516
894.0930, 152.8281
895.2200, 412.9141
896.3480, 210.7109
897.4750, 325.0469
898.6020, 519.0000
899.7290, 362.3672
900.8560, 465.0156
901.9830, 675.2266
903.1090, 335.4023
904.2360, 504.1289
905.3620, 581.1250
906.4880, 637.0508
907.6140, 706.6289
908.7400, 860.1484
909.8650, 822.5039
910.9900, 856.0977
912.1160, 1024.605
913.2410, 1004.582
914.3660, 981.0078
915.4900, 955.2266
916.6150, 1125.027
917.7390, 1052.633
918.8640, 1261.574
919.9880, 1095.531
921.1120, 1041.824
922.2350, 1153.820
923.3590, 1331.258
924.4820, 1574.801
925.6060, 1827.227
926.7290, 2023.469
927.8520, 1865.219
928.9740, 1895.426
930.0970, 1875.898
931.2190, 1737.035
932.3420, 1549.184
933.4640, 1445.629
934.5860, 1258.746
935.7080, 1161.844
936.8290, 1072.926
937.9510, 1155.926
939.0720, 866.9453
940.1930, 943.9805
941.3140, 918.0000
942.4350, 842.0000
943.5560, 797.9844
944.6760, 727.9453
945.7960, 825.9023
946.9170, 893.8359
948.0370, 721.7266
949.1560, 637.6289
950.2760, 745.0547
951.3960, 550.9219
952.5150, 850.7969
953.6340, 696.6602
954.7530, 738.9102
955.8720, 706.3438
956.9910, 719.0938
958.1090, 578.9062
959.2280, 609.0430
960.3460, 520.6992
961.4640, 518.8633
962.5820, 464.6055
963.6990, 468.0195
964.8170, 478.5781
965.9340, 502.0586
967.0510, 483.9297
968.1690, 520.0039
969.2850, 440.0391
970.4020, 317.7227
971.5190, 473.5391
972.6350, 389.9961
973.7510, 221.5273
974.8670, 482.1602
975.9830, 456.9844
977.0990, 322.2695
978.2150, 403.8633
979.3300, 470.1914
980.4450, 268.7109
981.5600, 302.2695
982.6750, 281.7578
983.7900, 338.2891
984.9050, 163.8086
986.0190, 186.2188
987.1340, 12.28906
988.2480, 132.1797
989.3620, 26.35938
990.4750, 119.0664
991.5890, 265.4844
992.7020, 171.1758
993.8160, 37.71875
994.9290, 135.6406
996.0420, 87.98438
997.1550, 90.31641
998.2670, 54.64062
999.3800, 135.9492
1000.492, 287.2461
1001.604, 270.2617
1002.716, 338.5312
1003.828, 312.0781
1004.940, 345.3320
1006.051, 303.5703
1007.163, 235.8086
1008.274, 262.0352
1009.385, 25.51953
1010.496, 369.7227
1011.606, 309.5781
1012.717, 336.6328
1013.827, 0.9062500
1014.937, 201.8984
1016.047, 4.765625
1017.157, 405.7344
1018.267, 55.49609
1019.377, 435.2617
1020.486, 143.3828
1021.595, 514.4961
1022.704, 388.0469
1023.813, 196.8711
1024.922, 92.00781
1026.030, 223.1445
1027.139, 77.71875
1028.247, 40.22266
1029.355, 134.3594
1030.463, 116.5273
1031.571, 49.69531
1032.678, 15.15234
1033.786, 19.96875
1034.893, 140.8477
1036.000, 3.789063
1037.107, 188.7500
1038.214, 106.8203
1039.321, 9.957031
1040.427, 222.8906
1041.533, 178.7383
1042.639, 127.5820
1043.745, 70.44141
1044.851, 85.28906
1045.957, 133.1289
1047.062, 86.96484
1048.168, 558.8125
1049.273, 328.6523
1050.378, 139.5312
1051.482, 500.7070
1052.587, 246.6172
1053.692, 443.5312
1054.796, 454.4492
1055.900, 367.3672
1057.004, 444.2891
1058.108, 457.9375
1059.212, 418.1211
1060.315, 541.0273
1061.418, 589.9297
1062.522, 575.8281
1063.625, 777.7266
1064.728, 442.6719
1065.830, 656.6172
1066.933, 429.5781
1068.035, 445.5352
1069.137, 559.4766
1070.239, 341.4180
1071.341, 477.3516
1072.443, 275.2852
1073.545, 599.2109
1074.646, 637.1289
1075.747, 696.0430
1076.848, 353.9570
1077.949, 483.8633
1079.050, 182.7656
1080.150, 619.6602
1081.251, 462.5547
1082.351, 513.4414
1083.451, 548.3320
1084.551, 514.3594
1085.651, 601.2422
1086.750, 621.1172
1087.850, 395.9883
1088.949, 226.8594
1090.048, 419.7305
1091.147, 478.6445
1092.246, 544.5586
1093.345, 557.4844
1094.443, 351.4062
1095.541, 200.9180
1096.639, 407.8398
1097.737, 604.7539
1098.835, 336.6680
1099.933, 278.5781
1101.030, 261.4922
1102.128, 537.4062
1103.225, 164.3164
1104.322, 396.2383
1105.419, 410.1641
1106.515, 439.0859
1107.612, 462.0039
1108.708, 81.92969
1109.804, 152.8516
1110.900, 77.76562
1111.996, 237.6836
1113.092, 411.6094
1114.187, 322.5312
1115.283, 516.4609
1116.378, 693.3867
1117.473, 216.3086
1118.568, 512.2305
1119.662, 311.9688
1120.757, 472.8867
1121.851, 253.7578
1122.946, 536.6680
1124.040, 108.5742
1125.134, 480.4805
1126.227, 473.6445
1127.321, 248.5469
1128.414, 209.3555
1129.508, 166.4375
1130.601, 189.8398
1131.693, 161.7344
1132.786, 283.6289
1133.879, 389.5273
1134.971, 523.4297
1136.064, 507.6836
1137.156, 149.2188
1138.248, 400.1133
1139.339, 200.0039
1140.431, 12.89844
1141.522, 108.4688
1142.614, 138.3594
1143.705, 329.2422
1144.796, 156.1328
1145.887, 174.4961
1146.977, 82.38281
1148.068, 57.41406
1149.158, 37.55078
1150.248, 166.8438
1151.338, 131.6797
1152.428, 68.52344
1153.518, 109.6367
1154.607, 181.1406
1155.696, 177.9180
1156.785, 190.6523
1157.874, 175.4297
1158.963, 143.3203
1160.052, 200.1367
1161.141, 96.85156
1162.229, 119.4258
1163.317, 162.0000
1164.405, 42.02734
1165.493, 159.3242
1166.581, 545.5859
1167.668, 545.4453
1168.756, 435.7031
1169.843, 225.4922
1170.930, 325.9844
1172.017, 392.4102
1173.103, 175.1914
1174.190, 175.9727
1175.276, 341.6836
1176.363, 307.4609
1177.449, 331.2500
1178.535, 211.0352
1179.620, 53.82812
1180.706, 234.6211
1181.791, 10.41406
1182.877, 281.2070
1183.962, 38.00391
1185.047, 170.7969
1186.131, 483.5938
1187.216, 143.3945
1188.300, 147.1992
1189.385, 58.00000
1190.469, 233.8047
1191.553, 69.61328
1192.637, 170.4219
1193.720, 292.2383
1194.804, 383.0547
1195.887, 407.8281
1196.970, 459.2891
1198.053, 464.5117
1199.136, 455.3359
1200.219, 569.1641
1201.301, 516.9883
1202.383, 56.82031
1203.465, 380.6484
1204.547, 123.4883
1205.629, 208.3242
1206.711, 507.1680
1207.792, 202.0195
1208.874, 77.85938
1209.955, 418.7070
1211.036, 174.5625
1212.117, 199.4141
1213.198, 433.2773
1214.278, 81.86328
1215.359, 216.9570
1216.439, 437.7773
1217.519, 214.6055
1218.599, 148.4336
1219.678, 155.2656
1220.758, 435.1055
1221.837, 225.9453
1222.917, 508.7930
1223.996, 588.6328
1225.075, 170.5195
1226.153, 112.2383
1227.232, 387.0078
1228.310, 92.77344
1229.389, 439.5469
1230.467, 313.3203
1231.545, 171.1055
1232.622, 76.88672
1233.700, 265.6719
1234.777, 327.4648
1235.855, 496.2617
1236.932, 399.0586
1238.009, 335.8555
1239.086, 556.6602
1240.162, 470.4648
1241.239, 628.2812
1242.315, 621.5234
1243.391, 269.3438
1244.467, 454.7148
1245.543, 555.5430
1246.619, 478.3789
1247.694, 674.2188
1248.769, 431.0586
1249.844, 396.9141
1250.919, 447.7734
1251.994, 796.6484
1253.069, 614.5234
1254.144, 220.4023
1255.218, 571.2891
1256.292, 350.1953
1257.366, 276.1055
1258.440, 450.0156
1259.514, 201.9414
1260.587, 108.8633
1261.661, 386.7969
1262.734, 538.2852
1263.807, 343.2305
1264.880, 583.1797
1265.952, 471.1445
1267.025, 743.1133
1268.097, 326.0898
1269.170, 140.0703
1270.242, 190.7812
1271.314, 355.7773
1272.385, 533.7812
1273.457, 242.7891
1274.528, 245.8008
1275.600, 240.8203
1276.671, 65.85547
1277.742, 285.6523
1278.812, 31.29297
1279.883, 155.7422
1280.954, 60.78906
1282.024, 319.8398
1283.094, 70.34375
1284.164, 47.41406
1285.234, 27.48438
1286.303, 139.5703
1287.373, 98.33594
1288.442, 120.7422
1289.511, 147.1680
1290.580, 14.13672
1291.649, 49.89453
1292.718, 98.06641
1293.786, 108.0508
1294.855, 13.93359
1295.923, 100.9688
1296.991, 107.0156
1298.059, 4.867188
1299.126, 82.29297
1300.194, 35.53516
1301.261, 231.6289
1302.328, 136.8008
1303.395, 353.9844
1304.462, 16.17578
1305.529, 205.3867
1306.596, 454.6055
1307.662, 352.8359
1308.728, 546.0820
1309.794, 217.3359
1310.860, 650.3203
1311.926, 644.5977
1312.991, 199.8828
1314.057, 791.1836
1315.122, 691.4883
1316.187, 784.8086
1317.252, 610.1484
1318.317, 959.4883
1319.381, 846.8516
1320.446, 658.2266
1321.510, 731.5977
1322.574, 410.9805
1323.638, 542.3672
1324.702, 361.7617
1325.766, 552.1641
1326.829, 310.5703
1327.892, 651.9883
1328.956, 405.4180
1330.019, 652.8477
1331.081, 508.2930
1332.144, 549.7383
1333.206, 547.0312
1334.269, 294.6602
1335.331, 399.1328
1336.393, 314.6172
1337.455, 120.1055
1338.516, 229.6055
1339.578, 325.1094
1340.639, 453.6289
1341.701, 479.3281
1342.762, 237.5469
1343.822, 496.0898
1344.883, 346.6445
1345.944, 285.1992
1347.004, 358.7656
1348.064, 252.5469
1349.124, 307.9219
1350.184, 226.5117
1351.244, 205.1133
1352.304, 276.7305
1353.363, 323.7617
1354.422, 323.3945
1355.481, 178.0430
1356.540, 361.6914
1357.599, 38.34766
1358.657, 109.0117
1359.716, 518.6875
1360.774, 262.3828
1361.832, 335.0820
1362.890, 478.7969
1363.948, 11.51562
1365.006, 463.2500
1366.063, 141.9961
1367.120, 491.7539
1368.178, 184.5234
1369.234, 46.69141
1370.291, 27.09375
1371.348, 22.63672
1372.404, 259.7031
1373.461, 205.5312
1374.517, 300.3672
1375.573, 424.2188
1376.629, 107.0820
1377.684, 437.9609
1378.740, 554.8555
1379.795, 114.7617
1380.850, 167.6797
1381.905, 22.61328
1382.960, 211.5664
1384.015, 327.5273
1385.070, 379.5039
1386.124, 296.4922
1387.178, 208.4922
1388.232, 352.5117
1389.286, 52.45312
1390.340, 349.5859
1391.393, 267.6445
1392.447, 283.2305
1393.500, 18.32031
1394.553, 43.41797
1395.606, 113.5391
1396.659, 247.6797
1397.711, 346.8281
1398.764, 163.0039
1399.816, 301.1953
1400.868, 32.39844
1401.920, 256.6211
1402.972, 244.8672
1404.023, 276.1289
1405.075, 181.4336
1406.126, 162.0273
1407.177, 190.3828
1408.228, 276.7578
1409.279, 67.15234
1410.330, 274.6016
1411.380, 91.07031
1412.431, 420.5625
1413.481, 244.0781
1414.531, 495.6445
1415.580, 228.2070
1416.630, 467.8594
1417.680, 114.6719
1418.729, 409.3125
1419.778, 39.28906
1420.827, 511.4727
1421.876, 251.4688
1422.925, 267.1602
1423.973, 361.3477
1425.022, 320.7109
1426.070, 230.5703
1427.118, 499.7305
1428.166, 271.5703
1429.214, 499.4375
1430.261, 333.4414
1431.309, 354.9570
1432.356, 489.9336
1433.403, 290.9297
1434.450, 275.9609
1435.497, 403.0156
1436.543, 598.0391
1437.590, 792.0977
1438.636, 819.1914
1439.682, 263.2734
1440.728, 702.5664
1441.774, 313.2070
1442.819, 993.2578
1443.865, 763.3164
1444.910, 644.7734
1445.955, 944.7344
1447.000, 746.8672
1448.045, 1129.227
1449.090, 1140.609
1450.134, 1147.004
1451.178, 675.4102
1452.223, 769.8398
1453.267, 853.2852
1454.310, 914.7422
1455.354, 1036.219
1456.398, 972.7109
1457.441, 836.2227
1458.484, 713.8008
1459.527, 761.3945
1460.570, 926.0078
1461.613, 994.6406
1462.655, 777.2891
1463.698, 450.0625
1464.740, 635.8633
1465.782, 677.6758
1466.824, 661.5156
1467.866, 709.3711
1468.907, 441.2500
1469.948, 778.1523
1470.990, 434.3047
1472.031, 526.5469
1473.072, 571.4883
1474.112, 698.4531
1475.153, 561.4336
1476.194, 618.4453
1477.234, 611.4727
1478.274, 559.5234
1479.314, 797.5898
1480.354, 433.6875
1481.393, 353.6602
1482.433, 609.7578
1483.472, 320.8594
1484.511, 596.9805
1485.550, 450.1250
1486.589, 432.2891
1487.628, 270.4727
1488.666, 581.6758
1489.704, 400.9180
1490.743, 376.1875
1491.781, 321.4688
1492.819, 164.7656
1493.856, 99.14844
1494.894, 36.67188
1495.931, 101.2539
1496.968, 525.9727
1498.005, 239.6953
1499.042, 448.4414
1500.079, 259.2344
1501.115, 512.0469
1502.152, 236.8633
1503.188, 455.6875
1504.224, 341.5312
1505.260, 610.3906
1506.296, 348.2617
1507.331, 677.1445
1508.367, 458.0234
1509.402, 706.9258
1510.437, 498.8906
1511.472, 486.9062
1512.507, 491.9766
1513.541, 81.09375
1514.576, 346.2695
1515.610, 476.4922
1516.644, 76.22656
1517.678, 689.1094
1518.712, 256.4961
1519.746, 321.9414
1520.779, 232.4453
1521.813, 470.0508
1522.846, 472.7305
1523.879, 77.47266
1524.912, 320.2852
1525.944, 116.1680
1526.977, 313.1797
1528.009, 519.2656
1529.041, 485.4414
1530.073, 339.7031
1531.105, 78.06250
1532.137, 147.5156
1533.168, 178.0664
1534.200, 424.7070
1535.231, 525.4453
1536.262, 313.2812
1537.293, 242.2266
1538.324, 310.2773
1539.354, 221.4609
1540.385, 163.7734
1541.415, 136.2266
1542.445, 304.8320
1543.475, 79.59375
1544.505, 488.7500
1545.534, 48.37500
1546.564, 470.1523
1547.593, 28.91406
1548.622, 360.1641
1549.651, 127.4102
1550.680, 488.8203
1551.708, 186.3945
1552.737, 272.1523
1553.765, 146.0820
1554.793, 39.20312
1555.821, 2.484375
1556.849, 310.0078
1557.877, 202.3086
1558.904, 541.7578
1559.932, 450.0156
1560.959, 288.5547
1561.986, 423.0586
1563.013, 302.6055
1564.039, 176.5273
1565.066, 103.9570
1566.092, 368.0586
1567.119, 325.0898
1568.145, 1.199219
1569.170, 274.0039
1570.196, 0.0000000E+00
##END=



