##NAMES=Inyoite
##RRUFFID=R040161
##IDEAL CHEMISTRY=CaB_3_O_3_(OH)_5_&#183;4H_2_O
##LOCALITY=Kramer deposit, Boron, Kern County, California, USA
##OWNER=RRUFF
##SOURCE=University of Arizona Mineral Museum
##DESCRIPTION=Group of colorless indistinct rounded crystals
##STATUS=The identification of this mineral has been confirmed by X-ray diffraction and chemical analysis
##URL=rruff.info/R040161
##MEASURED CHEMISTRY=Ca_1.00_B_3.00_O_3_(OH)_5_Â·4H_2_O
##PIN_ID=L00339
##ORIENTATION=Laser parallel to a* (1 0 0). Fiducial mark perpendicular to laser is parallel to b [0 1 0]
94.39300, 0.0000000E+00
95.63100, 78.26953
96.86900, 22.49219
98.10600, 98.24316
99.34400, 113.4971
100.5810, 156.9951
101.8190, 312.5801
103.0560, 383.3916
104.2930, 608.9717
105.5290, 589.2480
106.7660, 855.5664
108.0020, 916.2949
109.2390, 917.1445
110.4750, 886.0762
111.7110, 1080.254
112.9460, 1204.695
114.1820, 1681.787
115.4170, 1691.053
116.6530, 1888.364
117.8880, 2247.325
119.1230, 1997.603
120.3580, 1988.910
121.5920, 2054.005
122.8270, 1780.666
124.0610, 1916.703
125.2950, 1832.947
126.5290, 1526.245
127.7630, 1512.510
128.9970, 1215.723
130.2300, 1033.782
131.4640, 1029.555
132.6970, 939.8730
133.9300, 1013.583
135.1630, 1103.565
136.3950, 1255.723
137.6280, 1607.975
138.8600, 2024.257
140.0920, 2366.508
141.3240, 2937.678
142.5560, 3451.728
143.7880, 4074.647
145.0190, 5057.415
146.2510, 6059.988
147.4820, 7592.338
148.7130, 8859.427
149.9440, 9932.231
151.1750, 10554.72
152.4050, 10370.86
153.6360, 9315.639
154.8660, 8433.023
156.0960, 7532.996
157.3260, 6677.537
158.5560, 5996.697
159.7850, 5424.826
161.0150, 5212.041
162.2440, 5029.124
163.4730, 5296.718
164.7020, 5771.709
165.9310, 6273.025
167.1590, 7483.660
168.3880, 8853.450
169.6160, 10591.00
170.8440, 12819.41
172.0720, 14498.78
173.3000, 16739.17
174.5280, 18610.62
175.7550, 20402.16
176.9820, 22102.83
178.2100, 23320.64
179.4370, 24295.62
180.6630, 23954.62
181.8900, 23760.13
183.1170, 21683.69
184.3430, 19057.46
185.5690, 16283.44
186.7950, 13761.64
188.0210, 11732.07
189.2470, 9950.755
190.4720, 9180.684
191.6970, 8386.011
192.9230, 7935.128
194.1480, 7353.193
195.3730, 6690.703
196.5970, 6262.576
197.8220, 5314.700
199.0460, 4615.031
200.2700, 4155.553
201.4940, 3458.268
202.7180, 3075.172
203.9420, 2653.262
205.1660, 2242.537
206.3890, 2107.993
207.6120, 2044.631
208.8350, 1548.444
210.0580, 1582.432
211.2810, 1520.593
212.5040, 1405.928
213.7260, 1182.429
214.9480, 894.0986
216.1700, 998.9326
217.3920, 743.9297
218.6140, 737.0889
219.8360, 782.4141
221.0570, 466.3779
222.2790, 416.1865
223.5000, 669.1699
224.7210, 503.2002
225.9410, 503.4346
227.1620, 405.8867
228.3820, 471.3682
229.6030, 394.3447
230.8230, 410.8223
232.0430, 283.5312
233.2630, 250.2090
234.4820, 123.0234
235.7020, 558.9707
236.9210, 243.0449
238.1400, 348.2568
239.3590, 392.6094
240.5780, 248.0869
241.7970, 461.3418
243.0150, 453.9580
244.2340, 837.4766
245.4520, 879.1074
246.6700, 1124.864
247.8880, 1313.584
249.1060, 1495.149
250.3230, 2028.468
251.5400, 2116.465
252.7580, 2711.078
253.9750, 3187.264
255.1920, 3423.002
256.4080, 3808.244
257.6250, 4300.975
258.8410, 4371.174
260.0580, 4574.792
261.2740, 4113.825
262.4900, 4110.225
263.7050, 3712.992
264.9210, 3684.105
266.1360, 3147.551
267.3520, 3189.314
268.5670, 2641.365
269.7820, 2574.693
270.9960, 2226.275
272.2110, 1965.096
273.4250, 1809.143
274.6400, 1757.408
275.8540, 1506.887
277.0680, 1030.562
278.2810, 978.4355
279.4950, 685.4922
280.7090, 780.6133
281.9220, 606.2324
283.1350, 419.8672
284.3480, 260.6289
285.5610, 349.1270
286.7730, 127.4043
287.9860, 115.6289
289.1980, 79.39648
290.4100, 74.52930
291.6220, 150.1582
292.8340, 112.6875
294.0460, 111.9004
295.2570, 135.3262
296.4690, 109.1074
297.6800, 164.2988
298.8910, 111.5508
300.1020, 217.7109
301.3120, 275.3047
302.5230, 225.0059
303.7330, 446.8125
304.9440, 533.7207
306.1540, 595.7266
307.3630, 632.8223
308.5730, 847.0039
309.7830, 1023.268
310.9920, 1203.611
312.2010, 1384.033
313.4100, 1693.531
314.6190, 2041.107
315.8280, 2197.758
317.0370, 2573.490
318.2450, 2740.299
319.4530, 3113.188
320.6610, 3748.152
321.8690, 4051.195
323.0770, 4487.316
324.2850, 4856.514
325.4920, 5042.787
326.6990, 5003.137
327.9060, 4960.561
329.1130, 4835.055
330.3200, 4249.625
331.5270, 4033.266
332.7330, 3347.977
333.9390, 2862.758
335.1450, 2162.605
336.3510, 1928.521
337.5570, 1404.502
338.7630, 1133.541
339.9680, 805.6387
341.1740, 487.7988
342.3790, 347.0156
343.5840, 196.9902
344.7890, 240.3223
345.9930, 16.29297
347.1980, 99.14453
348.4020, 135.3613
349.6060, 95.83984
350.8100, 145.2793
352.0140, 181.6914
353.2180, 261.0840
354.4210, 242.4746
355.6250, 297.8594
356.8280, 230.2500
358.0310, 252.6367
359.2340, 303.0234
360.4360, 347.4199
361.6390, 76.83984
362.8410, 144.2285
364.0430, 117.6016
365.2450, 191.9551
366.4470, 132.3047
367.6490, 6.333984
368.8510, 25.97070
370.0520, 408.5605
371.2530, 335.0840
372.4540, 546.5488
373.6550, 597.9219
374.8560, 761.2930
376.0560, 830.6445
377.2570, 1229.008
378.4570, 1646.416
379.6570, 1759.494
380.8570, 2221.201
382.0570, 2548.115
383.2560, 2858.688
384.4560, 3270.299
385.6550, 3628.924
386.8540, 3922.570
388.0530, 4176.486
389.2520, 4423.105
390.4510, 4548.824
391.6490, 4600.170
392.8470, 4712.422
394.0450, 4257.754
395.2430, 4006.160
396.4410, 4186.645
397.6390, 4064.906
398.8360, 4042.051
400.0340, 4245.865
401.2310, 4475.836
402.4280, 4857.688
403.6250, 5098.096
404.8210, 5235.135
406.0180, 5502.789
407.2140, 5548.188
408.4100, 5295.709
409.6060, 4880.346
410.8020, 4290.432
411.9980, 3510.172
413.1930, 2908.188
414.3890, 2366.906
415.5840, 1831.254
416.7790, 1424.354
417.9740, 1191.068
419.1680, 714.5312
420.3630, 580.0332
421.5570, 292.5801
422.7510, 169.7344
423.9450, 74.75000
425.1390, 65.37891
426.3330, 125.0254
427.5270, 133.7031
428.7200, 33.41211
429.9130, 113.8770
431.1060, 26.77344
432.2990, 62.57617
433.4920, 39.91211
434.6840, 11.33594
435.8770, 42.77930
437.0690, 143.2578
438.2610, 4.179688
439.4530, 43.40039
440.6450, 30.01758
441.8360, 269.3281
443.0280, 79.69922
444.2190, 207.0742
445.4100, 345.4727
446.6010, 251.8926
447.7920, 674.3301
448.9820, 932.7949
450.1730, 1118.275
451.3630, 1087.777
452.5530, 1569.297
453.7430, 1997.836
454.9330, 2367.395
456.1230, 3239.971
457.3120, 3938.564
458.5010, 4833.176
459.6910, 6101.809
460.8800, 7200.453
462.0680, 8306.113
463.2570, 8777.795
464.4460, 9367.488
465.6340, 9396.195
466.8220, 8576.918
468.0100, 7483.658
469.1980, 6029.412
470.3860, 4957.178
471.5730, 3570.959
472.7600, 2974.754
473.9480, 2222.559
475.1350, 1543.375
476.3210, 1254.203
477.5080, 1011.047
478.6950, 804.8984
479.8810, 731.7637
481.0670, 586.6426
482.2530, 301.5332
483.4390, 413.4336
484.6250, 358.3457
485.8100, 138.2715
486.9960, 349.1895
488.1810, 396.1152
489.3660, 326.6465
490.5510, 382.5957
491.7360, 358.0312
492.9200, 278.9375
494.1050, 445.8086
495.2890, 666.0879
496.4730, 608.6660
497.6570, 952.0078
498.8400, 971.7168
500.0240, 1145.447
501.2070, 1162.062
502.3910, 1276.174
503.5740, 1299.945
504.7570, 1286.961
505.9400, 985.3848
507.1220, 1163.730
508.3050, 910.6562
509.4870, 703.2773
510.6690, 779.2500
511.8510, 475.4707
513.0330, 296.7148
514.2140, 244.0566
515.3960, 248.4297
516.5770, 330.8301
517.7580, 195.2637
518.9390, 270.7090
520.1200, 245.1953
521.3010, 29.69727
522.4810, 145.1836
523.6610, 133.6797
524.8420, 258.2324
526.0220, 370.7656
527.2010, 101.3047
528.3810, 276.8438
529.5610, 204.3945
530.7400, 75.95312
531.9190, 126.5078
533.0980, 163.0605
534.2770, 248.6172
535.4560, 268.1777
536.6340, 296.7441
537.8120, 273.3164
538.9910, 75.89453
540.1690, 55.49805
541.3460, 3.052734
542.5240, 83.32617
543.7020, 113.9863
544.8790, 19.61133
546.0560, 97.27344
547.2330, 13.98242
548.4100, 66.78906
549.5870, 50.62891
550.7630, 51.51367
551.9400, 58.14062
553.1160, 19.51953
554.2920, 14.46875
555.4680, 98.41406
556.6440, 225.3477
557.8190, 358.3457
558.9950, 265.4062
560.1700, 245.4961
561.3450, 331.5820
562.5200, 307.6719
563.6950, 407.7578
564.8690, 329.8438
566.0440, 565.0566
567.2180, 518.9453
568.3920, 569.9824
569.5660, 727.0586
570.7400, 631.5664
571.9130, 700.4434
573.0870, 798.5215
574.2600, 811.9980
575.4330, 980.6582
576.6060, 906.7539
577.7790, 1080.078
578.9520, 1144.850
580.1240, 1429.525
581.2960, 1576.564
582.4690, 1606.250
583.6410, 1647.340
584.8120, 1639.752
585.9840, 1799.844
587.1560, 2017.930
588.3270, 2454.018
589.4980, 2255.104
590.6690, 2579.188
591.8400, 2972.271
593.0110, 2952.354
594.1810, 3391.434
595.3510, 3835.512
596.5220, 4160.588
597.6920, 4789.660
598.8610, 5101.732
600.0310, 6123.801
601.2010, 6911.869
602.3700, 7521.934
603.5390, 9151.996
604.7080, 10503.05
605.8770, 12283.11
607.0460, 14439.16
608.2140, 16878.21
609.3830, 19237.25
610.5510, 22349.30
611.7190, 25339.34
612.8870, 27809.37
614.0550, 30006.40
615.2220, 30938.43
616.3900, 29927.45
617.5570, 27884.74
618.7240, 24800.77
619.8910, 20832.77
621.0580, 17047.55
622.2240, 13486.91
623.3910, 10854.91
624.5570, 8506.895
625.7230, 6854.863
626.8890, 5534.141
628.0550, 4396.113
629.2200, 3553.121
630.3860, 3082.086
631.5510, 2493.047
632.7160, 2159.021
633.8810, 1799.006
635.0460, 1593.154
636.2100, 1209.004
637.3750, 1179.408
638.5390, 1011.061
639.7030, 1144.764
640.8670, 899.4336
642.0310, 816.3359
643.1950, 757.8984
644.3580, 786.2832
645.5210, 714.9922
646.6850, 660.2520
647.8480, 677.3711
649.0100, 516.5938
650.1730, 540.6836
651.3350, 472.4531
652.4980, 681.1133
653.6600, 419.1562
654.8220, 224.3379
655.9840, 357.4219
657.1450, 528.5293
658.3070, 356.8828
659.4680, 463.5586
660.6300, 669.4492
661.7910, 434.2598
662.9510, 473.1992
664.1120, 201.7148
665.2730, 410.6680
666.4330, 399.9316
667.5930, 298.2871
668.7530, 405.4609
669.9130, 399.0762
671.0730, 275.6172
672.2320, 426.1738
673.3920, 418.1777
674.5510, 266.3477
675.7100, 245.5957
676.8690, 316.7383
678.0280, 309.8672
679.1860, 519.7324
680.3450, 327.2988
681.5030, 370.6113
682.6610, 261.4668
683.8190, 483.5820
684.9770, 467.9648
686.1340, 411.4512
687.2920, 399.8242
688.4490, 350.7422
689.6060, 507.4375
690.7630, 227.9277
691.9200, 469.2129
693.0760, 544.6484
694.2330, 259.8594
695.3890, 458.4922
696.5450, 411.5547
697.7010, 678.3750
698.8570, 679.5586
700.0130, 610.4355
701.1680, 564.4551
702.3230, 523.4707
703.4780, 529.4766
704.6330, 778.9922
705.7880, 473.9395
706.9430, 854.9160
708.0970, 696.2168
709.2520, 548.4805
710.4060, 776.2500
711.5600, 939.0508
712.7140, 763.8496
713.8670, 877.6680
715.0210, 1251.500
716.1740, 1524.340
717.3270, 1608.195
718.4800, 1948.086
719.6330, 2253.646
720.7860, 2237.900
721.9380, 3020.828
723.0910, 3425.740
724.2430, 3890.643
725.3950, 4746.529
726.5470, 5307.402
727.6980, 6391.256
728.8500, 6892.094
730.0010, 7303.916
731.1530, 7443.721
732.3040, 7420.510
733.4550, 6596.279
734.6050, 5769.035
735.7560, 4723.771
736.9060, 3715.492
738.0560, 2920.195
739.2060, 2453.883
740.3560, 2071.551
741.5060, 1604.453
742.6560, 1348.838
743.8050, 1006.457
744.9540, 728.0586
746.1030, 550.6426
747.2520, 638.2070
748.4010, 445.7559
749.5500, 420.2891
750.6980, 385.8027
751.8460, 271.2969
752.9950, 231.7754
754.1420, 339.2363
755.2900, 156.6797
756.4380, 214.1035
757.5850, 269.5039
758.7330, 96.91992
759.8800, 146.3105
761.0270, 350.6816
762.1730, 395.0312
763.3200, 79.36523
764.4670, 258.6719
765.6130, 375.0059
766.7590, 74.32227
767.9050, 256.6094
769.0510, 333.8789
770.1960, 392.1387
771.3420, 252.3789
772.4870, 186.6016
773.6320, 36.19531
774.7770, 148.9453
775.9220, 43.06055
777.0670, 123.1465
778.2110, 131.2070
779.3560, 107.9141
780.5000, 154.5840
781.6440, 74.24023
782.7880, 162.1973
783.9320, 85.13086
785.0750, 29.03711
786.2180, 51.09766
787.3620, 107.6992
788.5050, 59.53320
789.6480, 10.05859
790.7900, 287.2090
791.9330, 18.75781
793.0750, 33.35742
794.2170, 34.01758
795.3590, 256.2656
796.5010, 75.43750
797.6430, 116.7773
798.7850, 191.9668
799.9260, 89.14648
801.0670, 41.29883
802.2080, 1.613281
803.3490, 375.4688
804.4900, 200.5312
805.6310, 82.57812
806.7710, 453.5957
807.9110, 150.5918
809.0510, 369.5723
810.1910, 253.5352
811.3310, 376.4785
812.4710, 194.4023
813.6100, 350.3027
814.7490, 233.1836
815.8880, 126.9551
817.0270, 76.80078
818.1660, 52.56055
819.3050, 247.3086
820.4430, 73.92188
821.5820, 21.81250
822.7200, 38.53516
823.8580, 72.26758
824.9950, 54.98828
826.1330, 43.28516
827.2710, 205.4082
828.4080, 154.1152
829.5450, 263.8359
830.6820, 73.44727
831.8190, 64.20508
832.9560, 203.1660
834.0920, 183.6875
835.2280, 78.34570
836.3650, 319.9082
837.5010, 166.1445
838.6360, 163.3594
839.7720, 161.5547
840.9080, 6.273438
842.0430, 167.8535
843.1780, 157.9609
844.3130, 107.0469
845.4480, 3.890625
846.5830, 232.1289
847.7170, 298.1289
848.8520, 287.1094
849.9860, 207.0703
851.1200, 304.0117
852.2540, 401.9336
853.3870, 328.8340
854.5210, 361.7168
855.6540, 402.5820
856.7880, 545.4258
857.9210, 384.2520
859.0540, 567.0566
860.1860, 436.8418
861.3190, 501.6074
862.4510, 463.3535
863.5840, 569.0781
864.7160, 670.7832
865.8480, 479.4707
866.9790, 374.1367
868.1110, 519.7852
869.2420, 627.4141
870.3740, 500.0293
871.5050, 453.6270
872.6360, 484.2051
873.7660, 594.7656
874.8970, 530.3086
876.0280, 630.8320
877.1580, 608.3359
878.2880, 707.8223
879.4180, 624.2891
880.5480, 560.7402
881.6770, 483.1719
882.8070, 486.5840
883.9360, 594.9805
885.0650, 572.3594
886.1940, 568.7207
887.3230, 544.0625
888.4520, 517.0391
889.5800, 319.6973
890.7090, 459.9883
891.8370, 467.9961
892.9650, 455.2480
894.0930, 840.9121
895.2200, 509.3828
896.3480, 935.2363
897.4750, 824.4336
898.6020, 927.6250
899.7290, 768.2520
900.8560, 984.3008
901.9830, 1037.441
903.1090, 1006.529
904.2360, 1439.639
905.3620, 1310.430
906.4880, 1485.508
907.6140, 1371.574
908.7400, 1548.477
909.8650, 1526.693
910.9900, 1656.375
912.1160, 1515.850
913.2410, 1449.291
914.3660, 1887.791
915.4900, 1566.078
916.6150, 1695.744
917.7390, 1838.635
918.8640, 1829.307
919.9880, 1896.346
921.1120, 2092.375
922.2350, 2138.445
923.3590, 2214.654
924.4820, 2469.164
925.6060, 2328.768
926.7290, 2786.322
927.8520, 2944.949
928.9740, 3205.066
930.0970, 2673.012
931.2190, 2767.734
932.3420, 2487.324
933.4640, 2401.553
934.5860, 2460.207
935.7080, 2092.121
936.8290, 2003.979
937.9510, 1955.061
939.0720, 1898.805
940.1930, 1938.465
941.3140, 1876.020
942.4350, 1633.982
943.5560, 1766.416
944.6760, 1631.125
945.7960, 1461.824
946.9170, 1459.525
948.0370, 1372.127
949.1560, 1377.818
950.2760, 1217.502
951.3960, 1293.719
952.5150, 1260.406
953.6340, 928.7207
954.7530, 1297.381
955.8720, 1128.939
956.9910, 1256.713
958.1090, 983.7930
959.2280, 874.4043
960.3460, 970.7598
961.4640, 865.2461
962.5820, 747.8594
963.6990, 870.2520
964.8170, 514.8672
965.9340, 801.4648
967.0510, 577.9570
968.1690, 574.4141
969.2850, 476.1016
970.4020, 723.4082
971.5190, 539.0078
972.6350, 405.4453
973.7510, 637.8750
974.8670, 561.2969
975.9830, 553.1914
977.0990, 407.6445
978.2150, 531.0625
979.3300, 447.1406
980.4450, 353.2383
981.5600, 571.8301
982.6750, 393.4238
983.7900, 420.0176
984.9050, 281.6113
986.0190, 470.2070
987.1340, 256.8027
988.2480, 344.3984
989.3620, 399.9961
990.4750, 456.5938
991.5890, 380.1953
992.7020, 382.2969
993.8160, 194.4004
994.9290, 263.0039
996.0420, 255.6133
997.1550, 174.2227
998.2670, 354.8359
999.3800, 416.4492
1000.492, 213.0664
1001.604, 323.6875
1002.716, 419.3105
1003.828, 425.1992
1004.940, 256.8281
1006.051, 496.4590
1007.163, 282.0938
1008.274, 80.73438
1009.385, 229.3750
1010.496, 166.0215
1011.606, 329.6719
1012.717, 423.3262
1013.827, 80.98242
1014.937, 374.6445
1016.047, 146.3125
1017.157, 505.9844
1018.267, 89.66016
1019.377, 228.3398
1020.486, 243.0254
1021.595, 328.7168
1022.704, 373.4102
1023.813, 332.1133
1024.922, 84.65039
1026.030, 314.3652
1027.139, 139.9141
1028.247, 2.753906
1029.355, 61.42969
1030.463, 267.1445
1031.571, 128.0371
1032.678, 17.19531
1033.786, 163.4219
1034.893, 148.3262
1036.000, 178.1348
1037.107, 126.9961
1038.214, 53.04688
1039.321, 372.9023
1040.427, 139.8574
1041.533, 235.8203
1042.639, 385.7910
1043.745, 95.79492
1044.851, 2.814453
1045.957, 279.8496
1047.062, 206.9180
1048.168, 260.9941
1049.273, 285.0859
1050.378, 241.1875
1051.482, 242.4219
1052.587, 61.42188
1053.692, 171.5586
1054.796, 196.7070
1055.900, 172.4492
1057.004, 300.0938
1058.108, 108.3281
1059.212, 67.41406
1060.315, 49.08203
1061.418, 127.2656
1062.522, 78.36328
1063.625, 149.9805
1064.728, 36.65234
1065.830, 341.7031
1066.933, 84.07422
1068.035, 309.4492
1069.137, 74.15625
1070.239, 112.2305
1071.341, 367.6328
1072.443, 185.0508
1073.545, 331.4727
1074.646, 246.9102
1075.747, 70.36328
1076.848, 258.8203
1077.949, 387.2891
1079.050, 166.0234
1080.150, 77.51172
1081.251, 172.9492
1082.351, 359.4609
1083.451, 386.9805
1084.551, 305.5547
1085.651, 156.1445
1086.750, 497.7539
1087.850, 355.3711
1088.949, 374.0273
1090.048, 530.7070
1091.147, 351.4023
1092.246, 421.1133
1093.345, 394.8359
1094.443, 306.6016
1095.541, 261.3672
1096.639, 240.1523
1097.737, 232.2656
1098.835, 512.7812
1099.933, 339.6328
1101.030, 447.5586
1102.128, 652.5586
1103.225, 295.5977
1104.322, 518.6523
1105.419, 310.7148
1106.515, 411.7930
1107.612, 374.8789
1108.708, 425.9883
1109.804, 318.1133
1110.900, 330.2500
1111.996, 520.3984
1113.092, 279.5742
1114.187, 501.7578
1115.283, 197.9531
1116.378, 397.1602
1117.473, 455.3828
1118.568, 307.6133
1119.662, 333.8516
1120.757, 427.1055
1121.851, 338.3711
1122.946, 278.6445
1124.040, 462.9297
1125.134, 409.2344
1126.227, 293.5430
1127.321, 317.8672
1128.414, 285.9883
1129.508, 150.5430
1130.601, 322.9023
1131.693, 288.2695
1132.786, 339.6523
1133.879, 139.0430
1134.971, 32.55078
1136.064, 175.8516
1137.156, 284.2695
1138.248, 330.6914
1139.339, 368.6875
1140.431, 275.5859
1141.522, 324.0469
1142.614, 214.5156
1143.705, 206.0039
1144.796, 86.50000
1145.887, 367.0117
1146.977, 258.5312
1148.068, 292.0625
1149.158, 48.60938
1150.248, 45.16406
1151.338, 276.7344
1152.428, 248.3164
1153.518, 313.9062
1154.607, 248.5117
1155.696, 42.87500
1156.785, 173.7344
1157.874, 95.35938
1158.963, 448.5781
1160.052, 221.2109
1161.141, 149.6094
1162.229, 47.00391
1163.317, 154.5039
1164.405, 255.7422
1165.493, 398.3203
1166.581, 515.4961
1167.668, 224.7695
1168.756, 319.3477
1169.843, 344.3828
1170.930, 429.1172
1172.017, 247.8594
1173.103, 487.6133
1174.190, 147.6055
1175.276, 365.5703
1176.363, 357.3320
1177.449, 181.9297
1178.535, 370.7266
1179.620, 320.3711
1180.706, 71.18359
1181.791, 92.00781
1182.877, 167.8359
1183.962, 292.6719
1185.047, 265.5391
1186.131, 344.3789
1187.216, 322.2422
1188.300, 216.1094
1189.385, 372.9883
1190.469, 365.5156
1191.553, 242.8242
1192.637, 357.8477
1193.720, 109.7617
1194.804, 335.7539
1195.887, 452.5508
1196.970, 284.4844
1198.053, 87.42969
1199.136, 160.3789
1200.219, 144.6328
1201.301, 320.5977
1202.383, 257.5742
1203.465, 129.5547
1204.547, 482.5430
1205.629, 370.5430
1206.711, 249.5508
1207.792, 202.5625
1208.874, 12.41406
1209.955, 218.5977
1211.036, 5.375000
1212.117, 400.6445
1213.198, 391.6797
1214.278, 424.7148
1215.359, 369.7578
1216.439, 413.8086
1217.519, 437.8711
1218.599, 166.9375
1219.678, 297.0117
1220.758, 377.0938
1221.837, 141.1797
1222.917, 316.2734
1223.996, 135.3750
1225.075, 406.4883
1226.153, 309.6055
1227.232, 193.7227
1228.310, 285.8555
1229.389, 351.9883
1230.467, 385.1367
1231.545, 360.2812
1232.622, 427.7461
1233.700, 371.5938
1234.777, 487.7578
1235.855, 411.9297
1236.932, 392.1094
1238.009, 594.2930
1239.086, 350.4805
1240.162, 322.6758
1241.239, 732.8789
1242.315, 816.0820
1243.391, 701.2930
1244.467, 629.5156
1245.543, 524.7383
1246.619, 755.9648
1247.694, 439.1953
1248.769, 515.4375
1249.844, 658.6797
1250.919, 393.9297
1251.994, 575.1836
1253.069, 644.4414
1254.144, 433.7031
1255.218, 889.9766
1256.292, 701.2500
1257.366, 617.5273
1258.440, 491.8125
1259.514, 544.1055
1260.587, 566.4023
1261.661, 469.7031
1262.734, 538.0117
1263.807, 485.4414
1264.880, 666.3711
1265.952, 377.6953
1267.025, 424.0195
1268.097, 258.3477
1269.170, 532.6914
1270.242, 193.0312
1271.314, 286.3750
1272.385, 233.7305
1273.457, 211.0859
1274.528, 210.0195
1275.600, 249.8164
1276.671, 232.1914
1277.742, 228.5742
1278.812, 426.9570
1279.883, 303.3477
1280.954, 235.7422
1282.024, 402.1484
1283.094, 47.55078
1284.164, 283.9648
1285.234, 116.5508
1286.303, 259.9727
1287.373, 170.4023
1288.442, 178.8633
1289.511, 102.6719
1290.580, 86.25781
1291.649, 56.03516
1292.718, 148.3047
1293.786, 120.3477
1294.855, 211.0234
1295.923, 132.8125
1296.991, 344.6680
1298.059, 38.29688
1299.126, 175.2734
1300.194, 68.25391
1301.261, 243.2461
1302.328, 14.23828
1303.395, 27.76562
1304.462, 255.2227
1305.529, 73.78125
1306.596, 99.17188
1307.662, 1.863281
1308.728, 117.1016
1309.794, 249.0781
1310.860, 469.0664
1311.926, 318.0625
1312.991, 339.0703
1314.057, 291.0859
1315.122, 235.1055
1316.187, 131.1328
1317.252, 353.1719
1318.317, 279.2109
1319.381, 286.2734
1320.446, 195.3477
1321.510, 355.4258
1322.574, 68.51953
1323.638, 36.64844
1324.702, 408.7852
1325.766, 331.9297
1326.829, 503.0703
1327.892, 538.2227
1328.956, 210.3828
1330.019, 278.5547
1331.081, 407.7227
1332.144, 639.8984
1333.206, 242.0742
1334.269, 333.2578
1335.331, 275.4453
1336.393, 277.6289
1337.455, 389.5703
1338.516, 282.3867
1339.578, 213.0273
1340.639, 168.2305
1341.701, 174.4375
1342.762, 137.6484
1343.822, 329.8633
1344.883, 347.0781
1345.944, 449.3008
1347.004, 357.5234
1348.064, 514.7539
1349.124, 276.9844
1350.184, 252.2188
1351.244, 209.4609
1352.304, 287.7031
1353.363, 272.9453
1354.422, 233.1992
1355.481, 214.4531
1356.540, 186.7070
1357.599, 179.9688
1358.657, 474.2344
1359.716, 387.5039
1360.774, 367.7734
1361.832, 190.0469
1362.890, 199.3281
1363.948, 374.6094
1365.006, 320.8945
1366.063, 305.5312
1367.120, 345.8203
1368.178, 286.1172
1369.234, 233.4180
1370.291, 121.7227
1371.348, 259.0312
1372.404, 317.3398
1373.461, 346.6602
1374.517, 286.9883
1375.573, 361.3242
1376.629, 477.6641
1377.684, 290.0156
1378.740, 428.3711
1379.795, 236.7383
1380.850, 367.1133
1381.905, 322.4961
1382.960, 325.8828
1384.015, 261.2852
1385.070, 283.9219
1386.124, 273.1055
1387.178, 304.5273
1388.232, 251.9609
1389.286, 232.4023
1390.340, 265.2812
1391.393, 218.9883
1392.447, 332.7852
1393.500, 157.2656
1394.553, 198.7617
1395.606, 123.2656
1396.659, 589.7812
1397.711, 69.30469
1398.764, 480.8398
1399.816, 505.3867
1400.868, 342.9453
1401.920, 350.5117
1402.972, 691.0938
1404.023, 150.2031
1405.075, 472.8086
1406.126, 503.4258
1407.177, 156.0547
1408.228, 452.7031
1409.279, 359.3594
1410.330, 418.0312
1411.380, 164.7188
1412.431, 403.4336
1413.481, 587.1602
1414.531, 220.9062
1415.580, 429.6680
1416.630, 580.7109
1417.680, 612.7891
1418.729, 520.7734
1419.778, 365.6211
1420.827, 548.7109
1421.876, 512.1250
1422.925, 560.4648
1423.973, 677.5430
1425.022, 551.5078
1426.070, 597.4844
1427.118, 492.4883
1428.166, 597.7227
1429.214, 606.5547
1430.261, 579.4531
1431.309, 683.8477
1432.356, 685.1914
1433.403, 626.3828
1434.450, 337.7734
1435.497, 786.5781
1436.543, 879.7969
1437.590, 603.1406
1438.636, 629.5195
1439.682, 293.9297
1440.728, 636.3828
1441.774, 504.6484
1442.819, 491.8086
1443.865, 420.9336
1444.910, 467.0742
1445.955, 571.0547
1447.000, 493.0000
1448.045, 785.3086
1449.090, 411.8984
1450.134, 671.4883
1451.178, 619.0820
1452.223, 339.6797
1453.267, 408.2930
1454.310, 528.9102
1455.354, 373.5312
1456.398, 454.1719
1457.441, 675.8242
1458.484, 535.4883
1459.527, 592.1523
1460.570, 436.8242
1461.613, 624.4961
1462.655, 456.1758
1463.698, 509.8672
1464.740, 354.5586
1465.782, 667.2578
1466.824, 487.9648
1467.866, 568.6758
1468.907, 257.3828
1469.948, 603.1055
1470.990, 331.8242
1472.031, 583.5508
1473.072, 221.2852
1474.112, 405.0234
1475.153, 255.7617
1476.194, 597.5078
1477.234, 668.2578
1478.274, 178.0156
1479.314, 484.7773
1480.354, 615.5391
1481.393, 326.3086
1482.433, 377.0781
1483.472, 483.8477
1484.511, 516.6250
1485.550, 275.3945
1486.589, 304.1641
1487.628, 282.9336
1488.666, 483.7031
1489.704, 293.4648
1490.743, 26.76953
1491.781, 126.9844
1492.819, 416.7344
1493.856, 91.48047
1494.894, 543.3555
1495.931, 409.3242
1496.968, 119.5039
1498.005, 204.0625
1499.042, 383.7891
1500.079, 99.52734
1501.115, 97.30078
1502.152, 351.1406
1503.188, 224.0352
1504.224, 419.9062
1505.260, 330.7773
1506.296, 354.6445
1507.331, 284.5234
1508.367, 204.4062
1509.402, 141.3164
1510.437, 170.2695
1511.472, 322.2539
1512.507, 294.2812
1513.541, 338.3555
1514.576, 320.4727
1515.610, 299.6367
1516.644, 216.8438
1517.678, 400.1055
1518.712, 404.4180
1519.746, 166.7812
1520.779, 366.2070
1521.813, 340.6914
1522.846, 188.2344
1523.879, 97.85156
1524.912, 280.5352
1525.944, 488.2969
1526.977, 370.1367
1528.009, 25.93750
1529.041, 605.0781
1530.073, 210.1992
1531.105, 13.34766
1532.137, 145.6562
1533.168, 214.0898
1534.200, 373.6406
1535.231, 277.2891
1536.262, 213.0312
1537.293, 370.8672
1538.324, 159.8008
1539.354, 345.8438
1540.385, 388.0078
1541.415, 348.3008
1542.445, 229.7305
1543.475, 305.2969
1544.505, 229.0195
1545.534, 139.9023
1546.564, 79.95703
1547.593, 288.1914
1548.622, 305.6133
1549.651, 262.2422
1550.680, 255.9375
1551.708, 43.90625
1552.737, 265.1016
1553.765, 374.5352
1554.793, 46.22656
1555.821, 223.1992
1556.849, 627.4688
1557.877, 149.0547
1558.904, 26.01562
1559.932, 5.277344
1560.959, 371.3242
1561.986, 372.0117
1563.013, 242.4766
1564.039, 185.1562
1565.066, 232.8867
1566.092, 238.6289
1567.119, 140.7734
1568.145, 0.1601560
1569.170, 121.6445
1570.196, 0.0000000E+00
##END=



