##NAMES=Inyoite
##RRUFFID=R040161
##IDEAL CHEMISTRY=CaB_3_O_3_(OH)_5_&#183;4H_2_O
##LOCALITY=Kramer deposit, Boron, Kern County, California, USA
##OWNER=RRUFF
##SOURCE=University of Arizona Mineral Museum
##DESCRIPTION=Group of colorless indistinct rounded crystals
##STATUS=The identification of this mineral has been confirmed by X-ray diffraction and chemical analysis
##URL=rruff.info/R040161
##MEASURED CHEMISTRY=Ca_1.00_B_3.00_O_3_(OH)_5_Â·4H_2_O
##PIN_ID=L00092
##ORIENTATION=Laser parallel to (1 0 1). Fiducial mark perpendicular to laser is parallel to b [0 1 0]
93.15500, 0.0000000E+00
94.39300, 156.2627
95.63100, 11.65283
96.86900, 81.72803
98.10600, 278.9941
99.34400, 420.8174
100.5810, 647.2954
101.8190, 937.4512
103.0560, 1217.876
104.2930, 1368.492
105.5290, 1166.457
106.7660, 855.1069
108.0020, 719.9854
109.2390, 484.7402
110.4750, 366.0396
111.7110, 267.5796
112.9460, 220.9438
114.1820, 242.3491
115.4170, 268.1431
116.6530, 403.2979
117.8880, 502.6621
119.1230, 473.1328
120.3580, 620.7388
121.5920, 620.5615
122.8270, 873.5703
124.0610, 1040.612
125.2950, 1146.546
126.5290, 1481.253
127.7630, 2025.637
128.9970, 2429.615
130.2300, 3126.117
131.4640, 4023.073
132.6970, 4468.501
133.9300, 4593.287
135.1630, 4037.385
136.3950, 3292.767
137.6280, 2705.412
138.8600, 2365.301
140.0920, 2402.416
141.3240, 2596.742
142.5560, 2810.267
143.7880, 3107.068
145.0190, 3738.627
146.2510, 4595.309
147.4820, 5510.208
148.7130, 6650.551
149.9440, 7390.802
151.1750, 7533.482
152.4050, 6925.996
153.6360, 5489.330
154.8660, 4260.496
156.0960, 3102.513
157.3260, 2282.390
158.5560, 1917.137
159.7850, 1617.765
161.0150, 1596.280
162.2440, 1681.691
163.4730, 1798.006
164.7020, 1943.230
165.9310, 2226.372
167.1590, 2442.409
168.3880, 2787.270
169.6160, 3101.992
170.8440, 3471.955
172.0720, 4039.615
173.3000, 4423.098
174.5280, 4633.543
175.7550, 4743.965
176.9820, 4767.369
178.2100, 4831.766
179.4370, 5108.163
180.6630, 5459.811
181.8900, 5897.968
183.1170, 6536.385
184.3430, 7230.814
185.5690, 8036.262
186.7950, 9274.726
188.0210, 10668.20
189.2470, 11853.71
190.4720, 13422.22
191.6970, 14513.76
192.9230, 15183.33
194.1480, 15434.01
195.3730, 14504.43
196.5970, 13140.08
197.8220, 11362.40
199.0460, 9562.641
200.2700, 7873.782
201.4940, 6528.033
202.7180, 5292.578
203.9420, 4459.717
205.1660, 3555.492
206.3890, 3248.750
207.6120, 2793.195
208.8350, 2430.268
210.0580, 2111.491
211.2810, 1790.377
212.5040, 1553.252
213.7260, 1305.464
214.9480, 1143.885
216.1700, 997.3516
217.3920, 830.8643
218.6140, 773.4189
219.8360, 769.0127
221.0570, 535.6387
222.2790, 525.2939
223.5000, 490.9717
224.7210, 401.6699
225.9410, 386.3887
227.1620, 313.1279
228.3820, 239.8887
229.6030, 221.6699
230.8230, 261.4727
232.0430, 207.0049
233.2630, 355.1436
234.4820, 198.0127
235.7020, 264.9023
236.9210, 330.8174
238.1400, 178.7539
239.3590, 82.71387
240.5780, 317.2959
241.7970, 79.61816
243.0150, 154.6602
244.2340, 176.0742
245.4520, 55.89453
246.6700, 86.06250
247.8880, 18.47070
249.1060, 80.25586
250.3230, 1.216797
251.5400, 36.38379
252.7580, 215.7373
253.9750, 169.2607
255.1920, 77.93750
256.4080, 182.7559
257.6250, 187.7012
258.8410, 373.7646
260.0580, 297.9365
261.2740, 373.2080
262.4900, 460.5723
263.7050, 645.0225
264.9210, 577.5537
266.1360, 769.1602
267.3520, 969.8359
268.5670, 974.5771
269.7820, 1034.376
270.9960, 997.2305
272.2110, 1185.133
273.4250, 1124.084
274.6400, 1070.078
275.8540, 1257.110
277.0680, 1082.182
278.2810, 921.2881
279.4950, 904.4277
280.7090, 700.6006
281.9220, 578.8037
283.1350, 574.0371
284.3480, 360.2969
285.5610, 312.5830
286.7730, 246.8965
287.9860, 163.2334
289.1980, 178.5957
290.4100, 58.98145
291.6220, 122.3857
292.8340, 12.80371
294.0460, 48.77344
295.2570, 67.36426
296.4690, 31.98047
297.6800, 125.6133
298.8910, 41.28516
300.1020, 124.9746
301.3120, 156.7021
302.5230, 32.47363
303.7330, 120.2598
304.9440, 161.0801
306.1540, 124.9443
307.3630, 274.8438
308.5730, 103.8135
309.7830, 178.8125
310.9920, 199.8594
312.2010, 163.9561
313.4100, 203.0947
314.6190, 170.2861
315.8280, 48.51855
317.0370, 121.7744
318.2450, 82.06152
319.4530, 40.36914
320.6610, 126.1006
321.8690, 7.549805
323.0770, 67.20312
324.2850, 122.8643
325.4920, 106.5342
326.6990, 191.1133
327.9060, 251.9014
329.1130, 291.5986
330.3200, 321.3047
331.5270, 326.0205
332.7330, 195.7461
333.9390, 261.4795
335.1450, 140.2236
336.3510, 191.9756
337.5570, 401.7383
338.7630, 303.5098
339.9680, 264.2598
341.1740, 200.9668
342.3790, 208.4404
343.5840, 214.2139
344.7890, 283.6416
345.9930, 319.0303
347.1980, 415.2891
348.4020, 557.4238
349.6060, 532.4375
350.8100, 599.2100
352.0140, 566.2588
353.2180, 615.0850
354.4210, 658.9229
355.6250, 714.2822
356.8280, 786.6631
358.0310, 900.5664
359.2340, 1012.490
360.4360, 1157.436
361.6390, 1417.402
362.8410, 1482.392
364.0430, 1748.401
365.2450, 2115.433
366.4470, 2406.484
367.6490, 2855.558
368.8510, 3195.651
370.0520, 3699.770
371.2530, 4033.907
372.4540, 4336.066
373.6550, 4636.249
374.8560, 4757.452
376.0560, 4734.675
377.2570, 4697.924
378.4570, 4507.193
379.6570, 4441.484
380.8570, 4407.832
382.0570, 4511.201
383.2560, 4551.602
384.4560, 4760.025
385.6550, 5136.482
386.8540, 5321.986
388.0530, 5542.533
389.2520, 5637.119
390.4510, 5570.744
391.6490, 5465.400
392.8470, 4988.373
394.0450, 4671.094
395.2430, 4209.770
396.4410, 3998.561
397.6390, 3641.396
398.8360, 3396.257
400.0340, 3346.140
401.2310, 3086.047
402.4280, 3385.978
403.6250, 3494.928
404.8210, 3612.898
406.0180, 3696.890
407.2140, 3866.926
408.4100, 3602.980
409.6060, 3606.088
410.8020, 3321.215
411.9980, 3050.360
413.1930, 2676.525
414.3890, 2388.710
415.5840, 2099.914
416.7790, 1841.827
417.9740, 1608.908
419.1680, 1427.638
420.3630, 1241.916
421.5570, 1119.214
422.7510, 1077.530
423.9450, 1039.865
425.1390, 881.2197
426.3330, 806.5938
427.5270, 782.9854
428.7200, 783.3965
429.9130, 757.8262
431.1060, 717.2754
432.2990, 700.7432
433.4920, 673.2305
434.6840, 674.7373
435.8770, 637.5127
437.0690, 543.2744
438.2610, 591.1582
439.4530, 467.0020
440.6450, 479.7354
441.8360, 558.3545
443.0280, 585.5342
444.2190, 390.1377
445.4100, 448.9512
446.6010, 369.5459
447.7920, 403.3467
448.9820, 474.8350
450.1730, 358.3496
451.3630, 259.1367
452.5530, 239.7812
453.7430, 308.1689
454.9330, 336.3145
456.1230, 131.5566
457.3120, 219.5039
458.5010, 109.3711
459.6910, 328.0107
460.8800, 194.6719
462.0680, 141.5000
463.2570, 39.39453
464.4460, 147.0244
465.6340, 78.65332
466.8220, 149.7979
468.0100, 226.9717
469.1980, 42.17480
470.3860, 128.4072
471.5730, 245.6689
472.7600, 194.9609
473.9480, 256.2822
475.1350, 262.6328
476.3210, 136.0127
477.5080, 151.4229
478.6950, 245.8633
479.8810, 299.3340
481.0670, 209.8330
482.2530, 142.3633
483.4390, 320.9229
484.6250, 102.5137
485.8100, 201.1348
486.9960, 202.7891
488.1810, 351.4736
489.3660, 386.1895
490.5510, 253.9404
491.7360, 361.7236
492.9200, 375.5420
494.1050, 297.3955
495.2890, 331.2822
496.4730, 497.2051
497.6570, 425.1641
498.8400, 457.1572
500.0240, 371.1865
501.2070, 346.2510
502.3910, 382.3516
503.5740, 287.4863
504.7570, 375.6572
505.9400, 226.8623
507.1220, 260.1025
508.3050, 98.38379
509.4870, 262.7158
510.6690, 142.0830
511.8510, 83.48535
513.0330, 259.9277
514.2140, 248.4062
515.3960, 248.9268
516.5770, 206.5117
517.7580, 205.1299
518.9390, 313.7842
520.1200, 341.4893
521.3010, 402.2295
522.4810, 477.8525
523.6610, 510.8203
524.8420, 592.8594
526.0220, 566.7822
527.2010, 609.7559
528.3810, 571.1943
529.5610, 682.0576
530.7400, 704.7705
531.9190, 808.4863
533.0980, 900.5537
534.2770, 827.8379
535.4560, 768.9531
536.6340, 673.3350
537.8120, 814.4365
538.9910, 823.2285
540.1690, 843.7188
541.3460, 824.2393
542.5240, 811.3154
543.7020, 886.9365
544.8790, 663.5996
546.0560, 701.3291
547.2330, 745.0898
548.4100, 699.8965
549.5870, 711.7197
550.7630, 679.9561
551.9400, 712.8525
553.1160, 603.7822
554.2920, 564.7471
555.4680, 581.4424
556.6440, 591.7852
557.8190, 631.8242
558.9950, 726.9150
560.1700, 819.0420
561.3450, 919.2197
562.5200, 923.4346
563.6950, 983.6992
564.8690, 911.0205
566.0440, 1164.389
567.2180, 1098.788
568.3920, 1215.224
569.5660, 1339.688
570.7400, 1542.184
571.9130, 1519.709
573.0870, 1675.273
574.2600, 1655.865
575.4330, 1880.488
576.6060, 1969.139
577.7790, 2031.818
578.9520, 2275.529
580.1240, 2196.286
581.2960, 2246.093
582.4690, 2304.942
583.6410, 2403.745
584.8120, 2645.812
585.9840, 2758.833
587.1560, 2880.924
588.3270, 3168.058
589.4980, 3222.255
590.6690, 3543.523
591.8400, 3909.855
593.0110, 4064.288
594.1810, 4194.781
595.3510, 4716.350
596.5220, 5157.001
597.6920, 5752.727
598.8610, 6553.535
600.0310, 7654.417
601.2010, 8788.345
602.3700, 10026.33
603.5390, 11800.38
604.7080, 13467.88
605.8770, 16093.03
607.0460, 18871.22
608.2140, 22196.43
609.3830, 25876.66
610.5510, 29761.92
611.7190, 33986.20
612.8870, 37675.50
614.0550, 40702.83
615.2220, 42059.18
616.3900, 41634.57
617.5570, 39115.96
618.7240, 34410.39
619.8910, 29001.82
621.0580, 23731.29
622.2240, 19096.78
623.3910, 15145.29
624.5570, 12009.82
625.7230, 9694.373
626.8890, 7774.947
628.0550, 6428.541
629.2200, 5076.159
630.3860, 4366.795
631.5510, 3726.452
632.7160, 3026.131
633.8810, 2600.826
635.0460, 2124.545
636.2100, 1931.281
637.3750, 1722.036
638.5390, 1484.812
639.7030, 1312.604
640.8670, 1070.416
642.0310, 964.2471
643.1950, 922.0947
644.3580, 896.9609
645.5210, 768.8438
646.6850, 524.7451
647.8480, 514.8389
649.0100, 517.0303
650.1730, 376.9814
651.3350, 380.9492
652.4980, 541.2979
653.6600, 301.3145
654.8220, 348.9102
655.9840, 134.2256
657.1450, 162.2676
658.3070, 118.3232
659.4680, 42.23145
660.6300, 57.31445
661.7910, 176.7881
662.9510, 81.34082
664.1120, 53.01074
665.2730, 4.463867
666.4330, 111.0049
667.5930, 72.54688
668.7530, 32.60938
669.9130, 51.57324
671.0730, 47.44043
672.2320, 28.92480
673.3920, 45.91895
674.5510, 50.53027
675.7100, 67.06348
676.8690, 103.3398
678.0280, 114.4824
679.1860, 32.49512
680.3450, 34.47852
681.5030, 16.62012
682.6610, 11.66602
683.8190, 174.0967
684.9770, 50.32129
686.1340, 63.35742
687.2920, 97.63672
688.4490, 107.3271
689.6060, 135.9893
690.7630, 127.0381
691.9200, 133.8066
693.0760, 203.3994
694.2330, 157.4336
695.3890, 269.4463
696.5450, 275.3818
697.7010, 142.9648
698.8570, 350.9756
700.0130, 237.0029
701.1680, 306.7559
702.3230, 322.1289
703.4780, 297.4375
704.6330, 461.3516
705.7880, 494.7578
706.9430, 542.0303
708.0970, 580.1826
709.2520, 785.4033
710.4060, 837.7734
711.5600, 748.9375
712.7140, 1010.884
713.8670, 1033.918
715.0210, 1202.860
716.1740, 1359.820
717.3270, 1456.756
718.4800, 1677.685
719.6330, 2126.611
720.7860, 2399.530
721.9380, 2956.444
723.0910, 3427.353
724.2430, 3881.255
725.3950, 4557.173
726.5470, 5032.083
727.6980, 6048.984
728.8500, 6619.881
730.0010, 6907.767
731.1530, 6950.645
732.3040, 6762.513
733.4550, 6144.372
734.6050, 5307.221
735.7560, 4270.059
736.9060, 3455.887
738.0560, 3052.705
739.2060, 2249.511
740.3560, 1891.303
741.5060, 1632.084
742.6560, 1284.851
743.8050, 1148.610
744.9540, 934.3555
746.1030, 935.0859
747.2520, 678.8037
748.4010, 736.5068
749.5500, 663.1953
750.6980, 591.8691
751.8460, 518.5293
752.9950, 451.1748
754.1420, 487.8047
755.2900, 590.4199
756.4380, 431.0205
757.5850, 525.6045
758.7330, 637.1719
759.8800, 414.7246
761.0270, 348.2607
762.1730, 274.7812
763.3200, 332.2852
764.4670, 350.7725
765.6130, 300.2441
766.7590, 344.6982
767.9050, 288.7764
769.0510, 297.5566
770.1960, 255.9600
771.3420, 326.3447
772.4870, 439.7285
773.6320, 329.0957
774.7770, 278.4434
775.9220, 133.7891
777.0670, 163.0986
778.2110, 192.3926
779.3560, 137.6660
780.5000, 186.9199
781.6440, 188.1553
782.7880, 146.3711
783.9320, 289.5674
785.0750, 39.74414
786.2180, 2.110352
787.3620, 165.9854
788.5050, 136.0605
789.6480, 38.11621
790.7900, 124.1387
791.9330, 34.13867
793.0750, 46.89648
794.2170, 221.9922
795.3590, 169.8604
796.5010, 6.292969
797.6430, 141.4980
798.7850, 33.26758
799.9260, 21.34961
801.0670, 4.959961
802.2080, 38.18750
803.3490, 19.21484
804.4900, 87.32617
805.6310, 58.41016
806.7710, 59.91992
807.9110, 94.12109
809.0510, 21.35059
810.1910, 10.94043
811.3310, 79.24414
812.4710, 39.38672
813.6100, 32.70215
814.7490, 56.07812
815.8880, 134.7676
817.0270, 129.7705
818.1660, 49.75195
819.3050, 71.81445
820.4430, 6.050781
821.5820, 86.12695
822.7200, 123.6016
823.8580, 241.3086
824.9950, 234.9785
826.1330, 0.3574220
827.2710, 98.88867
828.4080, 45.48438
829.5450, 56.04883
830.6820, 101.5840
831.8190, 105.0996
832.9560, 39.58984
834.0920, 59.05469
835.2280, 36.96680
836.3650, 41.11133
837.5010, 13.22266
838.6360, 30.47852
839.7720, 61.24414
840.9080, 23.08594
842.0430, 74.01758
843.1780, 28.09180
844.3130, 95.13086
845.4480, 89.21484
846.5830, 82.67773
847.7170, 9.328125
848.8520, 228.2227
849.9860, 125.1230
851.1200, 341.4961
852.2540, 134.3496
853.3870, 350.1816
854.5210, 250.1602
855.6540, 344.9453
856.7880, 312.7090
857.9210, 338.4512
859.0540, 356.1699
860.1860, 390.8672
861.3190, 243.5215
862.4510, 326.1738
863.5840, 309.8027
864.7160, 559.4062
865.8480, 517.5703
866.9790, 650.5508
868.1110, 526.0879
869.2420, 513.6016
870.3740, 446.0938
871.5050, 501.5645
872.6360, 490.0215
873.7660, 450.4570
874.8970, 477.8691
876.0280, 403.2617
877.1580, 474.6289
878.2880, 641.9727
879.4180, 500.2969
880.5480, 577.9590
881.6770, 414.8789
882.8070, 577.1348
883.9360, 498.3750
885.0650, 559.6113
886.1940, 456.8223
887.3230, 259.0176
888.4520, 345.1895
889.5800, 345.3477
890.7090, 297.5000
891.8370, 473.6309
892.9650, 283.7402
894.0930, 374.8340
895.2200, 198.9062
896.3480, 168.9590
897.4750, 354.9902
898.6020, 373.0020
899.7290, 354.9941
900.8560, 352.0645
901.9830, 321.0156
903.1090, 181.9453
904.2360, 204.9004
905.3620, 337.7910
906.4880, 229.6621
907.6140, 384.2480
908.7400, 205.0801
909.8650, 211.8906
910.9900, 143.6836
912.1160, 344.4570
913.2410, 321.2090
914.3660, 267.9434
915.4900, 335.6582
916.6150, 282.3555
917.7390, 367.0332
918.8640, 466.6895
919.9880, 316.3281
921.1120, 297.7754
922.2350, 346.1191
923.3590, 338.7031
924.4820, 386.2676
925.6060, 430.4492
926.7290, 307.9590
927.8520, 487.8867
928.9740, 646.0957
930.0970, 654.5723
931.2190, 514.0312
932.3420, 465.6387
933.4640, 509.0645
934.5860, 413.6719
935.7080, 524.0137
936.8290, 540.8320
937.9510, 322.8105
939.0720, 367.7188
940.1930, 394.7188
941.3140, 221.2109
942.4350, 453.5957
943.5560, 616.8730
944.6760, 365.7539
945.7960, 329.2969
946.9170, 402.1309
948.0370, 700.9043
949.1560, 536.6719
950.2760, 503.1504
951.3960, 471.4824
952.5150, 480.8008
953.6340, 518.1953
954.7530, 632.1992
955.8720, 670.0508
956.9910, 537.1035
958.1090, 450.3359
959.2280, 441.5918
960.3460, 582.8633
961.4640, 531.4062
962.5820, 492.4062
963.6990, 447.9824
964.8170, 337.5664
965.9340, 374.7012
967.0510, 330.8496
968.1690, 229.0664
969.2850, 376.6328
970.4020, 334.7617
971.5190, 182.8672
972.6350, 262.2402
973.7510, 314.9824
974.8670, 231.7812
975.9830, 229.9688
977.0990, 176.6543
978.2150, 54.46484
979.3300, 5.388672
980.4450, 77.76562
981.5600, 49.61523
982.6750, 70.72266
983.7900, 64.80273
984.9050, 14.24805
986.0190, 69.78125
987.1340, 142.7832
988.2480, 5.197266
989.3620, 38.81641
990.4750, 42.82422
991.5890, 64.82812
992.7020, 104.8301
993.8160, 152.8262
994.9290, 90.18164
996.0420, 75.76172
997.1550, 123.7051
998.2670, 115.6426
999.3800, 256.5762
1000.492, 239.5098
1001.604, 119.4395
1002.716, 111.3652
1003.828, 219.2871
1004.940, 242.2090
1006.051, 257.6133
1007.163, 173.2891
1008.274, 258.2031
1009.385, 258.1133
1010.496, 223.0234
1011.606, 348.9297
1012.717, 425.8340
1013.827, 440.7383
1014.937, 427.6387
1016.047, 353.5391
1017.157, 354.0781
1018.267, 311.1250
1019.377, 319.0234
1020.486, 321.4219
1021.595, 353.3164
1022.704, 317.3340
1023.813, 274.4180
1024.922, 254.3105
1026.030, 180.2031
1027.139, 143.1211
1028.247, 160.0352
1029.355, 214.9883
1030.463, 206.3594
1031.571, 155.3496
1032.678, 274.3418
1033.786, 4.640625
1034.893, 157.4258
1036.000, 238.5059
1037.107, 1.398438
1038.214, 68.70312
1039.321, 77.80469
1040.427, 73.09375
1041.533, 194.9766
1042.639, 313.0469
1043.745, 216.1133
1044.851, 367.1719
1045.957, 288.2422
1047.062, 501.3164
1048.168, 209.3926
1049.273, 282.4688
1050.378, 256.5488
1051.482, 401.6289
1052.587, 374.7129
1053.692, 345.7949
1054.796, 518.8887
1055.900, 515.9980
1057.004, 655.1113
1058.108, 774.2246
1059.212, 799.3477
1060.315, 744.4727
1061.418, 809.6113
1062.522, 865.7773
1063.625, 721.9473
1064.728, 776.1211
1065.830, 722.3125
1066.933, 526.5098
1068.035, 854.7188
1069.137, 663.9395
1070.239, 660.1797
1071.341, 502.4336
1072.443, 550.7070
1073.545, 471.9863
1074.646, 653.2754
1075.747, 459.5996
1076.848, 384.9629
1077.949, 490.3516
1079.050, 352.7617
1080.150, 302.1777
1081.251, 383.6230
1082.351, 285.0801
1083.451, 454.5430
1084.551, 281.0117
1085.651, 342.4844
1086.750, 390.9668
1087.850, 330.4805
1088.949, 243.0156
1090.048, 242.5859
1091.147, 281.1641
1092.246, 265.7461
1093.345, 384.3320
1094.443, 219.9355
1095.541, 274.5430
1096.639, 180.1582
1097.737, 353.7832
1098.835, 259.4141
1099.933, 334.0508
1101.030, 420.6953
1102.128, 258.3477
1103.225, 357.0098
1104.322, 353.7012
1105.419, 332.4043
1106.515, 311.1348
1107.612, 328.8965
1108.708, 326.6816
1109.804, 341.4746
1110.900, 343.8789
1111.996, 316.0254
1113.092, 339.3750
1114.187, 315.5117
1115.283, 298.3848
1116.378, 330.2324
1117.473, 340.5957
1118.568, 306.4551
1119.662, 271.3262
1120.757, 372.0312
1121.851, 199.9141
1122.946, 365.8027
1124.040, 396.6973
1125.134, 319.5977
1126.227, 347.9473
1127.321, 347.4375
1128.414, 244.3594
1129.508, 313.2891
1130.601, 307.2246
1131.693, 169.1680
1132.786, 180.1191
1133.879, 164.0762
1134.971, 290.0430
1136.064, 199.0156
1137.156, 59.00586
1138.248, 187.9609
1139.339, 85.93359
1140.431, 52.91211
1141.522, 166.9023
1142.614, 121.8965
1143.705, 164.3633
1144.796, 84.91016
1145.887, 136.9258
1146.977, 142.9531
1148.068, 32.01562
1149.158, 83.98633
1150.248, 80.01758
1151.338, 18.97070
1152.428, 23.04102
1153.518, 39.93750
1154.607, 85.91992
1155.696, 46.06836
1156.785, 185.0625
1157.874, 31.93164
1158.963, 57.45508
1160.052, 125.7148
1161.141, 11.75195
1162.229, 89.09375
1163.317, 78.74609
1164.405, 184.4941
1165.493, 135.2168
1166.581, 176.8672
1167.668, 153.5742
1168.756, 195.4199
1169.843, 230.8574
1170.930, 274.9199
1172.017, 329.2539
1173.103, 323.3242
1174.190, 153.4023
1175.276, 182.3965
1176.363, 232.6543
1177.449, 101.7559
1178.535, 203.8652
1179.620, 211.9785
1180.706, 341.0977
1181.791, 393.2207
1182.877, 304.3496
1183.962, 334.4844
1185.047, 316.0391
1186.131, 313.0430
1187.216, 272.9258
1188.300, 338.0820
1189.385, 284.2480
1190.469, 282.4160
1191.553, 250.5898
1192.637, 418.7695
1193.720, 254.9531
1194.804, 298.1445
1195.887, 142.3398
1196.970, 371.5391
1198.053, 489.7461
1199.136, 386.9570
1200.219, 385.1719
1201.301, 482.3926
1202.383, 587.6191
1203.465, 431.8516
1204.547, 460.0879
1205.629, 486.3281
1206.711, 390.5742
1207.792, 595.8242
1208.874, 621.0801
1209.955, 505.3379
1211.036, 673.6035
1212.117, 820.8730
1213.198, 681.1445
1214.278, 698.4199
1215.359, 709.6504
1216.439, 632.9863
1217.519, 679.2773
1218.599, 679.5703
1219.678, 630.8672
1220.758, 639.1699
1221.837, 541.4746
1222.917, 662.7832
1223.996, 847.0977
1225.075, 679.4141
1226.153, 561.7344
1227.232, 712.0586
1228.310, 564.3867
1229.389, 856.7188
1230.467, 678.0527
1231.545, 669.4160
1232.622, 478.7949
1233.700, 758.1777
1234.777, 374.5625
1235.855, 652.9512
1236.932, 556.3438
1238.009, 481.7383
1239.086, 526.1367
1240.162, 628.5410
1241.239, 517.9434
1242.315, 742.3535
1243.391, 612.7832
1244.467, 537.2285
1245.543, 631.6973
1246.619, 696.1660
1247.694, 611.6426
1248.769, 781.1211
1249.844, 778.6016
1250.919, 591.0879
1251.994, 570.5762
1253.069, 610.0664
1254.144, 561.5605
1255.218, 587.7285
1256.292, 556.5566
1257.366, 651.0801
1258.440, 666.6074
1259.514, 783.1367
1260.587, 604.6680
1261.661, 508.2051
1262.734, 609.7422
1263.807, 584.2812
1264.880, 528.8262
1265.952, 501.3730
1267.025, 465.6758
1268.097, 351.2266
1269.170, 549.7812
1270.242, 397.3398
1271.314, 644.9004
1272.385, 297.4609
1273.457, 437.0273
1274.528, 319.5957
1275.600, 373.1680
1276.671, 239.7422
1277.742, 351.3203
1278.812, 198.1113
1279.883, 180.6934
1280.954, 53.77734
1282.024, 55.02734
1283.094, 226.5840
1284.164, 60.23633
1285.234, 197.8359
1286.303, 205.4355
1287.373, 79.99023
1288.442, 141.4297
1289.511, 16.94531
1290.580, 102.8906
1291.649, 1.472656
1292.718, 85.06250
1293.786, 181.6992
1294.855, 35.42969
1295.923, 68.18359
1296.991, 7.027344
1298.059, 46.23828
1299.126, 410.4512
1300.194, 53.66602
1301.261, 407.9023
1302.328, 181.1406
1303.395, 13.06445
1304.462, 207.3086
1305.529, 36.56641
1306.596, 89.82812
1307.662, 296.0938
1308.728, 245.3633
1309.794, 264.6348
1310.860, 442.9121
1311.926, 368.1914
1312.991, 484.4746
1314.057, 273.7617
1315.122, 220.0527
1316.187, 357.3457
1317.252, 318.6406
1318.317, 356.9414
1319.381, 340.2441
1320.446, 207.5527
1321.510, 289.8652
1322.574, 281.1758
1323.638, 392.4922
1324.702, 447.8105
1325.766, 546.1309
1326.829, 138.4551
1327.892, 353.7793
1328.956, 358.1074
1330.019, 235.4375
1331.081, 470.7695
1332.144, 287.1074
1333.206, 314.4453
1334.269, 343.7852
1335.331, 159.1270
1336.393, 193.4727
1337.455, 127.8223
1338.516, 126.1914
1339.578, 299.5234
1340.639, 165.8789
1341.701, 270.2363
1342.762, 253.5957
1343.822, 258.9570
1344.883, 332.3203
1345.944, 305.7949
1347.004, 204.0527
1348.064, 319.4238
1349.124, 270.7949
1350.184, 294.1680
1351.244, 323.5449
1352.304, 214.9219
1353.363, 299.3027
1354.422, 247.6855
1355.481, 310.0703
1356.540, 345.4551
1357.599, 283.8438
1358.657, 226.7090
1359.716, 184.9336
1360.774, 353.3281
1361.832, 254.7227
1362.890, 303.1191
1363.948, 273.5195
1365.006, 260.9199
1366.063, 296.3242
1367.120, 274.7266
1368.178, 287.1348
1369.234, 317.5430
1370.291, 349.9551
1371.348, 135.3691
1372.404, 252.7871
1373.461, 485.2109
1374.517, 299.6387
1375.573, 219.0703
1376.629, 341.4941
1377.684, 119.9219
1378.740, 227.3535
1379.795, 416.7910
1380.850, 381.2344
1381.905, 463.3906
1382.960, 454.1328
1384.015, 487.5898
1385.070, 320.0488
1386.124, 314.5137
1387.178, 208.9844
1388.232, 276.4590
1389.286, 317.9375
1390.340, 104.4238
1391.393, 77.91211
1392.447, 249.4102
1393.500, 75.91016
1394.553, 85.42773
1395.606, 159.9512
1396.659, 244.4824
1397.711, 198.0176
1398.764, 261.5586
1399.816, 288.1055
1400.868, 286.6602
1401.920, 337.2207
1402.972, 333.7930
1404.023, 316.2637
1405.075, 152.7461
1406.126, 188.2500
1407.177, 121.0508
1408.228, 82.56836
1409.279, 399.0918
1410.330, 206.6289
1411.380, 257.1855
1412.431, 430.7520
1413.481, 69.32422
1414.531, 229.5195
1415.580, 239.8594
1416.630, 143.9375
1417.680, 131.7148
1418.729, 215.6992
1419.778, 85.60352
1420.827, 68.44727
1421.876, 233.4766
1422.925, 220.4609
1423.973, 228.8984
1425.022, 251.5605
1426.070, 141.2324
1427.118, 161.9160
1428.166, 283.6074
1429.214, 37.68750
1430.261, 277.9629
1431.309, 104.0312
1432.356, 240.7734
1433.403, 236.5332
1434.450, 61.31250
1435.497, 200.1113
1436.543, 26.93164
1437.590, 48.77344
1438.636, 110.6426
1439.682, 149.3789
1440.728, 122.1250
1441.774, 149.7715
1442.819, 192.6094
1443.865, 164.3438
1444.910, 232.0840
1445.955, 301.8535
1447.000, 289.6953
1448.045, 244.3379
1449.090, 181.9805
1450.134, 257.6309
1451.178, 203.3926
1452.223, 249.9395
1453.267, 177.5996
1454.310, 269.2656
1455.354, 242.9355
1456.398, 354.6074
1457.441, 229.2852
1458.484, 356.9668
1459.527, 263.6523
1460.570, 91.34180
1461.613, 241.0332
1462.655, 263.7324
1463.698, 209.4336
1464.740, 266.1367
1465.782, 244.1094
1466.824, 146.4492
1467.866, 282.0801
1468.907, 211.7129
1469.948, 317.3477
1470.990, 259.9863
1472.031, 104.6270
1473.072, 204.2695
1474.112, 93.91211
1475.153, 65.56055
1476.194, 197.2090
1477.234, 294.8594
1478.274, 159.5117
1479.314, 83.16406
1480.354, 333.8203
1481.393, 145.4766
1482.433, 124.1328
1483.472, 96.20898
1484.511, 54.09375
1485.550, 192.1016
1486.589, 36.75781
1487.628, 158.4121
1488.666, 268.0645
1489.704, 376.7168
1490.743, 354.3672
1491.781, 245.0156
1492.819, 240.6602
1493.856, 124.4434
1494.894, 65.36328
1495.931, 52.38867
1496.968, 95.65039
1498.005, 142.0195
1499.042, 254.4043
1500.079, 351.8047
1501.115, 102.2500
1502.152, 146.6035
1503.188, 242.9668
1504.224, 204.3457
1505.260, 271.7324
1506.296, 263.8320
1507.331, 235.0273
1508.367, 206.9746
1509.402, 195.4199
1510.437, 86.88477
1511.472, 119.3691
1512.507, 39.87891
1513.541, 345.4141
1514.576, 310.9727
1515.610, 243.5586
1516.644, 317.1719
1517.678, 93.81445
1518.712, 72.48633
1519.746, 260.1934
1520.779, 94.93750
1521.813, 146.7168
1522.846, 207.5430
1523.879, 125.4082
1524.912, 347.3203
1525.944, 91.28320
1526.977, 11.29688
1528.009, 280.4453
1529.041, 117.9824
1530.073, 127.5586
1531.105, 9.830078
1532.137, 290.8203
1533.168, 122.5098
1534.200, 163.2207
1535.231, 120.9375
1536.262, 180.7070
1537.293, 163.5371
1538.324, 52.37891
1539.354, 61.23438
1540.385, 88.09570
1541.415, 140.9727
1542.445, 160.9746
1543.475, 184.3281
1544.505, 197.6250
1545.534, 208.5039
1546.564, 154.3672
1547.593, 143.2090
1548.622, 79.01367
1549.651, 49.37305
1550.680, 26.40430
1551.708, 50.67383
1552.737, 6.287109
1553.765, 127.1523
1554.793, 34.39453
1555.821, 178.2266
1556.849, 206.0508
1557.877, 249.1191
1558.904, 67.49805
1559.932, 229.2793
1560.959, 190.4629
1561.986, 303.2891
1563.013, 113.3652
1564.039, 93.64844
1565.066, 176.6934
1566.092, 9.330078
1567.119, 218.3281
1568.145, 162.9473
1569.170, 215.7910
1570.196, 0.0000000E+00
##END=



