##NAMES=Jadeite
##RRUFFID=R050220
##IDEAL CHEMISTRY=NaAlSi_2_O_6_
##LOCALITY=Clear Creek, San Benito County, California, USA
##OWNER=RRUFF
##SOURCE=Hatt Yoder
##DESCRIPTION=Aggregate of colorless bladed crystals
##STATUS=The identification of this mineral has been confirmed by X-ray diffraction and chemical analysis
##URL=rruff.info/R050220
##MEASURED CHEMISTRY=Na_1.00_Al_1.00_(Si_0.99_Al_0.01_)_2_O_6_
##PIN_ID=L01047
##ORIENTATION=Laser parallel to b* (0 1 0). Fiducial mark perpendicular to laser is parallel to c [0 0 1]
105.5290, 0.0000000E+00
106.7660, 470.2241
108.0020, 835.3916
109.2390, 440.5664
110.4750, 112.0869
111.7110, 7.852539
112.9460, 99.91064
114.1820, 282.2974
115.4170, 206.9116
116.6530, 206.0298
117.8880, 50.11279
119.1230, 54.72998
120.3580, 11.46533
121.5920, 8.247070
122.8270, 69.64746
124.0610, 76.55225
125.2950, 1.803223
126.5290, 63.28955
127.7630, 60.93066
128.9970, 145.6011
130.2300, 299.1953
131.4640, 351.6240
132.6970, 411.8145
133.9300, 411.7021
135.1630, 638.2344
136.3950, 751.3760
137.6280, 1138.090
138.8600, 1528.351
140.0920, 2074.152
141.3240, 2857.420
142.5560, 4344.127
143.7880, 6464.234
145.0190, 7760.708
146.2510, 6904.718
147.4820, 4752.517
148.7130, 3002.596
149.9440, 1690.908
151.1750, 1169.437
152.4050, 836.1729
153.6360, 611.1123
154.8660, 464.2480
156.0960, 363.5771
157.3260, 311.0928
158.5560, 248.4121
159.7850, 155.6709
161.0150, 256.7295
162.2440, 301.9678
163.4730, 435.3818
164.7020, 436.9805
165.9310, 458.5742
167.1590, 320.0000
168.3880, 397.2510
169.6160, 400.6562
170.8440, 291.2139
172.0720, 291.4697
173.3000, 235.9639
174.5280, 187.9404
175.7550, 228.3271
176.9820, 224.9883
178.2100, 309.7100
179.4370, 313.1895
180.6630, 366.6318
181.8900, 439.0664
183.1170, 393.5127
184.3430, 421.9873
185.5690, 594.6846
186.7950, 580.4824
188.0210, 719.6611
189.2470, 1029.514
190.4720, 1459.923
191.6970, 1870.749
192.9230, 2600.312
194.1480, 3204.955
195.3730, 3607.684
196.5970, 4261.496
197.8220, 5854.396
199.0460, 8135.383
200.2700, 11942.45
201.4940, 18250.61
202.7180, 28511.85
203.9420, 35411.18
205.1660, 30073.60
206.3890, 20620.11
207.6120, 13211.69
208.8350, 7771.366
210.0580, 4736.123
211.2810, 2583.969
212.5040, 1988.915
213.7260, 1321.985
214.9480, 1106.154
216.1700, 893.4717
217.3920, 815.8994
218.6140, 979.4033
219.8360, 1239.989
221.0570, 1474.658
222.2790, 2000.406
223.5000, 1859.353
224.7210, 2496.960
225.9410, 1640.498
227.1620, 913.4854
228.3820, 650.5889
229.6030, 248.7793
230.8230, 180.0459
232.0430, 108.4268
233.2630, 88.91113
234.4820, 23.46777
235.7020, 105.0947
236.9210, 14.21191
238.1400, 61.54980
239.3590, 16.62207
240.5780, 66.27148
241.7970, 106.2295
243.0150, 137.2520
244.2340, 245.3359
245.4520, 309.4814
246.6700, 391.6846
247.8880, 385.9492
249.1060, 578.2734
250.3230, 1008.657
251.5400, 1178.100
252.7580, 1837.340
253.9750, 2742.207
255.1920, 4013.514
256.4080, 4726.156
257.6250, 4232.108
258.8410, 2912.202
260.0580, 1702.651
261.2740, 833.3164
262.4900, 376.1787
263.7050, 175.2217
264.9210, 5.569336
266.1360, 0.7968750
267.3520, 200.8125
268.5670, 62.19531
269.7820, 115.4561
270.9960, 99.38867
272.2110, 57.64941
273.4250, 56.41602
274.6400, 164.5859
275.8540, 45.85547
277.0680, 10.77832
278.2810, 372.6768
279.4950, 272.2227
280.7090, 360.8535
281.9220, 567.5674
283.1350, 707.3604
284.3480, 893.2305
285.5610, 1175.176
286.7730, 1529.193
287.9860, 1982.282
289.1980, 2749.438
290.4100, 3105.662
291.6220, 3844.950
292.8340, 4083.301
294.0460, 4109.711
295.2570, 3654.179
296.4690, 3062.705
297.6800, 2432.285
298.8910, 1920.922
300.1020, 1597.612
301.3120, 1267.356
302.5230, 1086.892
303.7330, 942.9990
304.9440, 962.8994
306.1540, 949.8477
307.3630, 1067.846
308.5730, 1279.894
309.7830, 1324.989
310.9920, 1387.133
312.2010, 1347.321
313.4100, 1206.556
314.6190, 988.8330
315.8280, 818.9404
317.0370, 459.3115
318.2450, 470.6699
319.4530, 527.4844
320.6610, 328.3682
321.8690, 537.9023
323.0770, 644.8496
324.2850, 743.3408
325.4920, 930.4639
326.6990, 1381.330
327.9060, 1584.107
329.1130, 1559.096
330.3200, 1595.794
331.5270, 1317.704
332.7330, 951.4678
333.9390, 668.3877
335.1450, 439.0693
336.3510, 296.0957
337.5570, 127.1699
338.7630, 70.31445
339.9680, 25.49902
341.1740, 56.18945
342.3790, 81.99707
343.5840, 40.69238
344.7890, 18.65430
345.9930, 86.99316
347.1980, 164.4307
348.4020, 152.4375
349.6060, 208.8047
350.8100, 214.6992
352.0140, 254.0742
353.2180, 330.3730
354.4210, 531.5322
355.6250, 548.1035
356.8280, 677.2686
358.0310, 906.1650
359.2340, 1006.062
360.4360, 1531.115
361.6390, 1998.088
362.8410, 2518.092
364.0430, 3403.129
365.2450, 4428.192
366.4470, 5931.287
367.6490, 7341.409
368.8510, 9560.556
370.0520, 12704.70
371.2530, 16472.87
372.4540, 21324.06
373.6550, 25562.28
374.8560, 28472.53
376.0560, 28072.81
377.2570, 24349.10
378.4570, 19677.43
379.6570, 14912.78
380.8570, 11345.15
382.0570, 8721.300
383.2560, 6997.719
384.4560, 5985.861
385.6550, 5262.329
386.8540, 4586.820
388.0530, 4027.333
389.2520, 3397.487
390.4510, 2872.876
391.6490, 2327.004
392.8470, 1938.606
394.0450, 1546.229
395.2430, 1261.874
396.4410, 896.5371
397.6390, 770.2480
398.8360, 671.0000
400.0340, 623.7920
401.2310, 406.9072
402.4280, 614.7754
403.6250, 442.6787
404.8210, 566.6172
406.0180, 585.5889
407.2140, 610.5947
408.4100, 628.8809
409.6060, 742.4883
410.8020, 864.9297
411.9980, 971.2637
413.1930, 1088.873
414.3890, 1174.667
415.5840, 1417.881
416.7790, 1754.701
417.9740, 1925.969
419.1680, 2035.264
420.3630, 2133.586
421.5570, 2204.731
422.7510, 2172.104
423.9450, 2639.502
425.1390, 2608.924
426.3330, 3042.367
427.5270, 3626.018
428.7200, 4220.330
429.9130, 4996.844
431.1060, 5803.381
432.2990, 6578.939
433.4920, 6913.520
434.6840, 7004.122
435.8770, 6396.743
437.0690, 5778.387
438.2610, 4800.051
439.4530, 3913.733
440.6450, 3059.438
441.8360, 2561.160
443.0280, 2015.901
444.2190, 1424.662
445.4100, 1279.440
446.6010, 1000.237
447.7920, 703.0518
448.9820, 592.8848
450.1730, 482.7344
451.3630, 293.5996
452.5530, 192.4834
453.7430, 215.3828
454.9330, 110.2979
456.1230, 154.2295
457.3120, 118.1758
458.5010, 8.861328
459.6910, 60.59277
460.8800, 34.77539
462.0680, 21.79492
463.2570, 43.81348
464.4460, 38.21094
465.6340, 4.410156
466.8220, 91.21973
468.0100, 19.62500
469.1980, 34.62402
470.3860, 74.48340
471.5730, 53.76758
472.7600, 63.17676
473.9480, 52.31348
475.1350, 5.474609
476.3210, 114.7969
477.5080, 0.3330080
478.6950, 112.5098
479.8810, 131.1973
481.0670, 136.8252
482.2530, 160.7803
483.4390, 174.5146
484.6250, 146.1357
485.8100, 120.6240
486.9960, 129.8330
488.1810, 43.82227
489.3660, 52.18359
490.5510, 54.32129
491.7360, 0.5800780
492.9200, 16.61914
494.1050, 6.268555
495.2890, 121.5361
496.4730, 130.4092
497.6570, 12.26172
498.8400, 59.61426
500.0240, 3.155273
501.2070, 50.14941
502.3910, 34.34863
503.5740, 108.5156
504.7570, 213.7783
505.9400, 200.4668
507.1220, 137.4668
508.3050, 163.4697
509.4870, 86.47168
510.6690, 434.4756
511.8510, 351.5273
513.0330, 517.5332
514.2140, 475.5400
515.3960, 661.5459
516.5770, 1188.552
517.7580, 1377.559
518.9390, 1590.724
520.1200, 2034.739
521.3010, 2773.754
522.4810, 3191.776
523.6610, 4002.799
524.8420, 4264.823
526.0220, 4000.848
527.2010, 3334.874
528.3810, 2562.896
529.5610, 1981.931
530.7400, 1464.706
531.9190, 1041.838
533.0980, 656.1797
534.2770, 455.2598
535.4560, 266.3662
536.6340, 79.47168
537.8120, 69.57227
538.9910, 163.6709
540.1690, 97.76562
541.3460, 274.8574
542.5240, 43.94629
543.7020, 175.0264
544.8790, 77.10254
546.0560, 210.1748
547.2330, 133.2441
548.4100, 116.3096
549.5870, 50.37109
550.7630, 275.4229
551.9400, 230.4697
553.1160, 370.5117
554.2920, 432.5898
555.4680, 329.6699
556.6440, 334.7588
557.8190, 481.8398
558.9950, 698.9229
560.1700, 740.9980
561.3450, 928.0684
562.5200, 935.1289
563.6950, 1180.186
564.8690, 1377.232
566.0440, 1708.272
567.2180, 2272.303
568.3920, 2679.327
569.5660, 3672.341
570.7400, 4598.347
571.9130, 5971.344
573.0870, 7704.331
574.2600, 9434.309
575.4330, 10779.28
576.6060, 10516.24
577.7790, 9048.187
578.9520, 6990.125
580.1240, 5037.054
581.2960, 3740.973
582.4690, 2594.881
583.6410, 1985.779
584.8120, 1570.665
585.9840, 1193.541
587.1560, 1199.405
588.3270, 969.2578
589.4980, 796.1006
590.6690, 789.9297
591.8400, 660.7490
593.0110, 628.5547
594.1810, 554.3496
595.3510, 438.1318
596.5220, 286.9023
597.6920, 272.6602
598.8610, 120.4053
600.0310, 34.35254
601.2010, 68.05859
602.3700, 133.8018
603.5390, 222.1143
604.7080, 103.3857
605.8770, 53.96680
607.0460, 81.26855
608.2140, 15.01660
609.3830, 103.0752
610.5510, 91.44922
611.7190, 79.93848
612.8870, 1.589844
614.0550, 53.84473
615.2220, 38.25684
616.3900, 25.21582
617.5570, 44.87891
618.7240, 7.312500
619.8910, 0.9208980
621.0580, 69.88477
622.2240, 74.23535
623.3910, 6.335938
624.5570, 10.59473
625.7230, 37.43750
626.8890, 5.458008
628.0550, 10.44629
629.2200, 16.27539
630.3860, 31.37793
631.5510, 20.74512
632.7160, 72.23242
633.8810, 63.40039
635.0460, 9.754883
636.2100, 51.08008
637.3750, 87.52930
638.5390, 63.36328
639.7030, 50.62109
640.8670, 112.1641
642.0310, 3.730469
643.1950, 48.14746
644.3580, 58.67188
645.5210, 55.17773
646.6850, 170.6641
647.8480, 162.1367
649.0100, 211.5928
650.1730, 250.9375
651.3350, 109.4648
652.4980, 251.8799
653.6600, 280.2793
654.8220, 173.6650
655.9840, 244.0381
657.1450, 241.3955
658.3070, 100.6992
659.4680, 258.0527
660.6300, 351.3779
661.7910, 500.4404
662.9510, 457.9062
664.1120, 335.2568
665.2730, 397.9922
666.4330, 475.2432
667.5930, 655.4824
668.7530, 678.0410
669.9130, 908.9395
671.0730, 870.1318
672.2320, 857.4746
673.3920, 1193.635
674.5510, 1123.762
675.7100, 1290.892
676.8690, 1294.003
678.0280, 1503.100
679.1860, 1681.180
680.3450, 1890.243
681.5030, 2155.333
682.6610, 2571.079
683.8190, 2855.094
684.9770, 3448.215
686.1340, 4079.518
687.2920, 4531.748
688.4490, 5924.697
689.6060, 7122.380
690.7630, 8676.296
691.9200, 10958.20
693.0760, 14175.83
694.2330, 17736.12
695.3890, 22820.97
696.5450, 28185.85
697.7010, 34839.66
698.8570, 40838.58
700.0130, 44981.64
701.1680, 44891.41
702.3230, 41006.16
703.4780, 34717.90
704.6330, 27425.62
705.7880, 20880.32
706.9430, 16271.00
708.0970, 12319.67
709.2520, 9689.325
710.4060, 7909.961
711.5600, 6328.580
712.7140, 5182.182
713.8670, 4297.770
715.0210, 3648.341
716.1740, 3014.896
717.3270, 2667.434
718.4800, 2381.956
719.6330, 2017.463
720.7860, 1839.955
721.9380, 1753.430
723.0910, 1526.890
724.2430, 1457.334
725.3950, 1332.762
726.5470, 1073.174
727.6980, 1165.570
728.8500, 1033.952
730.0010, 833.3174
731.1530, 818.6689
732.3040, 892.0049
733.4550, 748.3242
734.6050, 699.6289
735.7560, 598.9189
736.9060, 559.1934
738.0560, 660.4531
739.2060, 545.2188
740.3560, 602.8057
741.5060, 689.0332
742.6560, 641.2539
743.8050, 568.4209
744.9540, 576.4141
746.1030, 423.2324
747.2520, 294.8027
748.4010, 323.1602
749.5500, 522.9990
750.6980, 400.8584
751.8460, 469.2725
752.9950, 654.5977
754.1420, 410.5244
755.2900, 390.3857
756.4380, 398.9814
757.5850, 549.9297
758.7330, 394.3662
759.8800, 300.3291
761.0270, 393.9121
762.1730, 283.5762
763.3200, 351.1836
764.4670, 385.9404
765.6130, 325.1963
766.7590, 418.2500
767.9050, 311.3320
769.0510, 352.9199
770.1960, 451.2432
771.3420, 383.0996
772.4870, 335.5020
773.6320, 513.2783
774.7770, 573.4434
775.9220, 460.7559
777.0670, 554.1309
778.2110, 778.9736
779.3560, 729.2988
780.5000, 656.4512
781.6440, 561.1387
782.7880, 460.7910
783.9320, 433.0693
785.0750, 346.0283
786.2180, 381.9795
787.3620, 303.6846
788.5050, 276.8623
789.6480, 181.7451
790.7900, 184.6689
791.9330, 88.58594
793.0750, 151.8564
794.2170, 234.7588
795.3590, 19.34375
796.5010, 52.37891
797.6430, 97.71289
798.7850, 15.42871
799.9260, 32.40723
801.0670, 41.23535
802.2080, 11.05664
803.3490, 139.8652
804.4900, 85.18750
805.6310, 26.01367
806.7710, 191.2432
807.9110, 108.4141
809.0510, 28.06543
810.1910, 127.7090
811.3310, 101.6523
812.4710, 87.92090
813.6100, 53.48828
814.7490, 105.0498
815.8880, 64.60645
817.0270, 75.16895
818.1660, 35.70605
819.3050, 54.24805
820.4430, 75.78711
821.5820, 22.32129
822.7200, 6.849609
823.8580, 9.370117
824.9950, 61.88574
826.1330, 139.3945
827.2710, 158.9023
828.4080, 56.40430
829.5450, 40.09570
830.6820, 1.626953
831.8190, 198.8359
832.9560, 24.29688
834.0920, 87.75195
835.2280, 12.20508
836.3650, 0.5625000
837.5010, 64.09180
838.6360, 58.53320
839.7720, 91.97266
840.9080, 218.4082
842.0430, 153.8496
843.1780, 286.2910
844.3130, 100.7383
845.4480, 259.1836
846.5830, 67.62891
847.7170, 141.0820
848.8520, 254.5352
849.9860, 107.9863
851.1200, 386.4355
852.2540, 286.8828
853.3870, 256.3301
854.5210, 164.7734
855.6540, 242.2344
856.7880, 133.6953
857.9210, 76.15625
859.0540, 195.6133
860.1860, 88.07031
861.3190, 197.5254
862.4510, 137.0000
863.5840, 389.4707
864.7160, 196.9414
865.8480, 310.4121
866.9790, 211.8867
868.1110, 269.3633
869.2420, 271.8418
870.3740, 265.3203
871.5050, 294.7988
872.6360, 304.8867
873.7660, 316.7578
874.8970, 347.2383
876.0280, 358.7500
877.1580, 373.2637
878.2880, 287.7793
879.4180, 241.2949
880.5480, 507.8125
881.6770, 428.3594
882.8070, 630.9102
883.9360, 678.4746
885.0650, 522.0449
886.1940, 746.6172
887.3230, 732.1934
888.4520, 662.7852
889.5800, 599.3867
890.7090, 676.9941
891.8370, 547.6250
892.9650, 491.2812
894.0930, 247.9551
895.2200, 489.6406
896.3480, 242.3613
897.4750, 232.0859
898.6020, 372.8262
899.7290, 178.5820
900.8560, 86.34766
901.9830, 2.126953
903.1090, 60.92188
904.2360, 116.7285
905.3620, 58.54102
906.4880, 79.36719
907.6140, 146.2266
908.7400, 61.11914
909.8650, 15.02734
910.9900, 91.03320
912.1160, 45.86719
913.2410, 24.22266
914.3660, 39.31445
915.4900, 16.41406
916.6150, 58.50391
917.7390, 14.35938
918.8640, 5.287109
919.9880, 23.18945
921.1120, 54.09961
922.2350, 62.64258
923.3590, 157.9258
924.4820, 75.84375
925.6060, 119.7656
926.7290, 107.6934
927.8520, 16.37695
928.9740, 31.55273
930.0970, 209.4863
931.2190, 86.46875
932.3420, 60.61328
933.4640, 141.3125
934.5860, 106.4922
935.7080, 31.25781
936.8290, 112.1328
937.9510, 150.6113
939.0720, 22.43945
940.1930, 121.5117
941.3140, 108.1328
942.4350, 131.4043
943.5560, 99.37109
944.6760, 197.1777
945.7960, 141.1562
946.9170, 159.1562
948.0370, 43.14648
949.1560, 310.1406
950.2760, 345.1426
951.3960, 250.1484
952.5150, 279.1621
953.6340, 276.1406
954.7530, 396.1680
955.8720, 214.2031
956.9910, 392.1191
958.1090, 426.8477
959.2280, 320.6328
960.3460, 321.6934
961.4640, 574.7617
962.5820, 619.8340
963.6990, 607.9277
964.8170, 485.2793
965.9340, 770.9648
967.0510, 893.0801
968.1690, 1014.164
969.2850, 1003.295
970.4020, 1073.312
971.5190, 1334.178
972.6350, 1702.898
973.7510, 1766.064
974.8670, 1939.238
975.9830, 2386.289
977.0990, 2898.482
978.2150, 3305.082
979.3300, 4026.291
980.4450, 5159.508
981.5600, 6458.594
982.6750, 7888.834
983.7900, 10020.08
984.9050, 12152.34
986.0190, 14058.60
987.1340, 14923.87
988.2480, 15012.14
989.3620, 14711.28
990.4750, 14718.57
991.5890, 14858.86
992.7020, 14416.17
993.8160, 13235.47
994.9290, 11518.79
996.0420, 9393.820
997.1550, 7461.150
998.2670, 5947.504
999.3800, 4851.867
1000.492, 3599.562
1001.604, 3162.723
1002.716, 2359.156
1003.828, 2194.594
1004.940, 1662.035
1006.051, 1517.484
1007.163, 1291.943
1008.274, 1167.410
1009.385, 977.7539
1010.496, 763.2344
1011.606, 878.7227
1012.717, 645.2168
1013.827, 831.7168
1014.937, 695.2422
1016.047, 661.7754
1017.157, 756.3223
1018.267, 660.8730
1019.377, 616.6328
1020.486, 683.1953
1021.595, 747.7656
1022.704, 782.3730
1023.813, 994.9531
1024.922, 1064.535
1026.030, 1299.146
1027.139, 1514.785
1028.247, 1840.424
1029.355, 1953.066
1030.463, 2439.717
1031.571, 2789.414
1032.678, 3782.070
1033.786, 4712.213
1034.893, 5431.426
1036.000, 7291.117
1037.107, 8838.820
1038.214, 10558.52
1039.321, 11843.24
1040.427, 12696.01
1041.533, 11937.72
1042.639, 10589.45
1043.745, 8549.170
1044.851, 6582.367
1045.957, 5224.100
1047.062, 4046.223
1048.168, 3119.799
1049.273, 2535.174
1050.378, 2109.406
1051.482, 1748.848
1052.587, 1381.602
1053.692, 1130.488
1054.796, 1021.152
1055.900, 759.9199
1057.004, 757.6875
1058.108, 734.4590
1059.212, 442.2344
1060.315, 577.1289
1061.418, 515.5508
1062.522, 498.3359
1063.625, 579.1250
1064.728, 536.1895
1065.830, 459.5352
1066.933, 567.3535
1068.035, 501.8828
1069.137, 418.7324
1070.239, 403.5703
1071.341, 350.4141
1072.443, 331.7402
1073.545, 331.8594
1074.646, 294.4512
1075.747, 410.3691
1076.848, 421.2930
1077.949, 598.2168
1079.050, 583.1465
1080.150, 779.1074
1081.251, 760.0703
1082.351, 790.0352
1083.451, 779.0039
1084.551, 582.9746
1085.651, 443.9453
1086.750, 227.9199
1087.850, 360.8965
1088.949, 183.8770
1090.048, 26.85742
1091.147, 184.8418
1092.246, 205.8320
1093.345, 86.04297
1094.443, 93.08398
1095.541, 78.03516
1096.639, 110.1270
1097.737, 105.6738
1098.835, 124.1934
1099.933, 101.4805
1101.030, 83.50000
1102.128, 37.52344
1103.225, 127.5625
1104.322, 19.41211
1105.419, 25.22070
1106.515, 64.27734
1107.612, 43.22656
1108.708, 138.7773
1109.804, 51.21484
1110.900, 115.7676
1111.996, 143.7559
1113.092, 56.71484
1114.187, 145.2441
1115.283, 80.20312
1116.378, 223.4863
1117.473, 122.4434
1118.568, 219.4023
1119.662, 12.36133
1120.757, 70.67578
1121.851, 66.31055
1122.946, 358.2402
1124.040, 268.4023
1125.134, 291.3262
1126.227, 111.2520
1127.321, 66.82227
1128.414, 54.07227
1129.508, 127.1777
1130.601, 113.0684
1131.693, 2.041016
1132.786, 11.15820
1133.879, 44.71484
1134.971, 44.58594
1136.064, 191.4570
1137.156, 93.32227
1138.248, 216.8340
1139.339, 116.6934
1140.431, 75.44922
1141.522, 102.3516
1142.614, 118.1602
1143.705, 62.00977
1144.796, 141.9043
1145.887, 136.0977
1146.977, 108.3125
1148.068, 130.9629
1149.158, 120.7559
1150.248, 4.544922
1151.338, 84.32812
1152.428, 166.1055
1153.518, 9.119141
1154.607, 99.64062
1155.696, 335.3965
1156.785, 80.82227
1157.874, 37.50781
1158.963, 265.7129
1160.052, 91.45508
1161.141, 183.1934
1162.229, 36.98633
1163.317, 255.7129
1164.405, 229.5449
1165.493, 369.3203
1166.581, 413.0430
1167.668, 312.7578
1168.756, 108.4668
1169.843, 191.2188
1170.930, 43.91797
1172.017, 314.6543
1173.103, 224.3418
1174.190, 130.1582
1175.276, 41.83984
1176.363, 174.5312
1177.449, 329.2148
1178.535, 23.89844
1179.620, 320.6309
1180.706, 63.30664
1181.791, 121.9902
1182.877, 97.66992
1183.962, 115.3438
1185.047, 57.04102
1186.131, 209.6992
1187.216, 170.3574
1188.300, 204.0039
1189.385, 114.8242
1190.469, 40.45898
1191.553, 142.0879
1192.637, 150.7109
1193.720, 156.5801
1194.804, 22.94141
1195.887, 140.9121
1196.970, 139.7129
1198.053, 13.31250
1199.136, 70.89844
1200.219, 238.4805
1201.301, 107.0527
1202.383, 200.6191
1203.465, 301.1816
1204.547, 180.7363
1205.629, 150.2852
1206.711, 190.8242
1207.792, 136.3613
1208.874, 88.88867
1209.955, 152.4102
1211.036, 84.92188
1212.117, 192.4297
1213.198, 497.9258
1214.278, 94.41797
1215.359, 303.9004
1216.439, 280.3730
1217.519, 85.83984
1218.599, 262.2988
1219.678, 148.7500
1220.758, 185.1934
1221.837, 131.6270
1222.917, 39.05469
1223.996, 74.46875
1225.075, 20.12500
1226.153, 64.24805
1227.232, 260.6133
1228.310, 79.28711
1229.389, 36.63281
1230.467, 274.9688
1231.545, 112.2949
1232.622, 86.61133
1233.700, 200.9199
1234.777, 2.652344
1235.855, 82.93164
1236.932, 5.199219
1238.009, 105.5820
1239.086, 171.8184
1240.162, 226.6465
1241.239, 228.6055
1242.315, 13.92188
1243.391, 129.4062
1244.467, 185.5762
1245.543, 29.74023
1246.619, 174.8926
1247.694, 228.0352
1248.769, 244.1699
1249.844, 186.5039
1250.919, 71.77344
1251.994, 224.8809
1253.069, 36.98242
1254.144, 291.0723
1255.218, 109.1543
1256.292, 155.2852
1257.366, 130.7051
1258.440, 44.23828
1259.514, 95.77344
1260.587, 168.2246
1261.661, 157.3965
1262.734, 111.5410
1263.807, 93.41992
1264.880, 158.2891
1265.952, 105.1504
1267.025, 15.00391
1268.097, 157.8438
1269.170, 105.6738
1270.242, 4.623047
1271.314, 93.42969
1272.385, 70.39453
1273.457, 59.18164
1274.528, 50.03711
1275.600, 18.53711
1276.671, 9.576172
1277.742, 120.1230
1278.812, 143.8145
1279.883, 211.2969
1280.954, 516.9727
1282.024, 348.8945
1283.094, 145.2695
1284.164, 221.9219
1285.234, 55.42969
1286.303, 4.167969
1287.373, 36.26562
1288.442, 108.0176
1289.511, 195.5566
1290.580, 65.08789
1291.649, 99.56641
1292.718, 53.08789
1293.786, 76.72070
1294.855, 274.7305
1295.923, 88.17578
1296.991, 143.6133
1298.059, 68.04492
1299.126, 230.4668
1300.194, 68.82812
1301.261, 162.2383
1302.328, 46.64062
1303.395, 77.03711
1304.462, 158.3535
1305.529, 157.7344
1306.596, 80.11133
1307.662, 65.31055
1308.728, 136.6758
1309.794, 250.0332
1310.860, 194.3848
1311.926, 287.7324
1312.991, 69.07422
1314.057, 368.3750
1315.122, 115.7051
1316.187, 295.0312
1317.252, 32.34961
1318.317, 466.6641
1319.381, 790.8613
1320.446, 535.3418
1321.510, 1201.473
1322.574, 314.7656
1323.638, 22.22656
1324.702, 27.03125
1325.766, 152.2832
1326.829, 311.8262
1327.892, 218.0449
1328.956, 199.2734
1330.019, 119.4941
1331.081, 128.7070
1332.144, 190.9141
1333.206, 231.1133
1334.269, 273.3066
1335.331, 348.2461
1336.393, 432.4258
1337.455, 374.3965
1338.516, 383.7598
1339.578, 264.9102
1340.639, 236.0527
1341.701, 208.1895
1342.762, 96.31836
1343.822, 191.4395
1344.883, 265.5566
1345.944, 130.6641
1347.004, 202.7676
1348.064, 412.8633
1349.124, 241.9531
1350.184, 101.0293
1351.244, 280.8789
1352.304, 335.8926
1353.363, 141.9902
1354.422, 289.9434
1355.481, 12.01172
1356.540, 346.9805
1357.599, 296.7422
1358.657, 162.7637
1359.716, 348.7812
1360.774, 199.7734
1361.832, 334.7812
1362.890, 113.1738
1363.948, 112.1406
1365.006, 285.6602
1366.063, 114.6602
1367.120, 166.6562
1368.178, 112.6582
1369.234, 272.6504
1370.291, 87.09375
1371.348, 256.0801
1372.404, 101.0645
1373.461, 225.7227
1374.517, 345.6973
1375.573, 206.6738
1376.629, 16.35352
1377.684, 68.60742
1378.740, 132.5254
1379.795, 279.5000
1380.850, 101.2402
1381.905, 428.2109
1382.960, 31.17578
1384.015, 30.13672
1385.070, 133.1133
1386.124, 234.8730
1387.178, 202.8457
1388.232, 82.81445
1389.286, 203.7832
1390.340, 228.7578
1391.393, 198.7305
1392.447, 224.0547
1393.500, 45.65625
1394.553, 155.9688
1395.606, 135.9297
1396.659, 73.89062
1397.711, 163.3887
1398.764, 3.128906
1399.816, 207.8125
1400.868, 269.7070
1401.920, 190.2891
1402.972, 172.8711
1404.023, 170.0000
1405.075, 298.9883
1406.126, 311.9785
1407.177, 307.9746
1408.228, 38.97070
1409.279, 346.9688
1410.330, 203.9746
1411.380, 80.98828
1412.431, 322.3301
1413.481, 292.4121
1414.531, 25.02344
1415.580, 158.0039
1416.630, 45.03320
1417.680, 115.0137
1418.729, 93.63867
1419.778, 44.41797
1420.827, 92.58594
1421.876, 160.6465
1422.925, 157.7148
1423.973, 79.79102
1425.022, 123.8340
1426.070, 252.9316
1427.118, 256.0020
1428.166, 315.1250
1429.214, 300.5410
1430.261, 167.2793
1431.309, 222.4453
1432.356, 89.63086
1433.403, 37.81055
1434.450, 121.9570
1435.497, 126.1738
1436.543, 46.41016
1437.590, 77.66992
1438.636, 333.1367
1439.682, 173.4141
1440.728, 228.7520
1441.774, 308.1230
1442.819, 146.5312
1443.865, 39.77734
1444.910, 144.1797
1445.955, 125.9766
1447.000, 121.3418
1448.045, 74.28516
1449.090, 103.6230
1450.134, 251.5410
1451.178, 229.4570
1452.223, 283.3672
1453.267, 162.2676
1454.310, 186.1602
1455.354, 209.0430
1456.398, 165.9219
1457.441, 40.79297
1458.484, 47.66016
1459.527, 476.5215
1460.570, 30.62305
1461.613, 305.2266
1462.655, 207.0781
1463.698, 5.953125
1464.740, 180.2891
1465.782, 175.1445
1466.824, 271.0000
1467.866, 169.8574
1468.907, 11.73242
1469.948, 89.60938
1470.990, 218.4844
1472.031, 134.3809
1473.072, 254.2812
1474.112, 158.1816
1475.153, 268.5156
1476.194, 499.3945
1477.234, 196.2715
1478.274, 165.9863
1479.314, 103.8809
1480.354, 429.8652
1481.393, 76.92188
1482.433, 143.9766
1483.472, 256.0410
1484.511, 16.10938
1485.550, 132.9492
1486.589, 200.0332
1487.628, 122.1738
1488.666, 27.34961
1489.704, 287.5254
1490.743, 238.7090
1491.781, 166.8906
1492.819, 61.14844
1493.856, 78.28125
1494.894, 149.5898
1495.931, 87.12305
1496.968, 73.48438
1498.005, 188.8496
1499.042, 87.22461
1500.079, 174.6035
1501.115, 225.9883
1502.152, 161.3809
1503.188, 119.7734
1504.224, 62.16992
1505.260, 141.5645
1506.296, 157.9609
1507.331, 145.3535
1508.367, 73.73438
1509.402, 183.1055
1510.437, 101.8848
1511.472, 198.9629
1512.507, 90.43164
1513.541, 49.91406
1514.576, 169.4180
1515.610, 41.94531
1516.644, 122.7773
1517.678, 206.3184
1518.712, 357.9180
1519.746, 120.5430
1520.779, 169.1992
1521.813, 124.8848
1522.846, 207.5977
1523.879, 261.3809
1524.912, 217.9727
1525.944, 166.0664
1526.977, 139.9648
1528.009, 268.8965
1529.041, 194.8770
1530.073, 264.8945
1531.105, 267.9531
1532.137, 236.0488
1533.168, 214.2188
1534.200, 236.5137
1535.231, 250.0156
1536.262, 153.2500
1537.293, 244.6992
1538.324, 267.2070
1539.354, 90.77930
1540.385, 221.4219
1541.415, 196.1445
1542.445, 26.05078
1543.475, 259.8418
1544.505, 29.90039
1545.534, 137.0645
1546.564, 197.3496
1547.593, 74.75781
1548.622, 259.2949
1549.651, 246.9727
1550.680, 98.80664
1551.708, 192.8125
1552.737, 332.0000
1553.765, 226.3828
1554.793, 164.9844
1555.821, 102.8301
1556.849, 65.05469
1557.877, 67.81445
1558.904, 72.08203
1559.932, 134.6367
1560.959, 223.5000
1561.986, 8.691406
1563.013, 73.23438
1564.039, 75.54492
1565.066, 230.9395
1566.092, 338.2871
1567.119, 314.7051
1568.145, 1.214844
1569.170, 53.24219
1570.196, 0.0000000E+00
##END=



