##NAMES=Jadeite
##RRUFFID=R050220
##IDEAL CHEMISTRY=NaAlSi_2_O_6_
##LOCALITY=Clear Creek, San Benito County, California, USA
##OWNER=RRUFF
##SOURCE=Hatt Yoder
##DESCRIPTION=Aggregate of colorless bladed crystals
##STATUS=The identification of this mineral has been confirmed by X-ray diffraction and chemical analysis
##URL=rruff.info/R050220
##MEASURED CHEMISTRY=Na_1.00_Al_1.00_(Si_0.99_Al_0.01_)_2_O_6_
##PIN_ID=L00822
##ORIENTATION=Laser parallel to (1 0 1). Fiducial mark perpendicular to laser is parallel to -b [0 -1 0]
112.9460, 0.0000000E+00
114.1820, 6.164063
115.4170, 3.853516
116.6530, 124.4707
117.8880, 45.88379
119.1230, 50.66895
120.3580, 0.4365230
121.5920, 36.05566
122.8270, 40.38281
124.0610, 180.9053
125.2950, 152.9131
126.5290, 209.6562
127.7630, 409.7686
128.9970, 434.9531
130.2300, 559.9727
131.4640, 469.6328
132.6970, 620.7646
133.9300, 769.2422
135.1630, 768.9492
136.3950, 941.7607
137.6280, 1058.574
138.8600, 1679.303
140.0920, 2106.867
141.3240, 2347.205
142.5560, 3224.262
143.7880, 4192.992
145.0190, 5242.359
146.2510, 4843.326
147.4820, 3782.857
148.7130, 2395.928
149.9440, 1786.500
151.1750, 1192.539
152.4050, 908.0205
153.6360, 749.0684
154.8660, 409.5928
156.0960, 447.4580
157.3260, 386.6191
158.5560, 300.0596
159.7850, 425.7705
161.0150, 390.7393
162.2440, 408.9580
163.4730, 226.4170
164.7020, 518.1064
165.9310, 291.0254
167.1590, 342.1719
168.3880, 436.5469
169.6160, 442.1465
170.8440, 414.9688
172.0720, 522.0215
173.3000, 231.2988
174.5280, 365.8047
175.7550, 293.5312
176.9820, 518.4688
178.2100, 507.6094
179.4370, 288.9453
180.6630, 328.4707
181.8900, 246.1777
183.1170, 314.0586
184.3430, 492.1113
185.5690, 397.3242
186.7950, 449.6426
188.0210, 491.9180
189.2470, 785.1836
190.4720, 1009.467
191.6970, 1287.955
192.9230, 1633.299
194.1480, 1924.615
195.3730, 2024.219
196.5970, 2108.471
197.8220, 2574.918
199.0460, 3512.443
200.2700, 4863.055
201.4940, 7683.746
202.7180, 12358.52
203.9420, 16390.38
205.1660, 14992.33
206.3890, 11445.37
207.6120, 7880.490
208.8350, 5069.699
210.0580, 2839.998
211.2810, 1800.381
212.5040, 1139.850
213.7260, 826.4043
214.9480, 544.0430
216.1700, 488.7871
217.3920, 340.6348
218.6140, 482.6484
219.8360, 279.8086
221.0570, 326.1367
222.2790, 419.6035
223.5000, 461.2773
224.7210, 377.0293
225.9410, 319.8555
227.1620, 290.0176
228.3820, 115.0566
229.6030, 153.5645
230.8230, 186.2324
232.0430, 66.96875
233.2630, 136.7969
234.4820, 7.791016
235.7020, 95.91992
236.9210, 57.09961
238.1400, 16.32617
239.3590, 57.59766
240.5780, 27.91016
241.7970, 105.2676
243.0150, 11.66211
244.2340, 103.3320
245.4520, 134.5820
246.6700, 250.0996
247.8880, 235.6582
249.1060, 334.2539
250.3230, 444.8887
251.5400, 471.5625
252.7580, 917.2695
253.9750, 1557.016
255.1920, 1919.793
256.4080, 2103.609
257.6250, 1915.459
258.8410, 1500.342
260.0580, 975.4414
261.2740, 379.9727
262.4900, 264.9473
263.7050, 150.4043
264.9210, 89.19531
266.1360, 109.2793
267.3520, 54.61523
268.5670, 24.81250
269.7820, 38.03320
270.9960, 66.93359
272.2110, 136.9199
273.4250, 22.37305
274.6400, 48.82031
275.8540, 46.41211
277.0680, 103.8613
278.2810, 25.98242
279.4950, 72.05469
280.7090, 89.01953
281.9220, 95.19727
283.1350, 227.4805
284.3480, 186.8613
285.5610, 259.3340
286.7730, 404.9004
287.9860, 428.5508
289.1980, 866.2871
290.4100, 942.1016
291.6220, 1226.990
292.8340, 1337.955
294.0460, 1511.992
295.2570, 1314.098
296.4690, 1171.270
297.6800, 987.5059
298.8910, 956.2148
300.1020, 910.1660
301.3120, 984.5840
302.5230, 1075.057
303.7330, 1302.465
304.9440, 1531.166
306.1540, 1961.801
307.3630, 2414.484
308.5730, 2915.219
309.7830, 3230.000
310.9920, 3350.834
312.2010, 3182.711
313.4100, 2572.637
314.6190, 1991.609
315.8280, 1829.631
317.0370, 1337.695
318.2450, 1283.857
319.4530, 1146.004
320.6610, 1225.189
321.8690, 1164.844
323.0770, 1505.096
324.2850, 1805.395
325.4920, 2431.730
326.6990, 3078.848
327.9060, 3899.676
329.1130, 4103.137
330.3200, 3837.357
331.5270, 3100.387
332.7330, 2140.957
333.9390, 1437.549
335.1450, 884.4277
336.3510, 419.0801
337.5570, 657.7559
338.7630, 247.4375
339.9680, 346.3613
341.1740, 238.3633
342.3790, 345.9766
343.5840, 126.5938
344.7890, 322.3945
345.9930, 322.8340
347.1980, 413.8711
348.4020, 142.8672
349.6060, 319.1875
350.8100, 336.5586
352.0140, 448.4277
353.2180, 433.4316
354.4210, 554.9941
355.6250, 646.7246
356.8280, 829.6328
358.0310, 939.8457
359.2340, 1310.947
360.4360, 1651.090
361.6390, 1966.254
362.8410, 2540.447
364.0430, 3354.660
365.2450, 4285.887
366.4470, 5373.129
367.6490, 6979.387
368.8510, 8803.656
370.0520, 11717.94
371.2530, 15301.24
372.4540, 19688.55
373.6550, 24227.88
374.8560, 26872.21
376.0560, 26334.56
377.2570, 23288.91
378.4570, 18842.26
379.6570, 15105.63
380.8570, 11910.04
382.0570, 9885.463
383.2560, 8226.889
384.4560, 7334.318
385.6550, 6752.754
386.8540, 5870.195
388.0530, 5200.643
389.2520, 4591.094
390.4510, 3835.551
391.6490, 3069.012
392.8470, 2530.477
394.0450, 2030.945
395.2430, 1621.416
396.4410, 1330.893
397.6390, 1126.371
398.8360, 916.8535
400.0340, 923.3379
401.2310, 576.8242
402.4280, 781.3125
403.6250, 529.8008
404.8210, 446.5000
406.0180, 453.0469
407.2140, 365.2480
408.4100, 414.2090
409.6060, 452.7188
410.8020, 610.3516
411.9980, 848.0020
413.1930, 843.4609
414.3890, 490.7168
415.5840, 868.4160
416.7790, 835.3867
417.9740, 704.1113
419.1680, 845.8477
420.3630, 1029.598
421.5570, 1193.537
422.7510, 1317.307
423.9450, 1795.027
425.1390, 2064.816
426.3330, 2383.613
427.5270, 2954.420
428.7200, 3345.234
429.9130, 3847.055
431.1060, 4748.881
432.2990, 5083.715
433.4920, 5286.551
434.6840, 5326.393
435.8770, 4991.240
437.0690, 4379.090
438.2610, 3684.943
439.4530, 2955.803
440.6450, 2757.662
441.8360, 2129.525
443.0280, 1762.840
444.2190, 1216.260
445.4100, 1131.127
446.6010, 823.9961
447.7920, 745.8652
448.9820, 608.7363
450.1730, 411.6055
451.3630, 302.4746
452.5530, 206.3438
453.7430, 364.2109
454.9330, 276.0762
456.1230, 157.9805
457.3120, 212.9180
458.5010, 67.89844
459.6910, 94.01367
460.8800, 31.22656
462.0680, 65.59570
463.2570, 100.4121
464.4460, 1.341797
465.6340, 161.3809
466.8220, 64.38281
468.0100, 171.2148
469.1980, 55.09961
470.3860, 65.61719
471.5730, 123.1309
472.7600, 67.77930
473.9480, 112.1934
475.1350, 55.26562
476.3210, 91.86328
477.5080, 15.30664
478.6950, 258.7305
479.8810, 174.5684
481.0670, 148.9785
482.2530, 84.14062
483.4390, 211.6543
484.6250, 156.4668
485.8100, 139.3516
486.9960, 69.61914
488.1810, 102.2227
489.3660, 3.654297
490.5510, 61.50000
491.7360, 48.54688
492.9200, 48.38672
494.1050, 55.47266
495.2890, 72.41406
496.4730, 19.32031
497.6570, 82.03711
498.8400, 143.5371
500.0240, 173.0879
501.2070, 41.41406
502.3910, 100.9297
503.5740, 205.4355
504.7570, 167.9688
505.9400, 185.4473
507.1220, 255.9141
508.3050, 266.3652
509.4870, 438.8027
510.6690, 476.5137
511.8510, 792.9277
513.0330, 767.3262
514.2140, 1036.504
515.3960, 1115.881
516.5770, 1410.508
517.7580, 1793.711
518.9390, 2190.699
520.1200, 2765.723
521.3010, 3389.328
522.4810, 4105.668
523.6610, 5084.004
524.8420, 5264.328
526.0220, 4882.660
527.2010, 4145.004
528.3810, 3131.332
529.5610, 2246.666
530.7400, 1643.984
531.9190, 1291.293
533.0980, 1090.590
534.2770, 810.8730
535.4560, 708.1426
536.6340, 295.3926
537.8120, 398.6309
538.9910, 266.8516
540.1690, 232.0547
541.3460, 305.2441
542.5240, 259.4180
543.7020, 227.5781
544.8790, 278.7285
546.0560, 108.8750
547.2330, 160.0020
548.4100, 162.1133
549.5870, 215.2070
550.7630, 83.28711
551.9400, 176.3379
553.1160, 222.3750
554.2920, 283.3926
555.4680, 463.3945
556.6440, 461.3809
557.8190, 564.3496
558.9950, 734.3145
560.1700, 744.2617
561.3450, 701.1914
562.5200, 726.1055
563.6950, 712.0137
564.8690, 843.9023
566.0440, 892.7793
567.2180, 850.6406
568.3920, 1212.482
569.5660, 1398.305
570.7400, 1660.109
571.9130, 2423.893
573.0870, 2807.654
574.2600, 3654.398
575.4330, 3874.121
576.6060, 3379.820
577.7790, 3221.500
578.9520, 2433.160
580.1240, 1979.797
581.2960, 1452.414
582.4690, 1081.008
583.6410, 787.5801
584.8120, 728.1309
585.9840, 628.6602
587.1560, 668.1680
588.3270, 547.6543
589.4980, 447.1172
590.6690, 501.5566
591.8400, 300.9746
593.0110, 310.3711
594.1810, 238.7441
595.3510, 285.0957
596.5220, 104.4219
597.6920, 176.7168
598.8610, 101.9863
600.0310, 256.2227
601.2010, 160.4395
602.3700, 306.5723
603.5390, 242.7402
604.7080, 172.8809
605.8770, 134.0078
607.0460, 175.1113
608.2140, 91.17578
609.3830, 278.2129
610.5510, 101.4883
611.7190, 11.94531
612.8870, 115.9707
614.0550, 167.5137
615.2220, 305.6230
616.3900, 40.72266
617.5570, 353.5312
618.7240, 191.0664
619.8910, 113.8359
621.0580, 270.5820
622.2240, 110.3066
623.3910, 141.9316
624.5570, 246.3320
625.7230, 147.1211
626.8890, 153.9082
628.0550, 101.5234
629.2200, 252.4980
630.3860, 190.9375
631.5510, 89.38867
632.7160, 136.5234
633.8810, 24.60938
635.0460, 71.19336
636.2100, 114.6523
637.3750, 268.5488
638.5390, 19.71680
639.7030, 184.7129
640.8670, 111.8750
642.0310, 175.4707
643.1950, 201.7734
644.3580, 20.94141
645.5210, 153.2988
646.6850, 149.5234
647.8480, 281.7305
649.0100, 220.9375
650.1730, 65.23828
651.3350, 284.5801
652.4980, 282.7422
653.6600, 28.45703
654.8220, 278.0762
655.9840, 72.81055
657.1450, 87.89844
658.3070, 168.1914
659.4680, 153.4727
660.6300, 86.57422
661.7910, 113.0820
662.9510, 208.2793
664.1120, 215.2793
665.2730, 450.8359
666.4330, 401.3574
667.5930, 178.3223
668.7530, 332.7617
669.9130, 218.5938
671.0730, 348.1250
672.2320, 495.3242
673.3920, 487.1914
674.5510, 551.3438
675.7100, 674.4043
676.8690, 702.2227
678.0280, 866.3672
679.1860, 1147.146
680.3450, 1258.020
681.5030, 1102.029
682.6610, 1524.375
683.8190, 1573.811
684.9770, 1885.770
686.1340, 2434.246
687.2920, 2934.850
688.4490, 3403.662
689.6060, 4129.258
690.7630, 5368.469
691.9200, 6413.254
693.0760, 8454.824
694.2330, 10668.34
695.3890, 13573.53
696.5450, 17239.06
697.7010, 21272.51
698.8570, 24663.00
700.0130, 26308.75
701.1680, 25468.12
702.3230, 22728.26
703.4780, 18901.39
704.6330, 14864.27
705.7880, 11323.19
706.9430, 9114.547
708.0970, 7025.316
709.2520, 5525.902
710.4060, 4398.113
711.5600, 3576.307
712.7140, 2986.473
713.8670, 2659.766
715.0210, 2305.891
716.1740, 2007.994
717.3270, 1790.076
718.4800, 1415.139
719.6330, 1298.178
720.7860, 1128.195
721.9380, 819.1934
723.0910, 1088.168
724.2430, 793.1211
725.3950, 758.0527
726.5470, 711.9629
727.6980, 562.8516
728.8500, 490.7188
730.0010, 666.5625
731.1530, 478.3867
732.3040, 586.1875
733.4550, 538.9668
734.6050, 468.7266
735.7560, 345.4277
736.9060, 339.0723
738.0560, 463.6465
739.2060, 314.3223
740.3560, 408.8086
741.5060, 366.4590
742.6560, 237.0879
743.8050, 85.58008
744.9540, 213.6875
746.1030, 196.2383
747.2520, 420.6914
748.4010, 187.8008
749.5500, 212.5293
750.6980, 251.2148
751.8460, 95.27539
752.9950, 57.56445
754.1420, 121.9863
755.2900, 370.4629
756.4380, 276.4102
757.5850, 257.0391
758.7330, 207.2793
759.8800, 262.0957
761.0270, 152.2539
762.1730, 401.7812
763.3200, 370.2676
764.4670, 415.7461
765.6130, 253.2910
766.7590, 456.6211
767.9050, 181.6133
769.0510, 341.0898
770.1960, 516.2344
771.3420, 552.7051
772.4870, 547.0801
773.6320, 658.4961
774.7770, 826.9160
775.9220, 860.1016
777.0670, 1203.070
778.2110, 1343.693
779.3560, 1520.111
780.5000, 1572.650
781.6440, 1236.596
782.7880, 859.2148
783.9320, 617.5859
785.0750, 401.1602
786.2180, 402.6680
787.3620, 166.0371
788.5050, 151.2852
789.6480, 218.7402
790.7900, 58.89258
791.9330, 75.97266
793.0750, 48.60938
794.2170, 323.7656
795.3590, 142.1309
796.5010, 141.7676
797.6430, 141.9004
798.7850, 18.63086
799.9260, 113.1270
801.0670, 12.44336
802.2080, 71.45508
803.3490, 69.54492
804.4900, 14.94727
805.6310, 37.07812
806.7710, 22.57422
807.9110, 60.12695
809.0510, 1.537109
810.1910, 241.4707
811.3310, 140.0312
812.4710, 156.5703
813.6100, 218.0781
814.7490, 132.3789
815.8880, 221.6055
817.0270, 188.4258
818.1660, 151.0117
819.3050, 65.40625
820.4430, 6.222656
821.5820, 14.92188
822.7200, 285.0703
823.8580, 24.65625
824.9950, 169.0195
826.1330, 330.2305
827.2710, 88.42188
828.4080, 160.9219
829.5450, 207.6797
830.6820, 428.1797
831.8190, 54.33203
832.9560, 202.6719
834.0920, 238.9609
835.2280, 16.04688
836.3650, 135.1016
837.5010, 22.12891
838.6360, 44.28906
839.7720, 42.10547
840.9080, 85.05078
842.0430, 70.62500
843.1780, 198.0195
844.3130, 94.98047
845.4480, 134.9180
846.5830, 234.8281
847.7170, 479.7188
848.8520, 338.5820
849.9860, 184.4297
851.1200, 309.2539
852.2540, 561.0586
853.3870, 662.8398
854.5210, 664.6016
855.6540, 337.3398
856.7880, 310.0625
857.9210, 494.7539
859.0540, 620.4258
860.1860, 425.0820
861.3190, 406.7109
862.4510, 265.3242
863.5840, 623.9102
864.7160, 588.4727
865.8480, 609.0195
866.9790, 436.5391
868.1110, 325.0430
869.2420, 717.5195
870.3740, 334.9805
871.5050, 713.7656
872.6360, 653.1836
873.7660, 340.9258
874.8970, 334.3086
876.0280, 254.6719
877.1580, 450.0078
878.2880, 324.8516
879.4180, 357.1523
880.5480, 309.9922
881.6770, 388.2812
882.8070, 364.5156
883.9360, 96.05469
885.0650, 226.2383
886.1940, 159.4102
887.3230, 363.0469
888.4520, 70.82031
889.5800, 371.2070
890.7090, 10.05078
891.8370, 118.1367
892.9650, 191.1914
894.0930, 177.2344
895.2200, 136.2539
896.3480, 174.2461
897.4750, 165.3086
898.6020, 332.0273
899.7290, 230.9609
900.8560, 328.8750
901.9830, 442.7656
903.1090, 34.37109
904.2360, 24.41016
905.3620, 36.18750
906.4880, 418.9414
907.6140, 167.6719
908.7400, 163.3867
909.8650, 357.0742
910.9900, 55.73828
912.1160, 66.60938
913.2410, 157.9883
914.3660, 74.55859
915.4900, 200.1406
916.6150, 97.69531
917.7390, 160.2227
918.8640, 268.7461
919.9880, 98.23828
921.1120, 56.23438
922.2350, 211.2266
923.3590, 119.5547
924.4820, 10.20703
925.6060, 29.16016
926.7290, 70.93750
927.8520, 120.7578
928.9740, 166.4141
930.0970, 125.6797
931.2190, 103.6914
932.3420, 93.32031
933.4640, 92.16406
934.5860, 122.8828
935.7080, 123.8008
936.8290, 167.8047
937.9510, 49.78906
939.0720, 31.69922
940.1930, 33.59375
941.3140, 85.96875
942.4350, 66.08203
943.5560, 22.14844
944.6760, 25.33203
945.7960, 216.4648
946.9170, 390.9414
948.0370, 32.53906
949.1560, 339.1719
950.2760, 24.51172
951.3960, 114.1719
952.5150, 163.7031
953.6340, 269.0469
954.7530, 229.8711
955.8720, 65.85156
956.9910, 175.1172
958.1090, 124.6445
959.2280, 170.1836
960.3460, 244.4688
961.4640, 213.9258
962.5820, 120.8359
963.6990, 53.02344
964.8170, 109.3789
965.9340, 280.3203
967.0510, 159.5000
968.1690, 167.5000
969.2850, 499.8047
970.4020, 269.1328
971.5190, 616.3203
972.6350, 307.1289
973.7510, 602.5742
974.8670, 479.9805
975.9830, 886.6523
977.0990, 962.2305
978.2150, 1136.434
979.3300, 1235.070
980.4450, 1649.887
981.5600, 2261.094
982.6750, 2638.180
983.7900, 3381.246
984.9050, 3782.480
986.0190, 3969.848
987.1340, 3516.867
988.2480, 2851.082
989.3620, 2257.145
990.4750, 1917.137
991.5890, 1561.109
992.7020, 1228.059
993.8160, 1075.898
994.9290, 917.8945
996.0420, 778.7812
997.1550, 763.6406
998.2670, 515.4883
999.3800, 631.3125
1000.492, 318.1094
1001.604, 341.8906
1002.716, 746.8945
1003.828, 359.6328
1004.940, 142.3555
1006.051, 429.0508
1007.163, 143.7266
1008.274, 339.3789
1009.385, 296.1250
1010.496, 328.8711
1011.606, 99.46094
1012.717, 448.0234
1013.827, 375.5664
1014.937, 217.0898
1016.047, 299.5938
1017.157, 148.1172
1018.267, 245.0508
1019.377, 267.4883
1020.486, 27.79297
1021.595, 454.5820
1022.704, 578.2773
1023.813, 497.6289
1024.922, 463.8672
1026.030, 618.2109
1027.139, 630.5273
1028.247, 741.7148
1029.355, 876.9727
1030.463, 1115.996
1031.571, 1303.965
1032.678, 1767.949
1033.786, 1915.129
1034.893, 2499.555
1036.000, 3071.695
1037.107, 3935.359
1038.214, 4044.508
1039.321, 4189.738
1040.427, 4438.973
1041.533, 4237.031
1042.639, 3662.801
1043.745, 3086.801
1044.851, 2513.594
1045.957, 2108.289
1047.062, 1619.719
1048.168, 1427.016
1049.273, 974.8203
1050.378, 792.3320
1051.482, 823.2031
1052.587, 539.0586
1053.692, 720.0234
1054.796, 637.4805
1055.900, 306.2148
1057.004, 320.5469
1058.108, 404.3125
1059.212, 266.5664
1060.315, 362.6367
1061.418, 363.9023
1062.522, 489.7461
1063.625, 234.0000
1064.728, 371.1367
1065.830, 126.4258
1066.933, 185.8086
1068.035, 311.6602
1069.137, 217.9570
1070.239, 379.3750
1071.341, 178.9180
1072.443, 265.4062
1073.545, 518.3008
1074.646, 403.5820
1075.747, 523.2148
1076.848, 509.3945
1077.949, 592.6289
1079.050, 417.4961
1080.150, 612.0430
1081.251, 432.7695
1082.351, 724.2852
1083.451, 545.4219
1084.551, 504.5352
1085.651, 421.8359
1086.750, 494.2852
1087.850, 427.6758
1088.949, 271.8359
1090.048, 369.1523
1091.147, 277.2422
1092.246, 210.5117
1093.345, 477.8945
1094.443, 300.2539
1095.541, 386.2734
1096.639, 427.9922
1097.737, 174.0625
1098.835, 75.13281
1099.933, 30.09766
1101.030, 203.5312
1102.128, 176.6719
1103.225, 137.2969
1104.322, 71.41016
1105.419, 249.8438
1106.515, 419.9297
1107.612, 277.5977
1108.708, 207.1797
1109.804, 20.93359
1110.900, 291.9062
1111.996, 194.7383
1113.092, 178.5547
1114.187, 215.5938
1115.283, 284.5273
1116.378, 127.8945
1117.473, 124.6484
1118.568, 216.3789
1119.662, 150.2031
1120.757, 180.9023
1121.851, 427.2109
1122.946, 459.8828
1124.040, 488.5352
1125.134, 334.3594
1126.227, 255.9883
1127.321, 249.5977
1128.414, 456.1914
1129.508, 337.7695
1130.601, 382.3008
1131.693, 268.8828
1132.786, 418.4180
1133.879, 144.1719
1134.971, 326.6797
1136.064, 396.5078
1137.156, 308.6328
1138.248, 315.0938
1139.339, 458.2383
1140.431, 170.7109
1141.522, 166.1719
1142.614, 289.7461
1143.705, 307.8633
1144.796, 358.3125
1145.887, 318.9023
1146.977, 211.1523
1148.068, 186.5664
1149.158, 383.6484
1150.248, 356.0391
1151.338, 59.41016
1152.428, 372.3086
1153.518, 191.6562
1154.607, 292.9922
1155.696, 210.5938
1156.785, 76.91016
1157.874, 150.2148
1158.963, 162.5078
1160.052, 99.78516
1161.141, 231.0469
1162.229, 280.3281
1163.317, 2.410156
1164.405, 302.8242
1165.493, 119.0508
1166.581, 400.2578
1167.668, 279.4531
1168.756, 511.6523
1169.843, 203.8438
1170.930, 140.0273
1172.017, 119.1992
1173.103, 355.3594
1174.190, 244.5078
1175.276, 47.35547
1176.363, 427.7305
1177.449, 224.8320
1178.535, 346.9219
1179.620, 278.3477
1180.706, 139.4258
1181.791, 110.4844
1182.877, 380.6445
1183.962, 194.3164
1185.047, 52.59766
1186.131, 324.5117
1187.216, 240.4219
1188.300, 411.5742
1189.385, 71.22656
1190.469, 328.1172
1191.553, 438.0000
1192.637, 73.87891
1193.720, 260.7422
1194.804, 175.5977
1195.887, 56.55469
1196.970, 108.8945
1198.053, 224.5820
1199.136, 154.4297
1200.219, 329.2617
1201.301, 313.0898
1202.383, 24.81641
1203.465, 309.6406
1204.547, 30.53906
1205.629, 138.7617
1206.711, 71.94141
1207.792, 239.6406
1208.874, 88.33594
1209.955, 186.0234
1211.036, 170.6992
1212.117, 288.3789
1213.198, 63.05078
1214.278, 222.7148
1215.359, 227.3711
1216.439, 412.0156
1217.519, 95.65234
1218.599, 168.2773
1219.678, 297.9023
1220.758, 234.5117
1221.837, 339.1172
1222.917, 340.7109
1223.996, 248.3047
1225.075, 324.4727
1226.153, 209.6836
1227.232, 392.2539
1228.310, 192.2422
1229.389, 282.2656
1230.467, 29.08203
1231.545, 296.6211
1232.622, 18.04688
1233.700, 253.3008
1234.777, 56.27734
1235.855, 359.7773
1236.932, 39.27734
1238.009, 110.2773
1239.086, 165.1445
1240.162, 277.4414
1241.239, 166.8477
1242.315, 150.2188
1243.391, 54.51172
1244.467, 74.91016
1245.543, 60.70703
1246.619, 151.3203
1247.694, 207.3320
1248.769, 83.67188
1249.844, 440.7852
1250.919, 141.9766
1251.994, 300.2695
1253.069, 109.6328
1254.144, 59.86719
1255.218, 222.1016
1256.292, 301.3281
1257.366, 319.4531
1258.440, 115.7773
1259.514, 394.9922
1260.587, 475.2070
1261.661, 507.4141
1262.734, 41.61719
1263.807, 702.5703
1264.880, 15.76953
1265.952, 238.9609
1267.025, 220.1484
1268.097, 296.4570
1269.170, 528.6367
1270.242, 435.7031
1271.314, 71.74219
1272.385, 70.24219
1273.457, 327.4180
1274.528, 215.5938
1275.600, 506.7695
1276.671, 219.9375
1277.742, 288.0703
1278.812, 298.2383
1279.883, 286.3984
1280.954, 528.0000
1282.024, 234.1758
1283.094, 409.3477
1284.164, 38.52344
1285.234, 338.8320
1286.303, 201.5234
1287.373, 364.5273
1288.442, 226.5820
1289.511, 195.3711
1290.580, 159.2578
1291.649, 479.4141
1292.718, 309.8789
1293.786, 507.0352
1294.855, 296.9102
1295.923, 193.0625
1296.991, 505.2188
1298.059, 587.3750
1299.126, 502.5273
1300.194, 607.7695
1301.261, 410.4648
1302.328, 492.6484
1303.395, 553.8359
1304.462, 382.5078
1305.529, 602.6875
1306.596, 416.8789
1307.662, 13.07031
1308.728, 438.2578
1309.794, 609.2891
1310.860, 68.19922
1311.926, 544.3906
1312.991, 210.9102
1314.057, 293.5859
1315.122, 688.7773
1316.187, 589.9609
1317.252, 493.1602
1318.317, 227.9297
1319.381, 602.1211
1320.446, 490.3086
1321.510, 732.0820
1322.574, 474.2578
1323.638, 317.4375
1324.702, 521.7344
1325.766, 488.6680
1326.829, 511.8516
1327.892, 342.9844
1328.956, 798.1758
1330.019, 285.3633
1331.081, 361.9688
1332.144, 181.1641
1333.206, 625.1992
1334.269, 285.4570
1335.331, 470.2773
1336.393, 166.4805
1337.455, 205.3828
1338.516, 341.5898
1339.578, 586.8008
1340.639, 633.0117
1341.701, 491.8281
1342.762, 308.0508
1343.822, 266.2695
1344.883, 488.4961
1345.944, 231.4766
1347.004, 124.7109
1348.064, 168.9531
1349.124, 578.1953
1350.184, 404.4453
1351.244, 668.6992
1352.304, 533.9570
1353.363, 6.222656
1354.422, 124.4922
1355.481, 221.7656
1356.540, 188.1016
1357.599, 402.4453
1358.657, 371.8320
1359.716, 144.5820
1360.774, 350.3281
1361.832, 363.5781
1362.890, 228.5039
1363.948, 391.7695
1365.006, 477.6406
1366.063, 230.1211
1367.120, 468.4727
1368.178, 324.8477
1369.234, 320.4062
1370.291, 421.7539
1371.348, 307.8633
1372.404, 320.4375
1373.461, 181.8398
1374.517, 252.2109
1375.573, 294.5938
1376.629, 313.8789
1377.684, 574.2656
1378.740, 503.0391
1379.795, 16.44531
1380.850, 292.8516
1381.905, 150.0820
1382.960, 261.5078
1384.015, 167.9414
1385.070, 172.3750
1386.124, 303.8203
1387.178, 296.2734
1388.232, 263.7344
1389.286, 271.2031
1390.340, 185.4336
1391.393, 350.9219
1392.447, 242.0703
1393.500, 174.5703
1394.553, 192.9219
1395.606, 582.5547
1396.659, 302.0352
1397.711, 293.5234
1398.764, 179.7695
1399.816, 258.2031
1400.868, 186.1367
1401.920, 200.6211
1402.972, 287.1172
1404.023, 385.6250
1405.075, 307.1367
1406.126, 258.6641
1407.177, 154.1992
1408.228, 531.7539
1409.279, 296.3164
1410.330, 55.89453
1411.380, 35.79297
1412.431, 426.8086
1413.481, 307.4258
1414.531, 464.0625
1415.580, 253.7188
1416.630, 119.4805
1417.680, 209.1836
1418.729, 35.86328
1419.778, 165.5625
1420.827, 357.3242
1421.876, 192.0703
1422.925, 269.1016
1423.973, 379.8398
1425.022, 116.5898
1426.070, 349.4023
1427.118, 149.1914
1428.166, 474.0039
1429.214, 349.8398
1430.261, 310.6992
1431.309, 290.6719
1432.356, 283.7695
1433.403, 157.9805
1434.450, 235.7070
1435.497, 457.7031
1436.543, 578.6758
1437.590, 355.1406
1438.636, 683.7969
1439.682, 823.3711
1440.728, 379.5625
1441.774, 434.9531
1442.819, 673.0117
1443.865, 659.5156
1444.910, 933.5234
1445.955, 710.8086
1447.000, 682.0781
1448.045, 1092.840
1449.090, 433.6289
1450.134, 657.4570
1451.178, 732.2891
1452.223, 960.1328
1453.267, 655.0156
1454.310, 705.0117
1455.354, 727.0234
1456.398, 799.0508
1457.441, 879.0938
1458.484, 1053.148
1459.527, 777.2227
1460.570, 580.3086
1461.613, 740.4141
1462.655, 671.5352
1463.698, 430.4023
1464.740, 379.5469
1465.782, 718.7148
1466.824, 381.8945
1467.866, 577.0898
1468.907, 767.3125
1469.948, 521.6289
1470.990, 629.9609
1472.031, 379.3125
1473.072, 400.7031
1474.112, 649.1367
1475.153, 379.5938
1476.194, 599.0039
1477.234, 260.6016
1478.274, 443.2188
1479.314, 587.8672
1480.354, 557.5352
1481.393, 566.2266
1482.433, 222.9492
1483.472, 442.3828
1484.511, 314.9844
1485.550, 406.1016
1486.589, 435.5625
1487.628, 314.0430
1488.666, 480.5391
1489.704, 247.0586
1490.743, 577.6016
1491.781, 182.3711
1492.819, 493.9375
1493.856, 78.52344
1494.894, 229.8203
1495.931, 136.1406
1496.968, 282.6523
1498.005, 261.6953
1499.042, 206.6172
1500.079, 238.0352
1501.115, 338.4570
1502.152, 317.8906
1503.188, 307.6055
1504.224, 432.7734
1505.260, 221.2305
1506.296, 358.7109
1507.331, 343.1953
1508.367, 206.6953
1509.402, 347.2539
1510.437, 438.8633
1511.472, 364.4844
1512.507, 299.1328
1513.541, 261.8008
1514.576, 511.4766
1515.610, 454.8438
1516.644, 147.8867
1517.678, 508.6133
1518.712, 419.3633
1519.746, 307.1250
1520.779, 364.8945
1521.813, 182.6719
1522.846, 77.45703
1523.879, 19.74609
1524.912, 53.36719
1525.944, 281.8242
1526.977, 275.5938
1528.009, 414.7109
1529.041, 471.1914
1530.073, 304.7070
1531.105, 416.2617
1532.137, 485.8984
1533.168, 694.1406
1534.200, 304.1367
1535.231, 692.2031
1536.262, 438.3438
1537.293, 631.5742
1538.324, 333.8906
1539.354, 370.3125
1540.385, 173.8398
1541.415, 333.4766
1542.445, 499.2422
1543.475, 269.1289
1544.505, 214.1641
1545.534, 416.3477
1546.564, 35.71094
1547.593, 229.5547
1548.622, 288.2852
1549.651, 86.36719
1550.680, 292.1328
1551.708, 635.7930
1552.737, 528.6367
1553.765, 392.6328
1554.793, 251.7930
1555.821, 233.4727
1556.849, 218.9414
1557.877, 264.5938
1558.904, 278.0117
1559.932, 422.6172
1560.959, 326.3867
1561.986, 195.4961
1563.013, 272.3867
1564.039, 76.76562
1565.066, 303.3242
1566.092, 0.1796880
1567.119, 115.7070
1568.145, 317.7266
1569.170, 60.44922
1570.196, 0.0000000E+00
##END=



