##NAMES=Jadeite
##RRUFFID=R050220
##IDEAL CHEMISTRY=NaAlSi_2_O_6_
##LOCALITY=Clear Creek, San Benito County, California, USA
##OWNER=RRUFF
##SOURCE=Hatt Yoder
##DESCRIPTION=Aggregate of colorless bladed crystals
##STATUS=The identification of this mineral has been confirmed by X-ray diffraction and chemical analysis
##URL=rruff.info/R050220
##MEASURED CHEMISTRY=Na_1.00_Al_1.00_(Si_0.99_Al_0.01_)_2_O_6_
##PIN_ID=L01047
##ORIENTATION=Laser parallel to b* (0 1 0). Fiducial mark perpendicular to laser is parallel to c [0 0 1]
105.5290, 0.0000000E+00
106.7660, 528.5312
108.0020, 792.1685
109.2390, 289.3828
110.4750, 62.53223
111.7110, 9.299805
112.9460, 49.40479
114.1820, 280.5615
115.4170, 309.0259
116.6530, 172.0513
117.8880, 203.0791
119.1230, 48.66553
120.3580, 5.544922
121.5920, 13.16016
122.8270, 81.56494
124.0610, 141.4990
125.2950, 71.79150
126.5290, 53.31543
127.7630, 203.9888
128.9970, 228.6831
130.2300, 318.2939
131.4640, 298.7324
132.6970, 391.9233
133.9300, 459.8042
135.1630, 617.3208
136.3950, 674.4292
137.6280, 875.0894
138.8600, 1032.325
140.0920, 1436.221
141.3240, 2147.607
142.5560, 3013.404
143.7880, 4592.578
145.0190, 6131.096
146.2510, 6377.001
147.4820, 5090.706
148.7130, 3365.715
149.9440, 2148.938
151.1750, 1379.370
152.4050, 722.0020
153.6360, 610.8306
154.8660, 419.8477
156.0960, 404.0508
157.3260, 401.4346
158.5560, 150.9946
159.7850, 237.7280
161.0150, 124.6328
162.2440, 214.7100
163.4730, 340.9585
164.7020, 450.3804
165.9310, 229.9692
167.1590, 305.7280
168.3880, 318.6548
169.6160, 205.7471
170.8440, 270.2959
172.0720, 287.7275
173.3000, 362.4102
174.5280, 412.9683
175.7550, 320.7100
176.9820, 332.5991
178.2100, 266.6304
179.4370, 285.7520
180.6630, 273.8394
181.8900, 436.9243
183.1170, 323.0249
184.3430, 505.1572
185.5690, 470.3325
186.7950, 626.0615
188.0210, 630.5527
189.2470, 822.3721
190.4720, 1266.482
191.6970, 1666.671
192.9230, 2322.940
194.1480, 2913.292
195.3730, 3264.727
196.5970, 3517.247
197.8220, 4361.851
199.0460, 5822.540
200.2700, 8705.312
201.4940, 13144.17
202.7180, 20726.12
203.9420, 28796.15
205.1660, 29963.26
206.3890, 25222.45
207.6120, 19695.73
208.8350, 13197.09
210.0580, 7763.525
211.2810, 4506.045
212.5040, 2748.646
213.7260, 1714.325
214.9480, 1247.138
216.1700, 827.0918
217.3920, 719.1533
218.6140, 719.3105
219.8360, 737.5859
221.0570, 1254.039
222.2790, 1280.572
223.5000, 1379.176
224.7210, 1324.858
225.9410, 1029.634
227.1620, 524.5693
228.3820, 363.6133
229.6030, 152.7568
230.8230, 59.97266
232.0430, 85.26660
233.2630, 34.67480
234.4820, 92.14941
235.7020, 33.30957
236.9210, 40.28613
238.1400, 6.2500000E-02
239.3590, 39.64258
240.5780, 66.59961
241.7970, 63.78711
243.0150, 137.0752
244.2340, 83.98730
245.4520, 141.9463
246.6700, 240.9473
247.8880, 190.9775
249.1060, 349.0566
250.3230, 368.1836
251.5400, 635.3584
252.7580, 1108.303
253.9750, 1394.885
255.1920, 2013.916
256.4080, 2137.287
257.6250, 2002.971
258.8410, 1593.796
260.0580, 907.9795
261.2740, 399.3770
262.4900, 96.96582
263.7050, 61.73242
264.9210, 19.66113
266.1360, 4.259766
267.3520, 96.08203
268.5670, 11.25879
269.7820, 213.2783
270.9960, 36.72754
272.2110, 82.07031
273.4250, 49.68262
274.6400, 38.53418
275.8540, 60.48145
277.0680, 109.5195
278.2810, 106.6445
279.4950, 196.8535
280.7090, 436.1416
281.9220, 474.5078
283.1350, 662.9473
284.3480, 905.4619
285.5610, 1086.044
286.7730, 1345.693
287.9860, 1807.406
289.1980, 2411.182
290.4100, 3067.020
291.6220, 3653.915
292.8340, 3815.869
294.0460, 3992.877
295.2570, 3621.936
296.4690, 3125.048
297.6800, 2578.211
298.8910, 2009.424
300.1020, 1673.685
301.3120, 1466.994
302.5230, 1146.352
303.7330, 1112.755
304.9440, 1037.203
306.1540, 1187.697
307.3630, 1437.234
308.5730, 1705.815
309.7830, 1828.439
310.9920, 1846.105
312.2010, 1701.812
313.4100, 1414.561
314.6190, 1222.346
315.8280, 1017.272
317.0370, 869.0029
318.2450, 660.0645
319.4530, 674.0029
320.6610, 635.9668
321.8690, 626.0996
323.0770, 828.8643
324.2850, 994.3467
325.4920, 1470.144
326.6990, 1980.288
327.9060, 2556.482
329.1130, 3025.696
330.3200, 3037.979
331.5270, 2597.294
332.7330, 2051.039
333.9390, 1246.867
335.1450, 835.1572
336.3510, 577.5430
337.5570, 475.7031
338.7630, 206.1572
339.9680, 236.6621
341.1740, 252.4023
342.3790, 146.0000
343.5840, 77.64551
344.7890, 83.57227
345.9930, 39.12793
347.1980, 86.11133
348.4020, 249.2715
349.6060, 200.8564
350.8100, 303.9658
352.0140, 231.9053
353.2180, 425.8740
354.4210, 306.1885
355.6250, 473.6934
356.8280, 639.8076
358.0310, 747.3809
359.2340, 904.5225
360.4360, 1220.690
361.6390, 1569.712
362.8410, 2135.927
364.0430, 2849.164
365.2450, 3568.427
366.4470, 4628.710
367.6490, 5902.023
368.8510, 7204.359
370.0520, 9391.713
371.2530, 12185.09
372.4540, 15696.48
373.6550, 19570.88
374.8560, 22533.31
376.0560, 23324.75
377.2570, 21553.21
378.4570, 18266.69
379.6570, 14225.18
380.8570, 11187.11
382.0570, 8505.631
383.2560, 6964.152
384.4560, 5853.703
385.6550, 5266.812
386.8540, 4631.016
388.0530, 4031.608
389.2520, 3549.216
390.4510, 2840.836
391.6490, 2271.471
392.8470, 1701.118
394.0450, 1311.778
395.2430, 1051.451
396.4410, 821.1348
397.6390, 748.8574
398.8360, 541.6123
400.0340, 539.3994
401.2310, 452.2168
402.4280, 502.0625
403.6250, 427.9355
404.8210, 385.8340
406.0180, 454.7578
407.2140, 372.7070
408.4100, 442.6777
409.6060, 617.6709
410.8020, 517.6221
411.9980, 587.2178
413.1930, 769.2754
414.3890, 803.4199
415.5840, 1017.808
416.7790, 1049.931
417.9740, 1172.065
419.1680, 1397.217
420.3630, 1437.388
421.5570, 1412.575
422.7510, 1471.779
423.9450, 1690.479
425.1390, 1951.625
426.3330, 2301.486
427.5270, 2802.752
428.7200, 3328.033
429.9130, 3988.328
431.1060, 4694.636
432.2990, 5358.959
433.4920, 5867.293
434.6840, 6192.642
435.8770, 6036.002
437.0690, 5297.377
438.2610, 4656.758
439.4530, 3807.154
440.6450, 3098.561
441.8360, 2423.979
443.0280, 1853.405
444.2190, 1489.843
445.4100, 1267.292
446.6010, 989.7500
447.7920, 772.2158
448.9820, 690.6924
450.1730, 404.1777
451.3630, 521.6709
452.5530, 279.1729
453.7430, 285.6826
454.9330, 257.1992
456.1230, 154.7236
457.3120, 83.25586
458.5010, 40.97852
459.6910, 140.9570
460.8800, 15.60352
462.0680, 49.97852
463.2570, 45.13184
464.4460, 49.17188
465.6340, 40.62793
466.8220, 13.88574
468.0100, 94.76074
469.1980, 55.19336
470.3860, 26.66699
471.5730, 23.85645
472.7600, 75.91016
473.9480, 61.37402
475.1350, 136.1592
476.3210, 64.98438
477.5080, 17.07031
478.6950, 72.27148
479.8810, 8.035156
481.0670, 38.05371
482.2530, 77.49023
483.4390, 0.4892580
484.6250, 83.56738
485.8100, 66.04492
486.9960, 69.47559
488.1810, 44.21777
489.3660, 67.14551
490.5510, 28.81543
491.7360, 21.95898
492.9200, 12.08789
494.1050, 61.03711
495.2890, 69.71387
496.4730, 9.583984
497.6570, 33.96582
498.8400, 57.38379
500.0240, 61.51367
501.2070, 150.5303
502.3910, 141.5684
503.5740, 1.914063
504.7570, 227.9268
505.9400, 255.9346
507.1220, 137.8721
508.3050, 269.8672
509.4870, 340.9785
510.6690, 454.9609
511.8510, 555.9375
513.0330, 636.9092
514.2140, 801.7822
515.3960, 982.8330
516.5770, 1168.788
517.7580, 1472.736
518.9390, 1763.677
520.1200, 2232.610
521.3010, 2786.538
522.4810, 3532.456
523.6610, 4374.370
524.8420, 4908.275
526.0220, 4909.174
527.2010, 4196.091
528.3810, 3297.006
529.5610, 2425.918
530.7400, 1953.823
531.9190, 1311.721
533.0980, 986.6113
534.2770, 435.5146
535.4560, 407.4268
536.6340, 442.3301
537.8120, 283.2256
538.9910, 202.1133
540.1690, 407.9902
541.3460, 249.8594
542.5240, 207.7256
543.7020, 220.5928
544.8790, 132.4482
546.0560, 201.2939
547.2330, 151.1289
548.4100, 177.9521
549.5870, 160.7646
550.7630, 265.5723
551.9400, 392.3711
553.1160, 144.1572
554.2920, 342.9883
555.4680, 277.8076
556.6440, 517.6465
557.8190, 592.4746
558.9950, 541.2979
560.1700, 586.1094
561.3450, 764.9092
562.5200, 750.6953
563.6950, 819.4678
564.8690, 1092.228
566.0440, 1386.974
567.2180, 1760.706
568.3920, 2140.426
569.5660, 2716.130
570.7400, 3495.820
571.9130, 4490.498
573.0870, 5813.162
574.2600, 7138.809
575.4330, 8398.444
576.6060, 8855.062
577.7790, 7895.666
578.9520, 6566.256
580.1240, 4934.829
581.2960, 3751.389
582.4690, 2696.932
583.6410, 1944.460
584.8120, 1676.973
585.9840, 1210.471
587.1560, 1114.952
588.3270, 1031.418
589.4980, 859.8682
590.6690, 733.3018
591.8400, 625.7197
593.0110, 596.1211
594.1810, 481.5059
595.3510, 482.8750
596.5220, 269.2266
597.6920, 177.5615
598.8610, 120.8809
600.0310, 102.1807
601.2010, 71.64941
602.3700, 20.58203
603.5390, 94.79102
604.7080, 130.9775
605.8770, 199.0127
607.0460, 117.4336
608.2140, 90.15430
609.3830, 91.57422
610.5510, 222.6602
611.7190, 227.7129
612.8870, 76.23535
614.0550, 172.7275
615.2220, 166.6738
616.3900, 39.81250
617.5570, 38.55566
618.7240, 178.4502
619.8910, 86.26660
621.0580, 161.3232
622.2240, 24.90039
623.3910, 30.82129
624.5570, 26.68262
625.7230, 17.05176
626.8890, 1.043945
628.0550, 20.82324
629.2200, 2.503906
630.3860, 24.74121
631.5510, 6.185547
632.7160, 20.18262
633.8810, 55.38770
635.0460, 65.91797
636.2100, 32.79785
637.3750, 15.86719
638.5390, 1.866211
639.7030, 115.9902
640.8670, 152.6670
642.0310, 132.7852
643.1950, 73.89062
644.3580, 111.1514
645.5210, 172.2305
646.6850, 39.29492
647.8480, 135.3379
649.0100, 1.364258
650.1730, 172.3574
651.3350, 238.3350
652.4980, 199.2988
653.6600, 202.2500
654.8220, 145.9150
655.9840, 214.9824
657.1450, 174.8877
658.3070, 293.7842
659.4680, 223.6641
660.6300, 447.5303
661.7910, 492.3828
662.9510, 399.2207
664.1120, 472.0420
665.2730, 531.8496
666.4330, 450.5176
667.5930, 475.3018
668.7530, 495.1064
669.9130, 773.8594
671.0730, 879.0518
672.2320, 678.1250
673.3920, 1023.445
674.5510, 1017.377
675.7100, 1139.053
676.8690, 1271.058
678.0280, 1390.523
679.1860, 1557.572
680.3450, 1775.563
681.5030, 2086.269
682.6610, 2403.234
683.8190, 2798.801
684.9770, 3279.352
686.1340, 3627.885
687.2920, 4598.433
688.4490, 5403.936
689.6060, 6688.879
690.7630, 7979.650
691.9200, 10431.10
693.0760, 13007.11
694.2330, 16182.54
695.3890, 20069.94
696.5450, 25166.34
697.7010, 31491.71
698.8570, 37624.07
700.0130, 42545.41
701.1680, 44220.74
702.3230, 41894.05
703.4780, 36215.34
704.6330, 29289.62
705.7880, 22927.89
706.9430, 17773.14
708.0970, 13327.37
709.2520, 10497.58
710.4060, 8402.782
711.5600, 6685.967
712.7140, 5454.134
713.8670, 4533.287
715.0210, 3859.426
716.1740, 3271.549
717.3270, 2909.658
718.4800, 2414.751
719.6330, 2209.828
720.7860, 1999.892
721.9380, 1737.939
723.0910, 1460.974
724.2430, 1285.992
725.3950, 1119.996
726.5470, 1236.985
727.6980, 996.9600
728.8500, 1213.921
730.0010, 1033.867
731.1530, 910.7998
732.3040, 963.7158
733.4550, 700.6201
734.6050, 655.5098
735.7560, 762.3838
736.9060, 700.2471
738.0560, 621.9092
739.2060, 575.3086
740.3560, 652.0342
741.5060, 593.0234
742.6560, 476.2256
743.8050, 582.8789
744.9540, 427.6611
746.1030, 411.2256
747.2520, 506.3916
748.4010, 447.6963
749.5500, 400.4727
750.6980, 398.2373
751.8460, 469.6914
752.9950, 540.4414
754.1420, 334.1797
755.2900, 445.1641
756.4380, 329.3818
757.5850, 402.1523
758.7330, 405.4922
759.8800, 374.2441
761.0270, 440.3301
762.1730, 405.2822
763.3200, 421.2617
764.4670, 379.8291
765.6130, 488.3867
766.7590, 263.1338
767.9050, 445.8984
769.0510, 333.0215
770.1960, 511.7266
771.3420, 571.7305
772.4870, 423.4932
773.6320, 543.6914
774.7770, 513.8555
775.9220, 702.1484
777.0670, 675.5596
778.2110, 883.3027
779.3560, 918.3789
780.5000, 949.8838
781.6440, 652.0020
782.7880, 498.2871
783.9320, 552.0078
785.0750, 551.0605
786.2180, 414.7686
787.3620, 418.6553
788.5050, 244.0400
789.6480, 238.8008
790.7900, 207.0498
791.9330, 2.274414
793.0750, 31.38867
794.2170, 78.04297
795.3590, 175.4697
796.5010, 146.2031
797.6430, 78.99512
798.7850, 116.6279
799.9260, 85.25391
801.0670, 73.87598
802.2080, 119.4922
803.3490, 85.89746
804.4900, 97.06152
805.6310, 40.61230
806.7710, 128.1562
807.9110, 2.695313
809.0510, 8.224609
810.1910, 66.25391
811.3310, 60.55664
812.4710, 82.65820
813.6100, 6.089844
814.7490, 13.51172
815.8880, 103.9277
817.0270, 2.340820
818.1660, 12.25586
819.3050, 32.86719
820.4430, 231.4971
821.5820, 64.85645
822.7200, 169.2129
823.8580, 30.56543
824.9950, 107.9150
826.1330, 19.71973
827.2710, 1.630859
828.4080, 120.9746
829.5450, 165.6836
830.6820, 100.5645
831.8190, 107.8086
832.9560, 156.0508
834.0920, 140.3037
835.2280, 99.55371
836.3650, 185.8008
837.5010, 132.0488
838.6360, 27.30566
839.7720, 54.56055
840.9080, 125.8125
842.0430, 189.0635
843.1780, 249.3125
844.3130, 157.5605
845.4480, 46.80957
846.5830, 233.0586
847.7170, 99.30469
848.8520, 101.5518
849.9860, 185.7959
851.1200, 59.05859
852.2540, 171.3213
853.3870, 203.5820
854.5210, 249.8418
855.6540, 270.1016
856.7880, 227.4102
857.9210, 205.6191
859.0540, 145.8770
860.1860, 162.1357
861.3190, 205.3926
862.4510, 226.6514
863.5840, 398.9111
864.7160, 369.1699
865.8480, 260.4297
866.9790, 355.6895
868.1110, 172.9512
869.2420, 262.2119
870.3740, 228.4736
871.5050, 360.7363
872.6360, 158.0000
873.7660, 344.2637
874.8970, 426.5303
876.0280, 285.8027
877.1580, 330.0811
878.2880, 292.3740
879.4180, 279.6709
880.5480, 368.9707
881.6770, 366.2715
882.8070, 471.5742
883.9360, 352.8848
885.0650, 621.1992
886.1940, 387.5195
887.3230, 450.8447
888.4520, 533.2080
889.5800, 476.5742
890.7090, 453.9404
891.8370, 262.3340
892.9650, 320.7383
894.0930, 267.1436
895.2200, 120.5518
896.3480, 179.9619
897.4750, 108.3955
898.6020, 136.8408
899.7290, 267.3086
900.8560, 136.7969
901.9830, 179.3018
903.1090, 434.8174
904.2360, 179.9297
905.3620, 599.8906
906.4880, 92.55176
907.6140, 131.9717
908.7400, 112.5244
909.8650, 82.08105
910.9900, 78.66113
912.1160, 40.22852
913.2410, 0.1308590
914.3660, 13.51855
915.4900, 24.90820
916.6150, 23.30176
917.7390, 19.91895
918.8640, 53.89941
919.9880, 11.50000
921.1120, 110.1055
922.2350, 95.71289
923.3590, 62.33398
924.4820, 3.041992
925.6060, 20.41797
926.7290, 5.201172
927.8520, 93.11328
928.9740, 10.61133
930.0970, 25.74219
931.2190, 91.89746
932.3420, 10.45801
933.4640, 92.18652
934.5860, 96.85352
935.7080, 91.52246
936.8290, 94.19434
937.9510, 37.87109
939.0720, 41.32422
940.1930, 244.3467
941.3140, 262.9844
942.4350, 196.6611
943.5560, 135.9062
944.6760, 291.2588
945.7960, 169.3535
946.9170, 171.8252
948.0370, 127.5410
949.1560, 139.2783
950.2760, 295.4141
951.3960, 264.1533
952.5150, 242.5195
953.6340, 416.1621
954.7530, 279.5303
955.8720, 359.2891
956.9910, 546.0537
958.1090, 437.8232
959.2280, 632.5664
960.3460, 541.8105
961.4640, 640.7227
962.5820, 532.2100
963.6990, 504.0049
964.8170, 739.2363
965.9340, 789.0400
967.0510, 903.8496
968.1690, 972.4453
969.2850, 1097.266
970.4020, 1233.821
971.5190, 1391.649
972.6350, 1576.829
973.7510, 1795.666
974.8670, 2052.512
975.9830, 2325.375
977.0990, 2619.244
978.2150, 3381.127
979.3300, 4046.961
980.4450, 4980.867
981.5600, 6075.781
982.6750, 7252.697
983.7900, 9410.617
984.9050, 11538.95
986.0190, 13679.90
987.1340, 14779.85
988.2480, 15890.80
989.3620, 16257.76
990.4750, 16678.73
991.5890, 17272.71
992.7020, 17208.71
993.8160, 16295.71
994.9290, 14187.74
996.0420, 12210.78
997.1550, 9829.832
998.2670, 7836.893
999.3800, 6248.957
1000.492, 4833.025
1001.604, 4001.096
1002.716, 3301.176
1003.828, 2723.258
1004.940, 2117.344
1006.051, 1810.438
1007.163, 1638.535
1008.274, 1357.637
1009.385, 1158.064
1010.496, 998.1758
1011.606, 913.4785
1012.717, 791.4277
1013.827, 851.5742
1014.937, 876.7266
1016.047, 838.8828
1017.157, 812.3047
1018.267, 804.7617
1019.377, 749.8672
1020.486, 764.3789
1021.595, 795.5801
1022.704, 777.7617
1023.813, 887.9473
1024.922, 1126.137
1026.030, 1235.330
1027.139, 1196.525
1028.247, 1583.725
1029.355, 1815.928
1030.463, 2095.135
1031.571, 2648.500
1032.678, 3142.729
1033.786, 4151.963
1034.893, 5124.199
1036.000, 6122.439
1037.107, 7771.680
1038.214, 9448.926
1039.321, 10653.17
1040.427, 11428.45
1041.533, 11144.71
1042.639, 9649.969
1043.745, 8080.232
1044.851, 6228.502
1045.957, 4906.773
1047.062, 3815.020
1048.168, 3238.959
1049.273, 2411.465
1050.378, 1865.043
1051.482, 1824.766
1052.587, 1424.053
1053.692, 1231.064
1054.796, 899.3574
1055.900, 662.6523
1057.004, 630.9492
1058.108, 605.1777
1059.212, 496.9121
1060.315, 529.9453
1061.418, 501.2559
1062.522, 401.3086
1063.625, 364.1074
1064.728, 285.4238
1065.830, 299.5000
1066.933, 403.2949
1068.035, 351.6172
1069.137, 381.9434
1070.239, 398.2715
1071.341, 254.7773
1072.443, 310.7305
1073.545, 278.0879
1074.646, 249.4492
1075.747, 336.2402
1076.848, 411.6055
1077.949, 348.9727
1079.050, 499.3633
1080.150, 633.7715
1081.251, 508.1797
1082.351, 363.9883
1083.451, 571.4043
1084.551, 415.9688
1085.651, 318.3867
1086.750, 251.8125
1087.850, 152.3242
1088.949, 339.7598
1090.048, 200.1992
1091.147, 145.6387
1092.246, 81.91797
1093.345, 16.46484
1094.443, 148.0312
1095.541, 15.53906
1096.639, 42.94336
1097.737, 231.3926
1098.835, 63.84375
1099.933, 53.70703
1101.030, 76.71875
1102.128, 144.1445
1103.225, 15.42969
1104.322, 48.00781
1105.419, 23.38867
1106.515, 111.7871
1107.612, 35.69336
1108.708, 90.47852
1109.804, 20.91797
1110.900, 18.82031
1111.996, 99.56641
1113.092, 320.0527
1114.187, 122.4355
1115.283, 36.81836
1116.378, 73.79883
1117.473, 229.2422
1118.568, 130.5840
1119.662, 200.5273
1120.757, 132.8691
1121.851, 68.20508
1122.946, 83.15234
1124.040, 198.3594
1125.134, 134.6914
1126.227, 165.8984
1127.321, 83.22852
1128.414, 93.23828
1129.508, 69.77539
1130.601, 88.09961
1131.693, 139.4180
1132.786, 147.7383
1133.879, 148.6543
1134.971, 228.3691
1136.064, 153.6797
1137.156, 103.2539
1138.248, 157.5645
1139.339, 124.8691
1140.431, 2.169922
1141.522, 184.4668
1142.614, 67.42578
1143.705, 108.8105
1144.796, 81.26367
1145.887, 135.5469
1146.977, 66.91016
1148.068, 6.189453
1149.158, 28.46094
1150.248, 9.152344
1151.338, 4.982422
1152.428, 32.22656
1153.518, 46.47070
1154.607, 162.7090
1155.696, 195.9434
1156.785, 176.3262
1157.874, 131.4043
1158.963, 114.6289
1160.052, 135.8516
1161.141, 121.0703
1162.229, 11.75195
1163.317, 188.9824
1164.405, 80.18555
1165.493, 48.38867
1166.581, 268.5859
1167.668, 265.7793
1168.756, 201.9707
1169.843, 53.15625
1170.930, 59.33789
1172.017, 288.5371
1173.103, 185.7324
1174.190, 109.4648
1175.276, 262.6523
1176.363, 91.83594
1177.449, 99.01367
1178.535, 75.19141
1179.620, 255.3613
1180.706, 291.5332
1181.791, 340.7031
1182.877, 228.8730
1183.962, 277.5020
1185.047, 110.2031
1186.131, 219.3613
1187.216, 213.5176
1188.300, 88.66797
1189.385, 345.8125
1190.469, 43.04297
1191.553, 101.1895
1192.637, 365.2910
1193.720, 100.3887
1194.804, 155.4883
1195.887, 272.5820
1196.970, 54.32617
1198.053, 113.7207
1199.136, 102.7637
1200.219, 185.7988
1201.301, 20.83203
1202.383, 194.8867
1203.465, 94.91602
1204.547, 142.9395
1205.629, 53.04102
1206.711, 237.9316
1207.792, 146.9023
1208.874, 106.8672
1209.955, 183.8301
1211.036, 175.7832
1212.117, 20.26758
1213.198, 92.65820
1214.278, 27.98438
1215.359, 239.4863
1216.439, 93.39258
1217.519, 46.29297
1218.599, 199.1875
1219.678, 138.0781
1220.758, 141.9609
1221.837, 63.84180
1222.917, 49.25000
1223.996, 38.53320
1225.075, 36.52539
1226.153, 76.07227
1227.232, 96.10156
1228.310, 145.9492
1229.389, 212.7891
1230.467, 186.8457
1231.545, 172.6738
1232.622, 60.50000
1233.700, 157.7207
1234.777, 235.0645
1235.855, 159.8750
1236.932, 27.32031
1238.009, 7.457031
1239.086, 19.88281
1240.162, 33.00977
1241.239, 87.75391
1242.315, 34.46484
1243.391, 152.1699
1244.467, 203.8691
1245.543, 82.56445
1246.619, 33.15039
1247.694, 199.5117
1248.769, 0.1718750
1249.844, 136.8184
1250.919, 87.46094
1251.994, 31.90234
1253.069, 4.291016
1254.144, 59.45312
1255.218, 115.9082
1256.292, 197.6602
1257.366, 20.71875
1258.440, 119.8223
1259.514, 137.3594
1260.587, 155.8906
1261.661, 239.4219
1262.734, 83.94531
1263.807, 223.4668
1264.880, 63.98242
1265.952, 5.574219
1267.025, 114.0781
1268.097, 83.58203
1269.170, 126.0801
1270.242, 86.25391
1271.314, 18.25586
1272.385, 33.21484
1273.457, 42.31836
1274.528, 125.1152
1275.600, 35.54688
1276.671, 101.9746
1277.742, 251.1367
1278.812, 177.4434
1279.883, 195.3555
1280.954, 141.8203
1282.024, 125.2109
1283.094, 71.61719
1284.164, 111.0234
1285.234, 120.4258
1286.303, 103.8262
1287.373, 121.4551
1288.442, 58.83008
1289.511, 108.0117
1290.580, 1.597656
1291.649, 42.36719
1292.718, 75.98438
1293.786, 216.3320
1294.855, 212.6758
1295.923, 269.4766
1296.991, 268.1133
1298.059, 235.6895
1299.126, 210.0215
1300.194, 117.3535
1301.261, 72.68164
1302.328, 19.99609
1303.395, 110.3105
1304.462, 64.61523
1305.529, 339.9141
1306.596, 167.2129
1307.662, 55.50977
1308.728, 273.8086
1309.794, 107.1055
1310.860, 64.39844
1311.926, 147.6875
1312.991, 231.9766
1314.057, 81.26172
1315.122, 56.54297
1316.187, 105.8281
1317.252, 90.10938
1318.317, 289.3867
1319.381, 17.93164
1320.446, 177.2266
1321.510, 202.4883
1322.574, 105.7480
1323.638, 205.0039
1324.702, 229.2578
1325.766, 176.0332
1326.829, 61.27930
1327.892, 200.5234
1328.956, 188.7637
1330.019, 35.82617
1331.081, 340.0625
1332.144, 241.2988
1333.206, 224.5312
1334.269, 209.3281
1335.331, 144.5586
1336.393, 204.7852
1337.455, 214.0117
1338.516, 198.2344
1339.578, 222.4570
1340.639, 185.7207
1341.701, 265.5020
1342.762, 136.5840
1343.822, 180.8008
1344.883, 187.0156
1345.944, 318.1543
1347.004, 298.3672
1348.064, 314.3594
1349.124, 352.7910
1350.184, 297.9980
1351.244, 245.1758
1352.304, 253.3125
1353.363, 217.0742
1354.422, 124.6719
1355.481, 221.9043
1356.540, 226.1348
1357.599, 286.3652
1358.657, 246.7305
1359.716, 239.8652
1360.774, 147.0996
1361.832, 197.3477
1362.890, 180.6094
1363.948, 213.8711
1365.006, 298.6230
1366.063, 121.5000
1367.120, 312.7207
1368.178, 329.1211
1369.234, 215.3906
1370.291, 35.56445
1371.348, 229.8418
1372.404, 59.11719
1373.461, 359.4199
1374.517, 40.02148
1375.573, 185.3242
1376.629, 189.0254
1377.684, 256.3359
1378.740, 259.6465
1379.795, 256.8340
1380.850, 8.445313
1381.905, 177.7656
1382.960, 195.2109
1384.015, 12.53711
1385.070, 182.9746
1386.124, 127.3086
1387.178, 110.6445
1388.232, 62.98438
1389.286, 65.43164
1390.340, 114.6816
1391.393, 150.0352
1392.447, 6.394531
1393.500, 189.4961
1394.553, 114.8652
1395.606, 193.2402
1396.659, 408.6191
1397.711, 165.0059
1398.764, 241.7344
1399.816, 192.0410
1400.868, 245.2832
1401.920, 297.8262
1402.972, 202.1641
1404.023, 263.5918
1405.075, 264.0312
1406.126, 157.4766
1407.177, 113.9355
1408.228, 23.40625
1409.279, 200.8828
1410.330, 268.3730
1411.380, 237.8691
1412.431, 242.3789
1413.481, 242.6055
1414.531, 221.9609
1415.580, 237.5000
1416.630, 243.4199
1417.680, 275.8145
1418.729, 264.1719
1419.778, 296.6152
1420.827, 293.9414
1421.876, 270.3359
1422.925, 255.7305
1423.973, 262.1289
1425.022, 204.8809
1426.070, 255.2871
1427.118, 212.6934
1428.166, 164.1055
1429.214, 194.4570
1430.261, 282.3887
1431.309, 193.7832
1432.356, 283.3242
1433.403, 253.8164
1434.450, 258.7520
1435.497, 253.8281
1436.543, 328.5762
1437.590, 179.9902
1438.636, 306.4121
1439.682, 249.8438
1440.728, 329.2734
1441.774, 299.8145
1442.819, 315.0938
1443.865, 113.3398
1444.910, 169.2949
1445.955, 24.94336
1447.000, 256.5449
1448.045, 146.8926
1449.090, 133.2402
1450.134, 273.6309
1451.178, 339.0195
1452.223, 334.6641
1453.267, 340.7812
1454.310, 294.2227
1455.354, 252.6680
1456.398, 138.1152
1457.441, 264.5898
1458.484, 366.0723
1459.527, 94.55664
1460.570, 177.0469
1461.613, 194.5449
1462.655, 80.04492
1463.698, 216.5547
1464.740, 205.0664
1465.782, 237.5859
1466.824, 307.1055
1467.866, 33.63086
1468.907, 309.1777
1469.948, 211.7578
1470.990, 244.3867
1472.031, 462.0254
1473.072, 163.6699
1474.112, 133.3516
1475.153, 395.0469
1476.194, 305.7656
1477.234, 348.2637
1478.274, 45.91797
1479.314, 295.6777
1480.354, 295.4453
1481.393, 388.2227
1482.433, 320.8965
1483.472, 263.6934
1484.511, 338.4980
1485.550, 213.3242
1486.589, 324.1895
1487.628, 72.08594
1488.666, 208.9941
1489.704, 401.9121
1490.743, 279.8340
1491.781, 297.7715
1492.819, 292.7129
1493.856, 356.6582
1494.894, 250.6250
1495.931, 224.6484
1496.968, 415.6914
1498.005, 50.74414
1499.042, 354.8125
1500.079, 329.8965
1501.115, 225.0234
1502.152, 232.1660
1503.188, 231.3125
1504.224, 195.4688
1505.260, 171.3574
1506.296, 232.8359
1507.331, 79.03125
1508.367, 153.2578
1509.402, 346.4707
1510.437, 245.7754
1511.472, 271.1074
1512.507, 243.4746
1513.541, 273.8711
1514.576, 175.3008
1515.610, 158.7598
1516.644, 322.2559
1517.678, 169.7852
1518.712, 503.3516
1519.746, 213.9199
1520.779, 162.5664
1521.813, 339.2500
1522.846, 438.9746
1523.879, 168.7363
1524.912, 123.5488
1525.944, 59.40625
1526.977, 193.3086
1528.009, 293.2598
1529.041, 430.2598
1530.073, 303.3105
1531.105, 376.4102
1532.137, 457.5645
1533.168, 229.7793
1534.200, 395.0488
1535.231, 264.3027
1536.262, 159.6973
1537.293, 16.15820
1538.324, 113.2891
1539.354, 36.57422
1540.385, 69.85156
1541.415, 109.9961
1542.445, 304.3574
1543.475, 144.5723
1544.505, 196.7480
1545.534, 184.8750
1546.564, 133.9395
1547.593, 22.92383
1548.622, 321.0977
1549.651, 200.7539
1550.680, 383.3906
1551.708, 231.7598
1552.737, 244.8867
1553.765, 283.7109
1554.793, 208.0039
1555.821, 56.82031
1556.849, 72.31836
1557.877, 11.19531
1558.904, 304.2812
1559.932, 209.8750
1560.959, 395.0957
1561.986, 434.4043
1563.013, 132.2598
1564.039, 285.3906
1565.066, 2.890625
1566.092, 169.3613
1567.119, 117.6094
1568.145, 60.39844
1569.170, 137.5645
1570.196, 0.0000000E+00
##END=



