##NAMES=Kornerupine
##RRUFFID=R050214
##IDEAL CHEMISTRY=(Mg,Fe^2+^,Al,[box])_10_(Si,Al,B)_5_O_21_(OH,F)_2_
##LOCALITY=Sri Lanka
##OWNER=RRUFF
##SOURCE=Jibamitra Ganguly
##DESCRIPTION=Water-worn single crystal fragment
##STATUS=The identification of this mineral has been confirmed by X-ray diffraction and chemical analysis
##URL=rruff.info/R050214
##MEASURED CHEMISTRY=(Mg_3.63_[box]_0.21_Fe^2+^_0.14_Na_0.02_)_4_Al_6.00_(Si_2.44_Al_1.97_B_0.59_)_5_O_21_(OH) ;   B and Li not measured; B estimated by charge balance
##PIN_ID=L00056
##ORIENTATION=Laser parallel to -c* (0 0 -1). Fiducial mark perpendicular to laser is parallel to -a [-1 0 0]
111.473, 0.000
112.864, 143.467
114.254, 236.115
115.644, 324.500
117.034, 265.344
118.424, 271.441
119.813, 415.395
121.203, 392.479
122.592, 359.170
123.981, 219.766
125.369, 151.062
126.758, 61.090
128.146, 111.439
129.534, 144.232
130.922, 51.107
132.309, 21.355
133.696, 104.557
135.083, 238.977
136.470, 42.230
137.857, 367.658
139.243, 227.484
140.630, 245.113
142.016, 232.432
143.401, 224.355
144.787, 192.826
146.172, 213.801
147.557, 332.236
148.942, 398.734
150.327, 560.289
151.711, 709.795
153.096, 1106.543
154.480, 1412.443
155.863, 1575.398
157.247, 2050.328
158.630, 2073.145
160.013, 2551.787
161.396, 2563.207
162.779, 2643.361
164.161, 2791.215
165.544, 2596.736
166.926, 2778.896
168.308, 2835.664
169.689, 2844.029
171.070, 3390.002
172.452, 3542.627
173.833, 3590.953
175.213, 3819.016
176.594, 3935.848
177.974, 4219.467
179.354, 4526.867
180.734, 4363.031
182.114, 4335.922
183.493, 4803.498
184.872, 4658.721
186.251, 4646.547
187.630, 4145.941
189.008, 4060.869
190.387, 3909.299
191.765, 3495.201
193.143, 3518.543
194.520, 2870.217
195.898, 3073.957
197.275, 2501.764
198.652, 2625.629
200.029, 2245.545
201.405, 1867.529
202.782, 1865.518
204.158, 1692.527
205.534, 1705.609
206.909, 1510.938
208.285, 1734.641
209.660, 1856.971
211.035, 1883.398
212.410, 1526.193
213.784, 1664.744
215.159, 1604.855
216.533, 1643.471
217.907, 1709.963
219.281, 2091.625
220.654, 2076.465
222.027, 2613.479
223.400, 2890.668
224.773, 3187.055
226.146, 3439.689
227.518, 3752.627
228.891, 4093.291
230.263, 4321.828
231.634, 4697.336
233.006, 4468.725
234.377, 4529.006
235.748, 4515.201
237.119, 4118.295
238.490, 4510.203
239.860, 4041.982
241.231, 4291.561
242.601, 4511.750
243.970, 4943.518
245.340, 5561.727
246.709, 6055.258
248.079, 7309.938
249.448, 7740.770
250.816, 9019.652
252.185, 9996.535
253.553, 10802.377
254.921, 11998.160
256.289, 12220.879
257.657, 12400.533
259.024, 11890.123
260.391, 11594.645
261.758, 10944.098
263.125, 10710.484
264.492, 10533.801
265.858, 10110.051
267.224, 10319.223
268.590, 9710.326
269.956, 9597.354
271.321, 8968.305
272.687, 8114.180
274.052, 7378.977
275.416, 6791.693
276.781, 5948.535
278.146, 5035.496
279.510, 4744.496
280.874, 4504.473
282.237, 4373.432
283.601, 4422.496
284.964, 4831.012
286.327, 5955.676
287.690, 6722.473
289.053, 7877.586
290.416, 9322.051
291.778, 9963.297
293.140, 10842.895
294.502, 11204.297
295.863, 11331.535
297.225, 11013.494
298.586, 10112.336
299.947, 9865.797
301.308, 9114.904
302.668, 8560.826
304.029, 8529.957
305.389, 8032.295
306.749, 7668.828
308.108, 7743.553
309.468, 7849.455
310.827, 7756.533
312.186, 7859.777
313.545, 8694.180
314.903, 8868.732
316.262, 9406.434
317.620, 10190.273
318.978, 10720.246
320.336, 11393.350
321.693, 11922.570
323.051, 12818.916
324.408, 12859.371
325.765, 13754.938
327.121, 13337.609
328.478, 13203.387
329.834, 12994.258
331.190, 12649.227
332.546, 11669.285
333.902, 10845.516
335.257, 9872.279
336.612, 8931.100
337.967, 7888.113
339.322, 7256.316
340.677, 6508.281
342.031, 5883.139
343.385, 5384.166
344.739, 4884.539
346.093, 4462.561
347.446, 4129.902
348.799, 4240.992
350.153, 4049.400
351.505, 4211.027
352.858, 3958.094
354.210, 4082.096
355.563, 4250.330
356.915, 4209.695
358.267, 4496.467
359.618, 4586.814
360.969, 5053.781
362.321, 5113.490
363.672, 5414.711
365.022, 5987.832
366.373, 5995.381
367.723, 6607.469
369.073, 6921.873
370.423, 7133.955
371.773, 7544.010
373.122, 7950.479
374.471, 8429.066
375.821, 8392.297
377.169, 9163.902
378.518, 8879.957
379.866, 8990.543
381.215, 9291.332
382.563, 9050.355
383.910, 9034.879
385.258, 9089.600
386.605, 9126.881
387.952, 8986.779
389.299, 9245.000
390.646, 9261.232
391.992, 9358.729
393.339, 9586.324
394.685, 9725.211
396.031, 10044.053
397.376, 9723.854
398.722, 9625.594
400.067, 9255.277
401.412, 8846.898
402.757, 8563.453
404.101, 7613.938
405.446, 6776.346
406.790, 6220.680
408.134, 5741.930
409.478, 5147.100
410.821, 4766.186
412.165, 4235.006
413.508, 3836.100
414.851, 3410.930
416.193, 3054.842
417.536, 2693.328
418.878, 2479.896
420.220, 2330.379
421.562, 2180.441
422.904, 2060.566
424.245, 2013.293
425.586, 1908.420
426.927, 1873.551
428.268, 1883.543
429.609, 1833.271
430.949, 1990.043
432.289, 2071.727
433.629, 2141.318
434.969, 2183.820
436.309, 2042.234
437.648, 2334.557
438.987, 2291.832
440.326, 2361.057
441.665, 2161.234
443.003, 2575.361
444.342, 2360.438
445.680, 2503.465
447.018, 2596.441
448.355, 2383.367
449.693, 2527.244
451.030, 2543.064
452.367, 2912.832
453.704, 2582.541
455.041, 2917.230
456.377, 2938.857
457.713, 3089.432
459.049, 3390.941
460.385, 3543.400
461.721, 3817.791
463.056, 3667.113
464.391, 3620.367
465.726, 4146.543
467.061, 3941.646
468.395, 3809.674
469.730, 4136.623
471.064, 3719.496
472.398, 3996.287
473.731, 3464.998
475.065, 3554.623
476.398, 3294.168
477.731, 3153.627
479.064, 2928.998
480.397, 2587.281
481.729, 2473.479
483.062, 2184.586
484.394, 1978.605
485.725, 1830.533
487.057, 1671.367
488.389, 1595.109
489.720, 1210.758
491.051, 1219.312
492.382, 1038.771
493.712, 698.133
495.043, 595.396
496.373, 292.553
497.703, 285.588
499.032, 281.506
500.362, 160.336
501.691, 15.137
503.020, 334.184
504.349, 128.781
505.678, 326.480
507.007, 455.395
508.335, 272.570
509.663, 560.939
510.991, 194.629
512.319, 405.479
513.646, 337.607
514.973, 385.971
516.300, 496.588
517.627, 197.533
518.954, 490.678
520.280, 418.186
521.607, 283.965
522.933, 433.021
524.259, 333.439
525.584, 529.150
526.910, 360.291
528.235, 235.805
529.560, 276.615
530.885, 178.814
532.209, 279.326
533.534, 184.227
534.858, 97.469
536.182, 149.998
537.506, 19.148
538.829, 67.938
540.152, 146.695
541.476, 225.150
542.799, 16.557
544.121, 300.480
545.444, 212.367
546.766, 230.088
548.088, 410.646
549.410, 407.066
550.732, 645.352
552.053, 612.514
553.375, 786.555
554.696, 880.479
556.017, 1184.287
557.337, 1415.982
558.658, 1609.562
559.978, 1905.260
561.298, 2111.379
562.618, 2441.617
563.938, 2647.740
565.257, 2921.750
566.576, 3031.645
567.895, 3174.428
569.214, 3459.096
570.533, 3614.654
571.851, 3292.100
573.170, 3592.432
574.488, 3410.652
575.805, 3507.762
577.123, 3550.762
578.440, 3638.650
579.758, 4071.428
581.075, 3751.098
582.391, 4293.652
583.708, 4414.105
585.024, 4207.445
586.341, 4566.680
587.657, 4663.803
588.972, 4712.818
590.288, 4726.727
591.603, 4527.529
592.918, 4811.227
594.233, 4831.818
595.548, 5166.301
596.863, 5190.680
598.177, 5310.957
599.491, 5536.127
600.805, 5572.195
602.119, 5757.154
603.432, 5785.012
604.746, 5935.770
606.059, 6007.422
607.372, 5761.969
608.685, 6135.416
609.997, 5767.762
611.309, 5573.002
612.621, 5197.145
613.933, 5141.188
615.245, 4957.127
616.557, 4759.969
617.868, 4409.707
619.179, 4412.350
620.490, 3845.891
621.801, 4283.334
623.111, 3774.678
624.421, 3895.924
625.731, 3350.074
627.041, 3474.127
628.351, 2978.082
629.660, 2763.945
630.970, 2822.713
632.279, 2559.387
633.588, 2406.965
634.896, 2229.451
636.205, 2452.846
637.513, 2248.148
638.821, 2469.359
640.129, 2362.480
641.437, 2872.512
642.744, 2637.453
644.051, 2947.307
645.358, 3168.072
646.665, 3412.752
647.972, 3545.346
649.278, 3574.855
650.584, 3577.277
651.890, 4236.531
653.196, 4199.254
654.502, 4624.926
655.807, 4153.773
657.113, 4421.854
658.418, 4828.867
659.722, 4622.611
661.027, 4686.143
662.331, 4631.725
663.636, 4898.896
664.940, 4683.537
666.244, 4896.809
667.547, 4934.498
668.851, 5340.789
670.154, 5367.619
671.457, 5643.168
672.760, 6176.709
674.062, 6390.039
675.365, 6693.162
676.667, 6926.766
677.969, 7254.926
679.271, 7589.346
680.572, 8067.762
681.874, 8718.324
683.175, 9645.355
684.476, 10172.779
685.777, 11018.129
687.077, 11802.551
688.378, 13157.273
689.678, 14615.207
690.978, 15948.965
692.278, 16970.031
693.577, 19957.668
694.877, 20995.803
696.176, 23286.354
697.475, 24811.648
698.774, 26617.656
700.072, 27608.113
701.371, 28447.314
702.669, 28362.910
703.967, 28567.826
705.265, 28381.375
706.562, 26211.850
707.860, 23736.006
709.157, 22109.004
710.454, 19026.646
711.751, 17030.264
713.047, 14430.852
714.344, 12469.422
715.640, 10290.969
716.936, 8980.496
718.232, 7860.008
719.527, 6725.500
720.823, 5519.977
722.118, 4923.438
723.413, 4111.887
724.708, 3540.320
726.002, 3719.744
727.297, 2956.154
728.591, 3435.557
729.885, 3780.951
731.179, 3476.340
732.472, 4030.719
733.766, 4729.096
735.059, 5344.469
736.352, 6253.838
737.645, 7254.207
738.937, 8477.574
740.230, 9345.949
741.522, 10683.324
742.814, 12204.701
744.106, 13494.082
745.397, 14656.473
746.689, 15690.873
747.980, 16955.283
749.271, 17633.703
750.562, 18352.141
751.853, 18014.588
753.143, 17963.053
754.433, 17243.531
755.723, 16305.025
757.013, 15235.541
758.303, 13520.086
759.592, 12476.641
760.881, 10839.227
762.170, 9964.840
763.459, 8318.477
764.748, 6882.141
766.036, 6286.838
767.325, 4859.566
768.613, 4466.332
769.901, 3749.129
771.188, 2920.967
772.476, 2961.842
773.763, 2229.756
775.050, 2456.711
776.337, 2186.709
777.624, 2216.752
778.910, 2138.840
780.196, 2134.977
781.482, 1942.162
782.768, 1969.395
784.054, 2126.682
785.339, 2572.020
786.625, 2271.410
787.910, 2958.857
789.195, 2930.363
790.479, 3217.924
791.764, 3463.547
793.048, 3181.227
794.332, 3538.971
795.616, 3648.775
796.900, 3252.646
798.183, 2814.586
799.467, 2589.588
800.750, 2160.660
802.033, 1626.801
803.316, 1437.016
804.598, 896.301
805.880, 819.660
807.163, 474.094
808.445, 156.607
809.726, 61.211
811.008, 91.113
812.289, 420.426
813.570, 244.857
814.851, 382.303
816.132, 668.732
817.413, 658.324
818.693, 746.799
819.973, 650.826
821.253, 757.738
822.533, 632.730
823.813, 636.832
825.092, 671.990
826.371, 699.230
827.650, 647.555
828.929, 531.900
830.208, 511.293
831.486, 744.643
832.764, 436.070
834.042, 411.467
835.320, 513.779
836.598, 321.074
837.875, 242.215
839.152, 252.207
840.429, 179.918
841.706, 19.715
842.983, 515.844
844.259, 525.650
845.536, 398.682
846.812, 776.912
848.088, 747.361
849.363, 1391.988
850.639, 1644.811
851.914, 1716.783
853.189, 2176.898
854.464, 2699.201
855.739, 3451.641
857.013, 3531.227
858.288, 3871.959
859.562, 4831.824
860.836, 5504.824
862.110, 5696.955
863.383, 6743.213
864.656, 6932.594
865.930, 8008.107
867.203, 8913.750
868.475, 9729.516
869.748, 10745.102
871.020, 11610.445
872.292, 12542.605
873.564, 13359.902
874.836, 14073.330
876.108, 14925.895
877.379, 15931.590
878.650, 16209.426
879.922, 16391.393
881.192, 15950.502
882.463, 15817.742
883.733, 14780.125
885.004, 14070.648
886.274, 13107.312
887.544, 12422.115
888.813, 11169.070
890.083, 10207.172
891.352, 9280.520
892.621, 8242.074
893.890, 7507.783
895.159, 6596.697
896.427, 5913.785
897.695, 5552.043
898.964, 4962.537
900.232, 4626.176
901.499, 4257.000
902.767, 3939.984
904.034, 3586.170
905.301, 3642.508
906.568, 3418.098
907.835, 3323.883
909.102, 3186.871
910.368, 2970.043
911.634, 3213.418
912.900, 3141.025
914.166, 3400.883
915.432, 3329.014
916.697, 3030.410
917.962, 3356.094
919.227, 3281.070
920.492, 3464.273
921.757, 3655.695
923.021, 3863.328
924.285, 3967.137
925.550, 3945.207
926.813, 4117.502
928.077, 4452.016
929.341, 4757.723
930.604, 5102.625
931.867, 5096.719
933.130, 5408.020
934.393, 6234.521
935.655, 6100.225
936.918, 7023.156
938.180, 7344.277
939.442, 7767.594
940.703, 8722.094
941.965, 9490.754
943.226, 10582.566
944.488, 11478.641
945.749, 13087.840
947.009, 14237.258
948.270, 15634.900
949.530, 17571.811
950.791, 19362.885
952.051, 20957.131
953.311, 22565.568
954.570, 24986.176
955.830, 26232.947
957.089, 27995.887
958.348, 29079.986
959.607, 30289.264
960.866, 30807.715
962.124, 31310.963
963.383, 31841.996
964.641, 31640.500
965.899, 31219.584
967.156, 30665.875
968.414, 29757.939
969.671, 29071.977
970.928, 27448.443
972.185, 26883.707
973.442, 25362.371
974.699, 24568.352
975.955, 23161.480
977.211, 21795.070
978.468, 21064.553
979.723, 19789.244
980.979, 18777.623
982.234, 18445.529
983.490, 16679.160
984.745, 16292.926
986.000, 15811.332
987.254, 14858.820
988.509, 14822.562
989.763, 14031.520
991.017, 13949.379
992.271, 13412.602
993.525, 13239.699
994.779, 13361.293
996.032, 13098.094
997.285, 13284.070
998.538, 12583.227
999.791, 13626.561
1001.044, 13080.066
1002.296, 13841.744
1003.548, 13363.590
1004.800, 13005.605
1006.052, 12883.783
1007.304, 12612.125
1008.555, 12770.637
1009.807, 12933.326
1011.058, 12856.191
1012.309, 13243.238
1013.559, 13290.457
1014.810, 13218.838
1016.060, 13735.387
1017.310, 13977.092
1018.560, 13926.965
1019.810, 14188.859
1021.060, 14421.180
1022.309, 14164.525
1023.558, 14651.031
1024.807, 14344.691
1026.056, 14615.504
1027.305, 14585.465
1028.553, 14805.582
1029.801, 14652.848
1031.049, 14224.266
1032.297, 14190.824
1033.545, 14009.129
1034.793, 13854.373
1036.040, 13720.363
1037.287, 13707.492
1038.534, 13364.748
1039.781, 13347.957
1041.027, 13084.473
1042.274, 12402.217
1043.520, 12640.691
1044.766, 12138.191
1046.012, 12061.479
1047.257, 11803.090
1048.503, 12418.086
1049.748, 11909.674
1050.993, 12326.615
1052.238, 12160.758
1053.483, 11848.676
1054.727, 11662.990
1055.971, 11649.082
1057.216, 11477.523
1058.459, 11437.273
1059.703, 11359.738
1060.947, 11317.799
1062.190, 11319.734
1063.433, 11226.910
1064.676, 10699.037
1065.919, 10402.457
1067.162, 10791.398
1068.404, 10018.021
1069.646, 9708.861
1070.888, 9761.385
1072.130, 9334.754
1073.372, 9047.199
1074.613, 8911.463
1075.855, 8146.381
1077.096, 7985.922
1078.337, 8258.586
1079.578, 7440.916
1080.818, 7370.379
1082.059, 6856.699
1083.299, 6810.445
1084.539, 6252.059
1085.779, 6040.094
1087.018, 5747.230
1088.258, 5550.078
1089.497, 5279.492
1090.736, 5147.312
1091.975, 4972.545
1093.213, 4867.812
1094.452, 4976.402
1095.690, 4691.238
1096.928, 4892.861
1098.166, 5496.062
1099.404, 5676.451
1100.642, 5591.295
1101.879, 5862.461
1103.116, 5862.654
1104.353, 6175.820
1105.590, 6376.797
1106.827, 6572.809
1108.063, 6978.266
1109.299, 7053.547
1110.536, 7543.820
1111.771, 7780.219
1113.007, 8233.477
1114.243, 8686.020
1115.478, 8516.102
1116.713, 8429.932
1117.948, 8139.754
1119.183, 8346.801
1120.418, 8425.035
1121.652, 8382.961
1122.886, 7882.328
1124.120, 7970.879
1125.354, 7822.385
1126.588, 7664.383
1127.821, 7705.361
1129.055, 7581.756
1130.288, 7074.285
1131.521, 6744.326
1132.753, 6067.816
1133.986, 5941.635
1135.218, 5915.773
1136.450, 5269.115
1137.682, 5422.012
1138.914, 4657.338
1140.146, 4223.574
1141.377, 4044.508
1142.609, 3717.170
1143.840, 3605.105
1145.071, 3549.367
1146.301, 3369.969
1147.532, 3073.309
1148.762, 2865.258
1149.992, 2619.266
1151.222, 2562.129
1152.452, 2621.033
1153.682, 2294.600
1154.911, 2543.406
1156.140, 2289.006
1157.369, 2124.080
1158.598, 2031.590
1159.827, 1933.473
1161.055, 1806.445
1162.284, 1623.738
1163.512, 1703.980
1164.740, 1797.701
1165.967, 1357.332
1167.195, 1777.883
1168.422, 1627.551
1169.650, 1717.898
1170.877, 1351.748
1172.103, 1234.996
1173.330, 1271.125
1174.557, 1251.137
1175.783, 1134.047
1177.009, 818.727
1178.235, 908.098
1179.461, 662.102
1180.686, 517.908
1181.912, 590.592
1183.137, 562.078
1184.362, 96.020
1185.587, 52.855
1186.811, 42.898
1188.036, 430.148
1189.260, 272.641
1190.484, 64.184
1191.708, 233.990
1192.932, 127.324
1194.155, 124.717
1195.378, 314.449
1196.602, 38.377
1197.825, 138.828
1199.047, 30.926
1200.270, 187.238
1201.492, 46.268
1202.715, 367.246
1203.937, 136.777
1205.159, 160.891
1206.380, 81.289
1207.602, 147.570
1208.823, 250.488
1210.044, 327.346
1211.265, 399.660
1212.486, 366.066
1213.707, 431.799
1214.927, 452.559
1216.147, 210.863
1217.367, 152.129
1218.587, 127.928
1219.807, 4.070
1221.027, 305.979
1222.246, 167.352
1223.465, 140.008
1224.684, 40.945
1225.903, 30.297
1227.121, 27.197
1228.340, 67.510
1229.558, 53.330
1230.776, 46.225
1231.994, 143.592
1233.212, 2.887
1234.429, 3.695
1235.646, 43.371
1236.864, 213.236
1238.081, 11.951
1239.297, 200.535
1240.514, 129.830
1241.730, 88.086
1242.947, 112.291
1244.163, 244.814
1245.378, 248.357
1246.594, 161.344
1247.810, 23.148
1249.025, 306.738
1250.240, 170.139
1251.455, 235.344
1252.670, 364.361
1253.885, 145.289
1255.099, 150.920
1256.313, 95.354
1257.527, 33.990
1258.741, 82.535
1259.955, 7.359
1261.168, 76.914
1262.382, 89.250
1263.595, 94.732
1264.808, 103.871
1266.021, 36.727
1267.233, 219.580
1268.446, 553.764
1269.658, 401.771
1270.870, 892.598
1272.082, 784.244
1273.294, 625.721
1274.505, 464.023
1275.716, 468.150
1276.928, 273.057
1278.139, 320.746
1279.349, 179.252
1280.560, 250.555
1281.770, 176.668
1282.981, 165.578
1284.191, 317.443
1285.401, 511.008
1286.610, 247.383
1287.820, 466.580
1289.029, 137.662
1290.239, 557.562
1291.448, 435.303
1292.656, 473.900
1293.865, 538.352
1295.073, 712.654
1296.282, 774.902
1297.490, 790.666
1298.698, 897.375
1299.906, 864.918
1301.113, 700.287
1302.320, 551.482
1303.528, 532.504
1304.735, 454.357
1305.942, 527.043
1307.148, 889.564
1308.355, 923.930
1309.561, 1069.975
1310.767, 1051.975
1311.973, 1192.654
1313.179, 763.564
1314.384, 1199.172
1315.590, 917.320
1316.795, 1229.793
1318.000, 1161.986
1319.205, 1408.172
1320.410, 1427.590
1321.614, 1106.135
1322.819, 1359.170
1324.023, 1094.953
1325.227, 1092.334
1326.431, 981.574
1327.634, 782.295
1328.838, 617.719
1330.041, 850.309
1331.244, 827.744
1332.447, 1164.354
1333.650, 987.752
1334.852, 701.258
1336.055, 490.213
1337.257, 549.307
1338.459, 299.713
1339.661, 487.117
1340.862, 180.217
1342.064, 245.307
1343.265, 226.268
1344.466, 469.191
1345.667, 438.453
1346.868, 798.348
1348.068, 492.686
1349.269, 508.705
1350.469, 743.119
1351.669, 664.314
1352.869, 684.191
1354.069, 759.945
1355.268, 336.547
1356.468, 691.793
1357.667, 644.361
1358.866, 430.221
1360.065, 705.299
1361.263, 388.027
1362.462, 586.328
1363.660, 665.779
1364.858, 415.834
1366.056, 427.811
1367.254, 507.443
1368.451, 638.285
1369.649, 481.770
1370.846, 444.217
1372.043, 234.314
1373.240, 400.953
1374.436, 333.324
1375.633, 385.551
1376.829, 348.602
1378.025, 273.238
1379.221, 309.643
1380.417, 437.549
1381.613, 248.486
1382.808, 513.740
1384.003, 334.256
1385.199, 403.295
1386.393, 244.807
1387.588, 367.168
1388.783, 551.166
1389.977, 345.779
1391.171, 274.365
1392.365, 377.486
1393.559, 498.852
1394.753, 289.307
1395.946, 379.705
1397.140, 120.902
1398.333, 337.471
1399.526, 435.939
1400.719, 282.066
1401.911, 238.436
1403.104, 280.322
1404.296, 103.537
1405.488, 600.891
1406.680, 20.803
1407.872, 180.955
1409.063, 350.283
1410.255, 12.010
1411.446, 388.930
1412.637, 189.975
1413.828, 224.273
1415.018, 254.055
1416.209, 136.961
1417.399, 174.461
1418.589, 455.467
1419.779, 183.977
1420.969, 398.504
1422.159, 72.146
1423.348, 364.918
1424.537, 179.605
1425.726, 42.871
1426.915, 3.795
1428.104, 134.289
1429.293, 215.705
1430.481, 0.000
##END=



