##NAMES=Kornerupine
##RRUFFID=R050214
##IDEAL CHEMISTRY=(Mg,Fe^2+^,Al,[box])_10_(Si,Al,B)_5_O_21_(OH,F)_2_
##LOCALITY=Sri Lanka
##OWNER=RRUFF
##SOURCE=Jibamitra Ganguly
##DESCRIPTION=Water-worn single crystal fragment
##STATUS=The identification of this mineral has been confirmed by X-ray diffraction and chemical analysis
##URL=rruff.info/R050214
##MEASURED CHEMISTRY=(Mg_3.63_[box]_0.21_Fe^2+^_0.14_Na_0.02_)_4_Al_6.00_(Si_2.44_Al_1.97_B_0.59_)_5_O_21_(OH) ;   B and Li not measured; B estimated by charge balance
##PIN_ID=L00317
##ORIENTATION=Laser parallel to a* (1 0 0). Fiducial mark perpendicular to laser is parallel to b [0 1 0]
97.554, 0.000
98.947, 281.258
100.340, 1.132
101.732, 69.223
103.124, 73.402
104.516, 156.380
105.908, 170.515
107.300, 1.040
108.691, 104.813
110.082, 3.045
111.473, 54.014
112.864, 54.710
114.254, 369.514
115.644, 438.586
117.034, 738.760
118.424, 286.896
119.813, 284.867
121.203, 223.551
122.592, 122.157
123.981, 310.060
125.369, 10.687
126.758, 78.869
128.146, 23.778
129.534, 249.513
130.922, 59.930
132.309, 181.414
133.696, 43.910
135.083, 135.369
136.470, 141.756
137.857, 329.055
139.243, 260.240
140.630, 194.264
142.016, 70.057
143.401, 178.570
144.787, 51.756
146.172, 175.584
147.557, 73.980
148.942, 102.967
150.327, 11.396
151.711, 19.291
153.096, 159.328
154.480, 140.443
155.863, 69.043
157.247, 306.105
158.630, 278.623
160.013, 460.580
161.396, 550.967
162.779, 682.766
164.161, 557.971
165.544, 765.570
166.926, 622.551
168.308, 765.910
169.689, 606.648
171.070, 817.773
172.452, 840.322
173.833, 814.322
175.213, 831.805
176.594, 876.598
177.974, 902.262
179.354, 1014.213
180.734, 905.537
182.114, 1024.914
183.493, 1010.318
184.872, 1171.908
186.251, 1037.580
187.630, 993.387
189.008, 1026.340
190.387, 1056.445
191.765, 959.715
193.143, 991.156
194.520, 840.766
195.898, 1146.527
197.275, 951.467
198.652, 1157.588
200.029, 1122.895
201.405, 914.387
202.782, 979.066
204.158, 1230.932
205.534, 1396.979
206.909, 1324.186
208.285, 1307.572
209.660, 1460.145
211.035, 1256.900
212.410, 1442.840
213.784, 1377.955
215.159, 1631.250
216.533, 1618.719
217.907, 1428.363
219.281, 1478.178
220.654, 1388.160
222.027, 1457.311
223.400, 1258.621
224.773, 1198.096
226.146, 1103.729
227.518, 934.520
228.891, 632.461
230.263, 784.557
231.634, 793.801
233.006, 1032.191
234.377, 396.729
235.748, 440.408
237.119, 520.256
238.490, 819.359
239.860, 582.738
241.231, 891.471
242.601, 815.623
243.970, 972.389
245.340, 1070.867
246.709, 971.049
248.079, 1481.033
249.448, 1297.748
250.816, 1489.164
252.185, 1574.158
253.553, 1765.656
254.921, 1924.260
256.289, 2095.447
257.657, 2252.527
259.024, 2290.674
260.391, 2411.926
261.758, 2119.217
263.125, 2235.404
264.492, 2205.016
265.858, 2147.059
267.224, 2230.553
268.590, 2089.830
269.956, 1954.746
271.321, 1809.342
272.687, 1554.225
274.052, 1265.428
275.416, 1466.838
276.781, 1259.570
278.146, 1046.469
279.510, 1170.623
280.874, 999.014
282.237, 1509.645
283.601, 1355.498
284.964, 1611.564
286.327, 2104.836
287.690, 2288.277
289.053, 2758.865
290.416, 3249.461
291.778, 3175.863
293.140, 3379.652
294.502, 3122.939
295.863, 3109.387
297.225, 2716.992
298.586, 2539.748
299.947, 2408.650
301.308, 2060.695
302.668, 1920.879
304.029, 2254.195
305.389, 2233.643
306.749, 2199.217
308.108, 2764.908
309.468, 2771.723
310.827, 3062.652
312.186, 3305.873
313.545, 3806.725
314.903, 3913.914
316.262, 4053.148
317.620, 4495.613
318.978, 4720.182
320.336, 5052.846
321.693, 5295.604
323.051, 5624.455
324.408, 5428.398
325.765, 5941.426
327.121, 5684.537
328.478, 5390.738
329.834, 5473.018
331.190, 5268.379
332.546, 4926.814
333.902, 4558.328
335.257, 3834.914
336.612, 3648.574
337.967, 3049.301
339.322, 2608.096
340.677, 2474.951
342.031, 1976.873
343.385, 1850.852
344.739, 1652.889
346.093, 1346.980
347.446, 1199.131
348.799, 1294.336
350.153, 1419.598
351.505, 1463.914
352.858, 1414.283
354.210, 1495.707
355.563, 1674.184
356.915, 1779.707
358.267, 2259.287
359.618, 2395.914
360.969, 2833.594
362.321, 3141.320
363.672, 3481.094
365.022, 3881.914
366.373, 4054.779
367.723, 4419.689
369.073, 4728.641
370.423, 4974.635
371.773, 4985.670
373.122, 5174.629
374.471, 5633.627
375.821, 5459.531
377.169, 5987.949
378.518, 5695.053
379.866, 6121.521
381.215, 6625.168
382.563, 6813.367
383.910, 7362.336
385.258, 7541.986
386.605, 8483.910
387.952, 8609.182
389.299, 9709.520
390.646, 10300.121
391.992, 11087.785
393.339, 11848.746
394.685, 12560.559
396.031, 13471.602
397.376, 13497.770
398.722, 13492.395
400.067, 13156.707
401.412, 12838.246
402.757, 12629.951
404.101, 11507.586
405.446, 10441.396
406.790, 9692.191
408.134, 8855.840
409.478, 8303.844
410.821, 7513.162
412.165, 6812.527
413.508, 6684.570
414.851, 6224.781
416.193, 5803.637
417.536, 5719.555
418.878, 5776.811
420.220, 5899.262
421.562, 5868.814
422.904, 6024.744
424.245, 5965.766
425.586, 6002.785
426.927, 6140.156
428.268, 5716.186
429.609, 5556.215
430.949, 5543.242
432.289, 5318.260
433.629, 4638.270
434.969, 4566.275
436.309, 4117.268
437.648, 4050.248
438.987, 3595.754
440.326, 3406.447
441.665, 3220.525
443.003, 3301.412
444.342, 3176.895
445.680, 2988.189
447.018, 2967.045
448.355, 2852.881
449.693, 3006.691
451.030, 2956.480
452.367, 3098.422
453.704, 3191.365
455.041, 3400.701
456.377, 3447.389
457.713, 3576.047
459.049, 3764.676
460.385, 4020.271
461.721, 4158.836
463.056, 4066.367
464.391, 4407.863
465.726, 4456.326
467.061, 4251.758
468.395, 4350.148
469.730, 4366.500
471.064, 4002.818
472.398, 4037.096
473.731, 3445.340
475.065, 3575.551
476.398, 3147.719
477.731, 3104.850
479.064, 2733.938
480.397, 2787.984
481.729, 2452.990
483.062, 1857.949
484.394, 1846.863
485.725, 1580.738
487.057, 1435.562
488.389, 1306.348
489.720, 968.082
491.051, 1200.773
492.382, 971.416
493.712, 1158.008
495.043, 1114.557
496.373, 843.055
497.703, 915.504
499.032, 1152.906
500.362, 1179.258
501.691, 1394.562
503.020, 1483.818
504.349, 1953.023
505.678, 2339.197
507.007, 2695.385
508.335, 3060.529
509.663, 3325.672
510.991, 4023.822
512.319, 4261.945
513.646, 4681.064
514.973, 4502.193
516.300, 4951.318
517.627, 4551.467
518.954, 3733.586
520.280, 3584.666
521.607, 2941.748
522.933, 2481.816
524.259, 1961.830
525.584, 1520.797
526.910, 1227.707
528.235, 981.559
529.560, 784.354
530.885, 565.787
532.209, 178.781
533.534, 238.389
534.858, 76.930
536.182, 9.635
537.506, 52.652
538.829, 100.824
540.152, 86.107
541.476, 18.771
542.799, 118.926
544.121, 95.955
545.444, 305.625
546.766, 293.602
548.088, 340.887
549.410, 407.500
550.732, 375.480
552.053, 251.811
553.375, 503.422
554.696, 554.453
556.017, 332.930
557.337, 403.734
558.658, 382.902
559.978, 434.424
561.298, 246.328
562.618, 293.512
563.938, 329.004
565.257, 58.818
566.576, 232.814
567.895, 107.918
569.214, 48.549
570.533, 46.057
571.851, 51.441
573.170, 246.705
574.488, 74.902
575.805, 253.992
577.123, 61.020
578.440, 15.936
579.758, 536.717
581.075, 267.445
582.391, 629.121
583.708, 422.744
585.024, 254.318
586.341, 431.836
587.657, 722.307
588.972, 618.729
590.288, 410.104
591.603, 358.430
592.918, 388.711
594.233, 349.941
595.548, 307.289
596.863, 215.271
598.177, 200.359
599.491, 242.387
600.805, 182.369
602.119, 202.291
603.432, 210.141
604.746, 378.980
606.059, 275.756
607.372, 403.492
608.685, 535.184
609.997, 444.836
611.309, 650.449
612.621, 638.992
613.933, 739.555
615.245, 734.049
616.557, 875.504
617.868, 989.924
619.179, 945.303
620.490, 836.650
621.801, 1295.961
623.111, 1106.236
624.421, 1410.479
625.731, 1082.686
627.041, 1758.859
628.351, 1356.000
629.660, 1400.111
630.970, 1829.191
632.279, 1665.242
633.588, 1681.260
634.896, 1767.250
636.205, 1845.400
637.513, 2245.145
638.821, 2258.053
640.129, 2607.934
641.437, 2976.789
642.744, 2979.623
644.051, 3248.430
645.358, 3583.219
646.665, 3991.980
647.972, 4069.727
649.278, 4527.447
650.584, 4622.154
651.890, 5307.840
653.196, 5050.510
654.502, 5302.166
655.807, 4984.809
657.113, 5151.434
658.418, 5376.318
659.722, 4962.918
661.027, 4825.545
662.331, 4411.424
663.636, 4365.375
664.940, 3647.852
666.244, 3752.383
667.547, 3117.832
668.851, 2965.391
670.154, 2438.543
671.457, 2168.682
672.760, 1924.406
674.062, 1707.902
675.365, 1465.605
676.667, 1400.764
677.969, 1275.535
679.271, 1135.068
680.572, 968.828
681.874, 1414.752
683.175, 1390.209
684.476, 1327.660
685.777, 1722.107
687.077, 1650.555
688.378, 2313.000
689.678, 2643.562
690.978, 3020.121
692.278, 3021.816
693.577, 4569.037
694.877, 4843.613
696.176, 6138.863
697.475, 6698.973
698.774, 7777.570
700.072, 8571.438
701.371, 9282.664
702.669, 9423.656
703.967, 10255.340
705.265, 10647.000
706.562, 9906.441
707.860, 9201.859
709.157, 8862.023
710.454, 7370.385
711.751, 6858.551
713.047, 5641.645
714.344, 4890.326
715.640, 3779.365
716.936, 3019.227
718.232, 2653.965
719.527, 2028.824
720.823, 1397.551
722.118, 1259.336
723.413, 1015.314
724.708, 764.977
726.002, 830.357
727.297, 572.730
728.591, 1111.459
729.885, 1393.049
731.179, 1384.023
732.472, 1933.963
733.766, 2311.598
735.059, 3025.066
736.352, 3940.900
737.645, 4644.510
738.937, 5849.496
740.230, 6765.861
741.522, 7859.393
742.814, 8793.578
744.106, 10026.879
745.397, 10867.266
746.689, 11684.734
747.980, 13139.289
749.271, 13697.928
750.562, 14898.652
751.853, 14859.463
753.143, 15336.820
754.433, 14960.062
755.723, 14034.994
757.013, 13812.188
758.303, 12335.863
759.592, 11532.797
760.881, 10028.236
762.170, 9254.773
763.459, 7781.406
764.748, 6488.131
766.036, 5933.953
767.325, 4671.877
768.613, 4181.895
769.901, 3439.018
771.188, 2851.238
772.476, 2675.555
773.763, 2015.980
775.050, 2186.508
776.337, 1932.135
777.624, 2086.867
778.910, 1884.707
780.196, 2091.652
781.482, 2057.701
782.768, 1993.861
784.054, 2421.127
785.339, 3161.504
786.625, 2792.990
787.910, 3459.586
789.195, 3319.297
790.479, 3930.117
791.764, 4077.051
793.048, 4084.123
794.332, 4551.311
795.616, 4216.682
796.900, 4116.170
798.183, 3760.801
799.467, 3614.547
800.750, 3180.508
802.033, 2441.625
803.316, 2591.924
804.598, 1633.373
805.880, 2033.029
807.163, 1103.824
808.445, 589.824
809.726, 462.973
811.008, 432.275
812.289, 6.244
813.570, 140.369
814.851, 18.115
816.132, 140.984
817.413, 447.988
818.693, 45.994
819.973, 364.859
821.253, 414.697
822.533, 199.525
823.813, 357.275
825.092, 433.996
826.371, 347.709
827.650, 516.391
828.929, 208.090
830.208, 123.711
831.486, 406.232
832.764, 294.732
834.042, 10.166
835.320, 23.475
836.598, 224.344
837.875, 264.363
839.152, 256.521
840.429, 707.820
841.706, 605.266
842.983, 737.877
844.259, 1017.650
845.536, 839.564
846.812, 1420.643
848.088, 1301.908
849.363, 2105.342
850.639, 2288.953
851.914, 2343.828
853.189, 2778.891
854.464, 3628.172
855.739, 4446.707
857.013, 4702.514
858.288, 4962.582
859.562, 5948.936
860.836, 6676.590
862.110, 7083.537
863.383, 8727.781
864.656, 9471.352
865.930, 10721.254
867.203, 11933.441
868.475, 13445.000
869.748, 14352.852
871.020, 16259.012
872.292, 17523.428
873.564, 18822.135
874.836, 19897.129
876.108, 20635.328
877.379, 22074.787
878.650, 22694.416
879.922, 22812.275
881.192, 22483.311
882.463, 22219.596
883.733, 21148.047
885.004, 20112.666
886.274, 18887.428
887.544, 17619.088
888.813, 16237.512
890.083, 14990.797
891.352, 13948.268
892.621, 12839.951
893.890, 11675.787
895.159, 10750.783
896.427, 9800.938
897.695, 9067.113
898.964, 8672.727
900.232, 7903.348
901.499, 7474.125
902.767, 7155.047
904.034, 6582.111
905.301, 6333.318
906.568, 5776.699
907.835, 5690.223
909.102, 5147.900
910.368, 5031.725
911.634, 5209.707
912.900, 4707.852
914.166, 5046.137
915.432, 4524.568
916.697, 4297.145
917.962, 4781.871
919.227, 4512.750
920.492, 4673.795
921.757, 4614.990
923.021, 4779.328
924.285, 4894.812
925.550, 4971.432
926.813, 4889.189
928.077, 5194.080
929.341, 5318.104
930.604, 5625.266
931.867, 5514.582
933.130, 5855.033
934.393, 6627.623
935.655, 6321.354
936.918, 7156.252
938.180, 7185.291
939.442, 7610.463
940.703, 8575.779
941.965, 8699.219
943.226, 9011.801
944.488, 10307.055
945.749, 11265.910
947.009, 12040.621
948.270, 13150.730
949.530, 14650.484
950.791, 16102.852
952.051, 17196.889
953.311, 18507.861
954.570, 20786.359
955.830, 21786.791
957.089, 23437.938
958.348, 24623.443
959.607, 26049.395
960.866, 27071.064
962.124, 27849.910
963.383, 29033.863
964.641, 29158.406
965.899, 29962.842
967.156, 29867.500
968.414, 29422.941
969.671, 29431.744
970.928, 28770.975
972.185, 28269.396
973.442, 27305.998
974.699, 26939.594
975.955, 25591.713
977.211, 24612.955
978.468, 24164.711
979.723, 22907.805
980.979, 22057.787
982.234, 22381.414
983.490, 20481.535
984.745, 20863.166
986.000, 20549.484
987.254, 19892.740
988.509, 20543.766
989.763, 20532.697
991.017, 20709.760
992.271, 21089.348
993.525, 21497.078
994.779, 22669.107
996.032, 23065.535
997.285, 24153.043
998.538, 24126.648
999.791, 26362.350
1001.044, 26433.693
1002.296, 27929.018
1003.548, 28555.277
1004.800, 29263.363
1006.052, 30493.293
1007.304, 30710.553
1008.555, 31399.889
1009.807, 31798.182
1011.058, 31918.688
1012.309, 32030.277
1013.559, 31865.953
1014.810, 31209.680
1016.060, 31320.555
1017.310, 31135.410
1018.560, 30255.426
1019.810, 30304.422
1021.060, 29997.627
1022.309, 29142.777
1023.558, 29101.145
1024.807, 27848.742
1026.056, 27360.518
1027.305, 26430.887
1028.553, 26054.301
1029.801, 24704.439
1031.049, 23345.258
1032.297, 22261.623
1033.545, 20903.979
1034.793, 19606.652
1036.040, 18366.369
1037.287, 17128.037
1038.534, 15842.770
1039.781, 14956.830
1041.027, 13160.406
1042.274, 12066.832
1043.520, 11604.664
1044.766, 10150.398
1046.012, 8978.348
1047.257, 8111.688
1048.503, 7898.645
1049.748, 6583.141
1050.993, 6386.264
1052.238, 5714.990
1053.483, 5016.086
1054.727, 4492.539
1055.971, 4249.086
1057.216, 3649.406
1058.459, 3424.676
1059.703, 2912.873
1060.947, 2856.047
1062.190, 2685.889
1063.433, 2288.191
1064.676, 2100.689
1065.919, 1762.117
1067.162, 2110.973
1068.404, 1611.639
1069.646, 1436.701
1070.888, 1698.498
1072.130, 958.127
1073.372, 1243.779
1074.613, 1407.621
1075.855, 820.262
1077.096, 664.623
1078.337, 968.859
1079.578, 771.691
1080.818, 888.088
1082.059, 590.535
1083.299, 665.977
1084.539, 585.125
1085.779, 498.967
1087.018, 393.586
1088.258, 408.311
1089.497, 323.984
1090.736, 293.881
1091.975, 175.982
1093.213, 92.680
1094.452, 355.488
1095.690, 301.322
1096.928, 72.385
1098.166, 105.434
1099.404, 192.994
1100.642, 373.059
1101.879, 155.424
1103.116, 252.373
1104.353, 118.910
1105.590, 339.969
1106.827, 52.916
1108.063, 328.197
1109.299, 88.881
1110.536, 104.549
1111.771, 192.746
1113.007, 38.322
1114.243, 15.020
1115.478, 104.117
1116.713, 14.844
1117.948, 246.627
1119.183, 83.668
1120.418, 223.439
1121.652, 931.326
1122.886, 1026.734
1124.120, 1129.332
1125.354, 399.682
1126.588, 612.840
1127.821, 90.191
1129.055, 504.828
1130.288, 523.219
1131.521, 469.943
1132.753, 21.980
1133.986, 122.049
1135.218, 418.977
1136.450, 204.578
1137.682, 476.814
1138.914, 37.031
1140.146, 27.906
1141.377, 38.807
1142.609, 8.250
1143.840, 201.254
1145.071, 117.033
1146.301, 160.465
1147.532, 160.418
1148.762, 7.740
1149.992, 131.539
1151.222, 63.500
1152.452, 234.799
1153.682, 79.955
1154.911, 223.031
1156.140, 254.359
1157.369, 102.664
1158.598, 102.158
1159.827, 269.273
1161.055, 68.678
1162.284, 315.396
1163.512, 189.230
1164.740, 252.254
1165.967, 188.326
1167.195, 367.480
1168.422, 228.361
1169.650, 772.301
1170.877, 31.508
1172.103, 207.322
1173.330, 108.682
1174.557, 319.715
1175.783, 344.490
1177.009, 75.150
1178.235, 275.387
1179.461, 105.725
1180.686, 95.670
1181.912, 406.043
1183.137, 1105.264
1184.362, 229.701
1185.587, 175.605
1186.811, 336.307
1188.036, 13.822
1189.260, 104.982
1190.484, 148.959
1191.708, 157.389
1192.932, 117.141
1194.155, 142.027
1195.378, 92.949
1196.602, 343.836
1197.825, 125.758
1199.047, 327.359
1200.270, 291.770
1201.492, 402.605
1202.715, 67.684
1203.937, 452.316
1205.159, 229.516
1206.380, 500.188
1207.602, 149.047
1208.823, 128.410
1210.044, 317.613
1211.265, 306.027
1212.486, 243.969
1213.707, 175.770
1214.927, 186.410
1216.147, 75.969
1217.367, 185.305
1218.587, 247.516
1219.807, 248.602
1221.027, 415.539
1222.246, 465.707
1223.465, 356.996
1224.684, 566.508
1225.903, 317.887
1227.121, 138.117
1228.340, 355.191
1229.558, 358.129
1230.776, 236.938
1231.994, 27.602
1233.212, 272.094
1234.429, 453.582
1235.646, 171.746
1236.864, 724.742
1238.081, 245.617
1239.297, 233.305
1240.514, 385.301
1241.730, 382.691
1242.947, 306.176
1244.163, 213.219
1245.378, 751.598
1246.594, 520.340
1247.810, 203.387
1249.025, 685.465
1250.240, 483.988
1251.455, 198.547
1252.670, 315.359
1253.885, 344.773
1255.099, 242.715
1256.313, 52.152
1257.527, 17.012
1258.741, 448.492
1259.955, 4.664
1261.168, 219.523
1262.382, 297.402
1263.595, 208.184
1264.808, 144.422
1266.021, 422.652
1267.233, 122.742
1268.446, 352.422
1269.658, 37.043
1270.870, 358.324
1272.082, 61.539
1273.294, 153.598
1274.505, 137.500
1275.716, 343.234
1276.928, 75.816
1278.139, 413.242
1279.349, 249.328
1280.560, 258.441
1281.770, 308.402
1282.981, 59.012
1284.191, 288.672
1285.401, 204.141
1286.610, 98.039
1287.820, 262.754
1289.029, 158.512
1290.239, 459.055
1291.448, 190.844
1292.656, 81.500
1293.865, 186.004
1295.073, 381.816
1296.282, 29.398
1297.490, 28.379
1298.698, 135.277
1299.906, 133.270
1301.113, 295.879
1302.320, 48.648
1303.528, 446.805
1304.735, 167.992
1305.942, 165.027
1307.148, 442.910
1308.355, 77.676
1309.561, 407.238
1310.767, 88.734
1311.973, 191.016
1313.179, 123.758
1314.384, 625.199
1315.590, 223.137
1316.795, 246.793
1318.000, 12.852
1319.205, 361.262
1320.410, 205.707
1321.614, 149.969
1322.819, 362.570
1324.023, 249.359
1325.227, 296.531
1326.431, 262.633
1327.634, 271.949
1328.838, 205.953
1330.041, 288.531
1331.244, 301.980
1332.447, 232.027
1333.650, 195.301
1334.852, 139.199
1336.055, 70.121
1337.257, 122.227
1338.459, 219.055
1339.661, 410.434
1340.862, 158.133
1342.064, 38.234
1343.265, 153.652
1344.466, 51.414
1345.667, 250.773
1346.868, 410.715
1348.068, 218.523
1349.269, 104.531
1350.469, 531.555
1351.669, 305.637
1352.869, 461.730
1354.069, 541.168
1355.268, 10.367
1356.468, 615.234
1357.667, 545.051
1358.866, 130.668
1360.065, 587.547
1361.263, 371.727
1362.462, 443.500
1363.660, 697.871
1364.858, 405.023
1366.056, 385.363
1367.254, 574.512
1368.451, 663.570
1369.649, 646.883
1370.846, 518.703
1372.043, 343.520
1373.240, 345.918
1374.436, 447.004
1375.633, 472.793
1376.829, 486.211
1378.025, 62.789
1379.221, 626.012
1380.417, 472.980
1381.613, 261.859
1382.808, 583.820
1384.003, 605.305
1385.199, 470.789
1386.393, 316.801
1387.588, 419.672
1388.783, 456.020
1389.977, 536.164
1391.171, 378.086
1392.365, 317.812
1393.559, 597.352
1394.753, 304.426
1395.946, 548.137
1397.140, 241.523
1398.333, 303.707
1399.526, 380.195
1400.719, 414.680
1401.911, 244.293
1403.104, 241.125
1404.296, 360.770
1405.488, 508.383
1406.680, 238.387
1407.872, 474.125
1409.063, 549.840
1410.255, 74.785
1411.446, 534.609
1412.637, 267.023
1413.828, 510.305
1415.018, 481.746
1416.209, 425.914
1417.399, 195.773
1418.589, 609.059
1419.779, 353.137
1420.969, 538.227
1422.159, 229.008
1423.348, 502.848
1424.537, 464.152
1425.726, 250.914
1426.915, 289.605
1428.104, 494.246
1429.293, 357.266
1430.481, 115.016
1431.669, 486.723
1432.857, 359.152
1434.045, 341.477
1435.233, 629.688
1436.420, 820.770
1437.608, 627.672
1438.795, 448.340
1439.982, 618.227
1441.169, 598.730
1442.355, 478.215
1443.542, 748.637
1444.728, 433.117
1445.914, 593.523
1447.100, 750.887
1448.286, 561.188
1449.472, 368.477
1450.657, 910.023
1451.842, 608.781
1453.027, 711.500
1454.212, 970.480
1455.397, 255.188
1456.581, 577.051
1457.766, 733.941
1458.950, 443.895
1460.134, 853.043
1461.318, 295.340
1462.501, 562.871
1463.685, 622.504
1464.868, 273.320
1466.051, 678.266
1467.234, 129.297
1468.417, 292.441
1469.600, 269.746
1470.782, 404.363
1471.965, 448.312
1473.147, 517.355
1474.329, 516.812
1475.510, 192.641
1476.692, 133.855
1477.873, 408.500
1479.055, 84.566
1480.236, 554.074
1481.416, 71.055
1482.597, 332.566
1483.778, 134.680
1484.958, 63.488
1486.138, 105.090
1487.318, 0.629
1488.498, 223.141
1489.678, 71.859
1490.857, 65.973
1492.037, 370.770
1493.216, 294.633
1494.395, 190.902
1495.574, 412.664
1496.752, 3.043
1497.931, 298.934
1499.109, 0.000
##END=



