##NAMES=Kornerupine
##RRUFFID=R050214
##IDEAL CHEMISTRY=(Mg,Fe^2+^,Al,[box])_10_(Si,Al,B)_5_O_21_(OH,F)_2_
##LOCALITY=Sri Lanka
##OWNER=RRUFF
##SOURCE=Jibamitra Ganguly
##DESCRIPTION=Water-worn single crystal fragment
##STATUS=The identification of this mineral has been confirmed by X-ray diffraction and chemical analysis
##URL=rruff.info/R050214
##MEASURED CHEMISTRY=(Mg_3.63_[box]_0.21_Fe^2+^_0.14_Na_0.02_)_4_Al_6.00_(Si_2.44_Al_1.97_B_0.59_)_5_O_21_(OH) ;   B and Li not measured; B estimated by charge balance
##PIN_ID=L00317
##ORIENTATION=Laser parallel to a* (1 0 0). Fiducial mark perpendicular to laser is parallel to b [0 1 0]
91.981, 0.000
93.375, 112.848
94.768, 13.994
96.161, 183.247
97.554, 85.535
98.947, 446.850
100.340, 125.192
101.732, 271.584
103.124, 446.060
104.516, 727.597
105.908, 859.529
107.300, 1048.705
108.691, 1182.322
110.082, 1073.196
111.473, 1150.402
112.864, 1370.312
114.254, 1942.481
115.644, 2278.574
117.034, 2462.720
118.424, 1983.012
119.813, 2224.113
121.203, 2117.971
122.592, 2028.735
123.981, 1781.679
125.369, 1617.030
126.758, 1733.985
128.146, 1759.695
129.534, 1975.283
130.922, 1966.853
132.309, 2213.486
133.696, 2052.251
135.083, 2542.174
136.470, 2530.264
137.857, 3065.539
139.243, 2859.020
140.630, 3084.574
142.016, 3101.078
143.401, 3435.291
144.787, 3602.923
146.172, 3758.158
147.557, 3798.758
148.942, 3922.391
150.327, 4243.729
151.711, 4401.755
153.096, 5246.451
154.480, 5365.818
155.863, 5997.881
157.247, 6723.671
158.630, 6919.188
160.013, 7276.391
161.396, 7049.236
162.779, 6380.695
164.161, 5280.752
165.544, 4143.391
166.926, 3031.600
168.308, 2377.365
169.689, 1714.673
171.070, 1637.511
172.452, 1184.863
173.833, 999.723
175.213, 785.974
176.594, 651.748
177.974, 523.844
179.354, 504.568
180.734, 398.531
182.114, 216.752
183.493, 377.240
184.872, 256.006
186.251, 230.055
187.630, 18.393
189.008, 53.984
190.387, 249.076
191.765, 370.881
193.143, 296.408
194.520, 549.654
195.898, 502.623
197.275, 541.316
198.652, 378.734
200.029, 280.881
201.405, 323.777
202.782, 159.436
204.158, 176.145
205.534, 523.975
206.909, 475.062
208.285, 876.424
209.660, 1131.066
211.035, 1189.998
212.410, 1522.225
213.784, 1870.768
215.159, 2305.779
216.533, 2806.500
217.907, 3157.982
219.281, 3722.357
220.654, 4243.510
222.027, 4957.322
223.400, 5644.527
224.773, 6307.787
226.146, 7057.984
227.518, 7705.008
228.891, 8392.977
230.263, 9153.012
231.634, 9653.262
233.006, 10076.740
234.377, 10640.453
235.748, 11236.387
237.119, 11401.543
238.490, 12334.924
239.860, 12882.516
241.231, 13746.324
242.601, 14558.336
243.970, 15983.555
245.340, 17579.975
246.709, 19315.596
248.079, 22265.408
249.448, 24827.412
250.816, 28491.600
252.185, 32535.971
253.553, 36172.527
254.921, 39742.266
256.289, 41986.172
257.657, 42155.750
259.024, 40085.793
260.391, 36354.117
261.758, 31218.094
263.125, 26740.799
264.492, 22655.145
265.858, 18863.045
267.224, 16952.447
268.590, 14116.297
269.956, 12880.562
271.321, 11611.201
272.687, 10248.176
274.052, 9454.461
275.416, 9326.039
276.781, 8756.887
278.146, 8449.000
279.510, 8800.363
280.874, 8785.973
282.237, 9607.803
283.601, 10051.805
284.964, 10805.949
286.327, 12487.234
287.690, 13612.666
289.053, 15164.250
290.416, 17202.984
291.778, 18305.873
293.140, 19376.920
294.502, 19807.127
295.863, 20082.477
297.225, 19490.996
298.586, 18885.660
299.947, 18125.488
301.308, 17291.461
302.668, 16517.596
304.029, 16067.879
305.389, 15626.305
306.749, 15315.709
308.108, 15171.645
309.468, 15107.391
310.827, 15126.145
312.186, 15374.008
313.545, 15933.152
314.903, 16311.695
316.262, 16920.611
317.620, 17927.924
318.978, 18736.574
320.336, 19729.641
321.693, 20569.104
323.051, 22027.971
324.408, 22264.789
325.765, 22956.801
327.121, 22680.768
328.478, 22755.055
329.834, 22381.650
331.190, 21972.543
332.546, 20346.682
333.902, 20328.396
335.257, 17632.916
336.612, 16233.852
337.967, 14586.896
339.322, 13308.105
340.677, 12071.598
342.031, 10747.014
343.385, 9854.035
344.739, 8986.818
346.093, 8397.287
347.446, 8045.316
348.799, 8119.225
350.153, 8486.578
351.505, 8965.738
352.858, 9672.738
354.210, 10902.188
355.563, 12395.975
356.915, 14502.082
358.267, 16714.494
359.618, 19062.340
360.969, 21225.682
362.321, 22504.355
363.672, 23340.104
365.022, 23234.520
366.373, 23216.826
367.723, 22041.008
369.073, 20869.275
370.423, 20081.621
371.773, 18754.059
373.122, 18394.578
374.471, 17978.168
375.821, 17008.850
377.169, 17135.598
378.518, 16130.418
379.866, 16137.312
381.215, 16267.270
382.563, 15962.289
383.910, 15740.363
385.258, 16316.492
386.605, 16755.668
387.952, 16633.902
389.299, 17422.178
390.646, 17215.506
391.992, 17630.887
393.339, 17968.311
394.685, 17840.789
396.031, 17950.314
397.376, 17056.877
398.722, 16841.486
400.067, 15709.141
401.412, 14443.828
402.757, 13705.561
404.101, 12058.332
405.446, 10646.135
406.790, 9412.969
408.134, 8472.840
409.478, 7610.742
410.821, 6672.672
412.165, 5711.633
413.508, 5428.621
414.851, 4894.631
416.193, 4368.668
417.536, 4215.730
418.878, 4106.812
420.220, 3856.963
421.562, 3696.455
422.904, 3509.473
424.245, 3326.818
425.586, 3195.180
426.927, 3042.707
428.268, 2949.164
429.609, 2835.707
430.949, 2752.291
432.289, 2758.914
433.629, 2551.572
434.969, 2455.268
436.309, 2072.994
437.648, 2289.754
438.987, 1911.539
440.326, 1823.355
441.665, 1732.195
443.003, 1883.059
444.342, 1677.945
445.680, 1811.852
447.018, 1656.781
448.355, 1538.727
449.693, 1655.689
451.030, 1679.666
452.367, 2008.660
453.704, 1937.666
455.041, 2165.025
456.377, 2390.885
457.713, 2551.754
459.049, 2881.803
460.385, 3196.855
461.721, 3469.914
463.056, 3575.367
464.391, 3420.434
465.726, 3797.307
467.061, 3759.359
468.395, 3425.305
469.730, 3438.914
471.064, 3085.539
472.398, 3096.283
473.731, 2745.330
475.065, 2536.873
476.398, 2398.189
477.731, 2220.891
479.064, 1876.652
480.397, 1778.963
481.729, 1462.227
483.062, 1142.240
484.394, 1053.674
485.725, 1008.578
487.057, 851.211
488.389, 641.682
489.720, 522.779
491.051, 381.209
492.382, 236.797
493.712, 132.920
495.043, 2.613
496.373, 109.131
497.703, 184.174
499.032, 211.473
500.362, 226.150
501.691, 203.736
503.020, 351.576
504.349, 358.744
505.678, 253.236
507.007, 113.969
508.335, 234.902
509.663, 78.057
510.991, 9.641
512.319, 342.207
513.646, 464.113
514.973, 412.389
516.300, 757.051
517.627, 602.758
518.954, 516.531
520.280, 641.365
521.607, 549.271
522.933, 544.223
524.259, 431.186
525.584, 491.145
526.910, 624.055
528.235, 564.893
529.560, 639.658
530.885, 708.336
532.209, 690.920
533.534, 1059.412
534.858, 1142.812
536.182, 1265.117
537.506, 1492.324
538.829, 1534.439
540.152, 1751.455
541.476, 1886.375
542.799, 1698.199
544.121, 1810.922
545.444, 1898.545
546.766, 1781.068
548.088, 1713.494
549.410, 1697.818
550.732, 1684.041
552.053, 1706.160
553.375, 1648.176
554.696, 1709.090
556.017, 1815.311
557.337, 2151.605
558.658, 2210.207
559.978, 2369.703
561.298, 2796.094
562.618, 2901.377
563.938, 3215.553
565.257, 3881.621
566.576, 3721.582
567.895, 4153.436
569.214, 4353.182
570.533, 4132.816
571.851, 3817.344
573.170, 3995.758
574.488, 3672.064
575.805, 3410.260
577.123, 3012.344
578.440, 2915.316
579.758, 2897.176
581.075, 2451.924
582.391, 2669.562
583.708, 2375.084
585.024, 1984.492
586.341, 2304.789
587.657, 2057.969
588.972, 1948.033
590.288, 1719.984
591.603, 1480.818
592.918, 1436.535
594.233, 1334.654
595.548, 1461.615
596.863, 1371.980
598.177, 1339.230
599.491, 1505.359
600.805, 1463.373
602.119, 1448.268
603.432, 1610.045
604.746, 1815.701
606.059, 1721.240
607.372, 1834.662
608.685, 1944.963
609.997, 1571.146
611.309, 1713.209
612.621, 1531.152
613.933, 1527.975
615.245, 1290.680
616.557, 1387.266
617.868, 1018.730
619.179, 1043.074
620.490, 668.299
621.801, 806.398
623.111, 406.379
624.421, 609.189
625.731, 211.867
627.041, 379.322
628.351, 48.398
629.660, 65.463
630.970, 5.883
632.279, 427.623
633.588, 391.910
634.896, 493.721
636.205, 224.113
637.513, 599.939
638.821, 504.402
640.129, 549.447
641.437, 430.098
642.744, 455.291
644.051, 437.039
645.358, 293.332
646.665, 258.092
647.972, 218.297
649.278, 56.932
650.584, 3.912
651.890, 134.732
653.196, 158.992
654.502, 429.055
655.807, 270.016
657.113, 459.787
658.418, 730.281
659.722, 634.863
661.027, 698.871
662.331, 1059.750
663.636, 1142.980
664.940, 789.889
666.244, 1088.234
667.547, 953.893
668.851, 1223.992
670.154, 1282.945
671.457, 1453.750
672.760, 2127.391
674.062, 2364.314
675.365, 2608.463
676.667, 2352.434
677.969, 2418.422
679.271, 2598.270
680.572, 2794.666
681.874, 3339.105
683.175, 3851.633
684.476, 4166.020
685.777, 4610.697
687.077, 4996.438
688.378, 6117.090
689.678, 7100.646
690.978, 8149.119
692.278, 9472.062
693.577, 11169.801
694.877, 12183.008
696.176, 14112.137
697.475, 15565.176
698.774, 17614.139
700.072, 19119.018
701.371, 20707.814
702.669, 21174.529
703.967, 22225.174
705.265, 23026.736
706.562, 22015.230
707.860, 20517.641
709.157, 19562.979
710.454, 17329.246
711.751, 16302.445
713.047, 14199.566
714.344, 12675.625
715.640, 10799.617
716.936, 9333.537
718.232, 8697.395
719.527, 7352.188
720.823, 6444.918
722.118, 5686.590
723.413, 4892.197
724.708, 4311.746
726.002, 4557.236
727.297, 3908.672
728.591, 4336.047
729.885, 4461.373
731.179, 4630.645
732.472, 5199.865
733.766, 5760.035
735.059, 6757.152
736.352, 7716.227
737.645, 8849.254
738.937, 10210.115
740.230, 11725.172
741.522, 13357.066
742.814, 15162.922
744.106, 17236.738
745.397, 18717.516
746.689, 20324.260
747.980, 22260.971
749.271, 23323.646
750.562, 24818.293
751.853, 24899.912
753.143, 25537.500
754.433, 24920.059
755.723, 23896.609
757.013, 22965.121
758.303, 20939.617
759.592, 19503.104
760.881, 17179.562
762.170, 15545.008
763.459, 13589.441
764.748, 11842.863
766.036, 10631.463
767.325, 9152.816
768.613, 8471.074
769.901, 6873.465
771.188, 6040.854
772.476, 5090.240
773.763, 4036.631
775.050, 4037.023
776.337, 3599.027
777.624, 3489.430
778.910, 3232.035
780.196, 3417.471
781.482, 3125.027
782.768, 3290.928
784.054, 3531.832
785.339, 3627.633
786.625, 3560.152
787.910, 4332.195
789.195, 4174.484
790.479, 4622.406
791.764, 4701.291
793.048, 4733.645
794.332, 5144.070
795.616, 4892.762
796.900, 4894.059
798.183, 4319.902
799.467, 4170.043
800.750, 3576.369
802.033, 2930.086
803.316, 2898.492
804.598, 1970.238
805.880, 1943.529
807.163, 1614.734
808.445, 935.375
809.726, 772.273
811.008, 497.375
812.289, 287.789
813.570, 239.045
814.851, 30.490
816.132, 102.838
817.413, 286.969
818.693, 113.973
819.973, 384.836
821.253, 353.607
822.533, 194.316
823.813, 538.934
825.092, 485.605
826.371, 534.314
827.650, 570.072
828.929, 410.893
830.208, 437.717
831.486, 491.555
832.764, 517.414
834.042, 411.311
835.320, 340.197
836.598, 159.059
837.875, 119.830
839.152, 174.504
840.429, 235.902
841.706, 389.436
842.983, 354.102
844.259, 555.896
845.536, 449.826
846.812, 763.887
848.088, 872.084
849.363, 1346.414
850.639, 1550.885
851.914, 1820.490
853.189, 2441.238
854.464, 2992.125
855.739, 3703.158
857.013, 3945.332
858.288, 4380.652
859.562, 5081.119
860.836, 5882.732
862.110, 6135.496
863.383, 7169.408
864.656, 7561.473
865.930, 8473.688
867.203, 9249.059
868.475, 10156.582
869.748, 10922.742
871.020, 11614.102
872.292, 12496.100
873.564, 13298.254
874.836, 14166.570
876.108, 14643.051
877.379, 15576.688
878.650, 15968.494
879.922, 15937.461
881.192, 15500.598
882.463, 15264.898
883.733, 14289.371
885.004, 13463.012
886.274, 12323.820
887.544, 11551.803
888.813, 10049.953
890.083, 9111.281
891.352, 8052.822
892.621, 6905.555
893.890, 6343.506
895.159, 5255.666
896.427, 4561.078
897.695, 4304.734
898.964, 3610.621
900.232, 3065.760
901.499, 2618.137
902.767, 2577.760
904.034, 2022.648
905.301, 2015.758
906.568, 1957.178
907.835, 1662.842
909.102, 1477.752
910.368, 1476.850
911.634, 1891.227
912.900, 1511.029
914.166, 1728.752
915.432, 1308.938
916.697, 1329.375
917.962, 1728.094
919.227, 1610.076
920.492, 1837.355
921.757, 1839.895
923.021, 2086.699
924.285, 2170.793
925.550, 2265.141
926.813, 2296.811
928.077, 2500.709
929.341, 2908.812
930.604, 3264.113
931.867, 3026.645
933.130, 3344.410
934.393, 4108.496
935.655, 3721.844
936.918, 4520.576
938.180, 4659.662
939.442, 5056.094
940.703, 5919.012
941.965, 6456.357
943.226, 6936.188
944.488, 7978.389
945.749, 8886.258
947.009, 10142.207
948.270, 11333.783
949.530, 12875.789
950.791, 14444.225
952.051, 15695.080
953.311, 16994.361
954.570, 19126.018
955.830, 20494.043
957.089, 21895.406
958.348, 23127.078
959.607, 24460.031
960.866, 25188.270
962.124, 26003.756
963.383, 27020.508
964.641, 27160.486
965.899, 27549.689
967.156, 27365.102
968.414, 26819.098
969.671, 26780.279
970.928, 25976.482
972.185, 25648.584
973.442, 24694.162
974.699, 24060.695
975.955, 22853.328
977.211, 21531.500
978.468, 20771.953
979.723, 19557.238
980.979, 18224.418
982.234, 17934.881
983.490, 15767.441
984.745, 15297.248
986.000, 14479.621
987.254, 13286.980
988.509, 12992.449
989.763, 12151.156
991.017, 11587.684
992.271, 11270.246
993.525, 10872.004
994.779, 10694.953
996.032, 10164.123
997.285, 10264.492
998.538, 9668.068
999.791, 10212.844
1001.044, 9608.824
1002.296, 9912.006
1003.548, 9788.391
1004.800, 9347.963
1006.052, 9358.734
1007.304, 8484.703
1008.555, 8506.865
1009.807, 8214.219
1011.058, 7697.766
1012.309, 7519.516
1013.559, 7281.453
1014.810, 6878.578
1016.060, 6984.898
1017.310, 6771.402
1018.560, 6451.094
1019.810, 6498.973
1021.060, 6637.027
1022.309, 6088.254
1023.558, 6511.664
1024.807, 6156.248
1026.056, 6281.012
1027.305, 6058.949
1028.553, 6391.055
1029.801, 6168.342
1031.049, 5871.801
1032.297, 5951.428
1033.545, 5781.799
1034.793, 5799.180
1036.040, 5777.316
1037.287, 5742.621
1038.534, 5657.188
1039.781, 5628.396
1041.027, 5472.037
1042.274, 5454.885
1043.520, 5436.887
1044.766, 5363.334
1046.012, 5355.412
1047.257, 5292.373
1048.503, 5288.836
1049.748, 5213.676
1050.993, 5185.184
1052.238, 5009.424
1053.483, 4950.836
1054.727, 4859.414
1055.971, 5076.684
1057.216, 4830.500
1058.459, 4945.574
1059.703, 4559.781
1060.947, 4957.186
1062.190, 4749.361
1063.433, 4622.740
1064.676, 4312.215
1065.919, 4405.064
1067.162, 4529.574
1068.404, 4080.068
1069.646, 4303.422
1070.888, 4450.201
1072.130, 4144.623
1073.372, 4405.465
1074.613, 4032.670
1075.855, 3849.176
1077.096, 4087.977
1078.337, 3862.293
1079.578, 3790.973
1080.818, 3939.703
1082.059, 3715.316
1083.299, 3938.820
1084.539, 3845.703
1085.779, 3722.104
1087.018, 3835.121
1088.258, 3875.578
1089.497, 3881.402
1090.736, 3987.318
1091.975, 3925.299
1093.213, 4092.223
1094.452, 4502.426
1095.690, 4216.551
1096.928, 4485.246
1098.166, 4452.641
1099.404, 4911.355
1100.642, 4732.967
1101.879, 5300.451
1103.116, 5424.793
1104.353, 6034.887
1105.590, 5829.418
1106.827, 6449.678
1108.063, 6539.734
1109.299, 6931.844
1110.536, 7124.758
1111.771, 7222.291
1113.007, 7641.744
1114.243, 7824.783
1115.478, 7862.492
1116.713, 8028.770
1117.948, 8047.912
1119.183, 7975.344
1120.418, 7571.400
1121.652, 7836.275
1122.886, 7933.613
1124.120, 7884.232
1125.354, 7217.459
1126.588, 7342.818
1127.821, 7150.605
1129.055, 7116.531
1130.288, 6650.484
1131.521, 6130.910
1132.753, 5573.711
1133.986, 5638.852
1135.218, 5432.836
1136.450, 4659.627
1137.682, 4683.094
1138.914, 4140.064
1140.146, 3951.115
1141.377, 3646.057
1142.609, 3297.973
1143.840, 3202.312
1145.071, 3084.096
1146.301, 2960.037
1147.532, 2810.883
1148.762, 2596.596
1149.992, 2373.975
1151.222, 2309.488
1152.452, 2256.426
1153.682, 2010.947
1154.911, 2096.416
1156.140, 1957.539
1157.369, 1827.961
1158.598, 1900.867
1159.827, 1869.816
1161.055, 1559.596
1162.284, 1691.178
1163.512, 1431.104
1164.740, 1542.619
1165.967, 1632.789
1167.195, 1502.369
1168.422, 1228.418
1169.650, 1236.402
1170.877, 922.365
1172.103, 896.297
1173.330, 800.094
1174.557, 913.699
1175.783, 793.967
1177.009, 361.525
1178.235, 510.566
1179.461, 229.539
1180.686, 303.652
1181.912, 280.316
1183.137, 188.697
1184.362, 104.109
1185.587, 16.670
1186.811, 97.277
1188.036, 182.820
1189.260, 52.270
1190.484, 176.240
1191.708, 117.479
1192.932, 302.652
1194.155, 221.348
1195.378, 196.699
1196.602, 231.402
1197.825, 207.572
1199.047, 200.287
1200.270, 290.645
1201.492, 94.221
1202.715, 432.094
1203.937, 162.301
1205.159, 174.797
1206.380, 86.279
1207.602, 276.809
1208.823, 218.199
1210.044, 134.680
1211.265, 336.307
1212.486, 144.246
1213.707, 259.637
1214.927, 173.146
1216.147, 307.920
1217.367, 149.049
1218.587, 169.143
1219.807, 249.496
1221.027, 105.965
1222.246, 375.926
1223.465, 7.385
1224.684, 135.973
1225.903, 343.945
1227.121, 134.201
1228.340, 16.189
1229.558, 120.184
1230.776, 6.422
1231.994, 140.102
1233.212, 14.357
1234.429, 19.555
1235.646, 116.309
1236.864, 51.363
1238.081, 29.908
1239.297, 149.605
1240.514, 62.980
1241.730, 203.172
1242.947, 757.178
1244.163, 166.029
1245.378, 161.699
1246.594, 389.180
1247.810, 11.445
1249.025, 200.479
1250.240, 178.322
1251.455, 168.938
1252.670, 186.344
1253.885, 201.559
1255.099, 136.588
1256.313, 70.420
1257.527, 83.309
1258.741, 257.467
1259.955, 80.701
1261.168, 214.742
1262.382, 238.613
1263.595, 252.297
1264.808, 47.764
1266.021, 232.994
1267.233, 171.814
1268.446, 567.824
1269.658, 159.441
1270.870, 446.832
1272.082, 314.018
1273.294, 389.984
1274.505, 309.746
1275.716, 421.305
1276.928, 393.988
1278.139, 454.824
1279.349, 366.781
1280.560, 460.521
1281.770, 404.064
1282.981, 536.379
1284.191, 1008.479
1285.401, 843.361
1286.610, 1040.021
1287.820, 1195.543
1289.029, 249.775
1290.239, 432.773
1291.448, 422.551
1292.656, 432.107
1293.865, 444.439
1295.073, 402.553
1296.282, 462.959
1297.490, 510.123
1298.698, 554.584
1299.906, 468.844
1301.113, 496.898
1302.320, 562.748
1303.528, 438.406
1304.735, 435.854
1305.942, 523.096
1307.148, 538.141
1308.355, 436.977
1309.561, 655.611
1310.767, 487.055
1311.973, 532.303
1313.179, 948.357
1314.384, 952.227
1315.590, 580.912
1316.795, 699.406
1318.000, 589.715
1319.205, 748.832
1320.410, 814.764
1321.614, 511.508
1322.819, 838.053
1324.023, 656.412
1325.227, 1139.580
1326.431, 678.564
1327.634, 504.359
1328.838, 692.959
1330.041, 666.373
1331.244, 814.576
1332.447, 453.615
1333.650, 621.963
1334.852, 560.738
1336.055, 673.340
1337.257, 642.953
1338.459, 545.477
1339.661, 713.535
1340.862, 736.590
1342.064, 604.926
1343.265, 632.211
1344.466, 693.422
1345.667, 662.438
1346.868, 684.266
1348.068, 651.375
1349.269, 506.918
1350.469, 691.174
1351.669, 525.277
1352.869, 686.156
1354.069, 627.236
1355.268, 453.092
1356.468, 568.824
1357.667, 608.363
1358.866, 545.203
1360.065, 770.066
1361.263, 512.830
1362.462, 668.150
1363.660, 650.805
1364.858, 583.289
1366.056, 630.129
1367.254, 725.949
1368.451, 566.162
1369.649, 437.963
1370.846, 577.021
1372.043, 602.172
1373.240, 640.414
1374.436, 566.709
1375.633, 539.600
1376.829, 460.166
1378.025, 490.287
1379.221, 690.510
1380.417, 437.916
1381.613, 676.428
1382.808, 644.494
1384.003, 617.812
1385.199, 620.521
1386.393, 641.674
1387.588, 682.637
1388.783, 712.709
1389.977, 761.961
1391.171, 753.561
1392.365, 734.744
1393.559, 675.982
1394.753, 674.520
1395.946, 617.953
1397.140, 626.465
1398.333, 647.680
1399.526, 616.217
1400.719, 588.973
1401.911, 630.918
1403.104, 649.830
1404.296, 551.338
1405.488, 715.201
1406.680, 492.924
1407.872, 644.668
1409.063, 737.963
1410.255, 615.145
1411.446, 814.727
1412.637, 547.150
1413.828, 591.168
1415.018, 703.873
1416.209, 726.051
1417.399, 652.830
1418.589, 892.576
1419.779, 618.453
1420.969, 679.404
1422.159, 615.086
1423.348, 707.428
1424.537, 691.428
1425.726, 521.162
1426.915, 518.895
1428.104, 469.252
1429.293, 605.717
1430.481, 341.867
1431.669, 565.453
1432.857, 711.350
1434.045, 496.570
1435.233, 802.387
1436.420, 707.834
1437.608, 538.885
1438.795, 621.344
1439.982, 663.496
1441.169, 815.777
1442.355, 718.658
1443.542, 777.432
1444.728, 694.092
1445.914, 720.846
1447.100, 758.551
1448.286, 918.791
1449.472, 581.250
1450.657, 987.852
1451.842, 824.777
1453.027, 802.227
1454.212, 1027.350
1455.397, 782.316
1456.581, 883.117
1457.766, 974.014
1458.950, 757.914
1460.134, 979.867
1461.318, 685.674
1462.501, 772.320
1463.685, 786.770
1464.868, 434.904
1466.051, 829.035
1467.234, 624.146
1468.417, 538.250
1469.600, 467.432
1470.782, 685.656
1471.965, 333.854
1473.147, 580.072
1474.329, 422.385
1475.510, 221.938
1476.692, 334.594
1477.873, 475.771
1479.055, 324.199
1480.236, 608.920
1481.416, 280.918
1482.597, 619.184
1483.778, 520.598
1484.958, 345.137
1486.138, 206.836
1487.318, 247.023
1488.498, 272.756
1489.678, 405.879
1490.857, 268.131
1492.037, 433.521
1493.216, 237.094
1494.395, 274.906
1495.574, 293.002
1496.752, 153.410
1497.931, 357.178
1499.109, 26.660
1500.287, 72.910
1501.465, 66.881
1502.643, 121.250
1503.820, 197.039
1504.998, 165.285
1506.175, 63.041
1507.352, 181.385
1508.529, 62.404
1509.706, 167.182
1510.882, 133.672
1512.059, 268.721
1513.235, 313.312
1514.411, 18.760
1515.587, 228.633
1516.762, 190.346
1517.938, 140.340
1519.113, 133.977
1520.288, 106.924
1521.463, 0.000
##END=



