##NAMES=Kornerupine
##RRUFFID=R050214
##IDEAL CHEMISTRY=(Mg,Fe^2+^,Al,[box])_10_(Si,Al,B)_5_O_21_(OH,F)_2_
##LOCALITY=Sri Lanka
##OWNER=RRUFF
##SOURCE=Jibamitra Ganguly
##DESCRIPTION=Water-worn single crystal fragment
##STATUS=The identification of this mineral has been confirmed by X-ray diffraction and chemical analysis
##URL=rruff.info/R050214
##MEASURED CHEMISTRY=(Mg_3.63_[box]_0.21_Fe^2+^_0.14_Na_0.02_)_4_Al_6.00_(Si_2.44_Al_1.97_B_0.59_)_5_O_21_(OH) ;   B and Li not measured; B estimated by charge balance
##PIN_ID=L00479
##ORIENTATION=Laser parallel to b* (0 1 0). Fiducial mark perpendicular to laser is parallel to c [0 0 1]
107.300, 0.000
108.691, 67.394
110.082, 38.622
111.473, 84.033
112.864, 425.826
114.254, 1046.293
115.644, 1411.169
117.034, 1457.771
118.424, 940.088
119.813, 723.551
121.203, 687.126
122.592, 522.216
123.981, 369.450
125.369, 105.947
126.758, 82.289
128.146, 66.876
129.534, 167.144
130.922, 83.137
132.309, 29.085
133.696, 77.616
135.083, 111.843
136.470, 151.704
137.857, 246.594
139.243, 96.633
140.630, 75.333
142.016, 75.630
143.401, 37.465
144.787, 172.775
146.172, 296.490
147.557, 147.543
148.942, 131.863
150.327, 403.350
151.711, 431.896
153.096, 856.418
154.480, 968.549
155.863, 1353.686
157.247, 1579.589
158.630, 1866.242
160.013, 2105.607
161.396, 2141.650
162.779, 2042.339
164.161, 1687.642
165.544, 1488.543
166.926, 1250.049
168.308, 1047.200
169.689, 1004.042
171.070, 1005.609
172.452, 1139.929
173.833, 1121.020
175.213, 1240.881
176.594, 1237.487
177.974, 1347.795
179.354, 1298.759
180.734, 1493.338
182.114, 1470.492
183.493, 1509.184
184.872, 1478.380
186.251, 1493.046
187.630, 1203.152
189.008, 1078.672
190.387, 948.460
191.765, 855.191
193.143, 656.924
194.520, 522.905
195.898, 271.527
197.275, 211.439
198.652, 108.444
200.029, 0.559
201.405, 57.235
202.782, 116.897
204.158, 40.555
205.534, 210.102
206.909, 96.805
208.285, 378.666
209.660, 600.688
211.035, 671.871
212.410, 965.217
213.784, 1144.727
215.159, 1740.396
216.533, 2111.229
217.907, 2396.219
219.281, 2822.370
220.654, 3265.692
222.027, 4001.275
223.400, 4549.207
224.773, 4921.689
226.146, 5589.957
227.518, 5833.123
228.891, 6502.220
230.263, 6812.296
231.634, 7183.285
233.006, 7245.070
234.377, 7169.596
235.748, 7174.984
237.119, 6956.143
238.490, 7261.014
239.860, 6913.465
241.231, 7205.386
242.601, 7526.556
243.970, 7996.842
245.340, 8683.763
246.709, 9396.040
248.079, 10454.603
249.448, 11370.712
250.816, 12640.740
252.185, 14152.683
253.553, 15353.541
254.921, 16925.311
256.289, 17596.994
257.657, 17791.596
259.024, 17136.102
260.391, 15986.521
261.758, 14496.849
263.125, 13163.083
264.492, 12062.227
265.858, 10894.270
267.224, 10251.217
268.590, 9335.066
269.956, 8782.819
271.321, 8151.471
272.687, 7265.407
274.052, 6433.466
275.416, 6059.341
276.781, 5339.871
278.146, 4768.943
279.510, 4754.484
280.874, 4373.431
282.237, 4808.764
283.601, 4787.341
284.964, 5292.275
286.327, 6408.459
287.690, 7199.797
289.053, 8332.455
290.416, 9886.407
291.778, 10797.641
293.140, 11856.183
294.502, 12071.924
295.863, 12382.896
297.225, 12105.083
298.586, 11607.786
299.947, 11145.381
301.308, 10374.587
302.668, 9921.544
304.029, 9727.671
305.389, 9172.957
306.749, 8927.401
308.108, 9000.988
309.468, 8874.717
310.827, 8970.576
312.186, 9130.559
313.545, 9652.661
314.903, 10125.878
316.262, 10507.199
317.620, 11242.624
318.978, 11869.139
320.336, 12658.723
321.693, 13330.397
323.051, 14133.161
324.408, 14453.574
325.765, 14731.047
327.121, 14867.923
328.478, 14748.993
329.834, 14588.332
331.190, 14289.763
332.546, 12893.144
333.902, 12642.757
335.257, 11301.595
336.612, 10343.162
337.967, 9259.478
339.322, 8224.067
340.677, 7432.549
342.031, 6522.185
343.385, 5999.238
344.739, 5442.514
346.093, 4907.332
347.446, 4662.016
348.799, 4413.159
350.153, 4279.885
351.505, 4351.293
352.858, 4334.207
354.210, 4497.482
355.563, 4772.632
356.915, 5292.785
358.267, 5588.735
359.618, 6147.349
360.969, 6749.793
362.321, 7259.508
363.672, 7548.475
365.022, 7827.053
366.373, 7945.819
367.723, 8195.479
369.073, 8393.783
370.423, 8447.802
371.773, 8323.237
373.122, 8664.883
374.471, 8992.873
375.821, 8762.587
377.169, 9191.477
378.518, 8858.662
379.866, 8933.900
381.215, 9191.373
382.563, 8973.004
383.910, 8867.062
385.258, 9097.709
386.605, 9282.113
387.952, 9331.482
389.299, 9527.197
390.646, 9624.155
391.992, 9908.053
393.339, 10171.880
394.685, 10327.636
396.031, 10795.319
397.376, 10440.920
398.722, 10546.439
400.067, 9978.868
401.412, 9479.204
402.757, 9194.444
404.101, 8237.589
405.446, 7395.633
406.790, 6612.577
408.134, 5891.418
409.478, 5351.158
410.821, 4742.794
412.165, 4197.329
413.508, 3970.760
414.851, 3594.089
416.193, 3262.315
417.536, 2971.269
418.878, 2712.457
420.220, 2539.371
421.562, 2276.184
422.904, 2482.892
424.245, 2400.494
425.586, 2216.992
426.927, 2358.388
428.268, 2206.679
429.609, 2162.864
430.949, 2181.944
432.289, 2454.921
433.629, 2243.794
434.969, 2426.619
436.309, 2270.394
437.648, 2470.113
438.987, 2462.773
440.326, 2416.369
441.665, 2274.902
443.003, 2472.368
444.342, 2479.764
445.680, 2572.088
447.018, 2432.340
448.355, 2295.517
449.693, 2346.617
451.030, 2361.640
452.367, 2661.580
453.704, 2495.440
455.041, 2725.227
456.377, 2738.927
457.713, 3023.541
459.049, 3075.064
460.385, 3319.508
461.721, 3510.859
463.056, 3709.135
464.391, 3654.316
465.726, 3795.402
467.061, 3835.393
468.395, 3515.286
469.730, 3774.081
471.064, 3353.775
472.398, 3541.370
473.731, 3138.863
475.065, 3035.252
476.398, 2761.539
477.731, 2660.719
479.064, 2376.796
480.397, 2279.766
481.729, 2062.629
483.062, 1791.383
484.394, 1580.029
485.725, 1356.566
487.057, 1211.990
488.389, 982.306
489.720, 729.509
491.051, 728.595
492.382, 563.564
493.712, 358.410
495.043, 146.107
496.373, 204.619
497.703, 79.956
499.032, 30.903
500.362, 106.024
501.691, 185.422
503.020, 269.104
504.349, 286.097
505.678, 292.373
507.007, 303.915
508.335, 388.753
509.663, 379.908
510.991, 341.383
512.319, 427.189
513.646, 176.328
514.973, 411.686
516.300, 123.394
517.627, 214.277
518.954, 446.406
520.280, 314.955
521.607, 365.816
522.933, 258.045
524.259, 352.579
525.584, 302.496
526.910, 217.840
528.235, 211.531
529.560, 126.882
530.885, 165.000
532.209, 24.772
533.534, 73.162
534.858, 57.854
536.182, 262.293
537.506, 175.545
538.829, 396.591
540.152, 520.474
541.476, 739.210
542.799, 544.815
544.121, 708.279
545.444, 753.611
546.766, 819.816
548.088, 826.895
549.410, 874.849
550.732, 1053.678
552.053, 972.384
553.375, 942.967
554.696, 1055.426
556.017, 1230.763
557.337, 1535.977
558.658, 1681.068
559.978, 1830.039
561.298, 2023.886
562.618, 2197.611
563.938, 2535.219
565.257, 2757.705
566.576, 2776.071
567.895, 3312.316
569.214, 3322.442
570.533, 3381.451
571.851, 3128.339
573.170, 3348.113
574.488, 3196.768
575.805, 3129.304
577.123, 2961.726
578.440, 3108.029
579.758, 3249.219
581.075, 3054.293
582.391, 3302.254
583.708, 3206.100
585.024, 3159.832
586.341, 3299.452
587.657, 3339.960
588.972, 3375.354
590.288, 3255.639
591.603, 3380.332
592.918, 3256.873
594.233, 3448.825
595.548, 3538.669
596.863, 3391.402
598.177, 3519.026
599.491, 3697.543
600.805, 3699.951
602.119, 3658.252
603.432, 3895.444
604.746, 3973.529
606.059, 3862.508
607.372, 3816.381
608.685, 3874.149
609.997, 3699.812
611.309, 3569.371
612.621, 3576.826
613.933, 3496.178
615.245, 3286.555
616.557, 3094.570
617.868, 2787.613
619.179, 2392.557
620.490, 2018.400
621.801, 2066.145
623.111, 1752.787
624.421, 1945.334
625.731, 1330.781
627.041, 1528.131
628.351, 1013.387
629.660, 936.545
630.970, 1125.607
632.279, 898.576
633.588, 822.451
634.896, 679.234
636.205, 851.926
637.513, 642.523
638.821, 807.033
640.129, 894.453
641.437, 955.783
642.744, 860.025
644.051, 921.180
645.358, 1062.250
646.665, 1207.232
647.972, 1183.932
649.278, 1402.518
650.584, 1456.133
651.890, 1828.492
653.196, 1871.600
654.502, 2064.945
655.807, 1974.111
657.113, 2222.391
658.418, 2421.006
659.722, 2388.039
661.027, 2347.676
662.331, 2491.414
663.636, 2584.068
664.940, 2408.434
666.244, 2714.949
667.547, 2627.920
668.851, 3002.516
670.154, 2818.316
671.457, 2899.719
672.760, 3269.814
674.062, 3431.268
675.365, 3584.877
676.667, 3858.035
677.969, 4022.490
679.271, 4390.113
680.572, 4600.955
681.874, 5385.584
683.175, 5812.354
684.476, 6135.195
685.777, 7085.584
687.077, 7465.074
688.378, 8693.080
689.678, 9719.816
690.978, 10846.141
692.278, 11726.680
693.577, 14045.977
694.877, 15155.918
696.176, 16988.740
697.475, 18371.271
698.774, 20265.576
700.072, 21242.391
701.371, 22350.549
702.669, 22404.887
703.967, 23141.488
705.265, 23225.080
706.562, 22000.646
707.860, 20157.199
709.157, 19155.748
710.454, 16381.273
711.751, 14945.787
713.047, 12725.293
714.344, 11222.789
715.640, 9333.277
716.936, 8064.758
718.232, 7070.230
719.527, 5919.701
720.823, 4992.166
722.118, 4212.629
723.413, 3518.092
724.708, 2934.553
726.002, 2946.018
727.297, 2233.479
728.591, 2524.947
729.885, 2489.420
731.179, 2586.898
732.472, 2919.383
733.766, 3352.305
735.059, 4009.379
736.352, 4751.889
737.645, 5654.414
738.937, 6777.951
740.230, 7616.502
741.522, 8647.066
742.814, 10116.652
744.106, 11628.254
745.397, 12464.875
746.689, 13595.518
747.980, 15159.184
749.271, 15619.873
750.562, 16848.586
751.853, 16821.330
753.143, 16915.102
754.433, 16619.896
755.723, 15728.729
757.013, 15190.590
758.303, 13568.484
759.592, 12696.414
760.881, 11065.379
762.170, 10088.387
763.459, 8636.430
764.748, 6852.514
766.036, 6398.641
767.325, 4909.812
768.613, 4381.027
769.901, 3627.293
771.188, 2909.605
772.476, 2655.967
773.763, 2013.379
775.050, 1996.848
776.337, 1806.369
777.624, 1864.947
778.910, 1756.580
780.196, 1804.271
781.482, 1642.023
782.768, 1778.838
784.054, 2000.715
785.339, 1992.656
786.625, 2222.662
787.910, 2538.734
789.195, 2538.877
790.479, 2762.090
791.764, 3057.371
793.048, 3193.727
794.332, 3532.154
795.616, 3211.656
796.900, 3275.238
798.183, 2785.895
799.467, 2723.629
800.750, 2392.447
802.033, 1689.344
803.316, 1856.326
804.598, 1047.391
805.880, 1079.547
807.163, 744.807
808.445, 353.188
809.726, 1.686
811.008, 49.293
812.289, 112.945
813.570, 275.066
814.851, 378.113
816.132, 540.104
817.413, 644.104
818.693, 548.158
819.973, 655.215
821.253, 641.299
822.533, 504.404
823.813, 705.473
825.092, 635.570
826.371, 613.734
827.650, 716.883
828.929, 628.848
830.208, 406.432
831.486, 589.605
832.764, 466.766
834.042, 501.844
835.320, 362.881
836.598, 40.209
837.875, 219.439
839.152, 81.930
840.429, 162.785
841.706, 45.727
842.983, 109.900
844.259, 411.281
845.536, 211.840
846.812, 696.580
848.088, 709.471
849.363, 1183.527
850.639, 1577.725
851.914, 1595.057
853.189, 1996.516
854.464, 2539.109
855.739, 2968.832
857.013, 3192.684
858.288, 3422.666
859.562, 4247.777
860.836, 4755.016
862.110, 4969.389
863.383, 5830.891
864.656, 6253.523
865.930, 7048.289
867.203, 8073.189
868.475, 8706.223
869.748, 9286.395
871.020, 10247.705
872.292, 11063.145
873.564, 12125.727
874.836, 12817.445
876.108, 13486.305
877.379, 14484.303
878.650, 14921.438
879.922, 15175.715
881.192, 14756.137
882.463, 14573.703
883.733, 13737.410
885.004, 13231.260
886.274, 12199.252
887.544, 11355.395
888.813, 10153.688
890.083, 9199.133
891.352, 8450.734
892.621, 7404.484
893.890, 6692.404
895.159, 5959.504
896.427, 5091.809
897.695, 4876.289
898.964, 4413.971
900.232, 3873.846
901.499, 3538.930
902.767, 3306.217
904.034, 2832.699
905.301, 2825.363
906.568, 2839.215
907.835, 2602.248
909.102, 2319.467
910.368, 2389.883
911.634, 2453.500
912.900, 2444.328
914.166, 2748.355
915.432, 2367.639
916.697, 2356.137
917.962, 2738.883
919.227, 2549.854
920.492, 2841.033
921.757, 2912.402
923.021, 3033.979
924.285, 3142.799
925.550, 3200.863
926.813, 3430.162
928.077, 3603.672
929.341, 3958.369
930.604, 4200.262
931.867, 4097.379
933.130, 4411.711
934.393, 5029.271
935.655, 4900.072
936.918, 5750.084
938.180, 6608.275
939.442, 6789.641
940.703, 7414.205
941.965, 7810.969
943.226, 8272.932
944.488, 9407.102
945.749, 10809.473
947.009, 11716.039
948.270, 12816.781
949.530, 14429.713
950.791, 15885.834
952.051, 17444.121
953.311, 18773.588
954.570, 21007.223
955.830, 22424.031
957.089, 23883.002
958.348, 25234.137
959.607, 26634.455
960.866, 27401.510
962.124, 27578.068
963.383, 28469.943
964.641, 28419.709
965.899, 28279.039
967.156, 28056.480
968.414, 26961.709
969.671, 26818.600
970.928, 25620.043
972.185, 25073.992
973.442, 23794.021
974.699, 22880.828
975.955, 21774.064
977.211, 20478.445
978.468, 19805.377
979.723, 18471.051
980.979, 17403.889
982.234, 17171.633
983.490, 15240.363
984.745, 15212.768
986.000, 14241.754
987.254, 13406.066
988.509, 13173.449
989.763, 12508.152
991.017, 12242.773
992.271, 11944.709
993.525, 11458.820
994.779, 11844.100
996.032, 11233.543
997.285, 11325.145
998.538, 10788.928
999.791, 11401.875
1001.044, 10722.996
1002.296, 11134.277
1003.548, 10933.732
1004.800, 10829.350
1006.052, 10799.129
1007.304, 10616.066
1008.555, 10651.174
1009.807, 10717.445
1011.058, 10835.883
1012.309, 11062.475
1013.559, 10961.229
1014.810, 10812.139
1016.060, 11224.207
1017.310, 11346.430
1018.560, 11113.803
1019.810, 11451.338
1021.060, 11706.031
1022.309, 11376.879
1023.558, 11892.879
1024.807, 11469.029
1026.056, 11511.326
1027.305, 11421.766
1028.553, 11280.523
1029.801, 11471.082
1031.049, 11215.957
1032.297, 11166.979
1033.545, 11245.137
1034.793, 10784.434
1036.040, 10514.869
1037.287, 10466.439
1038.534, 10272.809
1039.781, 10425.662
1041.027, 10123.924
1042.274, 9770.066
1043.520, 9639.846
1044.766, 9231.000
1046.012, 8958.488
1047.257, 8889.570
1048.503, 9091.945
1049.748, 8531.068
1050.993, 8808.039
1052.238, 8570.846
1053.483, 8293.105
1054.727, 8262.824
1055.971, 8141.930
1057.216, 8218.113
1058.459, 8123.344
1059.703, 8104.836
1060.947, 8147.248
1062.190, 7974.018
1063.433, 8069.086
1064.676, 7794.781
1065.919, 7655.836
1067.162, 7909.766
1068.404, 7350.758
1069.646, 7223.914
1070.888, 7507.914
1072.130, 6889.195
1073.372, 6571.160
1074.613, 6665.785
1075.855, 6376.809
1077.096, 6179.170
1078.337, 6462.697
1079.578, 6189.930
1080.818, 5840.812
1082.059, 5946.207
1083.299, 5696.666
1084.539, 5232.098
1085.779, 5012.914
1087.018, 5056.387
1088.258, 4836.617
1089.497, 4766.320
1090.736, 4705.541
1091.975, 4652.051
1093.213, 4570.422
1094.452, 5002.066
1095.690, 4784.234
1096.928, 5126.219
1098.166, 5047.086
1099.404, 5388.664
1100.642, 5401.246
1101.879, 5888.123
1103.116, 6565.279
1104.353, 6523.416
1105.590, 6420.949
1106.827, 7013.879
1108.063, 6929.746
1109.299, 7465.945
1110.536, 7782.898
1111.771, 7726.014
1113.007, 8211.377
1114.243, 8345.660
1115.478, 8377.189
1116.713, 8483.561
1117.948, 8621.281
1119.183, 8400.871
1120.418, 7881.734
1121.652, 8196.475
1122.886, 8307.727
1124.120, 8235.215
1125.354, 7391.127
1126.588, 7536.811
1127.821, 7376.451
1129.055, 7321.217
1130.288, 7158.574
1131.521, 6560.631
1132.753, 6097.645
1133.986, 5757.301
1135.218, 5659.379
1136.450, 5193.688
1137.682, 5093.363
1138.914, 4372.789
1140.146, 4313.254
1141.377, 3958.830
1142.609, 3650.246
1143.840, 3576.664
1145.071, 3405.609
1146.301, 3206.988
1147.532, 2959.732
1148.762, 2803.820
1149.992, 2635.406
1151.222, 2511.014
1152.452, 2394.828
1153.682, 2283.873
1154.911, 2198.934
1156.140, 2311.016
1157.369, 2074.203
1158.598, 1966.396
1159.827, 1950.508
1161.055, 1697.713
1162.284, 1712.500
1163.512, 1580.787
1164.740, 1683.533
1165.967, 1551.463
1167.195, 1563.592
1168.422, 1360.516
1169.650, 1370.973
1170.877, 1013.301
1172.103, 1160.760
1173.330, 1185.252
1174.557, 1093.195
1175.783, 537.783
1177.009, 573.977
1178.235, 655.230
1179.461, 428.221
1180.686, 432.564
1181.912, 428.182
1183.137, 267.158
1184.362, 103.074
1185.587, 74.979
1186.811, 15.627
1188.036, 86.791
1189.260, 2.100
1190.484, 111.625
1191.708, 145.883
1192.932, 239.686
1194.155, 114.682
1195.378, 224.043
1196.602, 165.475
1197.825, 235.980
1199.047, 178.879
1200.270, 179.562
1201.492, 100.625
1202.715, 105.482
1203.937, 106.232
1205.159, 105.715
1206.380, 135.551
1207.602, 160.018
1208.823, 175.596
1210.044, 126.545
1211.265, 337.701
1212.486, 194.279
1213.707, 298.014
1214.927, 213.656
1216.147, 131.088
1217.367, 75.275
1218.587, 122.127
1219.807, 255.148
1221.027, 276.297
1222.246, 213.811
1223.465, 118.561
1224.684, 36.506
1225.903, 58.795
1227.121, 159.875
1228.340, 131.480
1229.558, 159.652
1230.776, 218.385
1231.994, 92.592
1233.212, 12.811
1234.429, 68.012
1235.646, 61.975
1236.864, 34.201
1238.081, 50.654
1239.297, 60.336
1240.514, 13.021
1241.730, 33.451
1242.947, 63.268
1244.163, 10.695
1245.378, 19.381
1246.594, 129.906
1247.810, 40.703
1249.025, 167.285
1250.240, 176.682
1251.455, 161.896
1252.670, 205.934
1253.885, 41.781
1255.099, 4.416
1256.313, 48.008
1257.527, 12.223
1258.741, 217.260
1259.955, 76.061
1261.168, 172.656
1262.382, 190.057
1263.595, 185.262
1264.808, 71.277
1266.021, 238.082
1267.233, 238.697
1268.446, 360.123
1269.658, 45.367
1270.870, 297.395
1272.082, 188.291
1273.294, 294.943
1274.505, 124.613
1275.716, 282.871
1276.928, 200.102
1278.139, 211.980
1279.349, 298.668
1280.560, 359.172
1281.770, 119.496
1282.981, 171.914
1284.191, 278.846
1285.401, 125.582
1286.610, 226.297
1287.820, 362.604
1289.029, 478.627
1290.239, 415.443
1291.448, 204.406
1292.656, 345.705
1293.865, 220.361
1295.073, 375.465
1296.282, 265.396
1297.490, 388.172
1298.698, 479.762
1299.906, 412.170
1301.113, 333.400
1302.320, 350.457
1303.528, 431.334
1304.735, 452.008
1305.942, 458.496
1307.148, 506.805
1308.355, 581.939
1309.561, 679.881
1310.767, 517.650
1311.973, 549.238
1313.179, 476.711
1314.384, 522.131
1315.590, 704.225
1316.795, 662.369
1318.000, 688.814
1319.205, 780.203
1320.410, 786.744
1321.614, 532.598
1322.819, 672.201
1324.023, 534.311
1325.227, 772.914
1326.431, 627.799
1327.634, 513.244
1328.838, 692.598
1330.041, 585.895
1331.244, 592.346
1332.447, 393.744
1333.650, 310.191
1334.852, 462.674
1336.055, 349.057
1337.257, 387.811
1338.459, 369.820
1339.661, 386.842
1340.862, 350.465
1342.064, 327.176
1343.265, 356.969
1344.466, 309.840
1345.667, 340.250
1346.868, 469.068
1348.068, 498.172
1349.269, 369.670
1350.469, 598.984
1351.669, 410.328
1352.869, 548.729
1354.069, 523.008
1355.268, 434.865
1356.468, 471.227
1357.667, 457.873
1358.866, 377.217
1360.065, 589.568
1361.263, 386.842
1362.462, 570.777
1363.660, 481.543
1364.858, 442.752
1366.056, 487.998
1367.254, 472.512
1368.451, 499.820
1369.649, 452.336
1370.846, 391.146
1372.043, 495.998
1373.240, 443.332
1374.436, 473.838
1375.633, 348.404
1376.829, 480.994
1378.025, 373.010
1379.221, 379.346
1380.417, 351.250
1381.613, 388.797
1382.808, 444.541
1384.003, 505.150
1385.199, 370.098
1386.393, 346.125
1387.588, 457.434
1388.783, 343.033
1389.977, 478.811
1391.171, 423.773
1392.365, 280.285
1393.559, 398.236
1394.753, 278.168
1395.946, 319.373
1397.140, 279.170
1398.333, 273.648
1399.526, 164.062
1400.719, 185.500
1401.911, 305.115
1403.104, 212.420
1404.296, 220.971
1405.488, 306.105
1406.680, 191.596
1407.872, 326.018
1409.063, 163.510
1410.255, 194.768
1411.446, 299.135
1412.637, 151.352
1413.828, 178.836
1415.018, 105.678
1416.209, 197.680
1417.399, 58.688
1418.589, 125.617
1419.779, 20.449
1420.969, 122.188
1422.159, 99.186
1423.348, 121.562
1424.537, 161.318
1425.726, 14.463
1426.915, 160.252
1428.104, 166.969
1429.293, 5.822
1430.481, 45.580
1431.669, 65.275
1432.857, 231.229
1434.045, 1.094
1435.233, 202.119
1436.420, 0.000
##END=



