##NAMES=Kornerupine
##RRUFFID=R050214
##IDEAL CHEMISTRY=(Mg,Fe^2+^,Al,[box])_10_(Si,Al,B)_5_O_21_(OH,F)_2_
##LOCALITY=Sri Lanka
##OWNER=RRUFF
##SOURCE=Jibamitra Ganguly
##DESCRIPTION=Water-worn single crystal fragment
##STATUS=The identification of this mineral has been confirmed by X-ray diffraction and chemical analysis
##URL=rruff.info/R050214
##MEASURED CHEMISTRY=(Mg_3.63_[box]_0.21_Fe^2+^_0.14_Na_0.02_)_4_Al_6.00_(Si_2.44_Al_1.97_B_0.59_)_5_O_21_(OH) ;   B and Li not measured; B estimated by charge balance
##PIN_ID=L00056
##ORIENTATION=Laser parallel to -c* (0 0 -1). Fiducial mark perpendicular to laser is parallel to -a [-1 0 0]
110.082, 0.000
111.473, 0.501
112.864, 55.565
114.254, 61.178
115.644, 275.636
117.034, 231.890
118.424, 175.574
119.813, 315.060
121.203, 164.786
122.592, 40.867
123.981, 196.250
125.369, 11.191
126.758, 79.227
128.146, 102.941
129.534, 276.918
130.922, 225.295
132.309, 238.184
133.696, 19.727
135.083, 281.781
136.470, 134.219
137.857, 339.924
139.243, 104.803
140.630, 126.795
142.016, 59.150
143.401, 85.086
144.787, 1.061
146.172, 5.885
147.557, 32.297
148.942, 3.352
150.327, 7.869
151.711, 35.027
153.096, 78.844
154.480, 82.330
155.863, 173.391
157.247, 253.979
158.630, 412.059
160.013, 398.596
161.396, 523.568
162.779, 462.949
164.161, 416.717
165.544, 331.859
166.926, 359.404
168.308, 314.408
169.689, 158.914
171.070, 363.922
172.452, 488.396
173.833, 323.307
175.213, 425.633
176.594, 486.367
177.974, 706.518
179.354, 889.055
180.734, 898.957
182.114, 1061.752
183.493, 1101.779
184.872, 1192.676
186.251, 1202.873
187.630, 1183.352
189.008, 1234.941
190.387, 1325.076
191.765, 1241.287
193.143, 1281.652
194.520, 1218.967
195.898, 1361.271
197.275, 1502.588
198.652, 1578.932
200.029, 1642.311
201.405, 1751.732
202.782, 1949.211
204.158, 2115.752
205.534, 2574.359
206.909, 2468.041
208.285, 2886.797
209.660, 3241.605
211.035, 3357.484
212.410, 3661.443
213.784, 3914.486
215.159, 4262.613
216.533, 4785.832
217.907, 4727.141
219.281, 5194.609
220.654, 5131.410
222.027, 5428.854
223.400, 5395.156
224.773, 5141.398
226.146, 5127.547
227.518, 4739.428
228.891, 4484.838
230.263, 4254.297
231.634, 4025.738
233.006, 3865.152
234.377, 3584.543
235.748, 3529.910
237.119, 3405.248
238.490, 3712.645
239.860, 3522.275
241.231, 3787.189
242.601, 3690.514
243.970, 3972.107
245.340, 3980.693
246.709, 4149.229
248.079, 4499.717
249.448, 4441.152
250.816, 4662.543
252.185, 5047.904
253.553, 5316.367
254.921, 5548.014
256.289, 5692.158
257.657, 5806.436
259.024, 5759.131
260.391, 5667.768
261.758, 5506.344
263.125, 5501.854
264.492, 5586.301
265.858, 5315.680
267.224, 5102.990
268.590, 4621.232
269.956, 4638.406
271.321, 4288.508
272.687, 4004.543
274.052, 3287.504
275.416, 3258.184
276.781, 2919.717
278.146, 2447.502
279.510, 2483.648
280.874, 2217.105
282.237, 2475.840
283.601, 2289.797
284.964, 2568.977
286.327, 3346.365
287.690, 3752.951
289.053, 4218.723
290.416, 5126.395
291.778, 5266.391
293.140, 5784.545
294.502, 5590.844
295.863, 5599.273
297.225, 5197.846
298.586, 4888.551
299.947, 4593.383
301.308, 4220.471
302.668, 3698.395
304.029, 3605.566
305.389, 3376.842
306.749, 3239.105
308.108, 3550.867
309.468, 3449.396
310.827, 3573.029
312.186, 3661.332
313.545, 3985.113
314.903, 4150.971
316.262, 4444.498
317.620, 4823.520
318.978, 5105.602
320.336, 5646.738
321.693, 5811.930
323.051, 6200.170
324.408, 6204.658
325.765, 6651.439
327.121, 6265.240
328.478, 6549.410
329.834, 6213.811
331.190, 6005.066
332.546, 5368.949
333.902, 5214.654
335.257, 4377.729
336.612, 4117.514
337.967, 3509.066
339.322, 3196.203
340.677, 2903.643
342.031, 2422.260
343.385, 2339.117
344.739, 2277.494
346.093, 1959.621
347.446, 1780.717
348.799, 1784.516
350.153, 1761.158
351.505, 1779.795
352.858, 1632.422
354.210, 1969.043
355.563, 1851.652
356.915, 2245.250
358.267, 2454.840
359.618, 2859.418
360.969, 3099.990
362.321, 3366.561
363.672, 3772.670
365.022, 4122.215
366.373, 4199.932
367.723, 4700.863
369.073, 4708.938
370.423, 5050.705
371.773, 5090.428
373.122, 5148.863
374.471, 5812.672
375.821, 5668.012
377.169, 6142.354
378.518, 5928.936
379.866, 6204.275
381.215, 6490.594
382.563, 6478.885
383.910, 6651.148
385.258, 7151.379
386.605, 7461.576
387.952, 7365.734
389.299, 8047.848
390.646, 8152.848
391.992, 8574.641
393.339, 8936.953
394.685, 9293.504
396.031, 9855.686
397.376, 9371.566
398.722, 9630.564
400.067, 9235.516
401.412, 8688.525
402.757, 8357.238
404.101, 7502.074
405.446, 6723.062
406.790, 6004.467
408.134, 5548.260
409.478, 4984.543
410.821, 4373.762
412.165, 3763.914
413.508, 3580.078
414.851, 3398.105
416.193, 2917.068
417.536, 2853.963
418.878, 2736.791
420.220, 2561.555
421.562, 2530.229
422.904, 2465.877
424.245, 2429.434
425.586, 2354.924
426.927, 2344.350
428.268, 2042.707
429.609, 1893.992
430.949, 2004.213
432.289, 1888.363
433.629, 1439.447
434.969, 1597.463
436.309, 1390.412
437.648, 1435.320
438.987, 1026.195
440.326, 983.033
441.665, 948.826
443.003, 1030.576
444.342, 1003.283
445.680, 1012.943
447.018, 1050.555
448.355, 904.117
449.693, 924.631
451.030, 991.094
452.367, 1317.504
453.704, 1055.861
455.041, 1300.166
456.377, 1234.412
457.713, 1481.605
459.049, 1600.740
460.385, 1722.818
461.721, 2045.836
463.056, 1815.795
464.391, 1885.693
465.726, 2237.531
467.061, 2072.307
468.395, 1889.023
469.730, 2116.686
471.064, 1894.283
472.398, 1973.816
473.731, 1511.285
475.065, 1626.199
476.398, 1446.992
477.731, 1354.154
479.064, 1128.357
480.397, 1054.490
481.729, 710.557
483.062, 539.551
484.394, 439.473
485.725, 196.322
487.057, 99.336
488.389, 32.719
489.720, 146.779
491.051, 190.514
492.382, 294.504
493.712, 369.832
495.043, 390.451
496.373, 448.482
497.703, 443.889
499.032, 404.678
500.362, 456.820
501.691, 220.285
503.020, 430.967
504.349, 231.965
505.678, 77.867
507.007, 212.695
508.335, 308.506
509.663, 624.369
510.991, 933.293
512.319, 941.234
513.646, 1240.219
514.973, 1130.227
516.300, 1422.246
517.627, 1158.307
518.954, 693.373
520.280, 679.439
521.607, 478.438
522.933, 275.447
524.259, 7.586
525.584, 41.742
526.910, 18.910
528.235, 78.588
529.560, 121.299
530.885, 168.244
532.209, 211.445
533.534, 89.930
534.858, 188.365
536.182, 243.555
537.506, 409.648
538.829, 720.660
540.152, 757.592
541.476, 981.445
542.799, 644.221
544.121, 922.918
545.444, 890.537
546.766, 611.080
548.088, 588.545
549.410, 307.932
550.732, 244.230
552.053, 64.430
553.375, 61.508
554.696, 56.646
556.017, 98.014
557.337, 65.549
558.658, 123.086
559.978, 155.295
561.298, 211.396
562.618, 200.469
563.938, 319.443
565.257, 399.334
566.576, 321.150
567.895, 603.885
569.214, 586.545
570.533, 583.131
571.851, 353.643
573.170, 704.078
574.488, 611.443
575.805, 518.732
577.123, 608.949
578.440, 496.096
579.758, 849.166
581.075, 656.168
582.391, 793.098
583.708, 802.955
585.024, 867.746
586.341, 1154.465
587.657, 1383.113
588.972, 1182.693
590.288, 1041.203
591.603, 885.645
592.918, 961.018
594.233, 1009.324
595.548, 1166.564
596.863, 1121.666
598.177, 1049.842
599.491, 1006.881
600.805, 936.854
602.119, 738.762
603.432, 1094.604
604.746, 968.379
606.059, 903.092
607.372, 754.738
608.685, 738.861
609.997, 778.840
611.309, 763.297
612.621, 647.689
613.933, 790.021
615.245, 716.293
616.557, 577.500
617.868, 617.646
619.179, 575.734
620.490, 338.762
621.801, 771.730
623.111, 460.637
624.421, 787.486
625.731, 232.277
627.041, 602.012
628.351, 242.688
629.660, 219.309
630.970, 515.871
632.279, 164.377
633.588, 164.818
634.896, 13.201
636.205, 333.465
637.513, 264.676
638.821, 592.832
640.129, 663.939
641.437, 868.994
642.744, 1053.092
644.051, 1102.311
645.358, 1315.789
646.665, 1408.896
647.972, 1401.762
649.278, 1613.762
650.584, 1694.123
651.890, 2108.654
653.196, 1873.797
654.502, 2091.672
655.807, 1853.914
657.113, 1866.520
658.418, 1996.061
659.722, 1670.332
661.027, 1526.098
662.331, 1447.621
663.636, 1561.025
664.940, 1149.549
666.244, 1448.633
667.547, 1040.059
668.851, 1082.934
670.154, 975.369
671.457, 966.625
672.760, 1200.201
674.062, 968.574
675.365, 1089.840
676.667, 1108.898
677.969, 1368.781
679.271, 1323.570
680.572, 1461.023
681.874, 2012.508
683.175, 2270.289
684.476, 2304.676
685.777, 2793.018
687.077, 3054.625
688.378, 3766.234
689.678, 4381.086
690.978, 5045.537
692.278, 5375.406
693.577, 7100.236
694.877, 7511.789
696.176, 8940.545
697.475, 9647.283
698.774, 10913.010
700.072, 11616.725
701.371, 12333.426
702.669, 12480.117
703.967, 12989.793
705.265, 13080.461
706.562, 12129.191
707.860, 10810.066
709.157, 10087.365
710.454, 8637.371
711.751, 7648.684
713.047, 6234.244
714.344, 5386.633
715.640, 4053.016
716.936, 3365.285
718.232, 3101.797
719.527, 2047.125
720.823, 1864.250
722.118, 1274.900
723.413, 1069.105
724.708, 720.764
726.002, 906.434
727.297, 504.111
728.591, 776.723
729.885, 1125.420
731.179, 1156.131
732.472, 1678.852
733.766, 2301.586
735.059, 2672.336
736.352, 3512.098
737.645, 4221.879
738.937, 5066.676
740.230, 5799.490
741.522, 7142.328
742.814, 8105.184
744.106, 9226.059
745.397, 10195.957
746.689, 10822.883
747.980, 11994.830
749.271, 12577.809
750.562, 13329.812
751.853, 13270.842
753.143, 13330.902
754.433, 12751.996
755.723, 11996.117
757.013, 11523.273
758.303, 10266.465
759.592, 9333.691
760.881, 8111.953
762.170, 7177.254
763.459, 6445.592
764.748, 4983.973
766.036, 4650.395
767.325, 3411.857
768.613, 2878.363
769.901, 2513.918
771.188, 1836.514
772.476, 1936.156
773.763, 1230.850
775.050, 1320.588
776.337, 1050.379
777.624, 1038.217
778.910, 1076.107
780.196, 1180.051
781.482, 1054.051
782.768, 1066.104
784.054, 1290.213
785.339, 1580.375
786.625, 1485.600
787.910, 2023.371
789.195, 2102.254
790.479, 2133.770
791.764, 2469.236
793.048, 2409.762
794.332, 2826.354
795.616, 2440.010
796.900, 2538.732
798.183, 1973.523
799.467, 1891.391
800.750, 1574.350
802.033, 1064.408
803.316, 1181.617
804.598, 394.992
805.880, 541.555
807.163, 244.330
808.445, 12.676
809.726, 17.471
811.008, 68.057
812.289, 369.459
813.570, 269.785
814.851, 326.055
816.132, 524.234
817.413, 556.465
818.693, 371.838
819.973, 641.281
821.253, 628.922
822.533, 436.760
823.813, 542.703
825.092, 468.801
826.371, 419.014
827.650, 532.322
828.929, 418.744
830.208, 234.314
831.486, 317.867
832.764, 299.463
834.042, 264.096
835.320, 234.137
836.598, 65.666
837.875, 18.783
839.152, 198.879
840.429, 472.701
841.706, 268.691
842.983, 524.869
844.259, 848.240
845.536, 844.775
846.812, 1131.420
848.088, 1100.172
849.363, 1733.020
850.639, 2009.965
851.914, 2057.008
853.189, 2422.150
854.464, 3045.391
855.739, 3668.734
857.013, 3722.178
858.288, 4144.721
859.562, 4806.367
860.836, 5706.119
862.110, 5936.986
863.383, 7022.984
864.656, 7307.148
865.930, 8368.484
867.203, 9325.947
868.475, 10087.545
869.748, 10922.273
871.020, 11975.121
872.292, 12804.090
873.564, 13754.176
874.836, 14678.375
876.108, 15122.684
877.379, 16186.109
878.650, 16205.639
879.922, 16451.283
881.192, 16048.037
882.463, 15780.916
883.733, 14832.902
885.004, 14269.006
886.274, 13596.219
887.544, 12763.594
888.813, 11566.117
890.083, 10698.777
891.352, 10016.592
892.621, 9164.551
893.890, 8463.660
895.159, 7736.898
896.427, 7032.309
897.695, 6571.344
898.964, 6345.703
900.232, 5859.656
901.499, 5590.840
902.767, 5556.188
904.034, 4831.738
905.301, 4871.426
906.568, 4893.326
907.835, 4546.361
909.102, 4334.584
910.368, 4199.965
911.634, 4369.562
912.900, 4072.395
914.166, 4563.402
915.432, 4216.609
916.697, 4049.990
917.962, 5042.574
919.227, 4699.305
920.492, 4640.209
921.757, 4269.252
923.021, 4638.445
924.285, 4653.773
925.550, 4717.270
926.813, 4891.969
928.077, 4734.834
929.341, 5242.836
930.604, 5565.996
931.867, 5447.355
933.130, 5779.850
934.393, 6429.492
935.655, 6405.291
936.918, 7255.301
938.180, 7079.438
939.442, 7805.703
940.703, 8523.156
941.965, 9363.740
943.226, 10189.889
944.488, 10991.340
945.749, 12055.322
947.009, 13132.434
948.270, 14296.668
949.530, 15530.027
950.791, 17638.508
952.051, 18605.115
953.311, 20119.844
954.570, 22133.691
955.830, 23513.656
957.089, 25078.766
958.348, 26283.998
959.607, 27505.348
960.866, 28353.363
962.124, 28983.406
963.383, 29640.596
964.641, 29832.641
965.899, 29941.902
967.156, 29658.523
968.414, 29109.965
969.671, 28862.869
970.928, 27907.775
972.185, 27356.510
973.442, 26510.152
974.699, 25838.439
975.955, 24639.258
977.211, 23318.346
978.468, 22750.215
979.723, 21858.381
980.979, 20764.750
982.234, 20816.424
983.490, 18916.367
984.745, 19063.494
986.000, 18459.498
987.254, 17900.111
988.509, 18009.346
989.763, 17520.859
991.017, 17595.357
992.271, 17683.982
993.525, 17608.744
994.779, 18072.629
996.032, 18230.689
997.285, 18861.877
998.538, 18699.188
999.791, 20144.625
1001.044, 19904.186
1002.296, 21104.867
1003.548, 21211.676
1004.800, 21257.602
1006.052, 22112.646
1007.304, 21963.812
1008.555, 22421.094
1009.807, 22608.492
1011.058, 22671.008
1012.309, 22593.645
1013.559, 22735.400
1014.810, 22354.260
1016.060, 22890.230
1017.310, 22679.312
1018.560, 21854.500
1019.810, 22132.795
1021.060, 21989.199
1022.309, 21102.711
1023.558, 21232.332
1024.807, 20197.049
1026.056, 19945.879
1027.305, 19079.801
1028.553, 18399.842
1029.801, 17987.492
1031.049, 16880.719
1032.297, 16115.613
1033.545, 15095.914
1034.793, 14517.867
1036.040, 13493.477
1037.287, 12893.203
1038.534, 12394.801
1039.781, 11822.957
1041.027, 11138.949
1042.274, 10069.305
1043.520, 9746.934
1044.766, 9065.051
1046.012, 8387.152
1047.257, 7966.197
1048.503, 7746.334
1049.748, 7031.641
1050.993, 7036.369
1052.238, 6804.568
1053.483, 6083.414
1054.727, 5812.650
1055.971, 5820.779
1057.216, 5512.758
1058.459, 5198.539
1059.703, 4893.521
1060.947, 4869.270
1062.190, 4794.271
1063.433, 4411.289
1064.676, 4303.748
1065.919, 3986.254
1067.162, 4327.627
1068.404, 3760.229
1069.646, 3708.322
1070.888, 3871.406
1072.130, 3366.168
1073.372, 3260.988
1074.613, 3235.643
1075.855, 2960.164
1077.096, 2874.998
1078.337, 3004.781
1079.578, 2673.488
1080.818, 3028.041
1082.059, 2525.943
1083.299, 2247.078
1084.539, 2211.781
1085.779, 2142.004
1087.018, 2040.393
1088.258, 1888.434
1089.497, 1725.754
1090.736, 1568.420
1091.975, 1393.428
1093.213, 1541.596
1094.452, 1604.445
1095.690, 1432.926
1096.928, 1410.889
1098.166, 1695.793
1099.404, 1581.107
1100.642, 1653.377
1101.879, 1711.357
1103.116, 1556.846
1104.353, 1720.422
1105.590, 1652.391
1106.827, 2117.895
1108.063, 2012.363
1109.299, 2328.199
1110.536, 2421.057
1111.771, 2285.980
1113.007, 2739.904
1114.243, 2546.852
1115.478, 2589.963
1116.713, 2620.863
1117.948, 2871.545
1119.183, 2697.711
1120.418, 2482.459
1121.652, 2724.426
1122.886, 2855.562
1124.120, 2881.736
1125.354, 2488.527
1126.588, 2638.080
1127.821, 2569.691
1129.055, 2609.102
1130.288, 2552.869
1131.521, 2266.658
1132.753, 1827.600
1133.986, 1812.746
1135.218, 2006.195
1136.450, 1606.637
1137.682, 1817.250
1138.914, 1248.377
1140.146, 1312.818
1141.377, 1094.322
1142.609, 1015.496
1143.840, 1075.736
1145.071, 1102.473
1146.301, 991.480
1147.532, 1050.582
1148.762, 988.625
1149.992, 692.541
1151.222, 831.264
1152.452, 738.852
1153.682, 481.998
1154.911, 653.689
1156.140, 431.906
1157.369, 478.363
1158.598, 690.549
1159.827, 570.170
1161.055, 281.553
1162.284, 465.375
1163.512, 415.600
1164.740, 493.836
1165.967, 514.074
1167.195, 479.689
1168.422, 464.361
1169.650, 460.314
1170.877, 333.010
1172.103, 386.180
1173.330, 212.547
1174.557, 255.809
1175.783, 302.910
1177.009, 14.998
1178.235, 113.049
1179.461, 10.457
1180.686, 44.744
1181.912, 26.799
1183.137, 151.471
1184.362, 163.951
1185.587, 124.574
1186.811, 64.400
1188.036, 107.047
1189.260, 86.135
1190.484, 119.938
1191.708, 9.988
1192.932, 181.004
1194.155, 174.980
1195.378, 362.559
1196.602, 57.561
1197.825, 378.201
1199.047, 110.016
1200.270, 275.033
1201.492, 5.824
1202.715, 286.496
1203.937, 7.137
1205.159, 192.420
1206.380, 79.891
1207.602, 294.957
1208.823, 342.717
1210.044, 131.771
1211.265, 230.363
1212.486, 99.797
1213.707, 221.330
1214.927, 30.018
1216.147, 81.980
1217.367, 17.627
1218.587, 5.795
1219.807, 56.619
1221.027, 76.803
1222.246, 198.773
1223.465, 72.971
1224.684, 81.629
1225.903, 32.697
1227.121, 186.477
1228.340, 94.848
1229.558, 17.666
1230.776, 4.707
1231.994, 217.285
1233.212, 141.896
1234.429, 168.910
1235.646, 99.258
1236.864, 210.355
1238.081, 189.773
1239.297, 277.014
1240.514, 338.088
1241.730, 176.996
1242.947, 217.721
1244.163, 228.236
1245.378, 305.557
1246.594, 292.699
1247.810, 172.672
1249.025, 478.449
1250.240, 285.068
1251.455, 105.525
1252.670, 163.783
1253.885, 313.160
1255.099, 206.061
1256.313, 69.818
1257.527, 414.684
1258.741, 423.020
1259.955, 53.189
1261.168, 288.703
1262.382, 238.502
1263.595, 361.455
1264.808, 188.908
1266.021, 342.188
1267.233, 363.344
1268.446, 363.285
1269.658, 371.322
1270.870, 368.547
1272.082, 285.146
1273.294, 373.416
1274.505, 348.514
1275.716, 383.447
1276.928, 294.197
1278.139, 551.768
1279.349, 513.250
1280.560, 449.234
1281.770, 343.029
1282.981, 261.623
1284.191, 370.998
1285.401, 343.229
1286.610, 219.156
1287.820, 491.879
1289.029, 27.617
1290.239, 406.637
1291.448, 373.738
1292.656, 248.500
1293.865, 413.102
1295.073, 398.535
1296.282, 294.816
1297.490, 480.932
1298.698, 559.879
1299.906, 490.660
1301.113, 439.285
1302.320, 429.756
1303.528, 600.059
1304.735, 435.189
1305.942, 579.162
1307.148, 718.363
1308.355, 631.361
1309.561, 917.467
1310.767, 764.199
1311.973, 870.152
1313.179, 528.209
1314.384, 938.480
1315.590, 493.070
1316.795, 700.842
1318.000, 573.334
1319.205, 857.789
1320.410, 820.523
1321.614, 362.939
1322.819, 600.176
1324.023, 413.223
1325.227, 836.543
1326.431, 633.156
1327.634, 109.438
1328.838, 278.535
1330.041, 384.527
1331.244, 386.262
1332.447, 293.652
1333.650, 324.055
1334.852, 229.934
1336.055, 223.408
1337.257, 203.793
1338.459, 115.373
1339.661, 144.395
1340.862, 163.840
1342.064, 211.721
1343.265, 210.146
1344.466, 382.137
1345.667, 281.238
1346.868, 424.301
1348.068, 287.010
1349.269, 160.938
1350.469, 563.639
1351.669, 335.295
1352.869, 450.654
1354.069, 643.820
1355.268, 161.703
1356.468, 482.846
1357.667, 443.320
1358.866, 428.232
1360.065, 561.000
1361.263, 255.574
1362.462, 770.455
1363.660, 787.094
1364.858, 318.287
1366.056, 476.654
1367.254, 499.352
1368.451, 519.496
1369.649, 310.039
1370.846, 470.543
1372.043, 270.137
1373.240, 436.164
1374.436, 510.602
1375.633, 436.156
1376.829, 309.953
1378.025, 303.723
1379.221, 573.547
1380.417, 330.102
1381.613, 358.996
1382.808, 679.379
1384.003, 391.566
1385.199, 440.848
1386.393, 287.441
1387.588, 320.906
1388.783, 281.254
1389.977, 287.746
1391.171, 271.348
1392.365, 310.230
1393.559, 355.988
1394.753, 204.820
1395.946, 214.355
1397.140, 118.492
1398.333, 364.855
1399.526, 83.617
1400.719, 303.871
1401.911, 176.324
1403.104, 179.637
1404.296, 40.344
1405.488, 168.824
1406.680, 64.625
1407.872, 214.707
1409.063, 388.051
1410.255, 67.590
1411.446, 333.109
1412.637, 117.480
1413.828, 187.164
1415.018, 161.016
1416.209, 232.926
1417.399, 226.203
1418.589, 372.555
1419.779, 175.121
1420.969, 223.402
1422.159, 87.117
1423.348, 199.629
1424.537, 216.051
1425.726, 72.984
1426.915, 48.688
1428.104, 0.266
1429.293, 48.758
1430.481, 0.168
1431.669, 408.742
1432.857, 176.344
1434.045, 0.000
##END=



