##NAMES=Kornerupine
##RRUFFID=R050214
##IDEAL CHEMISTRY=(Mg,Fe^2+^,Al,[box])_10_(Si,Al,B)_5_O_21_(OH,F)_2_
##LOCALITY=Sri Lanka
##OWNER=RRUFF
##SOURCE=Jibamitra Ganguly
##DESCRIPTION=Water-worn single crystal fragment
##STATUS=The identification of this mineral has been confirmed by X-ray diffraction and chemical analysis
##URL=rruff.info/R050214
##MEASURED CHEMISTRY=(Mg_3.63_[box]_0.21_Fe^2+^_0.14_Na_0.02_)_4_Al_6.00_(Si_2.44_Al_1.97_B_0.59_)_5_O_21_(OH) ;   B and Li not measured; B estimated by charge balance
##PIN_ID=L00479
##ORIENTATION=Laser parallel to b* (0 1 0). Fiducial mark perpendicular to laser is parallel to c [0 0 1]
93.375, 0.000
94.768, 26.658
96.161, 113.410
97.554, 8.258
98.947, 124.645
100.340, 71.988
101.732, 1.405
103.124, 61.557
104.516, 63.987
105.908, 71.010
107.300, 212.569
108.691, 231.845
110.082, 202.193
111.473, 246.077
112.864, 585.049
114.254, 990.735
115.644, 1354.817
117.034, 1370.002
118.424, 959.025
119.813, 926.655
121.203, 902.687
122.592, 849.943
123.981, 833.979
125.369, 805.897
126.758, 782.604
128.146, 808.390
129.534, 775.522
130.922, 871.726
132.309, 928.122
133.696, 757.926
135.083, 945.089
136.470, 920.519
137.857, 1104.106
139.243, 885.769
140.630, 859.438
142.016, 643.060
143.401, 544.582
144.787, 617.966
146.172, 530.176
147.557, 522.178
148.942, 429.941
150.327, 454.443
151.711, 403.656
153.096, 546.559
154.480, 422.137
155.863, 287.391
157.247, 563.299
158.630, 501.845
160.013, 611.007
161.396, 715.767
162.779, 636.105
164.161, 485.010
165.544, 484.482
166.926, 455.524
168.308, 501.133
169.689, 385.320
171.070, 584.117
172.452, 459.546
173.833, 442.614
175.213, 615.304
176.594, 378.451
177.974, 799.619
179.354, 788.830
180.734, 843.144
182.114, 1026.576
183.493, 1123.180
184.872, 1155.974
186.251, 1347.976
187.630, 1191.201
189.008, 1216.661
190.387, 1358.364
191.765, 1165.316
193.143, 1570.524
194.520, 1331.991
195.898, 1455.720
197.275, 1558.714
198.652, 1609.974
200.029, 1818.498
201.405, 1925.287
202.782, 1925.340
204.158, 2526.657
205.534, 2818.234
206.909, 2769.072
208.285, 3137.169
209.660, 3611.520
211.035, 3603.122
212.410, 4086.997
213.784, 4259.193
215.159, 4654.867
216.533, 5154.979
217.907, 5041.367
219.281, 5128.977
220.654, 5323.807
222.027, 5212.848
223.400, 5364.102
224.773, 5223.562
226.146, 5023.230
227.518, 4557.101
228.891, 4352.171
230.263, 3993.438
231.634, 3753.899
233.006, 3643.559
234.377, 3439.614
235.748, 3410.136
237.119, 3413.115
238.490, 3736.469
239.860, 3719.098
241.231, 3944.047
242.601, 3940.476
243.970, 4186.548
245.340, 4304.373
246.709, 4342.083
248.079, 4595.625
249.448, 4513.912
250.816, 4714.775
252.185, 4852.070
253.553, 5037.548
254.921, 5357.165
256.289, 5480.879
257.657, 5502.673
259.024, 5392.589
260.391, 5422.855
261.758, 5054.008
263.125, 4979.606
264.492, 4843.026
265.858, 4576.109
267.224, 4388.766
268.590, 4125.267
269.956, 3809.561
271.321, 3557.808
272.687, 3044.505
274.052, 2706.631
275.416, 2478.537
276.781, 2238.063
278.146, 2079.333
279.510, 2155.946
280.874, 2043.888
282.237, 2260.142
283.601, 2263.699
284.964, 2577.545
286.327, 3202.666
287.690, 3637.053
289.053, 4073.698
290.416, 4901.588
291.778, 5042.719
293.140, 5291.078
294.502, 5049.658
295.863, 5017.457
297.225, 4657.461
298.586, 4304.668
299.947, 4009.070
301.308, 3724.054
302.668, 3235.437
304.029, 3253.390
305.389, 3195.514
306.749, 3051.810
308.108, 3425.267
309.468, 3416.885
310.827, 3729.660
312.186, 4009.586
313.545, 4430.660
314.903, 4640.880
316.262, 4904.240
317.620, 5303.738
318.978, 5624.371
320.336, 6039.137
321.693, 6199.025
323.051, 6480.043
324.408, 6385.180
325.765, 6547.115
327.121, 6757.805
328.478, 6533.289
329.834, 6469.307
331.190, 6217.602
332.546, 5579.599
333.902, 5276.165
335.257, 4710.007
336.612, 4277.934
337.967, 3549.283
339.322, 3090.570
340.677, 2791.924
342.031, 2407.359
343.385, 2091.879
344.739, 1930.479
346.093, 1706.742
347.446, 1753.928
348.799, 1477.773
350.153, 1524.698
351.505, 1500.702
352.858, 1481.785
354.210, 1605.944
355.563, 1758.180
356.915, 1964.490
358.267, 2264.874
359.618, 2467.332
360.969, 2942.860
362.321, 3454.459
363.672, 3806.126
365.022, 4207.859
366.373, 4382.660
367.723, 4783.525
369.073, 4894.451
370.423, 5156.301
371.773, 5198.912
373.122, 5569.668
374.471, 5943.941
375.821, 5979.603
377.169, 6412.389
378.518, 6379.596
379.866, 6476.490
381.215, 6943.166
382.563, 7115.598
383.910, 7316.324
385.258, 7985.704
386.605, 8671.786
387.952, 9041.799
389.299, 10000.275
390.646, 10464.777
391.992, 11372.223
393.339, 12134.339
394.685, 12804.910
396.031, 13738.829
397.376, 13632.823
398.722, 14115.049
400.067, 13503.412
401.412, 13142.442
402.757, 12718.319
404.101, 11642.566
405.446, 10582.882
406.790, 9667.512
408.134, 8794.901
409.478, 8076.805
410.821, 7398.219
412.165, 6478.373
413.508, 6278.461
414.851, 5828.345
416.193, 5327.170
417.536, 5235.580
418.878, 5066.708
420.220, 5237.672
421.562, 4940.191
422.904, 5297.506
424.245, 5363.095
425.586, 5211.729
426.927, 5229.375
428.268, 4952.039
429.609, 4644.725
430.949, 4430.428
432.289, 4463.145
433.629, 3778.870
434.969, 3708.603
436.309, 3206.340
437.648, 2963.080
438.987, 2745.819
440.326, 2302.559
441.665, 2114.294
443.003, 2146.024
444.342, 1981.992
445.680, 1976.707
447.018, 1868.410
448.355, 1810.103
449.693, 2208.781
451.030, 2253.443
452.367, 2206.091
453.704, 1995.720
455.041, 2244.329
456.377, 2260.918
457.713, 2501.484
459.049, 2597.027
460.385, 2858.547
461.721, 3120.040
463.056, 3098.506
464.391, 3156.944
465.726, 3397.354
467.061, 3324.733
468.395, 3128.082
469.730, 3333.397
471.064, 3117.680
472.398, 3002.928
473.731, 2607.142
475.065, 2404.317
476.398, 2238.459
477.731, 2008.560
479.064, 1723.623
480.397, 1458.646
481.729, 1221.628
483.062, 926.568
484.394, 742.506
485.725, 462.323
487.057, 355.135
488.389, 167.901
489.720, 43.377
491.051, 12.266
492.382, 83.149
493.712, 138.668
495.043, 206.320
496.373, 100.142
497.703, 51.083
499.032, 20.878
500.362, 120.774
501.691, 343.631
503.020, 500.440
504.349, 794.694
505.678, 1171.039
507.007, 1523.898
508.335, 2102.787
509.663, 2680.723
510.991, 3048.711
512.319, 3396.710
513.646, 3885.742
514.973, 4005.822
516.300, 3885.707
517.627, 4025.087
518.954, 3204.238
520.280, 2954.378
521.607, 2385.496
522.933, 1883.575
524.259, 1409.606
525.584, 859.576
526.910, 623.485
528.235, 299.331
529.560, 186.114
530.885, 51.175
532.209, 177.621
533.534, 36.293
534.858, 151.120
536.182, 53.163
537.506, 119.374
538.829, 12.789
540.152, 29.646
541.476, 229.951
542.799, 79.822
544.121, 103.212
545.444, 13.860
546.766, 121.092
548.088, 220.545
549.410, 297.271
550.732, 261.311
552.053, 348.648
553.375, 528.334
554.696, 467.457
556.017, 545.992
557.337, 451.979
558.658, 436.371
559.978, 493.160
561.298, 218.379
562.618, 270.881
563.938, 318.695
565.257, 83.848
566.576, 111.215
567.895, 148.188
569.214, 262.480
570.533, 107.689
571.851, 87.775
573.170, 358.730
574.488, 187.615
575.805, 310.398
577.123, 175.107
578.440, 340.713
579.758, 467.246
581.075, 256.713
582.391, 649.096
583.708, 399.412
585.024, 581.664
586.341, 677.850
587.657, 648.971
588.972, 776.025
590.288, 727.018
591.603, 743.693
592.918, 737.344
594.233, 667.602
595.548, 666.336
596.863, 615.244
598.177, 464.609
599.491, 508.152
600.805, 446.633
602.119, 353.049
603.432, 433.396
604.746, 570.682
606.059, 505.906
607.372, 431.068
608.685, 674.170
609.997, 607.209
611.309, 564.189
612.621, 521.109
613.933, 778.967
615.245, 784.768
616.557, 901.508
617.868, 847.191
619.179, 949.816
620.490, 794.383
621.801, 1251.895
623.111, 1018.346
624.421, 1356.744
625.731, 1052.084
627.041, 1380.369
628.351, 1229.600
629.660, 1299.777
630.970, 1654.898
632.279, 1449.969
633.588, 1610.986
634.896, 1626.951
636.205, 1883.867
637.513, 1897.727
638.821, 2143.539
640.129, 2326.092
641.437, 2566.016
642.744, 2794.680
644.051, 3178.295
645.358, 3536.865
646.665, 3745.391
647.972, 4079.441
649.278, 4371.281
650.584, 4458.473
651.890, 5126.156
653.196, 5025.619
654.502, 5271.051
655.807, 4910.109
657.113, 5050.277
658.418, 5375.582
659.722, 4701.844
661.027, 4466.332
662.331, 4331.441
663.636, 4098.340
664.940, 3656.242
666.244, 3493.941
667.547, 2997.619
668.851, 2985.898
670.154, 2422.256
671.457, 1962.604
672.760, 1922.508
674.062, 1575.977
675.365, 1440.346
676.667, 1350.354
677.969, 1261.396
679.271, 1140.984
680.572, 1180.186
681.874, 1215.889
683.175, 1334.342
684.476, 1493.428
685.777, 1796.766
687.077, 2089.207
688.378, 2530.912
689.678, 3096.492
690.978, 3401.582
692.278, 3726.305
693.577, 5160.926
694.877, 5721.148
696.176, 6886.705
697.475, 7811.492
698.774, 9034.543
700.072, 9934.324
701.371, 10889.463
702.669, 11254.924
703.967, 12045.465
705.265, 12429.566
706.562, 11844.660
707.860, 10794.824
709.157, 10269.340
710.454, 8893.414
711.751, 7946.164
713.047, 6499.857
714.344, 5556.338
715.640, 4357.697
716.936, 3384.402
718.232, 2945.285
719.527, 2099.809
720.823, 1490.281
722.118, 1165.453
723.413, 688.877
724.708, 549.793
726.002, 715.348
727.297, 389.885
728.591, 728.629
729.885, 973.574
731.179, 1195.580
732.472, 1517.002
733.766, 2236.707
735.059, 2998.576
736.352, 3848.961
737.645, 4697.629
738.937, 5920.098
740.230, 6770.592
741.522, 7905.145
742.814, 9176.742
744.106, 10780.383
745.397, 11860.074
746.689, 12999.816
747.980, 14556.605
749.271, 15253.447
750.562, 16556.334
751.853, 16741.281
753.143, 17062.281
754.433, 16775.338
755.723, 15865.449
757.013, 15509.613
758.303, 13666.598
759.592, 12719.887
760.881, 11348.232
762.170, 10180.641
763.459, 8720.113
764.748, 7257.648
766.036, 6456.250
767.325, 4997.916
768.613, 4529.652
769.901, 3590.453
771.188, 2814.324
772.476, 2559.266
773.763, 1888.277
775.050, 2010.361
776.337, 1977.521
777.624, 1723.756
778.910, 1748.062
780.196, 1847.447
781.482, 1723.912
782.768, 2118.453
784.054, 2191.074
785.339, 2503.775
786.625, 2586.559
787.910, 3151.426
789.195, 3447.375
790.479, 3729.406
791.764, 4044.527
793.048, 4097.734
794.332, 4174.857
795.616, 4177.414
796.900, 4026.906
798.183, 3702.494
799.467, 3454.168
800.750, 3078.949
802.033, 2454.822
803.316, 2346.805
804.598, 1424.889
805.880, 1487.098
807.163, 1384.443
808.445, 513.947
809.726, 348.584
811.008, 86.342
812.289, 45.793
813.570, 21.146
814.851, 180.822
816.132, 329.766
817.413, 530.736
818.693, 413.816
819.973, 511.959
821.253, 534.201
822.533, 345.549
823.813, 453.924
825.092, 536.371
826.371, 470.922
827.650, 465.545
828.929, 340.238
830.208, 246.949
831.486, 203.008
832.764, 118.293
834.042, 50.877
835.320, 111.631
836.598, 257.256
837.875, 199.994
839.152, 413.852
840.429, 802.828
841.706, 588.928
842.983, 864.195
844.259, 1271.662
845.536, 1123.297
846.812, 1660.129
848.088, 1787.137
849.363, 2327.334
850.639, 2781.703
851.914, 2865.227
853.189, 3586.881
854.464, 4228.727
855.739, 4908.725
857.013, 5574.211
858.288, 5639.293
859.562, 6840.918
860.836, 7779.807
862.110, 8339.941
863.383, 9721.344
864.656, 10420.070
865.930, 11908.098
867.203, 13379.449
868.475, 14752.887
869.748, 16290.258
871.020, 17865.361
872.292, 19325.887
873.564, 20613.676
874.836, 22172.746
876.108, 23228.031
877.379, 24107.537
878.650, 24969.191
879.922, 25216.041
881.192, 24931.061
882.463, 24452.275
883.733, 23531.662
885.004, 22478.242
886.274, 21134.000
887.544, 20215.979
888.813, 18350.121
890.083, 17087.408
891.352, 15818.889
892.621, 14420.551
893.890, 13311.414
895.159, 12153.422
896.427, 11303.645
897.695, 10439.578
898.964, 9941.730
900.232, 9174.539
901.499, 8577.557
902.767, 8369.709
904.034, 7529.070
905.301, 7191.570
906.568, 7002.285
907.835, 6692.143
909.102, 6423.164
910.368, 6165.348
911.634, 6158.727
912.900, 5725.281
914.166, 5881.025
915.432, 5713.928
916.697, 5396.990
917.962, 5680.252
919.227, 5550.660
920.492, 5564.232
921.757, 5514.951
923.021, 5604.545
924.285, 5827.838
925.550, 5847.059
926.813, 6050.496
928.077, 6168.096
929.341, 6455.848
930.604, 6707.771
931.867, 6694.869
933.130, 7061.125
934.393, 7851.529
935.655, 7581.090
936.918, 8366.805
938.180, 8469.664
939.442, 9178.676
940.703, 10062.857
941.965, 10729.180
943.226, 11639.441
944.488, 12619.273
945.749, 13513.062
947.009, 14868.801
948.270, 16043.484
949.530, 17552.918
950.791, 19252.215
952.051, 20855.053
953.311, 22449.635
954.570, 24904.471
955.830, 26495.340
957.089, 28517.660
958.348, 29887.822
959.607, 31537.133
960.866, 32582.590
962.124, 33789.180
963.383, 35087.926
964.641, 35313.641
965.899, 35940.547
967.156, 35831.324
968.414, 36001.605
969.671, 35429.184
970.928, 34438.859
972.185, 33902.863
973.442, 32851.980
974.699, 31971.604
975.955, 31305.264
977.211, 29589.033
978.468, 28742.350
979.723, 27590.203
980.979, 26472.275
982.234, 26559.811
983.490, 24653.418
984.745, 24705.594
986.000, 24151.258
987.254, 23514.775
988.509, 23973.439
989.763, 23883.246
991.017, 24176.197
992.271, 24948.293
993.525, 25038.547
994.779, 25739.941
996.032, 26748.488
997.285, 27478.176
998.538, 28040.014
999.791, 30481.990
1001.044, 30938.109
1002.296, 32628.363
1003.548, 33226.758
1004.800, 33575.277
1006.052, 34833.914
1007.304, 34896.703
1008.555, 35528.906
1009.807, 36331.984
1011.058, 36515.867
1012.309, 36472.188
1013.559, 36159.637
1014.810, 35613.223
1016.060, 35797.902
1017.310, 35330.730
1018.560, 34609.750
1019.810, 34330.809
1021.060, 34112.965
1022.309, 32849.250
1023.558, 32855.570
1024.807, 31460.801
1026.056, 30884.412
1027.305, 29605.123
1028.553, 29198.936
1029.801, 27673.135
1031.049, 26080.145
1032.297, 24762.053
1033.545, 23319.697
1034.793, 22113.342
1036.040, 20595.791
1037.287, 19272.664
1038.534, 17817.473
1039.781, 16568.117
1041.027, 14656.676
1042.274, 13613.959
1043.520, 12687.721
1044.766, 11069.828
1046.012, 10241.422
1047.257, 9168.727
1048.503, 8666.254
1049.748, 7617.518
1050.993, 7062.977
1052.238, 6390.445
1053.483, 5627.496
1054.727, 5034.105
1055.971, 4916.736
1057.216, 4248.205
1058.459, 3959.818
1059.703, 3520.293
1060.947, 3211.930
1062.190, 3019.168
1063.433, 2611.889
1064.676, 2358.207
1065.919, 2222.807
1067.162, 2197.586
1068.404, 1827.914
1069.646, 1775.518
1070.888, 1642.549
1072.130, 1286.432
1073.372, 1155.742
1074.613, 1275.143
1075.855, 972.725
1077.096, 965.736
1078.337, 993.252
1079.578, 843.836
1080.818, 808.037
1082.059, 546.291
1083.299, 781.914
1084.539, 300.660
1085.779, 462.500
1087.018, 335.156
1088.258, 332.232
1089.497, 127.574
1090.736, 115.721
1091.975, 3.262
1093.213, 17.262
1094.452, 96.771
1095.690, 61.006
1096.928, 163.719
1098.166, 21.217
1099.404, 100.104
1100.642, 121.684
1101.879, 168.041
1103.116, 3.393
1104.353, 33.301
1105.590, 23.080
1106.827, 201.426
1108.063, 141.193
1109.299, 251.479
1110.536, 376.205
1111.771, 362.750
1113.007, 481.916
1114.243, 477.475
1115.478, 523.570
1116.713, 697.041
1117.948, 665.852
1119.183, 724.428
1120.418, 907.039
1121.652, 744.598
1122.886, 779.580
1124.120, 778.412
1125.354, 736.002
1126.588, 841.172
1127.821, 649.014
1129.055, 720.781
1130.288, 779.996
1131.521, 655.986
1132.753, 543.625
1133.986, 527.906
1135.218, 599.205
1136.450, 270.480
1137.682, 549.141
1138.914, 279.684
1140.146, 298.363
1141.377, 220.811
1142.609, 154.477
1143.840, 158.541
1145.071, 197.549
1146.301, 212.156
1147.532, 106.262
1148.762, 181.701
1149.992, 76.084
1151.222, 61.945
1152.452, 90.994
1153.682, 34.082
1154.911, 132.264
1156.140, 64.375
1157.369, 11.314
1158.598, 46.982
1159.827, 161.951
1161.055, 121.264
1162.284, 167.199
1163.512, 39.094
1164.740, 46.998
1165.967, 43.857
1167.195, 109.162
1168.422, 64.594
1169.650, 195.926
1170.877, 51.611
1172.103, 5.633
1173.330, 26.160
1174.557, 156.840
1175.783, 178.031
1177.009, 161.869
1178.235, 67.389
1179.461, 99.523
1180.686, 72.162
1181.912, 103.996
1183.137, 109.393
1184.362, 207.043
1185.587, 10.195
1186.811, 3.150
1188.036, 108.744
1189.260, 115.725
1190.484, 166.752
1191.708, 25.402
1192.932, 203.469
1194.155, 226.586
1195.378, 226.055
1196.602, 5.316
1197.825, 169.178
1199.047, 115.266
1200.270, 170.781
1201.492, 173.172
1202.715, 188.490
1203.937, 83.088
1205.159, 10.354
1206.380, 0.066
1207.602, 94.615
1208.823, 37.066
1210.044, 105.199
1211.265, 60.377
1212.486, 15.369
1213.707, 112.244
1214.927, 115.189
1216.147, 8.219
1217.367, 149.053
1218.587, 172.715
1219.807, 43.213
1221.027, 104.477
1222.246, 168.391
1223.465, 19.580
1224.684, 114.479
1225.903, 15.174
1227.121, 24.547
1228.340, 71.521
1229.558, 131.395
1230.776, 94.090
1231.994, 66.865
1233.212, 209.516
1234.429, 132.008
1235.646, 5.012
1236.864, 310.748
1238.081, 254.316
1239.297, 214.611
1240.514, 272.779
1241.730, 333.775
1242.947, 324.166
1244.163, 283.656
1245.378, 319.842
1246.594, 222.078
1247.810, 138.723
1249.025, 293.725
1250.240, 146.254
1251.455, 152.697
1252.670, 160.879
1253.885, 113.914
1255.099, 177.592
1256.313, 120.279
1257.527, 227.768
1258.741, 261.070
1259.955, 20.809
1261.168, 154.074
1262.382, 79.758
1263.595, 324.240
1264.808, 264.541
1266.021, 114.654
1267.233, 279.830
1268.446, 256.564
1269.658, 94.318
1270.870, 309.672
1272.082, 203.842
1273.294, 229.832
1274.505, 144.637
1275.716, 287.254
1276.928, 142.697
1278.139, 260.943
1279.349, 222.865
1280.560, 222.588
1281.770, 292.113
1282.981, 204.432
1284.191, 269.545
1285.401, 203.473
1286.610, 133.275
1287.820, 203.811
1289.029, 120.279
1290.239, 255.574
1291.448, 183.688
1292.656, 212.639
1293.865, 202.416
1295.073, 329.604
1296.282, 297.088
1297.490, 191.408
1298.698, 308.426
1299.906, 286.008
1301.113, 291.658
1302.320, 438.891
1303.528, 345.344
1304.735, 270.449
1305.942, 374.627
1307.148, 313.330
1308.355, 299.572
1309.561, 481.021
1310.767, 329.857
1311.973, 311.449
1313.179, 199.211
1314.384, 427.555
1315.590, 195.408
1316.795, 433.756
1318.000, 199.707
1319.205, 295.645
1320.410, 328.342
1321.614, 203.705
1322.819, 430.523
1324.023, 173.637
1325.227, 339.506
1326.431, 364.223
1327.634, 85.217
1328.838, 150.654
1330.041, 271.592
1331.244, 234.779
1332.447, 103.275
1333.650, 120.125
1334.852, 189.732
1336.055, 273.914
1337.257, 270.170
1338.459, 285.143
1339.661, 332.756
1340.862, 190.340
1342.064, 277.381
1343.265, 260.438
1344.466, 182.449
1345.667, 286.479
1346.868, 375.650
1348.068, 266.816
1349.269, 163.180
1350.469, 408.311
1351.669, 236.580
1352.869, 360.420
1354.069, 572.432
1355.268, 132.854
1356.468, 358.648
1357.667, 486.941
1358.866, 399.871
1360.065, 478.129
1361.263, 494.090
1362.462, 511.840
1363.660, 494.713
1364.858, 551.762
1366.056, 457.072
1367.254, 355.781
1368.451, 312.566
1369.649, 307.457
1370.846, 482.541
1372.043, 342.682
1373.240, 359.229
1374.436, 327.443
1375.633, 250.900
1376.829, 226.742
1378.025, 216.166
1379.221, 286.604
1380.417, 382.395
1381.613, 366.109
1382.808, 351.250
1384.003, 292.391
1385.199, 315.473
1386.393, 257.740
1387.588, 310.256
1388.783, 304.066
1389.977, 251.641
1391.171, 272.125
1392.365, 164.490
1393.559, 259.979
1394.753, 198.121
1395.946, 258.553
1397.140, 229.832
1398.333, 210.973
1399.526, 324.438
1400.719, 240.131
1401.911, 294.805
1403.104, 254.428
1404.296, 198.750
1405.488, 382.766
1406.680, 120.883
1407.872, 220.254
1409.063, 195.615
1410.255, 37.230
1411.446, 346.139
1412.637, 34.736
1413.828, 144.865
1415.018, 167.502
1416.209, 162.307
1417.399, 123.328
1418.589, 170.357
1419.779, 178.137
1420.969, 200.227
1422.159, 153.365
1423.348, 140.951
1424.537, 111.959
1425.726, 73.363
1426.915, 74.768
1428.104, 18.758
1429.293, 0.891
1430.481, 0.000
##END=



