##NAMES=Kornerupine
##RRUFFID=R050214
##IDEAL CHEMISTRY=(Mg,Fe^2+^,Al,[box])_10_(Si,Al,B)_5_O_21_(OH,F)_2_
##LOCALITY=Sri Lanka
##OWNER=RRUFF
##SOURCE=Jibamitra Ganguly
##DESCRIPTION=Water-worn single crystal fragment
##STATUS=The identification of this mineral has been confirmed by X-ray diffraction and chemical analysis
##URL=rruff.info/R050214
##MEASURED CHEMISTRY=(Mg_3.63_[box]_0.21_Fe^2+^_0.14_Na_0.02_)_4_Al_6.00_(Si_2.44_Al_1.97_B_0.59_)_5_O_21_(OH) ;   B and Li not measured; B estimated by charge balance
##PIN_ID=L00056
##ORIENTATION=Laser parallel to -c* (0 0 -1). Fiducial mark perpendicular to laser is parallel to -a [-1 0 0]
105.908, 0.000
107.300, 2.330
108.691, 204.245
110.082, 100.687
111.473, 137.307
112.864, 1.947
114.254, 384.260
115.644, 321.805
117.034, 308.213
118.424, 85.133
119.813, 229.874
121.203, 10.131
122.592, 67.354
123.981, 54.814
125.369, 57.955
126.758, 71.070
128.146, 102.653
129.534, 178.582
130.922, 125.657
132.309, 82.705
133.696, 39.576
135.083, 346.133
136.470, 251.264
137.857, 460.864
139.243, 291.843
140.630, 335.119
142.016, 261.622
143.401, 235.299
144.787, 286.104
146.172, 295.997
147.557, 272.936
148.942, 159.847
150.327, 284.647
151.711, 209.273
153.096, 472.670
154.480, 511.794
155.863, 527.609
157.247, 794.084
158.630, 835.190
160.013, 1087.906
161.396, 878.207
162.779, 1010.072
164.161, 1086.486
165.544, 963.433
166.926, 858.898
168.308, 734.867
169.689, 597.321
171.070, 825.248
172.452, 751.635
173.833, 757.472
175.213, 747.761
176.594, 772.503
177.974, 781.708
179.354, 848.394
180.734, 879.583
182.114, 956.283
183.493, 1039.484
184.872, 921.171
186.251, 1105.320
187.630, 1030.912
189.008, 1010.830
190.387, 1129.749
191.765, 872.711
193.143, 1082.739
194.520, 735.862
195.898, 918.107
197.275, 881.477
198.652, 977.984
200.029, 926.657
201.405, 953.514
202.782, 940.561
204.158, 1146.804
205.534, 1298.244
206.909, 1164.888
208.285, 1516.734
209.660, 1711.787
211.035, 1541.045
212.410, 1755.508
213.784, 1825.174
215.159, 1953.045
216.533, 2150.119
217.907, 2136.395
219.281, 2328.869
220.654, 2304.662
222.027, 2267.455
223.400, 2222.609
224.773, 2226.957
226.146, 2095.490
227.518, 1944.207
228.891, 1683.105
230.263, 1646.182
231.634, 1619.432
233.006, 1488.855
234.377, 1564.447
235.748, 1582.207
237.119, 1428.131
238.490, 1963.219
239.860, 1839.496
241.231, 1980.164
242.601, 1968.178
243.970, 2142.512
245.340, 2178.092
246.709, 2048.039
248.079, 2311.457
249.448, 1948.404
250.816, 2039.896
252.185, 1959.139
253.553, 1988.000
254.921, 2069.516
256.289, 2244.910
257.657, 2268.855
259.024, 2363.029
260.391, 2526.281
261.758, 2511.582
263.125, 2727.926
264.492, 2757.354
265.858, 2686.826
267.224, 2658.336
268.590, 2365.879
269.956, 2395.447
271.321, 2207.377
272.687, 1906.164
274.052, 1779.375
275.416, 1833.002
276.781, 1604.090
278.146, 1401.254
279.510, 1614.141
280.874, 1613.432
282.237, 2046.154
283.601, 2137.293
284.964, 2526.816
286.327, 3350.484
287.690, 3731.223
289.053, 4091.826
290.416, 5115.766
291.778, 5267.990
293.140, 5658.510
294.502, 5447.285
295.863, 5279.291
297.225, 5010.516
298.586, 4644.949
299.947, 4281.586
301.308, 3699.412
302.668, 3353.426
304.029, 3416.617
305.389, 3367.982
306.749, 3231.514
308.108, 3550.209
309.468, 3703.059
310.827, 3727.059
312.186, 3919.205
313.545, 4210.490
314.903, 4531.916
316.262, 4812.469
317.620, 5224.602
318.978, 5709.963
320.336, 6068.895
321.693, 6362.941
323.051, 6790.105
324.408, 6779.381
325.765, 7149.766
327.121, 7028.254
328.478, 6716.848
329.834, 6718.543
331.190, 6539.336
332.546, 5612.227
333.902, 5550.230
335.257, 4639.281
336.612, 4278.426
337.967, 3784.283
339.322, 3076.807
340.677, 2767.215
342.031, 2349.703
343.385, 2144.264
344.739, 1762.900
346.093, 1539.607
347.446, 1441.383
348.799, 1459.225
350.153, 1384.131
351.505, 1470.098
352.858, 1306.127
354.210, 1508.215
355.563, 1422.363
356.915, 1729.572
358.267, 2130.838
359.618, 2326.164
360.969, 3018.547
362.321, 3336.988
363.672, 3868.482
365.022, 4213.033
366.373, 4567.635
367.723, 4854.293
369.073, 5257.000
370.423, 5484.754
371.773, 5566.059
373.122, 5752.096
374.471, 6129.312
375.821, 6008.799
377.169, 6485.666
378.518, 6313.691
379.866, 6659.723
381.215, 7056.938
382.563, 7258.400
383.910, 7467.467
385.258, 8036.889
386.605, 8769.453
387.952, 8964.641
389.299, 9938.336
390.646, 10342.625
391.992, 11184.930
393.339, 11938.449
394.685, 12520.781
396.031, 13256.098
397.376, 13333.252
398.722, 13471.566
400.067, 12860.012
401.412, 12401.506
402.757, 11983.496
404.101, 10858.523
405.446, 9664.686
406.790, 8685.625
408.134, 7950.066
409.478, 7201.760
410.821, 6462.186
412.165, 5470.541
413.508, 5417.133
414.851, 5035.518
416.193, 4513.936
417.536, 4593.275
418.878, 4557.684
420.220, 4507.477
421.562, 4540.348
422.904, 4575.826
424.245, 4616.031
425.586, 4474.207
426.927, 4667.352
428.268, 4168.467
429.609, 3870.551
430.949, 3835.602
432.289, 3762.621
433.629, 3168.660
434.969, 3246.221
436.309, 2599.400
437.648, 2539.506
438.987, 2339.605
440.326, 2005.824
441.665, 2117.111
443.003, 2155.641
444.342, 1998.020
445.680, 1908.439
447.018, 1921.246
448.355, 1974.600
449.693, 2155.186
451.030, 2035.924
452.367, 2401.895
453.704, 2266.291
455.041, 2449.117
456.377, 2511.154
457.713, 2720.779
459.049, 2918.771
460.385, 3047.742
461.721, 3435.688
463.056, 3440.607
464.391, 3380.500
465.726, 3644.367
467.061, 3595.203
468.395, 3372.010
469.730, 3437.787
471.064, 3068.531
472.398, 3322.244
473.731, 2773.922
475.065, 2723.570
476.398, 2419.180
477.731, 2348.756
479.064, 1929.293
480.397, 1678.795
481.729, 1536.258
483.062, 1316.395
484.394, 1068.479
485.725, 1091.414
487.057, 553.719
488.389, 436.982
489.720, 176.203
491.051, 241.383
492.382, 317.520
493.712, 132.611
495.043, 55.660
496.373, 12.350
497.703, 31.561
499.032, 123.357
500.362, 319.209
501.691, 480.969
503.020, 631.705
504.349, 905.840
505.678, 1165.117
507.007, 1613.848
508.335, 1940.549
509.663, 2378.248
510.991, 2867.936
512.319, 3223.586
513.646, 3496.223
514.973, 3425.861
516.300, 3623.488
517.627, 3265.092
518.954, 2628.656
520.280, 2664.172
521.607, 2038.635
522.933, 1638.047
524.259, 1155.404
525.584, 702.709
526.910, 664.961
528.235, 412.158
529.560, 381.301
530.885, 4.391
532.209, 107.633
533.534, 90.822
534.858, 29.828
536.182, 130.623
537.506, 11.258
538.829, 52.986
540.152, 26.131
541.476, 47.859
542.799, 137.891
544.121, 40.145
545.444, 173.539
546.766, 261.150
548.088, 140.020
549.410, 323.086
550.732, 162.447
552.053, 308.018
553.375, 494.877
554.696, 398.121
556.017, 378.701
557.337, 157.605
558.658, 109.719
559.978, 287.020
561.298, 32.598
562.618, 135.322
563.938, 120.244
565.257, 20.646
566.576, 73.586
567.895, 46.400
569.214, 359.516
570.533, 193.955
571.851, 245.332
573.170, 323.648
574.488, 261.914
575.805, 300.121
577.123, 74.273
578.440, 212.336
579.758, 422.336
581.075, 189.283
582.391, 416.168
583.708, 367.002
585.024, 330.783
586.341, 483.514
587.657, 478.199
588.972, 578.830
590.288, 462.414
591.603, 431.105
592.918, 195.434
594.233, 228.861
595.548, 126.242
596.863, 10.451
598.177, 115.268
599.491, 116.982
600.805, 36.428
602.119, 68.730
603.432, 36.184
604.746, 25.229
606.059, 156.461
607.372, 127.344
608.685, 90.600
609.997, 153.533
611.309, 59.852
612.621, 56.689
613.933, 235.148
615.245, 154.564
616.557, 404.932
617.868, 323.258
619.179, 454.543
620.490, 453.787
621.801, 875.992
623.111, 854.158
624.421, 1313.289
625.731, 833.379
627.041, 1195.434
628.351, 769.453
629.660, 657.436
630.970, 886.383
632.279, 759.299
633.588, 906.180
634.896, 859.025
636.205, 1187.842
637.513, 876.625
638.821, 1365.379
640.129, 1505.102
641.437, 1834.795
642.744, 1865.461
644.051, 2164.102
645.358, 2933.715
646.665, 2976.307
647.972, 2937.871
649.278, 3316.414
650.584, 3279.934
651.890, 3927.404
653.196, 3652.904
654.502, 3952.377
655.807, 3467.203
657.113, 3455.822
658.418, 3767.312
659.722, 3123.217
661.027, 2822.662
662.331, 2502.910
663.636, 2521.539
664.940, 1770.562
666.244, 2095.902
667.547, 1416.471
668.851, 1461.314
670.154, 1232.268
671.457, 861.064
672.760, 954.396
674.062, 615.637
675.365, 577.197
676.667, 561.801
677.969, 456.994
679.271, 613.178
680.572, 659.926
681.874, 810.523
683.175, 996.682
684.476, 1194.836
685.777, 1520.982
687.077, 1932.217
688.378, 2258.766
689.678, 2856.715
690.978, 3241.529
692.278, 3621.119
693.577, 5084.373
694.877, 5445.510
696.176, 6856.691
697.475, 7741.727
698.774, 9023.561
700.072, 9896.832
701.371, 10924.797
702.669, 11080.658
703.967, 11819.939
705.265, 12302.758
706.562, 11659.023
707.860, 10276.320
709.157, 9984.439
710.454, 8464.801
711.751, 7714.213
713.047, 6169.840
714.344, 5367.346
715.640, 4222.775
716.936, 3611.195
718.232, 2980.170
719.527, 2403.152
720.823, 1790.045
722.118, 1525.207
723.413, 1169.910
724.708, 829.408
726.002, 1138.211
727.297, 779.129
728.591, 1340.852
729.885, 1741.816
731.179, 1880.783
732.472, 2282.859
733.766, 2964.902
735.059, 3808.596
736.352, 4663.848
737.645, 5487.307
738.937, 6588.305
740.230, 7534.125
741.522, 9022.629
742.814, 10264.197
744.106, 11888.836
745.397, 12876.539
746.689, 13616.316
747.980, 15472.160
749.271, 16128.578
750.562, 17122.469
751.853, 16990.514
753.143, 17329.652
754.433, 16621.758
755.723, 15700.887
757.013, 15094.852
758.303, 13288.051
759.592, 12342.285
760.881, 11005.219
762.170, 9576.688
763.459, 8376.008
764.748, 6804.254
766.036, 6163.354
767.325, 4863.105
768.613, 4264.500
769.901, 3529.768
771.188, 2638.521
772.476, 2642.986
773.763, 1994.551
775.050, 2120.215
776.337, 1874.980
777.624, 1810.850
778.910, 1638.824
780.196, 1673.510
781.482, 1667.086
782.768, 1847.375
784.054, 2233.773
785.339, 2430.277
786.625, 2683.842
787.910, 3057.617
789.195, 3140.453
790.479, 3377.402
791.764, 3576.477
793.048, 3772.705
794.332, 3865.047
795.616, 3604.582
796.900, 3590.291
798.183, 3068.156
799.467, 2937.156
800.750, 2445.385
802.033, 1914.732
803.316, 1865.246
804.598, 1063.881
805.880, 1136.693
807.163, 700.637
808.445, 578.709
809.726, 303.922
811.008, 18.732
812.289, 57.268
813.570, 188.691
814.851, 140.031
816.132, 374.279
817.413, 511.500
818.693, 162.738
819.973, 353.887
821.253, 306.996
822.533, 123.055
823.813, 291.012
825.092, 397.906
826.371, 304.777
827.650, 243.592
828.929, 117.332
830.208, 21.961
831.486, 60.385
832.764, 125.775
834.042, 221.934
835.320, 228.836
836.598, 275.873
837.875, 349.053
839.152, 374.369
840.429, 934.824
841.706, 737.416
842.983, 971.178
844.259, 1387.135
845.536, 1275.283
846.812, 1715.596
848.088, 2072.115
849.363, 2292.809
850.639, 2996.664
851.914, 3325.615
853.189, 3850.691
854.464, 4141.328
855.739, 4954.945
857.013, 5098.785
858.288, 5735.873
859.562, 6601.182
860.836, 7602.750
862.110, 7983.547
863.383, 9295.598
864.656, 9858.965
865.930, 11189.623
867.203, 12358.562
868.475, 13548.770
869.748, 14828.312
871.020, 15945.869
872.292, 17043.807
873.564, 18203.852
874.836, 19089.188
876.108, 20059.705
877.379, 20981.420
878.650, 21331.326
879.922, 21390.441
881.192, 20938.725
882.463, 20737.197
883.733, 19651.855
885.004, 18614.660
886.274, 17541.623
887.544, 16680.793
888.813, 15193.164
890.083, 13995.672
891.352, 13059.402
892.621, 11766.336
893.890, 11095.473
895.159, 10155.832
896.427, 9261.383
897.695, 9097.145
898.964, 8100.094
900.232, 7579.211
901.499, 7032.553
902.767, 6729.062
904.034, 6182.750
905.301, 5879.598
906.568, 5775.635
907.835, 5420.891
909.102, 5154.371
910.368, 4919.068
911.634, 5008.027
912.900, 4621.252
914.166, 5068.678
915.432, 4653.367
916.697, 4138.279
917.962, 4638.379
919.227, 4545.715
920.492, 4719.279
921.757, 4520.020
923.021, 4910.941
924.285, 4670.023
925.550, 5102.293
926.813, 5025.736
928.077, 5140.342
929.341, 5206.090
930.604, 5771.990
931.867, 5724.098
933.130, 6040.354
934.393, 6754.760
935.655, 6566.312
936.918, 7714.047
938.180, 7618.928
939.442, 7941.965
940.703, 8893.154
941.965, 9689.484
943.226, 10134.891
944.488, 11342.668
945.749, 12490.531
947.009, 13703.189
948.270, 15170.008
949.530, 16475.336
950.791, 18093.137
952.051, 19547.240
953.311, 20838.842
954.570, 23161.826
955.830, 24634.816
957.089, 26187.998
958.348, 27491.734
959.607, 28928.957
960.866, 29705.309
962.124, 30562.805
963.383, 31473.057
964.641, 31876.730
965.899, 32146.115
967.156, 31899.072
968.414, 31260.326
969.671, 30947.314
970.928, 29866.020
972.185, 29554.500
973.442, 28369.857
974.699, 27861.047
975.955, 26493.230
977.211, 25139.674
978.468, 24482.684
979.723, 23239.891
980.979, 22179.883
982.234, 22307.936
983.490, 20426.498
984.745, 20384.166
986.000, 20159.955
987.254, 19350.854
988.509, 19712.072
989.763, 19206.188
991.017, 19268.414
992.271, 19576.738
993.525, 19813.176
994.779, 20150.717
996.032, 20839.377
997.285, 21610.137
998.538, 21711.000
999.791, 23209.963
1001.044, 23425.033
1002.296, 24833.480
1003.548, 25103.752
1004.800, 25381.125
1006.052, 25882.730
1007.304, 26020.295
1008.555, 26470.072
1009.807, 26728.223
1011.058, 26890.068
1012.309, 27060.012
1013.559, 26678.047
1014.810, 26241.164
1016.060, 26667.312
1017.310, 26768.598
1018.560, 25737.836
1019.810, 25929.279
1021.060, 25774.854
1022.309, 24933.445
1023.558, 24740.402
1024.807, 23611.473
1026.056, 23336.275
1027.305, 22343.143
1028.553, 21758.133
1029.801, 20449.453
1031.049, 19203.604
1032.297, 18033.506
1033.545, 16760.455
1034.793, 15781.785
1036.040, 14399.387
1037.287, 13422.086
1038.534, 12488.828
1039.781, 11742.395
1041.027, 10686.711
1042.274, 9355.863
1043.520, 8754.953
1044.766, 7685.676
1046.012, 6802.473
1047.257, 6235.738
1048.503, 5928.371
1049.748, 4981.375
1050.993, 4749.699
1052.238, 4179.053
1053.483, 3580.484
1054.727, 3204.125
1055.971, 2792.869
1057.216, 2414.635
1058.459, 2250.973
1059.703, 2001.938
1060.947, 1922.135
1062.190, 1605.418
1063.433, 1388.480
1064.676, 1119.307
1065.919, 969.559
1067.162, 881.168
1068.404, 823.082
1069.646, 725.598
1070.888, 882.207
1072.130, 649.277
1073.372, 590.502
1074.613, 893.602
1075.855, 503.836
1077.096, 270.346
1078.337, 674.926
1079.578, 453.270
1080.818, 600.963
1082.059, 423.205
1083.299, 535.812
1084.539, 236.574
1085.779, 296.873
1087.018, 247.295
1088.258, 228.500
1089.497, 25.418
1090.736, 62.381
1091.975, 88.074
1093.213, 203.953
1094.452, 2.924
1095.690, 364.000
1096.928, 299.764
1098.166, 203.199
1099.404, 94.033
1100.642, 490.193
1101.879, 17.389
1103.116, 231.176
1104.353, 1.877
1105.590, 262.730
1106.827, 43.418
1108.063, 27.240
1109.299, 318.488
1110.536, 113.244
1111.771, 79.387
1113.007, 322.898
1114.243, 281.492
1115.478, 193.158
1116.713, 396.842
1117.948, 461.354
1119.183, 324.787
1120.418, 464.172
1121.652, 557.152
1122.886, 495.568
1124.120, 702.660
1125.354, 293.342
1126.588, 607.240
1127.821, 337.182
1129.055, 502.186
1130.288, 564.439
1131.521, 510.641
1132.753, 171.059
1133.986, 367.627
1135.218, 640.580
1136.450, 17.303
1137.682, 648.059
1138.914, 78.150
1140.146, 102.746
1141.377, 105.207
1142.609, 50.090
1143.840, 75.520
1145.071, 227.555
1146.301, 194.543
1147.532, 184.684
1148.762, 81.572
1149.992, 19.166
1151.222, 117.217
1152.452, 134.465
1153.682, 8.211
1154.911, 170.223
1156.140, 73.830
1157.369, 64.918
1158.598, 96.814
1159.827, 288.139
1161.055, 198.621
1162.284, 331.643
1163.512, 72.135
1164.740, 339.957
1165.967, 84.201
1167.195, 392.502
1168.422, 139.260
1169.650, 280.350
1170.877, 0.262
1172.103, 97.037
1173.330, 189.025
1174.557, 200.852
1175.783, 197.275
1177.009, 162.057
1178.235, 65.949
1179.461, 36.855
1180.686, 1.180
1181.912, 149.867
1183.137, 214.900
1184.362, 36.166
1185.587, 17.809
1186.811, 272.475
1188.036, 116.285
1189.260, 78.371
1190.484, 58.711
1191.708, 161.414
1192.932, 16.320
1194.155, 100.617
1195.378, 8.041
1196.602, 93.037
1197.825, 157.287
1199.047, 123.939
1200.270, 66.211
1201.492, 287.912
1202.715, 258.104
1203.937, 236.154
1205.159, 149.211
1206.380, 70.432
1207.602, 73.035
1208.823, 136.137
1210.044, 77.564
1211.265, 2.723
1212.486, 180.129
1213.707, 71.395
1214.927, 126.613
1216.147, 34.180
1217.367, 229.451
1218.587, 27.109
1219.807, 206.594
1221.027, 11.908
1222.246, 50.049
1223.465, 160.996
1224.684, 464.766
1225.903, 217.387
1227.121, 71.146
1228.340, 285.117
1229.558, 266.223
1230.776, 329.188
1231.994, 3.006
1233.212, 364.645
1234.429, 194.139
1235.646, 167.482
1236.864, 426.660
1238.081, 147.699
1239.297, 602.623
1240.514, 318.146
1241.730, 303.553
1242.947, 166.129
1244.163, 394.879
1245.378, 430.346
1246.594, 336.697
1247.810, 131.727
1249.025, 508.246
1250.240, 358.326
1251.455, 316.400
1252.670, 453.230
1253.885, 372.854
1255.099, 300.598
1256.313, 61.199
1257.527, 49.656
1258.741, 383.912
1259.955, 102.047
1261.168, 142.055
1262.382, 560.873
1263.595, 282.178
1264.808, 292.711
1266.021, 411.098
1267.233, 510.455
1268.446, 409.572
1269.658, 326.557
1270.870, 574.402
1272.082, 525.113
1273.294, 346.691
1274.505, 496.408
1275.716, 428.732
1276.928, 430.689
1278.139, 617.490
1279.349, 556.143
1280.560, 451.637
1281.770, 492.840
1282.981, 469.115
1284.191, 659.465
1285.401, 478.113
1286.610, 495.617
1287.820, 406.055
1289.029, 259.383
1290.239, 586.549
1291.448, 404.553
1292.656, 555.990
1293.865, 413.391
1295.073, 522.711
1296.282, 272.555
1297.490, 519.623
1298.698, 635.500
1299.906, 546.443
1301.113, 436.844
1302.320, 372.248
1303.528, 549.822
1304.735, 346.662
1305.942, 413.201
1307.148, 710.695
1308.355, 548.010
1309.561, 791.029
1310.767, 615.752
1311.973, 575.973
1313.179, 325.666
1314.384, 786.162
1315.590, 637.781
1316.795, 562.764
1318.000, 494.445
1319.205, 511.090
1320.410, 657.697
1321.614, 416.205
1322.819, 676.805
1324.023, 421.986
1325.227, 598.234
1326.431, 353.398
1327.634, 292.670
1328.838, 286.674
1330.041, 347.588
1331.244, 326.934
1332.447, 74.980
1333.650, 157.197
1334.852, 324.545
1336.055, 95.658
1337.257, 162.686
1338.459, 98.564
1339.661, 93.594
1340.862, 233.486
1342.064, 138.818
1343.265, 169.834
1344.466, 138.404
1345.667, 178.777
1346.868, 439.678
1348.068, 139.973
1349.269, 192.932
1350.469, 480.992
1351.669, 244.926
1352.869, 403.377
1354.069, 454.383
1355.268, 21.914
1356.468, 444.895
1357.667, 455.191
1358.866, 69.236
1360.065, 385.158
1361.263, 213.895
1362.462, 336.371
1363.660, 649.807
1364.858, 375.918
1366.056, 435.053
1367.254, 458.732
1368.451, 288.148
1369.649, 289.174
1370.846, 389.693
1372.043, 322.664
1373.240, 341.486
1374.436, 386.262
1375.633, 433.316
1376.829, 418.461
1378.025, 269.984
1379.221, 370.639
1380.417, 449.992
1381.613, 387.170
1382.808, 625.029
1384.003, 521.070
1385.199, 492.201
1386.393, 304.488
1387.588, 307.551
1388.783, 197.043
1389.977, 549.109
1391.171, 284.344
1392.365, 414.064
1393.559, 355.246
1394.753, 205.604
1395.946, 557.775
1397.140, 61.412
1398.333, 335.844
1399.526, 285.248
1400.719, 193.814
1401.911, 234.301
1403.104, 219.688
1404.296, 116.852
1405.488, 441.729
1406.680, 71.578
1407.872, 190.430
1409.063, 510.922
1410.255, 83.967
1411.446, 314.271
1412.637, 171.893
1413.828, 145.057
1415.018, 390.512
1416.209, 221.254
1417.399, 6.705
1418.589, 508.377
1419.779, 70.252
1420.969, 420.680
1422.159, 61.293
1423.348, 217.191
1424.537, 175.709
1425.726, 127.684
1426.915, 186.990
1428.104, 116.047
1429.293, 129.252
1430.481, 0.000
##END=



