##NAMES=Kurnakovite
##RRUFFID=R050105
##IDEAL CHEMISTRY=MgB_3_O_3_(OH)_5_&#183;5H_2_O
##LOCALITY=Kramer deposit, Boron, Kern County, California, USA
##OWNER=RRUFF
##SOURCE=Rock Currier
##DESCRIPTION=Tabular single crystal
##STATUS=The identification of this mineral has been confirmed by X-ray diffraction and chemical analysis
##URL=rruff.info/R050105
##MEASURED CHEMISTRY=MgB_3_O_3_(OH)_5_Â·5H_2_O
##PIN_ID=L00453
##ORIENTATION=Laser parallel to c* (0 0 1). Fiducial mark perpendicular to laser is parallel to a [1 0 0]
109.387, 0.000
110.777, 282.523
112.168, 1844.047
113.559, 3611.605
114.949, 7463.363
116.339, 7698.478
117.729, 9428.356
119.119, 10218.970
120.508, 9746.954
121.897, 8501.179
123.286, 7139.551
124.675, 6011.370
126.063, 5920.449
127.452, 6896.484
128.840, 7730.213
130.228, 9201.465
131.615, 10105.437
133.003, 10912.671
134.390, 9768.838
135.777, 7895.609
137.164, 5200.388
138.550, 3428.083
139.937, 1821.422
141.323, 1020.986
142.709, 647.240
144.094, 644.816
145.480, 716.721
146.865, 963.209
148.250, 1076.495
149.635, 952.074
151.019, 369.945
152.403, 16.322
153.788, 290.056
155.171, 313.951
156.555, 302.245
157.939, 749.158
159.322, 1455.411
160.705, 2231.930
162.088, 3053.120
163.470, 4004.484
164.853, 4961.950
166.235, 5788.441
167.617, 6236.896
168.998, 6588.260
170.380, 6794.475
171.761, 6924.497
173.142, 6840.279
174.523, 7191.758
175.904, 6930.814
177.284, 6325.314
178.664, 5712.314
180.044, 4337.789
181.424, 3934.721
182.803, 3351.100
184.183, 2929.909
185.562, 2872.134
186.940, 3180.762
188.319, 3287.088
189.698, 3647.763
191.076, 3211.262
192.454, 2924.217
193.831, 2250.829
195.209, 1552.127
196.586, 855.417
197.963, 141.848
199.340, 210.123
200.717, 583.210
202.093, 827.328
203.470, 828.346
204.846, 883.483
206.221, 796.356
207.597, 673.000
208.972, 153.367
210.347, 307.527
211.722, 134.529
213.097, 348.795
214.472, 473.217
215.846, 805.663
217.220, 857.206
218.594, 1021.819
219.967, 1197.502
221.341, 1484.259
222.714, 1918.088
224.087, 2413.996
225.460, 3418.982
226.832, 4377.049
228.204, 5369.195
229.577, 6037.422
230.948, 6278.728
232.320, 5952.109
233.692, 5473.559
235.063, 4375.074
236.434, 3052.648
237.805, 2088.916
239.175, 1317.277
240.545, 588.670
241.916, 519.428
243.286, 117.012
244.655, 183.725
246.025, 377.573
247.394, 798.558
248.763, 1200.678
250.132, 1670.933
251.501, 2645.325
252.869, 3169.851
254.237, 3941.513
255.605, 3971.303
256.973, 3874.223
258.340, 3213.270
259.708, 2434.413
261.075, 1590.679
262.442, 893.063
263.808, 374.565
265.175, 107.818
266.541, 184.088
267.907, 253.249
269.273, 232.301
270.639, 130.580
272.004, 105.256
273.369, 743.945
274.734, 1231.586
276.099, 1779.933
277.463, 2169.412
278.828, 3204.977
280.192, 3866.898
281.556, 4172.389
282.919, 4562.883
284.283, 4324.369
285.646, 4186.979
287.009, 3228.021
288.372, 2604.709
289.734, 2156.625
291.097, 1438.937
292.459, 1050.680
293.821, 1021.279
295.183, 742.052
296.544, 977.782
297.905, 1020.333
299.266, 1480.806
300.627, 1834.180
301.988, 2143.477
303.348, 2759.716
304.709, 2929.908
306.069, 3148.066
307.428, 3319.201
308.788, 3217.316
310.147, 2816.419
311.507, 2872.518
312.865, 2626.613
314.224, 2612.699
315.583, 2618.770
316.941, 3024.622
318.299, 3254.607
319.657, 3542.908
321.015, 4077.736
322.372, 4450.203
323.729, 4714.007
325.086, 5044.614
326.443, 5166.336
327.800, 4975.170
329.156, 5171.109
330.512, 4789.152
331.868, 4723.290
333.224, 4729.521
334.579, 4869.842
335.935, 5144.298
337.290, 5568.734
338.645, 6072.299
339.999, 6853.940
341.354, 7702.629
342.708, 8969.388
344.062, 10318.216
345.416, 11683.115
346.769, 13320.077
348.123, 15081.104
349.476, 16974.191
350.829, 19139.340
352.182, 21593.299
353.534, 23988.990
354.887, 25323.717
356.239, 25762.506
357.591, 25401.359
358.942, 23760.270
360.294, 21781.219
361.645, 19242.834
362.996, 16776.002
364.347, 14918.898
365.698, 13186.493
367.048, 12261.996
368.398, 11460.541
369.748, 11005.784
371.098, 10775.689
372.448, 10558.713
373.797, 10740.966
375.146, 10572.798
376.495, 10778.287
377.844, 10795.854
379.192, 10321.509
380.540, 10301.258
381.889, 9324.104
383.236, 8452.053
384.584, 7821.102
385.932, 6597.242
387.279, 5638.432
388.626, 4739.686
389.973, 4131.032
391.319, 3177.515
392.666, 2995.088
394.012, 2376.677
395.358, 2217.295
396.704, 2274.979
398.049, 2169.680
399.394, 2440.399
400.740, 2083.133
402.084, 2445.886
403.429, 2350.661
404.774, 3109.461
406.118, 3473.078
407.462, 3708.924
408.806, 4302.801
410.150, 5454.699
411.493, 6743.621
412.836, 8474.567
414.179, 9944.531
415.522, 11261.520
416.865, 13172.522
418.207, 13943.552
419.549, 13738.594
420.891, 13153.654
422.233, 11943.730
423.575, 10010.828
424.916, 7558.938
426.257, 6428.062
427.598, 4797.762
428.939, 3562.669
430.279, 2747.117
431.619, 1594.674
432.959, 924.438
434.299, 512.701
435.639, 424.925
436.978, 156.770
438.318, 195.605
439.657, 588.622
440.996, 531.040
442.334, 611.839
443.673, 673.068
445.011, 769.765
446.349, 552.984
447.687, 487.618
449.024, 220.632
450.361, 100.891
451.699, 124.669
453.036, 385.148
454.372, 859.604
455.709, 1508.043
457.045, 1952.463
458.381, 3120.863
459.717, 4100.246
461.053, 5526.613
462.388, 6664.963
463.724, 8384.293
465.059, 9873.609
466.394, 10470.906
467.728, 10596.188
469.063, 10782.455
470.397, 9565.703
471.731, 8265.934
473.065, 7114.150
474.398, 5506.350
475.732, 4637.531
477.065, 3381.695
478.398, 2846.844
479.731, 2271.000
481.063, 2040.180
482.396, 1622.549
483.728, 1360.520
485.060, 1237.691
486.391, 990.865
487.723, 1192.041
489.054, 1092.219
490.385, 1404.398
491.716, 1269.578
493.047, 1569.758
494.377, 2256.936
495.708, 2171.113
497.038, 2078.289
498.368, 1841.461
499.697, 1906.633
501.027, 2141.801
502.356, 2332.965
503.685, 2132.129
505.014, 2339.287
506.342, 2014.439
507.671, 2142.590
508.999, 1970.734
510.327, 2079.873
511.655, 1800.006
512.982, 1833.133
514.310, 2129.262
515.637, 1950.383
516.964, 2095.523
518.291, 1887.662
519.617, 2289.805
520.944, 2234.955
522.270, 2026.115
523.596, 2279.348
524.921, 2261.170
526.247, 2397.881
527.572, 2450.703
528.897, 2480.930
530.222, 3016.234
531.547, 2916.535
532.871, 3412.727
534.196, 3368.729
535.520, 3454.326
536.844, 4068.412
538.167, 4283.256
539.491, 4626.383
540.814, 4804.051
542.137, 5234.797
543.460, 5801.727
544.783, 6325.828
546.105, 6615.887
547.427, 7441.027
548.749, 8011.518
550.071, 8756.691
551.393, 9592.219
552.714, 10739.234
554.035, 11390.801
555.356, 12124.285
556.677, 12279.037
557.998, 12034.281
559.318, 11970.984
560.638, 10991.652
561.958, 9891.295
563.278, 8690.910
564.597, 7965.498
565.917, 6732.062
567.236, 5847.604
568.555, 5392.115
569.874, 4381.598
571.192, 4341.047
572.511, 4098.467
573.829, 3782.857
575.147, 3301.217
576.464, 3433.545
577.782, 3153.842
579.099, 3260.107
580.416, 3085.340
581.733, 3426.541
583.050, 3775.713
584.366, 3838.850
585.683, 4520.953
586.999, 4827.076
588.315, 4922.232
589.630, 5306.439
590.946, 5492.688
592.261, 5251.908
593.576, 4693.105
594.891, 4204.262
596.206, 4050.150
597.520, 3975.676
598.834, 3627.684
600.148, 3327.211
601.462, 3331.584
602.776, 3336.049
604.089, 3358.395
605.402, 3704.318
606.715, 3904.328
608.028, 4544.096
609.341, 4656.961
610.653, 5184.693
611.965, 6088.215
613.277, 6758.066
614.589, 7901.910
615.901, 9087.742
617.212, 10707.561
618.523, 12637.369
619.834, 15065.164
621.145, 17276.945
622.456, 19721.723
623.766, 22351.475
625.076, 25784.227
626.386, 27973.957
627.696, 30247.680
629.006, 30475.385
630.315, 32061.082
631.624, 30060.764
632.933, 29191.436
634.242, 27763.092
635.551, 24537.736
636.859, 22327.365
638.167, 19518.980
639.475, 18125.584
640.783, 15141.174
642.090, 13695.748
643.398, 12195.309
644.705, 10774.855
646.012, 9371.387
647.318, 8370.906
648.625, 7676.406
649.931, 6812.891
651.237, 5896.363
652.543, 5306.816
653.849, 4704.258
655.155, 4567.678
656.460, 3815.084
657.765, 3632.477
659.070, 2709.852
660.375, 2603.205
661.679, 2615.547
662.984, 2078.871
664.288, 1861.176
665.592, 1653.465
666.895, 1500.742
668.199, 1252.004
669.502, 1290.258
670.805, 814.908
672.108, 926.148
673.411, 718.557
674.713, 578.715
676.016, 686.039
677.318, 425.590
678.620, 458.170
679.921, 238.705
681.223, 72.854
682.524, 286.266
683.825, 256.285
685.126, 271.529
686.427, 138.080
687.727, 43.807
689.028, 102.562
690.328, 126.416
691.628, 183.277
692.927, 137.883
694.227, 181.818
695.526, 193.369
696.825, 218.164
698.124, 229.984
699.423, 217.258
700.721, 188.691
702.020, 29.311
703.318, 95.029
704.616, 196.881
705.913, 367.920
707.211, 199.234
708.508, 301.260
709.805, 50.717
711.102, 121.891
712.399, 447.355
713.695, 130.562
714.992, 663.721
716.288, 541.840
717.584, 1067.922
718.879, 1173.969
720.175, 1264.977
721.470, 2308.947
722.765, 2455.879
724.060, 2938.773
725.355, 3614.633
726.649, 4302.453
727.944, 5039.234
729.238, 6282.982
730.532, 6566.691
731.825, 8322.363
733.119, 9255.004
734.412, 9821.602
735.705, 10368.160
736.998, 10805.688
738.291, 11163.180
739.584, 10883.633
740.876, 10456.055
742.168, 9782.434
743.460, 8830.781
744.752, 8162.086
746.043, 7474.359
747.334, 6818.508
748.626, 6273.797
749.916, 5696.961
751.207, 5383.092
752.498, 4870.283
753.788, 4747.547
755.078, 4277.986
756.368, 4299.584
757.658, 3994.365
758.947, 3636.344
760.237, 3660.551
761.526, 3176.922
762.815, 3359.441
764.104, 2919.045
765.392, 2987.693
766.680, 2718.340
767.969, 2370.953
769.257, 2779.533
770.544, 2305.076
771.832, 2555.584
773.119, 2338.057
774.406, 2279.492
775.693, 2343.895
776.980, 1991.260
778.267, 2184.588
779.553, 2038.877
780.839, 2192.133
782.125, 2137.354
783.411, 2206.359
784.697, 2335.688
785.982, 2371.799
787.267, 2523.873
788.552, 2619.912
789.837, 2655.914
791.122, 3119.879
792.406, 3136.807
793.690, 3281.695
794.974, 3371.549
796.258, 3330.367
797.542, 3573.145
798.825, 3270.887
800.108, 3478.592
801.391, 2997.258
802.674, 3186.889
803.957, 3088.480
805.239, 2709.035
806.522, 3057.555
807.804, 2057.031
809.085, 2382.473
810.367, 2348.875
811.649, 1686.240
812.930, 1747.566
814.211, 1655.855
815.492, 1286.105
816.772, 1356.316
818.053, 984.490
819.333, 882.043
820.613, 728.145
821.893, 696.797
823.173, 535.010
824.452, 339.117
825.732, 549.262
827.011, 13.248
828.290, 214.361
829.568, 193.367
830.847, 6.336
832.125, 174.145
833.403, 91.119
834.681, 243.162
835.959, 60.854
837.236, 156.627
838.514, 29.660
839.791, 7.682
841.068, 46.631
842.345, 135.973
843.621, 235.148
844.898, 21.496
846.174, 135.814
847.450, 142.279
848.726, 251.443
850.001, 150.416
851.277, 159.324
852.552, 38.746
853.827, 522.576
855.102, 545.180
856.376, 550.775
857.651, 811.238
858.925, 781.449
860.199, 837.621
861.473, 908.535
862.746, 995.910
864.020, 1144.680
865.293, 1062.691
866.566, 909.959
867.839, 980.889
869.112, 916.314
870.384, 989.713
871.656, 1143.086
872.928, 1070.582
874.200, 1069.750
875.472, 1022.043
876.744, 1072.311
878.015, 1015.553
879.286, 992.787
880.557, 904.033
881.828, 885.238
883.098, 874.504
884.369, 759.744
885.639, 856.963
886.909, 785.168
888.178, 707.354
889.448, 726.293
890.717, 692.455
891.987, 695.936
893.256, 716.117
894.524, 760.297
895.793, 802.471
897.061, 1023.666
898.330, 988.850
899.598, 871.049
900.865, 1305.262
902.133, 1367.512
903.401, 1339.777
904.668, 1630.072
905.935, 1784.350
907.202, 1651.604
908.468, 2148.830
909.735, 2425.031
911.001, 2672.209
912.267, 2611.359
913.533, 2813.484
914.799, 3133.658
916.064, 2950.881
917.330, 3451.086
918.595, 3076.270
919.860, 3002.418
921.124, 3350.541
922.389, 2947.633
923.653, 2844.693
924.918, 2505.721
926.182, 2484.732
927.445, 2305.715
928.709, 1921.682
929.972, 1790.619
931.236, 1676.529
932.499, 1572.406
933.761, 1555.252
935.024, 1144.070
936.286, 1130.857
937.549, 1453.629
938.811, 756.369
940.073, 1170.080
941.334, 928.758
942.596, 840.404
943.857, 1087.021
945.118, 1008.604
946.379, 1091.539
947.640, 838.680
948.900, 1144.170
950.161, 935.625
951.421, 823.051
952.681, 976.443
953.940, 1037.805
955.200, 895.135
956.459, 905.432
957.719, 1111.697
958.978, 1045.932
960.236, 884.135
961.495, 691.303
962.753, 659.441
964.012, 403.547
965.270, 383.621
966.527, 570.664
967.785, 418.674
969.043, 371.652
970.300, 192.598
971.557, 52.508
972.814, 150.377
974.071, 23.787
975.327, 22.994
976.583, 47.678
977.840, 150.998
979.095, 100.453
980.351, 101.896
981.607, 25.488
982.862, 164.369
984.117, 263.379
985.372, 132.861
986.627, 366.248
987.882, 28.453
989.136, 57.242
990.390, 67.570
991.644, 248.811
992.898, 11.436
994.152, 240.975
995.405, 295.666
996.659, 308.127
997.912, 838.209
999.165, 768.508
1000.417, 1001.045
1001.670, 941.723
1002.922, 1537.982
1004.174, 1219.082
1005.426, 1145.201
1006.678, 695.373
1007.930, 778.557
1009.181, 557.768
1010.432, 692.035
1011.683, 432.398
1012.934, 398.818
1014.185, 605.217
1015.435, 629.607
1016.685, 580.469
1017.935, 467.873
1019.185, 691.266
1020.435, 615.637
1021.684, 509.984
1022.934, 677.314
1024.183, 963.621
1025.432, 897.908
1026.680, 1116.338
1027.929, 1012.047
1029.177, 1192.379
1030.425, 1255.580
1031.673, 1607.662
1032.921, 1529.008
1034.169, 1576.881
1035.416, 1933.061
1036.663, 2120.898
1037.911, 2016.584
1039.157, 2183.012
1040.404, 2386.414
1041.650, 2269.266
1042.897, 2417.242
1044.143, 2132.279
1045.389, 2076.191
1046.634, 2233.562
1047.880, 2166.602
1049.125, 2099.486
1050.371, 1849.199
1051.615, 2198.762
1052.860, 1500.137
1054.105, 2294.494
1055.349, 1839.254
1056.593, 1612.707
1057.837, 1595.625
1059.081, 2084.434
1060.325, 2594.078
1061.568, 2156.543
1062.812, 2259.855
1064.055, 1831.852
1065.298, 1423.088
1066.540, 1376.752
1067.783, 1186.596
1069.025, 1158.988
1070.267, 1526.246
1071.509, 1184.004
1072.751, 1292.035
1073.993, 1424.322
1075.234, 1202.307
1076.475, 1367.945
1077.716, 1631.193
1078.957, 1397.383
1080.198, 1565.275
1081.438, 1849.438
1082.679, 1792.248
1083.919, 1906.180
1085.159, 1805.311
1086.398, 2063.855
1087.638, 1758.180
1088.877, 1996.955
1090.116, 1995.869
1091.355, 1948.707
1092.594, 2097.191
1093.833, 1972.971
1095.071, 2212.453
1096.309, 2316.170
1097.547, 2630.857
1098.785, 2400.514
1100.023, 2756.141
1101.260, 2825.994
1102.498, 3036.561
1103.735, 2866.094
1104.972, 3280.918
1106.208, 3127.393
1107.445, 3636.840
1108.681, 3387.254
1109.918, 3767.641
1111.154, 3554.996
1112.389, 3884.320
1113.625, 3673.615
1114.860, 3583.883
1116.096, 3732.119
1117.331, 3841.328
1118.566, 3451.504
1119.800, 3537.232
1121.035, 3481.346
1122.269, 3282.838
1123.503, 3352.705
1124.737, 3180.869
1125.971, 3147.402
1127.205, 3020.783
1128.438, 2762.955
1129.671, 2824.658
1130.904, 2457.326
1132.137, 2525.070
1133.370, 2533.574
1134.602, 2164.252
1135.834, 1902.834
1137.066, 1953.744
1138.298, 2064.932
1139.530, 1441.492
1140.762, 1992.492
1141.993, 1096.148
1143.224, 1426.176
1144.455, 1095.182
1145.686, 994.184
1146.917, 1130.215
1148.147, 1046.229
1149.377, 1080.303
1150.607, 977.357
1151.837, 815.443
1153.067, 628.512
1154.296, 637.555
1155.526, 777.570
1156.755, 626.559
1157.984, 754.521
1159.213, 572.455
1160.441, 628.363
1161.670, 326.240
1162.898, 687.094
1164.126, 199.918
1165.354, 335.707
1166.581, 545.471
1167.809, 609.207
1169.036, 551.771
1170.263, 329.592
1171.490, 325.244
1172.717, 337.867
1173.943, 267.461
1175.170, 196.029
1176.396, 93.438
1177.622, 428.998
1178.848, 92.402
1180.073, 269.225
1181.299, 131.955
1182.524, 53.102
1183.749, 6.791
1184.974, 160.264
1186.199, 0.715
1187.423, 191.746
1188.648, 23.928
1189.872, 68.828
1191.096, 43.451
1192.320, 41.803
1193.543, 113.230
1194.767, 12.766
1195.990, 106.357
1197.213, 104.057
1198.436, 181.859
1199.659, 115.727
1200.881, 163.867
1202.104, 53.939
1203.326, 119.711
1204.548, 239.451
1205.770, 258.404
1206.991, 50.854
1208.213, 86.510
1209.434, 115.135
1210.655, 259.270
1211.876, 263.857
1213.096, 16.629
1214.317, 4.455
1215.537, 316.672
1216.757, 78.777
1217.977, 188.859
1219.197, 115.953
1220.417, 285.023
1221.636, 27.926
1222.855, 184.064
1224.074, 33.961
1225.293, 38.957
1226.512, 97.844
1227.731, 263.705
1228.949, 100.549
1230.167, 63.369
1231.385, 246.162
1232.603, 29.055
1233.820, 182.674
1235.038, 66.381
1236.255, 264.061
1237.472, 424.721
1238.689, 110.357
1239.906, 608.969
1241.122, 94.557
1242.338, 305.111
1243.555, 559.646
1244.771, 363.158
1245.986, 292.645
1247.202, 202.109
1248.417, 509.551
1249.633, 533.969
1250.848, 184.367
1252.063, 581.742
1253.277, 451.094
1254.492, 391.422
1255.706, 639.732
1256.920, 422.020
1258.134, 626.283
1259.348, 635.248
1260.562, 966.748
1261.775, 733.949
1262.988, 561.129
1264.201, 639.287
1265.414, 865.422
1266.627, 669.539
1267.839, 1050.639
1269.052, 1219.719
1270.264, 1117.791
1271.476, 1277.844
1272.688, 1297.893
1273.899, 1447.922
1275.111, 1492.934
1276.322, 1797.953
1277.533, 1735.965
1278.744, 1862.000
1279.955, 1764.082
1281.165, 2086.184
1282.376, 2039.361
1283.586, 2278.527
1284.796, 2046.674
1286.006, 2104.816
1287.215, 2222.938
1288.425, 2213.049
1289.634, 1934.139
1290.843, 2141.207
1292.052, 1893.256
1293.261, 2231.291
1294.469, 2148.307
1295.678, 1976.309
1296.886, 2049.295
1298.094, 1959.266
1299.302, 1913.873
1300.509, 1890.164
1301.717, 1888.096
1302.924, 1787.012
1304.131, 1880.920
1305.338, 1778.812
1306.545, 1727.695
1307.752, 1853.568
1308.958, 2014.428
1310.164, 2152.844
1311.370, 2106.684
1312.576, 2437.512
1313.782, 2395.334
1314.987, 2511.145
1316.193, 2257.945
1317.398, 2964.738
1318.603, 2589.520
1319.807, 2905.135
1321.012, 2863.441
1322.216, 3207.098
1323.421, 2947.854
1324.625, 2913.707
1325.829, 3274.270
1327.032, 3655.277
1328.236, 3709.955
1329.439, 3670.949
1330.642, 3345.072
1331.845, 3523.428
1333.048, 3899.787
1334.251, 3796.678
1335.453, 3370.424
1336.656, 3525.086
1337.858, 3325.855
1339.060, 2853.148
1340.261, 2967.754
1341.463, 2414.496
1342.664, 2595.398
1343.866, 2092.434
1345.067, 2093.643
1346.267, 2755.855
1347.468, 1607.656
1348.669, 1408.752
1349.869, 1672.367
1351.069, 1153.088
1352.269, 850.961
1353.469, 1162.012
1354.668, 1054.209
1355.868, 898.715
1357.067, 1058.982
1358.266, 892.920
1359.465, 1038.482
1360.664, 856.914
1361.862, 623.777
1363.061, 782.006
1364.259, 371.957
1365.457, 637.213
1366.655, 668.789
1367.852, 595.812
1369.050, 617.162
1370.247, 745.596
1371.444, 425.357
1372.641, 441.881
1373.838, 555.779
1375.035, 507.055
1376.231, 571.805
1377.427, 638.316
1378.623, 876.324
1379.819, 736.439
1381.015, 431.311
1382.211, 829.787
1383.406, 712.322
1384.601, 640.627
1385.796, 828.150
1386.991, 951.568
1388.185, 768.961
1389.380, 520.070
1390.574, 791.094
1391.768, 635.420
1392.962, 893.729
1394.156, 443.016
1395.350, 770.281
1396.543, 799.529
1397.736, 443.760
1398.929, 466.967
1400.122, 531.154
1401.315, 605.326
1402.507, 562.477
1403.700, 535.607
1404.892, 676.717
1406.084, 480.805
1407.276, 651.867
1408.467, 722.902
1409.659, 393.910
1410.850, 560.896
1412.041, 735.857
1413.232, 453.791
1414.423, 638.699
1415.614, 601.582
1416.804, 485.438
1417.994, 702.264
1419.184, 586.062
1420.374, 431.838
1421.564, 642.588
1422.753, 333.309
1423.943, 657.998
1425.132, 188.662
1426.321, 610.398
1427.510, 527.236
1428.698, 415.178
1429.887, 606.148
1431.075, 479.223
1432.263, 528.432
1433.451, 504.729
1434.639, 890.193
1435.827, 823.852
1437.014, 608.818
1438.201, 1099.027
1439.388, 1297.258
1440.575, 1130.504
1441.762, 1139.773
1442.949, 1334.441
1444.135, 1319.332
1445.321, 1408.258
1446.507, 1464.613
1447.693, 1559.910
1448.879, 1597.816
1450.064, 1637.781
1451.250, 1844.746
1452.435, 1765.727
1453.620, 2258.770
1454.805, 1982.840
1455.989, 1996.957
1457.174, 2239.133
1458.358, 1776.379
1459.542, 1926.684
1460.726, 2210.055
1461.910, 1736.488
1463.093, 2012.996
1464.277, 1421.582
1465.460, 1123.250
1466.643, 1751.000
1467.826, 1058.848
1469.009, 1411.801
1470.191, 1130.863
1471.373, 1031.043
1472.556, 1250.355
1473.738, 1154.805
1474.919, 1151.137
1476.101, 1075.176
1477.283, 1029.117
1478.464, 841.250
1479.645, 686.562
1480.826, 944.070
1482.007, 733.762
1483.187, 1202.629
1484.368, 751.680
1485.548, 957.902
1486.728, 694.293
1487.908, 884.871
1489.088, 760.633
1490.268, 1158.609
1491.447, 591.805
1492.626, 374.242
1493.805, 429.930
1494.984, 635.891
1496.163, 351.141
1497.341, 492.703
1498.520, 403.594
1499.698, 232.836
1500.876, 534.457
1502.054, 88.469
1503.232, 45.898
1504.409, 130.234
1505.586, 83.094
1506.763, 476.918
1507.940, 473.273
1509.117, 48.223
1510.294, 701.812
1511.470, 353.098
1512.647, 298.145
1513.823, 300.035
1514.999, 427.234
1516.174, 324.949
1517.350, 6.801
1518.526, 406.773
1519.701, 115.141
1520.876, 322.434
1522.051, 202.930
1523.226, 297.605
1524.400, 153.871
1525.574, 0.281
1526.749, 0.000
##END=



