##NAMES=Kurnakovite
##RRUFFID=R050105
##IDEAL CHEMISTRY=MgB_3_O_3_(OH)_5_&#183;5H_2_O
##LOCALITY=Kramer deposit, Boron, Kern County, California, USA
##OWNER=RRUFF
##SOURCE=Rock Currier
##DESCRIPTION=Tabular single crystal
##STATUS=The identification of this mineral has been confirmed by X-ray diffraction and chemical analysis
##URL=rruff.info/R050105
##MEASURED CHEMISTRY=MgB_3_O_3_(OH)_5_Â·5H_2_O
##PIN_ID=L00487
##ORIENTATION=Laser parallel to (0 1 1). Fiducial mark perpendicular to laser is parallel to -a [-1 0 0]
109.387, 0.000
110.777, 31.741
112.168, 357.695
113.559, 985.796
114.949, 2225.072
116.339, 4072.091
117.729, 6163.100
119.119, 8252.000
120.508, 9888.422
121.897, 10343.357
123.286, 9958.956
124.675, 8146.152
126.063, 6676.252
127.452, 6057.987
128.840, 5976.639
130.228, 6230.473
131.615, 5990.855
133.003, 5775.008
134.390, 4579.311
135.777, 3477.419
137.164, 2203.607
138.550, 1512.782
139.937, 751.065
141.323, 691.776
142.709, 832.377
144.094, 1332.439
145.480, 1850.627
146.865, 2495.789
148.250, 3154.727
149.635, 3549.851
151.019, 3643.091
152.403, 3258.114
153.788, 2935.430
155.171, 2928.181
156.555, 3394.914
157.939, 4110.030
159.322, 4985.553
160.705, 6697.593
162.088, 8610.289
163.470, 10845.813
164.853, 12924.104
166.235, 14503.336
167.617, 15092.661
168.998, 15228.218
170.380, 14588.132
171.761, 14241.512
173.142, 13405.450
174.523, 13327.035
175.904, 12503.338
177.284, 11508.438
178.664, 10071.393
180.044, 8131.253
181.424, 6581.338
182.803, 5416.740
184.183, 4194.631
185.562, 3857.966
186.940, 3865.271
188.319, 4215.850
189.698, 4585.631
191.076, 4867.541
192.454, 4986.275
193.831, 4905.399
195.209, 4198.464
196.586, 3686.403
197.963, 2762.256
199.340, 1998.070
200.717, 1323.872
202.093, 836.697
203.470, 456.840
204.846, 374.939
206.221, 295.466
207.597, 574.644
208.972, 716.139
210.347, 783.631
211.722, 945.585
213.097, 1356.856
214.472, 1549.245
215.846, 1752.545
217.220, 1797.160
218.594, 1759.914
219.967, 1822.789
221.341, 1885.771
222.714, 2075.844
224.087, 2431.997
225.460, 3209.218
226.832, 4073.497
228.204, 4903.823
229.577, 5821.189
230.948, 6680.582
232.320, 6787.963
233.692, 7158.298
235.063, 6342.859
236.434, 6394.802
237.805, 4216.967
239.175, 2904.070
240.545, 1919.093
241.916, 1514.018
243.286, 934.833
244.655, 650.523
246.025, 400.084
247.394, 308.518
248.763, 202.827
250.132, 1089.016
251.501, 1192.450
252.869, 1057.791
254.237, 428.963
255.605, 536.594
256.973, 502.774
258.340, 386.598
259.708, 252.131
261.075, 5.135
262.442, 185.472
263.808, 418.891
265.175, 589.394
266.541, 562.985
267.907, 612.711
269.273, 684.906
270.639, 488.915
272.004, 499.795
273.369, 158.885
274.734, 185.913
276.099, 441.830
277.463, 878.839
278.828, 1459.151
280.192, 1816.086
281.556, 2177.158
282.919, 2589.066
284.283, 2681.720
285.646, 2652.983
287.009, 2077.753
288.372, 1720.936
289.734, 1408.458
291.097, 790.258
292.459, 287.283
293.821, 107.491
295.183, 112.182
296.544, 274.832
297.905, 404.534
299.266, 388.354
300.627, 363.316
301.988, 312.439
303.348, 165.728
304.709, 180.161
306.069, 140.754
307.428, 51.507
308.788, 61.405
310.147, 242.457
311.507, 175.715
312.865, 299.182
314.224, 335.944
315.583, 296.048
316.941, 228.479
318.299, 86.212
319.657, 126.795
321.015, 393.595
322.372, 441.193
323.729, 646.576
325.086, 750.736
326.443, 924.661
327.800, 813.355
329.156, 986.829
330.512, 942.091
331.868, 1028.151
333.224, 1143.016
334.579, 1284.693
335.935, 1386.190
337.290, 1843.513
338.645, 2039.667
339.999, 2509.660
341.354, 2874.496
342.708, 3324.180
344.062, 3637.719
345.416, 3660.114
346.769, 3682.365
348.123, 3436.468
349.476, 3134.333
350.829, 3049.553
352.182, 2833.854
353.534, 2806.198
354.887, 2671.786
356.239, 2575.140
357.591, 2518.423
358.942, 2338.636
360.294, 2117.779
361.645, 2007.854
362.996, 1873.860
364.347, 1887.799
365.698, 1855.637
367.048, 2102.068
368.398, 2165.917
369.748, 2434.245
371.098, 2673.204
372.448, 2978.868
373.797, 3231.191
375.146, 3369.105
376.495, 3428.554
377.844, 3617.674
379.192, 3440.734
380.540, 3464.778
381.889, 2918.805
383.236, 2626.815
384.584, 2300.809
385.932, 1767.787
387.279, 1306.751
388.626, 910.700
389.973, 606.636
391.319, 170.558
392.666, 87.463
394.012, 161.657
395.358, 102.866
396.704, 178.146
398.049, 229.515
399.394, 112.982
400.740, 247.519
402.084, 202.155
403.429, 105.878
404.774, 136.660
406.118, 21.506
407.462, 79.614
408.806, 12.271
410.150, 320.816
411.493, 632.907
412.836, 1036.001
414.179, 1502.096
415.522, 2016.090
416.865, 2650.934
418.207, 3108.617
419.549, 3274.117
420.891, 3407.502
422.233, 3252.866
423.575, 2992.862
424.916, 2258.710
426.257, 1959.081
427.598, 1525.931
428.939, 1021.620
430.279, 826.376
431.619, 268.807
432.959, 48.771
434.299, 129.684
435.639, 122.608
436.978, 242.067
438.318, 168.475
439.657, 262.900
440.996, 121.386
442.334, 6.110
443.673, 177.604
445.011, 283.095
446.349, 621.577
447.687, 909.050
449.024, 1309.513
450.361, 1853.961
451.699, 2455.396
453.036, 3269.816
454.372, 4253.222
455.709, 5819.211
457.045, 7283.459
458.381, 9782.292
459.717, 12319.786
461.053, 15894.101
462.388, 19804.799
463.724, 24252.512
465.059, 28819.256
466.394, 32182.922
467.728, 34219.918
469.063, 35487.340
470.397, 33441.980
471.731, 30727.133
473.065, 27236.330
474.398, 22831.656
475.732, 19864.549
477.065, 16157.848
478.398, 13431.289
479.731, 11527.574
481.063, 9799.924
482.396, 8187.316
483.728, 7142.291
485.060, 6155.834
486.391, 5485.623
487.723, 4937.107
489.054, 4287.617
490.385, 3898.158
491.716, 3453.728
493.047, 3176.330
494.377, 2949.965
495.708, 2870.635
497.038, 2710.340
498.368, 2660.083
499.697, 2595.863
501.027, 2771.686
502.356, 2948.547
503.685, 3070.451
505.014, 3425.400
506.342, 3688.393
507.671, 4029.430
508.999, 4399.517
510.327, 4893.650
511.655, 5073.837
512.982, 5411.081
514.310, 5866.385
515.637, 5996.757
516.964, 6474.194
518.291, 6548.699
519.617, 6868.275
520.944, 7266.923
522.270, 7069.659
523.596, 7664.474
524.921, 7699.416
526.247, 8041.488
527.572, 8307.704
528.897, 8386.086
530.222, 9008.604
531.547, 9226.265
532.871, 9535.109
534.196, 9413.109
535.520, 9338.296
536.844, 9614.680
538.167, 9265.217
539.491, 9172.968
540.814, 8943.945
542.137, 8824.122
543.460, 8681.506
544.783, 8586.085
546.105, 8338.862
547.427, 8586.854
548.749, 8441.036
550.071, 8797.404
551.393, 9097.642
552.714, 9380.193
554.035, 9450.607
555.356, 9730.143
556.677, 9653.375
557.998, 9313.783
559.318, 9399.937
560.638, 7951.058
561.958, 6865.426
563.278, 5752.249
564.597, 5035.548
565.917, 3996.278
567.236, 3384.261
568.555, 2901.289
569.874, 2380.022
571.192, 2248.908
572.511, 2045.936
573.829, 1880.084
575.147, 1780.572
576.464, 1694.738
577.782, 1574.245
579.099, 1475.872
580.416, 1344.621
581.733, 1544.492
583.050, 1605.525
584.366, 1477.768
585.683, 1799.279
586.999, 1737.103
588.315, 1777.230
589.630, 2029.676
590.946, 2037.456
592.261, 2183.518
593.576, 2230.314
594.891, 2286.610
596.206, 2421.022
597.520, 2558.738
598.834, 2826.348
600.148, 2990.291
601.462, 3308.352
602.776, 3690.607
604.089, 3928.984
605.402, 4436.482
606.715, 4808.097
608.028, 5618.834
609.341, 6192.689
610.653, 7008.667
611.965, 7973.766
613.277, 8854.984
614.589, 10127.345
615.901, 11556.897
617.212, 13440.695
618.523, 15629.765
619.834, 18263.107
621.145, 21149.717
622.456, 24321.576
623.766, 27200.656
625.076, 31183.949
626.386, 33855.461
627.696, 37184.156
629.006, 37529.043
630.315, 39556.160
631.624, 37419.516
632.933, 36312.117
634.242, 34187.984
635.551, 30274.111
636.859, 26913.465
638.167, 23140.027
639.475, 20726.746
640.783, 17283.570
642.090, 14864.524
643.398, 12781.595
644.705, 11039.788
646.012, 9247.101
647.318, 7974.536
648.625, 6891.090
649.931, 5834.760
651.237, 5072.555
652.543, 4222.466
653.849, 3623.496
655.155, 3406.646
656.460, 2781.914
657.765, 2597.301
659.070, 1992.806
660.375, 1860.427
661.679, 1833.166
662.984, 1384.021
664.288, 1180.993
665.592, 1132.082
666.895, 1056.287
668.199, 879.607
669.502, 801.043
670.805, 642.594
672.108, 761.258
673.411, 633.036
674.713, 618.929
676.016, 834.934
677.318, 605.324
678.620, 750.799
679.921, 708.602
681.223, 676.449
682.524, 787.406
683.825, 710.003
685.126, 997.547
686.427, 1285.075
687.727, 1142.550
689.028, 1358.082
690.328, 1418.975
691.628, 1700.740
692.927, 1782.868
694.227, 1868.296
695.526, 2117.250
696.825, 2288.178
698.124, 2537.646
699.423, 2759.743
700.721, 2977.092
702.020, 3217.847
703.318, 3546.900
704.616, 3818.467
705.913, 3817.203
707.211, 4193.990
708.508, 4643.238
709.805, 4797.158
711.102, 4727.871
712.399, 5218.217
713.695, 5109.146
714.992, 5562.344
716.288, 5487.807
717.584, 5773.641
718.879, 5853.926
720.175, 5787.436
721.470, 6472.523
722.765, 6508.621
724.060, 6851.726
725.355, 7171.678
726.649, 7404.833
727.944, 7720.938
729.238, 8525.614
730.532, 8311.026
731.825, 9273.984
733.119, 9594.321
734.412, 9573.520
735.705, 9690.805
736.998, 9479.873
738.291, 9280.843
739.584, 8883.650
740.876, 8392.390
742.168, 7858.918
743.460, 7422.397
744.752, 6903.014
746.043, 6435.609
747.334, 6039.238
748.626, 5638.926
749.916, 5312.996
751.207, 4999.338
752.498, 4728.137
753.788, 4536.518
755.078, 4262.881
756.368, 4158.817
757.658, 3891.778
758.947, 3698.761
760.237, 3580.764
761.526, 3240.787
762.815, 3222.830
764.104, 2840.891
765.392, 2664.968
766.680, 2599.062
767.969, 2240.172
769.257, 2334.297
770.544, 1960.436
771.832, 1999.585
773.119, 1607.745
774.406, 1525.915
775.693, 1547.094
776.980, 1368.277
778.267, 1481.464
779.553, 1280.654
780.839, 1295.848
782.125, 1115.040
783.411, 1197.231
784.697, 1175.420
785.982, 1140.605
787.267, 1233.786
788.552, 1298.961
789.837, 1204.127
791.122, 1392.281
792.406, 1423.427
793.690, 1532.560
794.974, 1601.679
796.258, 1581.784
797.542, 1798.874
798.825, 1761.947
800.108, 1868.004
801.391, 1716.042
802.674, 1865.062
803.957, 1960.062
805.239, 1799.041
806.522, 1955.999
807.804, 1738.934
809.085, 1971.846
810.367, 1887.734
811.649, 1739.597
812.930, 1696.434
814.211, 1612.243
815.492, 1512.025
816.772, 1416.778
818.053, 1286.659
819.333, 1183.196
820.613, 1009.858
821.893, 851.487
823.173, 707.084
824.452, 582.646
825.732, 503.173
827.011, 272.664
828.290, 229.118
829.568, 153.534
830.847, 3.911
832.125, 38.012
833.403, 3.497
834.681, 189.302
835.959, 168.258
837.236, 235.365
838.514, 259.664
839.791, 173.168
841.068, 165.836
842.345, 319.668
843.621, 175.748
844.898, 295.002
846.174, 342.498
847.450, 134.263
848.726, 371.189
850.001, 413.408
851.277, 301.940
852.552, 329.732
853.827, 264.802
855.102, 282.115
856.376, 345.687
857.651, 237.551
858.925, 219.652
860.199, 199.986
861.473, 266.544
862.746, 129.361
864.020, 184.369
865.293, 141.601
866.566, 50.034
867.839, 128.624
869.112, 48.412
870.384, 14.638
871.656, 19.442
872.928, 13.328
874.200, 158.966
875.472, 3.479
876.744, 15.928
878.015, 83.196
879.286, 9.646
880.557, 45.356
881.828, 177.230
883.098, 200.017
884.369, 244.042
885.639, 221.343
886.909, 240.884
888.178, 242.343
889.448, 272.783
890.717, 295.061
891.987, 331.318
893.256, 362.383
894.524, 427.460
895.793, 481.461
897.061, 549.390
898.330, 609.245
899.598, 682.042
900.865, 845.773
902.133, 993.453
903.401, 1021.062
904.668, 1274.613
905.935, 1414.097
907.202, 1513.512
908.468, 1772.862
909.735, 2053.180
911.001, 2211.422
912.267, 2319.597
913.533, 2505.691
914.799, 2832.721
916.064, 2951.671
917.330, 3215.544
918.595, 3065.335
919.860, 3068.057
921.124, 3335.698
922.389, 3087.258
923.653, 3021.739
924.918, 2745.140
926.182, 2596.459
927.445, 2483.698
928.709, 2299.856
929.972, 2181.422
931.236, 2096.926
932.499, 1890.840
933.761, 1811.672
935.024, 1620.422
936.286, 1573.090
937.549, 1773.676
938.811, 1587.180
940.073, 1834.620
941.334, 1784.979
942.596, 1870.254
943.857, 2036.485
945.118, 2043.636
946.379, 2049.731
947.640, 2244.747
948.900, 2370.680
950.161, 2357.529
951.421, 2551.306
952.681, 2683.015
953.940, 2873.641
955.200, 2978.176
956.459, 2990.677
957.719, 3139.086
958.978, 3087.432
960.236, 3061.706
961.495, 2711.906
962.753, 2697.029
964.012, 2516.083
965.270, 2233.077
966.527, 2171.990
967.785, 2001.818
969.043, 1917.567
970.300, 1752.244
971.557, 1676.835
972.814, 1582.871
974.071, 1493.772
975.327, 1462.116
976.583, 1432.377
977.840, 1454.555
979.095, 1442.649
980.351, 1362.662
981.607, 1389.592
982.862, 1362.165
984.117, 1299.685
985.372, 1517.904
986.627, 1204.110
987.882, 1366.231
989.136, 1350.742
990.390, 1274.336
991.644, 1451.972
992.898, 1461.688
994.152, 1460.371
995.405, 1575.720
996.659, 1626.222
997.912, 1699.388
999.165, 1839.275
1000.417, 1845.953
1001.670, 1899.648
1002.922, 2150.019
1004.174, 2090.330
1005.426, 2148.411
1006.678, 2054.109
1007.930, 1982.528
1009.181, 1968.455
1010.432, 1834.822
1011.683, 1696.979
1012.934, 1602.289
1014.185, 1513.957
1015.435, 1399.929
1016.685, 1306.007
1017.935, 1066.278
1019.185, 1105.049
1020.435, 928.632
1021.684, 826.952
1022.934, 923.919
1024.183, 842.731
1025.432, 772.041
1026.680, 868.384
1027.929, 802.741
1029.177, 724.289
1030.425, 738.647
1031.673, 724.208
1032.921, 827.923
1034.169, 826.056
1035.416, 856.650
1036.663, 999.877
1037.911, 987.249
1039.157, 884.543
1040.404, 1005.058
1041.650, 998.019
1042.897, 1072.808
1044.143, 1024.187
1045.389, 891.266
1046.634, 945.509
1047.880, 771.654
1049.125, 783.128
1050.371, 765.843
1051.615, 751.884
1052.860, 699.854
1054.105, 760.459
1055.349, 695.871
1056.593, 571.415
1057.837, 629.353
1059.081, 689.887
1060.325, 534.840
1061.568, 599.546
1062.812, 539.195
1064.055, 550.178
1065.298, 548.001
1066.540, 553.556
1067.783, 486.080
1069.025, 442.054
1070.267, 473.164
1071.509, 556.951
1072.751, 508.368
1073.993, 566.743
1075.234, 545.090
1076.475, 649.409
1077.716, 682.699
1078.957, 658.962
1080.198, 726.198
1081.438, 880.406
1082.679, 894.589
1083.919, 872.810
1085.159, 855.940
1086.398, 1097.046
1087.638, 1058.127
1088.877, 1189.340
1090.116, 1184.380
1091.355, 1311.387
1092.594, 1382.252
1093.833, 1456.463
1095.071, 1537.868
1096.309, 1683.056
1097.547, 1857.658
1098.785, 2007.033
1100.023, 2274.163
1101.260, 2462.953
1102.498, 2640.937
1103.735, 2725.732
1104.972, 2947.705
1106.208, 3048.633
1107.445, 3310.354
1108.681, 3377.732
1109.918, 3585.648
1111.154, 3595.000
1112.389, 3922.749
1113.625, 3919.862
1114.860, 3955.456
1116.096, 4162.031
1117.331, 4240.332
1118.566, 4224.725
1119.800, 4251.243
1121.035, 4255.744
1122.269, 4167.229
1123.503, 4229.696
1124.737, 4243.147
1125.971, 4000.582
1127.205, 3889.001
1128.438, 3727.404
1129.671, 3634.793
1130.904, 3542.168
1132.137, 3576.533
1133.370, 3484.899
1134.602, 3254.259
1135.834, 3159.664
1137.066, 2958.110
1138.298, 3120.619
1139.530, 2758.195
1140.762, 2994.818
1141.993, 2587.488
1143.224, 2705.250
1144.455, 2574.062
1145.686, 2639.962
1146.917, 2507.961
1148.147, 2535.006
1149.377, 2523.162
1150.607, 2471.440
1151.837, 2311.814
1153.067, 2182.291
1154.296, 2191.855
1155.526, 2111.513
1156.755, 1832.281
1157.984, 1825.133
1159.213, 1649.067
1160.441, 1503.076
1161.670, 1471.181
1162.898, 1309.346
1164.126, 1099.585
1165.354, 1018.890
1166.581, 954.236
1167.809, 815.646
1169.036, 625.101
1170.263, 752.582
1171.490, 584.101
1172.717, 636.649
1173.943, 438.200
1175.170, 359.788
1176.396, 385.408
1177.622, 427.044
1178.848, 350.721
1180.073, 132.423
1181.299, 259.131
1182.524, 189.843
1183.749, 140.555
1184.974, 211.271
1186.199, 174.988
1187.423, 132.711
1188.648, 0.434
1189.872, 105.152
1191.096, 23.128
1192.320, 77.574
1193.543, 25.742
1194.767, 40.973
1195.990, 53.331
1197.213, 25.670
1198.436, 79.026
1199.659, 14.431
1200.881, 56.848
1202.104, 22.302
1203.326, 24.771
1204.548, 31.424
1205.770, 168.769
1206.991, 8.627
1208.213, 28.978
1209.434, 73.396
1210.655, 34.228
1211.876, 9.126
1213.096, 77.478
1214.317, 111.834
1215.537, 19.809
1216.757, 65.547
1217.977, 91.905
1219.197, 62.267
1220.417, 126.630
1221.636, 77.997
1222.855, 113.366
1224.074, 174.742
1225.293, 78.119
1226.512, 182.501
1227.731, 122.887
1228.949, 128.275
1230.167, 49.668
1231.385, 67.062
1232.603, 98.463
1233.820, 66.865
1235.038, 60.727
1236.255, 63.648
1237.472, 81.026
1238.689, 135.592
1239.906, 5.715
1241.122, 96.978
1242.338, 19.272
1243.555, 31.526
1244.771, 27.773
1245.986, 29.991
1247.202, 40.795
1248.417, 21.375
1249.633, 61.521
1250.848, 108.347
1252.063, 18.733
1253.277, 57.189
1254.492, 36.136
1255.706, 29.091
1256.920, 4.051
1258.134, 43.011
1259.348, 80.980
1260.562, 83.030
1261.775, 83.046
1262.988, 4.936
1264.201, 22.915
1265.414, 106.101
1266.627, 147.121
1267.839, 200.146
1269.052, 152.175
1270.264, 151.210
1271.476, 165.390
1272.688, 163.295
1273.899, 201.344
1275.111, 240.397
1276.322, 313.456
1277.533, 374.521
1278.744, 477.588
1279.955, 407.661
1281.165, 506.738
1282.376, 649.821
1283.586, 531.907
1284.796, 627.997
1286.006, 677.090
1287.215, 717.187
1288.425, 748.426
1289.634, 701.387
1290.843, 774.489
1292.052, 677.594
1293.261, 694.700
1294.469, 783.807
1295.678, 702.916
1296.886, 822.025
1298.094, 837.135
1299.302, 674.246
1300.509, 863.357
1301.717, 840.470
1302.924, 928.580
1304.131, 910.690
1305.338, 1007.800
1306.545, 1090.906
1307.752, 1079.010
1308.958, 1190.111
1310.164, 1348.209
1311.370, 1321.304
1312.576, 1584.395
1313.782, 1565.480
1314.987, 1653.562
1316.193, 1640.643
1317.398, 1948.719
1318.603, 2000.793
1319.807, 2076.866
1321.012, 2143.938
1322.216, 2345.011
1323.421, 2436.082
1324.625, 2593.150
1325.829, 2880.219
1327.032, 2937.285
1328.236, 3325.353
1329.439, 3432.418
1330.642, 3626.484
1331.845, 3844.548
1333.048, 4067.612
1334.251, 4144.340
1335.453, 4113.402
1336.656, 4007.953
1337.858, 3936.018
1339.060, 3759.921
1340.261, 3582.887
1341.463, 3202.495
1342.664, 3031.830
1343.866, 2741.809
1345.067, 2453.824
1346.267, 2136.180
1347.468, 2042.698
1348.669, 1641.059
1349.869, 1593.996
1351.069, 1371.312
1352.269, 1200.184
1353.469, 1089.277
1354.668, 1101.402
1355.868, 968.266
1357.067, 903.173
1358.266, 738.740
1359.465, 823.906
1360.664, 771.749
1361.862, 589.938
1363.061, 643.256
1364.259, 574.667
1365.457, 614.897
1366.655, 615.143
1367.852, 557.985
1369.050, 568.265
1370.247, 612.563
1371.444, 603.908
1372.641, 594.795
1373.838, 668.407
1375.035, 564.524
1376.231, 574.810
1377.427, 601.937
1378.623, 561.681
1379.819, 656.595
1381.015, 611.642
1382.211, 622.854
1383.406, 663.692
1384.601, 633.471
1385.796, 722.350
1386.991, 811.321
1388.185, 725.138
1389.380, 660.180
1390.574, 704.940
1391.768, 671.729
1392.962, 737.669
1394.156, 729.691
1395.350, 524.830
1396.543, 627.996
1397.736, 522.930
1398.929, 541.859
1400.122, 469.780
1401.315, 517.690
1402.507, 461.592
1403.700, 544.482
1404.892, 467.362
1406.084, 540.230
1407.276, 370.086
1408.467, 477.930
1409.659, 435.760
1410.850, 472.579
1412.041, 586.384
1413.232, 280.174
1414.423, 506.950
1415.614, 379.712
1416.804, 453.457
1417.994, 411.188
1419.184, 326.902
1420.374, 333.600
1421.564, 334.280
1422.753, 244.945
1423.943, 362.592
1425.132, 159.221
1426.321, 247.831
1427.510, 233.422
1428.698, 239.993
1429.887, 269.546
1431.075, 207.076
1432.263, 251.593
1433.451, 212.112
1434.639, 254.611
1435.827, 221.152
1437.014, 171.767
1438.201, 358.438
1439.388, 360.150
1440.575, 294.015
1441.762, 330.898
1442.949, 281.806
1444.135, 277.693
1445.321, 256.543
1446.507, 309.369
1447.693, 248.171
1448.879, 384.939
1450.064, 263.682
1451.250, 322.396
1452.435, 297.085
1453.620, 457.743
1454.805, 369.443
1455.989, 367.199
1457.174, 543.082
1458.358, 312.035
1459.542, 387.123
1460.726, 404.402
1461.910, 261.872
1463.093, 455.447
1464.277, 321.059
1465.460, 268.684
1466.643, 341.328
1467.826, 238.989
1469.009, 330.674
1470.191, 157.382
1471.373, 347.118
1472.556, 317.885
1473.738, 396.686
1474.919, 254.525
1476.101, 300.407
1477.283, 247.337
1478.464, 84.319
1479.645, 220.361
1480.826, 344.469
1482.007, 165.646
1483.187, 213.895
1484.368, 183.211
1485.548, 208.592
1486.728, 180.044
1487.908, 204.576
1489.088, 136.198
1490.268, 270.925
1491.447, 127.769
1492.626, 119.733
1493.805, 146.818
1494.984, 262.013
1496.163, 200.304
1497.341, 20.698
1498.520, 260.204
1499.698, 6.166
1500.876, 197.594
1502.054, 47.503
1503.232, 103.555
1504.409, 32.777
1505.586, 18.174
1506.763, 157.758
1507.940, 119.543
1509.117, 4.545
1510.294, 182.773
1511.470, 166.240
1512.647, 82.094
1513.823, 191.720
1514.999, 150.716
1516.174, 156.527
1517.350, 43.001
1518.526, 93.683
1519.701, 0.715
1520.876, 151.197
1522.051, 200.970
1523.226, 149.231
1524.400, 35.466
1525.574, 0.086
1526.749, 0.000
##END=



