##NAMES=Kurnakovite
##RRUFFID=R050105
##IDEAL CHEMISTRY=MgB_3_O_3_(OH)_5_&#183;5H_2_O
##LOCALITY=Kramer deposit, Boron, Kern County, California, USA
##OWNER=RRUFF
##SOURCE=Rock Currier
##DESCRIPTION=Tabular single crystal
##STATUS=The identification of this mineral has been confirmed by X-ray diffraction and chemical analysis
##URL=rruff.info/R050105
##MEASURED CHEMISTRY=MgB_3_O_3_(OH)_5_Â·5H_2_O
##PIN_ID=L00495
##ORIENTATION=Laser parallel to (1 0 1). Fiducial mark perpendicular to laser is parallel to b [0 1 0]
96.858, 0.000
98.251, 28.044
99.644, 359.422
101.036, 1029.968
102.428, 962.034
103.820, 978.634
105.212, 481.479
106.604, 256.907
107.995, 841.387
109.387, 1482.925
110.777, 2507.230
112.168, 3085.521
113.559, 3971.385
114.949, 4222.964
116.339, 5677.137
117.729, 6686.141
119.119, 7653.347
120.508, 7559.619
121.897, 7269.247
123.286, 7186.987
124.675, 6923.548
126.063, 6712.192
127.452, 8221.029
128.840, 10167.302
130.228, 11782.537
131.615, 13106.421
133.003, 15219.481
134.390, 16723.158
135.777, 17344.803
137.164, 17375.754
138.550, 19482.285
139.937, 22184.607
141.323, 23483.971
142.709, 23461.668
144.094, 24348.977
145.480, 24959.250
146.865, 24688.338
148.250, 22926.287
149.635, 21225.514
151.019, 18310.721
152.403, 14229.317
153.788, 11447.613
155.171, 9593.915
156.555, 7908.047
157.939, 7145.520
159.322, 7285.730
160.705, 7647.854
162.088, 7767.666
163.470, 7694.732
164.853, 7718.052
166.235, 7933.594
167.617, 8289.311
168.998, 8611.136
170.380, 9366.991
171.761, 10262.834
173.142, 11239.660
174.523, 12096.610
175.904, 12105.814
177.284, 11471.030
178.664, 10429.185
180.044, 8816.268
181.424, 7383.325
182.803, 6022.521
184.183, 5132.973
185.562, 4420.871
186.940, 4070.098
188.319, 3509.466
189.698, 3387.771
191.076, 3032.434
192.454, 2768.315
193.831, 2595.549
195.209, 2083.799
196.586, 2254.325
197.963, 1866.568
199.340, 1412.504
200.717, 859.947
202.093, 567.554
203.470, 405.161
204.846, 149.763
206.221, 45.349
207.597, 118.859
208.972, 243.451
210.347, 304.947
211.722, 400.470
213.097, 342.045
214.472, 319.663
215.846, 349.318
217.220, 629.055
218.594, 679.893
219.967, 715.842
221.341, 657.923
222.714, 397.148
224.087, 187.534
225.460, 242.917
226.832, 480.208
228.204, 904.336
229.577, 1057.299
230.948, 1251.088
232.320, 1180.700
233.692, 1000.139
235.063, 1104.310
236.434, 1142.914
237.805, 1135.795
239.175, 1229.999
240.545, 1654.252
241.916, 2298.428
243.286, 2913.883
244.655, 3869.149
246.025, 4862.315
247.394, 6328.383
248.763, 8149.455
250.132, 10059.691
251.501, 12478.729
252.869, 14304.908
254.237, 16411.334
255.605, 17521.500
256.973, 17345.598
258.340, 15983.590
259.708, 13648.480
261.075, 11221.263
262.442, 8704.625
263.808, 6651.196
265.175, 4742.451
266.541, 3281.292
267.907, 2388.320
269.273, 1534.347
270.639, 1142.660
272.004, 664.681
273.369, 550.681
274.734, 415.488
276.099, 481.628
277.463, 350.183
278.828, 753.048
280.192, 731.838
281.556, 832.378
282.919, 946.577
284.283, 999.126
285.646, 896.186
287.009, 690.567
288.372, 701.694
289.734, 486.309
291.097, 211.184
292.459, 98.329
293.821, 214.947
295.183, 33.552
296.544, 145.285
297.905, 229.259
299.266, 221.554
300.627, 433.419
301.988, 632.044
303.348, 947.450
304.709, 1189.649
306.069, 1403.653
307.428, 1723.467
308.788, 2179.096
310.147, 2595.545
311.507, 3271.809
312.865, 3887.881
314.224, 4670.998
315.583, 5679.281
316.941, 7100.376
318.299, 8547.801
319.657, 9821.710
321.015, 11656.924
322.372, 13072.213
323.729, 14600.793
325.086, 15505.444
326.443, 16300.223
327.800, 16241.778
329.156, 16075.658
330.512, 14733.205
331.868, 13567.818
333.224, 11955.959
334.579, 10451.581
335.935, 8591.939
337.290, 7714.274
338.645, 6717.900
339.999, 5975.493
341.354, 5403.551
342.708, 5075.127
344.062, 4974.280
345.416, 5070.952
346.769, 5177.184
348.123, 5834.033
349.476, 6366.617
350.829, 7499.107
352.182, 8455.490
353.534, 9485.777
354.887, 10364.953
356.239, 10589.008
357.591, 10705.925
358.942, 10209.553
360.294, 9493.868
361.645, 8514.912
362.996, 7416.744
364.347, 6782.449
365.698, 6066.041
367.048, 5576.516
368.398, 5248.874
369.748, 5275.026
371.098, 5283.923
372.448, 5312.772
373.797, 5337.530
375.146, 5456.067
376.495, 5795.045
377.844, 5927.205
379.192, 5624.281
380.540, 5831.580
381.889, 5500.471
383.236, 4942.894
384.584, 4504.740
385.932, 3910.748
387.279, 3340.709
388.626, 2909.372
389.973, 2552.943
391.319, 1964.410
392.666, 1769.771
394.012, 1452.030
395.358, 1269.186
396.704, 1043.239
398.049, 881.190
399.394, 631.042
400.740, 429.793
402.084, 401.443
403.429, 114.995
404.774, 143.436
406.118, 278.772
407.462, 228.015
408.806, 412.162
410.150, 691.220
411.493, 1040.195
412.836, 1567.076
414.179, 1939.841
415.522, 2475.489
416.865, 3153.035
418.207, 3484.500
419.549, 3609.890
420.891, 3615.205
422.233, 3340.444
423.575, 2864.611
424.916, 2108.702
426.257, 1825.718
427.598, 1370.640
428.939, 1178.462
430.279, 654.176
431.619, 332.768
432.959, 137.221
434.299, 24.487
435.639, 144.423
436.978, 305.833
438.318, 310.492
439.657, 442.229
440.996, 377.668
442.334, 454.521
443.673, 466.832
445.011, 506.604
446.349, 453.764
447.687, 334.566
449.024, 286.241
450.361, 186.373
451.699, 52.118
453.036, 33.693
454.372, 125.076
455.709, 289.248
457.045, 361.304
458.381, 693.898
459.717, 778.649
461.053, 1089.816
462.388, 1240.282
463.724, 1557.651
465.059, 1709.186
466.394, 1721.857
467.728, 1690.418
469.063, 1755.867
470.397, 1422.208
471.731, 1159.439
473.065, 1064.562
474.398, 702.578
475.732, 613.484
477.065, 325.280
478.398, 306.957
479.731, 222.518
481.063, 83.962
482.396, 52.286
483.728, 103.490
485.060, 135.585
486.391, 18.423
487.723, 16.438
489.054, 2.816
490.385, 45.191
491.716, 3.705
493.047, 24.337
494.377, 40.905
495.708, 58.042
497.038, 46.076
498.368, 116.007
499.697, 104.839
501.027, 179.575
502.356, 270.217
503.685, 345.770
505.014, 435.237
506.342, 515.622
507.671, 580.932
508.999, 659.985
510.327, 716.316
511.655, 821.400
512.982, 910.411
514.310, 1037.351
515.637, 1095.219
516.964, 1204.016
518.291, 1370.744
519.617, 1601.405
520.944, 1855.001
522.270, 1874.534
523.596, 2192.004
524.921, 2388.438
526.247, 2672.836
527.572, 2889.198
528.897, 3108.532
530.222, 3420.838
531.547, 3613.147
532.871, 3884.526
534.196, 4002.964
535.520, 4160.285
536.844, 4344.127
538.167, 4353.842
539.491, 4480.657
540.814, 4510.627
542.137, 4650.787
543.460, 4766.148
544.783, 4902.673
546.105, 5066.300
547.427, 5546.966
548.749, 5825.582
550.071, 6330.145
551.393, 7001.657
552.714, 7696.118
554.035, 8295.527
555.356, 9040.891
556.677, 9478.230
557.998, 9635.435
559.318, 9510.582
560.638, 9262.856
561.958, 8652.944
563.278, 7865.487
564.597, 7278.682
565.917, 6418.727
567.236, 5699.237
568.555, 5204.390
569.874, 4661.687
571.192, 4301.898
572.511, 4109.069
573.829, 3891.214
575.147, 3710.973
576.464, 3565.459
577.782, 3552.572
579.099, 3552.683
580.416, 3711.785
581.733, 4061.881
583.050, 4525.957
584.366, 4899.020
585.683, 5768.075
586.999, 6123.106
588.315, 6772.113
589.630, 7463.000
590.946, 7661.291
592.261, 7725.394
593.576, 7326.906
594.891, 6900.907
596.206, 6564.800
597.520, 6257.432
598.834, 5950.837
600.148, 5778.344
601.462, 5764.532
602.776, 5764.137
604.089, 6004.773
605.402, 6267.823
606.715, 6617.465
608.028, 7306.263
609.341, 7817.459
610.653, 8513.230
611.965, 9535.491
613.277, 10683.970
614.589, 11854.157
615.901, 13560.938
617.212, 15600.207
618.523, 17895.904
619.834, 20851.795
621.145, 23456.693
622.456, 26697.592
623.766, 29706.490
625.076, 33377.387
626.386, 36097.273
627.696, 38420.148
629.006, 38140.043
630.315, 39770.910
631.624, 37116.785
632.933, 35702.434
634.242, 33244.727
635.551, 29482.832
636.859, 26463.881
638.167, 22871.594
639.475, 20952.242
640.783, 17776.617
642.090, 15769.516
643.398, 13907.727
644.705, 12360.742
646.012, 10846.914
647.318, 9740.693
648.625, 8818.736
649.931, 7897.646
651.237, 7100.957
652.543, 6360.713
653.849, 5627.665
655.155, 5225.567
656.460, 4761.109
657.765, 4488.609
659.070, 3953.572
660.375, 3642.947
661.679, 3463.667
662.984, 3107.798
664.288, 2872.296
665.592, 2804.101
666.895, 2613.097
668.199, 2416.103
669.502, 2284.118
670.805, 2125.145
672.108, 2144.181
673.411, 1923.333
674.713, 1868.393
676.016, 1872.114
677.318, 1765.729
678.620, 1806.420
679.921, 1641.067
681.223, 1574.208
682.524, 1702.160
683.825, 1560.988
685.126, 1694.452
686.427, 1825.726
687.727, 1671.435
689.028, 1803.063
690.328, 1734.244
691.628, 1852.571
692.927, 1885.698
694.227, 1861.392
695.526, 1758.310
696.825, 1898.303
698.124, 1864.347
699.423, 1880.989
700.721, 1855.335
702.020, 1891.538
703.318, 1752.276
704.616, 1877.147
705.913, 1835.935
707.211, 1813.792
708.508, 2053.650
709.805, 2022.482
711.102, 2060.591
712.399, 2189.438
713.695, 2174.656
714.992, 2423.513
716.288, 2361.241
717.584, 2590.595
718.879, 2631.684
720.175, 2765.881
721.470, 3159.362
722.765, 3360.024
724.060, 3716.847
725.355, 3934.058
726.649, 4248.566
727.944, 4676.474
729.238, 5301.068
730.532, 5443.496
731.825, 6373.676
733.119, 6787.337
734.412, 7023.058
735.705, 7413.379
736.998, 7585.025
738.291, 7623.971
739.584, 7617.865
740.876, 7371.273
742.168, 7108.174
743.460, 6560.023
744.752, 6106.921
746.043, 5834.312
747.334, 5532.471
748.626, 5012.347
749.916, 4661.103
751.207, 4443.759
752.498, 4088.363
753.788, 3908.979
755.078, 3605.691
756.368, 3350.537
757.658, 3258.537
758.947, 2921.695
760.237, 2922.019
761.526, 2671.496
762.815, 2547.094
764.104, 2313.798
765.392, 2330.583
766.680, 2169.411
767.969, 1940.262
769.257, 2020.118
770.544, 1841.973
771.832, 1769.824
773.119, 1689.664
774.406, 1561.492
775.693, 1615.306
776.980, 1467.106
778.267, 1498.892
779.553, 1468.663
780.839, 1448.420
782.125, 1391.162
783.411, 1454.889
784.697, 1424.601
785.982, 1414.297
787.267, 1399.979
788.552, 1374.646
789.837, 1390.299
791.122, 1497.944
792.406, 1514.581
793.690, 1545.211
794.974, 1522.838
796.258, 1504.464
797.542, 1583.086
798.825, 1514.703
800.108, 1580.328
801.391, 1405.953
802.674, 1467.581
803.957, 1423.220
805.239, 1310.862
806.522, 1337.509
807.804, 1173.151
809.085, 1243.787
810.367, 1174.417
811.649, 1011.039
812.930, 1045.652
814.211, 941.253
815.492, 882.841
816.772, 804.415
818.053, 765.971
819.333, 595.509
820.613, 560.027
821.893, 479.524
823.173, 336.000
824.452, 277.455
825.732, 276.888
827.011, 152.298
828.290, 205.686
829.568, 26.050
830.847, 56.386
832.125, 43.694
833.403, 58.975
834.681, 104.773
835.959, 99.603
837.236, 95.513
838.514, 119.500
839.791, 82.579
841.068, 20.733
842.345, 147.930
843.621, 43.237
844.898, 59.602
846.174, 166.033
847.450, 93.587
848.726, 127.229
850.001, 62.975
851.277, 125.793
852.552, 133.718
853.827, 47.755
855.102, 59.859
856.376, 35.038
857.651, 69.722
858.925, 90.448
860.199, 75.142
861.473, 75.803
862.746, 83.432
864.020, 20.028
865.293, 58.414
866.566, 46.938
867.839, 103.537
869.112, 52.242
870.384, 2.973
871.656, 102.864
872.928, 134.810
874.200, 105.880
875.472, 187.063
876.744, 156.401
878.015, 49.878
879.286, 85.431
880.557, 22.913
881.828, 21.156
883.098, 33.537
884.369, 92.357
885.639, 83.274
886.909, 99.281
888.178, 76.178
889.448, 80.589
890.717, 20.877
891.987, 51.219
893.256, 74.638
894.524, 2.139
895.793, 0.683
897.061, 15.719
898.330, 7.934
899.598, 32.359
900.865, 80.604
902.133, 118.833
903.401, 160.696
904.668, 200.222
905.935, 225.354
907.202, 284.465
908.468, 285.544
909.735, 343.591
911.001, 411.604
912.267, 495.584
913.533, 481.528
914.799, 570.436
916.064, 593.308
917.330, 734.144
918.595, 816.942
919.860, 808.703
921.124, 950.427
922.389, 965.113
923.653, 1098.762
924.918, 1047.373
926.182, 1335.946
927.445, 1272.482
928.709, 1466.980
929.972, 1613.442
931.236, 1745.866
932.499, 1910.253
933.761, 2111.602
935.024, 2140.914
936.286, 2506.190
937.549, 2885.427
938.811, 2997.628
940.073, 3354.793
941.334, 3485.919
942.596, 3589.010
943.857, 3834.063
945.118, 3882.081
946.379, 3885.061
947.640, 3911.004
948.900, 3981.910
950.161, 3794.780
951.421, 3670.614
952.681, 3662.411
953.940, 3715.171
955.200, 3595.894
956.459, 3416.581
957.719, 3408.229
958.978, 3203.842
960.236, 3093.418
961.495, 2911.958
962.753, 2796.460
964.012, 2514.926
965.270, 2398.355
966.527, 2165.749
967.785, 1991.105
969.043, 1858.425
970.300, 1834.708
971.557, 1615.957
972.814, 1468.168
974.071, 1481.344
975.327, 1364.484
976.583, 1226.588
977.840, 1176.658
979.095, 1066.586
980.351, 1010.584
981.607, 1046.896
982.862, 869.290
984.117, 902.586
985.372, 958.902
986.627, 725.702
987.882, 748.668
989.136, 721.738
990.390, 598.150
991.644, 715.729
992.898, 603.853
994.152, 655.037
995.405, 749.647
996.659, 769.089
997.912, 822.711
999.165, 838.744
1000.417, 974.530
1001.670, 1066.219
1002.922, 1086.183
1004.174, 1098.788
1005.426, 1131.095
1006.678, 1062.481
1007.930, 1046.306
1009.181, 1096.973
1010.432, 1092.698
1011.683, 1100.331
1012.934, 1027.938
1014.185, 1142.548
1015.435, 1197.858
1016.685, 1143.404
1017.935, 1075.560
1019.185, 1191.053
1020.435, 1301.658
1021.684, 1307.624
1022.934, 1345.844
1024.183, 1476.958
1025.432, 1429.792
1026.680, 1526.437
1027.929, 1514.917
1029.177, 1658.729
1030.425, 1758.497
1031.673, 1864.996
1032.921, 1912.307
1034.169, 1942.890
1035.416, 2008.866
1036.663, 2063.597
1037.911, 2105.315
1039.157, 2233.740
1040.404, 2241.103
1041.650, 2406.711
1042.897, 2559.815
1044.143, 2489.250
1045.389, 2544.588
1046.634, 2615.253
1047.880, 2567.511
1049.125, 2488.728
1050.371, 2529.749
1051.615, 2627.496
1052.860, 2365.141
1054.105, 2494.189
1055.349, 2298.793
1056.593, 2200.498
1057.837, 2126.252
1059.081, 2120.000
1060.325, 1877.743
1061.568, 1816.479
1062.812, 1702.211
1064.055, 1692.937
1065.298, 1547.658
1066.540, 1456.375
1067.783, 1427.087
1069.025, 1392.796
1070.267, 1273.500
1071.509, 1207.201
1072.751, 1250.898
1073.993, 1164.593
1075.234, 1194.286
1076.475, 1127.976
1077.716, 1182.664
1078.957, 1101.350
1080.198, 1132.036
1081.438, 1210.720
1082.679, 1287.402
1083.919, 1146.085
1085.159, 1154.768
1086.398, 1219.450
1087.638, 1331.133
1088.877, 1225.816
1090.116, 1306.500
1091.355, 1370.186
1092.594, 1436.873
1093.833, 1443.561
1095.071, 1555.252
1096.309, 1573.945
1097.547, 1695.641
1098.785, 1766.339
1100.023, 1857.041
1101.260, 2006.746
1102.498, 2142.454
1103.735, 2176.166
1104.972, 2369.884
1106.208, 2400.604
1107.445, 2422.331
1108.681, 2522.061
1109.918, 2699.797
1111.154, 2655.540
1112.389, 2743.287
1113.625, 2840.042
1114.860, 2670.803
1116.096, 2752.569
1117.331, 2703.344
1118.566, 2658.126
1119.800, 2574.914
1121.035, 2683.713
1122.269, 2620.521
1123.503, 2628.337
1124.737, 2485.162
1125.971, 2338.996
1127.205, 2268.839
1128.438, 2080.692
1129.671, 2065.561
1130.904, 1941.441
1132.137, 1874.335
1133.370, 1717.242
1134.602, 1632.163
1135.834, 1462.123
1137.066, 1477.122
1138.298, 1430.160
1139.530, 1255.247
1140.762, 1207.371
1141.993, 1020.516
1143.224, 998.717
1144.455, 953.947
1145.686, 906.214
1146.917, 892.545
1148.147, 940.920
1149.377, 809.349
1150.607, 824.815
1151.837, 715.336
1153.067, 665.914
1154.296, 696.527
1155.526, 637.180
1156.755, 539.866
1157.984, 528.571
1159.213, 475.294
1160.441, 444.036
1161.670, 372.797
1162.898, 387.578
1164.126, 272.381
1165.354, 295.228
1166.581, 170.116
1167.809, 253.061
1169.036, 79.050
1170.263, 123.068
1171.490, 52.145
1172.717, 45.289
1173.943, 24.493
1175.170, 26.779
1176.396, 35.861
1177.622, 25.529
1178.848, 45.025
1180.073, 34.570
1181.299, 59.092
1182.524, 62.595
1183.749, 66.214
1184.974, 37.508
1186.199, 86.905
1187.423, 61.282
1188.648, 92.628
1189.872, 61.971
1191.096, 99.289
1192.320, 107.592
1193.543, 52.902
1194.767, 1.805
1195.990, 76.456
1197.213, 0.292
1198.436, 96.930
1199.659, 29.169
1200.881, 34.397
1202.104, 57.382
1203.326, 114.186
1204.548, 100.013
1205.770, 94.863
1206.991, 162.736
1208.213, 197.633
1209.434, 222.553
1210.655, 263.498
1211.876, 331.465
1213.096, 448.458
1214.317, 531.476
1215.537, 540.518
1216.757, 548.589
1217.977, 623.685
1219.197, 687.807
1220.417, 745.963
1221.636, 829.145
1222.855, 770.353
1224.074, 853.590
1225.293, 727.853
1226.512, 782.142
1227.731, 782.458
1228.949, 746.801
1230.167, 741.170
1231.385, 711.566
1232.603, 616.990
1233.820, 603.440
1235.038, 465.916
1236.255, 471.417
1237.472, 429.943
1238.689, 368.495
1239.906, 388.070
1241.122, 309.668
1242.338, 293.288
1243.555, 388.930
1244.771, 298.427
1245.986, 333.283
1247.202, 220.994
1248.417, 367.728
1249.633, 340.484
1250.848, 325.265
1252.063, 392.068
1253.277, 369.895
1254.492, 332.746
1255.706, 451.620
1256.920, 375.518
1258.134, 410.439
1259.348, 391.384
1260.562, 509.354
1261.775, 541.348
1262.988, 560.365
1264.201, 627.407
1265.414, 677.474
1266.627, 707.081
1267.839, 784.196
1269.052, 943.335
1270.264, 961.550
1271.476, 1085.739
1272.688, 1122.968
1273.899, 1249.206
1275.111, 1388.558
1276.322, 1486.845
1277.533, 1575.156
1278.744, 1660.494
1279.955, 1695.856
1281.165, 1785.243
1282.376, 1800.655
1283.586, 1908.091
1284.796, 1936.100
1286.006, 1951.587
1287.215, 2002.100
1288.425, 2012.640
1289.634, 1819.227
1290.843, 1876.610
1292.052, 1757.291
1293.261, 1810.938
1294.469, 1778.613
1295.678, 1682.317
1296.886, 1682.046
1298.094, 1676.804
1299.302, 1590.588
1300.509, 1569.400
1301.717, 1507.239
1302.924, 1556.105
1304.131, 1659.997
1305.338, 1570.917
1306.545, 1675.862
1307.752, 1687.835
1308.958, 1752.834
1310.164, 1838.860
1311.370, 1871.913
1312.576, 2078.993
1313.782, 2076.099
1314.987, 2150.231
1316.193, 2120.392
1317.398, 2184.850
1318.603, 2230.703
1319.807, 2300.030
1321.012, 2327.297
1322.216, 2411.859
1323.421, 2431.180
1324.625, 2285.377
1325.829, 2393.078
1327.032, 2391.679
1328.236, 2498.145
1329.439, 2428.460
1330.642, 2496.128
1331.845, 2475.452
1333.048, 2446.087
1334.251, 2477.187
1335.453, 2349.845
1336.656, 2318.668
1337.858, 2317.097
1339.060, 2043.257
1340.261, 1950.792
1341.463, 1805.888
1342.664, 1759.436
1343.866, 1484.576
1345.067, 1377.004
1346.267, 1230.229
1347.468, 1178.087
1348.669, 1040.978
1349.869, 1033.901
1351.069, 899.855
1352.269, 779.843
1353.469, 769.863
1354.668, 671.917
1355.868, 615.004
1357.067, 629.125
1358.266, 563.413
1359.465, 473.934
1360.664, 484.859
1361.862, 314.128
1363.061, 341.434
1364.259, 395.061
1365.457, 302.446
1366.655, 369.901
1367.852, 328.993
1369.050, 337.503
1370.247, 404.058
1371.444, 330.849
1372.641, 257.429
1373.838, 286.048
1375.035, 245.781
1376.231, 279.495
1377.427, 297.010
1378.623, 324.420
1379.819, 369.757
1381.015, 354.687
1382.211, 379.168
1383.406, 344.195
1384.601, 336.839
1385.796, 354.512
1386.991, 333.215
1388.185, 329.948
1389.380, 346.709
1390.574, 283.500
1391.768, 265.320
1392.962, 313.169
1394.156, 254.047
1395.350, 223.954
1396.543, 310.889
1397.736, 136.847
1398.929, 227.833
1400.122, 126.846
1401.315, 134.881
1402.507, 126.937
1403.700, 149.020
1404.892, 119.129
1406.084, 66.263
1407.276, 54.419
1408.467, 112.600
1409.659, 26.203
1410.850, 67.017
1412.041, 73.262
1413.232, 4.468
1414.423, 2.824
1415.614, 0.861
1416.804, 33.476
1417.994, 43.165
1419.184, 50.215
1420.374, 20.615
1421.564, 20.035
1422.753, 60.475
1423.943, 30.932
1425.132, 6.432
1426.321, 96.992
1427.510, 27.361
1428.698, 39.382
1429.887, 27.234
1431.075, 24.210
1432.263, 1.669
1433.451, 34.447
1434.639, 5.298
1435.827, 88.277
1437.014, 92.761
1438.201, 174.276
1439.388, 326.821
1440.575, 210.396
1441.762, 315.000
1442.949, 275.630
1444.135, 381.270
1445.321, 433.918
1446.507, 458.572
1447.693, 458.237
1448.879, 469.919
1450.064, 415.619
1451.250, 524.334
1452.435, 500.071
1453.620, 612.837
1454.805, 518.641
1455.989, 582.499
1457.174, 621.417
1458.358, 486.397
1459.542, 500.438
1460.726, 637.542
1461.910, 527.709
1463.093, 510.943
1464.277, 449.245
1465.460, 391.616
1466.643, 396.058
1467.826, 279.301
1469.009, 332.868
1470.191, 222.383
1471.373, 219.064
1472.556, 238.949
1473.738, 215.779
1474.919, 138.699
1476.101, 189.713
1477.283, 203.207
1478.464, 127.359
1479.645, 183.070
1480.826, 173.115
1482.007, 205.410
1483.187, 212.770
1484.368, 148.196
1485.548, 190.694
1486.728, 159.268
1487.908, 193.924
1489.088, 178.841
1490.268, 177.503
1491.447, 150.434
1492.626, 109.462
1493.805, 88.586
1494.984, 95.808
1496.163, 16.127
1497.341, 64.607
1498.520, 99.203
1499.698, 1.054
1500.876, 31.025
1502.054, 9.789
1503.232, 22.695
1504.409, 70.355
1505.586, 23.803
1506.763, 83.237
1507.940, 42.489
1509.117, 11.973
1510.294, 154.711
1511.470, 95.732
1512.647, 45.580
1513.823, 80.175
1514.999, 105.376
1516.174, 21.116
1517.350, 15.266
1518.526, 32.471
1519.701, 52.542
1520.876, 81.657
1522.051, 8.615
1523.226, 7.591
1524.400, 0.000
##END=



