##NAMES=Kurnakovite
##RRUFFID=R050105
##IDEAL CHEMISTRY=MgB_3_O_3_(OH)_5_&#183;5H_2_O
##LOCALITY=Kramer deposit, Boron, Kern County, California, USA
##OWNER=RRUFF
##SOURCE=Rock Currier
##DESCRIPTION=Tabular single crystal
##STATUS=The identification of this mineral has been confirmed by X-ray diffraction and chemical analysis
##URL=rruff.info/R050105
##MEASURED CHEMISTRY=MgB_3_O_3_(OH)_5_Â·5H_2_O
##PIN_ID=L00453
##ORIENTATION=Laser parallel to c* (0 0 1). Fiducial mark perpendicular to laser is parallel to a [1 0 0]
109.387, 0.000
110.777, 384.589
112.168, 2087.352
113.559, 6013.840
114.949, 8363.701
116.339, 9473.010
117.729, 11818.645
119.119, 13253.562
120.508, 12879.494
121.897, 11363.189
123.286, 9188.559
124.675, 7177.931
126.063, 6572.719
127.452, 7128.090
128.840, 8202.595
130.228, 10047.492
131.615, 11509.910
133.003, 13041.222
134.390, 12062.411
135.777, 9991.766
137.164, 7068.500
138.550, 4899.726
139.937, 2736.111
141.323, 1664.188
142.709, 818.383
144.094, 431.036
145.480, 287.414
146.865, 264.738
148.250, 393.195
149.635, 165.943
151.019, 43.889
152.403, 386.188
153.788, 513.727
155.171, 547.236
156.555, 213.900
157.939, 209.853
159.322, 868.622
160.705, 1748.945
162.088, 2590.519
163.470, 3597.521
164.853, 4354.422
166.235, 5163.436
167.617, 5835.490
168.998, 6600.523
170.380, 7158.479
171.761, 7885.306
173.142, 8571.953
174.523, 9485.379
175.904, 9887.502
177.284, 9509.229
178.664, 8664.517
180.044, 7363.334
181.424, 6531.668
182.803, 5775.501
184.183, 5517.816
185.562, 5496.605
186.940, 5939.846
188.319, 6306.526
189.698, 6480.637
191.076, 6335.162
192.454, 5747.987
193.831, 4796.053
195.209, 3489.273
196.586, 2640.278
197.963, 1461.417
199.340, 850.414
200.717, 357.008
202.093, 3.467
203.470, 258.671
204.846, 494.695
206.221, 595.552
207.597, 537.248
208.972, 435.791
210.347, 522.184
211.722, 495.430
213.097, 257.550
214.472, 161.912
215.846, 118.331
217.220, 373.627
218.594, 693.994
219.967, 1132.420
221.341, 1529.911
222.714, 2371.468
224.087, 3085.097
225.460, 4235.799
226.832, 5411.580
228.204, 6607.439
229.577, 7494.381
230.948, 7900.406
232.320, 7494.514
233.692, 6806.705
235.063, 5792.984
236.434, 4410.349
237.805, 3195.800
239.175, 2354.132
240.545, 1420.854
241.916, 1204.909
243.286, 803.359
244.655, 691.453
246.025, 708.580
247.394, 1076.852
248.763, 1577.267
250.132, 2219.826
251.501, 3225.531
252.869, 3767.379
254.237, 4898.369
255.605, 5286.500
256.973, 5373.770
258.340, 5054.176
259.708, 4070.715
261.075, 3182.385
262.442, 2412.184
263.808, 1826.110
265.175, 1274.162
266.541, 948.337
267.907, 903.635
269.273, 1009.050
270.639, 1266.583
272.004, 1413.230
273.369, 2040.994
274.734, 2662.523
276.099, 3432.355
277.463, 4071.896
278.828, 5250.182
280.192, 5985.564
281.556, 6506.916
282.919, 7255.597
284.283, 6984.631
285.646, 6807.669
287.009, 5853.740
288.372, 4779.714
289.734, 3967.158
291.097, 3063.540
292.459, 2429.321
293.821, 2292.834
295.183, 1976.515
296.544, 2096.047
297.905, 2090.679
299.266, 2503.370
300.627, 2853.035
301.988, 3335.672
303.348, 3676.295
304.709, 3967.920
306.069, 4219.555
307.428, 4356.209
308.788, 4070.886
310.147, 3682.594
311.507, 3297.335
312.865, 2790.117
314.224, 2423.939
315.583, 2230.445
316.941, 2216.201
318.299, 2057.747
319.657, 2273.568
321.015, 2498.299
322.372, 2626.896
323.729, 2878.629
325.086, 3079.509
326.443, 3416.016
327.800, 3422.626
329.156, 3676.368
330.512, 3618.237
331.868, 3859.228
333.224, 4046.334
334.579, 4520.555
335.935, 4734.882
337.290, 5663.314
338.645, 6182.850
339.999, 7453.479
341.354, 8446.208
342.708, 10162.029
344.062, 11905.938
345.416, 13771.937
346.769, 16218.021
348.123, 18700.191
349.476, 21405.436
350.829, 24830.768
352.182, 28509.172
353.534, 32092.654
354.887, 34631.203
356.239, 35792.836
357.591, 35676.531
358.942, 33705.293
360.294, 31096.117
361.645, 27583.982
362.996, 23952.896
364.347, 21263.834
365.698, 18790.293
367.048, 17007.342
368.398, 15702.459
369.748, 14813.691
371.098, 14277.355
372.448, 13742.916
373.797, 13630.522
375.146, 13311.790
376.495, 13328.245
377.844, 13600.967
379.192, 13114.072
380.540, 13039.731
381.889, 12017.462
383.236, 11123.289
384.584, 10119.221
385.932, 8567.281
387.279, 7372.438
388.626, 6230.678
389.973, 5288.006
391.319, 3971.391
392.666, 3565.869
394.012, 2778.398
395.358, 2437.976
396.704, 2101.658
398.049, 1955.366
399.394, 2014.102
400.740, 1882.860
402.084, 2113.646
403.429, 2216.459
404.774, 2623.305
406.118, 3465.184
407.462, 3939.101
408.806, 4954.049
410.150, 6243.036
411.493, 7785.056
412.836, 9510.107
414.179, 11662.193
415.522, 13339.310
416.865, 15828.459
418.207, 17022.639
419.549, 17215.846
420.891, 16619.080
422.233, 15393.349
423.575, 12986.641
424.916, 10192.958
426.257, 8402.307
427.598, 6537.677
428.939, 4788.074
430.279, 3623.492
431.619, 2345.938
432.959, 1612.404
434.299, 1122.895
435.639, 835.406
436.978, 288.992
438.318, 82.619
439.657, 277.778
440.996, 366.388
442.334, 508.266
443.673, 660.491
445.011, 800.150
446.349, 571.314
447.687, 601.869
449.024, 646.829
450.361, 478.220
451.699, 428.951
453.036, 211.999
454.372, 137.752
455.709, 471.465
457.045, 708.173
458.381, 1312.882
459.717, 1851.596
461.053, 2719.312
462.388, 3325.036
463.724, 4171.764
465.059, 4894.496
466.394, 4994.234
467.728, 5032.979
469.063, 5013.725
470.397, 4234.476
471.731, 3473.234
473.065, 2783.996
474.398, 1990.760
475.732, 1573.529
477.065, 938.312
478.398, 891.169
479.731, 586.127
481.063, 569.192
482.396, 386.306
483.728, 517.429
485.060, 559.565
486.391, 550.721
487.723, 858.895
489.054, 881.088
490.385, 959.299
491.716, 1339.528
493.047, 1333.775
494.377, 1711.037
495.708, 1991.316
497.038, 2168.611
498.368, 2349.921
499.697, 2540.246
501.027, 2704.584
502.356, 2796.938
503.685, 2660.304
505.014, 2663.684
506.342, 2290.076
507.671, 2298.481
508.999, 1999.898
510.327, 1953.326
511.655, 1729.767
512.982, 1572.218
514.310, 1621.681
515.637, 1451.155
516.964, 1584.640
518.291, 1442.135
519.617, 1755.641
520.944, 1743.158
522.270, 1484.688
523.596, 1831.234
524.921, 1989.795
526.247, 2092.417
527.572, 2296.150
528.897, 2387.051
530.222, 2780.139
531.547, 3032.926
532.871, 3462.789
534.196, 3599.958
535.520, 3930.319
536.844, 4543.639
538.167, 4773.828
539.491, 5375.598
540.814, 5772.406
542.137, 6431.162
543.460, 6906.463
544.783, 7734.182
546.105, 8195.007
547.427, 9085.530
548.749, 9794.890
550.071, 10858.556
551.393, 11784.858
552.714, 12861.714
554.035, 13658.794
555.356, 14592.834
556.677, 14930.809
557.998, 14929.783
559.318, 14961.740
560.638, 13916.688
561.958, 12778.629
563.278, 11118.562
564.597, 10187.490
565.917, 8842.404
567.236, 7709.314
568.555, 7120.215
569.874, 6185.106
571.192, 5887.988
572.511, 5419.862
573.829, 5047.726
575.147, 4439.578
576.464, 4583.424
577.782, 4207.258
579.099, 4077.082
580.416, 4223.894
581.733, 4430.697
583.050, 4728.489
584.366, 4811.270
585.683, 5617.041
586.999, 5662.799
588.315, 6092.545
589.630, 6670.281
590.946, 6590.004
592.261, 6516.715
593.576, 6015.414
594.891, 5318.102
596.206, 4943.594
597.520, 4594.651
598.834, 4480.207
600.148, 4220.066
601.462, 4155.958
602.776, 4335.242
604.089, 4227.727
605.402, 4554.557
606.715, 4688.468
608.028, 5530.568
609.341, 5869.281
610.653, 6453.125
611.965, 7378.641
613.277, 8186.492
614.589, 9480.168
615.901, 10782.853
617.212, 12639.549
618.523, 14678.262
619.834, 17435.982
621.145, 20064.723
622.456, 22985.467
623.766, 26237.232
625.076, 30215.998
626.386, 33043.785
627.696, 36100.578
629.006, 36862.387
630.315, 38800.211
631.624, 36875.043
632.933, 35951.883
634.242, 34051.738
635.551, 30389.604
636.859, 27703.480
638.167, 24105.365
639.475, 22106.266
640.783, 18517.172
642.090, 16496.086
643.398, 14647.012
644.705, 12775.948
646.012, 11086.890
647.318, 9770.846
648.625, 8750.805
649.931, 7751.771
651.237, 6752.750
652.543, 6115.736
653.849, 5434.729
655.155, 4903.729
656.460, 4292.738
657.765, 4089.756
659.070, 3395.783
660.375, 3103.821
661.679, 3024.868
662.984, 2604.926
664.288, 2187.015
665.592, 2129.113
666.895, 1799.261
668.199, 1621.419
669.502, 1555.633
670.805, 1196.867
672.108, 1316.158
673.411, 1057.463
674.713, 856.821
676.016, 816.241
677.318, 619.877
678.620, 581.806
679.921, 450.405
681.223, 280.182
682.524, 128.311
683.825, 67.159
685.126, 113.753
686.427, 189.506
687.727, 46.891
689.028, 27.099
690.328, 271.011
691.628, 95.756
692.927, 93.027
694.227, 280.549
695.526, 494.061
696.825, 143.328
698.124, 237.932
699.423, 246.453
700.721, 364.639
702.020, 238.986
703.318, 186.520
704.616, 200.166
705.913, 93.821
707.211, 231.764
708.508, 65.732
709.805, 69.750
711.102, 276.819
712.399, 240.951
713.695, 38.715
714.992, 445.473
716.288, 511.224
717.584, 802.969
718.879, 1131.707
720.175, 1416.092
721.470, 1904.167
722.765, 2253.888
724.060, 2791.601
725.355, 3423.308
726.649, 4007.009
727.944, 4874.703
729.238, 6057.389
730.532, 6454.070
731.825, 8225.745
733.119, 9291.416
734.412, 9941.075
735.705, 10709.731
736.998, 11426.380
738.291, 11556.023
739.584, 11585.658
740.876, 11217.288
742.168, 10562.911
743.460, 9520.527
744.752, 8842.138
746.043, 8098.741
747.334, 7775.339
748.626, 6913.930
749.916, 6221.515
751.207, 5984.092
752.498, 5299.667
753.788, 5348.260
755.078, 4801.963
756.368, 4558.798
757.658, 4307.804
758.947, 3999.021
760.237, 3859.314
761.526, 3719.137
762.815, 3625.984
764.104, 3402.038
765.392, 3420.254
766.680, 3170.621
767.969, 2930.078
769.257, 3247.547
770.544, 2791.007
771.832, 2962.460
773.119, 2780.906
774.406, 2761.346
775.693, 2733.776
776.980, 2544.199
778.267, 2747.614
779.553, 2794.021
780.839, 2853.420
782.125, 2750.809
783.411, 3005.188
784.697, 2827.561
785.982, 2994.924
787.267, 3199.276
788.552, 3386.620
789.837, 3533.535
791.122, 3649.279
792.406, 3809.594
793.690, 3978.899
794.974, 4086.193
796.258, 4121.478
797.542, 4302.750
798.825, 4008.012
800.108, 4269.264
801.391, 3840.503
802.674, 3776.731
803.957, 3717.947
805.239, 3277.151
806.522, 3421.344
807.804, 2909.525
809.085, 2890.693
810.367, 2669.849
811.649, 2281.139
812.930, 2086.615
814.211, 1958.011
815.492, 1633.215
816.772, 1629.252
818.053, 1414.139
819.333, 1173.096
820.613, 854.497
821.893, 885.730
823.173, 700.897
824.452, 678.477
825.732, 621.482
827.011, 360.979
828.290, 309.895
829.568, 242.405
830.847, 156.421
832.125, 129.031
833.403, 82.727
834.681, 70.261
835.959, 28.662
837.236, 37.644
838.514, 54.728
839.791, 147.532
841.068, 173.071
842.345, 146.661
843.621, 256.638
844.898, 80.087
846.174, 113.945
847.450, 132.332
848.726, 35.380
850.001, 6.284
851.277, 167.741
852.552, 114.228
853.827, 289.149
855.102, 184.633
856.376, 301.991
857.651, 441.633
858.925, 577.415
860.199, 621.869
861.473, 521.667
862.746, 842.893
864.020, 1032.873
865.293, 750.866
866.566, 1312.910
867.839, 1068.924
869.112, 1351.938
870.384, 1436.935
871.656, 1454.917
872.928, 1306.883
874.200, 1596.833
875.472, 1413.769
876.744, 1432.688
878.015, 1428.594
879.286, 1284.484
880.557, 1337.359
881.828, 1402.222
883.098, 1227.114
884.369, 1143.991
885.639, 1228.855
886.909, 996.705
888.178, 1011.554
889.448, 883.387
890.717, 1109.209
891.987, 1011.021
893.256, 981.819
894.524, 1078.625
895.793, 891.415
897.061, 1040.201
898.330, 929.970
899.598, 1112.735
900.865, 1251.487
902.133, 1452.255
903.401, 1402.011
904.668, 1686.779
905.935, 1804.530
907.202, 1764.301
908.468, 1992.053
909.735, 2313.835
911.001, 2506.598
912.267, 2613.336
913.533, 2819.065
914.799, 3041.832
916.064, 3064.594
917.330, 3367.332
918.595, 3190.055
919.860, 3213.750
921.124, 3318.420
922.389, 3055.059
923.653, 2722.669
924.918, 2746.249
926.182, 2573.801
927.445, 2249.324
928.709, 2192.819
929.972, 1818.292
931.236, 1525.735
932.499, 1500.148
933.761, 1498.531
935.024, 1023.914
936.286, 1051.278
937.549, 1233.613
938.811, 587.919
940.073, 880.193
941.334, 720.438
942.596, 567.652
943.857, 670.835
945.118, 627.988
946.379, 410.109
947.640, 417.203
948.900, 392.783
950.161, 447.294
951.421, 418.293
952.681, 508.261
953.940, 474.197
955.200, 420.102
956.459, 308.974
957.719, 647.813
958.978, 426.622
960.236, 438.397
961.495, 343.142
962.753, 247.853
964.012, 201.529
965.270, 49.172
966.527, 263.770
967.785, 91.333
969.043, 37.145
970.300, 100.299
971.557, 108.299
972.814, 65.987
974.071, 135.771
975.327, 1.340
976.583, 148.609
977.840, 38.302
979.095, 130.834
980.351, 156.100
981.607, 68.510
982.862, 232.196
984.117, 296.280
985.372, 206.847
986.627, 362.237
987.882, 21.811
989.136, 40.152
990.390, 291.295
991.644, 32.719
992.898, 71.952
994.152, 10.380
995.405, 40.456
996.659, 95.249
997.912, 202.500
999.165, 267.935
1000.417, 265.243
1001.670, 314.978
1002.922, 342.520
1004.174, 334.254
1005.426, 381.776
1006.678, 381.324
1007.930, 363.952
1009.181, 329.604
1010.432, 374.279
1011.683, 373.955
1012.934, 358.665
1014.185, 404.134
1015.435, 418.605
1016.685, 531.794
1017.935, 504.501
1019.185, 705.176
1020.435, 792.818
1021.684, 818.432
1022.934, 893.014
1024.183, 1108.562
1025.432, 1176.080
1026.680, 1346.019
1027.929, 1452.473
1029.177, 1597.689
1030.425, 1811.081
1031.673, 2083.010
1032.921, 2308.578
1034.169, 2280.043
1035.416, 2604.163
1036.663, 2777.678
1037.911, 2771.472
1039.157, 2951.951
1040.404, 3154.150
1041.650, 3160.691
1042.897, 3340.536
1044.143, 3313.064
1045.389, 3099.407
1046.634, 3184.494
1047.880, 2906.574
1049.125, 2705.447
1050.371, 2724.053
1051.615, 2852.053
1052.860, 2305.746
1054.105, 2577.859
1055.349, 2481.787
1056.593, 2140.091
1057.837, 2159.969
1059.081, 2269.104
1060.325, 2020.972
1061.568, 2081.592
1062.812, 1868.592
1064.055, 2013.213
1065.298, 1741.003
1066.540, 1802.525
1067.783, 1681.340
1069.025, 1782.066
1070.267, 1927.725
1071.509, 1692.985
1072.751, 1809.207
1073.993, 1867.394
1075.234, 1788.701
1076.475, 1745.922
1077.716, 2068.294
1078.957, 1797.908
1080.198, 1996.911
1081.438, 2163.878
1082.679, 2019.855
1083.919, 2215.211
1085.159, 2120.916
1086.398, 2479.804
1087.638, 2352.927
1088.877, 2473.773
1090.116, 2528.488
1091.355, 2699.166
1092.594, 2699.838
1093.833, 2854.444
1095.071, 2918.307
1096.309, 3166.252
1097.547, 3266.651
1098.785, 3278.305
1100.023, 3568.733
1101.260, 3844.326
1102.498, 4041.684
1103.735, 4007.004
1104.972, 4387.312
1106.208, 4496.564
1107.445, 4769.782
1108.681, 4540.963
1109.918, 4757.107
1111.154, 4751.219
1112.389, 5000.150
1113.625, 4948.846
1114.860, 4960.574
1116.096, 5102.447
1117.331, 5054.438
1118.566, 4976.535
1119.800, 4909.512
1121.035, 4780.000
1122.269, 4697.604
1123.503, 4560.076
1124.737, 4557.389
1125.971, 4240.076
1127.205, 4028.225
1128.438, 3763.908
1129.671, 3707.949
1130.904, 3230.434
1132.137, 3254.596
1133.370, 3071.689
1134.602, 2852.793
1135.834, 2315.686
1137.066, 2361.938
1138.298, 2511.025
1139.530, 1968.338
1140.762, 2110.861
1141.993, 1664.082
1143.224, 1587.277
1144.455, 1501.141
1145.686, 1333.512
1146.917, 1365.449
1148.147, 1311.643
1149.377, 1175.854
1150.607, 1177.193
1151.837, 1057.291
1153.067, 844.811
1154.296, 837.088
1155.526, 835.342
1156.755, 666.574
1157.984, 578.783
1159.213, 587.969
1160.441, 499.131
1161.670, 552.271
1162.898, 515.387
1164.126, 488.832
1165.354, 425.553
1166.581, 452.598
1167.809, 459.621
1169.036, 463.342
1170.263, 263.600
1171.490, 324.557
1172.717, 326.488
1173.943, 95.400
1175.170, 244.287
1176.396, 28.150
1177.622, 320.986
1178.848, 62.799
1180.073, 155.414
1181.299, 156.254
1182.524, 15.902
1183.749, 126.518
1184.974, 34.889
1186.199, 116.652
1187.423, 6.170
1188.648, 1.346
1189.872, 19.104
1191.096, 64.473
1192.320, 67.883
1193.543, 29.783
1194.767, 148.500
1195.990, 28.236
1197.213, 16.980
1198.436, 111.828
1199.659, 6.273
1200.881, 99.650
1202.104, 127.338
1203.326, 120.688
1204.548, 119.191
1205.770, 167.947
1206.991, 101.801
1208.213, 150.529
1209.434, 25.760
1210.655, 212.088
1211.876, 72.555
1213.096, 131.918
1214.317, 27.623
1215.537, 61.797
1216.757, 67.211
1217.977, 187.613
1219.197, 158.342
1220.417, 174.760
1221.636, 108.748
1222.855, 119.100
1224.074, 72.441
1225.293, 18.227
1226.512, 288.072
1227.731, 139.365
1228.949, 124.645
1230.167, 100.086
1231.385, 43.154
1232.603, 114.283
1233.820, 47.439
1235.038, 102.582
1236.255, 202.707
1237.472, 219.818
1238.689, 112.914
1239.906, 404.992
1241.122, 46.057
1242.338, 16.107
1243.555, 296.143
1244.771, 88.162
1245.986, 137.170
1247.202, 58.164
1248.417, 244.145
1249.633, 328.113
1250.848, 95.072
1252.063, 421.016
1253.277, 324.945
1254.492, 260.867
1255.706, 547.775
1256.920, 496.672
1258.134, 457.557
1259.348, 174.432
1260.562, 611.297
1261.775, 503.156
1262.988, 470.008
1264.201, 607.854
1265.414, 792.711
1266.627, 706.562
1267.839, 826.443
1269.052, 1006.322
1270.264, 918.238
1271.476, 1081.160
1272.688, 987.123
1273.899, 1214.086
1275.111, 1296.090
1276.322, 1392.137
1277.533, 1558.207
1278.744, 1698.348
1279.955, 1716.570
1281.165, 2050.783
1282.376, 2084.098
1283.586, 2216.430
1284.796, 2123.775
1286.006, 2305.207
1287.215, 2451.656
1288.425, 2396.102
1289.634, 2296.553
1290.843, 2291.006
1292.052, 2027.461
1293.261, 2298.910
1294.469, 2029.359
1295.678, 2210.805
1296.886, 2012.250
1298.094, 1977.691
1299.302, 1678.131
1300.509, 1826.572
1301.717, 1870.008
1302.924, 1866.443
1304.131, 1684.881
1305.338, 1768.316
1306.545, 1759.752
1307.752, 1725.188
1308.958, 1879.625
1310.164, 2194.061
1311.370, 1851.502
1312.576, 2200.941
1313.782, 2200.385
1314.987, 2171.828
1316.193, 2047.279
1317.398, 2429.729
1318.603, 2176.184
1319.807, 2431.193
1321.012, 2428.656
1322.216, 2712.336
1323.421, 2668.811
1324.625, 2753.465
1325.829, 2910.977
1327.032, 2775.303
1328.236, 2921.955
1329.439, 2872.186
1330.642, 2809.117
1331.845, 2933.340
1333.048, 2884.967
1334.251, 3144.947
1335.453, 2908.742
1336.656, 2865.990
1337.858, 2848.104
1339.060, 2596.605
1340.261, 2504.102
1341.463, 2296.785
1342.664, 2123.383
1343.866, 1876.252
1345.067, 1792.076
1346.267, 1614.469
1347.468, 1501.035
1348.669, 1230.217
1349.869, 1299.814
1351.069, 1001.148
1352.269, 957.748
1353.469, 1048.588
1354.668, 806.045
1355.868, 814.877
1357.067, 817.545
1358.266, 449.482
1359.465, 725.135
1360.664, 752.316
1361.862, 434.139
1363.061, 727.512
1364.259, 567.318
1365.457, 543.656
1366.655, 500.896
1367.852, 302.252
1369.050, 391.484
1370.247, 563.271
1371.444, 291.660
1372.641, 536.023
1373.838, 532.342
1375.035, 267.236
1376.231, 352.322
1377.427, 350.641
1378.623, 519.121
1379.819, 492.389
1381.015, 364.723
1382.211, 570.791
1383.406, 544.736
1384.601, 502.012
1385.796, 617.174
1386.991, 475.529
1388.185, 521.912
1389.380, 302.303
1390.574, 492.699
1391.768, 530.107
1392.962, 591.521
1394.156, 474.943
1395.350, 494.375
1396.543, 599.814
1397.736, 469.262
1398.929, 489.715
1400.122, 512.172
1401.315, 654.637
1402.507, 626.102
1403.700, 600.564
1404.892, 529.027
1406.084, 712.486
1407.276, 615.943
1408.467, 684.396
1409.659, 569.846
1410.850, 653.293
1412.041, 802.736
1413.232, 587.176
1414.423, 851.613
1415.614, 599.045
1416.804, 522.473
1417.994, 610.896
1419.184, 684.316
1420.374, 626.980
1421.564, 574.145
1422.753, 555.562
1423.943, 449.055
1425.132, 366.621
1426.321, 359.219
1427.510, 428.852
1428.698, 305.521
1429.887, 397.271
1431.075, 330.068
1432.263, 391.916
1433.451, 203.891
1434.639, 536.982
1435.827, 448.207
1437.014, 377.609
1438.201, 584.039
1439.388, 615.752
1440.575, 374.539
1441.762, 410.316
1442.949, 519.094
1444.135, 497.875
1445.321, 626.658
1446.507, 628.473
1447.693, 606.293
1448.879, 636.250
1450.064, 592.244
1451.250, 589.287
1452.435, 629.318
1453.620, 916.555
1454.805, 713.779
1455.989, 764.064
1457.174, 811.412
1458.358, 479.824
1459.542, 674.305
1460.726, 808.859
1461.910, 538.486
1463.093, 854.193
1464.277, 381.982
1465.460, 423.865
1466.643, 605.842
1467.826, 380.924
1469.009, 490.117
1470.191, 335.426
1471.373, 345.863
1472.556, 438.436
1473.738, 537.148
1474.919, 489.574
1476.101, 461.010
1477.283, 389.170
1478.464, 305.480
1479.645, 188.941
1480.826, 394.547
1482.007, 335.301
1483.187, 523.217
1484.368, 126.309
1485.548, 408.584
1486.728, 275.057
1487.908, 301.736
1489.088, 299.635
1490.268, 208.969
1491.447, 281.152
1492.626, 153.803
1493.805, 152.740
1494.984, 280.977
1496.163, 220.537
1497.341, 154.436
1498.520, 225.697
1499.698, 111.342
1500.876, 116.098
1502.054, 61.100
1503.232, 70.891
1504.409, 7.412
1505.586, 1.486
1506.763, 215.248
1507.940, 272.678
1509.117, 160.869
1510.294, 135.904
1511.470, 204.100
1512.647, 145.133
1513.823, 248.006
1514.999, 258.555
1516.174, 231.051
1517.350, 0.131
1518.526, 205.609
1519.701, 0.000
##END=



