##NAMES=Kurnakovite
##RRUFFID=R050105
##IDEAL CHEMISTRY=MgB_3_O_3_(OH)_5_&#183;5H_2_O
##LOCALITY=Kramer deposit, Boron, Kern County, California, USA
##OWNER=RRUFF
##SOURCE=Rock Currier
##DESCRIPTION=Tabular single crystal
##STATUS=The identification of this mineral has been confirmed by X-ray diffraction and chemical analysis
##URL=rruff.info/R050105
##MEASURED CHEMISTRY=MgB_3_O_3_(OH)_5_Â·5H_2_O
##PIN_ID=L00338
##ORIENTATION=Laser parallel to a* (1 0 0). Fiducial mark perpendicular to laser is parallel to b [0 1 0]
95.465, 0.000
96.858, 185.576
98.251, 1995.387
99.644, 4957.802
101.036, 9236.349
102.428, 12468.720
103.820, 10763.552
105.212, 8395.808
106.604, 5477.254
107.995, 4502.682
109.387, 3861.297
110.777, 3513.166
112.168, 3820.783
113.559, 3902.462
114.949, 4653.953
116.339, 5364.031
117.729, 7006.676
119.119, 9252.410
120.508, 11178.468
121.897, 11777.494
123.286, 10940.312
124.675, 9359.798
126.063, 7526.302
127.452, 6492.174
128.840, 5911.953
130.228, 5729.272
131.615, 5271.833
133.003, 3764.389
134.390, 2857.084
135.777, 1421.624
137.164, 594.944
138.550, 66.722
139.937, 518.549
141.323, 651.527
142.709, 684.635
144.094, 363.120
145.480, 164.335
146.865, 720.637
148.250, 1611.324
149.635, 2249.977
151.019, 2952.026
152.403, 2744.522
153.788, 2663.543
155.171, 2806.870
156.555, 2617.994
157.939, 2296.008
159.322, 2151.989
160.705, 2628.011
162.088, 3251.131
163.470, 4453.409
164.853, 5337.894
166.235, 6314.623
167.617, 6211.637
168.998, 5513.975
170.380, 4923.674
171.761, 4055.678
173.142, 4122.003
174.523, 4075.778
175.904, 4257.042
177.284, 4262.823
178.664, 3628.551
180.044, 3310.047
181.424, 2766.095
182.803, 2336.604
184.183, 2060.312
185.562, 2171.773
186.940, 2260.973
188.319, 2303.828
189.698, 2612.949
191.076, 2493.275
192.454, 2381.781
193.831, 2138.462
195.209, 1746.360
196.586, 1577.681
197.963, 1208.227
199.340, 932.677
200.717, 649.631
202.093, 565.913
203.470, 437.309
204.846, 280.464
206.221, 202.532
207.597, 223.290
208.972, 401.234
210.347, 389.350
211.722, 564.629
213.097, 786.059
214.472, 976.632
215.846, 999.340
217.220, 1195.173
218.594, 1254.124
219.967, 1131.185
221.341, 1276.334
222.714, 1596.538
224.087, 1944.773
225.460, 2532.034
226.832, 3323.318
228.204, 4408.627
229.577, 5037.948
230.948, 5951.270
232.320, 6356.572
233.692, 6189.777
235.063, 5525.870
236.434, 4389.936
237.805, 3663.989
239.175, 2733.031
240.545, 1909.062
241.916, 1325.086
243.286, 862.098
244.655, 694.104
246.025, 324.103
247.394, 353.097
248.763, 158.087
250.132, 286.073
251.501, 378.058
252.869, 371.039
254.237, 647.013
255.605, 583.934
256.973, 589.858
258.340, 498.841
259.708, 325.940
261.075, 45.515
262.442, 219.476
263.808, 352.503
265.175, 501.714
266.541, 458.765
267.907, 510.047
269.273, 539.879
270.639, 394.421
272.004, 452.786
273.369, 207.300
274.734, 47.905
276.099, 18.442
277.463, 357.757
278.828, 539.089
280.192, 862.435
281.556, 1059.790
282.919, 1240.465
284.283, 1365.598
285.646, 1360.457
287.009, 1254.404
288.372, 915.412
289.734, 841.451
291.097, 523.510
292.459, 356.574
293.821, 194.629
295.183, 60.352
296.544, 45.433
297.905, 138.617
299.266, 126.935
300.627, 154.387
301.988, 233.984
303.348, 182.848
304.709, 243.867
306.069, 140.875
307.428, 86.021
308.788, 0.077
310.147, 91.207
311.507, 114.183
312.865, 217.994
314.224, 326.643
315.583, 552.069
316.941, 914.168
318.299, 1145.197
319.657, 1478.112
321.015, 1895.922
322.372, 2228.627
323.729, 2474.235
325.086, 2803.749
326.443, 2830.173
327.800, 3112.513
329.156, 3063.770
330.512, 2893.948
331.868, 2656.051
333.224, 2485.082
334.579, 2178.043
335.935, 2060.928
337.290, 2055.689
338.645, 2085.391
339.999, 2232.855
341.354, 2502.623
342.708, 2674.074
344.062, 2940.978
345.416, 3180.148
346.769, 3051.556
348.123, 3346.313
349.476, 3134.716
350.829, 3263.003
352.182, 3361.284
353.534, 3396.560
354.887, 3719.827
356.239, 3623.088
357.591, 3838.339
358.942, 3691.524
360.294, 3253.429
361.645, 3227.989
362.996, 2660.162
364.347, 2404.946
365.698, 2231.456
367.048, 2148.778
368.398, 2204.886
369.748, 2130.502
371.098, 2335.011
372.448, 2487.012
373.797, 2624.923
375.146, 2729.334
376.495, 2626.764
377.844, 2820.210
379.192, 2626.674
380.540, 2687.157
381.889, 2505.657
383.236, 2412.176
384.584, 2517.711
385.932, 2379.265
387.279, 2617.837
388.626, 2703.428
389.973, 3001.039
391.319, 3348.668
392.666, 3782.319
394.012, 4253.988
395.358, 4870.678
396.704, 5654.391
398.049, 5909.125
399.394, 6553.885
400.740, 7034.669
402.084, 7050.476
403.429, 7277.309
404.774, 6938.168
406.118, 7139.049
407.462, 6972.959
408.806, 7049.513
410.150, 7836.434
411.493, 8616.128
412.836, 9589.325
414.179, 11022.372
415.522, 13097.850
416.865, 15014.243
418.207, 16556.318
419.549, 17896.889
420.891, 17665.303
422.233, 16687.240
423.575, 14914.821
424.916, 12623.635
426.257, 10844.661
427.598, 8709.691
428.939, 7360.731
430.279, 5933.746
431.619, 4894.959
432.959, 4027.783
434.299, 3244.173
435.639, 3068.716
436.978, 2589.020
438.318, 2467.256
439.657, 2341.881
440.996, 2064.991
442.334, 2089.089
443.673, 2105.172
445.011, 2195.248
446.349, 2324.319
447.687, 2539.389
449.024, 2831.456
450.361, 3052.524
451.699, 3734.590
453.036, 4351.652
454.372, 5506.517
455.709, 6992.074
457.045, 8157.430
458.381, 11040.630
459.717, 13650.893
461.053, 17824.801
462.388, 22227.906
463.724, 27664.943
465.059, 33671.207
466.394, 38062.445
467.728, 42555.211
469.063, 42300.578
470.397, 40492.891
471.731, 36825.121
473.065, 31498.223
474.398, 26805.523
475.732, 21717.107
477.065, 17844.717
478.398, 14786.355
479.731, 12041.012
481.063, 9973.696
482.396, 7960.403
483.728, 6644.139
485.060, 5452.898
486.391, 4228.688
487.723, 3902.501
489.054, 3068.346
490.385, 2465.219
491.716, 2086.121
493.047, 1642.055
494.377, 1362.828
495.708, 1179.014
497.038, 987.039
498.368, 792.100
499.697, 726.193
501.027, 903.320
502.356, 751.482
503.685, 859.680
505.014, 902.914
506.342, 1006.191
507.671, 1032.512
508.999, 1006.881
510.327, 959.301
511.655, 976.771
512.982, 1125.295
514.310, 1010.879
515.637, 914.516
516.964, 1085.207
518.291, 1003.951
519.617, 1049.773
520.944, 1074.682
522.270, 957.695
523.596, 1049.836
524.921, 1029.076
526.247, 1092.434
527.572, 1260.924
528.897, 1295.518
530.222, 1234.258
531.547, 1206.135
532.871, 1202.096
534.196, 1374.219
535.520, 1296.473
536.844, 1471.844
538.167, 1314.357
539.491, 1228.977
540.814, 1278.711
542.137, 1222.568
543.460, 1449.566
544.783, 1199.691
546.105, 1502.896
547.427, 1305.219
548.749, 1593.625
550.071, 1687.111
551.393, 1885.742
552.714, 2455.477
554.035, 2661.346
555.356, 3024.307
556.677, 3255.365
557.998, 3167.529
559.318, 3338.768
560.638, 3175.133
561.958, 2619.566
563.278, 2232.062
564.597, 1758.691
565.917, 1456.379
567.236, 1127.176
568.555, 806.045
569.874, 615.977
571.192, 362.996
572.511, 195.086
573.829, 89.764
575.147, 165.564
576.464, 114.338
577.782, 316.068
579.099, 227.816
580.416, 272.553
581.733, 209.291
583.050, 380.971
584.366, 273.582
585.683, 169.049
586.999, 355.301
588.315, 31.408
589.630, 106.270
590.946, 136.891
592.261, 67.688
593.576, 180.504
594.891, 162.500
596.206, 360.629
597.520, 494.879
598.834, 533.193
600.148, 642.570
601.462, 736.010
602.776, 926.510
604.089, 1176.072
605.402, 1399.695
606.715, 1528.385
608.028, 1831.133
609.341, 1935.945
610.653, 2385.816
611.965, 2943.750
613.277, 3352.754
614.589, 4039.846
615.901, 4441.086
617.212, 5699.469
618.523, 6354.023
619.834, 7711.740
621.145, 9227.633
622.456, 10863.719
623.766, 13036.984
625.076, 14708.445
626.386, 17133.062
627.696, 19347.830
629.006, 20272.711
630.315, 21807.684
631.624, 21320.760
632.933, 21245.898
634.242, 20579.105
635.551, 18690.369
636.859, 17662.691
638.167, 15589.070
639.475, 13894.508
640.783, 12892.000
642.090, 11428.551
643.398, 10343.160
644.705, 8988.826
646.012, 8385.545
647.318, 7697.324
648.625, 6611.154
649.931, 6308.043
651.237, 5603.984
652.543, 5249.982
653.849, 4666.037
655.155, 4244.141
656.460, 4223.303
657.765, 3715.518
659.070, 3415.783
660.375, 3221.105
661.679, 2951.480
662.984, 2899.906
664.288, 2582.385
665.592, 2432.914
666.895, 2313.496
668.199, 2022.127
669.502, 2135.305
670.805, 1878.416
672.108, 1768.201
673.411, 1798.789
674.713, 1586.727
676.016, 1476.523
677.318, 1387.572
678.620, 1240.502
679.921, 1366.197
681.223, 1238.615
682.524, 1059.309
683.825, 1195.088
685.126, 1215.459
686.427, 1195.820
687.727, 1102.514
689.028, 1279.129
690.328, 1090.430
691.628, 1066.303
692.927, 1277.830
694.227, 1237.371
695.526, 1266.744
696.825, 1354.246
698.124, 1376.512
699.423, 1495.611
700.721, 1648.150
702.020, 1750.680
703.318, 1686.877
704.616, 1850.631
705.913, 1798.543
707.211, 1980.236
708.508, 2098.613
709.805, 2345.941
711.102, 2443.211
712.399, 2582.377
713.695, 2555.197
714.992, 2892.549
716.288, 3021.727
717.584, 3348.143
718.879, 3536.021
720.175, 3790.611
721.470, 4333.512
722.765, 4685.051
724.060, 5264.107
725.355, 5959.184
726.649, 6638.311
727.944, 7668.496
729.238, 8488.709
730.532, 9731.254
731.825, 11353.918
733.119, 11967.938
734.412, 13684.496
735.705, 14172.240
736.998, 14888.451
738.291, 15102.832
739.584, 14236.770
740.876, 14411.967
742.168, 12869.572
743.460, 12409.617
744.752, 11448.199
746.043, 10032.445
747.334, 9478.936
748.626, 8513.928
749.916, 7938.918
751.207, 7389.902
752.498, 6544.887
753.788, 6467.865
755.078, 5868.836
756.368, 5628.801
757.658, 5342.758
758.947, 4809.709
760.237, 4716.652
761.526, 4089.590
762.815, 3959.518
764.104, 3776.434
765.392, 3062.346
766.680, 3259.244
767.969, 2844.135
769.257, 2491.014
770.544, 2451.879
771.832, 2115.734
773.119, 1950.574
774.406, 1535.402
775.693, 1469.213
776.980, 1395.010
778.267, 1130.789
779.553, 1099.553
780.839, 1014.293
782.125, 866.018
783.411, 809.139
784.697, 690.408
785.982, 620.057
787.267, 558.695
788.552, 467.312
789.837, 557.904
791.122, 316.471
792.406, 451.016
793.690, 432.531
794.974, 357.025
796.258, 576.492
797.542, 287.930
798.825, 394.342
800.108, 561.727
801.391, 415.082
802.674, 625.412
803.957, 367.709
805.239, 528.979
806.522, 558.219
807.804, 302.428
809.085, 603.605
810.367, 378.750
811.649, 550.867
812.930, 541.951
814.211, 389.002
815.492, 708.021
816.772, 155.006
818.053, 312.953
819.333, 236.873
820.613, 202.752
821.893, 394.602
823.173, 84.412
824.452, 47.182
825.732, 322.896
827.011, 78.576
828.290, 189.209
829.568, 11.195
830.847, 44.686
832.125, 104.279
833.403, 178.008
834.681, 59.916
835.959, 125.938
837.236, 189.109
838.514, 10.533
839.791, 114.904
841.068, 102.490
842.345, 30.779
843.621, 268.021
844.898, 164.053
846.174, 109.264
847.450, 203.621
848.726, 72.180
850.001, 88.867
851.277, 131.693
852.552, 191.684
853.827, 149.869
855.102, 52.770
856.376, 110.662
857.651, 26.756
858.925, 47.086
860.199, 211.654
861.473, 46.604
862.746, 172.676
864.020, 4.062
865.293, 25.295
866.566, 67.762
867.839, 115.635
869.112, 152.027
870.384, 204.133
871.656, 340.242
872.928, 157.691
874.200, 409.191
875.472, 60.967
876.744, 147.742
878.015, 310.396
879.286, 301.004
880.557, 290.562
881.828, 287.080
883.098, 377.551
884.369, 552.982
885.639, 405.422
886.909, 728.832
888.178, 541.232
889.448, 572.621
890.717, 904.992
891.987, 693.367
893.256, 967.744
894.524, 991.109
895.793, 1130.480
897.061, 1272.855
898.330, 1412.186
899.598, 1585.490
900.865, 1664.760
902.133, 1836.029
903.401, 2139.250
904.668, 2147.430
905.935, 2367.562
907.202, 2871.652
908.468, 2843.703
909.735, 3570.707
911.001, 3514.664
912.267, 3779.652
913.533, 4220.590
914.799, 4317.484
916.064, 4716.334
917.330, 5034.141
918.595, 4695.896
919.860, 5069.609
921.124, 4610.275
922.389, 4960.898
923.653, 4655.477
924.918, 4001.006
926.182, 4117.492
927.445, 3978.934
928.709, 3484.330
929.972, 3421.680
931.236, 2902.982
932.499, 2880.246
933.761, 2739.463
935.024, 2460.734
936.286, 2738.863
937.549, 2250.945
938.811, 2544.791
940.073, 2460.781
941.334, 2076.904
942.596, 2532.809
943.857, 2141.664
945.118, 2441.477
946.379, 2336.248
947.640, 2170.969
948.900, 2459.725
950.161, 2094.363
951.421, 2175.953
952.681, 2420.502
953.940, 1993.006
955.200, 2244.459
956.459, 2055.881
957.719, 2145.258
958.978, 2411.586
960.236, 2047.875
961.495, 2253.117
962.753, 2076.318
964.012, 1669.477
965.270, 1984.594
966.527, 1667.676
967.785, 1498.715
969.043, 1925.707
970.300, 1474.664
971.557, 1617.574
972.814, 1674.445
974.071, 1268.275
975.327, 1561.570
976.583, 1402.990
977.840, 1364.746
979.095, 1446.701
980.351, 1256.432
981.607, 1490.301
982.862, 1428.998
984.117, 1360.902
985.372, 1510.043
986.627, 1435.482
987.882, 1695.652
989.136, 1579.736
990.390, 1461.270
991.644, 2099.816
992.898, 1726.033
994.152, 1963.391
995.405, 2171.066
996.659, 2068.174
997.912, 2782.625
999.165, 2526.068
1000.417, 2792.740
1001.670, 3253.285
1002.922, 2695.066
1004.174, 3113.020
1005.426, 2990.529
1006.678, 2597.051
1007.930, 3031.902
1009.181, 2381.199
1010.432, 2471.359
1011.683, 2361.740
1012.934, 1677.432
1014.185, 1992.170
1015.435, 1545.961
1016.685, 1601.873
1017.935, 1539.084
1019.185, 949.781
1020.435, 1485.643
1021.684, 973.262
1022.934, 777.408
1024.183, 1351.838
1025.432, 797.318
1026.680, 1189.783
1027.929, 884.727
1029.177, 544.641
1030.425, 1180.492
1031.673, 810.928
1032.921, 738.676
1034.169, 1194.676
1035.416, 832.494
1036.663, 1184.461
1037.911, 1031.545
1039.157, 988.512
1040.404, 1276.432
1041.650, 708.350
1042.897, 1089.236
1044.143, 1116.107
1045.389, 787.953
1046.634, 1142.791
1047.880, 936.426
1049.125, 907.584
1050.371, 1214.371
1051.615, 711.420
1052.860, 984.318
1054.105, 699.055
1055.349, 522.912
1056.593, 1098.613
1057.837, 649.666
1059.081, 912.879
1060.325, 715.529
1061.568, 572.295
1062.812, 1005.918
1064.055, 640.523
1065.298, 449.285
1066.540, 898.859
1067.783, 381.475
1069.025, 871.180
1070.267, 823.699
1071.509, 419.023
1072.751, 853.516
1073.993, 653.990
1075.234, 411.549
1076.475, 595.992
1077.716, 287.033
1078.957, 405.484
1080.198, 554.885
1081.438, 145.762
1082.679, 482.680
1083.919, 117.113
1085.159, 164.238
1086.398, 353.566
1087.638, 16.014
1088.877, 469.682
1090.116, 96.959
1091.355, 307.395
1092.594, 460.641
1093.833, 170.871
1095.071, 394.402
1096.309, 907.604
1097.547, 120.793
1098.785, 621.355
1100.023, 570.516
1101.260, 254.096
1102.498, 927.230
1103.735, 392.350
1104.972, 572.641
1106.208, 636.732
1107.445, 502.826
1108.681, 1056.490
1109.918, 720.545
1111.154, 876.719
1112.389, 1163.467
1113.625, 711.518
1114.860, 986.094
1116.096, 1034.113
1117.331, 823.121
1118.566, 1131.770
1119.800, 695.748
1121.035, 938.768
1122.269, 1360.232
1123.503, 982.168
1124.737, 1252.588
1125.971, 888.719
1127.205, 773.633
1128.438, 1343.496
1129.671, 900.389
1130.904, 1044.131
1132.137, 1274.041
1133.370, 896.996
1134.602, 1280.191
1135.834, 908.604
1137.066, 1004.676
1138.298, 1265.410
1139.530, 987.553
1140.762, 1058.967
1141.993, 1566.119
1143.224, 834.338
1144.455, 1667.877
1145.686, 1187.469
1146.917, 1295.852
1148.147, 1777.648
1149.377, 1261.121
1150.607, 1563.625
1151.837, 1806.832
1153.067, 1215.438
1154.296, 1800.152
1155.526, 1330.080
1156.755, 1301.770
1157.984, 1794.176
1159.213, 1039.865
1160.441, 1350.619
1161.670, 1417.199
1162.898, 731.031
1164.126, 1170.871
1165.354, 759.834
1166.581, 641.715
1167.809, 1076.584
1169.036, 478.502
1170.263, 748.406
1171.490, 872.293
1172.717, 185.227
1173.943, 646.141
1175.170, 539.076
1176.396, 317.002
1177.622, 694.908
1178.848, 125.793
1180.073, 532.658
1181.299, 451.500
1182.524, 136.676
1183.749, 602.051
1184.974, 257.758
1186.199, 44.443
1187.423, 611.100
1188.648, 72.266
1189.872, 386.303
1191.096, 505.852
1192.320, 117.619
1193.543, 517.814
1194.767, 107.230
1195.990, 8.619
1197.213, 530.975
1198.436, 150.691
1199.659, 272.533
1200.881, 380.732
1202.104, 40.914
1203.326, 584.064
1204.548, 16.334
1205.770, 184.432
1206.991, 517.508
1208.213, 254.627
1209.434, 327.256
1210.655, 375.123
1211.876, 46.252
1213.096, 567.066
1214.317, 308.865
1215.537, 284.645
1216.757, 639.400
1217.977, 131.725
1219.197, 567.436
1220.417, 330.129
1221.636, 68.426
1222.855, 649.068
1224.074, 188.275
1225.293, 325.887
1226.512, 673.475
1227.731, 23.449
1228.949, 207.988
1230.167, 321.502
1231.385, 155.291
1232.603, 485.754
1233.820, 319.199
1235.038, 249.125
1236.255, 797.506
1237.472, 71.691
1238.689, 457.037
1239.906, 590.369
1241.122, 58.684
1242.338, 623.979
1243.555, 387.264
1244.771, 53.826
1245.986, 711.068
1247.202, 256.293
1248.417, 380.500
1249.633, 694.680
1250.848, 5.842
1252.063, 608.973
1253.277, 363.090
1254.492, 225.127
1255.706, 732.012
1256.920, 98.805
1258.134, 214.439
1259.348, 827.070
1260.562, 8.637
1261.775, 478.527
1262.988, 443.969
1264.201, 47.510
1265.414, 684.814
1266.627, 133.100
1267.839, 263.570
1269.052, 702.791
1270.264, 162.051
1271.476, 341.164
1272.688, 462.213
1273.899, 374.762
1275.111, 678.420
1276.322, 196.715
1277.533, 262.418
1278.744, 784.248
1279.955, 5.887
1281.165, 304.455
1282.376, 640.029
1283.586, 79.422
1284.796, 714.146
1286.006, 342.605
1287.215, 162.961
1288.425, 912.824
1289.634, 112.143
1290.843, 341.430
1292.052, 660.689
1293.261, 184.078
1294.469, 752.338
1295.678, 670.445
1296.886, 65.523
1298.094, 782.721
1299.302, 149.736
1300.509, 337.715
1301.717, 1074.656
1302.924, 44.436
1304.131, 629.414
1305.338, 790.230
1306.545, 213.002
1307.752, 904.740
1308.958, 630.443
1310.164, 380.115
1311.370, 1051.754
1312.576, 470.359
1313.782, 930.926
1314.987, 1259.459
1316.193, 636.955
1317.398, 1244.418
1318.603, 1072.473
1319.807, 739.777
1321.012, 1621.053
1322.216, 1130.291
1323.421, 1107.502
1324.625, 1677.029
1325.829, 923.180
1327.032, 1626.279
1328.236, 1828.502
1329.439, 1384.521
1330.642, 2051.387
1331.845, 1561.309
1333.048, 1344.207
1334.251, 2239.107
1335.453, 1533.945
1336.656, 1541.752
1337.858, 1874.537
1339.060, 1040.283
1340.261, 1731.189
1341.463, 1310.523
1342.664, 672.186
1343.866, 1303.541
1345.067, 799.004
1346.267, 765.582
1347.468, 1246.160
1348.669, 349.689
1349.869, 763.828
1351.069, 859.396
1352.269, 188.857
1353.469, 965.168
1354.668, 530.131
1355.868, 300.533
1357.067, 1079.748
1358.266, 396.838
1359.465, 432.139
1360.664, 1094.326
1361.862, 230.119
1363.061, 842.639
1364.259, 681.555
1365.457, 220.883
1366.655, 1158.084
1367.852, 236.850
1369.050, 446.520
1370.247, 1122.656
1371.444, 277.527
1372.641, 498.115
1373.838, 939.623
1375.035, 77.180
1376.231, 1126.781
1377.427, 1141.500
1378.623, 301.285
1379.819, 1309.951
1381.015, 723.273
1382.211, 571.729
1383.406, 1356.797
1384.601, 537.729
1385.796, 1119.592
1386.991, 1434.859
1388.185, 291.770
1389.380, 1474.283
1390.574, 908.176
1391.768, 417.418
1392.962, 1317.564
1394.156, 520.607
1395.350, 647.252
1396.543, 1130.451
1397.736, 392.518
1398.929, 908.924
1400.122, 1081.639
1401.315, 114.938
1402.507, 951.494
1403.700, 777.740
1404.892, 219.867
1406.084, 1133.133
1407.276, 260.408
1408.467, 598.248
1409.659, 1106.043
1410.850, 220.656
1412.041, 576.586
1413.232, 983.395
1414.423, 25.186
1415.614, 1238.104
1416.804, 435.244
1417.994, 2.537
1419.184, 1321.623
1420.374, 138.719
1421.564, 433.752
1422.753, 912.725
1423.943, 29.635
1425.132, 920.486
1426.321, 889.395
1427.510, 25.758
1428.698, 1093.074
1429.887, 495.879
1431.075, 151.734
1432.263, 1545.551
1433.451, 733.389
1434.639, 365.244
1435.827, 1345.824
1437.014, 187.592
1438.201, 942.045
1439.388, 1143.428
1440.575, 214.244
1441.762, 940.990
1442.949, 678.625
1444.135, 436.090
1445.321, 1357.543
1446.507, 421.947
1447.693, 564.512
1448.879, 1358.070
1450.064, 293.230
1451.250, 823.729
1452.435, 1103.762
1453.620, 337.664
1454.805, 1394.414
1455.989, 804.232
1457.174, 551.703
1458.358, 1515.074
1459.542, 780.311
1460.726, 656.977
1461.910, 1594.205
1463.093, 649.555
1464.277, 1020.223
1465.460, 1327.777
1466.643, 498.254
1467.826, 1343.408
1469.009, 1147.906
1470.191, 460.453
1471.373, 1698.984
1472.556, 551.922
1473.738, 714.982
1474.919, 1643.510
1476.101, 202.156
1477.283, 1054.361
1478.464, 1163.896
1479.645, 369.469
1480.826, 1249.945
1482.007, 1039.816
1483.187, 305.238
1484.368, 1437.682
1485.548, 853.170
1486.728, 413.705
1487.908, 1480.258
1489.088, 180.846
1490.268, 689.502
1491.447, 1456.221
1492.626, 72.834
1493.805, 727.531
1494.984, 1251.273
1496.163, 101.396
1497.341, 1140.736
1498.520, 724.492
1499.698, 17.652
1500.876, 1044.758
1502.054, 488.496
1503.232, 146.594
1504.409, 1422.094
1505.586, 122.670
1506.763, 476.111
1507.940, 1204.576
1509.117, 24.566
1510.294, 835.361
1511.470, 929.629
1512.647, 125.104
1513.823, 1196.170
1514.999, 715.971
1516.174, 57.322
1517.350, 1045.229
1518.526, 0.303
1519.701, 7.449
1520.876, 0.000
##END=



