##NAMES=Kurnakovite
##RRUFFID=R050105
##IDEAL CHEMISTRY=MgB_3_O_3_(OH)_5_&#183;5H_2_O
##LOCALITY=Kramer deposit, Boron, Kern County, California, USA
##OWNER=RRUFF
##SOURCE=Rock Currier
##DESCRIPTION=Tabular single crystal
##STATUS=The identification of this mineral has been confirmed by X-ray diffraction and chemical analysis
##URL=rruff.info/R050105
##MEASURED CHEMISTRY=MgB_3_O_3_(OH)_5_Â·5H_2_O
##PIN_ID=L00484
##ORIENTATION=Laser parallel to b* (0 1 0). Fiducial mark perpendicular to laser is parallel to c [0 0 1]
109.387, 0.000
110.777, 45.878
112.168, 450.407
113.559, 911.786
114.949, 1853.961
116.339, 3220.462
117.729, 4724.364
119.119, 5952.814
120.508, 5825.911
121.897, 5354.691
123.286, 5158.137
124.675, 5070.763
126.063, 5687.814
127.452, 7896.232
128.840, 10467.115
130.228, 13390.809
131.615, 15651.763
133.003, 17495.652
134.390, 16447.414
135.777, 14004.852
137.164, 10572.017
138.550, 9296.819
139.937, 8065.187
141.323, 7085.240
142.709, 6853.933
144.094, 7659.982
145.480, 9778.646
146.865, 10178.440
148.250, 9884.927
149.635, 9199.832
151.019, 8505.953
152.403, 7087.928
153.788, 6104.176
155.171, 5603.098
156.555, 5877.883
157.939, 6016.625
159.322, 7311.965
160.705, 9064.912
162.088, 11105.577
163.470, 13057.280
164.853, 14597.548
166.235, 15367.112
167.617, 14636.219
168.998, 13628.117
170.380, 12062.885
171.761, 10680.585
173.142, 9512.277
174.523, 8533.013
175.904, 7540.600
177.284, 6564.299
178.664, 5581.947
180.044, 4496.515
181.424, 3883.517
182.803, 3585.869
184.183, 3593.596
185.562, 4035.707
186.940, 4826.076
188.319, 5439.627
189.698, 6217.537
191.076, 6253.605
192.454, 5781.761
193.831, 4917.840
195.209, 3508.725
196.586, 2544.831
197.963, 1415.430
199.340, 672.218
200.717, 52.732
202.093, 212.888
203.470, 408.488
204.846, 348.043
206.221, 213.029
207.597, 254.358
208.972, 214.450
210.347, 166.850
211.722, 190.274
213.097, 4.481
214.472, 75.607
215.846, 95.438
217.220, 145.436
218.594, 14.274
219.967, 75.110
221.341, 185.034
222.714, 438.153
224.087, 944.238
225.460, 1792.281
226.832, 2595.262
228.204, 3485.162
229.577, 4200.982
230.948, 4542.718
232.320, 4276.351
233.692, 3715.864
235.063, 3049.257
236.434, 2114.529
237.805, 1323.680
239.175, 662.480
240.545, 203.620
241.916, 63.891
243.286, 276.986
244.655, 261.497
246.025, 126.354
247.394, 74.611
248.763, 279.921
250.132, 519.333
251.501, 1106.628
252.869, 1289.803
254.237, 1655.861
255.605, 1976.806
256.973, 1898.638
258.340, 1688.273
259.708, 1178.353
261.075, 811.972
262.442, 391.428
263.808, 9.795
265.175, 249.923
266.541, 398.726
267.907, 382.609
269.273, 371.617
270.639, 128.113
272.004, 52.254
273.369, 681.202
274.734, 1128.165
276.099, 1710.766
277.463, 2280.107
278.828, 3224.359
280.192, 3826.690
281.556, 4137.375
282.919, 4492.373
284.283, 4311.658
285.646, 4004.180
287.009, 3080.910
288.372, 2316.734
289.734, 1621.078
291.097, 876.258
292.459, 201.886
293.821, 74.251
295.183, 323.534
296.544, 434.063
297.905, 642.907
299.266, 615.217
300.627, 525.048
301.988, 330.411
303.348, 115.257
304.709, 51.484
306.069, 299.861
307.428, 531.928
308.788, 870.683
310.147, 1288.521
311.507, 1695.316
312.865, 2348.222
314.224, 3017.833
315.583, 3797.148
316.941, 5125.178
318.299, 6264.936
319.657, 7386.432
321.015, 8983.182
322.372, 10188.977
323.729, 11524.834
325.086, 12387.889
326.443, 13159.405
327.800, 13018.419
329.156, 13045.918
330.512, 11964.212
331.868, 11190.321
333.224, 10286.255
334.579, 9385.013
335.935, 8133.604
337.290, 7869.030
338.645, 7357.295
339.999, 7414.234
341.354, 7395.467
342.708, 7514.229
344.062, 7905.861
345.416, 8190.371
346.769, 8758.764
348.123, 9415.041
349.476, 10035.202
350.829, 11217.171
352.182, 12473.502
353.534, 13628.164
354.887, 14141.480
356.239, 14266.722
357.591, 13991.887
358.942, 13169.972
360.294, 12089.966
361.645, 10865.873
362.996, 9560.682
364.347, 8945.387
365.698, 8201.756
367.048, 7986.213
368.398, 7883.254
369.748, 8026.105
371.098, 8333.552
372.448, 8776.234
373.797, 9457.793
375.146, 9664.768
376.495, 10351.850
377.844, 11063.781
379.192, 11018.961
380.540, 11233.248
381.889, 10402.644
383.236, 9589.088
384.584, 8618.176
385.932, 7383.941
387.279, 6188.652
388.626, 5398.311
389.973, 4646.916
391.319, 4051.472
392.666, 3585.976
394.012, 3377.429
395.358, 3442.832
396.704, 3508.186
398.049, 3801.491
399.394, 4117.748
400.740, 4271.958
402.084, 4657.122
403.429, 4730.228
404.774, 5063.612
406.118, 5717.586
407.462, 6172.506
408.806, 6796.893
410.150, 8042.521
411.493, 9327.074
412.836, 10919.973
414.179, 12588.850
415.522, 14057.697
416.865, 16029.521
418.207, 16750.320
419.549, 16402.102
420.891, 15652.856
422.233, 13991.591
423.575, 11618.311
424.916, 9182.012
426.257, 7550.197
427.598, 5664.135
428.939, 4160.793
430.279, 3292.521
431.619, 1997.003
432.959, 1504.845
434.299, 931.544
435.639, 624.160
436.978, 64.767
438.318, 64.308
439.657, 323.234
440.996, 347.077
442.334, 398.238
443.673, 501.749
445.011, 624.671
446.349, 447.067
447.687, 414.846
449.024, 382.992
450.361, 184.486
451.699, 24.227
453.036, 232.875
454.372, 533.641
455.709, 1151.360
457.045, 1583.015
458.381, 2512.318
459.717, 3349.110
461.053, 4821.252
462.388, 5968.677
463.724, 7565.961
465.059, 9035.402
466.394, 9892.858
467.728, 10114.596
469.063, 10184.334
470.397, 9117.308
471.731, 7930.383
473.065, 6773.402
474.398, 5210.367
475.732, 4421.279
477.065, 3266.141
478.398, 2699.953
479.731, 2232.718
481.063, 1887.437
482.396, 1663.113
483.728, 1655.750
485.060, 1636.355
486.391, 1532.932
487.723, 1734.479
489.054, 1827.005
490.385, 2184.508
491.716, 2364.994
493.047, 2629.460
494.377, 2942.907
495.708, 3321.340
497.038, 3605.756
498.368, 3810.156
499.697, 4014.545
501.027, 4145.920
502.356, 4293.288
503.685, 4076.649
505.014, 4066.008
506.342, 3688.361
507.671, 3598.711
508.999, 3192.058
510.327, 3073.402
511.655, 2883.748
512.982, 2774.096
514.310, 2739.160
515.637, 2666.812
516.964, 2770.189
518.291, 2821.595
519.617, 2949.041
520.944, 3012.569
522.270, 3117.947
523.596, 3225.938
524.921, 3350.809
526.247, 3381.851
527.572, 3546.399
528.897, 3727.953
530.222, 4223.742
531.547, 4243.189
532.871, 4561.680
534.196, 4453.561
535.520, 4522.617
536.844, 4961.664
538.167, 4936.840
539.491, 4994.189
540.814, 5160.783
542.137, 5173.575
543.460, 5375.566
544.783, 5456.657
546.105, 5367.877
547.427, 5744.219
548.749, 5633.628
550.071, 5740.081
551.393, 6053.590
552.714, 6092.138
554.035, 6009.729
555.356, 6156.350
556.677, 5708.010
557.998, 5473.706
559.318, 5189.438
560.638, 4617.203
561.958, 4203.004
563.278, 3450.849
564.597, 3253.791
565.917, 2653.888
567.236, 2292.133
568.555, 2089.494
569.874, 1715.956
571.192, 1739.457
572.511, 1659.996
573.829, 1285.570
575.147, 1143.183
576.464, 1240.832
577.782, 1064.520
579.099, 963.244
580.416, 928.009
581.733, 1055.809
583.050, 1104.647
584.366, 884.524
585.683, 1153.479
586.999, 1128.581
588.315, 1033.869
589.630, 1350.336
590.946, 1331.981
592.261, 1433.739
593.576, 1440.590
594.891, 1603.521
596.206, 1540.194
597.520, 1926.037
598.834, 2136.377
600.148, 2230.402
601.462, 2544.406
602.776, 2743.115
604.089, 3115.322
605.402, 3527.904
606.715, 3948.750
608.028, 4684.846
609.341, 5157.662
610.653, 5965.806
611.965, 6898.607
613.277, 8073.230
614.589, 9301.021
615.901, 10886.044
617.212, 12800.332
618.523, 14909.938
619.834, 17716.863
621.145, 20525.076
622.456, 23605.537
623.766, 26910.186
625.076, 30833.979
626.386, 33407.863
627.696, 35974.832
629.006, 36506.875
630.315, 36936.449
631.624, 35778.129
632.933, 34629.352
634.242, 32366.641
635.551, 28685.996
636.859, 25821.414
638.167, 22093.900
639.475, 20152.449
640.783, 17041.064
642.090, 14835.738
643.398, 12895.485
644.705, 11147.292
646.012, 9508.164
647.318, 8102.103
648.625, 7289.105
649.931, 6619.174
651.237, 5484.306
652.543, 4676.504
653.849, 3996.766
655.155, 3658.094
656.460, 2958.484
657.765, 2869.941
659.070, 2185.462
660.375, 2075.046
661.679, 1922.693
662.984, 1498.407
664.288, 1311.183
665.592, 1046.023
666.895, 953.926
668.199, 695.893
669.502, 786.923
670.805, 513.104
672.108, 550.362
673.411, 373.767
674.713, 221.602
676.016, 372.443
677.318, 103.025
678.620, 196.769
679.921, 70.247
681.223, 32.237
682.524, 30.245
683.825, 166.963
685.126, 73.673
686.427, 72.714
687.727, 43.529
689.028, 14.661
690.328, 33.116
691.628, 24.081
692.927, 7.940
694.227, 51.461
695.526, 121.083
696.825, 209.821
698.124, 209.647
699.423, 236.029
700.721, 265.448
702.020, 354.365
703.318, 391.868
704.616, 547.528
705.913, 649.374
707.211, 536.110
708.508, 861.964
709.805, 871.350
711.102, 799.591
712.399, 1010.826
713.695, 1045.094
714.992, 1385.375
716.288, 1341.670
717.584, 1647.977
718.879, 1773.297
720.175, 1899.629
721.470, 2509.972
722.765, 2749.325
724.060, 3319.688
725.355, 3858.061
726.649, 4396.443
727.944, 5222.834
729.238, 6305.234
730.532, 6830.641
731.825, 8357.057
733.119, 9252.479
734.412, 9869.908
735.705, 10745.343
736.998, 11069.787
738.291, 11086.235
739.584, 10820.693
740.876, 10490.155
742.168, 9635.624
743.460, 8376.097
744.752, 7548.572
746.043, 6776.053
747.334, 6309.533
748.626, 5159.016
749.916, 4648.502
751.207, 4288.984
752.498, 3761.489
753.788, 3557.013
755.078, 3058.657
756.368, 2936.426
757.658, 2566.331
758.947, 2370.401
760.237, 2248.667
761.526, 1977.078
762.815, 1991.627
764.104, 1789.302
765.392, 1734.052
766.680, 1675.832
767.969, 1487.610
769.257, 1599.382
770.544, 1468.145
771.832, 1462.899
773.119, 1500.644
774.406, 1522.376
775.693, 1625.095
776.980, 1335.798
778.267, 1602.484
779.553, 1583.153
780.839, 1807.804
782.125, 1730.434
783.411, 2087.043
784.697, 2012.634
785.982, 2281.201
787.267, 2593.748
788.552, 2739.271
789.837, 2793.771
791.122, 3223.246
792.406, 3352.699
793.690, 3686.127
794.974, 3693.529
796.258, 3904.905
797.542, 4042.254
798.825, 3997.575
800.108, 4033.890
801.391, 3875.135
802.674, 3855.371
803.957, 3659.579
805.239, 3470.756
806.522, 3550.902
807.804, 3042.016
809.085, 3097.098
810.367, 2833.147
811.649, 2490.164
812.930, 2392.146
814.211, 2097.096
815.492, 1860.009
816.772, 1789.888
818.053, 1480.730
819.333, 1313.536
820.613, 1018.304
821.893, 961.034
823.173, 740.727
824.452, 466.381
825.732, 470.993
827.011, 218.563
828.290, 60.082
829.568, 26.520
830.847, 141.143
832.125, 187.545
833.403, 243.156
834.681, 295.385
835.959, 307.980
837.236, 348.862
838.514, 345.310
839.791, 300.811
841.068, 213.597
842.345, 420.053
843.621, 291.628
844.898, 331.649
846.174, 367.908
847.450, 230.273
848.726, 303.834
850.001, 346.690
851.277, 292.868
852.552, 236.339
853.827, 60.075
855.102, 193.982
856.376, 154.135
857.651, 37.489
858.925, 189.990
860.199, 117.419
861.473, 251.755
862.746, 348.025
864.020, 636.237
865.293, 395.396
866.566, 708.499
867.839, 777.553
869.112, 860.558
870.384, 995.513
871.656, 1013.481
872.928, 900.402
874.200, 1054.297
875.472, 1058.160
876.744, 976.997
878.015, 1075.824
879.286, 1048.641
880.557, 1106.426
881.828, 1179.197
883.098, 1097.978
884.369, 1131.723
885.639, 1075.448
886.909, 958.175
888.178, 1112.875
889.448, 1017.553
890.717, 1158.207
891.987, 1060.865
893.256, 1103.496
894.524, 1270.113
895.793, 1076.715
897.061, 1255.295
898.330, 1201.858
899.598, 1241.384
900.865, 1460.855
902.133, 1561.313
903.401, 1517.718
904.668, 1823.099
905.935, 1921.426
907.202, 2074.698
908.468, 2306.916
909.735, 2517.073
911.001, 2571.175
912.267, 2746.216
913.533, 2873.197
914.799, 3081.120
916.064, 3131.981
917.330, 3419.779
918.595, 3266.513
919.860, 3353.182
921.124, 3454.789
922.389, 3214.329
923.653, 3088.807
924.918, 3097.221
926.182, 3032.570
927.445, 2796.854
928.709, 2662.074
929.972, 2562.230
931.236, 2460.321
932.499, 2384.348
933.761, 2495.309
935.024, 2185.204
936.286, 2332.036
937.549, 2623.803
938.811, 2205.504
940.073, 2682.142
941.334, 2490.713
942.596, 2597.221
943.857, 2819.662
945.118, 2929.040
946.379, 3091.722
947.640, 3112.600
948.900, 3404.781
950.161, 3423.898
951.421, 3588.951
952.681, 3785.938
953.940, 4159.861
955.200, 4188.718
956.459, 4413.510
957.719, 4474.236
958.978, 4419.900
960.236, 4280.496
961.495, 3863.029
962.753, 3665.499
964.012, 3211.902
965.270, 2940.242
966.527, 2905.516
967.785, 2706.725
969.043, 2337.870
970.300, 2248.952
971.557, 2067.969
972.814, 2087.921
974.071, 1797.809
975.327, 1810.633
976.583, 1618.303
977.840, 1742.896
979.095, 1531.342
980.351, 1464.355
981.607, 1480.358
982.862, 1285.622
984.117, 1293.722
985.372, 1238.395
986.627, 920.935
987.882, 1159.762
989.136, 1066.803
990.390, 984.984
991.644, 1214.757
992.898, 1126.809
994.152, 1023.740
995.405, 1125.568
996.659, 1107.738
997.912, 1268.490
999.165, 1260.734
1000.417, 1306.220
1001.670, 1140.881
1002.922, 1398.795
1004.174, 1216.142
1005.426, 1450.443
1006.678, 1207.236
1007.930, 1188.434
1009.181, 1192.462
1010.432, 1065.764
1011.683, 1070.226
1012.934, 950.026
1014.185, 1001.433
1015.435, 1020.866
1016.685, 967.878
1017.935, 887.823
1019.185, 923.785
1020.435, 1034.073
1021.684, 913.691
1022.934, 1046.712
1024.183, 1206.364
1025.432, 1243.960
1026.680, 1398.386
1027.929, 1479.220
1029.177, 1585.697
1030.425, 1683.115
1031.673, 1819.435
1032.921, 2064.212
1034.169, 2136.713
1035.416, 2355.203
1036.663, 2570.564
1037.911, 2666.378
1039.157, 2643.054
1040.404, 2881.580
1041.650, 2812.758
1042.897, 2980.209
1044.143, 2794.422
1045.389, 2794.880
1046.634, 2965.773
1047.880, 2675.115
1049.125, 2578.941
1050.371, 2445.331
1051.615, 2649.957
1052.860, 2299.345
1054.105, 2458.805
1055.349, 2186.826
1056.593, 2094.815
1057.837, 1935.529
1059.081, 2038.948
1060.325, 1704.656
1061.568, 1761.954
1062.812, 1539.400
1064.055, 1433.213
1065.298, 1500.416
1066.540, 1333.588
1067.783, 1238.730
1069.025, 1028.842
1070.267, 1246.923
1071.509, 971.973
1072.751, 972.994
1073.993, 1049.985
1075.234, 956.949
1076.475, 834.883
1077.716, 892.787
1078.957, 781.663
1080.198, 833.512
1081.438, 907.332
1082.679, 912.125
1083.919, 953.892
1085.159, 807.631
1086.398, 932.343
1087.638, 848.027
1088.877, 904.688
1090.116, 972.321
1091.355, 980.929
1092.594, 1003.512
1093.833, 1045.067
1095.071, 1137.600
1096.309, 1075.107
1097.547, 1329.590
1098.785, 1186.049
1100.023, 1426.484
1101.260, 1416.896
1102.498, 1598.282
1103.735, 1515.646
1104.972, 1712.991
1106.208, 1672.309
1107.445, 1827.605
1108.681, 1758.880
1109.918, 2077.132
1111.154, 1908.363
1112.389, 2119.571
1113.625, 2106.759
1114.860, 2056.926
1116.096, 2149.071
1117.331, 2076.197
1118.566, 2036.303
1119.800, 1966.387
1121.035, 2072.453
1122.269, 1951.499
1123.503, 1974.526
1124.737, 2015.533
1125.971, 1808.523
1127.205, 1744.496
1128.438, 1465.455
1129.671, 1679.417
1130.904, 1349.390
1132.137, 1527.418
1133.370, 1350.518
1134.602, 1363.702
1135.834, 1036.986
1137.066, 1024.375
1138.298, 1159.880
1139.530, 846.499
1140.762, 1101.223
1141.993, 701.028
1143.224, 836.972
1144.455, 810.018
1145.686, 802.179
1146.917, 735.465
1148.147, 694.841
1149.377, 727.326
1150.607, 747.934
1151.837, 679.647
1153.067, 531.455
1154.296, 542.310
1155.526, 593.247
1156.755, 435.258
1157.984, 500.291
1159.213, 309.321
1160.441, 255.358
1161.670, 214.389
1162.898, 240.408
1164.126, 100.414
1165.354, 106.406
1166.581, 96.377
1167.809, 254.330
1169.036, 217.729
1170.263, 64.062
1171.490, 59.167
1172.717, 42.460
1173.943, 55.810
1175.170, 126.223
1176.396, 120.735
1177.622, 40.345
1178.848, 109.009
1180.073, 199.765
1181.299, 26.659
1182.524, 90.602
1183.749, 168.623
1184.974, 64.768
1186.199, 78.979
1187.423, 77.095
1188.648, 183.614
1189.872, 61.093
1191.096, 121.637
1192.320, 110.275
1193.543, 86.003
1194.767, 109.809
1195.990, 22.702
1197.213, 51.361
1198.436, 116.592
1199.659, 34.363
1200.881, 83.700
1202.104, 104.165
1203.326, 103.016
1204.548, 159.853
1205.770, 221.659
1206.991, 143.494
1208.213, 233.299
1209.434, 189.094
1210.655, 92.881
1211.876, 256.654
1213.096, 290.421
1214.317, 358.179
1215.537, 438.932
1216.757, 363.679
1217.977, 450.419
1219.197, 481.165
1220.417, 489.911
1221.636, 609.650
1222.855, 598.385
1224.074, 528.113
1225.293, 535.838
1226.512, 654.557
1227.731, 700.271
1228.949, 748.981
1230.167, 512.688
1231.385, 747.390
1232.603, 458.094
1233.820, 537.794
1235.038, 413.489
1236.255, 636.180
1237.472, 543.863
1238.689, 358.539
1239.906, 480.207
1241.122, 298.868
1242.338, 340.521
1243.555, 348.166
1244.771, 392.804
1245.986, 287.434
1247.202, 206.056
1248.417, 321.671
1249.633, 411.279
1250.848, 198.879
1252.063, 426.472
1253.277, 485.056
1254.492, 285.634
1255.706, 428.204
1256.920, 514.766
1258.134, 402.319
1259.348, 268.866
1260.562, 576.405
1261.775, 504.938
1262.988, 508.460
1264.201, 552.976
1265.414, 611.484
1266.627, 661.983
1267.839, 670.477
1269.052, 958.960
1270.264, 872.436
1271.476, 1049.903
1272.688, 863.362
1273.899, 1261.813
1275.111, 1124.256
1276.322, 1527.689
1277.533, 1429.114
1278.744, 1616.531
1279.955, 1557.939
1281.165, 1899.340
1282.376, 1820.732
1283.586, 1965.117
1284.796, 1958.495
1286.006, 1873.865
1287.215, 2098.231
1288.425, 2190.592
1289.634, 1979.946
1290.843, 1964.296
1292.052, 1807.643
1293.261, 1839.982
1294.469, 1703.334
1295.678, 1658.666
1296.886, 1539.993
1298.094, 1639.315
1299.302, 1424.631
1300.509, 1546.942
1301.717, 1658.246
1302.924, 1526.404
1304.131, 1466.835
1305.338, 1431.118
1306.545, 1543.396
1307.752, 1544.516
1308.958, 1443.738
1310.164, 1549.367
1311.370, 1537.012
1312.576, 1703.609
1313.782, 1732.847
1314.987, 1762.725
1316.193, 1821.167
1317.398, 2158.946
1318.603, 1991.752
1319.807, 2139.696
1321.012, 1952.204
1322.216, 2084.039
1323.421, 2106.906
1324.625, 1987.451
1325.829, 2242.291
1327.032, 2235.990
1328.236, 2187.758
1329.439, 2110.543
1330.642, 2021.850
1331.845, 2047.271
1333.048, 2103.911
1334.251, 2004.782
1335.453, 1729.357
1336.656, 1836.158
1337.858, 1659.684
1339.060, 1431.754
1340.261, 1365.354
1341.463, 1195.541
1342.664, 1190.963
1343.866, 940.225
1345.067, 800.704
1346.267, 645.093
1347.468, 648.904
1348.669, 540.748
1349.869, 470.646
1351.069, 425.210
1352.269, 362.279
1353.469, 369.749
1354.668, 389.061
1355.868, 239.999
1357.067, 328.535
1358.266, 149.128
1359.465, 259.660
1360.664, 254.659
1361.862, 38.316
1363.061, 269.475
1364.259, 167.489
1365.457, 197.153
1366.655, 312.846
1367.852, 178.568
1369.050, 163.322
1370.247, 318.107
1371.444, 291.053
1372.641, 158.884
1373.838, 293.594
1375.035, 214.226
1376.231, 240.873
1377.427, 217.487
1378.623, 326.049
1379.819, 220.592
1381.015, 179.703
1382.211, 398.532
1383.406, 279.108
1384.601, 358.991
1385.796, 435.853
1386.991, 367.691
1388.185, 377.508
1389.380, 404.315
1390.574, 455.064
1391.768, 443.810
1392.962, 406.530
1394.156, 423.226
1395.350, 501.896
1396.543, 578.541
1397.736, 569.423
1398.929, 643.756
1400.122, 532.323
1401.315, 698.864
1402.507, 616.377
1403.700, 649.865
1404.892, 717.322
1406.084, 816.752
1407.276, 629.152
1408.467, 797.521
1409.659, 555.862
1410.850, 624.172
1412.041, 740.448
1413.232, 546.691
1414.423, 744.903
1415.614, 443.080
1416.804, 472.221
1417.994, 549.329
1419.184, 620.410
1420.374, 357.466
1421.564, 481.670
1422.753, 179.946
1423.943, 370.349
1425.132, 265.932
1426.321, 331.721
1427.510, 549.678
1428.698, 756.869
1429.887, 121.214
1431.075, 166.794
1432.263, 226.604
1433.451, 34.633
1434.639, 281.785
1435.827, 177.088
1437.014, 0.518
1438.201, 348.973
1439.388, 535.445
1440.575, 347.939
1441.762, 192.453
1442.949, 260.980
1444.135, 205.514
1445.321, 258.008
1446.507, 366.498
1447.693, 241.994
1448.879, 335.496
1450.064, 311.000
1451.250, 277.500
1452.435, 275.992
1453.620, 350.498
1454.805, 327.043
1455.989, 306.629
1457.174, 409.260
1458.358, 231.941
1459.542, 197.674
1460.726, 435.465
1461.910, 275.318
1463.093, 338.242
1464.277, 106.240
1465.460, 67.322
1466.643, 286.494
1467.826, 27.762
1469.009, 271.137
1470.191, 6.373
1471.373, 9.244
1472.556, 135.004
1473.738, 196.910
1474.919, 69.031
1476.101, 265.172
1477.283, 171.512
1478.464, 17.973
1479.645, 199.545
1480.826, 142.215
1482.007, 79.930
1483.187, 400.783
1484.368, 82.734
1485.548, 235.795
1486.728, 48.975
1487.908, 144.285
1489.088, 84.740
1490.268, 52.291
1491.447, 145.129
1492.626, 107.086
1493.805, 69.232
1494.984, 262.580
1496.163, 108.139
1497.341, 103.916
1498.520, 256.477
1499.698, 87.695
1500.876, 189.947
1502.054, 10.959
1503.232, 84.201
1504.409, 29.359
1505.586, 7.727
1506.763, 216.111
1507.940, 142.041
1509.117, 204.266
1510.294, 184.668
1511.470, 201.215
1512.647, 125.562
1513.823, 348.115
1514.999, 216.084
1516.174, 198.365
1517.350, 2.986
1518.526, 330.395
1519.701, 195.312
1520.876, 197.475
1522.051, 212.982
1523.226, 57.357
1524.400, 0.000
##END=



