##NAMES=Kurnakovite
##RRUFFID=R050105
##IDEAL CHEMISTRY=MgB_3_O_3_(OH)_5_&#183;5H_2_O
##LOCALITY=Kramer deposit, Boron, Kern County, California, USA
##OWNER=RRUFF
##SOURCE=Rock Currier
##DESCRIPTION=Tabular single crystal
##STATUS=The identification of this mineral has been confirmed by X-ray diffraction and chemical analysis
##URL=rruff.info/R050105
##MEASURED CHEMISTRY=MgB_3_O_3_(OH)_5_Â·5H_2_O
##PIN_ID=L00269
##ORIENTATION=Laser parallel to (-1 -1 0). Fiducial mark perpendicular to laser is parallel to -c [0 0 -1]
107.995, 0.000
109.387, 208.038
110.777, 1373.383
112.168, 2976.580
113.559, 5074.012
114.949, 7526.584
116.339, 10348.115
117.729, 12448.239
119.119, 14021.615
120.508, 13704.904
121.897, 11918.660
123.286, 9867.634
124.675, 7563.492
126.063, 6588.091
127.452, 6615.727
128.840, 7187.822
130.228, 8444.602
131.615, 8922.745
133.003, 9411.576
134.390, 8531.926
135.777, 7111.979
137.164, 4979.723
138.550, 3763.120
139.937, 2282.120
141.323, 1509.666
142.709, 755.697
144.094, 362.146
145.480, 146.951
146.865, 96.054
148.250, 45.602
149.635, 191.071
151.019, 418.423
152.403, 417.597
153.788, 422.437
155.171, 397.893
156.555, 51.542
157.939, 394.196
159.322, 775.458
160.705, 1462.024
162.088, 2207.775
163.470, 3017.621
164.853, 3868.498
166.235, 4829.346
167.617, 5879.109
168.998, 7154.740
170.380, 8137.195
171.761, 9188.435
173.142, 10037.421
174.523, 11032.105
175.904, 10902.435
177.284, 10390.384
178.664, 9288.932
180.044, 7860.053
181.424, 7085.729
182.803, 6525.941
184.183, 6308.672
185.562, 6463.906
186.940, 6945.624
188.319, 7229.816
189.698, 7462.465
191.076, 6958.432
192.454, 6266.516
193.831, 5184.377
195.209, 3944.939
196.586, 2673.618
197.963, 1709.553
199.340, 930.193
200.717, 420.840
202.093, 33.704
203.470, 210.416
204.846, 530.519
206.221, 439.589
207.597, 254.615
208.972, 50.587
210.347, 33.504
211.722, 92.528
213.097, 705.118
214.472, 1083.244
215.846, 1721.272
217.220, 2267.431
218.594, 2958.706
219.967, 3516.092
221.341, 4442.590
222.714, 5678.204
224.087, 7101.936
225.460, 8906.790
226.832, 10837.759
228.204, 12346.855
229.577, 13592.073
230.948, 13820.420
232.320, 13149.888
233.692, 11720.483
235.063, 9895.198
236.434, 7578.047
237.805, 5610.010
239.175, 4019.843
240.545, 3026.367
241.916, 2321.923
243.286, 1782.611
244.655, 1838.437
246.025, 1998.399
247.394, 2642.500
248.763, 3561.740
250.132, 4558.121
251.501, 5867.641
252.869, 6897.301
254.237, 8214.099
255.605, 8696.029
256.973, 8369.097
258.340, 7510.295
259.708, 6138.623
261.075, 4815.080
262.442, 3663.664
263.808, 2840.193
265.175, 2106.735
266.541, 1702.158
267.907, 1389.233
269.273, 1328.426
270.639, 1619.736
272.004, 1802.160
273.369, 2349.890
274.734, 3039.484
276.099, 3725.696
277.463, 4495.426
278.828, 5689.113
280.192, 6443.123
281.556, 6871.819
282.919, 7484.937
284.283, 7339.812
285.646, 7079.059
287.009, 6054.285
288.372, 5186.824
289.734, 4516.732
291.097, 3603.458
292.459, 2917.641
293.821, 2943.628
295.183, 2737.424
296.544, 3124.239
297.905, 3426.146
299.266, 4062.294
300.627, 4662.678
301.988, 5452.289
303.348, 6121.117
304.709, 6481.160
306.069, 6615.408
307.428, 6621.854
308.788, 6008.492
310.147, 5312.320
311.507, 4694.326
312.865, 4283.808
314.224, 3250.049
315.583, 2622.351
316.941, 2286.136
318.299, 2122.103
319.657, 2010.704
321.015, 2193.286
322.372, 2340.088
323.729, 2488.153
325.086, 2707.860
326.443, 3029.852
327.800, 3033.681
329.156, 3537.651
330.512, 3705.758
331.868, 3913.996
333.224, 4384.361
334.579, 5071.852
335.935, 5611.461
337.290, 6950.188
338.645, 7925.028
339.999, 9590.979
341.354, 11236.040
342.708, 13316.204
344.062, 15810.473
345.416, 18171.844
346.769, 21032.311
348.123, 24083.869
349.476, 27297.527
350.829, 31417.273
352.182, 35504.105
353.534, 39253.035
354.887, 41907.043
356.239, 42975.137
357.591, 42239.309
358.942, 39783.566
360.294, 36029.879
361.645, 31747.248
362.996, 27278.664
364.347, 23925.125
365.698, 20889.629
367.048, 18619.141
368.398, 16841.740
369.748, 15563.046
371.098, 14590.636
372.448, 13753.227
373.797, 13423.042
375.146, 12566.975
376.495, 12396.987
377.844, 12488.112
379.192, 11844.344
380.540, 11557.703
381.889, 10409.187
383.236, 9621.774
384.584, 8517.470
385.932, 7441.264
387.279, 6146.152
388.626, 5181.140
389.973, 4400.227
391.319, 3404.427
392.666, 2928.705
394.012, 2241.027
395.358, 2011.392
396.704, 1649.799
398.049, 1561.249
399.394, 1637.741
400.740, 1508.273
402.084, 1855.848
403.429, 2139.464
404.774, 2600.124
406.118, 3496.825
407.462, 4335.569
408.806, 5509.354
410.150, 7193.177
411.493, 9055.040
412.836, 11467.943
414.179, 13996.885
415.522, 16320.859
416.865, 18893.877
418.207, 20210.924
419.549, 20271.012
420.891, 19660.131
422.233, 17627.281
423.575, 14964.474
424.916, 11707.693
426.257, 9563.944
427.598, 7323.229
428.939, 5471.543
430.279, 4110.887
431.619, 2719.260
432.959, 1884.664
434.299, 1149.094
435.639, 710.617
436.978, 157.206
438.318, 49.167
439.657, 454.596
440.996, 561.285
442.334, 737.299
443.673, 767.730
445.011, 966.600
446.349, 940.011
447.687, 858.952
449.024, 671.382
450.361, 548.198
451.699, 327.341
453.036, 162.694
454.372, 363.820
455.709, 925.367
457.045, 1306.950
458.381, 2141.574
459.717, 2832.238
461.053, 3938.943
462.388, 4816.688
463.724, 5929.467
465.059, 6652.283
466.394, 6884.139
467.728, 6677.025
469.063, 6333.947
470.397, 5283.902
471.731, 4302.889
473.065, 3383.908
474.398, 2317.977
475.732, 1732.125
477.065, 1019.396
478.398, 720.790
479.731, 523.305
481.063, 333.934
482.396, 180.618
483.728, 169.323
485.060, 209.048
486.391, 197.798
487.723, 389.569
489.054, 506.368
490.385, 786.196
491.716, 1051.050
493.047, 1259.610
494.377, 1460.838
495.708, 1764.770
497.038, 2015.727
498.368, 2286.707
499.697, 2613.711
501.027, 2874.740
502.356, 3084.790
503.685, 3172.863
505.014, 3345.957
506.342, 2952.074
507.671, 3047.211
508.999, 2609.369
510.327, 2572.545
511.655, 2299.742
512.982, 2171.959
514.310, 2032.193
515.637, 1819.447
516.964, 1807.723
518.291, 1706.016
519.617, 1875.332
520.944, 1782.670
522.270, 1582.033
523.596, 1939.421
524.921, 1939.863
526.247, 2164.390
527.572, 2265.050
528.897, 2453.877
530.222, 3310.877
531.547, 3872.940
532.871, 4205.661
534.196, 4365.139
535.520, 4415.749
536.844, 5034.361
538.167, 5614.562
539.491, 6262.660
540.814, 6845.947
542.137, 7601.221
543.460, 8403.195
544.783, 9319.957
546.105, 10300.680
547.427, 11508.419
548.749, 12750.470
550.071, 14175.471
551.393, 15694.630
552.714, 17388.174
554.035, 18623.723
555.356, 20352.270
556.677, 20823.814
557.998, 20865.367
559.318, 20759.912
560.638, 19213.455
561.958, 17415.000
563.278, 15173.542
564.597, 13653.082
565.917, 11793.621
567.236, 10370.155
568.555, 9373.688
569.874, 8170.219
571.192, 7638.746
572.511, 6911.270
573.829, 6519.789
575.147, 5852.306
576.464, 5949.818
577.782, 5597.324
579.099, 5595.828
580.416, 5636.324
581.733, 6003.816
583.050, 6326.305
584.366, 6847.785
585.683, 8550.259
586.999, 8557.729
588.315, 9029.190
589.630, 9938.646
590.946, 9366.096
592.261, 8872.539
593.576, 8189.973
594.891, 7357.400
596.206, 6730.828
597.520, 6329.382
598.834, 5796.096
600.148, 5575.228
601.462, 5254.215
602.776, 5410.216
604.089, 5420.672
605.402, 5702.754
606.715, 6034.902
608.028, 6596.823
609.341, 7216.484
610.653, 7942.461
611.965, 8884.128
613.277, 10273.612
614.589, 11588.117
615.901, 13332.641
617.212, 15619.182
618.523, 18020.742
619.834, 21246.316
621.145, 24423.910
622.456, 28231.521
623.766, 32024.150
625.076, 36737.789
626.386, 40176.449
627.696, 44054.129
629.006, 44484.816
630.315, 46561.539
631.624, 43995.258
632.933, 42744.980
634.242, 40139.742
635.551, 36143.496
636.859, 34746.277
638.167, 28449.064
639.475, 25884.873
640.783, 21931.152
642.090, 19683.295
643.398, 17398.961
644.705, 15320.498
646.012, 13317.354
647.318, 11716.224
648.625, 10597.102
649.931, 9389.989
651.237, 8204.888
652.543, 7265.792
653.849, 6405.709
655.155, 5887.633
656.460, 5346.567
657.765, 4891.508
659.070, 4151.459
660.375, 3667.419
661.679, 3548.385
662.984, 2958.359
664.288, 2742.342
665.592, 2495.330
666.895, 2277.327
668.199, 1882.334
669.502, 1707.357
670.805, 1398.402
672.108, 1418.463
673.411, 1184.915
674.713, 928.208
676.016, 951.165
677.318, 621.708
678.620, 533.938
679.921, 376.972
681.223, 266.953
682.524, 226.105
683.825, 143.157
685.126, 85.390
686.427, 42.271
687.727, 57.574
689.028, 114.501
690.328, 267.246
691.628, 106.766
692.927, 210.724
694.227, 187.328
695.526, 276.478
696.825, 246.565
698.124, 196.655
699.423, 191.430
700.721, 156.008
702.020, 155.152
703.318, 171.303
704.616, 176.253
705.913, 223.320
707.211, 98.531
708.508, 104.180
709.805, 137.882
711.102, 131.572
712.399, 407.254
713.695, 346.924
714.992, 822.584
716.288, 1037.233
717.584, 1371.873
718.879, 1769.501
720.175, 2155.067
721.470, 2674.725
722.765, 3175.318
724.060, 3851.901
725.355, 4615.475
726.649, 5240.035
727.944, 6527.584
729.238, 7839.123
730.532, 8561.650
731.825, 10405.163
733.119, 11774.664
734.412, 12554.156
735.705, 13471.635
736.998, 14141.102
738.291, 14299.556
739.584, 14270.001
740.876, 13637.431
742.168, 12749.848
743.460, 11733.254
744.752, 10931.646
746.043, 9973.028
747.334, 9349.396
748.626, 8444.755
749.916, 7872.102
751.207, 7274.437
752.498, 6653.768
753.788, 6586.137
755.078, 5960.646
756.368, 5739.322
757.658, 5525.215
758.947, 5105.328
760.237, 5120.719
761.526, 4659.375
762.815, 4528.279
764.104, 4335.381
765.392, 4079.647
766.680, 3974.021
767.969, 3622.464
769.257, 3844.893
770.544, 3390.308
771.832, 3401.709
773.119, 3273.097
774.406, 3138.469
775.693, 3134.828
776.980, 3045.343
778.267, 3085.502
779.553, 2968.816
780.839, 2974.116
782.125, 2935.400
783.411, 3018.670
784.697, 2937.921
785.982, 3048.156
787.267, 3103.376
788.552, 3161.579
789.837, 3162.765
791.122, 3537.934
792.406, 3504.085
793.690, 3453.219
794.974, 3569.336
796.258, 3426.439
797.542, 3634.530
798.825, 3493.606
800.108, 3476.665
801.391, 3282.707
802.674, 3179.729
803.957, 2992.733
805.239, 2742.718
806.522, 2757.682
807.804, 2235.627
809.085, 2371.553
810.367, 2087.458
811.649, 1855.343
812.930, 1777.208
814.211, 1485.052
815.492, 1410.876
816.772, 1245.680
818.053, 1059.477
819.333, 865.236
820.613, 630.422
821.893, 701.480
823.173, 517.038
824.452, 333.924
825.732, 356.212
827.011, 126.657
828.290, 149.697
829.568, 90.393
830.847, 50.005
832.125, 85.300
833.403, 42.494
834.681, 62.180
835.959, 168.869
837.236, 195.925
838.514, 49.818
839.791, 146.768
841.068, 8.864
842.345, 101.925
843.621, 44.583
844.898, 25.087
846.174, 180.722
847.450, 34.794
848.726, 96.916
850.001, 6.417
851.277, 25.472
852.552, 19.613
853.827, 184.973
855.102, 94.526
856.376, 74.103
857.651, 461.637
858.925, 472.843
860.199, 497.080
861.473, 549.142
862.746, 637.795
864.020, 887.429
865.293, 785.042
866.566, 1093.638
867.839, 1115.212
869.112, 1148.767
870.384, 1213.302
871.656, 1244.165
872.928, 1206.310
874.200, 1316.784
875.472, 1286.239
876.744, 1274.672
878.015, 1365.087
879.286, 1221.480
880.557, 1230.854
881.828, 1211.208
883.098, 1122.562
884.369, 1119.895
885.639, 1069.213
886.909, 981.511
888.178, 946.791
889.448, 829.055
890.717, 894.519
891.987, 961.525
893.256, 1048.732
894.524, 1025.934
895.793, 1147.128
897.061, 1094.347
898.330, 1243.558
899.598, 1272.806
900.865, 1365.626
902.133, 1680.356
903.401, 1638.626
904.668, 1869.918
905.935, 2136.209
907.202, 2255.500
908.468, 2601.776
909.735, 2926.061
911.001, 3181.326
912.267, 3307.568
913.533, 3602.799
914.799, 3819.020
916.064, 3828.211
917.330, 4243.376
918.595, 4022.509
919.860, 3818.611
921.124, 4072.683
922.389, 3742.722
923.653, 3570.729
924.918, 3455.705
926.182, 3149.651
927.445, 2904.564
928.709, 2631.445
929.972, 2360.296
931.236, 2177.837
932.499, 1959.904
933.761, 1833.661
935.024, 1684.385
936.286, 1547.078
937.549, 1591.740
938.811, 1251.371
940.073, 1467.969
941.334, 1304.536
942.596, 1302.072
943.857, 1348.576
945.118, 1341.049
946.379, 1146.489
947.640, 1156.898
948.900, 1273.277
950.161, 1339.624
951.421, 1427.939
952.681, 1411.223
953.940, 1452.475
955.200, 1320.695
956.459, 1343.883
957.719, 1385.040
958.978, 1236.165
960.236, 1069.260
961.495, 1032.322
962.753, 974.354
964.012, 998.354
965.270, 870.322
966.527, 665.260
967.785, 567.165
969.043, 227.039
970.300, 258.883
971.557, 127.694
972.814, 150.472
974.071, 9.214
975.327, 12.095
976.583, 14.532
977.840, 84.111
979.095, 26.269
980.351, 105.446
981.607, 8.891
982.862, 99.963
984.117, 114.788
985.372, 85.730
986.627, 185.189
987.882, 92.153
989.136, 136.145
990.390, 155.381
991.644, 61.158
992.898, 24.388
994.152, 7.592
995.405, 28.049
996.659, 11.849
997.912, 16.722
999.165, 289.845
1000.417, 302.428
1001.670, 264.047
1002.922, 621.154
1004.174, 416.062
1005.426, 445.687
1006.678, 458.799
1007.930, 331.841
1009.181, 388.598
1010.432, 363.390
1011.683, 417.229
1012.934, 376.082
1014.185, 482.915
1015.435, 636.729
1016.685, 441.524
1017.935, 501.300
1019.185, 621.055
1020.435, 826.792
1021.684, 842.510
1022.934, 871.208
1024.183, 1060.888
1025.432, 1296.548
1026.680, 1367.189
1027.929, 1627.812
1029.177, 1671.417
1030.425, 1939.002
1031.673, 2239.569
1032.921, 2294.389
1034.169, 2422.917
1035.416, 2689.373
1036.663, 3050.922
1037.911, 3181.630
1039.157, 3188.785
1040.404, 3312.317
1041.650, 3397.958
1042.897, 3594.385
1044.143, 3326.969
1045.389, 3243.008
1046.634, 3294.597
1047.880, 3041.677
1049.125, 2971.010
1050.371, 2869.160
1051.615, 2935.667
1052.860, 2510.986
1054.105, 2718.672
1055.349, 2429.432
1056.593, 2367.103
1057.837, 2244.415
1059.081, 2178.480
1060.325, 2115.503
1061.568, 2053.749
1062.812, 1984.978
1064.055, 1963.872
1065.298, 1855.903
1066.540, 1885.912
1067.783, 1846.897
1069.025, 1896.862
1070.267, 2000.807
1071.509, 1710.729
1072.751, 1756.631
1073.993, 1893.513
1075.234, 1827.372
1076.475, 1936.211
1077.716, 2047.030
1078.957, 1979.829
1080.198, 2193.609
1081.438, 2321.369
1082.679, 2239.109
1083.919, 2450.829
1085.159, 2377.530
1086.398, 2582.213
1087.638, 2649.876
1088.877, 2861.520
1090.116, 2974.146
1091.355, 3120.963
1092.594, 3265.343
1093.833, 3412.912
1095.071, 3499.468
1096.309, 3623.002
1097.547, 4067.520
1098.785, 4035.021
1100.023, 4475.504
1101.260, 4540.971
1102.498, 4946.419
1103.735, 4854.852
1104.972, 5227.266
1106.208, 5356.663
1107.445, 5705.046
1108.681, 5728.412
1109.918, 6047.760
1111.154, 5885.096
1112.389, 6161.413
1113.625, 6212.715
1114.860, 6099.002
1116.096, 6200.273
1117.331, 6233.529
1118.566, 6277.754
1119.800, 6132.641
1121.035, 6069.365
1122.269, 5798.601
1123.503, 5722.922
1124.737, 5646.877
1125.971, 5353.396
1127.205, 4988.717
1128.438, 4719.410
1129.671, 4724.408
1130.904, 4245.449
1132.137, 4132.762
1133.370, 4000.137
1134.602, 3627.334
1135.834, 3284.477
1137.066, 3153.880
1138.298, 3039.012
1139.530, 2633.127
1140.762, 2693.562
1141.993, 2217.387
1143.224, 2241.421
1144.455, 1999.526
1145.686, 1900.607
1146.917, 1677.517
1148.147, 1686.040
1149.377, 1551.605
1150.607, 1460.178
1151.837, 1280.769
1153.067, 1181.551
1154.296, 1127.947
1155.526, 1047.530
1156.755, 995.629
1157.984, 931.682
1159.213, 870.247
1160.441, 740.806
1161.670, 601.357
1162.898, 735.901
1164.126, 653.438
1165.354, 524.969
1166.581, 648.492
1167.809, 445.010
1169.036, 380.521
1170.263, 444.026
1171.490, 349.524
1172.717, 241.017
1173.943, 209.504
1175.170, 191.984
1176.396, 129.460
1177.622, 199.930
1178.848, 128.395
1180.073, 66.146
1181.299, 104.271
1182.524, 10.320
1183.749, 22.075
1184.974, 5.464
1186.199, 5.155
1187.423, 10.692
1188.648, 5.574
1189.872, 25.927
1191.096, 49.726
1192.320, 41.410
1193.543, 162.125
1194.767, 42.932
1195.990, 206.770
1197.213, 124.724
1198.436, 178.750
1199.659, 9.124
1200.881, 151.007
1202.104, 73.224
1203.326, 72.483
1204.548, 16.785
1205.770, 112.103
1206.991, 15.480
1208.213, 79.127
1209.434, 53.266
1210.655, 64.688
1211.876, 57.854
1213.096, 55.395
1214.317, 144.938
1215.537, 118.480
1216.757, 158.024
1217.977, 273.571
1219.197, 353.125
1220.417, 312.687
1221.636, 296.253
1222.855, 363.824
1224.074, 328.403
1225.293, 335.396
1226.512, 322.574
1227.731, 314.165
1228.949, 225.760
1230.167, 209.360
1231.385, 271.964
1232.603, 179.571
1233.820, 216.183
1235.038, 153.756
1236.255, 186.413
1237.472, 53.033
1238.689, 58.656
1239.906, 66.278
1241.122, 49.900
1242.338, 139.522
1243.555, 121.146
1244.771, 14.768
1245.986, 122.390
1247.202, 37.012
1248.417, 237.635
1249.633, 181.259
1250.848, 76.885
1252.063, 340.511
1253.277, 199.139
1254.492, 235.768
1255.706, 167.397
1256.920, 191.028
1258.134, 214.662
1259.348, 183.298
1260.562, 239.575
1261.775, 294.694
1262.988, 332.217
1264.201, 460.860
1265.414, 541.507
1266.627, 637.156
1267.839, 625.811
1269.052, 741.469
1270.264, 782.142
1271.476, 904.832
1272.688, 922.535
1273.899, 1077.246
1275.111, 1201.966
1276.322, 1305.729
1277.533, 1483.511
1278.744, 1585.527
1279.955, 1708.479
1281.165, 1823.119
1282.376, 1896.095
1283.586, 1996.109
1284.796, 2008.172
1286.006, 2006.286
1287.215, 2191.427
1288.425, 2233.584
1289.634, 2097.754
1290.843, 2198.938
1292.052, 2007.136
1293.261, 2184.343
1294.469, 2036.557
1295.678, 2066.775
1296.886, 1985.004
1298.094, 2129.239
1299.302, 1895.483
1300.509, 1901.736
1301.717, 2001.996
1302.924, 1982.266
1304.131, 1941.542
1305.338, 1998.827
1306.545, 1981.120
1307.752, 2024.423
1308.958, 2227.732
1310.164, 2347.052
1311.370, 2261.379
1312.576, 2529.717
1313.782, 2356.062
1314.987, 2448.419
1316.193, 2589.784
1317.398, 2873.160
1318.603, 2706.547
1319.807, 2788.944
1321.012, 2866.354
1322.216, 2942.775
1323.421, 2924.207
1324.625, 2854.652
1325.829, 3096.841
1327.032, 3120.312
1328.236, 3295.854
1329.439, 3445.298
1330.642, 3293.579
1331.845, 3603.410
1333.048, 3696.862
1334.251, 3831.204
1335.453, 3567.760
1336.656, 3663.158
1337.858, 3520.104
1339.060, 3285.500
1340.261, 3222.406
1341.463, 2912.061
1342.664, 2809.902
1343.866, 2510.392
1345.067, 2310.070
1346.267, 2172.388
1347.468, 1961.636
1348.669, 1789.981
1349.869, 1682.689
1351.069, 1526.653
1352.269, 1295.519
1353.469, 1293.471
1354.668, 1123.304
1355.868, 1136.479
1357.067, 1007.534
1358.266, 839.626
1359.465, 934.757
1360.664, 964.972
1361.862, 646.257
1363.061, 733.092
1364.259, 717.197
1365.457, 663.365
1366.655, 551.754
1367.852, 586.868
1369.050, 474.357
1370.247, 637.898
1371.444, 571.497
1372.641, 480.146
1373.838, 573.686
1375.035, 514.193
1376.231, 508.625
1377.427, 607.955
1378.623, 537.212
1379.819, 504.395
1381.015, 450.513
1382.211, 597.595
1383.406, 636.058
1384.601, 597.530
1385.796, 782.016
1386.991, 594.514
1388.185, 620.023
1389.380, 502.545
1390.574, 606.081
1391.768, 610.631
1392.962, 589.194
1394.156, 570.771
1395.350, 750.360
1396.543, 708.965
1397.736, 582.585
1398.929, 779.220
1400.122, 640.870
1401.315, 760.534
1402.507, 712.212
1403.700, 880.899
1404.892, 946.601
1406.084, 833.308
1407.276, 818.024
1408.467, 988.745
1409.659, 878.474
1410.850, 919.207
1412.041, 895.947
1413.232, 768.692
1414.423, 1004.443
1415.614, 700.198
1416.804, 774.958
1417.994, 805.724
1419.184, 640.493
1420.374, 503.265
1421.564, 693.042
1422.753, 415.822
1423.943, 565.604
1425.132, 390.388
1426.321, 522.230
1427.510, 413.094
1428.698, 381.972
1429.887, 380.864
1431.075, 431.785
1432.263, 331.839
1433.451, 256.097
1434.639, 360.639
1435.827, 355.343
1437.014, 329.231
1438.201, 430.246
1439.388, 570.354
1440.575, 467.564
1441.762, 538.830
1442.949, 548.117
1444.135, 498.411
1445.321, 617.691
1446.507, 595.968
1447.693, 555.241
1448.879, 641.523
1450.064, 633.814
1451.250, 674.119
1452.435, 575.445
1453.620, 832.796
1454.805, 677.195
1455.989, 684.652
1457.174, 869.167
1458.358, 605.743
1459.542, 686.382
1460.726, 745.087
1461.910, 572.861
1463.093, 674.705
1464.277, 542.623
1465.460, 475.617
1466.643, 590.692
1467.826, 430.854
1469.009, 544.105
1470.191, 255.452
1471.373, 365.901
1472.556, 435.457
1473.738, 430.128
1474.919, 227.923
1476.101, 314.848
1477.283, 178.907
1478.464, 83.110
1479.645, 129.446
1480.826, 181.902
1482.007, 20.470
1483.187, 262.147
1484.368, 129.936
1485.548, 203.849
1486.728, 105.896
1487.908, 187.088
1489.088, 109.441
1490.268, 79.234
1491.447, 167.669
1492.626, 50.562
1493.805, 117.653
1494.984, 236.957
1496.163, 112.480
1497.341, 164.238
1498.520, 123.243
1499.698, 66.504
1500.876, 174.032
1502.054, 2.837
1503.232, 2.936
1504.409, 23.653
1505.586, 7.900
1506.763, 4.570
1507.940, 67.730
1509.117, 10.337
1510.294, 166.041
1511.470, 104.899
1512.647, 90.264
1513.823, 168.450
1514.999, 160.570
1516.174, 196.245
1517.350, 31.270
1518.526, 171.150
1519.701, 64.776
1520.876, 95.551
1522.051, 25.198
1523.226, 0.000
##END=



