##NAMES=Kurnakovite
##RRUFFID=R050105
##IDEAL CHEMISTRY=MgB_3_O_3_(OH)_5_&#183;5H_2_O
##LOCALITY=Kramer deposit, Boron, Kern County, California, USA
##OWNER=RRUFF
##SOURCE=Rock Currier
##DESCRIPTION=Tabular single crystal
##STATUS=The identification of this mineral has been confirmed by X-ray diffraction and chemical analysis
##URL=rruff.info/R050105
##MEASURED CHEMISTRY=MgB_3_O_3_(OH)_5_Â·5H_2_O
##PIN_ID=L00338
##ORIENTATION=Laser parallel to a* (1 0 0). Fiducial mark perpendicular to laser is parallel to b [0 1 0]
109.387, 0.000
110.777, 18.185
112.168, 1155.874
113.559, 660.406
114.949, 940.873
116.339, 1147.758
117.729, 1296.726
119.119, 2291.178
120.508, 3387.091
121.897, 3463.078
123.286, 3399.920
124.675, 1981.850
126.063, 1372.272
127.452, 943.872
128.840, 1288.572
130.228, 2075.691
131.615, 3021.385
133.003, 4268.427
134.390, 4061.014
135.777, 3670.228
137.164, 2155.697
138.550, 1148.738
139.937, 682.853
141.323, 342.659
142.709, 777.854
144.094, 1316.203
145.480, 2883.518
146.865, 4193.661
148.250, 6049.519
149.635, 7430.241
151.019, 7145.973
152.403, 7075.529
153.788, 5851.225
155.171, 5797.760
156.555, 5080.377
157.939, 4468.105
159.322, 4243.892
160.705, 3816.935
162.088, 4364.518
163.470, 4522.010
164.853, 5561.516
166.235, 5830.176
167.617, 6011.155
168.998, 5985.713
170.380, 5457.884
171.761, 5597.666
173.142, 5658.112
174.523, 6569.297
175.904, 6855.289
177.284, 7067.139
178.664, 6514.902
180.044, 5053.630
181.424, 4283.372
182.803, 3196.170
184.183, 2940.066
185.562, 2840.102
186.940, 3008.310
188.319, 3523.729
189.698, 3331.621
191.076, 3864.865
192.454, 3192.606
193.831, 2928.257
195.209, 2345.800
196.586, 1714.390
197.963, 1428.788
199.340, 769.386
200.717, 588.766
202.093, 194.292
203.470, 145.747
204.846, 22.230
206.221, 100.482
207.597, 211.458
208.972, 240.918
210.347, 415.355
211.722, 471.958
213.097, 773.909
214.472, 1023.668
215.846, 1036.196
217.220, 1273.095
218.594, 1018.024
219.967, 1064.968
221.341, 943.918
222.714, 1039.863
224.087, 1281.794
225.460, 1576.127
226.832, 2364.175
228.204, 2586.752
229.577, 3365.872
230.948, 3678.979
232.320, 3668.047
233.692, 3740.527
235.063, 2712.927
236.434, 2432.239
237.805, 1653.454
239.175, 1370.558
240.545, 1146.442
241.916, 1098.091
243.286, 1178.561
244.655, 1172.871
246.025, 1543.025
247.394, 1749.029
248.763, 2045.884
250.132, 2566.593
251.501, 2717.157
252.869, 3352.579
254.237, 3428.862
255.605, 4084.010
256.973, 4027.022
258.340, 3778.902
259.708, 3456.655
261.075, 2532.282
262.442, 2153.784
263.808, 1441.166
265.175, 1011.429
266.541, 596.576
267.907, 158.609
269.273, 85.532
270.639, 245.655
272.004, 176.987
273.369, 281.155
274.734, 174.369
276.099, 176.139
277.463, 251.024
278.828, 19.454
280.192, 34.764
281.556, 188.006
282.919, 111.992
284.283, 52.095
285.646, 238.066
287.009, 9.629
288.372, 111.649
289.734, 15.369
291.097, 131.194
292.459, 209.310
293.821, 190.402
295.183, 224.627
296.544, 411.014
297.905, 317.627
299.266, 342.473
300.627, 378.577
301.988, 219.960
303.348, 361.586
304.709, 180.500
306.069, 199.658
307.428, 108.069
308.788, 139.708
310.147, 153.584
311.507, 12.703
312.865, 29.025
314.224, 95.444
315.583, 144.718
316.941, 409.785
318.299, 578.663
319.657, 616.350
321.015, 1021.825
322.372, 1052.873
323.729, 1396.636
325.086, 1477.140
326.443, 1488.411
327.800, 1802.458
329.156, 1585.292
330.512, 1661.918
331.868, 1316.347
333.224, 1263.581
334.579, 1054.628
335.935, 807.494
337.290, 734.185
338.645, 513.706
339.999, 511.058
341.354, 444.247
342.708, 331.276
344.062, 486.147
345.416, 334.866
346.769, 506.437
348.123, 483.865
349.476, 550.155
350.829, 594.312
352.182, 608.340
353.534, 829.185
354.887, 742.550
356.239, 1074.435
357.591, 1060.861
358.942, 966.015
360.294, 973.011
361.645, 957.832
362.996, 1020.430
364.347, 822.687
365.698, 965.491
367.048, 930.339
368.398, 1050.015
369.748, 1184.177
371.098, 1223.307
372.448, 1604.863
373.797, 1718.976
375.146, 1883.959
376.495, 2224.578
377.844, 2346.141
379.192, 2834.656
380.540, 2688.129
381.889, 2929.558
383.236, 3012.945
384.584, 2654.290
385.932, 2629.593
387.279, 2027.856
388.626, 1905.068
389.973, 1647.223
391.319, 1417.321
392.666, 1469.371
394.012, 1078.378
395.358, 1257.346
396.704, 1063.279
398.049, 1107.178
399.394, 1116.043
400.740, 953.875
402.084, 1138.676
403.429, 749.446
404.774, 798.187
406.118, 708.899
407.462, 494.585
408.806, 573.246
410.150, 486.880
411.493, 724.491
412.836, 637.079
414.179, 854.644
415.522, 1300.188
416.865, 1405.710
418.207, 2027.213
419.549, 1913.697
420.891, 2153.164
422.233, 2099.612
423.575, 1646.045
424.916, 1546.462
426.257, 1119.863
427.598, 896.250
428.939, 650.625
430.279, 339.617
431.619, 395.348
432.959, 31.821
434.299, 90.411
435.639, 73.856
436.978, 165.572
438.318, 122.711
439.657, 305.826
440.996, 224.119
442.334, 383.904
443.673, 194.003
445.011, 141.921
446.349, 306.367
447.687, 0.659
449.024, 217.303
450.361, 24.668
451.699, 36.412
453.036, 34.918
454.372, 154.666
455.709, 90.299
457.045, 458.646
458.381, 575.165
459.717, 783.416
461.053, 1033.986
462.388, 1163.176
463.724, 1675.213
465.059, 1827.258
466.394, 2314.573
467.728, 2620.597
469.063, 2262.287
470.397, 2335.912
471.731, 1722.595
473.065, 1868.053
474.398, 1361.425
475.732, 1067.570
477.065, 1075.444
478.398, 659.119
479.731, 771.475
481.063, 461.967
482.396, 444.873
483.728, 620.766
485.060, 377.645
486.391, 511.512
487.723, 470.369
489.054, 470.217
490.385, 399.058
491.716, 454.893
493.047, 636.721
494.377, 584.545
495.708, 798.367
497.038, 706.187
498.368, 891.006
499.697, 1182.971
501.027, 1032.933
502.356, 1478.622
503.685, 1622.579
505.014, 1962.465
506.342, 2296.491
507.671, 2302.485
508.999, 2898.402
510.327, 2869.610
511.655, 3330.021
512.982, 3661.512
514.310, 3664.401
515.637, 4219.307
516.964, 4169.226
518.291, 4639.165
519.617, 4821.178
520.944, 4991.211
522.270, 5455.312
523.596, 5491.473
524.921, 6182.692
526.247, 6498.049
527.572, 6860.480
528.897, 7580.004
530.222, 7408.703
531.547, 8297.500
532.871, 8323.450
534.196, 8592.487
535.520, 9056.641
536.844, 8834.952
538.167, 9248.307
539.491, 8850.727
540.814, 8726.245
542.137, 9075.906
543.460, 8583.723
544.783, 8760.645
546.105, 8457.701
547.427, 8722.850
548.749, 8857.104
550.071, 8577.512
551.393, 9486.002
552.714, 9620.622
554.035, 10043.342
555.356, 10320.138
556.677, 10403.082
557.998, 10799.090
559.318, 9833.195
560.638, 9784.387
561.958, 8639.634
563.278, 7587.979
564.597, 6846.383
565.917, 5517.853
567.236, 5086.385
568.555, 4357.970
569.874, 3710.611
571.192, 3656.307
572.511, 2914.054
573.829, 3177.854
575.147, 2804.709
576.464, 2704.619
577.782, 2841.584
579.099, 2614.604
580.416, 2883.678
581.733, 2937.805
583.050, 2878.987
584.366, 3404.224
585.683, 3318.516
586.999, 3762.861
588.315, 3881.264
589.630, 4202.729
590.946, 4430.271
592.261, 4336.127
593.576, 4683.234
594.891, 4296.229
596.206, 4528.398
597.520, 4584.959
598.834, 4615.959
600.148, 5055.521
601.462, 4880.527
602.776, 5310.736
604.089, 5957.162
605.402, 6025.982
606.715, 6945.427
608.028, 7032.579
609.341, 7943.895
610.653, 8752.116
611.965, 9584.694
613.277, 11096.303
614.589, 11853.074
615.901, 14094.021
617.212, 15840.203
618.523, 17638.586
619.834, 21044.174
621.145, 22650.984
622.456, 27439.975
623.766, 30476.176
625.076, 33824.555
626.386, 38120.098
627.696, 39878.805
629.006, 42503.656
630.315, 42312.680
631.624, 40510.828
632.933, 39949.109
634.242, 34611.492
635.551, 32394.969
636.859, 27848.523
638.167, 24018.143
639.475, 21018.834
640.783, 17769.602
642.090, 15697.434
643.398, 13321.336
644.705, 11159.309
646.012, 10124.353
647.318, 8267.464
648.625, 7483.646
649.931, 6353.897
651.237, 5454.219
652.543, 5113.607
653.849, 4183.066
655.155, 4109.596
656.460, 3329.194
657.765, 3073.865
659.070, 2842.608
660.375, 2346.427
661.679, 2416.320
662.984, 2060.287
664.288, 1825.332
665.592, 1877.448
666.895, 1679.637
668.199, 1589.896
669.502, 1432.226
670.805, 1461.625
672.108, 1532.092
673.411, 1249.626
674.713, 1519.252
676.016, 1440.033
677.318, 1287.857
678.620, 1544.870
679.921, 1225.713
681.223, 1531.148
682.524, 1396.384
683.825, 1718.908
685.126, 1758.727
686.427, 1647.828
687.727, 1878.881
689.028, 1917.174
690.328, 2008.463
691.628, 2080.037
692.927, 1950.295
694.227, 2248.797
695.526, 2112.432
696.825, 2310.627
698.124, 2694.570
699.423, 2416.062
700.721, 2720.111
702.020, 2720.473
703.318, 2777.977
704.616, 3035.098
705.913, 2996.902
707.211, 3266.876
708.508, 3225.723
709.805, 3379.862
711.102, 3315.553
712.399, 3025.401
713.695, 3547.056
714.992, 3197.281
716.288, 3367.092
717.584, 3544.877
718.879, 3224.522
720.175, 3459.900
721.470, 3302.705
722.765, 3503.126
724.060, 3474.489
725.355, 3348.430
726.649, 3681.880
727.944, 3468.321
729.238, 3770.979
730.532, 4012.470
731.825, 4140.543
733.119, 4340.083
734.412, 4536.646
735.705, 4532.306
736.998, 4845.914
738.291, 4465.547
739.584, 4362.199
740.876, 4140.875
742.168, 3660.574
743.460, 3634.293
744.752, 3012.033
746.043, 2925.793
747.334, 2731.574
748.626, 2155.391
749.916, 2333.230
751.207, 1829.109
752.498, 1851.050
753.788, 1637.036
755.078, 1343.112
756.368, 1542.256
757.658, 1049.506
758.947, 1138.811
760.237, 1065.156
761.526, 802.583
762.815, 941.025
764.104, 590.523
765.392, 699.037
766.680, 606.562
767.969, 544.102
769.257, 516.648
770.544, 375.202
771.832, 498.763
773.119, 451.327
774.406, 296.895
775.693, 490.465
776.980, 320.038
778.267, 362.609
779.553, 313.180
780.839, 314.749
782.125, 459.315
783.411, 350.878
784.697, 248.435
785.982, 448.986
787.267, 103.532
788.552, 342.070
789.837, 366.600
791.122, 242.119
792.406, 463.631
793.690, 387.133
794.974, 538.622
796.258, 333.102
797.542, 493.570
798.825, 602.026
800.108, 362.469
801.391, 562.898
802.674, 581.314
803.957, 377.717
805.239, 662.103
806.522, 471.474
807.804, 636.829
809.085, 653.167
810.367, 482.488
811.649, 759.792
812.930, 456.078
814.211, 571.345
815.492, 680.592
816.772, 423.818
818.053, 634.026
819.333, 407.212
820.613, 325.376
821.893, 246.518
823.173, 191.636
824.452, 173.731
825.732, 71.804
827.011, 91.850
828.290, 74.872
829.568, 169.133
830.847, 72.734
832.125, 148.426
833.403, 93.710
834.681, 83.089
835.959, 378.561
837.236, 124.283
838.514, 125.123
839.791, 301.084
841.068, 137.260
842.345, 360.565
843.621, 86.121
844.898, 198.784
846.174, 381.615
847.450, 284.287
848.726, 1.157
850.001, 148.042
851.277, 284.388
852.552, 337.955
853.827, 168.773
855.102, 234.755
856.376, 106.937
857.651, 114.252
858.925, 345.706
860.199, 27.421
861.473, 230.232
862.746, 105.246
864.020, 0.399
865.293, 287.637
866.566, 39.890
867.839, 82.649
869.112, 42.320
870.384, 108.898
871.656, 83.930
872.928, 89.111
874.200, 51.098
875.472, 63.019
876.744, 327.877
878.015, 126.696
879.286, 252.470
880.557, 310.244
881.828, 219.979
883.098, 465.672
884.369, 137.364
885.639, 273.010
886.909, 441.634
888.178, 260.221
889.448, 588.765
890.717, 341.344
891.987, 389.899
893.256, 569.420
894.524, 315.976
895.793, 614.490
897.061, 527.034
898.330, 536.605
899.598, 833.134
900.865, 445.674
902.133, 830.172
903.401, 642.627
904.668, 523.049
905.935, 903.428
907.202, 649.773
908.468, 772.084
909.735, 871.351
911.001, 833.571
912.267, 1078.747
913.533, 762.877
914.799, 1140.006
916.064, 1177.087
917.330, 1009.123
918.595, 1272.112
919.860, 1236.056
921.124, 1237.954
922.389, 1444.806
923.653, 1162.609
924.918, 1448.367
926.182, 1321.076
927.445, 1318.737
928.709, 1520.351
929.972, 1383.915
931.236, 1580.433
932.499, 1659.902
933.761, 1525.322
935.024, 1783.695
936.286, 1867.020
937.549, 1809.296
938.811, 2242.523
940.073, 1930.704
941.334, 2318.836
942.596, 2274.920
943.857, 2424.954
945.118, 2829.941
946.379, 2384.880
947.640, 2766.771
948.900, 2788.612
950.161, 2655.405
951.421, 3104.150
952.681, 2817.848
953.940, 2984.497
955.200, 3079.098
956.459, 2865.650
957.719, 3308.154
958.978, 2965.609
960.236, 2915.019
961.495, 3120.379
962.753, 2526.690
964.012, 2585.954
965.270, 2492.170
966.527, 2195.338
967.785, 2193.457
969.043, 1864.530
970.300, 1929.555
971.557, 1817.531
972.814, 1621.462
974.071, 1848.344
975.327, 1348.178
976.583, 1494.965
977.840, 1471.705
979.095, 1166.398
980.351, 1386.020
981.607, 1106.506
982.862, 1154.968
984.117, 1139.261
985.372, 925.745
986.627, 1090.656
987.882, 1012.786
989.136, 906.647
990.390, 995.233
991.644, 797.555
992.898, 844.944
994.152, 927.110
995.405, 766.302
996.659, 1075.225
997.912, 936.481
999.165, 964.510
1000.417, 1033.426
1001.670, 841.798
1002.922, 1137.438
1004.174, 1071.547
1005.426, 901.114
1006.678, 1214.387
1007.930, 964.534
1009.181, 1043.079
1010.432, 1158.957
1011.683, 892.681
1012.934, 1044.547
1014.185, 929.137
1015.435, 806.189
1016.685, 1319.099
1017.935, 817.217
1019.185, 1163.778
1020.435, 1232.770
1021.684, 1102.800
1022.934, 1510.982
1024.183, 1256.445
1025.432, 1260.496
1026.680, 1749.943
1027.929, 1341.552
1029.177, 1867.505
1030.425, 2005.106
1031.673, 1946.582
1032.921, 2251.854
1034.169, 2093.340
1035.416, 2307.218
1036.663, 2575.629
1037.911, 2258.343
1039.157, 2816.662
1040.404, 2660.617
1041.650, 2617.616
1042.897, 3216.608
1044.143, 2695.939
1045.389, 3348.264
1046.634, 3075.119
1047.880, 3055.211
1049.125, 3678.490
1050.371, 3231.051
1051.615, 3357.297
1052.860, 3515.588
1054.105, 3056.716
1055.349, 3265.914
1056.593, 2927.160
1057.837, 2824.965
1059.081, 2973.115
1060.325, 2303.251
1061.568, 2591.373
1062.812, 2302.479
1064.055, 2117.998
1065.298, 2262.076
1066.540, 1895.138
1067.783, 1896.349
1069.025, 2069.383
1070.267, 1493.972
1071.509, 1766.977
1072.751, 1601.969
1073.993, 1391.955
1075.234, 1756.920
1076.475, 1238.871
1077.716, 1362.810
1078.957, 1386.736
1080.198, 1032.649
1081.438, 1372.550
1082.679, 1116.439
1083.919, 1036.352
1085.159, 1480.253
1086.398, 918.144
1087.638, 1378.021
1088.877, 1307.889
1090.116, 1119.746
1091.355, 1546.594
1092.594, 1040.431
1093.833, 1391.260
1095.071, 1583.078
1096.309, 1345.888
1097.547, 1550.689
1098.785, 1776.480
1100.023, 1602.264
1101.260, 1972.039
1102.498, 1722.807
1103.735, 1854.566
1104.972, 2137.318
1106.208, 1809.064
1107.445, 2340.803
1108.681, 2276.534
1109.918, 2050.260
1111.154, 2637.979
1112.389, 2062.692
1113.625, 2447.401
1114.860, 2396.103
1116.096, 2211.799
1117.331, 2688.492
1118.566, 2346.181
1119.800, 2327.863
1121.035, 2641.545
1122.269, 2198.221
1123.503, 2598.893
1124.737, 2352.562
1125.971, 2008.227
1127.205, 2328.890
1128.438, 1899.552
1129.671, 1986.211
1130.904, 2042.921
1132.137, 1763.630
1133.370, 1964.384
1134.602, 1946.200
1135.834, 1571.048
1137.066, 1898.005
1138.298, 1452.039
1139.530, 1549.117
1140.762, 1685.287
1141.993, 1265.509
1143.224, 1494.840
1144.455, 1579.213
1145.686, 1257.656
1146.917, 1658.217
1148.147, 1530.797
1149.377, 1501.396
1150.607, 1747.054
1151.837, 1382.820
1153.067, 1570.699
1154.296, 1464.643
1155.526, 1207.670
1156.755, 1529.749
1157.984, 898.883
1159.213, 1267.130
1160.441, 1222.410
1161.670, 754.799
1162.898, 829.240
1164.126, 707.709
1165.354, 476.289
1166.581, 759.888
1167.809, 279.536
1169.036, 406.224
1170.263, 466.918
1171.490, 191.665
1172.717, 394.421
1173.943, 52.194
1175.170, 18.982
1176.396, 412.775
1177.622, 148.426
1178.848, 232.308
1180.073, 195.045
1181.299, 145.212
1182.524, 131.455
1183.749, 63.873
1184.974, 1.768
1186.199, 240.404
1187.423, 278.956
1188.648, 56.462
1189.872, 6.002
1191.096, 284.547
1192.320, 115.775
1193.543, 260.898
1194.767, 248.712
1195.990, 258.343
1197.213, 192.600
1198.436, 55.354
1199.659, 41.311
1200.881, 26.730
1202.104, 197.212
1203.326, 28.843
1204.548, 21.916
1205.770, 359.996
1206.991, 104.911
1208.213, 179.829
1209.434, 268.750
1210.655, 161.325
1211.876, 498.510
1213.096, 157.349
1214.317, 20.188
1215.537, 560.030
1216.757, 2.125
1217.977, 380.713
1219.197, 527.554
1220.417, 58.396
1221.636, 713.241
1222.855, 383.089
1224.074, 236.939
1225.293, 967.791
1226.512, 404.651
1227.731, 655.516
1228.949, 752.383
1230.167, 203.107
1231.385, 829.977
1232.603, 469.848
1233.820, 321.725
1235.038, 788.607
1236.255, 173.498
1237.472, 352.396
1238.689, 568.300
1239.906, 177.306
1241.122, 587.224
1242.338, 256.151
1243.555, 107.084
1244.771, 845.024
1245.986, 216.973
1247.202, 394.928
1248.417, 650.891
1249.633, 295.860
1250.848, 687.838
1252.063, 682.823
1253.277, 289.816
1254.492, 1036.816
1255.706, 450.823
1256.920, 530.837
1258.134, 917.858
1259.348, 541.887
1260.562, 956.924
1261.775, 741.965
1262.988, 525.120
1264.201, 1161.175
1265.414, 827.236
1266.627, 864.305
1267.839, 1431.379
1269.052, 669.459
1270.264, 1357.546
1271.476, 1460.638
1272.688, 1005.734
1273.899, 1476.256
1275.111, 1530.363
1276.322, 1199.477
1277.533, 1923.594
1278.744, 1668.718
1279.955, 1923.649
1281.165, 2070.782
1282.376, 1473.920
1283.586, 2279.574
1284.796, 1972.723
1286.006, 1808.877
1287.215, 2264.193
1288.425, 1747.363
1289.634, 2027.734
1290.843, 2560.919
1292.052, 1590.111
1293.261, 2009.487
1294.469, 2168.693
1295.678, 1727.907
1296.886, 2272.372
1298.094, 1763.604
1299.302, 1765.843
1300.509, 2315.090
1301.717, 1687.344
1302.924, 2080.605
1304.131, 2323.806
1305.338, 2041.011
1306.545, 2717.471
1307.752, 2224.688
1308.958, 2227.910
1310.164, 2989.422
1311.370, 2527.654
1312.576, 3241.893
1313.782, 3385.377
1314.987, 2661.625
1316.193, 3644.880
1317.398, 3287.139
1318.603, 2862.402
1319.807, 3848.778
1321.012, 3122.961
1322.216, 3437.242
1323.421, 3709.357
1324.625, 2884.651
1325.829, 3672.945
1327.032, 3420.211
1328.236, 3042.521
1329.439, 3922.760
1330.642, 3041.590
1331.845, 3159.730
1333.048, 3759.441
1334.251, 2933.936
1335.453, 3182.365
1336.656, 3322.123
1337.858, 2469.145
1339.060, 2877.621
1340.261, 2532.258
1341.463, 1946.285
1342.664, 2567.922
1343.866, 1829.812
1345.067, 1852.640
1346.267, 2043.965
1347.468, 1101.838
1348.669, 1451.639
1349.869, 1418.862
1351.069, 680.636
1352.269, 1358.393
1353.469, 870.133
1354.668, 533.862
1355.868, 1383.145
1357.067, 506.697
1358.266, 825.231
1359.465, 1060.563
1360.664, 405.037
1361.862, 1063.906
1363.061, 886.395
1364.259, 236.781
1365.457, 1205.133
1366.655, 771.554
1367.852, 437.875
1369.050, 1127.188
1370.247, 179.790
1371.444, 481.099
1372.641, 418.413
1373.838, 125.516
1375.035, 824.391
1376.231, 837.233
1377.427, 355.573
1378.623, 916.913
1379.819, 336.256
1381.015, 427.596
1382.211, 1027.936
1383.406, 53.275
1384.601, 712.613
1385.796, 842.954
1386.991, 273.292
1388.185, 765.629
1389.380, 594.964
1390.574, 233.296
1391.768, 983.623
1392.962, 203.949
1394.156, 440.271
1395.350, 803.588
1396.543, 193.902
1397.736, 637.207
1398.929, 611.508
1400.122, 135.767
1401.315, 764.982
1402.507, 277.112
1403.700, 192.230
1404.892, 927.330
1406.084, 69.410
1407.276, 546.431
1408.467, 729.419
1409.659, 107.372
1410.850, 673.310
1412.041, 579.229
1413.232, 184.100
1414.423, 943.921
1415.614, 394.694
1416.804, 19.442
1417.994, 737.168
1419.184, 155.868
1420.374, 293.543
1421.564, 682.233
1422.753, 95.062
1423.943, 701.735
1425.132, 635.574
1426.321, 105.487
1427.510, 604.617
1428.698, 158.900
1429.887, 72.516
1431.075, 759.331
1432.263, 1.752
1433.451, 450.211
1434.639, 732.245
1435.827, 46.683
1437.014, 559.415
1438.201, 418.703
1439.388, 28.969
1440.575, 1093.410
1441.762, 222.843
1442.949, 153.324
1444.135, 867.858
1445.321, 171.425
1446.507, 388.528
1447.693, 846.966
1448.879, 59.565
1450.064, 761.927
1451.250, 404.242
1452.435, 9.223
1453.620, 924.340
1454.805, 504.929
1455.989, 85.546
1457.174, 1029.193
1458.358, 216.874
1459.542, 409.593
1460.726, 872.354
1461.910, 130.160
1463.093, 858.753
1464.277, 779.667
1465.460, 7.350
1466.643, 997.707
1467.826, 548.673
1469.009, 249.881
1470.191, 1029.188
1471.373, 461.018
1472.556, 354.686
1473.738, 1251.121
1474.919, 114.061
1476.101, 609.473
1477.283, 949.316
1478.464, 44.836
1479.645, 999.021
1480.826, 567.338
1482.007, 58.533
1483.187, 1038.141
1484.368, 358.645
1485.548, 283.311
1486.728, 1177.324
1487.908, 46.955
1489.088, 494.371
1490.268, 871.902
1491.447, 114.557
1492.626, 740.193
1493.805, 771.076
1494.984, 119.766
1496.163, 1039.576
1497.341, 444.979
1498.520, 276.779
1499.698, 1108.502
1500.876, 65.957
1502.054, 420.580
1503.232, 1101.391
1504.409, 37.584
1505.586, 721.605
1506.763, 739.811
1507.940, 27.152
1509.117, 941.020
1510.294, 405.678
1511.470, 12.021
1512.647, 1101.244
1513.823, 228.215
1514.999, 339.020
1516.174, 796.830
1517.350, 0.000
##END=



