##NAMES=Kurnakovite
##RRUFFID=R050105
##IDEAL CHEMISTRY=MgB_3_O_3_(OH)_5_&#183;5H_2_O
##LOCALITY=Kramer deposit, Boron, Kern County, California, USA
##OWNER=RRUFF
##SOURCE=Rock Currier
##DESCRIPTION=Tabular single crystal
##STATUS=The identification of this mineral has been confirmed by X-ray diffraction and chemical analysis
##URL=rruff.info/R050105
##MEASURED CHEMISTRY=MgB_3_O_3_(OH)_5_Â·5H_2_O
##PIN_ID=L00484
##ORIENTATION=Laser parallel to b* (0 1 0). Fiducial mark perpendicular to laser is parallel to c [0 0 1]
107.995, 0.000
109.387, 41.674
110.777, 116.306
112.168, 986.605
113.559, 2038.920
114.949, 3564.266
116.339, 4785.765
117.729, 6430.126
119.119, 6971.696
120.508, 6870.800
121.897, 6378.037
123.286, 6374.762
124.675, 6929.908
126.063, 8974.139
127.452, 12095.965
128.840, 15726.479
130.228, 19803.438
131.615, 22582.256
133.003, 24357.441
134.390, 22462.855
135.777, 18489.846
137.164, 13570.768
138.550, 9656.787
139.937, 6383.424
141.323, 4975.829
142.709, 4226.041
144.094, 4089.576
145.480, 4426.030
146.865, 4678.053
148.250, 4909.473
149.635, 4788.289
151.019, 3992.136
152.403, 3074.445
153.788, 2365.679
155.171, 2099.279
156.555, 2149.738
157.939, 2427.454
159.322, 3156.861
160.705, 4291.068
162.088, 5486.271
163.470, 7072.676
164.853, 8287.135
166.235, 8676.487
167.617, 8650.475
168.998, 8247.194
170.380, 7452.740
171.761, 7221.181
173.142, 6697.589
174.523, 6863.082
175.904, 6888.052
177.284, 6399.753
178.664, 6065.892
180.044, 5375.306
181.424, 5101.432
182.803, 4819.495
184.183, 4953.385
185.562, 5250.592
186.940, 5997.892
188.319, 6381.566
189.698, 6791.572
191.076, 6724.593
192.454, 6208.614
193.831, 5411.898
195.209, 4397.778
196.586, 3587.852
197.963, 2671.203
199.340, 2051.508
200.717, 1525.312
202.093, 1117.076
203.470, 763.352
204.846, 664.543
206.221, 683.973
207.597, 834.030
208.972, 925.533
210.347, 627.421
211.722, 656.667
213.097, 692.242
214.472, 543.125
215.846, 530.292
217.220, 206.723
218.594, 20.400
219.967, 32.300
221.341, 96.408
222.714, 312.710
224.087, 714.194
225.460, 1429.830
226.832, 2161.564
228.204, 2862.354
229.577, 3448.166
230.948, 3602.980
232.320, 3577.795
233.692, 3179.608
235.063, 2435.425
236.434, 1645.244
237.805, 1040.068
239.175, 533.890
240.545, 31.303
241.916, 130.508
243.286, 450.723
244.655, 616.946
246.025, 743.213
247.394, 739.600
248.763, 734.997
250.132, 767.385
251.501, 578.759
252.869, 600.120
254.237, 371.466
255.605, 373.798
256.973, 314.163
258.340, 365.871
259.708, 387.370
261.075, 357.787
262.442, 389.066
263.808, 163.994
265.175, 419.357
266.541, 176.146
267.907, 102.639
269.273, 401.104
270.639, 918.373
272.004, 1329.748
273.369, 1981.666
274.734, 2762.151
276.099, 3678.417
277.463, 4587.364
278.828, 5736.345
280.192, 6611.893
281.556, 7105.658
282.919, 7475.943
284.283, 7216.277
285.646, 6725.173
287.009, 5452.984
288.372, 4026.449
289.734, 3252.474
291.097, 2167.050
292.459, 1256.466
293.821, 686.061
295.183, 261.782
296.544, 17.583
297.905, 179.616
299.266, 167.890
300.627, 209.260
301.988, 36.764
303.348, 92.630
304.709, 233.942
306.069, 496.190
307.428, 856.346
308.788, 1144.332
310.147, 1553.104
311.507, 2168.637
312.865, 2713.916
314.224, 3608.960
315.583, 4536.786
316.941, 5782.408
318.299, 7011.840
319.657, 8318.093
321.015, 9991.167
322.372, 11334.056
323.729, 12748.768
325.086, 13575.316
326.443, 14409.711
327.800, 14160.858
329.156, 14290.744
330.512, 13300.507
331.868, 12298.144
333.224, 11286.665
334.579, 10526.074
335.935, 9237.378
337.290, 9136.582
338.645, 8723.577
339.999, 8874.960
341.354, 9047.289
342.708, 9557.526
344.062, 10269.799
345.416, 10928.350
346.769, 11835.374
348.123, 13191.850
349.476, 14548.805
350.829, 16472.348
352.182, 18183.738
353.534, 19838.178
354.887, 20834.648
356.239, 21265.166
357.591, 20868.723
358.942, 19690.322
360.294, 17997.951
361.645, 16361.604
362.996, 14397.283
364.347, 13332.981
365.698, 12315.678
367.048, 12012.104
368.398, 11565.173
369.748, 11725.064
371.098, 12120.949
372.448, 12582.877
373.797, 13456.849
375.146, 13874.888
376.495, 14712.968
377.844, 15545.100
379.192, 15466.309
380.540, 15300.163
381.889, 14538.614
383.236, 13611.265
384.584, 12252.648
385.932, 10462.278
387.279, 8807.966
388.626, 7657.717
389.973, 6651.531
391.319, 5492.439
392.666, 5301.384
394.012, 4829.348
395.358, 4734.332
396.704, 4974.334
398.049, 5253.357
399.394, 5731.398
400.740, 6072.461
402.084, 6621.541
403.429, 6974.102
404.774, 7495.027
406.118, 8369.202
407.462, 8933.287
408.806, 9900.450
410.150, 11354.856
411.493, 13080.563
412.836, 15486.256
414.179, 17688.807
415.522, 19639.039
416.865, 22286.018
418.207, 23244.895
419.549, 23116.299
420.891, 22207.717
422.233, 19696.943
423.575, 16629.012
424.916, 13134.376
426.257, 10639.075
427.598, 8175.988
428.939, 6192.324
430.279, 4788.381
431.619, 3336.250
432.959, 2369.183
434.299, 1661.175
435.639, 1284.258
436.978, 672.414
438.318, 352.618
439.657, 28.859
440.996, 80.875
442.334, 243.640
443.673, 406.517
445.011, 547.590
446.349, 392.932
447.687, 468.472
449.024, 285.244
450.361, 74.164
451.699, 11.133
453.036, 329.879
454.372, 660.883
455.709, 1403.878
457.045, 1989.842
458.381, 3096.804
459.717, 4219.921
461.053, 5944.438
462.388, 7419.245
463.724, 9347.882
465.059, 11209.372
466.394, 12330.144
467.728, 12658.081
469.063, 12614.017
470.397, 11787.946
471.731, 9980.881
473.065, 8489.814
474.398, 6566.751
475.732, 5489.688
477.065, 4110.631
478.398, 3242.581
479.731, 2677.537
481.063, 2250.501
482.396, 1841.473
483.728, 1764.455
485.060, 1776.446
486.391, 1769.450
487.723, 1852.466
489.054, 1957.496
490.385, 2191.871
491.716, 2638.602
493.047, 2870.680
494.377, 3213.775
495.708, 3761.889
497.038, 4035.020
498.368, 4146.173
499.697, 4438.344
501.027, 4482.539
502.356, 4488.764
503.685, 4175.020
505.014, 3911.314
506.342, 3470.650
507.671, 3198.029
508.999, 2805.455
510.327, 2498.930
511.655, 2228.454
512.982, 2170.031
514.310, 2264.659
515.637, 2077.341
516.964, 2020.072
518.291, 1951.857
519.617, 2293.699
520.944, 2289.609
522.270, 2201.604
523.596, 2435.705
524.921, 2377.932
526.247, 2637.291
527.572, 2702.139
528.897, 2743.773
530.222, 3110.754
531.547, 3178.887
532.871, 3444.977
534.196, 3651.563
535.520, 3796.729
536.844, 4048.254
538.167, 4134.854
539.491, 4371.110
540.814, 4515.953
542.137, 4752.288
543.460, 4963.299
544.783, 5233.739
546.105, 5280.686
547.427, 5652.172
548.749, 5639.016
550.071, 5805.288
551.393, 5924.623
552.714, 5937.402
554.035, 5787.228
555.356, 5835.096
556.677, 5385.008
557.998, 5195.965
559.318, 5036.963
560.638, 4513.008
561.958, 4110.094
563.278, 3527.268
564.597, 3380.555
565.917, 2892.030
567.236, 2540.740
568.555, 2462.717
569.874, 2044.959
571.192, 2027.466
572.511, 1793.246
573.829, 1543.249
575.147, 1473.481
576.464, 1374.883
577.782, 1205.455
579.099, 1123.183
580.416, 986.077
581.733, 1050.144
583.050, 992.375
584.366, 858.779
585.683, 968.299
586.999, 905.996
588.315, 940.810
589.630, 1079.675
590.946, 1156.580
592.261, 1205.522
593.576, 1335.503
594.891, 1463.561
596.206, 1596.784
597.520, 1820.665
598.834, 1940.788
600.148, 2196.974
601.462, 2416.254
602.776, 2835.087
604.089, 3057.758
605.402, 3567.601
606.715, 4090.137
608.028, 4757.533
609.341, 5337.807
610.653, 6150.889
611.965, 7209.415
613.277, 8375.985
614.589, 9563.605
615.901, 11159.275
617.212, 13297.050
618.523, 15513.974
619.834, 18707.047
621.145, 21442.287
622.456, 24982.648
623.766, 28368.096
625.076, 32524.609
626.386, 35549.168
627.696, 38800.777
629.006, 39574.402
630.315, 41444.090
631.624, 39032.824
632.933, 38050.586
634.242, 36025.395
635.551, 32119.246
636.859, 29069.145
638.167, 25156.072
639.475, 23086.051
640.783, 19409.062
642.090, 17262.121
643.398, 15187.218
644.705, 13200.353
646.012, 11476.533
647.318, 10004.745
648.625, 8973.000
649.931, 7622.295
651.237, 6774.627
652.543, 6058.000
653.849, 5404.408
655.155, 4781.856
656.460, 4212.342
657.765, 3758.865
659.070, 3283.426
660.375, 2898.022
661.679, 2596.235
662.984, 2333.326
664.288, 2113.031
665.592, 1907.772
666.895, 1722.547
668.199, 1482.358
669.502, 1428.202
670.805, 1059.080
672.108, 1130.991
673.411, 885.935
674.713, 727.367
676.016, 800.493
677.318, 535.041
678.620, 503.049
679.921, 400.711
681.223, 206.435
682.524, 126.299
683.825, 19.445
685.126, 53.428
686.427, 5.688
687.727, 120.354
689.028, 109.885
690.328, 220.753
691.628, 89.501
692.927, 136.282
694.227, 237.520
695.526, 346.590
696.825, 313.946
698.124, 100.636
699.423, 228.815
700.721, 195.523
702.020, 119.991
703.318, 139.663
704.616, 142.782
705.913, 258.995
707.211, 34.688
708.508, 186.690
709.805, 147.591
711.102, 82.489
712.399, 463.386
713.695, 480.281
714.992, 803.172
716.288, 813.062
717.584, 1228.946
718.879, 1423.829
720.175, 1669.708
721.470, 2542.580
722.765, 2906.447
724.060, 3553.309
725.355, 4362.159
726.649, 5172.004
727.944, 6197.836
729.238, 7714.658
730.532, 8427.465
731.825, 10458.259
733.119, 11751.041
734.412, 12683.807
735.705, 13673.556
736.998, 14290.290
738.291, 14499.005
739.584, 14206.698
740.876, 13536.374
742.168, 12681.029
743.460, 11202.666
744.752, 10267.280
746.043, 9213.871
747.334, 8358.444
748.626, 7275.992
749.916, 6400.520
751.207, 5861.023
752.498, 5322.505
753.788, 4920.961
755.078, 4256.398
756.368, 4066.833
757.658, 3676.308
758.947, 3363.859
760.237, 3278.522
761.526, 2886.261
762.815, 2808.088
764.104, 2711.959
765.392, 2563.828
766.680, 2589.676
767.969, 2342.496
769.257, 2494.289
770.544, 2243.054
771.832, 2316.790
773.119, 2240.497
774.406, 2246.174
775.693, 2348.819
776.980, 2215.434
778.267, 2477.015
779.553, 2505.562
780.839, 2691.076
782.125, 2788.557
783.411, 3082.002
784.697, 3117.413
785.982, 3341.788
787.267, 3764.127
788.552, 3843.431
789.837, 4105.698
791.122, 4573.930
792.406, 4787.121
793.690, 5102.277
794.974, 5323.396
796.258, 5461.476
797.542, 5640.516
798.825, 5524.520
800.108, 5676.480
801.391, 5389.403
802.674, 5409.286
803.957, 5237.128
805.239, 4868.930
806.522, 4672.690
807.804, 4312.410
809.085, 4014.507
810.367, 3857.723
811.649, 3414.315
812.930, 3222.865
814.211, 2993.373
815.492, 2718.836
816.772, 2340.256
818.053, 2246.632
819.333, 1814.963
820.613, 1627.249
821.893, 1353.490
823.173, 1035.686
824.452, 892.836
825.732, 815.939
827.011, 511.996
828.290, 362.007
829.568, 276.966
830.847, 120.867
832.125, 33.469
833.403, 40.770
834.681, 119.884
835.959, 152.510
837.236, 157.370
838.514, 180.798
839.791, 151.820
841.068, 188.542
842.345, 224.503
843.621, 93.519
844.898, 244.891
846.174, 277.901
847.450, 99.062
848.726, 236.920
850.001, 162.527
851.277, 268.793
852.552, 166.619
853.827, 119.168
855.102, 3.188
856.376, 36.739
857.651, 80.132
858.925, 251.641
860.199, 156.719
861.473, 280.736
862.746, 528.311
864.020, 724.847
865.293, 827.077
866.566, 913.816
867.839, 1026.257
869.112, 1156.662
870.384, 1234.042
871.656, 1363.396
872.928, 1257.726
874.200, 1458.036
875.472, 1326.321
876.744, 1300.594
878.015, 1421.850
879.286, 1244.103
880.557, 1228.340
881.828, 1267.549
883.098, 1195.779
884.369, 1069.997
885.639, 1159.208
886.909, 1161.419
888.178, 1022.616
889.448, 1008.776
890.717, 1177.898
891.987, 1098.027
893.256, 1141.138
894.524, 1213.251
895.793, 1271.350
897.061, 1256.457
898.330, 1303.564
899.598, 1390.658
900.865, 1562.726
902.133, 1586.758
903.401, 1770.750
904.668, 1876.704
905.935, 2133.619
907.202, 2244.493
908.468, 2428.327
909.735, 2601.120
911.001, 2888.873
912.267, 3013.586
913.533, 3210.255
914.799, 3404.882
916.064, 3473.466
917.330, 3560.618
918.595, 3624.505
919.860, 3538.958
921.124, 3611.369
922.389, 3445.735
923.653, 3326.059
924.918, 3071.340
926.182, 3004.576
927.445, 2746.771
928.709, 2534.922
929.972, 2374.029
931.236, 2286.094
932.499, 2141.115
933.761, 2139.094
935.024, 1867.031
936.286, 1782.925
937.549, 2020.775
938.811, 1846.585
940.073, 1928.351
941.334, 1940.074
942.596, 1790.757
943.857, 1973.397
945.118, 1833.996
946.379, 1834.552
947.640, 1860.067
948.900, 1842.581
950.161, 2129.973
951.421, 1978.363
952.681, 2053.712
953.940, 2261.020
955.200, 2182.289
956.459, 2150.515
957.719, 2422.700
958.978, 2151.846
960.236, 2213.950
961.495, 1970.015
962.753, 1959.039
964.012, 1602.023
965.270, 1443.969
966.527, 1425.874
967.785, 1119.738
969.043, 1207.563
970.300, 1036.351
971.557, 927.097
972.814, 815.806
974.071, 827.476
975.327, 760.105
976.583, 701.698
977.840, 773.252
979.095, 676.768
980.351, 629.789
981.607, 602.110
982.862, 577.004
984.117, 358.432
985.372, 732.197
986.627, 369.893
987.882, 490.440
989.136, 443.590
990.390, 255.201
991.644, 397.602
992.898, 323.635
994.152, 463.505
995.405, 441.687
996.659, 493.695
997.912, 517.710
999.165, 561.142
1000.417, 636.340
1001.670, 520.873
1002.922, 746.351
1004.174, 545.430
1005.426, 664.957
1006.678, 555.178
1007.930, 621.552
1009.181, 536.607
1010.432, 513.566
1011.683, 612.092
1012.934, 493.767
1014.185, 572.932
1015.435, 450.756
1016.685, 438.267
1017.935, 482.517
1019.185, 553.312
1020.435, 591.639
1021.684, 602.746
1022.934, 714.604
1024.183, 814.101
1025.432, 853.672
1026.680, 1109.027
1027.929, 1188.458
1029.177, 1330.302
1030.425, 1460.160
1031.673, 1588.540
1032.921, 1861.054
1034.169, 1951.949
1035.416, 2089.699
1036.663, 2401.498
1037.911, 2472.637
1039.157, 2578.729
1040.404, 2558.760
1041.650, 2610.000
1042.897, 2719.144
1044.143, 2601.237
1045.389, 2540.060
1046.634, 2607.217
1047.880, 2317.449
1049.125, 2223.526
1050.371, 2063.978
1051.615, 2239.877
1052.860, 1934.540
1054.105, 2017.062
1055.349, 1835.447
1056.593, 1663.697
1057.837, 1495.908
1059.081, 1467.928
1060.325, 1293.129
1061.568, 1421.170
1062.812, 1207.173
1064.055, 1180.268
1065.298, 1081.176
1066.540, 1144.067
1067.783, 1049.960
1069.025, 846.834
1070.267, 894.742
1071.509, 1020.532
1072.751, 820.357
1073.993, 811.166
1075.234, 730.958
1076.475, 780.734
1077.716, 737.494
1078.957, 668.238
1080.198, 659.967
1081.438, 754.680
1082.679, 760.376
1083.919, 769.059
1085.159, 587.726
1086.398, 743.378
1087.638, 686.014
1088.877, 772.636
1090.116, 783.243
1091.355, 784.837
1092.594, 894.416
1093.833, 899.980
1095.071, 865.530
1096.309, 1010.067
1097.547, 1126.589
1098.785, 1007.099
1100.023, 1221.594
1101.260, 1197.076
1102.498, 1350.546
1103.735, 1315.001
1104.972, 1598.444
1106.208, 1734.874
1107.445, 1592.291
1108.681, 1580.694
1109.918, 1755.087
1111.154, 1680.466
1112.389, 1756.833
1113.625, 1691.188
1114.860, 1587.531
1116.096, 1674.861
1117.331, 1752.180
1118.566, 1559.486
1119.800, 1665.782
1121.035, 1659.066
1122.269, 1404.339
1123.503, 1510.600
1124.737, 1605.849
1125.971, 1453.087
1127.205, 1301.315
1128.438, 1124.531
1129.671, 1158.740
1130.904, 1040.942
1132.137, 945.151
1133.370, 965.211
1134.602, 896.485
1135.834, 744.804
1137.066, 751.215
1138.298, 807.699
1139.530, 606.987
1140.762, 721.626
1141.993, 517.348
1143.224, 372.161
1144.455, 389.032
1145.686, 450.998
1146.917, 382.067
1148.147, 515.194
1149.377, 332.411
1150.607, 421.695
1151.837, 234.072
1153.067, 205.517
1154.296, 308.010
1155.526, 233.521
1156.755, 105.061
1157.984, 137.598
1159.213, 96.124
1160.441, 37.641
1161.670, 32.143
1162.898, 8.675
1164.126, 0.921
1165.354, 33.489
1166.581, 7.099
1167.809, 33.727
1169.036, 29.725
1170.263, 57.135
1171.490, 50.906
1172.717, 35.730
1173.943, 95.600
1175.170, 64.544
1176.396, 118.546
1177.622, 70.637
1178.848, 31.791
1180.073, 206.989
1181.299, 86.321
1182.524, 99.727
1183.749, 132.207
1184.974, 73.782
1186.199, 13.575
1187.423, 18.913
1188.648, 154.771
1189.872, 57.562
1191.096, 136.412
1192.320, 68.360
1193.543, 169.372
1194.767, 122.840
1195.990, 72.722
1197.213, 31.007
1198.436, 15.663
1199.659, 51.062
1200.881, 79.904
1202.104, 107.562
1203.326, 135.166
1204.548, 139.756
1205.770, 180.943
1206.991, 132.899
1208.213, 166.453
1209.434, 170.996
1210.655, 144.527
1211.876, 241.046
1213.096, 219.555
1214.317, 293.884
1215.537, 410.372
1216.757, 300.849
1217.977, 525.316
1219.197, 482.775
1220.417, 550.231
1221.636, 524.676
1222.855, 539.112
1224.074, 505.540
1225.293, 464.958
1226.512, 619.367
1227.731, 539.767
1228.949, 546.157
1230.167, 466.538
1231.385, 439.440
1232.603, 428.278
1233.820, 383.631
1235.038, 455.974
1236.255, 465.306
1237.472, 366.626
1238.689, 370.934
1239.906, 445.230
1241.122, 230.517
1242.338, 391.791
1243.555, 456.054
1244.771, 301.304
1245.986, 279.543
1247.202, 242.771
1248.417, 308.986
1249.633, 343.190
1250.848, 353.971
1252.063, 467.561
1253.277, 429.727
1254.492, 437.883
1255.706, 524.024
1256.920, 482.153
1258.134, 388.271
1259.348, 486.374
1260.562, 429.556
1261.775, 641.544
1262.988, 500.609
1264.201, 550.662
1265.414, 735.700
1266.627, 647.726
1267.839, 605.737
1269.052, 809.736
1270.264, 807.720
1271.476, 1003.690
1272.688, 844.647
1273.899, 1124.590
1275.111, 1025.520
1276.322, 1309.436
1277.533, 1396.339
1278.744, 1575.231
1279.955, 1585.111
1281.165, 1718.981
1282.376, 1775.840
1283.586, 1843.689
1284.796, 1902.528
1286.006, 1916.359
1287.215, 2008.180
1288.425, 1989.994
1289.634, 1789.800
1290.843, 1828.597
1292.052, 1649.385
1293.261, 1665.165
1294.469, 1655.935
1295.678, 1406.695
1296.886, 1519.414
1298.094, 1513.122
1299.302, 1116.820
1300.509, 1240.505
1301.717, 1153.181
1302.924, 1077.552
1304.131, 1089.043
1305.338, 1006.346
1306.545, 1074.389
1307.752, 904.395
1308.958, 1011.714
1310.164, 1152.325
1311.370, 883.174
1312.576, 1042.455
1313.782, 1068.179
1314.987, 1158.101
1316.193, 1132.250
1317.398, 1251.739
1318.603, 1295.132
1319.807, 1323.720
1321.012, 1210.209
1322.216, 1323.267
1323.421, 1279.289
1324.625, 1127.710
1325.829, 1310.099
1327.032, 1377.026
1328.236, 1297.001
1329.439, 1381.990
1330.642, 1174.621
1331.845, 1216.282
1333.048, 1258.985
1334.251, 1164.464
1335.453, 1133.135
1336.656, 867.618
1337.858, 939.471
1339.060, 728.971
1340.261, 590.384
1341.463, 533.938
1342.664, 519.107
1343.866, 398.813
1345.067, 263.746
1346.267, 226.810
1347.468, 182.003
1348.669, 30.329
1349.869, 63.126
1351.069, 209.326
1352.269, 60.766
1353.469, 121.239
1354.668, 117.746
1355.868, 65.156
1357.067, 192.748
1358.266, 94.645
1359.465, 224.960
1360.664, 182.712
1361.862, 77.367
1363.061, 248.317
1364.259, 113.160
1365.457, 115.853
1366.655, 266.611
1367.852, 162.348
1369.050, 94.110
1370.247, 224.890
1371.444, 141.562
1372.641, 104.317
1373.838, 158.967
1375.035, 110.800
1376.231, 181.256
1377.427, 173.745
1378.623, 285.945
1379.819, 286.118
1381.015, 153.265
1382.211, 226.384
1383.406, 298.474
1384.601, 249.535
1385.796, 430.568
1386.991, 300.570
1388.185, 365.544
1389.380, 259.489
1390.574, 395.404
1391.768, 360.287
1392.962, 423.142
1394.156, 236.964
1395.350, 468.757
1396.543, 462.517
1397.736, 372.245
1398.929, 546.940
1400.122, 497.604
1401.315, 622.235
1402.507, 702.831
1403.700, 606.393
1404.892, 661.922
1406.084, 645.414
1407.276, 706.871
1408.467, 744.289
1409.659, 521.671
1410.850, 566.015
1412.041, 740.321
1413.232, 459.595
1414.423, 570.841
1415.614, 468.078
1416.804, 541.331
1417.994, 425.612
1419.184, 413.959
1420.374, 364.385
1421.564, 363.940
1422.753, 255.615
1423.943, 348.509
1425.132, 116.572
1426.321, 304.766
1427.510, 59.035
1428.698, 167.503
1429.887, 133.192
1431.075, 250.132
1432.263, 127.177
1433.451, 214.242
1434.639, 228.323
1435.827, 270.411
1437.014, 105.505
1438.201, 361.605
1439.388, 218.930
1440.575, 330.934
1441.762, 98.934
1442.949, 161.911
1444.135, 104.882
1445.321, 206.846
1446.507, 306.805
1447.693, 235.758
1448.879, 351.701
1450.064, 261.664
1451.250, 299.643
1452.435, 198.640
1453.620, 419.660
1454.805, 279.705
1455.989, 191.780
1457.174, 492.890
1458.358, 233.038
1459.542, 287.230
1460.726, 346.472
1461.910, 246.770
1463.093, 299.129
1464.277, 176.558
1465.460, 82.064
1466.643, 271.658
1467.826, 167.347
1469.009, 232.136
1470.191, 37.971
1471.373, 87.022
1472.556, 86.104
1473.738, 120.268
1474.919, 149.959
1476.101, 93.780
1477.283, 133.105
1478.464, 106.478
1479.645, 40.007
1480.826, 90.714
1482.007, 12.503
1483.187, 38.974
1484.368, 80.365
1485.548, 109.459
1486.728, 20.674
1487.908, 135.018
1489.088, 13.502
1490.268, 14.848
1491.447, 114.931
1492.626, 1.107
1493.805, 4.029
1494.984, 98.989
1496.163, 96.213
1497.341, 204.603
1498.520, 136.168
1499.698, 51.926
1500.876, 206.875
1502.054, 19.026
1503.232, 50.387
1504.409, 0.077
1505.586, 15.398
1506.763, 68.132
1507.940, 64.368
1509.117, 98.611
1510.294, 157.776
1511.470, 121.715
1512.647, 128.661
1513.823, 68.635
1514.999, 231.878
1516.174, 46.709
1517.350, 0.007
1518.526, 0.000
##END=



