##NAMES=Kurnakovite
##RRUFFID=R050105
##IDEAL CHEMISTRY=MgB_3_O_3_(OH)_5_&#183;5H_2_O
##LOCALITY=Kramer deposit, Boron, Kern County, California, USA
##OWNER=RRUFF
##SOURCE=Rock Currier
##DESCRIPTION=Tabular single crystal
##STATUS=The identification of this mineral has been confirmed by X-ray diffraction and chemical analysis
##URL=rruff.info/R050105
##MEASURED CHEMISTRY=MgB_3_O_3_(OH)_5_Â·5H_2_O
##PIN_ID=L00453
##ORIENTATION=Laser parallel to c* (0 0 1). Fiducial mark perpendicular to laser is parallel to a [1 0 0]
105.212, 0.000
106.604, 28.665
107.995, 126.267
109.387, 457.654
110.777, 1013.262
112.168, 1967.477
113.559, 3324.573
114.949, 7077.843
116.339, 6496.805
117.729, 8157.788
119.119, 9445.549
120.508, 9750.275
121.897, 9636.578
123.286, 9184.617
124.675, 8486.117
126.063, 8132.100
127.452, 8616.262
128.840, 9055.885
130.228, 9686.995
131.615, 9464.779
133.003, 9220.151
134.390, 7634.289
135.777, 5817.560
137.164, 3721.482
138.550, 2572.683
139.937, 1489.871
141.323, 1281.617
142.709, 1065.322
144.094, 1326.499
145.480, 1746.337
146.865, 2289.195
148.250, 2643.387
149.635, 2890.152
151.019, 2793.466
152.403, 2538.062
153.788, 2575.124
155.171, 2529.969
156.555, 2493.934
157.939, 2651.795
159.322, 2954.746
160.705, 3666.959
162.088, 4342.582
163.470, 5107.749
164.853, 5713.584
166.235, 5882.188
167.617, 5442.658
168.998, 4787.075
170.380, 3884.509
171.761, 3099.023
173.142, 2378.680
174.523, 2117.528
175.904, 1601.996
177.284, 1271.017
178.664, 973.812
180.044, 579.014
181.424, 500.655
182.803, 438.695
184.183, 538.163
185.562, 903.349
186.940, 1297.045
188.319, 1738.709
189.698, 1983.625
191.076, 1920.862
192.454, 1742.179
193.831, 1495.759
195.209, 1078.630
196.586, 778.805
197.963, 463.288
199.340, 406.070
200.717, 291.740
202.093, 408.935
203.470, 409.824
204.846, 534.261
206.221, 822.816
207.597, 1226.230
208.972, 1500.970
210.347, 1853.016
211.722, 2147.349
213.097, 2616.950
214.472, 2753.806
215.846, 2975.897
217.220, 2817.213
218.594, 2614.738
219.967, 2334.464
221.341, 2207.379
222.714, 2437.474
224.087, 2589.736
225.460, 3280.153
226.832, 3866.718
228.204, 4714.408
229.577, 5180.178
230.948, 5689.997
232.320, 5468.859
233.692, 5086.764
235.063, 4332.716
236.434, 3298.700
237.805, 2454.703
239.175, 1711.723
240.545, 1078.572
241.916, 677.823
243.286, 227.906
244.655, 55.014
246.025, 2.148
247.394, 2.690
248.763, 43.501
250.132, 217.723
251.501, 396.978
252.869, 460.265
254.237, 652.587
255.605, 735.946
256.973, 566.342
258.340, 337.689
259.708, 3.060
261.075, 289.788
262.442, 549.330
263.808, 660.605
265.175, 870.554
266.541, 901.654
267.907, 835.461
269.273, 839.235
270.639, 644.073
272.004, 612.388
273.369, 253.087
274.734, 43.267
276.099, 271.766
277.463, 488.800
278.828, 1025.651
280.192, 1398.182
281.556, 1584.279
282.919, 1904.854
284.283, 1893.829
285.646, 1719.142
287.009, 1377.743
288.372, 927.589
289.734, 611.645
291.097, 161.874
292.459, 157.767
293.821, 209.378
295.183, 407.998
296.544, 353.701
297.905, 324.490
299.266, 308.372
300.627, 207.354
301.988, 68.418
303.348, 125.462
304.709, 215.325
306.069, 419.168
307.428, 542.988
308.788, 669.785
310.147, 613.518
311.507, 777.128
312.865, 864.590
314.224, 963.915
315.583, 1286.113
316.941, 1559.193
318.299, 1974.143
319.657, 2411.953
321.015, 2823.634
322.372, 3134.193
323.729, 3362.640
325.086, 3504.980
326.443, 3554.226
327.800, 3499.379
329.156, 3503.447
330.512, 3061.438
331.868, 2832.354
333.224, 2696.200
334.579, 2553.982
335.935, 2249.703
337.290, 2585.370
338.645, 2600.980
339.999, 2794.409
341.354, 3214.660
342.708, 3523.870
344.062, 3757.046
345.416, 4157.189
346.769, 4368.234
348.123, 4492.685
349.476, 4583.194
350.829, 5028.690
352.182, 5416.343
353.534, 5801.497
354.887, 6089.619
356.239, 6144.788
357.591, 6069.006
358.942, 5635.265
360.294, 5197.568
361.645, 4546.918
362.996, 3980.169
364.347, 3782.072
365.698, 3495.609
367.048, 3546.854
368.398, 3388.040
369.748, 3608.279
371.098, 3892.576
372.448, 4115.930
373.797, 4385.342
375.146, 4493.807
376.495, 4702.330
377.844, 5055.909
379.192, 4998.541
380.540, 5140.229
381.889, 4834.971
383.236, 4694.768
384.584, 4622.617
385.932, 4166.523
387.279, 3975.482
388.626, 4012.497
389.973, 4125.564
391.319, 4166.687
392.666, 4723.861
394.012, 4959.093
395.358, 5566.378
396.704, 6200.717
398.049, 6695.111
399.394, 7312.562
400.740, 7251.066
402.084, 7535.629
403.429, 7472.244
404.774, 7274.918
406.118, 7680.648
407.462, 7572.566
408.806, 7838.773
410.150, 8606.838
411.493, 9646.607
412.836, 11089.624
414.179, 12597.035
415.522, 13987.876
416.865, 16235.365
418.207, 17009.359
419.549, 17245.154
420.891, 16817.035
422.233, 15524.640
423.575, 13586.600
424.916, 11070.692
426.257, 9381.479
427.598, 7637.339
428.939, 6012.395
430.279, 5126.774
431.619, 3871.124
432.959, 3034.865
434.299, 2528.799
435.639, 2296.820
436.978, 1725.162
438.318, 1595.351
439.657, 1297.590
440.996, 1385.877
442.334, 1288.207
443.673, 1416.578
445.011, 1372.987
446.349, 1852.436
447.687, 1953.920
449.024, 2375.438
450.361, 2877.992
451.699, 3545.579
453.036, 4367.677
454.372, 5539.233
455.709, 7251.648
457.045, 9110.046
458.381, 12130.720
459.717, 15154.045
461.053, 19777.211
462.388, 24330.189
463.724, 29929.217
465.059, 35245.863
466.394, 38666.555
467.728, 40361.582
469.063, 40853.656
470.397, 38183.766
471.731, 34315.922
473.065, 29842.115
474.398, 24381.361
475.732, 20694.650
477.065, 16467.984
478.398, 13640.364
479.731, 11114.791
481.063, 9192.269
482.396, 7421.797
483.728, 6108.372
485.060, 5225.001
486.391, 4099.680
487.723, 3470.412
489.054, 2745.197
490.385, 2402.037
491.716, 2013.931
493.047, 1771.880
494.377, 1521.883
495.708, 1388.941
497.038, 1243.058
498.368, 1266.231
499.697, 1176.462
501.027, 1209.752
502.356, 1268.102
503.685, 1214.512
505.014, 1189.982
506.342, 1123.514
507.671, 1255.107
508.999, 1133.766
510.327, 1414.493
511.655, 1264.294
512.982, 1278.173
514.310, 1500.135
515.637, 1377.181
516.964, 1440.317
518.291, 1297.570
519.617, 1527.934
520.944, 1557.463
522.270, 1289.115
523.596, 1564.916
524.921, 1495.837
526.247, 1447.930
527.572, 1575.223
528.897, 1488.736
530.222, 1633.396
531.547, 1670.233
532.871, 1795.275
534.196, 1508.471
535.520, 1608.871
536.844, 1746.450
538.167, 1680.197
539.491, 1838.146
540.814, 1683.271
542.137, 1818.587
543.460, 1837.104
544.783, 1926.771
546.105, 1938.602
547.427, 2305.585
548.749, 2878.703
550.071, 2752.933
551.393, 3179.268
552.714, 3557.718
554.035, 3767.276
555.356, 4233.930
556.677, 4307.690
557.998, 4311.541
559.318, 4281.482
560.638, 3813.510
561.958, 3311.623
563.278, 2729.819
564.597, 2197.342
565.917, 1904.468
567.236, 1093.938
568.555, 635.527
569.874, 203.231
571.192, 125.041
572.511, 17.068
573.829, 306.104
575.147, 345.144
576.464, 332.200
577.782, 486.269
579.099, 487.408
580.416, 547.619
581.733, 370.894
583.050, 246.092
584.366, 203.104
585.683, 74.111
586.999, 80.657
588.315, 312.543
589.630, 670.748
590.946, 640.273
592.261, 862.067
593.576, 730.122
594.891, 510.342
596.206, 601.674
597.520, 673.081
598.834, 707.562
600.148, 463.115
601.462, 652.739
602.776, 927.438
604.089, 874.208
605.402, 1162.051
606.715, 1481.964
608.028, 1903.949
609.341, 2101.006
610.653, 2578.133
611.965, 3236.336
613.277, 3752.684
614.589, 4580.189
615.901, 5474.904
617.212, 6876.816
618.523, 7981.916
619.834, 9747.199
621.145, 11600.642
622.456, 13813.210
623.766, 15884.861
625.076, 18780.584
626.386, 20916.367
627.696, 23280.225
629.006, 23924.152
630.315, 25908.137
631.624, 24708.189
632.933, 24320.312
634.242, 23513.494
635.551, 21000.740
636.859, 19422.053
638.167, 16997.434
639.475, 15838.873
640.783, 13597.376
642.090, 12339.944
643.398, 10939.572
644.705, 9754.261
646.012, 8426.014
647.318, 7361.826
648.625, 6849.700
649.931, 5882.633
651.237, 5248.625
652.543, 4751.678
653.849, 4077.787
655.155, 3861.957
656.460, 3449.184
657.765, 3236.467
659.070, 2903.307
660.375, 2452.205
661.679, 2309.657
662.984, 1969.164
664.288, 1746.728
665.592, 1627.345
666.895, 1398.016
668.199, 1158.740
669.502, 1182.517
670.805, 916.226
672.108, 918.551
673.411, 734.527
674.713, 674.166
676.016, 752.229
677.318, 566.445
678.620, 569.739
679.921, 337.120
681.223, 273.726
682.524, 321.896
683.825, 205.738
685.126, 291.439
686.427, 349.047
687.727, 197.359
689.028, 248.939
690.328, 238.831
691.628, 88.941
692.927, 215.845
694.227, 216.764
695.526, 78.941
696.825, 513.896
698.124, 351.225
699.423, 578.943
700.721, 570.689
702.020, 633.031
703.318, 760.015
704.616, 682.388
705.913, 734.904
707.211, 905.466
708.508, 1370.769
709.805, 1192.046
711.102, 1082.263
712.399, 1635.155
713.695, 1538.186
714.992, 2061.668
716.288, 2052.291
717.584, 2527.674
718.879, 2771.599
720.175, 3033.539
721.470, 3914.454
722.765, 4223.260
724.060, 5001.389
725.355, 5743.088
726.649, 6542.016
727.944, 7415.703
729.238, 8906.054
730.532, 9544.021
731.825, 11644.396
733.119, 12660.312
734.412, 13427.486
735.705, 14172.617
736.998, 14794.968
738.291, 14751.307
739.584, 14476.571
740.876, 13665.308
742.168, 12821.922
743.460, 11570.528
744.752, 10546.119
746.043, 9555.700
747.334, 8925.266
748.626, 7808.816
749.916, 6926.349
751.207, 6585.865
752.498, 5912.360
753.788, 5717.837
755.078, 5171.296
756.368, 4923.730
757.658, 4514.145
758.947, 4118.539
760.237, 4028.910
761.526, 3565.259
762.815, 3543.584
764.104, 3065.885
765.392, 2970.163
766.680, 2538.416
767.969, 2340.643
769.257, 2410.844
770.544, 2049.017
771.832, 1801.161
773.119, 1659.276
774.406, 1570.360
775.693, 1447.323
776.980, 1376.952
778.267, 1316.417
779.553, 1240.367
780.839, 1175.284
782.125, 1084.163
783.411, 1060.016
784.697, 1000.812
785.982, 1071.579
787.267, 1097.310
788.552, 1239.000
789.837, 1079.652
791.122, 1399.264
792.406, 1209.835
793.690, 1432.365
794.974, 1469.854
796.258, 1488.301
797.542, 1653.705
798.825, 1417.065
800.108, 1697.381
801.391, 1444.653
802.674, 1516.881
803.957, 1555.062
805.239, 1450.198
806.522, 1520.288
807.804, 1434.039
809.085, 1487.324
810.367, 1330.271
811.649, 1117.166
812.930, 1117.016
814.211, 1085.812
815.492, 981.560
816.772, 929.256
818.053, 786.901
819.333, 719.494
820.613, 423.033
821.893, 504.521
823.173, 526.953
824.452, 230.332
825.732, 300.647
827.011, 149.902
828.290, 2.919
829.568, 26.131
830.847, 181.937
832.125, 21.230
833.403, 115.668
834.681, 10.698
835.959, 187.063
837.236, 291.061
838.514, 350.349
839.791, 75.961
841.068, 196.753
842.345, 294.789
843.621, 100.124
844.898, 290.653
846.174, 199.481
847.450, 150.560
848.726, 280.862
850.001, 196.459
851.277, 233.307
852.552, 270.425
853.827, 94.834
855.102, 135.442
856.376, 97.271
857.651, 23.304
858.925, 69.504
860.199, 100.191
861.473, 50.771
862.746, 79.222
864.020, 213.557
865.293, 92.802
866.566, 317.934
867.839, 273.986
869.112, 370.957
870.384, 415.854
871.656, 527.677
872.928, 338.433
874.200, 534.109
875.472, 561.718
876.744, 486.260
878.015, 707.729
879.286, 537.137
880.557, 723.476
881.828, 759.748
883.098, 756.983
884.369, 799.195
885.639, 803.391
886.909, 733.575
888.178, 894.770
889.448, 953.974
890.717, 1190.229
891.987, 1014.488
893.256, 1133.723
894.524, 1253.941
895.793, 1278.101
897.061, 1564.227
898.330, 1569.319
899.598, 1670.375
900.865, 1914.400
902.133, 2204.387
903.401, 2206.312
904.668, 2638.180
905.935, 2868.980
907.202, 3028.736
908.468, 3391.427
909.735, 3770.119
911.001, 4079.254
912.267, 4390.854
913.533, 4702.817
914.799, 5021.305
916.064, 5053.744
917.330, 5487.140
918.595, 5247.467
919.860, 5157.727
921.124, 5319.922
922.389, 5028.050
923.653, 4933.109
924.918, 4676.104
926.182, 4393.029
927.445, 4137.885
928.709, 3795.675
929.972, 3551.405
931.236, 3376.066
932.499, 3139.660
933.761, 3116.185
935.024, 2789.658
936.286, 2645.061
937.549, 2820.396
938.811, 2447.664
940.073, 2608.873
941.334, 2601.014
942.596, 2572.086
943.857, 2591.092
945.118, 2565.779
946.379, 2537.933
947.640, 2513.709
948.900, 2495.445
950.161, 2418.125
951.421, 2448.737
952.681, 2419.324
953.940, 2549.843
955.200, 2410.296
956.459, 2330.683
957.719, 2574.002
958.978, 2372.252
960.236, 2390.436
961.495, 2185.555
962.753, 2272.604
964.012, 2092.587
965.270, 1988.503
966.527, 1967.353
967.785, 1793.136
969.043, 1773.851
970.300, 1809.501
971.557, 1655.434
972.814, 1728.601
974.071, 1480.052
975.327, 1581.438
976.583, 1558.878
977.840, 1582.686
979.095, 1625.829
980.351, 1438.296
981.607, 1430.323
982.862, 1478.180
984.117, 1363.942
985.372, 1750.602
986.627, 1416.018
987.882, 1653.854
989.136, 1832.997
990.390, 1687.265
991.644, 1896.607
992.898, 1994.226
994.152, 1943.554
995.405, 2200.973
996.659, 2382.311
997.912, 2621.255
999.165, 2844.161
1000.417, 2979.786
1001.670, 3089.054
1002.922, 3135.358
1004.174, 3096.054
1005.426, 3084.535
1006.678, 2985.361
1007.930, 2849.038
1009.181, 2629.299
1010.432, 2403.393
1011.683, 2223.413
1012.934, 2076.666
1014.185, 1935.917
1015.435, 1586.201
1016.685, 1396.780
1017.935, 1138.195
1019.185, 1279.128
1020.435, 1082.890
1021.684, 970.863
1022.934, 1028.266
1024.183, 931.619
1025.432, 800.968
1026.680, 974.559
1027.929, 791.630
1029.177, 838.986
1030.425, 809.197
1031.673, 924.793
1032.921, 864.355
1034.169, 789.134
1035.416, 915.970
1036.663, 1034.521
1037.911, 859.460
1039.157, 981.177
1040.404, 1031.449
1041.650, 1049.281
1042.897, 1176.451
1044.143, 1002.750
1045.389, 1028.717
1046.634, 1217.616
1047.880, 1116.422
1049.125, 1052.611
1050.371, 1019.145
1051.615, 1230.322
1052.860, 962.011
1054.105, 1170.772
1055.349, 1008.114
1056.593, 955.424
1057.837, 925.776
1059.081, 990.960
1060.325, 890.167
1061.568, 843.217
1062.812, 769.996
1064.055, 673.652
1065.298, 652.963
1066.540, 558.786
1067.783, 592.781
1069.025, 630.873
1070.267, 694.992
1071.509, 671.498
1072.751, 476.950
1073.993, 621.898
1075.234, 455.281
1076.475, 399.145
1077.716, 482.685
1078.957, 458.987
1080.198, 399.259
1081.438, 570.592
1082.679, 389.068
1083.919, 414.632
1085.159, 299.794
1086.398, 433.045
1087.638, 386.654
1088.877, 478.465
1090.116, 359.521
1091.355, 389.010
1092.594, 301.551
1093.833, 278.532
1095.071, 333.173
1096.309, 294.319
1097.547, 329.387
1098.785, 371.964
1100.023, 420.320
1101.260, 562.896
1102.498, 703.703
1103.735, 547.740
1104.972, 674.975
1106.208, 603.712
1107.445, 695.507
1108.681, 767.198
1109.918, 962.866
1111.154, 821.513
1112.389, 1034.157
1113.625, 909.823
1114.860, 806.449
1116.096, 900.008
1117.331, 1020.546
1118.566, 978.063
1119.800, 1073.561
1121.035, 1007.038
1122.269, 1032.494
1123.503, 1179.932
1124.737, 1239.349
1125.971, 1145.752
1127.205, 1136.139
1128.438, 956.515
1129.671, 970.912
1130.904, 836.319
1132.137, 971.793
1133.370, 1050.292
1134.602, 860.842
1135.834, 883.411
1137.066, 859.051
1138.298, 1038.787
1139.530, 873.641
1140.762, 1199.537
1141.993, 957.509
1143.224, 1111.582
1144.455, 1432.708
1145.686, 1285.705
1146.917, 1238.240
1148.147, 1276.612
1149.377, 1368.084
1150.607, 1313.635
1151.837, 1275.274
1153.067, 1139.014
1154.296, 1108.034
1155.526, 1182.659
1156.755, 1020.568
1157.984, 1031.513
1159.213, 1067.470
1160.441, 1012.435
1161.670, 731.417
1162.898, 906.412
1164.126, 532.404
1165.354, 671.406
1166.581, 540.402
1167.809, 556.392
1169.036, 294.373
1170.263, 463.345
1171.490, 358.304
1172.717, 344.256
1173.943, 163.195
1175.170, 238.122
1176.396, 7.038
1177.622, 297.933
1178.848, 157.815
1180.073, 92.314
1181.299, 100.485
1182.524, 80.271
1183.749, 28.961
1184.974, 41.771
1186.199, 87.488
1187.423, 104.812
1188.648, 66.187
1189.872, 23.616
1191.096, 90.077
1192.320, 20.605
1193.543, 116.164
1194.767, 114.974
1195.990, 105.523
1197.213, 127.317
1198.436, 90.196
1199.659, 18.143
1200.881, 20.118
1202.104, 79.877
1203.326, 78.141
1204.548, 61.781
1205.770, 252.312
1206.991, 16.446
1208.213, 43.189
1209.434, 63.083
1210.655, 150.406
1211.876, 65.824
1213.096, 74.562
1214.317, 83.182
1215.537, 51.646
1216.757, 37.111
1217.977, 58.567
1219.197, 59.024
1220.417, 54.471
1221.636, 195.907
1222.855, 59.338
1224.074, 128.759
1225.293, 23.827
1226.512, 181.562
1227.731, 155.944
1228.949, 114.319
1230.167, 46.314
1231.385, 191.014
1232.603, 146.334
1233.820, 53.646
1235.038, 19.054
1236.255, 189.222
1237.472, 61.487
1238.689, 41.743
1239.906, 302.984
1241.122, 7.210
1242.338, 115.379
1243.555, 202.537
1244.771, 22.313
1245.986, 45.819
1247.202, 149.058
1248.417, 288.015
1249.633, 102.081
1250.848, 48.139
1252.063, 295.187
1253.277, 140.227
1254.492, 285.260
1255.706, 250.285
1256.920, 301.305
1258.134, 151.317
1259.348, 140.321
1260.562, 143.839
1261.775, 353.309
1262.988, 189.291
1264.201, 238.266
1265.414, 330.234
1266.627, 200.195
1267.839, 326.149
1269.052, 327.096
1270.264, 453.034
1271.476, 493.966
1272.688, 366.891
1273.899, 568.808
1275.111, 473.717
1276.322, 536.619
1277.533, 473.512
1278.744, 686.397
1279.955, 513.272
1281.165, 770.141
1282.376, 734.999
1283.586, 828.850
1284.796, 806.688
1286.006, 673.520
1287.215, 898.339
1288.425, 733.150
1289.634, 758.953
1290.843, 870.746
1292.052, 757.532
1293.261, 950.309
1294.469, 858.076
1295.678, 723.838
1296.886, 854.590
1298.094, 848.336
1299.302, 821.613
1300.509, 886.804
1301.717, 829.524
1302.924, 905.237
1304.131, 971.941
1305.338, 926.636
1306.545, 903.321
1307.752, 885.999
1308.958, 951.667
1310.164, 999.696
1311.370, 1165.979
1312.576, 1262.624
1313.782, 1213.262
1314.987, 1514.893
1316.193, 1327.516
1317.398, 1662.134
1318.603, 1536.746
1319.807, 1795.188
1321.012, 1897.788
1322.216, 2151.496
1323.421, 2231.085
1324.625, 2456.687
1325.829, 2538.893
1327.032, 2867.049
1328.236, 2935.118
1329.439, 3131.439
1330.642, 3025.348
1331.845, 3127.445
1333.048, 3431.961
1334.251, 3360.888
1335.453, 3173.450
1336.656, 3208.855
1337.858, 2910.568
1339.060, 2804.321
1340.261, 2650.145
1341.463, 2444.560
1342.664, 2279.607
1343.866, 1911.989
1345.067, 1668.839
1346.267, 1591.594
1347.468, 1324.750
1348.669, 1183.921
1349.869, 1246.031
1351.069, 1043.295
1352.269, 1003.227
1353.469, 974.314
1354.668, 840.510
1355.868, 830.250
1357.067, 724.326
1358.266, 660.191
1359.465, 563.258
1360.664, 602.010
1361.862, 484.641
1363.061, 581.928
1364.259, 409.365
1365.457, 648.793
1366.655, 592.068
1367.852, 419.602
1369.050, 455.469
1370.247, 488.594
1371.444, 447.506
1372.641, 462.109
1373.838, 548.477
1375.035, 552.646
1376.231, 612.146
1377.427, 556.377
1378.623, 612.455
1379.819, 623.574
1381.015, 612.629
1382.211, 694.576
1383.406, 571.119
1384.601, 653.643
1385.796, 647.363
1386.991, 706.395
1388.185, 688.164
1389.380, 648.330
1390.574, 656.559
1391.768, 661.676
1392.962, 601.814
1394.156, 502.980
1395.350, 599.125
1396.543, 520.787
1397.736, 419.350
1398.929, 483.428
1400.122, 509.484
1401.315, 485.518
1402.507, 521.529
1403.700, 303.516
1404.892, 523.477
1406.084, 440.418
1407.276, 325.332
1408.467, 505.221
1409.659, 259.084
1410.850, 446.922
1412.041, 539.734
1413.232, 316.520
1414.423, 410.277
1415.614, 333.008
1416.804, 366.711
1417.994, 413.383
1419.184, 363.027
1420.374, 276.641
1421.564, 567.225
1422.753, 293.783
1423.943, 436.314
1425.132, 235.900
1426.321, 416.480
1427.510, 221.055
1428.698, 173.732
1429.887, 261.484
1431.075, 295.336
1432.263, 292.373
1433.451, 159.605
1434.639, 230.578
1435.827, 322.258
1437.014, 245.758
1438.201, 442.377
1439.388, 412.133
1440.575, 473.074
1441.762, 438.035
1442.949, 465.951
1444.135, 436.846
1445.321, 455.133
1446.507, 475.705
1447.693, 490.523
1448.879, 509.457
1450.064, 530.424
1451.250, 510.430
1452.435, 398.471
1453.620, 693.566
1454.805, 626.896
1455.989, 580.266
1457.174, 939.670
1458.358, 497.107
1459.542, 634.586
1460.726, 729.107
1461.910, 460.676
1463.093, 811.295
1464.277, 397.971
1465.460, 404.709
1466.643, 550.516
1467.826, 462.400
1469.009, 445.367
1470.191, 393.426
1471.373, 500.586
1472.556, 441.859
1473.738, 431.254
1474.919, 254.779
1476.101, 426.438
1477.283, 509.227
1478.464, 296.143
1479.645, 319.182
1480.826, 434.338
1482.007, 225.607
1483.187, 424.996
1484.368, 297.521
1485.548, 467.191
1486.728, 360.018
1487.908, 293.012
1489.088, 271.172
1490.268, 234.809
1491.447, 203.031
1492.626, 274.758
1493.805, 289.703
1494.984, 406.885
1496.163, 246.314
1497.341, 213.014
1498.520, 294.994
1499.698, 268.268
1500.876, 337.855
1502.054, 42.221
1503.232, 22.072
1504.409, 26.234
1505.586, 91.896
1506.763, 188.504
1507.940, 61.637
1509.117, 171.348
1510.294, 273.697
1511.470, 267.758
1512.647, 279.990
1513.823, 72.262
1514.999, 207.232
1516.174, 125.893
1517.350, 8.227
1518.526, 105.662
1519.701, 11.957
1520.876, 0.000
##END=



