##NAMES=Kutnohorite
##RRUFFID=R060473
##IDEAL CHEMISTRY=CaMn^2+^(CO_3_)_2_
##LOCALITY=N'Chwaning II mine, Kalahari manganese field, northern Cape Province, Republic of South Africa
##OWNER=RRUFF
##SOURCE=Michael Scott
##DESCRIPTION=Aggregate of parallel pink colored acicular crystals
##STATUS=The identification of this mineral has been confirmed by X-ray diffraction and chemical analysis
##URL=rruff.info/R060473
##MEASURED CHEMISTRY=Ca_1.00_(Mn^2+^_0.63_Ca_0.35_Mg_0.02_)(CO_3_)_2_
##PIN_ID=L00843
##ORIENTATION=Laser parallel to c* (0 0 1). Fiducial mark perpendicular to laser is parallel to -a [-1 0 0]
102.2900, 0.0000000E+00
103.5200, 546.0117
104.7500, 806.6660
105.9810, 1582.756
107.2110, 2299.209
108.4410, 2812.816
109.6700, 2176.381
110.9000, 1363.150
112.1300, 1309.436
113.3590, 942.4863
114.5880, 1113.887
115.8170, 1546.125
117.0460, 1123.221
118.2750, 803.9473
119.5040, 839.0742
120.7320, 702.2891
121.9610, 467.6465
123.1890, 193.1895
124.4170, 1.712891
125.6450, 80.57422
126.8730, 236.3320
128.1010, 238.4629
129.3280, 337.1309
130.5560, 363.0176
131.7830, 338.8711
133.0100, 109.6328
134.2380, 543.7070
135.4640, 482.8184
136.6910, 80.57031
137.9180, 420.5547
139.1440, 1022.835
140.3710, 951.1895
141.5970, 708.6953
142.8230, 571.5322
144.0490, 673.5459
145.2750, 1020.283
146.5000, 1385.497
147.7260, 1546.146
148.9510, 1899.611
150.1770, 2405.301
151.4020, 2485.012
152.6270, 2774.027
153.8520, 3123.063
155.0760, 3652.744
156.3010, 3738.518
157.5250, 3853.353
158.7500, 3812.335
159.9740, 3660.346
161.1980, 3764.461
162.4220, 3461.031
163.6450, 3206.219
164.8690, 3404.891
166.0920, 3419.812
167.3160, 3373.789
168.5390, 3409.848
169.7620, 3225.864
170.9850, 3082.113
172.2080, 2556.017
173.4300, 2237.993
174.6530, 2486.307
175.8750, 2436.441
177.0970, 2190.300
178.3190, 1806.397
179.5410, 2050.700
180.7630, 1717.153
181.9850, 1547.719
183.2060, 1155.318
184.4270, 1080.919
185.6490, 943.4922
186.8700, 881.9717
188.0910, 760.1006
189.3110, 891.0225
190.5320, 276.8555
191.7530, 229.4482
192.9730, 336.3242
194.1930, 382.7490
195.4130, 371.9990
196.6330, 133.1094
197.8530, 188.5020
199.0730, 125.7725
200.2920, 58.11328
201.5120, 154.4951
202.7310, 51.90625
203.9500, 41.58301
205.1690, 15.08203
206.3880, 3.225586
207.6070, 408.8594
208.8250, 464.1777
210.0440, 54.26465
211.2620, 53.64648
212.4800, 50.81445
213.6980, 3.369141
214.9160, 64.79590
216.1340, 456.3818
217.3510, 123.6416
218.5690, 78.66309
219.7860, 201.0361
221.0030, 222.3027
222.2200, 0.8652340
223.4370, 56.92676
224.6540, 136.4170
225.8700, 53.35254
227.0870, 26.01660
228.3030, 79.62793
229.5190, 213.2695
230.7350, 168.6094
231.9510, 221.7637
233.1670, 108.8486
234.3820, 190.1709
235.5980, 514.5762
236.8130, 718.9502
238.0280, 530.9648
239.2430, 402.7832
240.4580, 371.3604
241.6730, 799.6045
242.8880, 462.3525
244.1020, 239.5049
245.3160, 438.9492
246.5300, 648.2227
247.7450, 747.6074
248.9580, 1104.808
250.1720, 894.4795
251.3860, 886.8223
252.5990, 1146.401
253.8130, 1479.797
255.0260, 1302.853
256.2390, 1513.225
257.4520, 1657.908
258.6640, 2069.379
259.8770, 2194.023
261.0890, 2323.149
262.3020, 2738.566
263.5140, 3223.949
264.7260, 3324.407
265.9380, 3789.393
267.1500, 4448.787
268.3610, 5042.114
269.5730, 5727.857
270.7840, 6112.248
271.9950, 6413.724
273.2060, 6997.932
274.4170, 7902.684
275.6280, 8551.778
276.8390, 9113.179
278.0490, 9729.562
279.2590, 10728.92
280.4690, 10984.06
281.6800, 11325.13
282.8890, 11244.34
284.0990, 11242.22
285.3090, 11021.22
286.5180, 10517.40
287.7280, 10239.68
288.9370, 9833.714
290.1460, 9154.765
291.3550, 8207.715
292.5630, 7652.791
293.7720, 6863.332
294.9800, 6121.179
296.1890, 5386.961
297.3970, 4816.643
298.6050, 4448.449
299.8130, 4019.428
301.0200, 3651.817
302.2280, 3093.559
303.4360, 2647.930
304.6430, 2434.226
305.8500, 2264.154
307.0570, 1950.038
308.2640, 1792.814
309.4710, 1498.253
310.6770, 1524.853
311.8840, 1226.507
313.0900, 1109.428
314.2960, 967.6074
315.5020, 827.1240
316.7080, 888.8232
317.9140, 703.1152
319.1190, 722.1094
320.3250, 494.4053
321.5300, 475.3701
322.7350, 552.4966
323.9400, 588.8516
325.1450, 431.0151
326.3500, 593.1904
327.5540, 392.2637
328.7580, 341.0571
329.9630, 246.2842
331.1670, 326.4771
332.3710, 459.4263
333.5750, 468.6587
334.7780, 222.3726
335.9820, 204.8379
337.1850, 406.8276
338.3880, 411.2222
339.5920, 312.8950
340.7950, 319.1470
341.9970, 469.4004
343.2000, 271.5166
344.4030, 236.8926
345.6050, 289.8403
346.8070, 259.3604
348.0090, 245.1660
349.2110, 190.9141
350.4130, 100.0986
351.6150, 161.8809
352.8160, 117.2397
354.0170, 106.6733
355.2190, 304.0464
356.4200, 97.10840
357.6210, 50.27588
358.8210, 169.2344
360.0220, 19.81201
361.2220, 1.657227
362.4230, 80.42041
363.6230, 39.50537
364.8230, 151.3408
366.0230, 39.04346
367.2230, 12.77295
368.4220, 102.0889
369.6220, 213.4570
370.8210, 72.13086
372.0200, 95.40088
373.2190, 101.5591
374.4180, 112.4409
375.6170, 5.411621
376.8150, 4.224121
378.0140, 10.15869
379.2120, 119.2734
380.4100, 22.88574
381.6080, 111.1025
382.8060, 29.33838
384.0040, 33.49219
385.2010, 30.30420
386.3980, 28.14795
387.5960, 99.19434
388.7930, 26.82031
389.9900, 33.62793
391.1870, 46.31787
392.3830, 8.884766
393.5800, 33.20752
394.7760, 90.36035
395.9720, 86.93457
397.1680, 50.18457
398.3640, 154.3989
399.5600, 14.85107
400.7560, 192.2979
401.9510, 124.4419
403.1460, 4.764648
404.3420, 97.61475
405.5370, 192.5757
406.7320, 130.0898
407.9260, 273.2305
409.1210, 302.0566
410.3150, 378.5493
411.5100, 335.8389
412.7040, 390.9258
413.8980, 464.0483
415.0920, 366.8628
416.2850, 201.5483
417.4790, 395.1855
418.6720, 334.4146
419.8650, 447.6250
421.0590, 344.4639
422.2510, 428.1084
423.4440, 428.5674
424.6370, 547.8340
425.8290, 352.9766
427.0220, 364.8735
428.2140, 419.5806
429.4060, 309.1470
430.5980, 457.6138
431.7900, 413.1816
432.9810, 388.1455
434.1730, 344.9346
435.3640, 481.6597
436.5550, 290.4990
437.7460, 383.0674
438.9370, 314.1772
440.1280, 250.5083
441.3190, 119.5718
442.5090, 224.8101
443.6990, 285.9170
444.8890, 369.5610
446.0790, 362.4678
447.2690, 297.0791
448.4590, 320.8462
449.6480, 440.5293
450.8380, 392.7476
452.0270, 405.1162
453.2160, 293.0010
454.4050, 413.7568
455.5940, 529.3672
456.7820, 382.5239
457.9710, 252.8101
459.1590, 396.5889
460.3470, 444.2510
461.5350, 459.8032
462.7230, 336.3979
463.9110, 369.9370
465.0990, 523.2388
466.2860, 424.8999
467.4730, 426.5195
468.6600, 378.3159
469.8470, 359.2285
471.0340, 380.2715
472.2210, 469.1108
473.4070, 382.2100
474.5940, 331.7041
475.7800, 334.5630
476.9660, 304.5073
478.1520, 307.9009
479.3380, 279.7734
480.5230, 352.0928
481.7090, 333.1641
482.8940, 366.7188
484.0790, 247.9038
485.2650, 402.5703
486.4490, 344.1792
487.6340, 335.0796
488.8190, 307.8701
490.0030, 393.5122
491.1870, 150.9233
492.3720, 296.9136
493.5550, 320.7881
494.7390, 374.3730
495.9230, 363.2349
497.1060, 323.2153
498.2900, 348.3721
499.4730, 439.9707
500.6560, 298.5786
501.8390, 375.7690
503.0220, 416.7900
504.2040, 424.5474
505.3870, 298.8262
506.5690, 345.7563
507.7510, 327.4644
508.9330, 305.2178
510.1150, 373.1499
511.2970, 273.0977
512.4780, 305.5308
513.6600, 348.9546
514.8410, 412.7144
516.0220, 425.3281
517.2030, 378.7598
518.3840, 433.1587
519.5650, 467.5298
520.7450, 388.6294
521.9250, 371.7378
523.1060, 431.0034
524.2860, 698.7295
525.4660, 391.7754
526.6450, 299.7212
527.8250, 360.7383
529.0040, 387.4092
530.1840, 375.2520
531.3630, 281.7080
532.5420, 337.1758
533.7200, 423.3867
534.8990, 365.4683
536.0780, 287.6157
537.2560, 224.9150
538.4340, 372.0420
539.6120, 320.9790
540.7900, 450.3862
541.9680, 387.7720
543.1460, 403.7993
544.3230, 305.0708
545.5000, 360.1108
546.6770, 280.7896
547.8540, 334.8657
549.0310, 370.3057
550.2080, 393.3433
551.3840, 460.4829
552.5610, 419.5015
553.7370, 452.5850
554.9130, 358.7119
556.0890, 386.6572
557.2650, 376.1113
558.4400, 354.7910
559.6160, 405.1953
560.7910, 358.2646
561.9660, 409.7246
563.1410, 480.6738
564.3160, 422.8955
565.4910, 475.0391
566.6650, 373.6035
567.8400, 441.2739
569.0140, 502.9180
570.1880, 369.7148
571.3620, 344.9746
572.5360, 273.7798
573.7090, 371.3228
574.8830, 365.6875
576.0560, 333.7979
577.2290, 260.4043
578.4020, 278.1357
579.5750, 341.1807
580.7480, 241.8647
581.9200, 259.2075
583.0930, 169.9287
584.2650, 155.0142
585.4370, 220.2798
586.6090, 112.8228
587.7810, 139.2598
588.9520, 57.34863
590.1240, 33.45947
591.2950, 101.9946
592.4660, 23.25586
593.6370, 96.49219
594.8080, 84.65234
595.9790, 77.96436
597.1500, 136.1064
598.3200, 162.5894
599.4900, 102.0952
600.6600, 152.1343
601.8300, 192.2925
603.0000, 162.7915
604.1700, 147.6611
605.3390, 146.3442
606.5080, 100.2056
607.6770, 108.0942
608.8460, 109.3496
610.0150, 9.568848
611.1840, 176.2178
612.3520, 136.1860
613.5210, 133.2617
614.6890, 129.7842
615.8570, 138.4980
617.0250, 90.63330
618.1930, 112.9888
619.3600, 171.6987
620.5280, 80.05762
621.6950, 110.7144
622.8620, 102.1426
624.0290, 163.0132
625.1960, 167.8408
626.3630, 189.2910
627.5290, 262.4756
628.6960, 111.5146
629.8620, 78.41406
631.0280, 97.73486
632.1940, 66.05518
633.3600, 156.0029
634.5250, 70.03467
635.6910, 124.0068
636.8560, 44.83350
638.0210, 74.79150
639.1860, 70.92334
640.3510, 153.2700
641.5150, 4.892578
642.6800, 70.91943
643.8440, 105.8843
645.0080, 105.8271
646.1720, 5.364258
647.3360, 24.55322
648.5000, 41.33057
649.6640, 97.02979
650.8270, 147.6064
651.9900, 66.50635
653.1530, 20.93457
654.3160, 82.17969
655.4790, 109.9302
656.6420, 9.286621
657.8040, 10.30518
658.9660, 17.31250
660.1290, 19.69629
661.2910, 66.14014
662.4520, 21.84668
663.6140, 3.522949
664.7760, 1.474121
665.9370, 21.33154
667.0980, 48.16357
668.2590, 19.32812
669.4200, 67.86572
670.5810, 81.47070
671.7420, 45.75439
672.9020, 86.41797
674.0620, 113.7051
675.2220, 31.87793
676.3820, 3.474121
677.5420, 22.79346
678.7020, 51.66211
679.8610, 80.83887
681.0210, 70.00244
682.1800, 163.0859
683.3390, 14.87500
684.4980, 76.71191
685.6560, 22.93701
686.8150, 66.70068
687.9730, 139.4883
689.1320, 119.2754
690.2900, 102.5024
691.4480, 188.6704
692.6050, 109.9023
693.7630, 133.8325
694.9200, 286.5020
696.0780, 313.1167
697.2350, 359.9917
698.3920, 447.1987
699.5490, 525.0566
700.7050, 833.3701
701.8620, 965.2261
703.0180, 1253.282
704.1740, 1654.592
705.3300, 1994.010
706.4860, 2509.218
707.6420, 3001.712
708.7970, 3564.094
709.9530, 4149.557
711.1080, 4836.756
712.2630, 5248.834
713.4180, 5522.184
714.5730, 5594.854
715.7280, 5208.393
716.8820, 4811.946
718.0360, 4019.566
719.1900, 3283.931
720.3440, 2725.140
721.4980, 2053.356
722.6520, 1784.934
723.8050, 1349.690
724.9590, 1051.619
726.1120, 858.9492
727.2650, 551.2891
728.4180, 471.2119
729.5700, 443.2104
730.7230, 270.3096
731.8750, 327.1743
733.0280, 109.4697
734.1800, 176.6401
735.3320, 76.46680
736.4830, 70.48730
737.6350, 158.8613
738.7860, 159.8628
739.9380, 164.1309
741.0890, 84.78369
742.2400, 98.52002
743.3910, 164.0928
744.5410, 23.22949
745.6920, 144.4619
746.8420, 46.09082
747.9920, 26.61523
749.1420, 16.81543
750.2920, 30.85059
751.4420, 83.09326
752.5910, 118.1426
753.7410, 11.07324
754.8900, 141.2495
756.0390, 46.94385
757.1880, 2.011719
758.3370, 43.01660
759.4850, 2.764160
760.6340, 18.36719
761.7820, 174.5171
762.9300, 56.44336
764.0780, 52.12109
765.2260, 48.27832
766.3730, 66.17041
767.5210, 62.44971
768.6680, 37.85352
769.8150, 24.95752
770.9620, 12.17725
772.1090, 16.90625
773.2560, 86.17969
774.4020, 102.6953
775.5490, 23.37939
776.6950, 18.84180
777.8410, 29.90820
778.9870, 56.31738
780.1330, 28.23877
781.2780, 78.88525
782.4230, 9.514160
783.5690, 68.58154
784.7140, 192.1885
785.8590, 24.67090
787.0030, 14.31348
788.1480, 108.7646
789.2920, 1.516113
790.4370, 13.79883
791.5810, 169.9023
792.7250, 74.50049
793.8690, 72.04053
795.0120, 62.19287
796.1560, 12.13525
797.2990, 190.3379
798.4420, 90.48291
799.5850, 22.29248
800.7280, 84.38672
801.8710, 95.54004
803.0130, 158.9775
804.1550, 69.25098
805.2980, 44.21924
806.4400, 52.83887
807.5810, 16.57617
808.7230, 131.3076
809.8650, 50.80273
811.0060, 122.1274
812.1470, 29.31836
813.2880, 20.36719
814.4290, 45.73535
815.5700, 12.81396
816.7110, 27.22705
817.8510, 147.5146
818.9910, 103.5586
820.1310, 1.398438
821.2710, 47.82861
822.4110, 8.293945
823.5510, 75.42578
824.6900, 46.19727
825.8290, 4.181641
826.9680, 28.77783
828.1070, 7.952637
829.2460, 42.15430
830.3850, 104.6709
831.5230, 103.6714
832.6620, 138.8311
833.8000, 58.58057
834.9380, 203.1343
836.0760, 89.20410
837.2130, 167.1401
838.3510, 73.76611
839.4880, 25.10156
840.6250, 200.4019
841.7620, 165.1963
842.8990, 189.7280
844.0360, 127.1328
845.1720, 147.2847
846.3090, 106.8130
847.4450, 139.3501
848.5810, 90.18018
849.7170, 115.3262
850.8530, 267.9165
851.9880, 261.0205
853.1240, 176.0342
854.2590, 170.8296
855.3940, 317.6836
856.5290, 219.5127
857.6640, 228.0376
858.7980, 285.4126
859.9330, 220.8848
861.0670, 238.1323
862.2010, 266.2397
863.3350, 283.3315
864.4690, 329.6504
865.6030, 248.9570
866.7360, 286.3076
867.8690, 256.3779
869.0020, 219.3047
870.1350, 230.1582
871.2680, 297.9912
872.4010, 324.3823
873.5330, 234.7363
874.6660, 256.0605
875.7980, 234.7026
876.9300, 174.9692
878.0620, 116.7900
879.1930, 132.4258
880.3250, 227.3584
881.4560, 148.7280
882.5870, 52.81201
883.7180, 334.1113
884.8490, 146.0908
885.9800, 81.84717
887.1100, 133.5728
888.2410, 167.5229
889.3710, 183.5122
890.5010, 123.9062
891.6310, 182.7749
892.7610, 111.9302
893.8900, 171.5947
895.0200, 113.8735
896.1490, 176.3389
897.2780, 266.1748
898.4070, 133.0376
899.5360, 187.6182
900.6640, 84.36328
901.7920, 211.1045
902.9210, 197.0693
904.0490, 124.3716
905.1770, 204.5786
906.3040, 135.6250
907.4320, 48.52490
908.5600, 146.4131
909.6870, 87.47949
910.8140, 196.6973
911.9410, 193.3628
913.0680, 180.8511
914.1940, 94.40967
915.3210, 52.00586
916.4470, 172.4126
917.5730, 19.96533
918.6990, 74.48779
919.8250, 79.84863
920.9500, 118.6738
922.0760, 85.72656
923.2010, 175.6680
924.3260, 150.9336
925.4510, 57.35547
926.5760, 112.1465
927.7010, 75.45703
928.8250, 105.2969
929.9500, 38.05273
931.0740, 124.6973
932.1980, 57.08594
933.3220, 62.14941
934.4450, 6.274414
935.5690, 290.9229
936.6920, 246.3125
937.8150, 162.6826
938.9380, 75.24805
940.0610, 149.3682
941.1840, 101.3242
942.3060, 109.2441
943.4290, 56.93652
944.5510, 135.0596
945.6730, 33.86328
946.7950, 21.80859
947.9160, 99.28320
949.0380, 104.3857
950.1590, 6.212891
951.2800, 34.03613
952.4010, 98.08594
953.5220, 8.636719
954.6430, 29.94434
955.7630, 12.49512
956.8840, 67.48633
958.0040, 64.07715
959.1240, 16.93652
960.2440, 103.7617
961.3640, 17.37109
962.4830, 16.03223
963.6030, 17.50098
964.7220, 4.771484
965.8410, 3.784180
966.9600, 0.4326170
968.0780, 151.9727
969.1970, 94.03711
970.3150, 46.39648
971.4340, 63.27148
972.5520, 14.61133
973.6700, 61.98926
974.7870, 45.50293
975.9050, 36.36328
977.0220, 84.04883
978.1390, 99.65430
979.2560, 13.33691
980.3730, 39.26074
981.4900, 25.23438
982.6070, 8.760742
983.7230, 84.69141
984.8390, 9.511719
985.9550, 65.34766
987.0710, 73.12988
988.1870, 110.7695
989.3030, 82.47461
990.4180, 74.91895
991.5330, 133.3477
992.6480, 154.6211
993.7630, 118.4580
994.8780, 158.3105
995.9930, 178.4277
997.1070, 169.1211
998.2210, 102.0117
999.3350, 18.38770
1000.449, 69.85449
1001.563, 124.1328
1002.677, 146.0273
1003.790, 39.50391
1004.903, 97.77246
1006.016, 90.40820
1007.129, 79.93848
1008.242, 161.6982
1009.355, 73.53809
1010.467, 153.0791
1011.579, 165.4199
1012.691, 208.2275
1013.803, 188.0986
1014.915, 167.5645
1016.027, 342.7520
1017.138, 181.6992
1018.249, 225.7959
1019.360, 63.40137
1020.471, 261.0859
1021.582, 244.6924
1022.693, 255.0332
1023.803, 276.1270
1024.913, 277.6582
1026.023, 339.5215
1027.133, 350.9111
1028.243, 236.0420
1029.353, 423.0127
1030.462, 329.9014
1031.571, 226.6465
1032.680, 399.4287
1033.789, 340.6514
1034.898, 329.2178
1036.007, 278.1455
1037.115, 454.7021
1038.223, 400.4600
1039.331, 413.8955
1040.439, 503.7666
1041.547, 493.5947
1042.655, 428.4473
1043.762, 386.8877
1044.869, 566.3730
1045.976, 500.4121
1047.083, 498.9395
1048.190, 546.2197
1049.297, 644.6465
1050.403, 618.6973
1051.509, 633.1250
1052.615, 658.1602
1053.721, 803.7559
1054.827, 843.6201
1055.933, 833.4160
1057.038, 967.6025
1058.143, 1095.460
1059.248, 983.4111
1060.353, 1144.500
1061.458, 1217.594
1062.563, 1469.901
1063.667, 1606.628
1064.771, 1709.241
1065.875, 1909.926
1066.979, 2538.015
1068.083, 2972.495
1069.186, 3701.298
1070.290, 4872.900
1071.393, 6725.263
1072.496, 8914.312
1073.599, 12126.30
1074.702, 15937.92
1075.804, 21314.01
1076.907, 26652.42
1078.009, 32553.17
1079.111, 37301.03
1080.213, 41046.55
1081.315, 43800.97
1082.416, 45606.96
1083.517, 47832.30
1084.619, 49306.25
1085.720, 49901.39
1086.821, 49680.38
1087.921, 47657.50
1089.022, 44916.05
1090.122, 40573.97
1091.222, 35684.15
1092.322, 30352.33
1093.422, 25145.61
1094.522, 20801.39
1095.622, 16623.92
1096.721, 13019.00
1097.820, 9843.420
1098.919, 7748.699
1100.018, 5816.363
1101.117, 4374.142
1102.215, 3275.778
1103.314, 2478.956
1104.412, 1815.675
1105.510, 1519.633
1106.608, 1160.087
1107.705, 819.1025
1108.803, 716.0596
1109.900, 734.3213
1110.997, 568.7764
1112.094, 646.8662
1113.191, 491.9287
1114.288, 415.3965
1115.384, 339.2197
1116.481, 314.4932
1117.577, 379.2012
1118.673, 279.4482
1119.769, 410.2295
1120.864, 184.4375
1121.960, 249.7100
1123.055, 357.1094
1124.150, 386.3477
1125.245, 260.9570
1126.340, 275.0371
1127.434, 173.5186
1128.529, 202.0498
1129.623, 152.5146
1130.717, 145.6719
1131.811, 65.40039
1132.905, 93.37305
1133.999, 111.4336
1135.092, 87.70508
1136.185, 274.3076
1137.279, 146.5225
1138.371, 221.3252
1139.464, 176.2363
1140.557, 95.88086
1141.649, 309.7500
1142.742, 187.5820
1143.834, 197.3066
1144.926, 153.6172
1146.017, 136.9395
1147.109, 105.6250
1148.200, 34.04980
1149.292, 10.61230
1150.383, 185.1963
1151.474, 82.88184
1152.564, 134.5596
1153.655, 213.5020
1154.745, 29.29492
1155.835, 85.52734
1156.925, 45.47949
1158.015, 69.19531
1159.105, 173.3115
1160.195, 27.78027
1161.284, 202.5957
1162.373, 69.33398
1163.462, 145.4023
1164.551, 77.09375
1165.640, 61.23438
1166.728, 133.1533
1167.817, 187.3359
1168.905, 48.21484
1169.993, 24.25488
1171.081, 5.827148
1172.168, 138.5928
1173.256, 213.1523
1174.343, 234.0439
1175.430, 73.42188
1176.517, 157.8682
1177.604, 16.24219
1178.691, 204.1543
1179.777, 107.3213
1180.864, 59.18066
1181.950, 3.708008
1183.036, 166.1191
1184.121, 67.03223
1185.207, 211.2109
1186.293, 5.313477
1187.378, 151.1230
1188.463, 185.1973
1189.548, 50.34570
1190.633, 53.84961
1191.717, 12.71387
1192.802, 193.0508
1193.886, 18.02246
1194.970, 93.23438
1196.054, 12.37012
1197.138, 10.58008
1198.221, 119.2158
1199.305, 136.0518
1200.388, 118.9277
1201.471, 71.45898
1202.554, 38.60938
1203.637, 108.2363
1204.719, 125.9004
1205.801, 20.34473
1206.884, 95.12598
1207.966, 69.03418
1209.048, 164.8291
1210.129, 175.9033
1211.211, 60.08594
1212.292, 147.7676
1213.373, 136.7812
1214.454, 60.22949
1215.535, 44.42480
1216.616, 93.04395
1217.696, 169.4678
1218.777, 132.0771
1219.857, 223.9258
1220.937, 138.7070
1222.017, 34.82227
1223.096, 118.5645
1224.176, 190.1279
1225.255, 125.2295
1226.334, 79.52051
1227.413, 263.7852
1228.492, 0.6181640
1229.570, 97.66211
1230.649, 133.6953
1231.727, 180.9229
1232.805, 132.2930
1233.883, 237.4004
1234.961, 237.3848
1236.038, 152.9062
1237.116, 228.2559
1238.193, 87.21875
1239.270, 288.7715
1240.347, 237.6250
1241.424, 349.7695
1242.500, 232.6387
1243.577, 335.0742
1244.653, 150.9258
1245.729, 168.8984
1246.805, 398.4805
1247.880, 347.6270
1248.956, 219.4102
1250.031, 372.9492
1251.106, 310.9336
1252.181, 248.8047
1253.256, 321.6426
1254.331, 230.3789
1255.405, 301.5762
1256.480, 220.2324
1257.554, 201.6953
1258.628, 419.8789
1259.701, 400.0156
1260.775, 227.0488
1261.849, 117.6445
1262.922, 362.2695
1263.995, 304.9961
1265.068, 330.2812
1266.141, 215.3887
1267.213, 516.6504
1268.286, 212.6250
1269.358, 329.4414
1270.430, 398.2754
1271.502, 220.6523
1272.573, 468.9238
1273.645, 343.7168
1274.716, 292.4980
1275.788, 394.6055
1276.859, 387.3164
1277.929, 346.4375
1279.000, 377.2383
1280.071, 400.9961
1281.141, 330.7246
1282.211, 220.4492
1283.281, 476.1875
1284.351, 360.8516
1285.421, 399.1738
1286.490, 247.7715
1287.559, 371.2129
1288.628, 276.8555
1289.697, 300.6074
1290.766, 344.5117
1291.835, 370.0781
1292.903, 129.2539
1293.972, 277.3711
1295.040, 287.5039
1296.108, 493.0938
1297.175, 196.6660
1298.243, 230.6406
1299.310, 313.8320
1300.377, 364.5820
1301.444, 382.0449
1302.511, 273.6445
1303.578, 329.1699
1304.645, 318.0527
1305.711, 303.1953
1306.777, 381.3340
1307.843, 288.7676
1308.909, 330.5078
1309.975, 376.7070
1311.040, 371.2383
1312.105, 233.6465
1313.171, 332.2383
1314.235, 243.4453
1315.300, 457.0293
1316.365, 271.5176
1317.429, 220.4590
1318.494, 340.8750
1319.558, 219.7305
1320.622, 311.1777
1321.685, 365.7227
1322.749, 385.1777
1323.812, 368.2129
1324.876, 227.4766
1325.939, 251.1777
1327.001, 210.0820
1328.064, 165.1309
1329.127, 213.5527
1330.189, 91.37891
1331.251, 136.9844
1332.313, 115.7051
1333.375, 125.6855
1334.437, 68.98047
1335.498, 159.9414
1336.560, 46.16016
1337.621, 105.5098
1338.682, 76.64258
1339.742, 25.37109
1340.803, 206.4551
1341.863, 308.6191
1342.924, 336.6406
1343.984, 71.87500
1345.044, 186.7676
1346.104, 157.5176
1347.163, 112.8027
1348.222, 285.3438
1349.282, 64.86719
1350.341, 227.8145
1351.400, 238.2539
1352.458, 319.4551
1353.517, 254.1211
1354.575, 226.8223
1355.633, 353.9102
1356.691, 395.3281
1357.749, 74.26758
1358.807, 2.806641
1359.864, 112.6230
1360.922, 126.7324
1361.979, 126.8496
1363.036, 60.11914
1364.092, 174.6211
1365.149, 210.9199
1366.205, 46.51172
1367.262, 75.70703
1368.318, 44.22852
1369.374, 5.964844
1370.429, 180.1406
1371.485, 33.90820
1372.540, 134.5879
1373.596, 150.2852
1374.651, 243.6660
1375.705, 96.04492
1376.760, 62.15430
1377.815, 14.84180
1378.869, 120.1504
1379.923, 157.4160
1380.977, 164.4238
1382.031, 7.320313
1383.085, 197.9297
1384.138, 324.9785
1385.191, 377.6934
1386.244, 137.7227
1387.297, 276.6797
1388.350, 263.2637
1389.403, 242.4238
1390.455, 433.3711
1391.507, 235.2305
1392.559, 423.1719
1393.611, 455.4727
1394.663, 559.3457
1395.714, 508.9961
1396.766, 181.4805
1397.817, 424.7285
1398.868, 524.6289
1399.919, 367.6309
1400.969, 283.8301
1402.020, 623.5898
1403.070, 405.4609
1404.120, 684.0879
1405.170, 679.3496
1406.220, 342.5332
1407.270, 682.5918
1408.319, 691.0820
1409.368, 481.8828
1410.417, 510.5195
1411.466, 365.4590
1412.515, 454.8672
1413.563, 468.7617
1414.612, 241.0859
1415.660, 372.6133
1416.708, 354.0293
1417.756, 256.2031
1418.803, 380.4512
1419.851, 516.4512
1420.898, 500.8652
1421.945, 366.1211
1422.992, 379.2734
1424.039, 301.6875
1425.086, 374.0156
1426.132, 254.4629
1427.178, 637.1211
1428.225, 157.4121
1429.270, 470.0762
1430.316, 330.0645
1431.362, 593.4160
1432.407, 254.7773
1433.452, 507.9375
1434.497, 455.6797
1435.542, 484.1777
1436.587, 520.6602
1437.631, 758.9023
1438.676, 700.4688
1439.720, 736.1582
1440.764, 502.2207
1441.807, 453.9531
1442.851, 568.6777
1443.895, 510.1738
1444.938, 598.1758
1445.981, 494.0449
1447.024, 433.3262
1448.066, 486.6309
1449.109, 167.4395
1450.151, 334.4375
1451.194, 444.0957
1452.236, 259.3066
1453.277, 518.9141
1454.319, 227.2871
1455.361, 215.4766
1456.402, 383.2207
1457.443, 289.8828
1458.484, 193.6387
1459.525, 107.1113
1460.565, 89.43750
1461.606, 144.4570
1462.646, 156.1113
1463.686, 166.5723
1464.726, 203.5371
1465.766, 133.6973
1466.805, 307.8398
1467.845, 376.9746
1468.884, 223.3438
1469.923, 61.12305
1470.962, 83.31055
1472.000, 258.1641
1473.039, 38.45703
1474.077, 18.16602
1475.115, 124.4688
1476.153, 24.45703
1477.191, 13.32031
1478.229, 93.89453
1479.266, 178.0273
1480.303, 64.15625
1481.340, 35.62500
1482.377, 253.3574
1483.414, 229.5820
1484.451, 75.43359
1485.487, 101.0762
1486.523, 104.3828
1487.559, 186.1797
1488.595, 45.02539
1489.631, 107.8066
1490.666, 86.49609
1491.701, 55.94922
1492.736, 218.1602
1493.771, 420.3281
1494.806, 82.60547
1495.841, 39.69922
1496.875, 316.5469
1497.909, 107.1133
1498.943, 66.66406
1499.977, 45.12109
1501.011, 126.3750
1502.045, 204.1680
1503.078, 333.2891
1504.111, 399.6328
1505.144, 251.7188
1506.177, 301.0391
1507.209, 283.0508
1508.242, 297.6875
1509.274, 471.0977
1510.306, 596.1875
1511.338, 380.8359
1512.370, 324.7930
1513.402, 461.1445
1514.433, 499.1797
1515.464, 377.8789
1516.495, 296.1641
1517.526, 632.3359
1518.557, 511.4531
1519.587, 607.8242
1520.617, 518.8086
1521.648, 644.6797
1522.678, 334.9688
1523.707, 734.4453
1524.737, 498.8047
1525.766, 461.3945
1526.796, 478.0508
1527.825, 716.5156
1528.854, 470.0938
1529.882, 691.2734
1530.911, 519.9492
1531.939, 562.4023
1532.967, 508.3828
1533.995, 560.5273
1535.023, 488.3242
1536.051, 225.8008
1537.078, 619.8672
1538.106, 277.9297
1539.133, 460.3594
1540.160, 450.3906
1541.186, 108.1953
1542.213, 382.5117
1543.239, 355.9531
1544.266, 281.1094
1545.292, 615.5586
1546.318, 197.8281
1547.343, 301.1797
1548.369, 320.6484
1549.394, 309.8281
1550.419, 175.4492
1551.444, 468.5664
1552.469, 11.12500
1553.494, 115.5391
1554.518, 338.0469
1555.542, 115.7461
1556.566, 212.0664
1557.590, 132.6055
1558.614, 267.8828
1559.638, 240.8047
1560.661, 377.4531
1561.684, 123.4023
1562.707, 147.4062
1563.730, 138.5039
1564.753, 199.7266
1565.775, 228.0039
1566.797, 73.00781
1567.819, 30.28125
1568.841, 112.3594
1569.863, 53.97266
1570.885, 4.214844
1571.906, 130.2070
1572.927, 91.11719
1573.948, 0.0000000E+00
##END=



