##NAMES=Kutnohorite
##RRUFFID=R060473
##IDEAL CHEMISTRY=CaMn^2+^(CO_3_)_2_
##LOCALITY=N'Chwaning II mine, Kalahari manganese field, northern Cape Province, Republic of South Africa
##OWNER=RRUFF
##SOURCE=Michael Scott
##DESCRIPTION=Aggregate of parallel pink colored acicular crystals
##STATUS=The identification of this mineral has been confirmed by X-ray diffraction and chemical analysis
##URL=rruff.info/R060473
##MEASURED CHEMISTRY=Ca_1.00_(Mn^2+^_0.63_Ca_0.35_Mg_0.02_)(CO_3_)_2_
##PIN_ID=L00557
##ORIENTATION=Laser parallel to -a* (-1 0 0). Fiducial mark perpendicular to laser is parallel to -c [0 0 -1]
101.0590, 0.0000000E+00
102.2900, 97.83789
103.5200, 605.2002
104.7500, 1121.872
105.9810, 1570.395
107.2110, 2458.158
108.4410, 2725.154
109.6700, 2191.107
110.9000, 1712.912
112.1300, 1583.682
113.3590, 1690.735
114.5880, 1633.866
115.8170, 1284.715
117.0460, 1252.508
118.2750, 793.5391
119.5040, 325.2676
120.7320, 686.3994
121.9610, 606.5654
123.1890, 78.71680
124.4170, 78.44922
125.6450, 160.0635
126.8730, 39.41504
128.1010, 3.733398
129.3280, 184.8809
130.5560, 678.5635
131.7830, 275.4648
133.0100, 58.98926
134.2380, 334.8428
135.4640, 302.3711
136.6910, 537.4395
137.9180, 604.0322
139.1440, 764.0967
140.3710, 713.7979
141.5970, 918.2715
142.8230, 1000.638
144.0490, 1251.984
145.2750, 1175.137
146.5000, 1423.451
147.7260, 1646.836
148.9510, 2364.734
150.1770, 2394.482
151.4020, 2898.597
152.6270, 3119.943
153.8520, 3663.255
155.0760, 3817.493
156.3010, 4244.919
157.5250, 4293.119
158.7500, 4260.552
159.9740, 4169.734
161.1980, 4495.033
162.4220, 4464.278
163.6450, 4292.793
164.8690, 4048.739
166.0920, 3980.900
167.3160, 4097.099
168.5390, 3811.988
169.7620, 3612.218
170.9850, 3559.842
172.2080, 3085.638
173.4300, 3163.816
174.6530, 3086.189
175.8750, 2933.777
177.0970, 2275.566
178.3190, 2045.539
179.5410, 2123.642
180.7630, 1777.835
181.9850, 1657.179
183.2060, 1166.553
184.4270, 1017.935
185.6490, 1009.301
186.8700, 874.4180
188.0910, 605.3662
189.3110, 484.2412
190.5320, 743.0420
191.7530, 180.7598
192.9730, 213.4062
194.1930, 475.9746
195.4130, 338.4502
196.6330, 480.8350
197.8530, 280.1191
199.0730, 176.2930
200.2920, 332.3535
201.5120, 149.2949
202.7310, 85.10742
203.9500, 0.7734380
205.1690, 167.2793
206.3880, 519.6201
207.6070, 27.78711
208.8250, 116.7803
210.0440, 158.6016
211.2620, 186.3359
212.4800, 85.37793
213.6980, 61.24414
214.9160, 34.64551
216.1340, 13.52637
217.3510, 120.0342
218.5690, 72.02441
219.7860, 25.94434
221.0030, 481.7334
222.2200, 211.3975
223.4370, 47.78418
224.6540, 77.88965
225.8700, 154.6445
227.0870, 107.7725
228.3030, 25.95410
229.5190, 125.3711
230.7350, 163.6895
231.9510, 272.8027
233.1670, 90.71289
234.3820, 309.8008
235.5980, 490.1123
236.8130, 231.1006
238.0280, 445.5576
239.2430, 566.4326
240.4580, 556.5352
241.6730, 468.5117
242.8880, 538.3809
244.1020, 501.0498
245.3160, 702.1514
246.5300, 846.2642
247.7450, 1014.589
248.9580, 1061.745
250.1720, 1254.460
251.3860, 1327.942
252.5990, 1511.523
253.8130, 1674.953
255.0260, 1865.524
256.2390, 1902.717
257.4520, 2109.966
258.6640, 2464.437
259.8770, 2720.476
261.0890, 3096.944
262.3020, 3448.643
263.5140, 3853.686
264.7260, 4448.207
265.9380, 4883.588
267.1500, 5456.464
268.3610, 6083.287
269.5730, 6724.876
270.7840, 7416.080
271.9950, 8148.251
273.2060, 8757.502
274.4170, 9867.478
275.6280, 10629.05
276.8390, 11239.26
278.0490, 11925.39
279.2590, 12637.22
280.4690, 12942.12
281.6800, 13444.99
282.8890, 13584.21
284.0990, 13484.68
285.3090, 13258.86
286.5180, 12800.91
287.7280, 12303.98
288.9370, 11771.24
290.1460, 11095.42
291.3550, 10076.80
292.5630, 9232.106
293.7720, 8475.159
294.9800, 7879.904
296.1890, 6749.574
297.3970, 6304.084
298.6050, 5606.072
299.8130, 4762.306
301.0200, 4402.376
302.2280, 4043.814
303.4360, 3534.806
304.6430, 3217.279
305.8500, 2795.348
307.0570, 2445.281
308.2640, 2218.693
309.4710, 1908.006
310.6770, 1841.183
311.8840, 1758.769
313.0900, 1528.013
314.2960, 1438.656
315.5020, 1040.982
316.7080, 972.3999
317.9140, 965.3306
319.1190, 873.7598
320.3250, 829.0215
321.5300, 774.3032
322.7350, 725.7373
323.9400, 843.9351
325.1450, 675.7109
326.3500, 571.8545
327.5540, 572.6353
328.7580, 405.5615
329.9630, 418.8755
331.1670, 318.3735
332.3710, 499.7559
333.5750, 426.1060
334.7780, 450.6436
335.9820, 313.4229
337.1850, 300.9800
338.3880, 210.6348
339.5920, 223.9966
340.7950, 353.3818
341.9970, 209.0669
343.2000, 214.6113
344.4030, 236.7314
345.6050, 366.5991
346.8070, 371.5405
348.0090, 194.3784
349.2110, 193.2300
350.4130, 149.8389
351.6150, 127.7778
352.8160, 180.5615
354.0170, 134.0996
355.2190, 95.28857
356.4200, 49.37402
357.6210, 105.2500
358.8210, 73.83105
360.0220, 14.58984
361.2220, 12.22754
362.4230, 129.4648
363.6230, 144.9248
364.8230, 115.1689
366.0230, 79.96387
367.2230, 17.95850
368.4220, 45.43066
369.6220, 94.89062
370.8210, 91.99561
372.0200, 3.385254
373.2190, 44.61084
374.4180, 19.16113
375.6170, 54.80322
376.8150, 55.15088
378.0140, 37.64404
379.2120, 65.49854
380.4100, 38.05664
381.6080, 109.2573
382.8060, 89.65283
384.0040, 63.93896
385.2010, 65.89453
386.3980, 124.6807
387.5960, 80.73828
388.7930, 15.55957
389.9900, 78.70557
391.1870, 28.38525
392.3830, 77.27686
393.5800, 122.0493
394.7760, 106.6670
395.9720, 6.692383
397.1680, 14.55371
398.3640, 55.38574
399.5600, 49.18848
400.7560, 141.1685
401.9510, 41.58643
403.1460, 54.06299
404.3420, 85.80078
405.5370, 13.54102
406.7320, 66.38232
407.9260, 125.0996
409.1210, 101.3115
410.3150, 15.36719
411.5100, 162.2036
412.7040, 75.96533
413.8980, 234.5356
415.0920, 179.1685
416.2850, 135.4297
417.4790, 211.7188
418.6720, 221.9883
419.8650, 214.9536
421.0590, 292.6177
422.2510, 204.1421
423.4440, 274.5137
424.6370, 185.7373
425.8290, 182.8486
427.0220, 311.0557
428.2140, 238.9297
429.4060, 191.8062
430.5980, 291.4126
431.7900, 337.5674
432.9810, 231.8379
434.1730, 206.1128
435.3640, 246.2051
436.5550, 250.6987
437.7460, 272.9741
438.9370, 233.7583
440.1280, 215.4644
441.3190, 266.2905
442.5090, 157.2427
443.6990, 131.9514
444.8890, 186.6648
446.0790, 211.7666
447.2690, 265.9277
448.4590, 290.0547
449.6480, 272.1357
450.8380, 332.9377
452.0270, 288.8323
453.2160, 260.2781
454.4050, 329.6279
455.5940, 367.3130
456.7820, 234.3862
457.9710, 271.3950
459.1590, 215.9128
460.3470, 296.6411
461.5350, 381.9158
462.7230, 391.4609
463.9110, 355.7852
465.0990, 287.6423
466.2860, 312.0034
467.4730, 380.8926
468.6600, 259.9514
469.8470, 313.3716
471.0340, 244.7183
472.2210, 356.3645
473.4070, 277.8616
474.5940, 271.0623
475.7800, 297.8403
476.9660, 336.0356
478.1520, 262.8066
479.3380, 272.3503
480.5230, 293.7695
481.7090, 228.0503
482.8940, 287.6387
484.0790, 322.8494
485.2650, 314.2686
486.4490, 399.4084
487.6340, 260.6455
488.8190, 293.6567
490.0030, 285.6724
491.1870, 256.4417
492.3720, 327.2935
493.5550, 253.6309
494.7390, 269.2583
495.9230, 322.6062
497.1060, 263.3577
498.2900, 314.6672
499.4730, 411.7212
500.6560, 399.5652
501.8390, 377.7009
503.0220, 357.0015
504.2040, 275.6626
505.3870, 295.3735
506.5690, 276.0449
507.7510, 255.6357
508.9330, 283.8477
510.1150, 276.0425
511.2970, 271.7253
512.4780, 252.8384
513.6600, 240.9624
514.8410, 281.3293
516.0220, 348.0762
517.2030, 230.7361
518.3840, 305.2205
519.5650, 413.5432
520.7450, 250.8926
521.9250, 284.1094
523.1060, 376.2019
524.2860, 302.0063
525.4660, 296.5884
526.6450, 315.8203
527.8250, 309.1670
529.0040, 188.4888
530.1840, 259.6184
531.3630, 293.3748
532.5420, 295.4958
533.7200, 297.1143
534.8990, 279.7834
536.0780, 271.7373
537.2560, 221.8691
538.4340, 267.4839
539.6120, 320.3525
540.7900, 282.7725
541.9680, 196.3591
543.1460, 287.8364
544.3230, 229.7019
545.5000, 268.7109
546.6770, 179.5271
547.8540, 213.9358
549.0310, 221.5823
550.2080, 301.5105
551.3840, 298.1335
552.5610, 308.1965
553.7370, 285.9446
554.9130, 292.2690
556.0890, 246.1938
557.2650, 337.8213
558.4400, 264.2119
559.6160, 232.8577
560.7910, 267.4814
561.9660, 304.0142
563.1410, 296.8105
564.3160, 305.1775
565.4910, 297.7798
566.6650, 283.9507
567.8400, 223.0520
569.0140, 265.6292
570.1880, 227.8462
571.3620, 254.8081
572.5360, 87.12891
573.7090, 262.5791
574.8830, 224.5308
576.0560, 231.3184
577.2290, 99.21802
578.4020, 115.0769
579.5750, 196.9692
580.7480, 179.6411
581.9200, 115.1821
583.0930, 49.87866
584.2650, 72.05884
585.4370, 35.07520
586.6090, 146.2605
587.7810, 97.49683
588.9520, 71.90283
590.1240, 49.35229
591.2950, 82.67017
592.4660, 28.18628
593.6370, 102.4619
594.8080, 92.56616
595.9790, 6.094238
597.1500, 95.34546
598.3200, 78.37598
599.4900, 18.52271
600.6600, 81.54663
601.8300, 158.6370
603.0000, 46.87109
604.1700, 25.43408
605.3390, 52.46313
606.5080, 92.23438
607.6770, 54.22705
608.8460, 55.65552
610.0150, 74.09717
611.1840, 63.32495
612.3520, 34.04688
613.5210, 53.94507
614.6890, 0.9892580
615.8570, 9.662354
617.0250, 47.08008
618.1930, 146.4727
619.3600, 37.13257
620.5280, 29.82373
621.6950, 19.78857
622.8620, 80.75659
624.0290, 55.49536
625.1960, 42.34741
626.3630, 97.28833
627.5290, 97.17676
628.6960, 17.15771
629.8620, 41.50879
631.0280, 60.07275
632.1940, 27.33398
633.3600, 42.71362
634.5250, 143.6057
635.6910, 62.85620
636.8560, 93.08789
638.0210, 87.10840
639.1860, 34.45850
640.3510, 22.33643
641.5150, 99.88550
642.6800, 11.11133
643.8440, 39.66602
645.0080, 57.72559
646.1720, 101.9211
647.3360, 48.95386
648.5000, 48.90649
649.6640, 30.56152
650.8270, 74.48535
651.9900, 94.45190
653.1530, 71.36987
654.3160, 146.2078
655.4790, 40.18140
656.6420, 8.302490
657.8040, 50.13940
658.9660, 48.76343
660.1290, 56.04028
661.2910, 20.20483
662.4520, 114.6677
663.6140, 25.58691
664.7760, 65.57227
665.9370, 27.29639
667.0980, 37.87427
668.2590, 93.78516
669.4200, 68.05737
670.5810, 12.79565
671.7420, 75.72314
672.9020, 47.75317
674.0620, 117.7363
675.2220, 109.3896
676.3820, 32.23682
677.5420, 28.99268
678.7020, 116.9814
679.8610, 53.95410
681.0210, 3.420166
682.1800, 130.1587
683.3390, 109.8369
684.4980, 84.26392
685.6560, 153.8452
686.8150, 130.2722
687.9730, 148.9441
689.1320, 139.4180
690.2900, 186.2900
691.4480, 143.2095
692.6050, 186.1458
693.7630, 320.3440
694.9200, 314.2297
696.0780, 446.6914
697.2350, 470.4297
698.3920, 569.0105
699.5490, 769.1965
700.7050, 982.8618
701.8620, 1287.448
703.0180, 1500.209
704.1740, 1994.845
705.3300, 2485.256
706.4860, 2978.936
707.6420, 3755.095
708.7970, 4512.463
709.9530, 4911.785
711.1080, 5660.960
712.2630, 6130.232
713.4180, 6466.465
714.5730, 6407.553
715.7280, 6225.668
716.8820, 5437.204
718.0360, 4822.542
719.1900, 4121.123
720.3440, 3295.045
721.4980, 2739.585
722.6520, 2090.415
723.8050, 1623.460
724.9590, 1206.067
726.1120, 939.5593
727.2650, 773.3628
728.4180, 649.8538
729.5700, 536.6099
730.7230, 437.3008
731.8750, 263.9932
733.0280, 279.1802
734.1800, 220.7751
735.3320, 203.8804
736.4830, 122.4734
737.6350, 129.7266
738.7860, 67.73389
739.9380, 131.4395
741.0890, 211.1001
742.2400, 89.67798
743.3910, 183.2610
744.5410, 153.8696
745.6920, 114.4214
746.8420, 68.07788
747.9920, 186.5388
749.1420, 27.90381
750.2920, 70.58350
751.4420, 130.9587
752.5910, 3.350586
753.7410, 86.69507
754.8900, 159.9919
756.0390, 3.756836
757.1880, 19.06006
758.3370, 44.21680
759.4850, 10.76978
760.6340, 18.32520
761.7820, 24.58154
762.9300, 24.50732
764.0780, 0.7475590
765.2260, 79.08667
766.3730, 150.0703
767.5210, 90.81104
768.6680, 11.60034
769.8150, 52.41992
770.9620, 87.95068
772.1090, 124.7864
773.2560, 49.78906
774.4020, 101.9111
775.5490, 87.69922
776.6950, 55.51660
777.8410, 21.58374
778.9870, 82.08545
780.1330, 50.10376
781.2780, 30.12964
782.4230, 34.45654
783.5690, 52.06689
784.7140, 65.58838
785.8590, 14.15039
787.0030, 63.10596
788.1480, 43.32520
789.2920, 54.08154
790.4370, 35.86230
791.5810, 42.32324
792.7250, 47.86279
793.8690, 73.51465
795.0120, 85.20557
796.1560, 65.61279
797.2990, 87.29639
798.4420, 49.92773
799.5850, 57.29102
800.7280, 133.1948
801.8710, 53.34229
803.0130, 6.980957
804.1550, 11.46631
805.2980, 63.04150
806.4400, 106.9785
807.5810, 74.55176
808.7230, 57.88867
809.8650, 41.32617
811.0060, 12.55273
812.1470, 46.28809
813.2880, 50.37549
814.4290, 25.22998
815.5700, 15.08887
816.7110, 67.60498
817.8510, 107.9263
818.9910, 32.90332
820.1310, 95.18750
821.2710, 92.16553
822.4110, 89.25537
823.5510, 47.41943
824.6900, 21.99561
825.8290, 74.09277
826.9680, 54.76172
828.1070, 40.67725
829.2460, 42.65479
830.3850, 8.345215
831.5230, 30.35254
832.6620, 82.41650
833.8000, 20.71631
834.9380, 62.21631
836.0760, 119.8687
837.2130, 34.47607
838.3510, 88.97607
839.4880, 37.38086
840.6250, 61.92969
841.7620, 108.3359
842.8990, 27.32715
844.0360, 89.67041
845.1720, 76.67480
846.3090, 43.81201
847.4450, 100.7900
848.5810, 142.9160
849.7170, 82.98779
850.8530, 75.90332
851.9880, 70.68359
853.1240, 71.43164
854.2590, 129.2544
855.3940, 146.8628
856.5290, 42.42920
857.6640, 63.94775
858.7980, 162.4561
859.9330, 127.6157
861.0670, 189.7139
862.2010, 84.05420
863.3350, 194.3931
864.4690, 237.7393
865.6030, 146.0259
866.7360, 188.8613
867.8690, 127.7285
869.0020, 77.51514
870.1350, 202.8467
871.2680, 201.8716
872.4010, 193.5171
873.5330, 259.6187
874.6660, 149.6167
875.7980, 132.4790
876.9300, 213.7188
878.0620, 114.5352
879.1930, 6.333984
880.3250, 98.41309
881.4560, 145.0146
882.5870, 74.54199
883.7180, 115.4009
884.8490, 149.9790
885.9800, 55.95020
887.1100, 91.76270
888.2410, 100.1001
889.3710, 44.89893
890.5010, 62.93896
891.6310, 103.8374
892.7610, 86.83154
893.8900, 66.15674
895.0200, 113.8428
896.1490, 20.78369
897.2780, 87.80908
898.4070, 132.7915
899.5360, 35.84766
900.6640, 57.83398
901.7920, 133.8638
902.9210, 104.1333
904.0490, 65.09717
905.1770, 110.6797
906.3040, 138.3740
907.4320, 72.15820
908.5600, 125.0425
909.6870, 28.55273
910.8140, 108.2173
911.9410, 86.76123
913.0680, 204.1108
914.1940, 78.26221
915.3210, 72.60547
916.4470, 102.0986
917.5730, 12.89795
918.6990, 53.19141
919.8250, 88.14014
920.9500, 88.08398
922.0760, 126.9375
923.2010, 29.24658
924.3260, 14.92676
925.4510, 127.5884
926.5760, 56.13867
927.7010, 36.63428
928.8250, 133.0859
929.9500, 81.58496
931.0740, 26.07227
932.1980, 104.4297
933.3220, 113.8169
934.4450, 22.98535
935.5690, 87.12500
936.6920, 11.52002
937.8150, 80.51221
938.9380, 12.75244
940.0610, 7.6660000E-02
941.1840, 22.74268
942.3060, 0.6767580
943.4290, 46.39648
944.5510, 73.98340
945.6730, 110.4365
946.7950, 6.860840
947.9160, 22.54736
949.0380, 66.27979
950.1590, 16.23926
951.2800, 22.67090
952.4010, 16.73438
953.5220, 41.10254
954.6430, 46.64502
955.7630, 87.58936
956.8840, 25.45703
958.0040, 18.75391
959.1240, 8.769531
960.2440, 1.883301
961.3640, 4.604004
962.4830, 34.06396
963.6030, 35.11035
964.7220, 3.226074
965.8410, 28.89551
966.9600, 6.182617
968.0780, 35.87695
969.1970, 16.83398
970.3150, 54.67041
971.4340, 52.68213
972.5520, 54.73438
973.6700, 73.96289
974.7870, 25.37695
975.9050, 45.82764
977.0220, 131.4048
978.1390, 23.42090
979.2560, 100.9189
980.3730, 55.13867
981.4900, 79.15283
982.6070, 30.39648
983.7230, 31.02783
984.8390, 4.678711
985.9550, 73.30420
987.0710, 67.64453
988.1870, 36.58936
989.3030, 75.07227
990.4180, 72.30176
991.5330, 70.05127
992.6480, 58.84619
993.7630, 129.9058
994.8780, 132.4487
995.9930, 63.03613
997.1070, 50.56299
998.2210, 37.63184
999.3350, 40.77002
1000.449, 140.0742
1001.563, 120.5767
1002.677, 127.6460
1003.790, 223.5010
1004.903, 46.16504
1006.016, 125.7808
1007.129, 195.7134
1008.242, 216.5361
1009.355, 175.6035
1010.467, 136.4717
1011.579, 264.5518
1012.691, 175.3623
1013.803, 173.7114
1014.915, 256.8154
1016.027, 222.2988
1017.138, 83.70947
1018.249, 241.6211
1019.360, 230.8188
1020.471, 297.4590
1021.582, 220.1528
1022.693, 208.0703
1023.803, 221.6787
1024.913, 343.9165
1026.023, 316.9365
1027.133, 334.2222
1028.243, 210.6055
1029.353, 222.3311
1030.462, 315.3896
1031.571, 323.3164
1032.680, 288.0015
1033.789, 254.2671
1034.898, 458.9795
1036.007, 344.7026
1037.115, 461.1982
1038.223, 442.5298
1039.331, 368.7637
1040.439, 449.7827
1041.547, 388.0762
1042.655, 509.0259
1043.762, 599.7046
1044.869, 556.4263
1045.976, 501.4028
1047.083, 566.6206
1048.190, 619.9834
1049.297, 696.4370
1050.403, 654.9624
1051.509, 844.5229
1052.615, 821.7568
1053.721, 754.0771
1054.827, 926.7227
1055.933, 1091.023
1057.038, 1050.019
1058.143, 1212.448
1059.248, 1202.352
1060.353, 1350.659
1061.458, 1513.934
1062.563, 1670.574
1063.667, 1780.361
1064.771, 2051.686
1065.875, 2388.078
1066.979, 2762.428
1068.083, 3529.988
1069.186, 4588.620
1070.290, 6100.282
1071.393, 8322.557
1072.496, 11574.89
1073.599, 15775.64
1074.702, 20552.89
1075.804, 26241.32
1076.907, 32849.05
1078.009, 38480.88
1079.111, 43730.04
1080.213, 47664.22
1081.315, 50523.01
1082.416, 52713.00
1083.517, 54684.11
1084.619, 55661.33
1085.720, 55945.18
1086.821, 55447.40
1087.921, 53718.01
1089.022, 50073.35
1090.122, 45677.25
1091.222, 40198.44
1092.322, 34535.27
1093.422, 28750.44
1094.522, 23807.52
1095.622, 18971.21
1096.721, 14886.83
1097.820, 11691.87
1098.919, 8858.557
1100.018, 6633.166
1101.117, 5000.499
1102.215, 3756.331
1103.314, 2789.845
1104.412, 2009.273
1105.510, 1494.742
1106.608, 1145.849
1107.705, 908.1953
1108.803, 828.1650
1109.900, 572.4131
1110.997, 535.6484
1112.094, 411.5605
1113.191, 387.0996
1114.288, 336.1934
1115.384, 270.4697
1116.481, 275.6553
1117.577, 324.0264
1118.673, 218.1191
1119.769, 298.2021
1120.864, 211.6943
1121.960, 274.6113
1123.055, 269.2500
1124.150, 265.0859
1125.245, 284.4727
1126.340, 119.0068
1127.434, 155.6240
1128.529, 49.18359
1129.623, 14.50293
1130.717, 26.26270
1131.811, 43.70312
1132.905, 98.73926
1133.999, 125.9443
1135.092, 111.8164
1136.185, 30.03320
1137.279, 24.90332
1138.371, 165.0801
1139.464, 0.6035160
1140.557, 60.37500
1141.649, 76.14844
1142.742, 91.70215
1143.834, 43.24414
1144.926, 108.7236
1146.017, 166.3799
1147.109, 107.9453
1148.200, 39.91992
1149.292, 184.2900
1150.383, 18.23535
1151.474, 161.4248
1152.564, 13.42383
1153.655, 110.3145
1154.745, 20.82715
1155.835, 207.9590
1156.925, 28.82324
1158.015, 192.4805
1159.105, 135.5137
1160.195, 87.48535
1161.284, 87.26172
1162.373, 3.755859
1163.462, 73.39648
1164.551, 62.91016
1165.640, 203.3936
1166.728, 23.52441
1167.817, 33.58789
1168.905, 19.74707
1169.993, 75.06934
1171.081, 140.0312
1172.168, 34.95703
1173.256, 114.7725
1174.343, 47.99609
1175.430, 124.4482
1176.517, 28.46777
1177.604, 73.11914
1178.691, 141.9766
1179.777, 99.43164
1180.864, 101.9375
1181.950, 55.24512
1183.036, 98.38965
1184.121, 97.83496
1185.207, 5.565430
1186.293, 114.1289
1187.378, 25.97461
1188.463, 20.44531
1189.548, 13.58496
1190.633, 1.715820
1191.717, 204.9512
1192.802, 198.0576
1193.886, 96.23047
1194.970, 19.73242
1196.054, 184.0098
1197.138, 187.9941
1198.221, 13.38281
1199.305, 62.08008
1200.388, 121.3535
1201.471, 110.3838
1202.554, 120.7109
1203.637, 13.83789
1204.719, 231.6494
1205.801, 224.8545
1206.884, 128.6553
1207.966, 116.6211
1209.048, 60.30273
1210.129, 68.20605
1211.211, 25.71484
1212.292, 70.48047
1213.373, 245.1191
1214.454, 130.1553
1215.535, 173.4854
1216.616, 75.64160
1217.696, 25.35449
1218.777, 118.5693
1219.857, 143.4590
1220.937, 91.94629
1222.017, 35.10547
1223.096, 55.98145
1224.176, 147.2881
1225.255, 9.680664
1226.334, 130.2451
1227.413, 98.34570
1228.492, 77.17480
1229.570, 53.55078
1230.649, 140.0107
1231.727, 214.7490
1232.805, 89.70020
1233.883, 330.8770
1234.961, 78.08008
1236.038, 165.4941
1237.116, 43.67383
1238.193, 139.1670
1239.270, 157.0078
1240.347, 285.1074
1241.424, 179.2969
1242.500, 209.7158
1243.577, 84.97168
1244.653, 232.1611
1245.729, 237.2500
1246.805, 200.2754
1247.880, 269.6758
1248.956, 261.9912
1250.031, 358.0566
1251.106, 276.5557
1252.181, 322.6895
1253.256, 259.9170
1254.331, 340.7412
1255.405, 360.8457
1256.480, 324.7646
1257.554, 248.9072
1258.628, 273.6475
1259.701, 134.4111
1260.775, 289.8564
1261.849, 264.5732
1262.922, 280.9834
1263.995, 346.9512
1265.068, 100.5781
1266.141, 222.6016
1267.213, 205.9033
1268.286, 220.9424
1269.358, 298.7588
1270.430, 283.8535
1271.502, 274.8994
1272.573, 142.7646
1273.645, 283.0234
1274.716, 217.9922
1275.788, 299.2295
1276.859, 381.0479
1277.929, 362.4111
1279.000, 232.2080
1280.071, 149.6611
1281.141, 314.0049
1282.211, 308.2090
1283.281, 46.98633
1284.351, 245.5986
1285.421, 211.4180
1286.490, 401.7861
1287.559, 442.3076
1288.628, 91.55078
1289.697, 358.1758
1290.766, 377.2158
1291.835, 313.4473
1292.903, 169.9229
1293.972, 117.2939
1295.040, 242.9756
1296.108, 232.3545
1297.175, 182.8848
1298.243, 117.3838
1299.310, 178.1504
1300.377, 139.5283
1301.444, 177.3672
1302.511, 71.95508
1303.578, 189.5479
1304.645, 70.66504
1305.711, 327.3867
1306.777, 22.67969
1307.843, 319.7070
1308.909, 281.0576
1309.975, 90.91309
1311.040, 98.08301
1312.105, 214.3027
1313.171, 120.7256
1314.235, 128.5420
1315.300, 260.6318
1316.365, 102.8184
1317.429, 209.0889
1318.494, 176.8018
1319.558, 195.8506
1320.622, 302.7227
1321.685, 259.8242
1322.749, 78.29590
1323.812, 100.1006
1324.876, 219.8232
1325.939, 334.0039
1327.001, 231.0977
1328.064, 104.1270
1329.127, 122.5283
1330.189, 245.5283
1331.251, 195.6768
1332.313, 398.0781
1333.375, 204.7207
1334.437, 93.28711
1335.498, 91.16602
1336.560, 115.4492
1337.621, 8.529297
1338.682, 283.0996
1339.742, 72.51172
1340.803, 205.1582
1341.863, 15.47168
1342.924, 96.81934
1343.984, 268.6963
1345.044, 157.6035
1346.104, 204.6992
1347.163, 250.7812
1348.222, 320.4199
1349.282, 168.8506
1350.341, 188.0664
1351.400, 121.7256
1352.458, 143.3721
1353.517, 141.8564
1354.575, 239.1660
1355.633, 123.7539
1356.691, 350.7129
1357.749, 50.75977
1358.807, 95.07031
1359.864, 169.4336
1360.922, 274.1133
1361.979, 237.3320
1363.036, 16.10547
1364.092, 200.0840
1365.149, 146.0000
1366.205, 76.74219
1367.262, 162.1191
1368.318, 11.41602
1369.374, 33.54492
1370.429, 213.7949
1371.485, 93.11328
1372.540, 159.0801
1373.596, 152.3418
1374.651, 115.7832
1375.705, 63.77930
1376.760, 41.43164
1377.815, 233.2988
1378.869, 170.7461
1379.923, 14.72656
1380.977, 72.04102
1382.031, 51.12891
1383.085, 165.4551
1384.138, 279.5840
1385.191, 234.3125
1386.244, 195.4082
1387.297, 219.7363
1388.350, 214.5234
1389.403, 222.2188
1390.455, 297.5820
1391.507, 325.9941
1392.559, 347.5957
1393.611, 475.0195
1394.663, 397.9316
1395.714, 479.6758
1396.766, 436.6953
1397.817, 423.1445
1398.868, 679.9277
1399.919, 733.5098
1400.969, 587.1699
1402.020, 821.8691
1403.070, 949.1504
1404.120, 862.5137
1405.170, 837.5762
1406.220, 764.8438
1407.270, 994.5391
1408.319, 897.7051
1409.368, 777.6328
1410.417, 803.1445
1411.466, 905.3496
1412.515, 669.1895
1413.563, 733.5996
1414.612, 699.9492
1415.660, 753.5742
1416.708, 610.0996
1417.756, 656.4844
1418.803, 641.3711
1419.851, 609.4336
1420.898, 629.5684
1421.945, 714.4746
1422.992, 642.1016
1424.039, 588.3008
1425.086, 532.0762
1426.132, 642.7910
1427.178, 577.1191
1428.225, 710.5078
1429.270, 593.1484
1430.316, 764.0488
1431.362, 445.0566
1432.407, 631.1836
1433.452, 533.8203
1434.497, 452.5117
1435.542, 525.7344
1436.587, 592.8086
1437.631, 573.7344
1438.676, 743.0371
1439.720, 478.7383
1440.764, 472.2734
1441.807, 364.1621
1442.851, 338.0879
1443.895, 471.3613
1444.938, 401.3164
1445.981, 367.2539
1447.024, 258.1797
1448.066, 496.9395
1449.109, 95.53711
1450.151, 209.8652
1451.194, 265.4043
1452.236, 315.2109
1453.277, 28.02344
1454.319, 19.61328
1455.361, 74.55469
1456.402, 1.435547
1457.443, 111.8184
1458.484, 9.701172
1459.525, 185.2207
1460.565, 310.7188
1461.606, 1.898438
1462.646, 225.7363
1463.686, 20.78125
1464.726, 54.57812
1465.766, 43.94141
1466.805, 37.30859
1467.845, 81.56641
1468.884, 58.87695
1469.923, 6.244141
1470.962, 134.0098
1472.000, 292.5156
1473.039, 33.07812
1474.077, 63.71484
1475.115, 121.8848
1476.153, 161.6797
1477.191, 1.027344
1478.229, 89.37695
1479.266, 160.0879
1480.303, 98.41211
1481.340, 127.4473
1482.377, 201.1895
1483.414, 86.23047
1484.451, 31.93555
1485.487, 191.5078
1486.523, 111.0801
1487.559, 325.5117
1488.595, 218.0371
1489.631, 168.8105
1490.666, 323.4199
1491.701, 28.83398
1492.736, 360.1582
1493.771, 248.3633
1494.806, 442.6230
1495.841, 313.1016
1496.875, 375.2559
1497.909, 153.1934
1498.943, 435.6738
1499.977, 461.3027
1501.011, 218.4766
1502.045, 343.3848
1503.078, 320.5605
1504.111, 209.8887
1505.144, 481.5566
1506.177, 677.1543
1507.209, 489.0449
1508.242, 455.3633
1509.274, 429.6914
1510.306, 842.3086
1511.338, 606.8672
1512.370, 565.6113
1513.402, 510.5039
1514.433, 555.5996
1515.464, 680.2832
1516.495, 422.9395
1517.526, 610.6367
1518.557, 503.9199
1519.587, 636.7129
1520.617, 406.7793
1521.648, 475.2324
1522.678, 232.0664
1523.707, 330.7422
1524.737, 443.7188
1525.766, 247.7910
1526.796, 354.3164
1527.825, 600.6602
1528.854, 593.0566
1529.882, 354.7266
1530.911, 617.6133
1531.939, 578.1992
1532.967, 548.5957
1533.995, 279.6680
1535.023, 480.0078
1536.051, 530.3008
1537.078, 393.2012
1538.106, 444.0586
1539.133, 439.5527
1540.160, 310.9492
1541.186, 439.8418
1542.213, 252.9082
1543.239, 305.6211
1544.266, 96.51172
1545.292, 238.3438
1546.318, 345.7598
1547.343, 285.5566
1548.369, 164.6445
1549.394, 235.8945
1550.419, 337.8477
1551.444, 132.3281
1552.469, 107.9336
1553.494, 211.5410
1554.518, 214.3770
1555.542, 110.7676
1556.566, 92.18555
1557.590, 90.81641
1558.614, 387.5371
1559.638, 144.0781
1560.661, 285.9844
1561.684, 177.4941
1562.707, 240.2754
1563.730, 191.9941
1564.753, 183.0137
1565.775, 115.5059
1566.797, 96.22266
1567.819, 278.2422
1568.841, 41.77930
1569.863, 5.603516
1570.885, 334.8359
1571.906, 225.1191
1572.927, 82.65625
1573.948, 0.0000000E+00
##END=



