##NAMES=Kutnohorite
##RRUFFID=R060473
##IDEAL CHEMISTRY=CaMn^2+^(CO_3_)_2_
##LOCALITY=N'Chwaning II mine, Kalahari manganese field, northern Cape Province, Republic of South Africa
##OWNER=RRUFF
##SOURCE=Michael Scott
##DESCRIPTION=Aggregate of parallel pink colored acicular crystals
##STATUS=The identification of this mineral has been confirmed by X-ray diffraction and chemical analysis
##URL=rruff.info/R060473
##MEASURED CHEMISTRY=Ca_1.00_(Mn^2+^_0.63_Ca_0.35_Mg_0.02_)(CO_3_)_2_
##PIN_ID=L00843
##ORIENTATION=Laser parallel to c* (0 0 1). Fiducial mark perpendicular to laser is parallel to -a [-1 0 0]
102.2900, 0.0000000E+00
103.5200, 164.8574
104.7500, 559.2715
105.9810, 1220.004
107.2110, 1467.467
108.4410, 2054.602
109.6700, 2087.473
110.9000, 1120.119
112.1300, 1216.828
113.3590, 1471.832
114.5880, 1579.566
115.8170, 1472.445
117.0460, 1409.463
118.2750, 1102.979
119.5040, 1044.762
120.7320, 745.7715
121.9610, 413.8281
123.1890, 309.5801
124.4170, 6.777344
125.6450, 90.79297
126.8730, 53.44531
128.1010, 60.99219
129.3280, 152.8516
130.5560, 208.8174
131.7830, 274.4414
133.0100, 91.26660
134.2380, 349.3750
135.4640, 416.4287
136.6910, 264.0947
137.9180, 647.1426
139.1440, 1078.463
140.3710, 1111.999
141.5970, 1124.946
142.8230, 1199.465
144.0490, 976.6826
145.2750, 1610.109
146.5000, 1518.529
147.7260, 1988.230
148.9510, 2242.554
150.1770, 2492.488
151.4020, 3161.478
152.6270, 3376.197
153.8520, 3563.736
155.0760, 4101.748
156.3010, 4366.792
157.5250, 4407.598
158.7500, 4615.830
159.9740, 4480.715
161.1980, 4530.500
162.4220, 4337.949
163.6450, 4267.059
164.8690, 4295.824
166.0920, 4166.301
167.3160, 4027.324
168.5390, 3824.410
169.7620, 3516.320
170.9850, 3410.834
172.2080, 3125.740
173.4300, 2791.123
174.6530, 2485.441
175.8750, 2673.419
177.0970, 1818.749
178.3190, 2006.320
179.5410, 1620.112
180.7630, 1483.038
181.9850, 1233.106
183.2060, 1134.213
184.4270, 970.3281
185.6490, 944.4336
186.8700, 862.4697
188.0910, 646.2656
189.3110, 622.8594
190.5320, 717.3652
191.7530, 776.7529
192.9730, 328.0410
194.1930, 267.2246
195.4130, 507.2949
196.6330, 238.2520
197.8530, 187.0869
199.0730, 172.7910
200.2920, 5.361328
201.5120, 150.2266
202.7310, 39.96973
203.9500, 94.11914
205.1690, 141.0254
206.3880, 284.7412
207.6070, 221.2529
208.8250, 21.44043
210.0440, 53.65820
211.2620, 9.444336
212.4800, 171.2471
213.6980, 110.3096
214.9160, 99.60352
216.1340, 200.0156
217.3510, 264.3076
218.5690, 95.26660
219.7860, 253.9854
221.0030, 126.7432
222.2200, 136.6445
223.4370, 71.31738
224.6540, 163.3584
225.8700, 189.7256
227.0870, 139.0322
228.3030, 118.2852
229.5190, 61.30078
230.7350, 185.1797
231.9510, 212.1377
233.1670, 141.2852
234.3820, 126.2021
235.5980, 306.8760
236.8130, 311.6309
238.0280, 428.6768
239.2430, 683.0264
240.4580, 520.5566
241.6730, 401.0615
242.8880, 606.4531
244.1020, 597.3008
245.3160, 739.5850
246.5300, 684.1699
247.7450, 1057.650
248.9580, 1079.583
250.1720, 1245.190
251.3860, 1408.099
252.5990, 1544.095
253.8130, 1894.629
255.0260, 2189.625
256.2390, 2343.693
257.4520, 2592.515
258.6640, 2931.084
259.8770, 3456.181
261.0890, 3699.212
262.3020, 3914.447
263.5140, 4430.248
264.7260, 4962.545
265.9380, 5756.801
267.1500, 6373.443
268.3610, 7075.572
269.5730, 7987.241
270.7840, 8844.102
271.9950, 9460.153
273.2060, 10552.49
274.4170, 11534.24
275.6280, 12382.02
276.8390, 13141.44
278.0490, 14041.55
279.2590, 14847.88
280.4690, 15314.57
281.6800, 15816.58
282.8890, 16102.33
284.0990, 15918.01
285.3090, 15670.04
286.5180, 15114.89
287.7280, 14384.52
288.9370, 13535.92
290.1460, 12869.70
291.3550, 11456.70
292.5630, 10357.43
293.7720, 9779.985
294.9800, 8690.471
296.1890, 7816.880
297.3970, 7030.590
298.6050, 6435.359
299.8130, 5743.211
301.0200, 5140.381
302.2280, 4506.145
303.4360, 3946.220
304.6430, 3828.887
305.8500, 3032.141
307.0570, 2751.705
308.2640, 2588.226
309.4710, 2256.332
310.6770, 2061.119
311.8840, 1907.857
313.0900, 1657.429
314.2960, 1420.882
315.5020, 1310.666
316.7080, 1161.738
317.9140, 1173.262
319.1190, 1026.771
320.3250, 996.1504
321.5300, 782.6807
322.7350, 861.4062
323.9400, 733.2334
325.1450, 756.0625
326.3500, 606.0117
327.5540, 603.4707
328.7580, 607.3604
329.9630, 453.4912
331.1670, 340.1875
332.3710, 398.8662
333.5750, 386.9141
334.7780, 338.2764
335.9820, 419.6553
337.1850, 497.1357
338.3880, 567.3242
339.5920, 283.2832
340.7950, 283.2910
341.9970, 269.4824
343.2000, 158.9854
344.4030, 89.27246
345.6050, 266.4688
346.8070, 395.0742
348.0090, 316.6523
349.2110, 153.7969
350.4130, 189.0537
351.6150, 72.04883
352.8160, 125.0654
354.0170, 159.9131
355.2190, 188.0303
356.4200, 118.1465
357.6210, 156.0605
358.8210, 65.49512
360.0220, 11.86230
361.2220, 15.98096
362.4230, 10.34473
363.6230, 47.19971
364.8230, 93.52441
366.0230, 53.16553
367.2230, 163.5562
368.4220, 50.62598
369.6220, 0.6909180
370.8210, 78.77686
372.0200, 86.54785
373.2190, 17.36230
374.4180, 60.12744
375.6170, 19.71484
376.8150, 91.78027
378.0140, 63.51758
379.2120, 27.08496
380.4100, 69.73340
381.6080, 21.28223
382.8060, 64.27295
384.0040, 30.55273
385.2010, 10.08008
386.3980, 20.29541
387.5960, 24.81494
388.7930, 57.65625
389.9900, 64.98047
391.1870, 16.28369
392.3830, 77.24658
393.5800, 73.27246
394.7760, 67.29395
395.9720, 13.14990
397.1680, 13.49512
398.3640, 11.63477
399.5600, 48.20508
400.7560, 162.7056
401.9510, 117.0156
403.1460, 33.99170
404.3420, 83.78027
405.5370, 103.6167
406.7320, 135.4336
407.9260, 177.6758
409.1210, 120.5933
410.3150, 214.1636
411.5100, 282.5488
412.7040, 238.7500
413.8980, 288.7656
415.0920, 129.7139
416.2850, 90.41553
417.4790, 281.1978
418.6720, 181.9507
419.8650, 268.1631
421.0590, 330.2002
422.2510, 390.0630
423.4440, 350.7607
424.6370, 263.3750
425.8290, 339.7236
427.0220, 315.9033
428.2140, 412.1177
429.4060, 398.9531
430.5980, 391.6191
431.7900, 392.1157
432.9810, 248.7896
434.1730, 375.0571
435.3640, 381.3867
436.5550, 360.2139
437.7460, 312.8682
438.9370, 259.5972
440.1280, 340.9214
441.3190, 434.6558
442.5090, 344.5283
443.6990, 208.4390
444.8890, 219.5234
446.0790, 267.7090
447.2690, 273.9810
448.4590, 317.8486
449.6480, 185.3716
450.8380, 376.3179
452.0270, 415.8062
453.2160, 407.1050
454.4050, 359.4678
455.5940, 347.7100
456.7820, 320.8662
457.9710, 432.4434
459.1590, 321.0210
460.3470, 407.4229
461.5350, 368.8975
462.7230, 360.6104
463.9110, 288.2202
465.0990, 443.2500
466.2860, 381.2842
467.4730, 342.6665
468.6600, 275.3003
469.8470, 352.8848
471.0340, 449.4497
472.2210, 351.8774
473.4070, 415.5034
474.5940, 330.8984
475.7800, 224.1084
476.9660, 323.0938
478.1520, 371.5742
479.3380, 365.6587
480.5230, 386.4604
481.7090, 281.6631
482.8940, 325.4092
484.0790, 324.7593
485.2650, 325.5479
486.4490, 292.6240
487.6340, 459.8940
488.8190, 382.6255
490.0030, 334.1758
491.1870, 358.0059
492.3720, 479.1807
493.5550, 370.7710
494.7390, 435.2070
495.9230, 365.0732
497.1060, 421.4814
498.2900, 409.6631
499.4730, 382.9854
500.6560, 417.8047
501.8390, 385.0869
503.0220, 364.2471
504.2040, 499.6855
505.3870, 340.2065
506.5690, 353.6641
507.7510, 252.7749
508.9330, 325.3506
510.1150, 250.9766
511.2970, 338.2920
512.4780, 361.5117
513.6600, 364.4233
514.8410, 364.0171
516.0220, 314.5781
517.2030, 287.7661
518.3840, 413.4038
519.5650, 499.6865
520.7450, 409.7007
521.9250, 370.1777
523.1060, 363.3149
524.2860, 231.4258
525.4660, 397.8691
526.6450, 316.2358
527.8250, 386.4341
529.0040, 331.2827
530.1840, 272.9404
531.3630, 395.0342
532.5420, 445.9004
533.7200, 243.2139
534.8990, 205.2407
536.0780, 364.3228
537.2560, 241.1177
538.4340, 308.1592
539.6120, 367.4771
540.7900, 317.7197
541.9680, 346.1636
543.1460, 340.7515
544.3230, 366.2036
545.5000, 359.2432
546.6770, 294.5444
547.8540, 250.2056
549.0310, 339.3657
550.2080, 369.6299
551.3840, 449.7397
552.5610, 444.9092
553.7370, 441.0000
554.9130, 458.8364
556.0890, 371.7002
557.2650, 449.8218
558.4400, 332.7017
559.6160, 301.3018
560.7910, 461.4077
561.9660, 396.8008
563.1410, 428.3853
564.3160, 378.1455
565.4910, 354.6689
566.6650, 466.7505
567.8400, 381.0801
569.0140, 319.2393
570.1880, 471.7295
571.3620, 467.0957
572.5360, 374.3604
573.7090, 277.5610
574.8830, 331.0996
576.0560, 274.0986
577.2290, 352.0522
578.4020, 389.8501
579.5750, 291.3828
580.7480, 345.6260
581.9200, 206.1450
583.0930, 132.9863
584.2650, 83.37891
585.4370, 239.1289
586.6090, 173.8599
587.7810, 112.7236
588.9520, 169.5420
590.1240, 212.4766
591.2950, 70.79102
592.4660, 141.8345
593.6370, 149.2471
594.8080, 96.55615
595.9790, 87.32617
597.1500, 70.03760
598.3200, 170.6289
599.4900, 133.7729
600.6600, 138.5542
601.8300, 84.90918
603.0000, 2.520996
604.1700, 187.3423
605.3390, 77.56055
606.5080, 120.6396
607.6770, 113.6108
608.8460, 41.30322
610.0150, 106.6035
611.1840, 74.68994
612.3520, 77.53564
613.5210, 80.70557
614.6890, 2.969727
615.8570, 57.51270
617.0250, 65.25879
618.1930, 104.4536
619.3600, 8.898438
620.5280, 120.9175
621.6950, 30.55225
622.8620, 99.13574
624.0290, 162.0913
625.1960, 16.01562
626.3630, 183.0044
627.5290, 169.7466
628.6960, 190.8784
629.8620, 123.6538
631.0280, 203.4307
632.1940, 92.13818
633.3600, 40.04980
634.5250, 21.72998
635.6910, 33.59131
636.8560, 8.476563
638.0210, 56.43213
639.1860, 111.4478
640.3510, 86.41748
641.5150, 33.20898
642.6800, 10.04102
643.8440, 47.91846
645.0080, 93.47607
646.1720, 35.28760
647.3360, 25.27637
648.5000, 32.58740
649.6640, 94.00049
650.8270, 59.10840
651.9900, 0.6782230
653.1530, 180.5166
654.3160, 47.14258
655.4790, 98.48242
656.6420, 54.61621
657.8040, 55.64990
658.9660, 52.83057
660.1290, 17.70996
661.2910, 64.87939
662.4520, 23.03906
663.6140, 96.32520
664.7760, 98.09131
665.9370, 109.8828
667.0980, 38.08594
668.2590, 21.04248
669.4200, 78.56104
670.5810, 61.41211
671.7420, 21.54248
672.9020, 14.22168
674.0620, 50.02783
675.2220, 127.4390
676.3820, 63.52100
677.5420, 104.9575
678.7020, 20.65088
679.8610, 14.84912
681.0210, 26.83398
682.1800, 146.3765
683.3390, 110.9326
684.4980, 150.2808
685.6560, 54.08057
686.8150, 222.2495
687.9730, 113.6333
689.1320, 110.2690
690.2900, 70.33496
691.4480, 130.0752
692.6050, 197.8252
693.7630, 195.6069
694.9200, 220.5723
696.0780, 306.4819
697.2350, 469.9521
698.3920, 641.2734
699.5490, 635.4658
700.7050, 865.2861
701.8620, 1006.971
703.0180, 1474.323
704.1740, 1674.922
705.3300, 2097.597
706.4860, 2623.945
707.6420, 3202.258
708.7970, 3779.631
709.9530, 4421.006
711.1080, 4839.063
712.2630, 5119.564
713.4180, 5479.249
714.5730, 5330.465
715.7280, 5146.755
716.8820, 4534.476
718.0360, 4046.169
719.1900, 3382.824
720.3440, 2632.900
721.4980, 2192.897
722.6520, 1787.534
723.8050, 1376.920
724.9590, 1011.223
726.1120, 831.0488
727.2650, 660.2080
728.4180, 575.7778
729.5700, 381.5024
730.7230, 339.7788
731.8750, 149.9336
733.0280, 150.0835
734.1800, 290.9941
735.3320, 201.2061
736.4830, 186.9219
737.6350, 151.4502
738.7860, 111.8105
739.9380, 45.88965
741.0890, 179.7217
742.2400, 86.11621
743.3910, 8.451660
744.5410, 89.87988
745.6920, 39.99707
746.8420, 55.09229
747.9920, 68.01855
749.1420, 4.403809
750.2920, 87.32471
751.4420, 139.0571
752.5910, 154.2905
753.7410, 20.85059
754.8900, 79.00732
756.0390, 60.22607
757.1880, 38.24316
758.3370, 123.0952
759.4850, 11.17480
760.6340, 93.52051
761.7820, 63.67676
762.9300, 16.20605
764.0780, 37.13379
765.2260, 56.01855
766.3730, 124.0654
767.5210, 124.1895
768.6680, 65.57812
769.8150, 97.39648
770.9620, 162.0869
772.1090, 99.50781
773.2560, 113.7588
774.4020, 18.28223
775.5490, 70.66211
776.6950, 24.69531
777.8410, 5.295898
778.9870, 71.01855
780.1330, 41.02246
781.2780, 0.6445310
782.4230, 195.4951
783.5690, 110.6104
784.7140, 42.88379
785.8590, 36.14258
787.0030, 41.13574
788.1480, 48.62695
789.2920, 104.2744
790.4370, 126.8672
791.5810, 20.35156
792.7250, 80.80664
793.8690, 74.25488
795.0120, 65.64941
796.1560, 149.7363
797.2990, 61.16016
798.4420, 143.6768
799.5850, 119.1689
800.7280, 45.71973
801.8710, 50.75293
803.0130, 207.5791
804.1550, 67.54980
805.2980, 123.6807
806.4400, 169.2207
807.5810, 50.19629
808.7230, 118.7568
809.8650, 94.09570
811.0060, 72.71973
812.1470, 19.99414
813.2880, 73.08398
814.4290, 79.91602
815.5700, 83.27734
816.7110, 19.83887
817.8510, 16.77441
818.9910, 143.4316
820.1310, 127.9648
821.2710, 196.3184
822.4110, 89.23340
823.5510, 168.0000
824.6900, 66.83398
825.8290, 88.74219
826.9680, 19.04785
828.1070, 127.2949
829.2460, 119.2080
830.3850, 102.4717
831.5230, 54.04297
832.6620, 34.88184
833.8000, 155.0576
834.9380, 125.3486
836.0760, 118.2178
837.2130, 48.44238
838.3510, 2.613281
839.4880, 154.6738
840.6250, 86.44922
841.7620, 287.1914
842.8990, 129.0254
844.0360, 128.8496
845.1720, 61.28613
846.3090, 106.3965
847.4450, 172.7090
848.5810, 58.25977
849.7170, 12.69336
850.8530, 81.38867
851.9880, 254.7656
853.1240, 222.7646
854.2590, 221.6338
855.3940, 164.1602
856.5290, 117.4863
857.6640, 229.2061
858.7980, 234.9727
859.9330, 238.8779
861.0670, 169.5371
862.2010, 216.7412
863.3350, 494.2119
864.4690, 260.2236
865.6030, 259.0156
866.7360, 218.5537
867.8690, 382.5918
869.0020, 320.3584
870.1350, 309.1475
871.2680, 220.5352
872.4010, 320.4727
873.5330, 213.6895
874.6660, 208.5996
875.7980, 272.6553
876.9300, 269.6777
878.0620, 35.91504
879.1930, 212.1973
880.3250, 116.6523
881.4560, 202.6348
882.5870, 191.4326
883.7180, 151.2451
884.8490, 265.0586
885.9800, 65.77539
887.1100, 246.8857
888.2410, 94.20703
889.3710, 98.47070
890.5010, 115.3203
891.6310, 168.4570
892.7610, 212.3164
893.8900, 99.57617
895.0200, 192.4141
896.1490, 92.44336
897.2780, 182.8340
898.4070, 110.9473
899.5360, 137.8643
900.6640, 164.5859
901.7920, 103.9541
902.9210, 96.87793
904.0490, 195.6758
905.1770, 163.1641
906.3040, 72.98145
907.4320, 314.7295
908.5600, 88.35449
909.6870, 263.7842
910.8140, 218.7666
911.9410, 143.9053
913.0680, 53.16406
914.1940, 226.8770
915.3210, 95.81152
916.4470, 99.55371
917.5730, 124.9170
918.6990, 97.18066
919.8250, 212.0176
920.9500, 212.5117
922.0760, 7.916992
923.2010, 181.0645
924.3260, 83.37891
925.4510, 153.8721
926.5760, 179.3926
927.7010, 160.3984
928.8250, 172.5898
929.9500, 23.68848
931.0740, 122.6738
932.1980, 212.9375
933.3220, 77.76270
934.4450, 41.86230
935.5690, 70.78320
936.6920, 174.3281
937.8150, 1.823242
938.9380, 180.8838
940.0610, 235.2881
941.1840, 39.86621
942.3060, 113.5635
943.4290, 183.6914
944.5510, 321.0352
945.6730, 135.8145
946.7950, 84.67188
947.9160, 56.41406
949.0380, 81.65137
950.1590, 4.837891
951.2800, 15.10840
952.4010, 152.2559
953.5220, 217.5332
954.6430, 115.2793
955.7630, 110.8838
956.8840, 50.29883
958.0040, 168.9395
959.1240, 69.43555
960.2440, 169.4277
961.3640, 62.56055
962.4830, 2.022461
963.6030, 6.033203
964.7220, 113.7783
965.8410, 14.55957
966.9600, 209.7949
968.0780, 113.9932
969.1970, 72.61523
970.3150, 159.0332
971.4340, 5.345703
972.5520, 58.72852
973.6700, 1.197266
974.7870, 119.3330
975.9050, 112.1035
977.0220, 76.58984
978.1390, 64.37500
979.2560, 23.92285
980.3730, 19.49023
981.4900, 141.2295
982.6070, 68.80957
983.7230, 173.8271
984.8390, 145.2002
985.9550, 111.2100
987.0710, 135.7646
988.1870, 152.6387
989.3030, 220.0537
990.4180, 34.41895
991.5330, 143.7617
992.6480, 118.8672
993.7630, 73.20801
994.8780, 119.5527
995.9930, 20.71484
997.1070, 137.3193
998.2210, 233.8945
999.3350, 272.8340
1000.449, 81.51367
1001.563, 187.1465
1002.677, 174.5566
1003.790, 156.0957
1004.903, 303.7490
1006.016, 145.3320
1007.129, 290.3232
1008.242, 314.1279
1009.355, 226.4932
1010.467, 154.6426
1011.579, 223.9531
1012.691, 343.2783
1013.803, 115.6807
1014.915, 149.9902
1016.027, 370.7275
1017.138, 129.3379
1018.249, 127.4023
1019.360, 253.0527
1020.471, 285.2939
1021.582, 272.1230
1022.693, 285.4580
1023.803, 236.1035
1024.913, 210.1260
1026.023, 242.8779
1027.133, 349.7393
1028.243, 280.9316
1029.353, 347.2793
1030.462, 329.7109
1031.571, 351.5342
1032.680, 381.3047
1033.789, 388.8809
1034.898, 238.5977
1036.007, 396.3262
1037.115, 423.1992
1038.223, 461.5078
1039.331, 347.7334
1040.439, 490.6963
1041.547, 371.5068
1042.655, 623.3076
1043.762, 571.7510
1044.869, 497.5068
1045.976, 329.5576
1047.083, 615.6455
1048.190, 625.3369
1049.297, 648.5225
1050.403, 584.8438
1051.509, 702.0762
1052.615, 895.4697
1053.721, 639.5352
1054.827, 682.7148
1055.933, 840.3721
1057.038, 1134.473
1058.143, 1044.662
1059.248, 1153.329
1060.353, 1265.178
1061.458, 1260.001
1062.563, 1588.399
1063.667, 1552.873
1064.771, 1719.274
1065.875, 1976.902
1066.979, 2465.444
1068.083, 2944.709
1069.186, 3856.080
1070.290, 5222.076
1071.393, 7183.996
1072.496, 9811.792
1073.599, 13272.48
1074.702, 17145.01
1075.804, 22004.47
1076.907, 27344.89
1078.009, 32530.69
1079.111, 36968.32
1080.213, 40440.22
1081.315, 42281.68
1082.416, 44288.44
1083.517, 45528.82
1084.619, 46487.07
1085.720, 46709.39
1086.821, 45957.60
1087.921, 44099.93
1089.022, 41270.47
1090.122, 37332.86
1091.222, 32735.94
1092.322, 27941.48
1093.422, 23468.95
1094.522, 19133.92
1095.622, 15606.19
1096.721, 12065.21
1097.820, 9557.319
1098.919, 7259.474
1100.018, 5491.857
1101.117, 4271.285
1102.215, 3151.276
1103.314, 2439.633
1104.412, 1732.228
1105.510, 1311.290
1106.608, 1251.956
1107.705, 794.2529
1108.803, 742.2393
1109.900, 549.5488
1110.997, 614.6377
1112.094, 403.3711
1113.191, 352.0000
1114.288, 460.9512
1115.384, 436.2402
1116.481, 441.7383
1117.577, 286.6240
1118.673, 318.6592
1119.769, 291.9746
1120.864, 382.6211
1121.960, 280.4990
1123.055, 285.8428
1124.150, 158.1699
1125.245, 89.12109
1126.340, 72.98926
1127.434, 55.32422
1128.529, 79.22266
1129.623, 262.5693
1130.717, 177.5273
1131.811, 74.95215
1132.905, 213.0977
1133.999, 25.26855
1135.092, 230.1191
1136.185, 217.7500
1137.279, 93.27344
1138.371, 193.9326
1139.464, 81.62598
1140.557, 11.08789
1141.649, 135.3477
1142.742, 75.96484
1143.834, 294.2588
1144.926, 199.4482
1146.017, 108.6123
1147.109, 24.88965
1148.200, 75.54785
1149.292, 147.8018
1150.383, 103.1719
1151.474, 223.3818
1152.564, 246.4883
1153.655, 193.7393
1154.745, 106.2246
1155.835, 254.4707
1156.925, 114.8418
1158.015, 114.6934
1159.105, 144.6328
1160.195, 182.2539
1161.284, 45.15332
1162.373, 25.62891
1163.462, 10.71191
1164.551, 6.714844
1165.640, 3.691406
1166.728, 141.2256
1167.817, 82.67383
1168.905, 59.97559
1169.993, 269.3604
1171.081, 223.6016
1172.168, 65.49121
1173.256, 242.2383
1174.343, 65.47461
1175.430, 108.6484
1176.517, 185.1016
1177.604, 67.52344
1178.691, 79.99805
1179.777, 52.03906
1180.864, 5.351563
1181.950, 47.93555
1183.036, 189.1641
1184.121, 126.8887
1185.207, 25.23633
1186.293, 22.77734
1187.378, 38.42383
1188.463, 72.79102
1189.548, 78.95312
1190.633, 42.17578
1191.717, 10.92969
1192.802, 22.50391
1193.886, 81.68750
1194.970, 256.9297
1196.054, 35.25391
1197.138, 141.1914
1198.221, 146.0332
1199.305, 136.2695
1200.388, 72.85938
1201.471, 110.9277
1202.554, 88.71094
1203.637, 151.1035
1204.719, 200.7559
1205.801, 45.71680
1206.884, 103.6191
1207.966, 18.86133
1209.048, 218.9004
1210.129, 92.30273
1211.211, 148.9473
1212.292, 27.25977
1213.373, 240.8301
1214.454, 106.9727
1215.535, 209.7441
1216.616, 27.88477
1217.696, 131.0801
1218.777, 56.44531
1219.857, 209.9023
1220.937, 192.3242
1222.017, 211.0859
1223.096, 72.15430
1224.176, 58.38672
1225.255, 168.3652
1226.334, 97.90430
1227.413, 267.2324
1228.492, 148.5840
1229.570, 261.0137
1230.649, 136.1621
1231.727, 180.4766
1232.805, 160.3613
1233.883, 229.4727
1234.961, 151.2520
1236.038, 129.0000
1237.116, 313.5449
1238.193, 360.8418
1239.270, 228.9414
1240.347, 251.2188
1241.424, 395.6191
1242.500, 229.1523
1243.577, 71.09766
1244.653, 376.1973
1245.729, 175.0605
1246.805, 38.56836
1247.880, 135.9785
1248.956, 364.1504
1250.031, 281.2324
1251.106, 273.6035
1252.181, 182.7949
1253.256, 296.2441
1254.331, 345.4375
1255.405, 296.2402
1256.480, 209.2539
1257.554, 150.5957
1258.628, 184.0488
1259.701, 112.6562
1260.775, 256.5449
1261.849, 348.3652
1262.922, 4.398438
1263.995, 224.3418
1265.068, 235.6934
1266.141, 146.1777
1267.213, 168.7637
1268.286, 280.1719
1269.358, 333.1816
1270.430, 266.5410
1271.502, 321.9297
1272.573, 441.0000
1273.645, 321.9238
1274.716, 312.9492
1275.788, 240.4258
1276.859, 444.5859
1277.929, 219.5840
1279.000, 162.7148
1280.071, 298.4824
1281.141, 329.5840
1282.211, 254.6113
1283.281, 185.2402
1284.351, 165.3242
1285.421, 321.8477
1286.490, 211.6133
1287.559, 269.2090
1288.628, 248.7422
1289.697, 220.9023
1290.766, 65.20703
1291.835, 225.2578
1292.903, 280.9355
1293.972, 38.51953
1295.040, 200.6562
1296.108, 202.8809
1297.175, 223.4531
1298.243, 174.2363
1299.310, 355.5234
1300.377, 233.5078
1301.444, 192.2422
1302.511, 314.7695
1303.578, 313.7070
1304.645, 205.8906
1305.711, 99.37500
1306.777, 142.4180
1307.843, 215.9316
1308.909, 359.6699
1309.975, 233.2676
1311.040, 106.8711
1312.105, 22.47070
1313.171, 104.7324
1314.235, 71.48633
1315.300, 327.6230
1316.365, 69.48633
1317.429, 231.1113
1318.494, 324.2168
1319.558, 165.8164
1320.622, 179.5176
1321.685, 235.0254
1322.749, 191.5469
1323.812, 142.7207
1324.876, 202.9238
1325.939, 195.2930
1327.001, 309.1074
1328.064, 40.43555
1329.127, 297.8027
1330.189, 113.4297
1331.251, 160.7344
1332.313, 98.68750
1333.375, 204.1172
1334.437, 189.1680
1335.498, 250.4199
1336.560, 43.01953
1337.621, 229.9922
1338.682, 152.6582
1339.742, 201.6309
1340.803, 131.3555
1341.863, 215.8340
1342.924, 24.14648
1343.984, 137.1445
1345.044, 204.2988
1346.104, 319.8398
1347.163, 1.910156
1348.222, 246.3945
1349.282, 40.80469
1350.341, 113.7402
1351.400, 207.5098
1352.458, 241.8574
1353.517, 46.36914
1354.575, 146.3613
1355.633, 130.0938
1356.691, 107.8730
1357.749, 128.0977
1358.807, 234.5078
1359.864, 136.7578
1360.922, 2.236328
1361.979, 120.6562
1363.036, 246.8828
1364.092, 24.17383
1365.149, 296.1934
1366.205, 145.2109
1367.262, 110.6758
1368.318, 90.33398
1369.374, 16.39258
1370.429, 79.36914
1371.485, 184.4316
1372.540, 90.60156
1373.596, 107.0391
1374.651, 139.3457
1375.705, 173.3262
1376.760, 153.6973
1377.815, 146.2695
1378.869, 24.19531
1379.923, 174.3066
1380.977, 4.332031
1382.031, 241.3809
1383.085, 85.80078
1384.138, 14.27148
1385.191, 109.1953
1386.244, 154.4688
1387.297, 178.0059
1388.350, 120.0859
1389.403, 281.0840
1390.455, 311.2305
1391.507, 190.3145
1392.559, 294.2539
1393.611, 582.7422
1394.663, 446.0117
1395.714, 627.7422
1396.766, 672.1836
1397.817, 749.0234
1398.868, 724.8652
1399.919, 698.8047
1400.969, 817.0469
1402.020, 1207.996
1403.070, 1030.508
1404.120, 1101.572
1405.170, 923.7637
1406.220, 1126.197
1407.270, 1125.758
1408.319, 835.1406
1409.368, 992.1172
1410.417, 923.5605
1411.466, 819.7129
1412.515, 937.3027
1413.563, 759.6484
1414.612, 887.5801
1415.660, 603.4238
1416.708, 625.7207
1417.756, 620.0059
1418.803, 586.9707
1419.851, 621.8418
1420.898, 657.2305
1421.945, 805.6602
1422.992, 559.5410
1424.039, 679.2754
1425.086, 720.5762
1426.132, 702.4980
1427.178, 497.6055
1428.225, 800.3418
1429.270, 595.3711
1430.316, 591.1855
1431.362, 548.3184
1432.407, 746.7695
1433.452, 578.2051
1434.497, 687.7324
1435.542, 627.6543
1436.587, 606.8418
1437.631, 889.2852
1438.676, 680.7695
1439.720, 786.7715
1440.764, 506.4180
1441.807, 540.2480
1442.851, 649.3535
1443.895, 662.1621
1444.938, 460.1738
1445.981, 354.3418
1447.024, 686.3789
1448.066, 609.4512
1449.109, 340.1797
1450.151, 540.5332
1451.194, 318.0098
1452.236, 406.3887
1453.277, 124.0273
1454.319, 5.138672
1455.361, 152.7051
1456.402, 321.9492
1457.443, 429.9297
1458.484, 82.35547
1459.525, 124.1445
1460.565, 111.8906
1461.606, 68.42773
1462.646, 145.7363
1463.686, 31.60352
1464.726, 183.4805
1465.766, 258.4375
1466.805, 169.5938
1467.845, 1.550781
1468.884, 207.3047
1469.923, 234.0586
1470.962, 49.10156
1472.000, 358.9922
1473.039, 118.3281
1474.077, 1.101563
1475.115, 90.41406
1476.153, 43.13672
1477.191, 117.3906
1478.229, 83.34375
1479.266, 256.6484
1480.303, 42.42188
1481.340, 54.30078
1482.377, 27.62891
1483.414, 52.92578
1484.451, 172.2031
1485.487, 60.45703
1486.523, 67.58984
1487.559, 212.5273
1488.595, 11.69141
1489.631, 463.7031
1490.666, 157.9453
1491.701, 72.03906
1492.736, 223.9727
1493.771, 453.7734
1494.806, 261.4609
1495.841, 280.0078
1496.875, 277.5820
1497.909, 445.9219
1498.943, 296.6523
1499.977, 216.5156
1501.011, 284.9570
1502.045, 349.9766
1503.078, 548.8750
1504.111, 414.3789
1505.144, 146.0625
1506.177, 438.8398
1507.209, 420.6914
1508.242, 520.1445
1509.274, 546.0430
1510.306, 456.0508
1511.338, 517.1719
1512.370, 492.2031
1513.402, 808.9336
1514.433, 677.3867
1515.464, 559.2266
1516.495, 631.7656
1517.526, 515.8242
1518.557, 701.2734
1519.587, 456.5195
1520.617, 661.7656
1521.648, 534.4414
1522.678, 630.3945
1523.707, 554.8789
1524.737, 564.0078
1525.766, 567.0195
1526.796, 360.4180
1527.825, 377.7422
1528.854, 289.4648
1529.882, 309.0352
1530.911, 109.9922
1531.939, 119.2148
1532.967, 604.1328
1533.995, 484.5898
1535.023, 299.6250
1536.051, 310.1094
1537.078, 162.9609
1538.106, 463.5977
1539.133, 195.0234
1540.160, 388.9805
1541.186, 291.6719
1542.213, 191.7969
1543.239, 439.5938
1544.266, 465.2148
1545.292, 105.3320
1546.318, 521.6367
1547.343, 347.4062
1548.369, 368.3672
1549.394, 116.1172
1550.419, 167.1211
1551.444, 381.5898
1552.469, 198.7031
1553.494, 108.7617
1554.518, 199.6250
1555.542, 117.3711
1556.566, 460.0547
1557.590, 312.7617
1558.614, 284.7773
1559.638, 41.96484
1560.661, 145.1719
1561.684, 258.0586
1562.707, 90.45703
1563.730, 4.292969
1564.753, 10.58203
1565.775, 319.8750
1566.797, 146.9102
1567.819, 198.4922
1568.841, 135.2852
1569.863, 36.78516
1570.885, 303.0391
1571.906, 148.0625
1572.927, 216.5625
1573.948, 68.43359
1574.969, 0.0000000E+00
##END=



