##NAMES=Kutnohorite
##RRUFFID=R060473
##IDEAL CHEMISTRY=CaMn^2+^(CO_3_)_2_
##LOCALITY=N'Chwaning II mine, Kalahari manganese field, northern Cape Province, Republic of South Africa
##OWNER=RRUFF
##SOURCE=Michael Scott
##DESCRIPTION=Aggregate of parallel pink colored acicular crystals
##STATUS=The identification of this mineral has been confirmed by X-ray diffraction and chemical analysis
##URL=rruff.info/R060473
##MEASURED CHEMISTRY=Ca_1.00_(Mn^2+^_0.63_Ca_0.35_Mg_0.02_)(CO_3_)_2_
##PIN_ID=L00843
##ORIENTATION=Laser parallel to c* (0 0 1). Fiducial mark perpendicular to laser is parallel to -a [-1 0 0]
101.0590, 0.0000000E+00
102.2900, 577.8340
103.5200, 324.0703
104.7500, 704.8516
105.9810, 1195.557
107.2110, 2105.086
108.4410, 2279.461
109.6700, 1765.754
110.9000, 1219.613
112.1300, 1253.691
113.3590, 1587.514
114.5880, 1142.543
115.8170, 757.7676
117.0460, 858.7734
118.2750, 899.7715
119.5040, 390.6191
120.7320, 579.7520
121.9610, 554.8945
123.1890, 43.97852
124.4170, 83.38281
125.6450, 172.9707
126.8730, 85.88086
128.1010, 400.5273
129.3280, 708.2344
130.5560, 737.8379
131.7830, 39.30273
133.0100, 59.62500
134.2380, 137.8555
135.4640, 47.38281
136.6910, 237.8047
137.9180, 331.7070
139.1440, 674.1660
140.3710, 1172.221
141.5970, 908.2734
142.8230, 728.7773
144.0490, 751.5332
145.2750, 685.7754
146.5000, 1095.812
147.7260, 1317.191
148.9510, 1972.840
150.1770, 2320.098
151.4020, 2625.594
152.6270, 2932.465
153.8520, 2817.339
155.0760, 3465.264
156.3010, 3762.005
157.5250, 3718.092
158.7500, 4098.908
159.9740, 3771.726
161.1980, 3909.799
162.4220, 3828.306
163.6450, 3716.625
164.8690, 3351.354
166.0920, 3502.330
167.3160, 3293.470
168.5390, 3071.852
169.7620, 2747.775
170.9850, 3045.961
172.2080, 2707.496
173.4300, 2805.402
174.6530, 2529.771
175.8750, 2235.852
177.0970, 2102.604
178.3190, 2001.057
179.5410, 1838.272
180.7630, 1554.657
181.9850, 1133.225
183.2060, 1112.863
184.4270, 991.5215
185.6490, 1241.148
186.8700, 1009.582
188.0910, 796.9219
189.3110, 444.1826
190.5320, 792.2871
191.7530, 435.0137
192.9730, 338.5371
194.1930, 547.9346
195.4130, 421.2031
196.6330, 330.3262
197.8530, 516.2988
199.0730, 256.1104
200.2920, 276.7461
201.5120, 46.19531
202.7310, 93.43555
203.9500, 101.4580
205.1690, 275.2363
206.3880, 544.7637
207.6070, 120.0283
208.8250, 4.846680
210.0440, 17.49023
211.2620, 225.1709
212.4800, 140.6416
213.6980, 134.6611
214.9160, 29.86230
216.1340, 76.96191
217.3510, 26.08691
218.5690, 220.5469
219.7860, 118.4658
221.0030, 469.8486
222.2200, 217.8340
223.4370, 130.7930
224.6540, 155.8135
225.8700, 82.52734
227.0870, 95.10059
228.3030, 139.6143
229.5190, 32.75293
230.7350, 116.2910
231.9510, 87.72266
233.1670, 338.0137
234.3820, 430.0244
235.5980, 229.5938
236.8130, 275.0801
238.0280, 631.6914
239.2430, 548.4131
240.4580, 451.7656
241.6730, 396.8730
242.8880, 532.8008
244.1020, 656.9922
245.3160, 486.9990
246.5300, 907.1045
247.7450, 747.2900
248.9580, 972.6270
250.1720, 891.9141
251.3860, 1096.832
252.5990, 1431.099
253.8130, 1190.245
255.0260, 1586.719
256.2390, 1734.550
257.4520, 1915.942
258.6640, 2100.641
259.8770, 2539.549
261.0890, 2683.816
262.3020, 2872.731
263.5140, 3382.678
264.7260, 3929.646
265.9380, 4365.788
267.1500, 4483.795
268.3610, 5195.911
269.5730, 5807.237
270.7840, 6522.732
271.9950, 6881.148
273.2060, 7707.820
274.4170, 8264.273
275.6280, 8948.725
276.8390, 9602.298
278.0490, 10336.12
279.2590, 10652.06
280.4690, 11218.47
281.6800, 11623.70
282.8890, 11763.42
284.0990, 11750.32
285.3090, 11723.18
286.5180, 11153.15
287.7280, 10555.83
288.9370, 10081.53
290.1460, 9397.089
291.3550, 8616.116
292.5630, 8011.489
293.7720, 7400.324
294.9800, 6841.854
296.1890, 5872.960
297.3970, 5153.451
298.6050, 4648.843
299.8130, 4247.589
301.0200, 3844.256
302.2280, 3292.812
303.4360, 3013.436
304.6430, 2821.499
305.8500, 2602.460
307.0570, 2213.032
308.2640, 2027.337
309.4710, 1537.483
310.6770, 1627.807
311.8840, 1460.706
313.0900, 1411.910
314.2960, 1231.967
315.5020, 1080.359
316.7080, 1018.813
317.9140, 835.0791
319.1190, 878.5283
320.3250, 721.6055
321.5300, 697.7109
322.7350, 606.9531
323.9400, 787.7070
325.1450, 660.4355
326.3500, 830.7441
327.5540, 742.6504
328.7580, 395.4893
329.9630, 347.3799
331.1670, 307.0029
332.3710, 291.0127
333.5750, 343.6162
334.7780, 327.5000
335.9820, 215.8008
337.1850, 365.8721
338.3880, 345.3564
339.5920, 325.1377
340.7950, 302.1064
341.9970, 358.4248
343.2000, 348.9561
344.4030, 384.6406
345.6050, 418.4336
346.8070, 382.5225
348.0090, 358.7886
349.2110, 231.7891
350.4130, 311.4219
351.6150, 115.0083
352.8160, 248.2568
354.0170, 192.3379
355.2190, 287.8940
356.4200, 135.3711
357.6210, 107.5142
358.8210, 89.94727
360.0220, 60.26904
361.2220, 128.1846
362.4230, 197.0273
363.6230, 110.2651
364.8230, 147.9224
366.0230, 221.6455
367.2230, 39.64746
368.4220, 88.23340
369.6220, 122.3076
370.8210, 157.5542
372.0200, 118.2373
373.2190, 31.88428
374.4180, 152.0371
375.6170, 29.74854
376.8150, 31.84717
378.0140, 29.23096
379.2120, 32.78662
380.4100, 132.1782
381.6080, 10.95068
382.8060, 53.04639
384.0040, 34.53809
385.2010, 87.27295
386.3980, 44.91211
387.5960, 118.8032
388.7930, 136.3936
389.9900, 70.54004
391.1870, 13.21094
392.3830, 19.63477
393.5800, 56.58496
394.7760, 67.18652
395.9720, 105.9297
397.1680, 15.53369
398.3640, 19.22363
399.5600, 16.79492
400.7560, 123.3828
401.9510, 120.6377
403.1460, 77.88965
404.3420, 60.67627
405.5370, 79.11084
406.7320, 151.7148
407.9260, 114.7510
409.1210, 116.3003
410.3150, 163.6729
411.5100, 300.7778
412.7040, 249.9595
413.8980, 339.1499
415.0920, 336.9932
416.2850, 246.8608
417.4790, 386.9565
418.6720, 465.0239
419.8650, 347.7070
421.0590, 332.1812
422.2510, 493.4619
423.4440, 496.8257
424.6370, 566.7769
425.8290, 370.9136
427.0220, 341.5103
428.2140, 364.0376
429.4060, 302.4424
430.5980, 299.4434
431.7900, 426.2446
432.9810, 397.8521
434.1730, 361.9224
435.3640, 287.3301
436.5550, 328.5796
437.7460, 313.1753
438.9370, 327.9595
440.1280, 372.4912
441.3190, 294.1489
442.5090, 369.9585
443.6990, 281.4043
444.8890, 397.6235
446.0790, 259.4839
447.2690, 278.1357
448.4590, 397.9414
449.6480, 420.0474
450.8380, 409.9834
452.0270, 369.3521
453.2160, 489.3687
454.4050, 475.6553
455.5940, 333.8960
456.7820, 307.8008
457.9710, 408.7339
459.1590, 576.3911
460.3470, 564.9268
461.5350, 465.3672
462.7230, 503.9312
463.9110, 446.8638
465.0990, 367.2578
466.2860, 436.1338
467.4730, 395.6260
468.6600, 448.4204
469.8470, 418.3477
471.0340, 366.2036
472.2210, 422.9268
473.4070, 420.0122
474.5940, 312.6772
475.7800, 385.4092
476.9660, 330.3652
478.1520, 352.4927
479.3380, 408.4961
480.5230, 308.9692
481.7090, 321.7910
482.8940, 263.5518
484.0790, 428.0181
485.2650, 440.5190
486.4490, 307.8770
487.6340, 297.9878
488.8190, 316.3159
490.0030, 346.5625
491.1870, 415.4204
492.3720, 387.7505
493.5550, 351.6450
494.7390, 321.3882
495.9230, 404.4829
497.1060, 322.5908
498.2900, 262.6968
499.4730, 369.3960
500.6560, 348.7769
501.8390, 469.5127
503.0220, 384.1709
504.2040, 287.5059
505.3870, 336.8955
506.5690, 193.6943
507.7510, 299.8530
508.9330, 368.4917
510.1150, 358.5571
511.2970, 296.2915
512.4780, 343.8159
513.6600, 377.8955
514.8410, 296.5073
516.0220, 364.8516
517.2030, 370.9053
518.3840, 369.6152
519.5650, 416.6909
520.7450, 426.0200
521.9250, 316.0200
523.1060, 419.6309
524.2860, 312.1182
525.4660, 326.6953
526.6450, 343.1641
527.8250, 375.0415
529.0040, 266.5234
530.1840, 394.2505
531.3630, 304.2241
532.5420, 322.7373
533.7200, 259.6528
534.8990, 250.3252
536.0780, 249.6021
537.2560, 265.6235
538.4340, 379.6387
539.6120, 275.9414
540.7900, 262.2598
541.9680, 343.2319
543.1460, 364.1777
544.3230, 304.9102
545.5000, 202.5068
546.6770, 287.7119
547.8540, 272.6362
549.0310, 350.9292
550.2080, 425.9302
551.3840, 397.0752
552.5610, 408.9277
553.7370, 332.5776
554.9130, 278.3335
556.0890, 316.6562
557.2650, 258.6108
558.4400, 421.1055
559.6160, 346.1123
560.7910, 476.3682
561.9660, 482.0576
563.1410, 391.6074
564.3160, 313.7578
565.4910, 497.8491
566.6650, 290.1606
567.8400, 376.5762
569.0140, 337.7949
570.1880, 317.0356
571.3620, 369.9453
572.5360, 453.7739
573.7090, 618.0640
574.8830, 198.1670
576.0560, 308.0464
577.2290, 296.5435
578.4020, 165.1436
579.5750, 310.6050
580.7480, 323.0610
581.9200, 245.6372
583.0930, 161.8169
584.2650, 202.2432
585.4370, 209.2295
586.6090, 249.6343
587.7810, 14.39551
588.9520, 171.1611
590.1240, 55.35889
591.2950, 52.57861
592.4660, 144.6851
593.6370, 185.5552
594.8080, 78.98438
595.9790, 48.40186
597.1500, 85.96680
598.3200, 12.75879
599.4900, 126.5474
600.6600, 56.29102
601.8300, 96.92725
603.0000, 73.99512
604.1700, 30.42920
605.3390, 97.33301
606.5080, 91.92871
607.6770, 88.09814
608.8460, 89.38672
610.0150, 13.63281
611.1840, 83.31348
612.3520, 9.026367
613.5210, 38.44531
614.6890, 26.32471
615.8570, 183.4614
617.0250, 202.8101
618.1930, 113.7285
619.3600, 127.2231
620.5280, 11.63770
621.6950, 115.8652
622.8620, 76.55859
624.0290, 71.43799
625.1960, 110.5869
626.3630, 103.4653
627.5290, 169.1948
628.6960, 121.3140
629.8620, 83.53125
631.0280, 129.5498
632.1940, 37.57422
633.3600, 22.50488
634.5250, 108.2651
635.6910, 52.97461
636.8560, 169.7686
638.0210, 101.0796
639.1860, 15.89551
640.3510, 8.012695
641.5150, 64.62256
642.6800, 79.83643
643.8440, 237.8247
645.0080, 120.1724
646.1720, 122.2837
647.3360, 92.35059
648.5000, 70.85889
649.6640, 75.54150
650.8270, 38.49951
651.9900, 109.8008
653.1530, 31.99756
654.3160, 54.11133
655.4790, 151.2422
656.6420, 0.5820310
657.8040, 88.29785
658.9660, 2.408203
660.1290, 89.31250
661.2910, 103.6270
662.4520, 5.812988
663.6140, 5.546387
664.7760, 53.65381
665.9370, 35.28076
667.0980, 40.87549
668.2590, 2.491211
669.4200, 70.52734
670.5810, 22.08545
671.7420, 24.59180
672.9020, 1.409180
674.0620, 7.491699
675.2220, 13.35156
676.3820, 23.93799
677.5420, 25.42383
678.7020, 50.58398
679.8610, 33.30029
681.0210, 22.77686
682.1800, 30.90234
683.3390, 49.49951
684.4980, 5.454102
685.6560, 21.79980
686.8150, 129.6089
687.9730, 96.08057
689.1320, 107.8813
690.2900, 54.80811
691.4480, 151.8975
692.6050, 78.96533
693.7630, 221.2344
694.9200, 154.8403
696.0780, 237.2847
697.2350, 472.2246
698.3920, 622.6597
699.5490, 508.3042
700.7050, 791.9150
701.8620, 967.5649
703.0180, 1194.079
704.1740, 1485.053
705.3300, 2107.603
706.4860, 2414.605
707.6420, 2942.625
708.7970, 3597.835
709.9530, 3992.704
711.1080, 4661.268
712.2630, 5135.768
713.4180, 5323.775
714.5730, 5321.508
715.7280, 5188.960
716.8820, 4696.469
718.0360, 4202.439
719.1900, 3493.949
720.3440, 2929.631
721.4980, 2387.756
722.6520, 1777.526
723.8050, 1400.272
724.9590, 1140.152
726.1120, 923.1953
727.2650, 634.0020
728.4180, 640.4370
729.5700, 387.3545
730.7230, 387.2256
731.8750, 364.5781
733.0280, 187.0181
734.1800, 159.8960
735.3320, 205.6118
736.4830, 109.5190
737.6350, 195.0195
738.7860, 120.0093
739.9380, 119.9487
741.0890, 8.941406
742.2400, 81.45703
743.3910, 138.7202
744.5410, 121.0576
745.6920, 41.24365
746.8420, 199.4370
747.9920, 75.16895
749.1420, 39.67529
750.2920, 44.67236
751.4420, 135.3965
752.5910, 25.00098
753.7410, 86.08496
754.8900, 55.00000
756.0390, 91.01074
757.1880, 19.57812
758.3370, 87.16455
759.4850, 22.35840
760.6340, 154.2456
761.7820, 42.23828
762.9300, 133.0918
764.0780, 201.7705
765.2260, 95.96924
766.3730, 292.9946
767.5210, 210.3730
768.6680, 40.32129
769.8150, 100.3198
770.9620, 86.79834
772.1090, 83.03076
773.2560, 59.53760
774.4020, 114.5801
775.5490, 141.8193
776.6950, 141.7998
777.8410, 35.21338
778.9870, 66.40137
780.1330, 42.55371
781.2780, 16.47266
782.4230, 67.83496
783.5690, 22.29688
784.7140, 27.49854
785.8590, 21.19092
787.0030, 40.41797
788.1480, 3.742676
789.2920, 42.01465
790.4370, 107.4048
791.5810, 22.41016
792.7250, 77.98486
793.8690, 130.5386
795.0120, 4.453613
796.1560, 92.77002
797.2990, 30.92969
798.4420, 22.50049
799.5850, 55.59180
800.7280, 20.45312
801.8710, 56.11230
803.0130, 73.86279
804.1550, 33.32812
805.2980, 40.16895
806.4400, 12.48682
807.5810, 88.83545
808.7230, 157.4741
809.8650, 103.9707
811.0060, 14.78857
812.1470, 11.28418
813.2880, 76.17676
814.4290, 109.8164
815.5700, 69.06299
816.7110, 65.25293
817.8510, 11.67822
818.9910, 82.15381
820.1310, 205.4653
821.2710, 252.6929
822.4110, 7.186523
823.5510, 118.6875
824.6900, 92.10010
825.8290, 89.51758
826.9680, 118.9297
828.1070, 60.06982
829.2460, 67.02930
830.3850, 177.4956
831.5230, 36.96680
832.6620, 107.0195
833.8000, 163.2578
834.9380, 12.20996
836.0760, 79.62891
837.2130, 120.3530
838.3510, 102.7207
839.4880, 131.2217
840.6250, 15.52588
841.7620, 106.4185
842.8990, 152.2910
844.0360, 224.1787
845.1720, 139.6733
846.3090, 198.7246
847.4450, 72.14795
848.5810, 88.48584
849.7170, 196.3560
850.8530, 95.82129
851.9880, 269.6338
853.1240, 237.8223
854.2590, 230.6680
855.3940, 240.6816
856.5290, 205.2266
857.6640, 253.9302
858.7980, 248.6470
859.9330, 288.4590
861.0670, 256.7461
862.2010, 250.6045
863.3350, 360.1006
864.4690, 366.8779
865.6030, 336.8081
866.7360, 385.7354
867.8690, 276.5361
869.0020, 288.7925
870.1350, 356.6104
871.2680, 371.5215
872.4010, 293.9062
873.5330, 411.8838
874.6660, 300.5225
875.7980, 233.6895
876.9300, 224.8008
878.0620, 122.1260
879.1930, 102.0000
880.3250, 143.1553
881.4560, 165.9482
882.5870, 151.4336
883.7180, 255.3281
884.8490, 162.4297
885.9800, 167.2109
887.1100, 110.8760
888.2410, 199.2832
889.3710, 62.71973
890.5010, 251.7178
891.6310, 233.3027
892.7610, 17.41504
893.8900, 218.4922
895.0200, 186.9619
896.1490, 115.7939
897.2780, 281.1133
898.4070, 300.5146
899.5360, 132.6289
900.6640, 231.4102
901.7920, 90.40430
902.9210, 188.8145
904.0490, 245.3164
905.1770, 38.87012
906.3040, 291.4609
907.4320, 86.20410
908.5600, 245.5967
909.6870, 183.8262
910.8140, 227.2383
911.9410, 315.6973
913.0680, 248.0967
914.1940, 93.99219
915.3210, 206.9541
916.4470, 206.7529
917.5730, 115.3789
918.6990, 136.1504
919.8250, 57.26758
920.9500, 101.7334
922.0760, 64.12305
923.2010, 213.5234
924.3260, 268.5166
925.4510, 197.8076
926.5760, 158.3096
927.7010, 112.9355
928.8250, 161.1797
929.9500, 147.5791
931.0740, 131.1982
932.1980, 59.30371
933.3220, 48.08203
934.4450, 158.2334
935.5690, 103.9873
936.6920, 139.5293
937.8150, 154.1523
938.9380, 95.78125
940.0610, 98.03906
941.1840, 5.583984
942.3060, 131.5625
943.4290, 10.63281
944.5510, 85.27441
945.6730, 110.6230
946.7950, 37.37793
947.9160, 37.23145
949.0380, 22.32520
950.1590, 76.58594
951.2800, 102.5352
952.4010, 101.8428
953.5220, 6.312500
954.6430, 23.83008
955.7630, 0.4941410
956.8840, 26.97363
958.0040, 21.65625
959.1240, 69.96680
960.2440, 22.18066
961.3640, 39.31641
962.4830, 19.88770
963.6030, 112.7695
964.7220, 143.6084
965.8410, 32.84082
966.9600, 52.40918
968.0780, 60.19531
969.1970, 64.85742
970.3150, 19.02930
971.4340, 138.4141
972.5520, 15.89551
973.6700, 27.77734
974.7870, 8.440430
975.9050, 38.04395
977.0220, 54.89062
978.1390, 4.758789
979.2560, 89.57910
980.3730, 27.24316
981.4900, 77.80469
982.6070, 68.65625
983.7230, 179.1396
984.8390, 25.00391
985.9550, 12.15137
987.0710, 59.85938
988.1870, 2.916992
989.3030, 74.07227
990.4180, 172.3594
991.5330, 119.9697
992.6480, 102.8301
993.7630, 66.41992
994.8780, 179.2334
995.9930, 267.7393
997.1070, 101.8145
998.2210, 23.08398
999.3350, 212.1963
1000.449, 199.7783
1001.563, 218.3174
1002.677, 335.5254
1003.790, 159.5977
1004.903, 97.31250
1006.016, 256.4512
1007.129, 15.68848
1008.242, 160.4014
1009.355, 184.5459
1010.467, 185.3613
1011.579, 143.7148
1012.691, 175.3994
1013.803, 151.5029
1014.915, 206.6934
1016.027, 186.3428
1017.138, 232.3281
1018.249, 284.7344
1019.360, 312.7285
1020.471, 92.44434
1021.582, 230.5361
1022.693, 337.2480
1023.803, 248.7617
1024.913, 347.6035
1026.023, 206.4922
1027.133, 152.0107
1028.243, 310.8457
1029.353, 414.6084
1030.462, 392.6533
1031.571, 240.0566
1032.680, 463.7803
1033.789, 281.6875
1034.898, 350.0654
1036.007, 363.2363
1037.115, 313.1084
1038.223, 355.9697
1039.331, 405.7441
1040.439, 326.9629
1041.547, 442.0000
1042.655, 490.1523
1043.762, 545.4932
1044.869, 444.5801
1045.976, 506.4463
1047.083, 679.6348
1048.190, 577.2900
1049.297, 683.7295
1050.403, 674.6611
1051.509, 636.1143
1052.615, 748.9424
1053.721, 744.0625
1054.827, 865.2207
1055.933, 850.3662
1057.038, 932.1924
1058.143, 959.1855
1059.248, 1250.960
1060.353, 1188.697
1061.458, 1344.796
1062.563, 1420.326
1063.667, 1601.346
1064.771, 1700.502
1065.875, 2043.833
1066.979, 2439.314
1068.083, 2968.344
1069.186, 3810.904
1070.290, 4919.166
1071.393, 6554.607
1072.496, 9774.289
1073.599, 12317.45
1074.702, 16376.40
1075.804, 21524.35
1076.907, 26712.79
1078.009, 32456.64
1079.111, 36989.30
1080.213, 40630.96
1081.315, 43464.40
1082.416, 45450.17
1083.517, 47267.80
1084.619, 48672.98
1085.720, 49305.64
1086.821, 48700.48
1087.921, 47486.05
1089.022, 44439.21
1090.122, 40780.46
1091.222, 35846.87
1092.322, 30822.76
1093.422, 25954.29
1094.522, 21051.81
1095.622, 16795.73
1096.721, 13258.30
1097.820, 10209.99
1098.919, 7748.136
1100.018, 5979.927
1101.117, 4377.057
1102.215, 3308.408
1103.314, 2538.859
1104.412, 2088.920
1105.510, 1357.115
1106.608, 1081.691
1107.705, 947.7773
1108.803, 779.7363
1109.900, 861.0859
1110.997, 526.4551
1112.094, 367.6357
1113.191, 442.2949
1114.288, 408.6367
1115.384, 327.4512
1116.481, 402.0850
1117.577, 288.7314
1118.673, 399.7178
1119.769, 338.0791
1120.864, 288.0840
1121.960, 249.2705
1123.055, 358.7930
1124.150, 331.4131
1125.245, 373.8926
1126.340, 103.3564
1127.434, 367.3730
1128.529, 208.8916
1129.623, 199.3691
1130.717, 219.9180
1131.811, 330.6768
1132.905, 85.53711
1133.999, 118.4121
1135.092, 147.5098
1136.185, 236.3027
1137.279, 118.2812
1138.371, 62.13867
1139.464, 186.5010
1140.557, 294.3037
1141.649, 50.47363
1142.742, 134.9688
1143.834, 176.3213
1144.926, 38.51758
1146.017, 41.77246
1147.109, 177.3018
1148.200, 65.34473
1149.292, 50.99023
1150.383, 40.14551
1151.474, 95.33984
1152.564, 170.6387
1153.655, 332.1201
1154.745, 227.8174
1155.835, 82.72656
1156.925, 42.74512
1158.015, 102.9766
1159.105, 15.25391
1160.195, 223.8730
1161.284, 69.70898
1162.373, 133.4678
1163.462, 59.21582
1164.551, 70.76074
1165.640, 39.47363
1166.728, 170.3066
1167.817, 84.99023
1168.905, 125.5205
1169.993, 154.3828
1171.081, 293.4355
1172.168, 115.3701
1173.256, 230.5469
1174.343, 56.07422
1175.430, 194.9824
1176.517, 80.40332
1177.604, 158.2305
1178.691, 115.2285
1179.777, 23.61719
1180.864, 129.1221
1181.950, 135.3672
1183.036, 50.45215
1184.121, 127.2188
1185.207, 68.30664
1186.293, 94.81250
1187.378, 64.51270
1188.463, 62.79102
1189.548, 27.33691
1190.633, 217.3857
1191.717, 72.11328
1192.802, 5.561523
1193.886, 90.40625
1194.970, 263.0537
1196.054, 132.4600
1197.138, 22.23145
1198.221, 25.49805
1199.305, 73.53418
1200.388, 163.2490
1201.471, 117.7676
1202.554, 2.197266
1203.637, 18.01562
1204.719, 192.5469
1205.801, 33.82422
1206.884, 28.97363
1207.966, 101.3164
1209.048, 112.5527
1210.129, 68.01367
1211.211, 103.4102
1212.292, 202.5938
1213.373, 300.8320
1214.454, 5.582031
1215.535, 22.11914
1216.616, 89.72168
1217.696, 175.7666
1218.777, 290.3916
1219.857, 131.6885
1220.937, 144.8066
1222.017, 294.3408
1223.096, 82.22656
1224.176, 83.42285
1225.255, 213.1299
1226.334, 168.4463
1227.413, 156.1523
1228.492, 154.6035
1229.570, 242.8555
1230.649, 156.3516
1231.727, 155.1934
1232.805, 226.8398
1233.883, 216.3613
1234.961, 237.2207
1236.038, 320.0137
1237.116, 212.8262
1238.193, 70.29492
1239.270, 197.3086
1240.347, 415.8516
1241.424, 294.9316
1242.500, 253.1387
1243.577, 446.9609
1244.653, 341.3008
1245.729, 466.2246
1246.805, 289.3535
1247.880, 331.4258
1248.956, 597.5996
1250.031, 252.3672
1251.106, 374.4453
1252.181, 372.3730
1253.256, 277.4707
1254.331, 276.6895
1255.405, 463.9531
1256.480, 421.7129
1257.554, 369.9629
1258.628, 431.2461
1259.701, 312.2578
1260.775, 430.8086
1261.849, 373.2852
1262.922, 364.4531
1263.995, 405.0410
1265.068, 277.9863
1266.141, 387.1172
1267.213, 551.2617
1268.286, 394.6777
1269.358, 419.0801
1270.430, 331.7031
1271.502, 468.0078
1272.573, 435.0957
1273.645, 479.2090
1274.716, 415.4492
1275.788, 378.9004
1276.859, 449.1953
1277.929, 564.6367
1279.000, 467.8770
1280.071, 458.9102
1281.141, 426.1074
1282.211, 494.5215
1283.281, 286.1602
1284.351, 361.3848
1285.421, 406.9590
1286.490, 425.2422
1287.559, 337.8125
1288.628, 386.9023
1289.697, 382.5664
1290.766, 374.4355
1291.835, 444.0938
1292.903, 372.4062
1293.972, 439.1895
1295.040, 449.7227
1296.108, 233.2461
1297.175, 669.6465
1298.243, 366.0352
1299.310, 328.2539
1300.377, 265.8184
1301.444, 483.1660
1302.511, 408.3047
1303.578, 448.9297
1304.645, 334.4766
1305.711, 447.2109
1306.777, 378.1836
1307.843, 495.8047
1308.909, 199.4746
1309.975, 471.1699
1311.040, 241.6016
1312.105, 287.5020
1313.171, 328.5391
1314.235, 372.4746
1315.300, 443.1602
1316.365, 513.3945
1317.429, 418.9297
1318.494, 506.6562
1319.558, 315.4941
1320.622, 351.9941
1321.685, 465.5742
1322.749, 482.6348
1323.812, 271.5156
1324.876, 264.5918
1325.939, 368.2539
1327.001, 261.8828
1328.064, 307.9199
1329.127, 325.3066
1330.189, 315.1699
1331.251, 199.3652
1332.313, 219.0254
1333.375, 185.8926
1334.437, 147.7891
1335.498, 187.3379
1336.560, 86.69922
1337.621, 118.7383
1338.682, 291.4277
1339.742, 134.4453
1340.803, 268.5000
1341.863, 177.3184
1342.924, 177.2422
1343.984, 38.43555
1345.044, 432.2695
1346.104, 263.1230
1347.163, 315.1152
1348.222, 329.7207
1349.282, 202.2305
1350.341, 9.324219
1351.400, 110.2812
1352.458, 21.18164
1353.517, 80.46680
1354.575, 123.1445
1355.633, 137.9004
1356.691, 145.2852
1357.749, 4.996094
1358.807, 82.25000
1359.864, 76.33203
1360.922, 77.38672
1361.979, 131.7676
1363.036, 258.5293
1364.092, 113.3223
1365.149, 303.3770
1366.205, 38.95898
1367.262, 112.9316
1368.318, 43.41016
1369.374, 213.3848
1370.429, 159.2852
1371.485, 118.3301
1372.540, 37.81836
1373.596, 88.57617
1374.651, 122.9922
1375.705, 141.3965
1376.760, 274.9512
1377.815, 183.1816
1378.869, 164.7461
1379.923, 180.8730
1380.977, 65.91602
1382.031, 135.2363
1383.085, 302.6660
1384.138, 214.0371
1385.191, 230.9043
1386.244, 240.5957
1387.297, 167.8652
1388.350, 213.4785
1389.403, 228.0254
1390.455, 334.4355
1391.507, 479.2891
1392.559, 251.1484
1393.611, 324.7676
1394.663, 405.9004
1395.714, 495.2148
1396.766, 511.4609
1397.817, 544.1367
1398.868, 641.2031
1399.919, 637.9414
1400.969, 670.6719
1402.020, 583.8711
1403.070, 717.7168
1404.120, 530.6777
1405.170, 824.9180
1406.220, 868.5332
1407.270, 739.8184
1408.319, 722.5957
1409.368, 611.4336
1410.417, 487.1953
1411.466, 680.2266
1412.515, 782.0195
1413.563, 682.6875
1414.612, 674.7773
1415.660, 484.1250
1416.708, 653.9941
1417.756, 354.6699
1418.803, 340.3828
1419.851, 606.6074
1420.898, 635.9082
1421.945, 516.0312
1422.992, 525.0488
1424.039, 527.6895
1425.086, 553.2109
1426.132, 565.0059
1427.178, 633.3301
1428.225, 515.8887
1429.270, 472.3926
1430.316, 533.8906
1431.362, 568.7090
1432.407, 544.8789
1433.452, 541.4902
1434.497, 633.4883
1435.542, 685.9941
1436.587, 736.4258
1437.631, 901.1777
1438.676, 793.4570
1439.720, 835.7012
1440.764, 667.9766
1441.807, 767.3652
1442.851, 582.4512
1443.895, 716.3730
1444.938, 575.3477
1445.981, 463.3203
1447.024, 565.7227
1448.066, 495.7754
1449.109, 665.4453
1450.151, 693.7988
1451.194, 685.3750
1452.236, 639.4824
1453.277, 263.6504
1454.319, 453.6348
1455.361, 593.7539
1456.402, 316.0156
1457.443, 525.9883
1458.484, 315.7285
1459.525, 406.0547
1460.565, 427.7090
1461.606, 306.6914
1462.646, 310.1719
1463.686, 500.9316
1464.726, 343.5938
1465.766, 392.8145
1466.805, 262.2676
1467.845, 74.13672
1468.884, 146.0664
1469.923, 191.0605
1470.962, 202.7227
1472.000, 93.59180
1473.039, 141.4023
1474.077, 117.8066
1475.115, 105.4551
1476.153, 171.5801
1477.191, 77.63672
1478.229, 146.3828
1479.266, 40.36719
1480.303, 178.4180
1481.340, 198.7461
1482.377, 81.13086
1483.414, 112.7227
1484.451, 41.65625
1485.487, 27.23828
1486.523, 85.50000
1487.559, 173.8848
1488.595, 87.94141
1489.631, 168.2129
1490.666, 1.193359
1491.701, 340.0625
1492.736, 27.50391
1493.771, 174.9629
1494.806, 14.81250
1495.841, 307.1133
1496.875, 94.30859
1497.909, 366.0234
1498.943, 226.2520
1499.977, 228.6230
1501.011, 192.7266
1502.045, 157.2305
1503.078, 157.4609
1504.111, 406.4902
1505.144, 292.2012
1506.177, 421.6641
1507.209, 304.0820
1508.242, 238.1992
1509.274, 506.6172
1510.306, 330.1289
1511.338, 593.8203
1512.370, 535.9141
1513.402, 428.6133
1514.433, 409.8047
1515.464, 303.2852
1516.495, 372.8047
1517.526, 593.8672
1518.557, 557.4961
1519.587, 535.3984
1520.617, 612.3164
1521.648, 545.5234
1522.678, 488.6797
1523.707, 480.0430
1524.737, 624.7578
1525.766, 578.3125
1526.796, 694.8164
1527.825, 548.4180
1528.854, 668.9102
1529.882, 521.7383
1530.911, 578.2969
1531.939, 376.0742
1532.967, 492.1602
1533.995, 326.8984
1535.023, 270.1914
1536.051, 346.5664
1537.078, 620.8828
1538.106, 527.7852
1539.133, 235.9883
1540.160, 457.1562
1541.186, 272.5156
1542.213, 490.4219
1543.239, 393.3984
1544.266, 355.2695
1545.292, 296.1953
1546.318, 326.8047
1547.343, 457.3633
1548.369, 144.2070
1549.394, 412.3281
1550.419, 267.5508
1551.444, 74.03125
1552.469, 200.7734
1553.494, 244.8320
1554.518, 268.6953
1555.542, 154.2383
1556.566, 169.0312
1557.590, 137.1328
1558.614, 145.4297
1559.638, 175.7383
1560.661, 12.81250
1561.684, 161.1484
1562.707, 127.8438
1563.730, 364.4375
1564.753, 212.1289
1565.775, 8.484375
1566.797, 319.5547
1567.819, 428.2383
1568.841, 291.1094
1569.863, 1.414063
1570.885, 462.0078
1571.906, 144.1797
1572.927, 0.0000000E+00
##END=



