##NAMES=Kutnohorite
##RRUFFID=R060473
##IDEAL CHEMISTRY=CaMn^2+^(CO_3_)_2_
##LOCALITY=N'Chwaning II mine, Kalahari manganese field, northern Cape Province, Republic of South Africa
##OWNER=RRUFF
##SOURCE=Michael Scott
##DESCRIPTION=Aggregate of parallel pink colored acicular crystals
##STATUS=The identification of this mineral has been confirmed by X-ray diffraction and chemical analysis
##URL=rruff.info/R060473
##MEASURED CHEMISTRY=Ca_1.00_(Mn^2+^_0.63_Ca_0.35_Mg_0.02_)(CO_3_)_2_
##PIN_ID=L00557
##ORIENTATION=Laser parallel to -a* (-1 0 0). Fiducial mark perpendicular to laser is parallel to -c [0 0 -1]
101.0590, 0.0000000E+00
102.2900, 104.3193
103.5200, 468.2100
104.7500, 1101.067
105.9810, 1382.173
107.2110, 2029.914
108.4410, 2325.046
109.6700, 1510.921
110.9000, 1371.798
112.1300, 1217.246
113.3590, 1462.344
114.5880, 1461.907
115.8170, 1677.057
117.0460, 1429.271
118.2750, 1095.162
119.5040, 743.1172
120.7320, 573.6064
121.9610, 583.2783
123.1890, 136.9883
124.4170, 46.95117
125.6450, 173.3418
126.8730, 71.95801
128.1010, 34.75586
129.3280, 451.5391
130.5560, 491.1133
131.7830, 340.9951
133.0100, 169.6875
134.2380, 655.7109
135.4640, 552.4609
136.6910, 504.7236
137.9180, 862.5264
139.1440, 935.9756
140.3710, 994.2256
141.5970, 1029.395
142.8230, 991.5820
144.0490, 1496.865
145.2750, 1612.574
146.5000, 1636.578
147.7260, 1825.505
148.9510, 2437.793
150.1770, 2525.165
151.4020, 2819.979
152.6270, 3205.958
153.8520, 3490.364
155.0760, 3650.811
156.3010, 4046.861
157.5250, 4382.467
158.7500, 4543.998
159.9740, 4709.494
161.1980, 4707.416
162.4220, 4364.158
163.6450, 4412.980
164.8690, 4079.592
166.0920, 4117.654
167.3160, 3946.615
168.5390, 3828.000
169.7620, 3727.108
170.9850, 3587.699
172.2080, 3472.956
173.4300, 3250.148
174.6530, 3008.506
175.8750, 2890.064
177.0970, 2387.855
178.3190, 2148.826
179.5410, 2166.930
180.7630, 1887.110
181.9850, 1492.322
183.2060, 1323.547
184.4270, 1006.781
185.6490, 886.9863
186.8700, 965.9570
188.0910, 590.7305
189.3110, 717.4238
190.5320, 665.0547
191.7530, 550.6230
192.9730, 344.1230
194.1930, 420.5400
195.4130, 535.8730
196.6330, 424.1123
197.8530, 302.2568
199.0730, 224.2988
200.2920, 291.2354
201.5120, 329.0654
202.7310, 167.7793
203.9500, 198.3584
205.1690, 69.79102
206.3880, 381.0703
207.6070, 360.1904
208.8250, 0.1484380
210.0440, 149.9443
211.2620, 70.42188
212.4800, 135.2920
213.6980, 23.06641
214.9160, 105.0049
216.1340, 84.11719
217.3510, 82.75586
218.5690, 158.3047
219.7860, 0.1816410
221.0030, 142.4092
222.2200, 225.0654
223.4370, 141.3105
224.6540, 78.31641
225.8700, 63.91309
227.0870, 45.62598
228.3030, 107.4092
229.5190, 78.26660
230.7350, 106.8154
231.9510, 242.7666
233.1670, 326.9434
234.3820, 312.8682
235.5980, 372.7383
236.8130, 444.2725
238.0280, 606.4531
239.2430, 532.1289
240.4580, 833.6377
241.6730, 801.2324
242.8880, 721.1914
244.1020, 718.3330
245.3160, 905.1992
246.5300, 897.9932
247.7450, 1032.786
248.9580, 1165.560
250.1720, 1218.958
251.3860, 1373.286
252.5990, 1625.154
253.8130, 1910.940
255.0260, 2154.756
256.2390, 2314.003
257.4520, 2445.182
258.6640, 2818.000
259.8770, 3401.408
261.0890, 3600.565
262.3020, 3925.493
263.5140, 4385.981
264.7260, 5180.449
265.9380, 5863.142
267.1500, 6267.000
268.3610, 6855.314
269.5730, 7617.666
270.7840, 8479.235
271.9950, 9323.846
273.2060, 10171.06
274.4170, 11233.22
275.6280, 12221.27
276.8390, 13065.45
278.0490, 14091.85
279.2590, 14558.18
280.4690, 14910.53
281.6800, 15334.17
282.8890, 15761.86
284.0990, 15607.43
285.3090, 15333.42
286.5180, 14664.57
287.7280, 13981.45
288.9370, 13481.62
290.1460, 12882.09
291.3550, 11687.44
292.5630, 10557.86
293.7720, 9880.955
294.9800, 8950.826
296.1890, 7962.626
297.3970, 7182.271
298.6050, 6404.746
299.8130, 5821.123
301.0200, 5204.541
302.2280, 4720.435
303.4360, 4085.798
304.6430, 3865.573
305.8500, 3500.029
307.0570, 3049.381
308.2640, 2592.469
309.4710, 2373.971
310.6770, 2081.503
311.8840, 1974.789
313.0900, 1767.860
314.2960, 1477.525
315.5020, 1303.326
316.7080, 1244.139
317.9140, 1069.500
319.1190, 1002.962
320.3250, 875.0029
321.5300, 827.1343
322.7350, 903.5742
323.9400, 852.5879
325.1450, 824.7588
326.3500, 609.3398
327.5540, 580.7744
328.7580, 587.1016
329.9630, 400.1724
331.1670, 449.0693
332.3710, 490.0464
333.5750, 427.0820
334.7780, 445.4849
335.9820, 322.2598
337.1850, 387.7783
338.3880, 236.1284
339.5920, 284.1509
340.7950, 278.3901
341.9970, 271.7744
343.2000, 266.6035
344.4030, 234.7373
345.6050, 214.7817
346.8070, 238.9243
348.0090, 355.8936
349.2110, 201.0063
350.4130, 137.1606
351.6150, 137.0430
352.8160, 171.6631
354.0170, 245.7090
355.2190, 310.4575
356.4200, 177.6440
357.6210, 111.9351
358.8210, 96.77051
360.0220, 46.35645
361.2220, 61.92285
362.4230, 26.02344
363.6230, 57.16162
364.8230, 26.33643
366.0230, 119.9829
367.2230, 26.07812
368.4220, 4.562500
369.6220, 58.61963
370.8210, 109.7080
372.0200, 21.41748
373.2190, 13.44482
374.4180, 43.20752
375.6170, 28.64209
376.8150, 61.95410
378.0140, 18.14111
379.2120, 5.491699
380.4100, 81.30762
381.6080, 37.14502
382.8060, 53.35254
384.0040, 94.47412
385.2010, 83.62891
386.3980, 47.60010
387.5960, 43.78613
388.7930, 25.31201
389.9900, 32.95752
391.1870, 21.94629
392.3830, 53.67920
393.5800, 86.45801
394.7760, 35.88672
395.9720, 78.28760
397.1680, 37.53174
398.3640, 32.63525
399.5600, 125.0059
400.7560, 82.81592
401.9510, 82.44873
403.1460, 95.69531
404.3420, 65.93945
405.5370, 76.09375
406.7320, 113.8877
407.9260, 87.82520
409.1210, 41.07227
410.3150, 153.3623
411.5100, 244.2998
412.7040, 171.2568
413.8980, 223.8989
415.0920, 206.4219
416.2850, 166.1104
417.4790, 185.6304
418.6720, 298.1714
419.8650, 221.2437
421.0590, 287.1230
422.2510, 300.8599
423.4440, 266.4600
424.6370, 146.9170
425.8290, 325.2280
427.0220, 308.5181
428.2140, 400.5796
429.4060, 316.4941
430.5980, 337.7725
431.7900, 228.4233
432.9810, 350.3999
434.1730, 337.9443
435.3640, 274.3398
436.5550, 301.5469
437.7460, 308.7861
438.9370, 272.6367
440.1280, 260.4224
441.3190, 246.3521
442.5090, 215.2798
443.6990, 145.3481
444.8890, 193.9473
446.0790, 254.9570
447.2690, 294.7485
448.4590, 285.0518
449.6480, 253.3296
450.8380, 241.5640
452.0270, 315.8628
453.2160, 258.7578
454.4050, 270.4678
455.5940, 284.3154
456.7820, 344.7456
457.9710, 279.3169
459.1590, 245.5762
460.3470, 323.6699
461.5350, 269.4419
462.7230, 341.8569
463.9110, 290.7969
465.0990, 187.3765
466.2860, 258.7939
467.4730, 190.8486
468.6600, 301.0723
469.8470, 304.4761
471.0340, 298.2041
472.2210, 326.7407
473.4070, 335.7646
474.5940, 283.8740
475.7800, 293.8926
476.9660, 299.4404
478.1520, 364.0806
479.3380, 277.0652
480.5230, 316.2957
481.7090, 197.3787
482.8940, 226.9526
484.0790, 285.3909
485.2650, 231.5930
486.4490, 208.6399
487.6340, 330.4585
488.8190, 348.9490
490.0030, 248.6580
491.1870, 267.6465
492.3720, 239.9155
493.5550, 325.6211
494.7390, 332.3486
495.9230, 249.5996
497.1060, 291.7910
498.2900, 299.6040
499.4730, 296.3208
500.6560, 319.5393
501.8390, 313.7881
503.0220, 359.2256
504.2040, 239.9810
505.3870, 314.8794
506.5690, 256.6296
507.7510, 280.3948
508.9330, 295.6040
510.1150, 216.8767
511.2970, 288.9160
512.4780, 182.6565
513.6600, 291.1675
514.8410, 243.8040
516.0220, 253.4351
517.2030, 274.0176
518.3840, 323.4172
519.5650, 340.7825
520.7450, 339.8447
521.9250, 224.0073
523.1060, 242.9355
524.2860, 281.8105
525.4660, 250.9114
526.6450, 308.9565
527.8250, 203.5950
529.0040, 229.3367
530.1840, 296.9280
531.3630, 255.1028
532.5420, 317.7876
533.7200, 315.2664
534.8990, 261.0435
536.0780, 247.7290
537.2560, 309.8462
538.4340, 250.4412
539.6120, 305.3459
540.7900, 300.5962
541.9680, 218.8435
543.1460, 219.6421
544.3230, 270.8477
545.5000, 231.9456
546.6770, 213.2712
547.8540, 260.2739
549.0310, 186.8196
550.2080, 319.2014
551.3840, 262.2915
552.5610, 333.7891
553.7370, 265.6052
554.9130, 355.0537
556.0890, 314.6621
557.2650, 239.1365
558.4400, 243.3801
559.6160, 206.6450
560.7910, 282.3186
561.9660, 397.6360
563.1410, 358.1709
564.3160, 360.7065
565.4910, 354.0420
566.6650, 308.8208
567.8400, 253.2908
569.0140, 272.6345
570.1880, 273.3071
571.3620, 151.5735
572.5360, 266.8718
573.7090, 153.6582
574.8830, 222.8975
576.0560, 224.0303
577.2290, 234.8428
578.4020, 192.7170
579.5750, 251.5691
580.7480, 233.2200
581.9200, 164.7705
583.0930, 131.2075
584.2650, 63.46313
585.4370, 141.3713
586.6090, 9.428955
587.7810, 28.68506
588.9520, 113.0520
590.1240, 87.32471
591.2950, 65.41162
592.4660, 18.39551
593.6370, 83.63525
594.8080, 96.58398
595.9790, 32.53052
597.1500, 101.4812
598.3200, 37.63452
599.4900, 81.46362
600.6600, 90.24780
601.8300, 137.2280
603.0000, 11.86328
604.1700, 37.41528
605.3390, 49.45093
606.5080, 101.9546
607.6770, 141.8809
608.8460, 44.33765
610.0150, 0.6240230
611.1840, 101.3262
612.3520, 125.0833
613.5210, 32.66479
614.6890, 33.45947
615.8570, 67.93701
617.0250, 90.71143
618.1930, 61.10840
619.3600, 68.22607
620.5280, 48.51929
621.6950, 127.3567
622.8620, 50.21948
624.0290, 50.29492
625.1960, 74.44995
626.3630, 81.41748
627.5290, 67.25269
628.6960, 83.70361
629.8620, 57.30640
631.0280, 92.33008
632.1940, 46.41504
633.3600, 36.38354
634.5250, 8.927979
635.6910, 170.4531
636.8560, 70.23560
638.0210, 42.66772
639.1860, 46.63403
640.3510, 15.89502
641.5150, 7.745605
642.6800, 21.14233
643.8440, 16.49927
645.0080, 62.31860
646.1720, 0.4069820
647.3360, 4.658447
648.5000, 31.65576
649.6640, 83.10767
650.8270, 42.18921
651.9900, 24.67310
653.1530, 15.08765
654.3160, 16.17700
655.4790, 22.33691
656.6420, 62.95068
657.8040, 27.24072
658.9660, 32.77881
660.1290, 47.91235
661.2910, 8.405762
662.4520, 63.69800
663.6140, 8.338623
664.7760, 36.64355
665.9370, 70.28687
667.0980, 45.50098
668.2590, 70.74194
669.4200, 24.53247
670.5810, 38.80249
671.7420, 32.59619
672.9020, 9.152344
674.0620, 12.08984
675.2220, 9.567139
676.3820, 81.27930
677.5420, 3.812744
678.7020, 49.93066
679.8610, 68.03540
681.0210, 94.12085
682.1800, 120.9146
683.3390, 7.594727
684.4980, 47.68994
685.6560, 158.1553
686.8150, 1.811523
687.9730, 152.2798
689.1320, 144.6587
690.2900, 107.6074
691.4480, 183.3403
692.6050, 241.0776
693.7630, 204.8232
694.9200, 231.4785
696.0780, 364.1045
697.2350, 319.5234
698.3920, 640.0366
699.5490, 790.4409
700.7050, 939.5820
701.8620, 1275.212
703.0180, 1492.965
704.1740, 2088.639
705.3300, 2472.131
706.4860, 3126.613
707.6420, 3583.133
708.7970, 4232.112
709.9530, 4898.522
711.1080, 5421.565
712.2630, 5850.731
713.4180, 6265.286
714.5730, 6148.345
715.7280, 5874.237
716.8820, 5187.261
718.0360, 4665.394
719.1900, 3917.763
720.3440, 3337.975
721.4980, 2599.234
722.6520, 2087.170
723.8050, 1708.453
724.9590, 1361.550
726.1120, 922.3257
727.2650, 791.9819
728.4180, 538.8076
729.5700, 488.7842
730.7230, 336.3652
731.8750, 319.7246
733.0280, 291.5957
734.1800, 216.2344
735.3320, 164.6060
736.4830, 166.2158
737.6350, 233.9531
738.7860, 120.4565
739.9380, 140.2871
741.0890, 92.31152
742.2400, 63.66650
743.3910, 59.49072
744.5410, 72.30371
745.6920, 32.08301
746.8420, 66.42822
747.9920, 29.48438
749.1420, 44.04443
750.2920, 74.90479
751.4420, 136.4609
752.5910, 85.91650
753.7410, 101.7988
754.8900, 32.67236
756.0390, 10.65430
757.1880, 4.964355
758.3370, 107.2314
759.4850, 8.377441
760.6340, 116.2471
761.7820, 89.67285
762.9300, 122.1616
764.0780, 106.7837
765.2260, 109.8267
766.3730, 78.20117
767.5210, 54.79639
768.6680, 12.41162
769.8150, 83.83838
770.9620, 77.83643
772.1090, 20.72070
773.2560, 26.60889
774.4020, 117.2241
775.5490, 78.26904
776.6950, 25.46484
777.8410, 26.46143
778.9870, 21.14795
780.1330, 122.5781
781.2780, 52.28711
782.4230, 56.96582
783.5690, 64.81885
784.7140, 48.37500
785.8590, 59.10938
787.0030, 0.6474610
788.1480, 63.43018
789.2920, 89.65625
790.4370, 137.1846
791.5810, 78.50098
792.7250, 45.08789
793.8690, 23.21191
795.0120, 79.32227
796.1560, 82.20410
797.2990, 67.24365
798.4420, 1.329590
799.5850, 0.6152340
800.7280, 90.88477
801.8710, 41.02148
803.0130, 21.70752
804.1550, 8.520996
805.2980, 3.848145
806.4400, 41.48975
807.5810, 5.192383
808.7230, 30.77832
809.8650, 15.91895
811.0060, 53.42529
812.1470, 8.146484
813.2880, 58.21582
814.4290, 75.02637
815.5700, 49.50098
816.7110, 24.84473
817.8510, 25.47998
818.9910, 18.10400
820.1310, 41.82617
821.2710, 12.31494
822.4110, 98.00098
823.5510, 29.70312
824.6900, 116.9492
825.8290, 63.10303
826.9680, 48.82031
828.1070, 46.36523
829.2460, 87.02734
830.3850, 45.44531
831.5230, 107.4116
832.6620, 107.7681
833.8000, 90.05615
834.9380, 67.43604
836.0760, 53.15723
837.2130, 81.17578
838.3510, 80.94727
839.4880, 45.44580
840.6250, 57.88184
841.7620, 95.35059
842.8990, 91.18750
844.0360, 47.01465
845.1720, 191.5459
846.3090, 86.75684
847.4450, 47.49561
848.5810, 128.0469
849.7170, 156.8330
850.8530, 99.40869
851.9880, 136.0347
853.1240, 110.5669
854.2590, 37.10400
855.3940, 34.46582
856.5290, 48.54248
857.6640, 202.9038
858.7980, 22.97656
859.9330, 85.86182
861.0670, 203.8140
862.2010, 143.9297
863.3350, 186.6162
864.4690, 258.2896
865.6030, 158.2656
866.7360, 239.2256
867.8690, 236.5952
869.0020, 164.4741
870.1350, 321.9028
871.2680, 222.1631
872.4010, 268.5654
873.5330, 128.9238
874.6660, 223.2300
875.7980, 148.4097
876.9300, 143.3311
878.0620, 113.3032
879.1930, 78.84180
880.3250, 87.82861
881.4560, 141.9370
882.5870, 39.82910
883.7180, 0.5249020
884.8490, 69.63525
885.9800, 95.74072
887.1100, 185.9673
888.2410, 111.4585
889.3710, 26.52246
890.5010, 34.33936
891.6310, 96.88916
892.7610, 70.67969
893.8900, 153.9380
895.0200, 156.7383
896.1490, 55.29248
897.2780, 5.883789
898.4070, 56.30176
899.5360, 41.80322
900.6640, 17.18604
901.7920, 80.52344
902.9210, 36.73535
904.0490, 194.7363
905.1770, 109.8208
906.3040, 116.8433
907.4320, 126.7915
908.5600, 90.45117
909.6870, 70.08398
910.8140, 99.04199
911.9410, 189.7852
913.0680, 71.26904
914.1940, 106.7046
915.3210, 114.0649
916.4470, 90.80176
917.5730, 85.19238
918.6990, 81.54980
919.8250, 80.88623
920.9500, 5.102051
922.0760, 36.98584
923.2010, 72.71729
924.3260, 69.84326
925.4510, 59.03223
926.5760, 25.37061
927.7010, 7.589355
928.8250, 84.24219
929.9500, 57.59082
931.0740, 38.53223
932.1980, 128.2681
933.3220, 41.95215
934.4450, 61.02637
935.5690, 74.12695
936.6920, 41.74609
937.8150, 124.1021
938.9380, 12.33447
940.0610, 13.44922
941.1840, 27.07471
942.3060, 112.2148
943.4290, 38.08398
944.5510, 94.20020
945.6730, 52.06885
946.7950, 43.04346
947.9160, 118.1191
949.0380, 73.00928
950.1590, 44.91260
951.2800, 79.34473
952.4010, 71.17090
953.5220, 66.36475
954.6430, 81.95215
955.7630, 10.31152
956.8840, 1.389648
958.0040, 87.85645
959.1240, 29.98291
960.2440, 8.581543
961.3640, 39.55518
962.4830, 32.57275
963.6030, 41.52002
964.7220, 50.42139
965.8410, 43.64355
966.9600, 80.29053
968.0780, 85.16943
969.1970, 51.91602
970.3150, 12.51074
971.4340, 9.017090
972.5520, 21.05127
973.6700, 9.378418
974.7870, 9.594727
975.9050, 6.798828
977.0220, 82.09814
978.1390, 72.32080
979.2560, 1.301758
980.3730, 12.17822
981.4900, 57.82812
982.6070, 90.62061
983.7230, 22.69531
984.8390, 61.83252
985.9550, 37.85791
987.0710, 49.17725
988.1870, 36.45215
989.3030, 66.70312
990.4180, 122.1396
991.5330, 41.82471
992.6480, 99.99561
993.7630, 132.5068
994.8780, 105.4307
995.9930, 56.13379
997.1070, 147.9854
998.2210, 141.2314
999.3350, 59.04297
1000.449, 52.51025
1001.563, 184.0957
1002.677, 52.21484
1003.790, 149.1016
1004.903, 179.2603
1006.016, 135.8911
1007.129, 135.8794
1008.242, 137.8862
1009.355, 122.8525
1010.467, 193.6533
1011.579, 122.3306
1012.691, 187.0391
1013.803, 64.44775
1014.915, 284.2773
1016.027, 290.8784
1017.138, 117.6401
1018.249, 180.0288
1019.360, 197.9336
1020.471, 187.9819
1021.582, 175.6514
1022.693, 215.5742
1023.803, 338.9883
1024.913, 260.4810
1026.023, 341.3052
1027.133, 321.4238
1028.243, 248.5571
1029.353, 197.7705
1030.462, 331.0068
1031.571, 343.7554
1032.680, 299.0088
1033.789, 330.2046
1034.898, 389.1328
1036.007, 271.5298
1037.115, 322.5571
1038.223, 311.2808
1039.331, 425.5078
1040.439, 360.1396
1041.547, 590.5376
1042.655, 552.5371
1043.762, 374.7891
1044.869, 504.9263
1045.976, 414.2744
1047.083, 539.1494
1048.190, 671.8125
1049.297, 692.9800
1050.403, 694.6772
1051.509, 746.3052
1052.615, 677.8940
1053.721, 858.5688
1054.827, 852.7910
1055.933, 899.1104
1057.038, 1003.994
1058.143, 1157.750
1059.248, 1245.710
1060.353, 1327.866
1061.458, 1544.662
1062.563, 1607.675
1063.667, 1776.009
1064.771, 2040.713
1065.875, 2459.639
1066.979, 2877.104
1068.083, 3460.742
1069.186, 4609.437
1070.290, 6161.193
1071.393, 8705.188
1072.496, 12011.42
1073.599, 16263.58
1074.702, 21191.67
1075.804, 26986.19
1076.907, 33348.50
1078.009, 38670.67
1079.111, 43834.15
1080.213, 47021.43
1081.315, 49548.80
1082.416, 51341.68
1083.517, 52540.81
1084.619, 52875.43
1085.720, 52688.74
1086.821, 51467.76
1087.921, 49152.61
1089.022, 46235.40
1090.122, 41897.55
1091.222, 37203.89
1092.322, 32415.47
1093.422, 27149.76
1094.522, 22581.05
1095.622, 18221.78
1096.721, 14493.96
1097.820, 11393.00
1098.919, 8726.475
1100.018, 6634.759
1101.117, 4978.766
1102.215, 3693.068
1103.314, 2780.704
1104.412, 2057.927
1105.510, 1455.017
1106.608, 1269.880
1107.705, 922.8726
1108.803, 799.4966
1109.900, 633.0127
1110.997, 547.4932
1112.094, 460.7500
1113.191, 411.8374
1114.288, 347.2529
1115.384, 445.2354
1116.481, 401.6670
1117.577, 263.6348
1118.673, 216.6182
1119.769, 188.8516
1120.864, 107.1914
1121.960, 286.1113
1123.055, 228.1660
1124.150, 252.4434
1125.245, 197.6133
1126.340, 168.8633
1127.434, 87.46875
1128.529, 217.9570
1129.623, 153.8623
1130.717, 44.40332
1131.811, 46.82520
1132.905, 73.14648
1133.999, 172.8730
1135.092, 152.8008
1136.185, 138.0811
1137.279, 7.034180
1138.371, 154.2139
1139.464, 37.11230
1140.557, 128.2705
1141.649, 79.60059
1142.742, 91.48242
1143.834, 40.96289
1144.926, 66.05859
1146.017, 200.3535
1147.109, 58.42188
1148.200, 145.1494
1149.292, 186.9961
1150.383, 20.99316
1151.474, 94.43066
1152.564, 23.57324
1153.655, 114.6562
1154.745, 115.9131
1155.835, 114.9346
1156.925, 87.63672
1158.015, 4.754883
1159.105, 82.03027
1160.195, 20.90332
1161.284, 140.4014
1162.373, 28.33301
1163.462, 113.2520
1164.551, 100.3818
1165.640, 52.52148
1166.728, 66.63379
1167.817, 99.57617
1168.905, 79.13086
1169.993, 102.0811
1171.081, 1.123047
1172.168, 53.30957
1173.256, 102.8809
1174.343, 9.794922
1175.430, 53.69434
1176.517, 81.44922
1177.604, 64.66797
1178.691, 138.4141
1179.777, 13.07422
1180.864, 89.47363
1181.950, 88.07617
1183.036, 81.27051
1184.121, 47.38965
1185.207, 128.2441
1186.293, 68.89648
1187.378, 87.64062
1188.463, 212.0938
1189.548, 17.75195
1190.633, 26.45020
1191.717, 20.16504
1192.802, 115.1172
1193.886, 33.95703
1194.970, 59.34082
1196.054, 143.9512
1197.138, 155.8154
1198.221, 122.1299
1199.305, 108.6924
1200.388, 48.14551
1201.471, 61.15820
1202.554, 28.69238
1203.637, 29.61328
1204.719, 132.3018
1205.801, 113.2559
1206.884, 73.21289
1207.966, 156.9961
1209.048, 22.99512
1210.129, 54.74023
1211.211, 92.49805
1212.292, 155.5664
1213.373, 69.06934
1214.454, 23.96973
1215.535, 26.56836
1216.616, 101.2148
1217.696, 120.2295
1218.777, 200.4678
1219.857, 23.54883
1220.937, 5.754883
1222.017, 81.44727
1223.096, 62.09766
1224.176, 133.8799
1225.255, 247.9521
1226.334, 137.3906
1227.413, 204.5215
1228.492, 183.2461
1229.570, 111.6924
1230.649, 171.4355
1231.727, 54.86523
1232.805, 108.0166
1233.883, 195.7217
1234.961, 88.14258
1236.038, 267.6445
1237.116, 235.0830
1238.193, 52.94727
1239.270, 204.5225
1240.347, 189.8672
1241.424, 48.71484
1242.500, 141.7314
1243.577, 33.21777
1244.653, 35.37695
1245.729, 100.0859
1246.805, 235.5664
1247.880, 194.0273
1248.956, 131.9736
1250.031, 317.9443
1251.106, 194.6611
1252.181, 204.1572
1253.256, 296.3213
1254.331, 136.7246
1255.405, 376.0244
1256.480, 247.3955
1257.554, 210.1602
1258.628, 190.1025
1259.701, 253.3379
1260.775, 181.8232
1261.849, 180.7969
1262.922, 196.6201
1263.995, 237.4307
1265.068, 231.9395
1266.141, 320.8906
1267.213, 203.0127
1268.286, 249.9697
1269.358, 169.9590
1270.430, 332.6357
1271.502, 250.8164
1272.573, 254.9053
1273.645, 151.6396
1274.716, 199.3340
1275.788, 205.7266
1276.859, 266.4668
1277.929, 298.7188
1279.000, 303.9131
1280.071, 199.2314
1281.141, 235.2881
1282.211, 214.7988
1283.281, 192.2354
1284.351, 289.9854
1285.421, 88.42285
1286.490, 107.5918
1287.559, 62.15918
1288.628, 177.8574
1289.697, 208.2822
1290.766, 169.2441
1291.835, 151.9756
1292.903, 79.51660
1293.972, 62.65918
1295.040, 279.4453
1296.108, 58.13867
1297.175, 128.8096
1298.243, 250.2383
1299.310, 205.6084
1300.377, 147.3965
1301.444, 10.75195
1302.511, 166.1338
1303.578, 145.8535
1304.645, 157.2168
1305.711, 51.53516
1306.777, 111.6211
1307.843, 109.0215
1308.909, 146.5684
1309.975, 79.70703
1311.040, 148.3125
1312.105, 141.6611
1313.171, 180.7227
1314.235, 205.9619
1315.300, 39.20801
1316.365, 124.4287
1317.429, 11.46973
1318.494, 201.9785
1319.558, 72.49414
1320.622, 214.4561
1321.685, 196.7344
1322.749, 86.01953
1323.812, 38.48242
1324.876, 6.744141
1325.939, 52.04785
1327.001, 167.3555
1328.064, 169.7725
1329.127, 55.74316
1330.189, 104.2100
1331.251, 5.958984
1332.313, 205.9902
1333.375, 171.7969
1334.437, 149.2188
1335.498, 182.9316
1336.560, 111.4834
1337.621, 20.30566
1338.682, 23.25879
1339.742, 83.27832
1340.803, 100.5303
1341.863, 85.48535
1342.924, 112.4219
1343.984, 101.5264
1345.044, 199.6025
1346.104, 29.61816
1347.163, 140.8047
1348.222, 205.8916
1349.282, 99.84473
1350.341, 162.1006
1351.400, 125.0400
1352.458, 78.39258
1353.517, 142.8203
1354.575, 52.89258
1355.633, 86.33203
1356.691, 122.7686
1357.749, 10.91992
1358.807, 97.89551
1359.864, 117.9072
1360.922, 50.93652
1361.979, 66.53516
1363.036, 51.99316
1364.092, 43.22754
1365.149, 18.05566
1366.205, 111.6514
1367.262, 125.6055
1368.318, 173.1357
1369.374, 39.80176
1370.429, 118.7139
1371.485, 51.16895
1372.540, 93.94336
1373.596, 139.4385
1374.651, 105.1787
1375.705, 36.85156
1376.760, 96.66699
1377.815, 75.78418
1378.869, 63.47949
1379.923, 60.46289
1380.977, 59.63281
1382.031, 27.74609
1383.085, 196.4785
1384.138, 85.04102
1385.191, 1.498047
1386.244, 148.5078
1387.297, 167.8691
1388.350, 246.7832
1389.403, 276.2441
1390.455, 345.5859
1391.507, 364.9316
1392.559, 449.9902
1393.611, 484.1465
1394.663, 636.5801
1395.714, 478.1895
1396.766, 609.0645
1397.817, 773.4102
1398.868, 941.4805
1399.919, 1049.178
1400.969, 1028.252
1402.020, 994.3359
1403.070, 1022.148
1404.120, 1316.984
1405.170, 1195.809
1406.220, 1101.457
1407.270, 1124.486
1408.319, 1024.500
1409.368, 1084.254
1410.417, 1111.729
1411.466, 1027.441
1412.515, 861.1230
1413.563, 851.7070
1414.612, 765.9023
1415.660, 722.4570
1416.708, 584.9629
1417.756, 490.1836
1418.803, 582.5742
1419.851, 697.9844
1420.898, 923.1191
1421.945, 677.0137
1422.992, 654.7520
1424.039, 635.6660
1425.086, 733.9160
1426.132, 777.7910
1427.178, 764.2578
1428.225, 857.2383
1429.270, 521.4570
1430.316, 633.4316
1431.362, 716.2910
1432.407, 676.4258
1433.452, 566.7598
1434.497, 647.8867
1435.542, 500.2949
1436.587, 585.9688
1437.631, 722.8027
1438.676, 707.9258
1439.720, 639.5957
1440.764, 499.2305
1441.807, 591.8027
1442.851, 613.8496
1443.895, 395.7578
1444.938, 462.2070
1445.981, 306.6641
1447.024, 284.4824
1448.066, 377.8145
1449.109, 360.2578
1450.151, 95.66602
1451.194, 194.8379
1452.236, 64.53906
1453.277, 126.0215
1454.319, 133.9688
1455.361, 80.15430
1456.402, 249.5215
1457.443, 0.9687500
1458.484, 273.5586
1459.525, 52.43164
1460.565, 94.79102
1461.606, 41.13672
1462.646, 112.3027
1463.686, 121.9902
1464.726, 33.43164
1465.766, 28.12695
1466.805, 149.0098
1467.845, 116.2383
1468.884, 45.70898
1469.923, 35.15625
1470.962, 10.79102
1472.000, 213.6328
1473.039, 241.8340
1474.077, 190.1133
1475.115, 187.6309
1476.153, 195.0859
1477.191, 57.50586
1478.229, 74.07617
1479.266, 142.5215
1480.303, 39.71094
1481.340, 126.0879
1482.377, 183.0098
1483.414, 236.7129
1484.451, 135.0664
1485.487, 142.5000
1486.523, 36.80664
1487.559, 165.9961
1488.595, 90.05664
1489.631, 246.0000
1490.666, 86.83984
1491.701, 223.5820
1492.736, 546.2402
1493.771, 306.8242
1494.806, 304.0820
1495.841, 174.1855
1496.875, 372.5273
1497.909, 618.8184
1498.943, 286.0586
1499.977, 465.2695
1501.011, 148.7832
1502.045, 413.9453
1503.078, 357.8027
1504.111, 549.0352
1505.144, 340.1582
1506.177, 620.4727
1507.209, 381.5645
1508.242, 753.0898
1509.274, 449.4316
1510.306, 717.7520
1511.338, 433.8516
1512.370, 424.3594
1513.402, 529.8047
1514.433, 625.3613
1515.464, 512.0918
1516.495, 540.3047
1517.526, 592.4395
1518.557, 431.1289
1519.587, 376.9082
1520.617, 511.6250
1521.648, 412.5488
1522.678, 328.3379
1523.707, 514.2383
1524.737, 427.6973
1525.766, 448.6602
1526.796, 498.7988
1527.825, 112.6055
1528.854, 397.9941
1529.882, 378.3066
1530.911, 452.8184
1531.939, 679.4453
1532.967, 492.5840
1533.995, 461.5703
1535.023, 521.4648
1536.051, 400.9531
1537.078, 502.4961
1538.106, 346.0801
1539.133, 639.1758
1540.160, 419.3320
1541.186, 236.3066
1542.213, 127.4922
1543.239, 304.3477
1544.266, 36.90820
1545.292, 376.3086
1546.318, 407.9395
1547.343, 343.0684
1548.369, 454.2480
1549.394, 237.1387
1550.419, 404.5449
1551.444, 153.0977
1552.469, 413.5566
1553.494, 301.0488
1554.518, 415.7109
1555.542, 509.5527
1556.566, 351.8574
1557.590, 325.6270
1558.614, 97.54883
1559.638, 230.8242
1560.661, 435.8496
1561.684, 27.12109
1562.707, 222.1914
1563.730, 319.1270
1564.753, 170.5605
1565.775, 317.0957
1566.797, 176.8691
1567.819, 228.8906
1568.841, 223.1562
1569.863, 0.0000000E+00
##END=



