##NAMES=Kyanite
##RRUFFID=R050450
##IDEAL CHEMISTRY=Al_2_OSiO_4_
##LOCALITY=Switzerland
##OWNER=RRUFF
##SOURCE=Marcus Origlieri
##DESCRIPTION=Blue bladed crystals
##STATUS=The identification of this mineral has been confirmed by X-ray diffraction and chemical analysis
##URL=rruff.info/R050450
##MEASURED CHEMISTRY=Al_2.00_OSi_1.00_O_4_
##PIN_ID=M01855
##ORIENTATION=Laser parallel to (1 1 0). Fiducial mark perpendicular to laser is parallel to c [0 0 1]
148.7160, 0.0000000E+00
149.9470, 0.7373050
151.1780, 211.2510
152.4080, 204.2793
153.6380, 177.3408
154.8690, 88.50879
156.0980, 30.59570
157.3280, 42.22070
158.5580, 57.52832
159.7870, 65.57715
161.0170, 169.5068
162.2460, 166.4609
163.4750, 187.2783
164.7030, 96.52734
165.9320, 60.84082
167.1600, 238.6738
168.3890, 20.58594
169.6170, 213.7598
170.8450, 348.0615
172.0730, 192.4482
173.3000, 276.3770
174.5280, 232.4316
175.7550, 345.7695
176.9820, 215.7295
178.2090, 142.9805
179.4350, 167.4912
180.6620, 118.0186
181.8880, 98.58105
183.1150, 163.8486
184.3410, 132.0811
185.5670, 109.4678
186.7920, 171.9561
188.0180, 128.5469
189.2430, 97.24219
190.4690, 76.03613
191.6940, 96.93359
192.9180, 96.07031
194.1430, 59.97949
195.3680, 33.79492
196.5920, 77.48242
197.8160, 131.8447
199.0400, 21.28906
200.2640, 161.8154
201.4880, 23.77344
202.7110, 118.4648
203.9350, 177.8525
205.1580, 316.4072
206.3810, 368.0596
207.6040, 500.6592
208.8270, 413.2803
210.0490, 301.0059
211.2710, 48.84375
212.4940, 328.8057
213.7160, 73.89648
214.9370, 93.11426
216.1590, 165.4512
217.3810, 32.09180
218.6020, 15.51953
219.8230, 137.1660
221.0440, 94.96484
222.2650, 325.8711
223.4860, 508.8496
224.7060, 737.9023
225.9260, 770.0273
227.1470, 894.2188
228.3670, 991.4766
229.5860, 815.7988
230.8060, 504.1816
232.0260, 245.6211
233.2450, 112.1133
234.4640, 207.6523
235.6830, 72.24219
236.9020, 119.8789
238.1200, 9.566406
239.3390, 15.30469
240.5570, 156.0898
241.7750, 167.9277
242.9930, 62.81641
244.2110, 298.7070
245.4290, 166.5176
246.6460, 177.3633
247.8630, 72.26758
249.0810, 320.2305
250.2980, 197.2500
251.5140, 78.33008
252.7310, 95.46289
253.9470, 26.34375
255.1640, 27.90820
256.3800, 47.79102
257.5960, 10.54102
258.8120, 110.0684
260.0270, 91.38672
261.2430, 44.89844
262.4580, 101.4707
263.6730, 67.10156
264.8880, 66.20703
266.1030, 94.45703
267.3170, 99.35352
268.5320, 218.2246
269.7460, 171.1738
270.9600, 443.2285
272.1740, 493.4668
273.3880, 657.9590
274.6010, 1124.740
275.8150, 1469.711
277.0280, 1916.725
278.2410, 2272.766
279.4540, 2360.854
280.6670, 2204.959
281.8790, 1635.100
283.0920, 1319.289
284.3040, 1079.525
285.5160, 818.8125
286.7280, 1104.148
287.9400, 1388.535
289.1510, 2152.969
290.3630, 3031.453
291.5740, 4277.984
292.7850, 5205.566
293.9960, 6092.195
295.2070, 5752.840
296.4170, 5808.129
297.6280, 6951.127
298.8380, 9630.117
300.0480, 12746.11
301.2580, 15147.12
302.4680, 16716.02
303.6770, 16057.96
304.8870, 12778.95
306.0960, 8984.973
307.3050, 5727.973
308.5140, 3122.971
309.7230, 1847.973
310.9310, 1081.986
312.1400, 786.9570
313.3480, 788.0078
314.5560, 872.6797
315.7640, 1245.775
316.9720, 1716.691
318.1790, 2357.422
319.3870, 3024.205
320.5940, 3343.043
321.8010, 4626.930
323.0080, 7001.867
324.2150, 9573.852
325.4210, 11522.88
326.6280, 12615.96
327.8340, 12528.08
329.0400, 10054.22
330.2460, 7183.383
331.4510, 4441.594
332.6570, 2725.852
333.8620, 1442.160
335.0680, 869.5137
336.2730, 698.9160
337.4780, 711.3633
338.6820, 925.3164
339.8870, 1235.734
341.0910, 1675.996
342.2950, 1579.629
343.5000, 1749.309
344.7030, 1405.033
345.9070, 1093.801
347.1110, 986.6094
348.3140, 481.4473
349.5170, 426.2871
350.7200, 504.1719
351.9230, 883.1035
353.1260, 1262.029
354.3290, 1456.000
355.5310, 1682.018
356.7330, 2711.080
357.9350, 3895.188
359.1370, 5350.340
360.3390, 6513.535
361.5400, 6913.773
362.7420, 6248.230
363.9430, 4969.615
365.1440, 3315.980
366.3450, 1822.387
367.5460, 1122.838
368.7460, 797.3301
369.9470, 806.8594
371.1470, 1118.432
372.3470, 1407.043
373.5470, 1518.693
374.7460, 1859.389
375.9460, 2212.121
377.1450, 2591.893
378.3450, 3070.705
379.5440, 3225.557
380.7430, 3870.447
381.9410, 4851.375
383.1400, 6341.344
384.3380, 7693.352
385.5370, 8792.402
386.7350, 9115.486
387.9320, 8486.348
389.1300, 7404.416
390.3280, 7031.689
391.5250, 7047.389
392.7220, 6789.012
393.9190, 6772.057
395.1160, 6470.924
396.3130, 5191.656
397.5100, 4355.732
398.7060, 3646.445
399.9020, 3652.264
401.0980, 4686.064
402.2940, 6236.627
403.4900, 7982.727
404.6860, 8922.355
405.8810, 9064.018
407.0760, 8081.721
408.2710, 6004.475
409.4660, 3888.621
410.6610, 2598.797
411.8550, 1469.672
413.0500, 1130.578
414.2440, 1049.525
415.4380, 911.5273
416.6320, 1037.574
417.8260, 1268.691
419.0190, 1689.840
420.2130, 1937.043
421.4060, 1703.275
422.5990, 1592.535
423.7920, 1199.818
424.9850, 1061.129
426.1770, 978.4648
427.3700, 1202.830
428.5620, 1315.217
429.7540, 1772.633
430.9460, 2662.072
432.1380, 3617.541
433.3290, 4913.037
434.5210, 6228.566
435.7120, 8311.129
436.9030, 10222.73
438.0940, 12031.37
439.2850, 12383.03
440.4750, 11995.73
441.6660, 10212.46
442.8560, 7929.211
444.0460, 5583.992
445.2360, 3800.797
446.4260, 3492.633
447.6160, 3296.492
448.8050, 3351.379
449.9940, 3091.289
451.1830, 2606.229
452.3720, 1820.193
453.5610, 1115.186
454.7500, 727.2070
455.9380, 348.2559
457.1260, 277.3340
458.3150, 56.43945
459.5020, 98.57617
460.6900, 76.76367
461.8780, 156.9805
463.0650, 223.2266
464.2530, 108.5117
465.4400, 233.8262
466.6270, 353.1758
467.8130, 323.5469
469.0000, 259.9473
470.1870, 400.3770
471.3730, 522.8438
472.5590, 518.3359
473.7450, 646.8770
474.9310, 1159.449
476.1160, 1798.090
477.3020, 2741.770
478.4870, 4200.473
479.6720, 5939.217
480.8570, 7570.986
482.0420, 10323.84
483.2270, 13679.76
484.4110, 18481.73
485.5960, 23691.74
486.7800, 26796.78
487.9640, 28021.83
489.1480, 26332.95
490.3310, 21416.13
491.5150, 16246.34
492.6980, 12015.57
493.8810, 8465.820
495.0640, 6219.090
496.2470, 4801.377
497.4300, 3590.684
498.6120, 2904.016
499.7950, 2064.387
500.9770, 1812.775
502.1590, 1418.215
503.3410, 1378.672
504.5220, 1078.150
505.7040, 1255.652
506.8850, 1293.197
508.0660, 1178.758
509.2470, 1579.338
510.4280, 1626.934
511.6090, 1760.545
512.7890, 1758.195
513.9700, 1773.861
515.1500, 1618.547
516.3300, 1501.289
517.5100, 1116.061
518.6900, 766.8438
519.8690, 542.6406
521.0490, 383.4473
522.2280, 263.2676
523.4070, 160.6738
524.5860, 99.96484
525.7640, 55.84961
526.9430, 9.546875
528.1210, 111.6523
529.3000, 20.41406
530.4780, 24.47656
531.6560, 2.462891
532.8330, 158.5898
534.0110, 118.7012
535.1880, 105.8535
536.3650, 206.0430
537.5430, 234.3203
538.7190, 222.4395
539.8960, 223.1758
541.0730, 150.7480
542.2490, 76.38086
543.4250, 54.11328
544.6020, 0.3496090
545.7780, 125.0156
546.9530, 301.9062
548.1290, 274.0234
549.3040, 169.2090
550.4800, 227.9883
551.6550, 3.958984
552.8300, 166.5938
554.0040, 144.0859
555.1790, 587.4980
556.3540, 963.6523
557.5280, 1251.658
558.7020, 1807.559
559.8760, 2253.643
561.0500, 2923.500
562.2230, 3658.893
563.3970, 4410.287
564.5700, 4392.773
565.7430, 3626.158
566.9160, 2690.801
568.0890, 1952.178
569.2620, 1449.799
570.4340, 1084.277
571.6070, 996.3008
572.7790, 566.4688
573.9510, 601.2109
575.1230, 418.7051
576.2940, 528.9941
577.4660, 415.9121
578.6370, 439.3047
579.8080, 620.2070
580.9790, 522.1621
582.1500, 745.1523
583.3210, 598.6504
584.4910, 737.1055
585.6620, 844.6934
586.8320, 942.9473
588.0020, 930.1934
589.1720, 616.4258
590.3410, 742.6484
591.5110, 427.2109
592.6800, 595.5742
593.8500, 625.9453
595.0190, 590.8730
596.1880, 1022.525
597.3560, 898.1641
598.5250, 1396.039
599.6930, 1516.590
600.8620, 1977.498
602.0300, 2596.115
603.1970, 2830.695
604.3650, 3664.986
605.5330, 4441.562
606.7000, 5034.666
607.8680, 5031.871
609.0350, 4918.578
610.2020, 4250.285
611.3680, 3622.996
612.5350, 2975.135
613.7010, 2610.719
614.8680, 2553.564
616.0340, 2588.492
617.2000, 2485.113
618.3660, 2729.154
619.5310, 2785.809
620.6970, 2479.379
621.8620, 2837.387
623.0270, 2744.646
624.1920, 2703.355
625.3570, 3087.352
626.5220, 2964.846
627.6860, 3035.277
628.8500, 3160.359
630.0140, 3456.039
631.1780, 3320.932
632.3420, 2969.441
633.5060, 2689.418
634.6700, 2274.914
635.8330, 1839.902
636.9960, 1706.590
638.1590, 1808.557
639.3220, 1770.645
640.4850, 1527.414
641.6470, 1521.586
642.8100, 1344.645
643.9720, 1330.684
645.1340, 1377.453
646.2960, 1238.412
647.4570, 1374.994
648.6190, 1229.104
649.7800, 1399.881
650.9420, 1365.512
652.1030, 1306.123
653.2640, 1300.307
654.4240, 1342.053
655.5850, 2008.816
656.7450, 1685.561
657.9060, 1639.590
659.0660, 1330.422
660.2260, 1200.430
661.3850, 1207.477
662.5450, 1030.422
663.7040, 979.2305
664.8640, 1019.350
666.0230, 984.9824
667.1820, 1129.666
668.3410, 1257.812
669.4990, 1230.316
670.6580, 1350.801
671.8160, 1225.938
672.9740, 1148.393
674.1320, 1050.576
675.2900, 834.3809
676.4480, 807.1367
677.6050, 550.0273
678.7630, 289.5723
679.9200, 261.2422
681.0770, 248.0449
682.2340, 177.7324
683.3900, 170.0938
684.5470, 223.6719
685.7030, 94.23828
686.8590, 58.17383
688.0150, 28.93164
689.1710, 127.8809
690.3270, 86.65039
691.4830, 19.12500
692.6380, 206.7715
693.7930, 18.63086
694.9480, 26.81250
696.1030, 8.333984
697.2580, 109.9277
698.4130, 190.3516
699.5670, 69.40430
700.7210, 243.7305
701.8750, 301.8281
703.0290, 217.8887
704.1830, 283.9121
705.3370, 180.8945
706.4900, 355.8379
707.6430, 186.7441
708.7970, 220.6055
709.9490, 90.42969
711.1020, 69.50977
712.2550, 156.9395
713.4070, 17.63281
714.5600, 22.26172
715.7120, 23.16602
716.8640, 54.32617
718.0160, 32.76758
719.1670, 102.1562
720.3190, 91.49609
721.4700, 208.7949
722.6210, 217.3184
723.7720, 184.2637
724.9230, 278.4336
726.0740, 264.5645
727.2250, 286.6562
728.3750, 295.8496
729.5250, 181.7188
730.6750, 227.6855
731.8250, 223.6113
732.9750, 89.49609
734.1240, 151.3340
735.2740, 153.1289
736.4230, 93.87500
737.5720, 39.57617
738.7210, 43.77539
739.8700, 147.7773
741.0190, 153.2891
742.1670, 3.244141
743.3150, 148.1484
744.4630, 17.50000
745.6110, 229.7871
746.7590, 107.0352
747.9070, 102.2344
749.0540, 3.388672
750.2020, 51.47461
751.3490, 27.49023
752.4960, 19.46289
753.6430, 129.6445
754.7890, 2.115234
755.9360, 232.8066
757.0820, 31.54492
758.2280, 97.02148
759.3740, 38.45898
760.5200, 75.02734
761.6660, 15.29883
762.8120, 40.43359
763.9570, 87.74609
765.1020, 96.88281
766.2470, 76.02930
767.3920, 166.0430
768.5370, 205.7891
769.6810, 68.58008
770.8260, 172.8750
771.9700, 527.0254
773.1140, 155.6934
774.2580, 220.3164
775.4020, 22.91406
776.5460, 36.51172
777.6890, 178.9355
778.8320, 87.63281
779.9750, 94.69727
781.1180, 92.00977
782.2610, 148.2754
783.4040, 40.50000
784.5460, 176.6426
785.6890, 59.74609
786.8310, 113.8047
787.9730, 140.8184
789.1150, 56.20703
790.2560, 35.69141
791.3980, 87.54297
792.5390, 141.6406
793.6810, 30.95508
794.8220, 232.6641
795.9630, 291.2500
797.1030, 218.8008
798.2440, 200.3145
799.3840, 24.19922
800.5240, 238.2246
801.6650, 45.39062
802.8040, 41.92188
803.9440, 239.1914
805.0840, 49.57617
806.2230, 86.58008
807.3630, 48.70508
808.5020, 73.79297
809.6410, 133.8398
810.7790, 215.8809
811.9180, 204.9102
813.0570, 258.9238
814.1950, 427.9473
815.3330, 382.1836
816.4710, 194.0547
817.6090, 374.1328
818.7470, 290.2051
819.8840, 236.1133
821.0220, 307.9473
822.1590, 110.9375
823.2960, 395.3711
824.4330, 274.5449
825.5690, 293.6211
826.7060, 388.0723
827.8420, 100.3086
828.9790, 182.8672
830.1150, 181.5293
831.2510, 292.2422
832.3860, 369.1836
833.5220, 381.2441
834.6570, 342.9336
835.7930, 386.3184
836.9280, 423.5488
838.0630, 382.1387
839.1980, 457.6992
840.3320, 434.1328
841.4670, 482.6582
842.6010, 387.8926
843.7350, 344.3633
844.8690, 550.5547
846.0030, 394.8555
847.1370, 564.5879
848.2700, 659.1387
849.4040, 790.0859
850.5370, 804.2539
851.6700, 811.5898
852.8030, 942.2617
853.9360, 859.4238
855.0680, 975.0371
856.2000, 880.5664
857.3330, 1020.020
858.4650, 1078.930
859.5970, 1070.846
860.7290, 1196.594
861.8600, 1100.816
862.9920, 1247.652
864.1230, 1058.648
865.2540, 1052.617
866.3850, 1288.209
867.5160, 1026.967
868.6460, 951.6797
869.7770, 872.8027
870.9070, 1077.164
872.0370, 991.5078
873.1670, 991.5781
874.2970, 1082.934
875.4270, 1055.729
876.5570, 1189.115
877.6860, 1145.330
878.8150, 1264.797
879.9440, 1345.941
881.0730, 1340.539
882.2020, 1466.990
883.3300, 1688.902
884.4590, 1810.773
885.5870, 2097.609
886.7150, 2454.012
887.8430, 2399.930
888.9710, 2932.572
890.0990, 2887.092
891.2260, 2944.881
892.3530, 2938.236
893.4810, 2746.979
894.6080, 2586.766
895.7340, 2302.074
896.8610, 1858.086
897.9880, 1823.693
899.1140, 1564.973
900.2400, 1685.748
901.3660, 1877.684
902.4920, 1402.863
903.6180, 1379.348
904.7430, 1347.652
905.8690, 1617.443
906.9940, 1677.502
908.1190, 1719.426
909.2440, 1641.834
910.3690, 1613.227
911.4930, 1986.547
912.6180, 1684.168
913.7420, 1790.725
914.8660, 1883.717
915.9900, 1753.564
917.1140, 1933.500
918.2380, 2194.332
919.3610, 2379.930
920.4850, 2443.961
921.6080, 2372.967
922.7310, 2575.637
923.8540, 2682.865
924.9760, 2888.615
926.0990, 3096.307
927.2210, 3314.807
928.3440, 3742.545
929.4660, 3923.760
930.5880, 4421.383
931.7090, 4941.400
932.8310, 5315.457
933.9520, 5832.752
935.0740, 6490.129
936.1950, 7117.648
937.3160, 7896.055
938.4360, 8609.711
939.5570, 9518.512
940.6780, 10435.08
941.7980, 11842.99
942.9180, 13213.09
944.0380, 15222.69
945.1580, 17007.36
946.2780, 19360.39
947.3970, 22240.36
948.5170, 25157.54
949.6360, 27294.71
950.7550, 29575.86
951.8740, 30707.75
952.9930, 30612.87
954.1110, 29180.99
955.2300, 27437.09
956.3480, 24761.17
957.4660, 22412.66
958.5840, 19816.72
959.7020, 18117.77
960.8190, 16713.03
961.9370, 15743.08
963.0540, 14345.89
964.1710, 13130.04
965.2880, 12047.82
966.4050, 10572.62
967.5220, 9614.732
968.6380, 8519.023
969.7550, 7376.090
970.8710, 6413.473
971.9870, 5726.104
973.1030, 5136.287
974.2190, 4483.961
975.3340, 3972.826
976.4500, 3203.342
977.5650, 3121.355
978.6800, 2525.344
979.7950, 2397.455
980.9100, 2184.586
982.0250, 2193.879
983.1390, 1903.527
984.2530, 2031.553
985.3680, 1763.473
986.4820, 1604.385
987.5950, 1693.301
988.7090, 1640.209
989.8230, 1439.109
990.9360, 1712.000
992.0490, 1488.875
993.1620, 1678.738
994.2750, 1950.586
995.3880, 2739.420
996.5010, 2918.674
997.6130, 3624.238
998.7250, 4234.027
999.8370, 4901.672
1000.949, 5380.008
1002.061, 5668.098
1003.173, 5403.537
1004.284, 4756.867
1005.396, 4028.086
1006.507, 3335.482
1007.618, 2803.922
1008.729, 2306.014
1009.839, 1836.387
1010.950, 1540.055
1012.060, 1230.637
1013.171, 937.0098
1014.281, 930.0078
1015.391, 882.6426
1016.500, 688.8086
1017.610, 564.3438
1018.719, 665.5352
1019.829, 779.2500
1020.938, 720.6816
1022.047, 638.7773
1023.156, 705.2715
1024.264, 650.5605
1025.373, 556.0234
1026.481, 476.4160
1027.589, 586.6074
1028.697, 444.1797
1029.805, 358.7578
1030.913, 448.4043
1032.020, 319.9883
1033.128, 161.0430
1034.235, 120.1738
1035.342, 135.1680
1036.449, 266.4980
1037.556, 135.7363
1038.663, 101.6016
1039.769, 158.1641
1040.875, 53.02930
1041.981, 49.22656
1043.087, 67.27539
1044.193, 54.75000
1045.299, 42.73047
1046.404, 25.68164
1047.510, 53.07031
1048.615, 113.6094
1049.720, 80.31445
1050.825, 191.3672
1051.930, 187.8984
1053.034, 156.8535
1054.139, 27.11719
1055.243, 227.3574
1056.347, 66.57617
1057.451, 37.12695
1058.555, 42.05078
1059.658, 35.95508
1060.762, 124.3613
1061.865, 4.992188
1062.968, 22.14453
1064.071, 10.21094
1065.174, 225.1367
1066.277, 35.82422
1067.380, 107.8652
1068.482, 95.29297
1069.584, 37.43359
1070.686, 82.38086
1071.788, 25.30273
1072.890, 201.1953
1073.992, 2.203125
1075.093, 109.9238
1076.194, 157.6367
1077.295, 406.4414
1078.396, 485.1797
1079.497, 398.9434
1080.598, 483.9414
1081.698, 446.6543
1082.799, 392.3438
1083.899, 549.0039
1084.999, 555.6426
1086.099, 368.2559
1087.199, 202.8418
1088.298, 527.5078
1089.398, 349.0410
1090.497, 555.5547
1091.596, 321.0371
1092.695, 176.4961
1093.794, 368.9258
1094.892, 1.671875
1095.991, 142.6914
1097.089, 230.0625
1098.187, 44.37500
1099.285, 209.6504
1100.383, 156.9160
1101.481, 268.4824
1102.579, 152.5801
1103.676, 97.64844
1104.773, 201.6855
1105.870, 82.69141
1106.967, 60.33398
1108.064, 313.5645
1109.161, 13.43555
1110.257, 366.2715
1111.353, 202.0801
1112.449, 8.144531
1113.545, 153.5859
1114.641, 66.28516
1115.737, 10.94727
1116.832, 247.5742
1117.928, 406.1719
1119.023, 341.7422
1120.118, 325.2832
1121.213, 552.7988
1122.308, 379.2832
1123.402, 448.7441
1124.497, 446.1738
1125.591, 355.5762
1126.685, 296.9512
1127.779, 138.2969
1128.873, 60.61133
1129.967, 331.8926
1131.060, 41.14648
1132.153, 106.3633
1133.247, 161.5469
1134.340, 74.70117
1135.433, 7.818359
1136.525, 122.8945
1137.618, 76.93359
1138.710, 136.9434
1139.802, 70.91992
1140.895, 83.63086
1141.987, 262.7695
1143.078, 39.64844
1144.170, 75.49023
1145.261, 17.69922
1146.353, 301.0488
1147.444, 117.7715
1148.535, 41.46094
1149.626, 106.1133
1150.716, 108.2676
1151.807, 51.24609
1152.897, 50.27930
1153.988, 44.11914
1155.078, 86.48047
1156.168, 71.19336
1157.257, 117.9531
1158.347, 106.1719
1159.436, 322.2637
1160.526, 262.3262
1161.615, 296.6406
1162.704, 258.2051
1163.793, 111.9766
1164.881, 15.73242
1165.970, 143.3125
1167.058, 5.080078
1168.147, 95.54102
1169.235, 180.0508
1170.323, 299.3809
1171.410, 319.9062
1172.498, 247.9707
1173.585, 247.9863
1174.673, 106.2383
1175.760, 222.2070
1176.847, 347.6816
1177.934, 360.4648
1179.020, 39.33203
1180.107, 93.38086
1181.193, 41.71289
1182.279, 176.4648
1183.365, 88.38867
1184.451, 322.5898
1185.537, 275.9941
1186.623, 342.9922
1187.708, 20.49805
1188.793, 353.4219
1189.878, 174.7539
1190.963, 92.35742
1192.048, 112.1621
1193.133, 53.14648
1194.217, 164.3574
1195.302, 14.70508
1196.386, 296.9238
1197.470, 58.20312
1198.554, 117.4180
1199.638, 178.5449
1200.721, 266.4023
1201.805, 292.4180
1202.888, 250.1621
1203.971, 50.59180
1205.054, 102.9277
1206.137, 26.97656
1207.219, 98.95508
1208.302, 18.78516
1209.384, 269.3320
1210.466, 154.4238
1211.548, 312.4883
1212.630, 313.5254
1213.712, 241.5371
1214.794, 421.5254
1215.875, 318.4863
1216.956, 222.4258
1218.037, 184.2598
1219.118, 385.1484
1220.199, 254.0098
1221.280, 334.6270
1222.360, 307.6602
1223.441, 343.2461
1224.521, 383.0117
1225.601, 311.3750
1226.681, 193.7402
1227.760, 442.4336
1228.840, 329.3340
1229.919, 155.9004
1230.999, 124.2656
1232.078, 350.8594
1233.157, 272.8867
1234.236, 567.0996
1235.314, 414.5039
1236.393, 470.3867
1237.471, 594.5332
1238.549, 555.0000
1239.627, 587.4316
1240.705, 629.8555
1241.783, 512.1211
1242.860, 392.3281
1243.938, 461.3438
1245.015, 535.9980
1246.092, 713.2383
1247.169, 589.5625
1248.246, 442.8906
1249.323, 422.2246
1250.399, 603.5430
1251.475, 641.8398
1252.552, 769.1172
1253.628, 677.3750
1254.703, 738.6152
1255.779, 506.8359
1256.855, 515.0391
1257.930, 496.7910
1259.005, 631.1992
1260.080, 647.3477
1261.155, 737.6074
1262.230, 786.1484
1263.305, 676.9004
1264.379, 1028.279
1265.454, 717.7402
1266.528, 974.2969
1267.602, 1263.646
1268.676, 984.2266
1269.750, 1018.516
1270.823, 1083.838
1271.897, 730.8281
1272.970, 1070.877
1274.043, 786.1152
1275.116, 732.7012
1276.189, 861.6289
1277.261, 1045.998
1278.334, 970.9883
1279.406, 929.2793
1280.478, 983.0293
1281.550, 605.0332
1282.622, 890.3652
1283.694, 646.2773
1284.766, 650.4082
1285.837, 711.3516
1286.908, 944.3379
1287.979, 741.5156
1289.050, 955.2812
1290.121, 915.0352
1291.192, 1132.574
1292.262, 958.3066
1293.333, 939.5605
1294.403, 999.6230
1295.473, 963.8828
1296.543, 1155.809
1297.613, 959.8496
1298.682, 886.2344
1299.752, 991.8965
1300.821, 1105.545
1301.890, 934.1934
1302.959, 936.8320
1304.028, 1148.898
1305.096, 1073.445
1306.165, 924.0840
1307.233, 1358.713
1308.301, 1292.414
1309.370, 1032.457
1310.437, 1341.346
1311.505, 1139.723
1312.573, 1103.670
1313.640, 1024.283
1314.708, 1395.893
1315.775, 1286.494
1316.842, 1103.994
1317.908, 1318.598
1318.975, 1114.959
1320.042, 1266.770
1321.108, 1181.881
1322.174, 1234.748
1323.240, 761.0898
1324.306, 1010.830
1325.372, 942.4336
1326.438, 1236.350
1327.503, 774.5176
1328.568, 717.9434
1329.634, 833.5586
1330.699, 594.1738
1331.763, 668.7910
1332.828, 812.6953
1333.893, 640.0488
1334.957, 594.7930
1336.021, 478.4219
1337.085, 289.0996
1338.149, 435.7246
1339.213, 328.0938
1340.277, 487.7227
1341.340, 482.3535
1342.404, 467.9863
1343.467, 585.6230
1344.530, 447.2598
1345.593, 758.9004
1346.655, 681.4375
1347.718, 255.0840
1348.780, 651.7344
1349.843, 396.3848
1350.905, 405.0391
1351.967, 389.7012
1353.028, 385.3633
1354.090, 353.0352
1355.152, 361.6797
1356.213, 481.3633
1357.274, 425.0566
1358.335, 347.5723
1359.396, 401.0508
1360.457, 256.8066
1361.517, 528.5664
1362.578, 340.3359
1363.638, 690.1113
1364.698, 357.8965
1365.758, 365.7109
1366.818, 290.4980
1367.878, 418.2129
1368.937, 518.9316
1369.997, 405.6562
1371.056, 421.3984
1372.115, 634.7109
1373.174, 687.5039
1374.232, 544.2734
1375.291, 371.6895
1376.350, 513.7012
1377.408, 368.4922
1378.466, 362.2910
1379.524, 311.0977
1380.582, 273.8613
1381.640, 306.4414
1382.697, 235.7852
1383.754, 460.6250
1384.812, 428.4746
1385.869, 688.3340
1386.926, 580.2051
1387.983, 490.0859
1389.039, 530.3203
1390.096, 423.0000
1391.152, 399.9453
1392.208, 164.8789
1393.264, 47.18359
1394.320, 155.1445
1395.376, 126.3203
1396.431, 245.3086
1397.487, 351.3086
1398.542, 380.3242
1399.597, 350.3516
1400.652, 234.4531
1401.707, 317.5117
1402.762, 122.5938
1403.816, 100.6914
1404.871, 7.035156
1405.925, 28.41016
1406.979, 34.30469
1408.033, 112.0234
1409.086, 158.9492
1410.140, 130.9102
1411.194, 295.8750
1412.247, 450.8438
1413.300, 358.8594
1414.353, 359.9141
1415.406, 202.9766
1416.458, 208.0000
1417.511, 104.0625
1418.563, 203.9336
1419.616, 207.9258
1420.668, 200.0547
1421.720, 65.91797
1422.772, 225.8750
1423.823, 334.8320
1424.875, 244.7852
1425.926, 385.5352
1426.977, 288.6758
1428.028, 507.4570
1429.079, 419.3867
1430.130, 495.4922
1431.180, 516.4258
1432.231, 596.3750
1433.281, 387.3359
1434.331, 779.2266
1435.381, 645.1016
1436.431, 698.9766
1437.481, 1191.867
1438.530, 1506.785
1439.580, 1354.820
1440.629, 1510.172
1441.678, 1719.543
1442.727, 1786.926
1443.776, 1566.398
1444.824, 1666.895
1445.873, 1732.438
1446.921, 1896.004
1447.969, 1760.586
1449.017, 1862.184
1450.065, 2179.848
1451.113, 2062.613
1452.160, 2021.465
1453.208, 2211.344
1454.255, 2129.242
1455.302, 2180.164
1456.349, 2064.109
1457.396, 1949.078
1458.443, 1797.074
1459.489, 1872.090
1460.535, 1704.129
1461.582, 1650.195
1462.628, 1355.293
1463.674, 1346.418
1464.719, 1585.566
1465.765, 1577.742
1466.810, 1347.945
1467.856, 1134.176
1468.901, 1133.402
1469.946, 819.6289
1470.991, 636.7812
1472.035, 638.9258
1473.080, 777.0977
1474.124, 666.2969
1475.169, 704.5195
1476.213, 811.7734
1477.257, 745.0508
1478.300, 910.3477
1479.344, 626.6367
1480.388, 668.9297
1481.431, 611.2500
1482.474, 813.5977
1483.517, 1016.973
1484.560, 613.3750
1485.603, 795.7773
1486.645, 421.2383
1487.688, 467.7305
1488.730, 282.2656
1489.772, 414.8320
1490.814, 429.4375
1491.856, 115.7422
1492.898, 340.2617
1493.939, 177.5781
1494.981, 228.9297
1496.022, 106.3164
1497.063, 85.26953
1498.104, 30.17578
1499.145, 99.66016
1500.186, 83.81641
1501.226, 92.24609
1502.266, 69.36328
1503.307, 231.0156
1504.347, 87.69531
1505.387, 149.4141
1506.426, 11.16797
1507.466, 142.9492
1508.505, 114.7578
1509.545, 204.5938
1510.584, 227.4531
1511.623, 194.7695
1512.662, 152.1602
1513.700, 124.1797
1514.739, 36.12500
1515.777, 10.90234
1516.815, 88.08594
1517.854, 29.91016
1518.892, 205.1172
1519.929, 37.17578
1520.967, 209.2500
1522.004, 348.3477
1523.042, 212.4648
1524.079, 86.60156
1525.116, 68.75781
1526.153, 188.9375
1527.190, 141.2070
1528.226, 316.4570
1529.263, 239.5273
1530.299, 388.6797
1531.335, 482.6758
1532.371, 226.2109
1533.407, 219.9141
1534.443, 165.9375
1535.478, 125.9297
1536.514, 147.3281
1537.549, 100.4453
1538.584, 216.9766
1539.619, 92.77344
1540.654, 201.2031
1541.689, 263.0000
1542.723, 233.0859
1543.757, 307.8281
1544.792, 301.9023
1545.826, 259.1758
1546.860, 268.9336
1547.893, 136.3594
1548.927, 43.93359
1549.960, 257.8828
1550.994, 181.3203
1552.027, 14.86328
1553.060, 293.2734
1554.093, 3.613281
1555.126, 55.87500
1556.158, 442.1719
1557.191, 198.2539
1558.223, 130.0859
1559.255, 270.1719
1560.287, 239.8008
1561.319, 253.5312
1562.350, 270.4883
1563.382, 0.0000000E+00
##END=



