##NAMES=Kyanite
##RRUFFID=R050450
##IDEAL CHEMISTRY=Al_2_OSiO_4_
##LOCALITY=Switzerland
##OWNER=RRUFF
##SOURCE=Marcus Origlieri
##DESCRIPTION=Blue bladed crystals
##STATUS=The identification of this mineral has been confirmed by X-ray diffraction and chemical analysis
##URL=rruff.info/R050450
##MEASURED CHEMISTRY=Al_2.00_OSi_1.00_O_4_
##PIN_ID=M01448
##ORIENTATION=Laser parallel to -c* (0 0 -1). Fiducial mark perpendicular to laser is parallel to -a [-1 0 0]
148.7160, 0.0000000E+00
149.9470, 0.5742190
151.1780, 136.4805
152.4080, 192.6484
153.6380, 296.8438
154.8690, 276.5781
156.0980, 218.0957
157.3280, 254.6211
158.5580, 148.4980
159.7870, 219.4688
161.0170, 157.3379
162.2460, 29.93457
163.4750, 187.7256
164.7030, 146.1270
165.9320, 262.1035
167.1600, 215.5381
168.3890, 359.3496
169.6170, 311.4775
170.8450, 254.8740
172.0730, 234.5137
173.3000, 423.4375
174.5280, 336.1377
175.7550, 447.6211
176.9820, 355.1221
178.2090, 255.5410
179.4350, 318.9014
180.6620, 208.1875
181.8880, 54.42480
183.1150, 127.6309
184.3410, 154.8203
185.5670, 314.0029
186.7920, 278.1875
188.0180, 240.3779
189.2430, 232.5762
190.4690, 357.7871
191.6940, 280.0137
192.9180, 312.2617
194.1430, 226.5381
195.3680, 355.8389
196.5920, 446.4434
197.8160, 251.7764
199.0400, 487.9912
200.2640, 623.3594
201.4880, 392.5703
202.7110, 406.8691
203.9350, 409.3369
205.1580, 548.8887
206.3810, 405.5205
207.6040, 422.6328
208.8270, 361.3936
210.0490, 216.2422
211.2710, 55.18652
212.4940, 229.2236
213.7160, 254.3467
214.9370, 118.5537
216.1590, 246.8398
217.3810, 169.2021
218.6020, 109.6406
219.8230, 295.1504
221.0440, 99.73047
222.2650, 196.3701
223.4860, 256.0322
224.7060, 303.7246
225.9260, 510.4463
227.1470, 564.2021
228.3670, 613.9912
229.5860, 262.7939
230.8060, 265.6357
232.0260, 249.5176
233.2450, 43.44238
234.4640, 34.43066
235.6830, 145.4834
236.9020, 146.5762
238.1200, 2.709961
239.3390, 160.8818
240.5570, 300.0928
241.7750, 121.3438
242.9930, 15.36816
244.2110, 129.9600
245.4290, 64.32617
246.6460, 8.728516
247.8630, 22.83105
249.0810, 93.21973
250.2980, 94.41602
251.5140, 72.09277
252.7310, 96.63379
253.9470, 18.20605
255.1640, 100.1895
256.3800, 203.5527
257.5960, 107.0752
258.8120, 227.8135
260.0270, 462.5439
261.2430, 375.0654
262.4580, 313.0996
263.6730, 122.9229
264.8880, 58.77832
266.1030, 23.30664
267.3170, 14.67480
268.5320, 157.7363
269.7460, 166.0010
270.9600, 154.5439
272.1740, 60.11914
273.3880, 150.7383
274.6010, 90.43457
275.8150, 348.0576
277.0280, 835.6514
278.2410, 816.2666
279.4540, 973.9004
280.6670, 713.5508
281.8790, 427.2197
283.0920, 197.9072
284.3040, 250.6152
285.5160, 125.3447
286.7280, 436.0918
287.9400, 388.8594
289.1510, 610.6465
290.3630, 1363.454
291.5740, 1924.279
292.7850, 2235.124
293.9960, 1971.989
295.2070, 1867.854
296.4170, 1699.510
297.6280, 2048.412
298.8380, 2799.372
300.0480, 4410.384
301.2580, 6273.451
302.4680, 7270.461
303.6770, 6019.539
304.8870, 4259.684
306.0960, 2702.884
307.3050, 1681.139
308.5140, 1033.032
309.7230, 572.3838
310.9310, 322.7754
312.1400, 360.2363
313.3480, 269.7588
314.5560, 338.3184
315.7640, 424.9111
316.9720, 685.5381
318.1790, 825.1992
319.3870, 984.7598
320.5940, 1062.477
321.8010, 1228.217
323.0080, 2219.977
324.2150, 3288.756
325.4210, 4744.555
326.6280, 5619.373
327.8340, 5002.213
329.0400, 3442.070
330.2460, 2244.949
331.4510, 1349.848
332.6570, 847.7676
333.8620, 337.7109
335.0680, 59.67188
336.2730, 150.6504
337.4780, 101.6523
338.6820, 68.67578
339.8870, 268.7168
341.0910, 371.7754
342.2950, 292.8496
343.5000, 388.9453
344.7030, 241.0508
345.9070, 264.1230
347.1110, 38.22070
348.3140, 41.82812
349.5170, 27.85742
350.7200, 84.13086
351.9230, 92.14258
353.1260, 285.1699
354.3290, 100.2207
355.5310, 308.2930
356.7330, 691.3867
357.9350, 861.5039
359.1370, 1289.639
360.3390, 1921.795
361.5400, 2055.973
362.7420, 1726.168
363.9430, 1209.385
365.1440, 975.6191
366.3450, 671.8750
367.5460, 575.1484
368.7460, 661.4395
369.9470, 993.7520
371.1470, 1369.082
372.3470, 1903.430
373.5470, 2268.797
374.7460, 2095.182
375.9460, 2367.584
377.1450, 2354.004
378.3450, 2770.445
379.5440, 2503.900
380.7430, 2239.688
381.9410, 2194.180
383.1400, 2492.686
384.3380, 2919.045
385.5370, 2868.406
386.7350, 3443.742
387.9320, 3025.680
389.1300, 2820.174
390.3280, 2929.830
391.5250, 3555.447
392.7220, 4306.637
393.9190, 4137.969
395.1160, 3302.725
396.3130, 2209.227
397.5100, 1923.902
398.7060, 1543.592
399.9020, 1226.197
401.0980, 1800.873
402.2940, 2748.602
403.4900, 3865.342
404.6860, 4928.094
405.8810, 4562.859
407.0760, 3631.639
408.2710, 2335.430
409.4660, 1708.234
410.6610, 1059.482
411.8550, 819.3086
413.0500, 685.1484
414.2440, 655.9980
415.4380, 732.1094
416.6320, 957.7266
417.8260, 1190.604
419.0190, 1457.494
420.2130, 1427.713
421.4060, 1624.301
422.5990, 1304.219
423.7920, 883.1426
424.9850, 731.0801
426.1770, 486.0215
427.3700, 325.9727
428.5620, 394.9355
429.7540, 626.9160
430.9460, 732.9082
432.1380, 871.9062
433.3290, 1398.916
434.5210, 2113.936
435.7120, 2500.961
436.9030, 3301.996
438.0940, 3607.039
439.2850, 3812.098
440.4750, 3283.168
441.6660, 2619.252
442.8560, 1939.350
444.0460, 1348.461
445.2360, 1049.580
446.4260, 869.7109
447.6160, 1128.854
448.8050, 1196.006
449.9940, 1229.168
451.1830, 970.3398
452.3720, 686.5293
453.5610, 468.7285
454.7500, 310.6895
455.9380, 131.2129
457.1260, 123.5586
458.3150, 57.79883
459.5020, 127.3770
460.6900, 78.66016
461.8780, 59.02539
463.0650, 115.2676
464.2530, 111.5645
465.4400, 264.8691
466.6270, 125.2051
467.8130, 98.54688
469.0000, 344.8965
470.1870, 183.2520
471.3730, 81.61328
472.5590, 394.9785
473.7450, 476.3672
474.9310, 526.7598
476.1160, 916.1602
477.3020, 1023.568
478.4870, 1710.980
479.6720, 2268.398
480.8570, 3083.820
482.0420, 3924.246
483.2270, 5496.676
484.4110, 8017.197
485.5960, 11020.65
486.7800, 13396.11
487.9640, 13933.58
489.1480, 12234.05
490.3310, 9555.523
491.5150, 7146.914
492.6980, 5532.793
493.8810, 4091.289
495.0640, 3297.793
496.2470, 2430.299
497.4300, 2094.812
498.6120, 1440.326
499.7950, 1171.846
500.9770, 830.3691
502.1590, 798.9102
503.3410, 653.4570
504.5220, 723.0039
505.7040, 634.5664
506.8850, 506.1172
508.0660, 605.6797
509.2470, 626.2988
510.4280, 724.9219
511.6090, 940.5469
512.7890, 951.1777
513.9700, 854.8145
515.1500, 877.4570
516.3300, 763.1035
517.5100, 489.7617
518.6900, 430.4219
519.8690, 302.0820
521.0490, 80.74805
522.2280, 33.58594
523.4070, 178.0547
524.5860, 36.70117
525.7640, 104.6328
526.9430, 157.0039
528.1210, 36.32617
529.3000, 70.66016
530.4780, 343.0215
531.6560, 217.5723
532.8330, 94.75781
534.0110, 10.91406
535.1880, 1.599609
536.3650, 48.73047
537.5430, 180.9121
538.7190, 126.3496
539.8960, 177.6113
541.0730, 214.8691
542.2490, 30.16992
543.4250, 240.5098
544.6020, 157.8477
545.7780, 305.1836
546.9530, 390.6230
548.1290, 308.1445
549.3040, 335.4688
550.4800, 281.8672
551.6550, 221.1855
552.8300, 226.5039
554.0040, 71.83594
555.1790, 313.1953
556.3540, 147.9824
557.5280, 226.2949
558.7020, 718.6016
559.8760, 1188.766
561.0500, 1385.061
562.2230, 1705.350
563.3970, 2120.791
564.5700, 2027.359
565.7430, 1912.631
566.9160, 1438.904
568.0890, 1198.623
569.2620, 997.0352
570.4340, 1009.930
571.6070, 1176.754
572.7790, 891.9805
573.9510, 941.6387
575.1230, 994.5215
576.2940, 742.8066
577.4660, 763.0430
578.6370, 495.8164
579.8080, 410.4805
580.9790, 462.6406
582.1500, 339.2520
583.3210, 378.7988
584.4910, 552.5508
585.6620, 609.7520
586.8320, 512.8613
588.0020, 597.9590
589.1720, 515.0449
590.3410, 428.1191
591.5110, 244.1836
592.6800, 135.7871
593.8500, 118.3496
595.0190, 84.27930
596.1880, 61.55664
597.3560, 79.99023
598.5250, 179.0879
599.6930, 31.87695
600.8620, 365.4219
602.0300, 332.2695
603.1970, 586.5781
604.3650, 660.3867
605.5330, 806.3203
606.7000, 863.4551
607.8680, 1011.223
609.0350, 825.8945
610.2020, 532.6309
611.3680, 619.4316
612.5350, 489.6191
613.7010, 507.5215
614.8680, 388.2871
616.0340, 347.6641
617.2000, 444.9375
618.3660, 265.9023
619.5310, 432.7637
620.6970, 426.3535
621.8620, 386.9277
623.0270, 223.3262
624.1920, 129.4805
625.3570, 392.8164
626.5220, 337.0293
627.6860, 446.6758
628.8500, 477.6406
630.0140, 543.5781
631.1780, 531.3652
632.3420, 580.4824
633.5060, 863.0801
634.6700, 918.8672
635.8330, 945.7812
636.9960, 1224.256
638.1590, 1085.582
639.3220, 1048.463
640.4850, 924.7500
641.6470, 1078.646
642.8100, 459.8926
643.9720, 428.7012
645.1340, 517.4727
646.2960, 334.5059
647.4570, 308.7383
648.6190, 600.0684
649.7800, 317.0215
650.9420, 268.5000
652.1030, 505.7656
653.2640, 639.0723
654.4240, 600.1426
655.5850, 614.7266
656.7450, 647.9258
657.9060, 780.5312
659.0660, 686.0059
660.2260, 745.3496
661.3850, 843.2480
662.5450, 606.9629
663.7040, 660.0996
664.8640, 649.6602
666.0230, 807.3906
667.1820, 673.3594
668.3410, 751.9824
669.4990, 820.2793
670.6580, 818.5840
671.8160, 903.5781
672.9740, 782.9688
674.1320, 746.4414
675.2900, 553.2832
676.4480, 532.8535
677.6050, 365.6309
678.7630, 325.9395
679.9200, 243.7578
681.0770, 200.8633
682.2340, 220.8809
683.3900, 298.8789
684.5470, 228.4844
685.7030, 178.8730
686.8590, 159.0332
688.0150, 319.3691
689.1710, 188.1875
690.3270, 319.1328
691.4830, 276.0371
692.6380, 247.7461
693.7930, 206.0391
694.9480, 103.2207
696.1030, 364.3691
697.2580, 314.4961
698.4130, 45.71094
699.5670, 318.3008
700.7210, 293.3594
701.8750, 182.1875
703.0290, 151.5938
704.1830, 251.5488
705.3370, 220.9395
706.4900, 112.8379
707.6430, 186.1582
708.7970, 3.001953
709.9490, 84.78320
711.1020, 260.7559
712.2550, 121.4824
713.4070, 71.17773
714.5600, 207.8398
715.7120, 217.4746
716.8640, 88.08008
718.0160, 112.6543
719.1670, 232.1953
720.3190, 121.9180
721.4700, 135.1914
722.6210, 83.64062
723.7720, 214.0547
724.9230, 302.4434
726.0740, 455.8027
727.2250, 327.1348
728.3750, 335.4355
729.5250, 304.7090
730.6750, 104.9551
731.8250, 112.1680
732.9750, 156.3477
734.1240, 61.76562
735.2740, 73.41992
736.4230, 177.5254
737.5720, 42.57812
738.7210, 55.73242
739.8700, 44.79883
741.0190, 146.0664
742.1670, 232.9160
743.3150, 199.7344
744.4630, 50.47656
745.6110, 313.2383
746.7590, 43.92578
747.9070, 248.5762
749.0540, 215.2012
750.2020, 119.7988
751.3490, 16.63672
752.4960, 212.8711
753.6430, 67.35156
754.7890, 84.79688
755.9360, 155.2207
757.0820, 176.6152
758.2280, 249.9805
759.3740, 309.3203
760.5200, 53.62891
761.6660, 90.90234
762.8120, 10.93750
763.9570, 69.25195
765.1020, 200.4043
766.2470, 119.5273
767.3920, 122.6309
768.5370, 153.7031
769.6810, 6.742188
770.8260, 192.7402
771.9700, 15.70898
773.1140, 108.6387
774.2580, 209.5352
775.4020, 256.4023
776.5460, 103.2402
777.6890, 249.0469
778.8320, 41.17383
779.9750, 250.5371
781.1180, 102.2461
782.2610, 105.9238
783.4040, 53.56836
784.5460, 32.25781
785.6890, 178.1719
786.8310, 55.30078
787.9730, 151.7383
789.1150, 197.1426
790.2560, 4.482422
791.3980, 33.84766
792.5390, 105.1406
793.6810, 27.56445
794.8220, 198.6719
795.9630, 114.8770
797.1030, 11.05078
798.2440, 294.1855
799.3840, 204.2969
800.5240, 16.39258
801.6650, 45.55273
802.8040, 93.96484
803.9440, 100.9902
805.0840, 57.81445
806.2230, 26.04883
807.3630, 145.6816
808.5020, 153.4746
809.6410, 64.29688
810.7790, 233.0859
811.9180, 66.14648
813.0570, 19.45312
814.1950, 4.812500
815.3330, 57.83594
816.4710, 166.4492
817.6090, 77.96484
818.7470, 99.53516
819.8840, 106.0059
821.0220, 193.4414
822.1590, 241.8496
823.2960, 53.13086
824.4330, 335.2910
825.5690, 116.6191
826.7060, 79.83789
827.8420, 83.10352
828.9790, 45.65820
830.1150, 216.5117
831.2510, 291.6250
832.3860, 356.2773
833.5220, 339.7188
834.6570, 207.4355
835.7930, 109.6152
836.9280, 229.6309
838.0630, 45.61914
839.1980, 132.4355
840.3320, 413.0898
841.4670, 122.0078
842.6010, 301.9023
843.7350, 124.3164
844.8690, 341.0020
846.0030, 337.1680
847.1370, 178.3770
848.2700, 317.1445
849.4040, 243.9688
850.5370, 421.4941
851.6700, 237.1016
852.8030, 328.7227
853.9360, 338.7773
855.0680, 318.9062
856.2000, 263.5020
857.3330, 303.5449
858.4650, 280.7598
859.5970, 349.6660
860.7290, 386.0879
861.8600, 405.5684
862.9920, 596.0254
864.1230, 571.4570
865.2540, 643.8652
866.3850, 443.2500
867.5160, 507.0625
868.6460, 582.8770
869.7770, 703.8516
870.9070, 847.4102
872.0370, 861.0879
873.1670, 675.1953
874.2970, 856.5762
875.4270, 916.1641
876.5570, 864.4219
877.6860, 1049.303
878.8150, 1262.521
879.9440, 1536.584
881.0730, 1524.406
882.2020, 1581.852
883.3300, 2051.062
884.4590, 2281.732
885.5870, 2640.750
886.7150, 2916.348
887.8430, 3489.678
888.9710, 3816.625
890.0990, 4170.926
891.2260, 4306.250
892.3530, 4309.891
893.4810, 4361.900
894.6080, 4623.855
895.7340, 4539.154
896.8610, 4771.229
897.9880, 4834.508
899.1140, 5234.734
900.2400, 5621.883
901.3660, 5812.572
902.4920, 5916.314
903.6180, 5464.641
904.7430, 4990.387
905.8690, 4237.947
906.9940, 3397.512
908.1190, 2723.326
909.2440, 2577.500
910.3690, 2133.076
911.4930, 1657.805
912.6180, 1530.896
913.7420, 1323.980
914.8660, 1437.234
915.9900, 1214.029
917.1140, 1153.121
918.2380, 1234.391
919.3610, 1133.195
920.4850, 1019.701
921.6080, 1145.193
922.7310, 1002.898
923.8540, 1083.039
924.9760, 1294.352
926.0990, 1275.090
927.2210, 1288.520
928.3440, 1383.057
929.4660, 1476.812
930.5880, 1604.043
931.7090, 1690.943
932.8310, 1850.371
933.9520, 1844.525
935.0740, 2073.711
936.1950, 2304.168
937.3160, 2688.180
938.4360, 2742.707
939.5570, 3084.215
940.6780, 3368.305
941.7980, 3479.512
942.9180, 3904.342
944.0380, 4219.193
945.1580, 4951.666
946.2780, 5325.850
947.3970, 5881.092
948.5170, 6725.854
949.6360, 7314.238
950.7550, 7776.984
951.8740, 8101.842
952.9930, 7832.316
954.1110, 7704.816
955.2300, 7310.336
956.3480, 6831.207
957.4660, 6152.582
958.5840, 5641.818
959.7020, 5280.957
960.8190, 5323.826
961.9370, 4838.152
963.0540, 4596.070
964.1710, 4416.660
965.2880, 4167.586
966.4050, 3800.854
967.5220, 3507.775
968.6380, 3031.686
969.7550, 2463.814
970.8710, 2122.385
971.9870, 1947.340
973.1030, 1771.131
974.2190, 1666.553
975.3340, 1471.266
976.4500, 1286.266
977.5650, 1153.072
978.6800, 1010.508
979.7950, 901.2988
980.9100, 672.0938
982.0250, 701.1562
983.1390, 940.9277
984.2530, 512.7070
985.3680, 729.4766
986.4820, 691.2344
987.5950, 477.1953
988.7090, 540.0215
989.8230, 564.7598
990.9360, 744.9062
992.0490, 597.6621
993.1620, 596.0215
994.2750, 692.7539
995.3880, 610.5820
996.5010, 613.2891
997.6130, 710.5742
998.7250, 841.6660
999.8370, 859.3398
1000.949, 1175.203
1002.061, 1194.057
1003.173, 1133.055
1004.284, 1126.117
1005.396, 996.7461
1006.507, 679.1523
1007.618, 423.9668
1008.729, 506.7988
1009.839, 485.8379
1010.950, 363.4609
1012.060, 452.4043
1013.171, 311.0293
1014.281, 484.6992
1015.391, 68.33594
1016.500, 395.9570
1017.610, 7.105469
1018.719, 275.6992
1019.829, 229.2812
1020.938, 21.85742
1022.047, 188.9766
1023.156, 217.8672
1024.264, 53.08984
1025.373, 139.6992
1026.481, 66.43359
1027.589, 135.3164
1028.697, 52.17969
1029.805, 170.0977
1030.913, 276.5938
1032.020, 101.0391
1033.128, 178.8828
1034.235, 270.3945
1035.342, 41.58594
1036.449, 305.8008
1037.556, 67.46875
1038.663, 26.83203
1039.769, 226.2500
1040.875, 28.59375
1041.981, 191.9219
1043.087, 161.2383
1044.193, 131.8008
1045.299, 284.0938
1046.404, 39.77734
1047.510, 84.69531
1048.615, 99.97266
1049.720, 137.3594
1050.825, 93.54688
1051.930, 143.2070
1053.034, 202.8789
1054.139, 116.9570
1055.243, 226.0781
1056.347, 163.4531
1057.451, 226.5469
1058.555, 26.62500
1059.658, 429.8086
1060.762, 136.1250
1061.865, 351.8555
1062.968, 195.8398
1064.071, 138.8086
1065.174, 33.76562
1066.277, 5.847656
1067.380, 173.6328
1068.482, 46.54297
1069.584, 42.44141
1070.686, 277.3438
1071.788, 45.43750
1072.890, 75.84766
1073.992, 46.10547
1075.093, 319.2578
1076.194, 166.1875
1077.295, 145.3281
1078.396, 140.2344
1079.497, 150.4609
1080.598, 5.367188
1081.698, 76.54297
1082.799, 53.43750
1083.899, 135.3125
1084.999, 285.4961
1086.099, 253.9219
1087.199, 275.3750
1088.298, 326.3906
1089.398, 15.60547
1090.497, 345.2969
1091.596, 121.1016
1092.695, 60.89453
1093.794, 219.6719
1094.892, 10.43750
1095.991, 125.4102
1097.089, 136.3906
1098.187, 71.13281
1099.285, 188.8555
1100.383, 239.0234
1101.481, 67.71094
1102.579, 11.60938
1103.676, 127.0898
1104.773, 52.27344
1105.870, 273.3164
1106.967, 77.89062
1108.064, 27.36719
1109.161, 205.1641
1110.257, 135.3945
1111.353, 213.8906
1112.449, 177.7734
1113.545, 36.24219
1114.641, 197.2812
1115.737, 324.9805
1116.832, 436.0078
1117.928, 345.4141
1119.023, 114.7773
1120.118, 144.1484
1121.213, 272.5039
1122.308, 62.23828
1123.402, 558.5391
1124.497, 23.14453
1125.591, 297.4258
1126.685, 145.7227
1127.779, 326.3398
1128.873, 304.6016
1129.967, 217.9961
1131.060, 224.5781
1132.153, 122.7969
1133.247, 123.3711
1134.340, 87.06641
1135.433, 69.71094
1136.525, 179.6289
1137.618, 55.70312
1138.710, 125.5547
1139.802, 118.9570
1140.895, 72.98047
1141.987, 396.9844
1143.078, 95.32812
1144.170, 364.4180
1145.261, 172.7617
1146.353, 280.7070
1147.444, 226.3359
1148.535, 1.273438
1149.626, 275.6406
1150.716, 211.7930
1151.807, 358.1211
1152.897, 52.62500
1153.988, 106.3945
1155.078, 67.79688
1156.168, 117.6211
1157.257, 128.8438
1158.347, 88.74609
1159.436, 12.00781
1160.526, 75.66406
1161.615, 172.3242
1162.704, 304.9648
1163.793, 87.88672
1164.881, 22.50781
1165.970, 41.05469
1167.058, 215.1875
1168.147, 112.7070
1169.235, 271.1562
1170.323, 10.16016
1171.410, 181.9648
1172.498, 320.9297
1173.585, 432.3438
1174.673, 121.7500
1175.760, 318.0859
1176.847, 4.453125
1177.934, 27.74219
1179.020, 167.4180
1180.107, 73.46875
1181.193, 301.7070
1182.279, 160.6797
1183.365, 364.8008
1184.451, 224.9688
1185.537, 219.9883
1186.623, 106.1211
1187.708, 187.2266
1188.793, 176.7305
1189.878, 144.3008
1190.963, 220.3555
1192.048, 286.9102
1193.133, 240.9297
1194.217, 243.9336
1195.302, 221.8906
1196.386, 187.3125
1197.470, 240.6523
1198.554, 168.4805
1199.638, 239.9805
1200.721, 336.4453
1201.805, 121.3320
1202.888, 49.77344
1203.971, 88.31641
1205.054, 112.7188
1206.137, 180.5273
1207.219, 109.3164
1208.302, 399.0742
1209.384, 82.79297
1210.466, 507.5273
1211.548, 95.64453
1212.630, 416.0391
1213.712, 182.3164
1214.794, 85.92188
1215.875, 6.437500
1216.956, 22.17188
1218.037, 229.7578
1219.118, 84.32812
1220.199, 143.9414
1221.280, 377.4727
1222.360, 217.9297
1223.441, 362.3242
1224.521, 200.7969
1225.601, 108.8320
1226.681, 108.1641
1227.760, 265.5312
1228.840, 506.6016
1229.919, 51.99219
1230.999, 383.3555
1232.078, 249.6367
1233.157, 149.7578
1234.236, 521.9688
1235.314, 218.5156
1236.393, 185.7930
1237.471, 115.7461
1238.549, 233.7695
1239.627, 27.00000
1240.705, 257.1016
1241.783, 61.26953
1242.860, 308.4180
1243.938, 16.31250
1245.015, 51.58203
1246.092, 11.47266
1247.169, 266.5039
1248.246, 47.00391
1249.323, 210.7617
1250.399, 252.6289
1251.475, 62.55469
1252.552, 126.9531
1253.628, 83.85547
1254.703, 173.0312
1255.779, 176.4023
1256.855, 82.05859
1257.930, 362.1406
1259.005, 126.8672
1260.080, 77.57812
1261.155, 366.2617
1262.230, 69.72266
1263.305, 36.17188
1264.379, 44.44141
1265.454, 9.578125
1266.528, 29.64062
1267.602, 107.9688
1268.676, 70.57422
1269.750, 185.1523
1270.823, 166.3320
1271.897, 72.31250
1272.970, 80.54688
1274.043, 37.14844
1275.116, 440.5898
1276.189, 217.5742
1277.261, 224.2031
1278.334, 156.4062
1279.406, 95.72266
1280.478, 48.01562
1281.550, 124.2930
1282.622, 4.000000
1283.694, 14.91406
1284.766, 231.6406
1285.837, 47.58203
1286.908, 349.5508
1287.979, 175.3398
1289.050, 70.12891
1290.121, 232.9297
1291.192, 157.3906
1292.262, 43.85156
1293.333, 286.9258
1294.403, 170.1562
1295.473, 284.9531
1296.543, 313.0352
1297.613, 89.22266
1298.682, 263.6406
1299.752, 66.77344
1300.821, 200.7969
1301.890, 299.8125
1302.959, 293.8164
1304.028, 377.5469
1305.096, 384.5195
1306.165, 298.0781
1307.233, 343.4375
1308.301, 223.2461
1309.370, 275.0664
1310.437, 358.0078
1311.505, 238.8711
1312.573, 420.8320
1313.640, 176.7773
1314.708, 331.7070
1315.775, 343.3594
1316.842, 253.2656
1317.908, 41.16406
1318.975, 390.1289
1320.042, 96.99609
1321.108, 170.1367
1322.174, 287.0273
1323.240, 408.9023
1324.306, 352.7695
1325.372, 370.3945
1326.438, 268.6719
1327.503, 253.5078
1328.568, 195.3398
1329.634, 142.1602
1330.699, 331.7969
1331.763, 209.1172
1332.828, 223.5898
1333.893, 223.1523
1334.957, 173.9180
1336.021, 345.4492
1337.085, 251.1875
1338.149, 145.5859
1339.213, 366.3086
1340.277, 295.7422
1341.340, 376.7148
1342.404, 268.5742
1343.467, 336.9375
1344.530, 467.0625
1345.593, 345.1406
1346.655, 520.7969
1347.718, 13.88281
1348.780, 260.6289
1349.843, 116.2109
1350.905, 67.78906
1351.967, 273.3516
1353.028, 92.99219
1354.090, 169.3203
1355.152, 153.9961
1356.213, 332.5273
1357.274, 287.0430
1358.335, 229.4258
1359.396, 65.87891
1360.457, 312.3203
1361.517, 528.7070
1362.578, 209.1406
1363.638, 251.7461
1364.698, 333.1797
1365.758, 213.4258
1366.818, 308.3516
1367.878, 235.5469
1368.937, 303.9453
1369.997, 229.9375
1371.056, 65.31641
1372.115, 324.1094
1373.174, 219.2148
1374.232, 307.9688
1375.291, 10.32812
1376.350, 376.7031
1377.408, 224.0430
1378.466, 177.3750
1379.524, 482.3164
1380.582, 209.6562
1381.640, 322.6719
1382.697, 123.0195
1383.754, 489.2578
1384.812, 30.19141
1385.869, 268.4531
1386.926, 114.5625
1387.983, 165.4648
1389.039, 192.7070
1390.096, 172.5703
1391.152, 210.7734
1392.208, 196.0312
1393.264, 193.5117
1394.320, 152.1875
1395.376, 44.23047
1396.431, 40.48828
1397.487, 85.33594
1398.542, 26.44922
1399.597, 120.3945
1400.652, 110.4766
1401.707, 1.113281
1402.762, 207.4727
1403.816, 118.3359
1404.871, 4.707031
1405.925, 168.8594
1406.979, 310.7617
1408.033, 314.1289
1409.086, 279.4883
1410.140, 191.7188
1411.194, 153.2930
1412.247, 141.2344
1413.300, 140.1992
1414.353, 104.3828
1415.406, 165.3594
1416.458, 82.21094
1417.511, 8.421875
1418.563, 32.91797
1419.616, 19.59766
1420.668, 54.70703
1421.720, 31.95703
1422.772, 113.1016
1423.823, 8.246094
1424.875, 19.14062
1425.926, 68.29688
1426.977, 212.1094
1428.028, 398.2305
1429.079, 371.3594
1430.130, 320.4219
1431.180, 345.4727
1432.231, 306.5898
1433.281, 290.2617
1434.331, 276.6133
1435.381, 230.3906
1436.431, 222.4688
1437.481, 150.1328
1438.530, 281.0156
1439.580, 127.1250
1440.629, 364.5469
1441.678, 304.9648
1442.727, 386.9570
1443.776, 250.1758
1444.824, 64.55469
1445.873, 143.9297
1446.921, 52.29297
1447.969, 216.6523
1449.017, 257.0000
1450.065, 272.3516
1451.113, 256.6914
1452.160, 63.02734
1453.208, 500.3594
1454.255, 267.6875
1455.302, 444.0078
1456.349, 985.3438
1457.396, 454.0430
1458.443, 326.9492
1459.489, 355.0430
1460.535, 528.3281
1461.582, 562.5977
1462.628, 530.9922
1463.674, 269.7891
1464.719, 319.0430
1465.765, 343.2891
1466.810, 48.55078
1467.856, 72.82422
1468.901, 158.7617
1469.946, 310.0820
1470.991, 299.7969
1472.035, 558.1602
1473.080, 494.5820
1474.124, 216.5742
1475.169, 158.4609
1476.213, 286.8203
1477.257, 212.1836
1478.300, 87.56250
1479.344, 159.9609
1480.388, 27.02734
1481.431, 537.8125
1482.474, 417.9648
1483.517, 25.81250
1484.560, 591.4883
1485.603, 401.1562
1486.645, 525.4961
1487.688, 127.8477
1488.730, 60.21875
1489.772, 248.6016
1490.814, 269.8125
1491.856, 289.9805
1492.898, 349.2578
1493.939, 344.1250
1494.981, 412.0742
1496.022, 352.1016
1497.063, 476.4180
1498.104, 243.7383
1499.145, 221.0625
1500.186, 222.3828
1501.226, 344.6914
1502.266, 409.0039
1503.307, 402.3320
1504.347, 469.6641
1505.387, 429.5898
1506.426, 295.3906
1507.466, 144.6914
1508.505, 180.5430
1509.545, 359.8242
1510.584, 300.1016
1511.623, 339.4102
1512.662, 426.7266
1513.700, 412.9648
1514.739, 355.9805
1515.777, 424.9961
1516.815, 223.8633
1517.854, 108.1641
1518.892, 174.4492
1519.929, 330.9922
1520.967, 369.5391
1522.004, 280.8555
1523.042, 249.3047
1524.079, 202.7773
1525.116, 423.5938
1526.153, 486.4375
1527.190, 201.7305
1528.226, 329.6172
1529.263, 63.42188
1530.299, 196.6250
1531.335, 219.7148
1532.371, 174.8477
1533.407, 413.0156
1534.443, 482.2383
1535.478, 587.5352
1536.514, 371.9141
1537.549, 219.3672
1538.584, 157.8984
1539.619, 1.476563
1540.654, 415.2734
1541.689, 461.9492
1542.723, 378.9258
1543.757, 4.843750
1544.792, 278.7070
1545.826, 341.4375
1546.860, 505.2070
1547.893, 490.5195
1548.927, 276.8086
1549.960, 154.0586
1550.994, 196.2188
1552.027, 215.0625
1553.060, 249.0820
1554.093, 331.0195
1555.126, 350.0898
1556.158, 318.4062
1557.191, 268.9102
1558.223, 364.9570
1559.255, 30.25000
1560.287, 406.6992
1561.319, 1.367188
1562.350, 429.9805
1563.382, 0.0000000E+00
##END=



