##NAMES=Kyanite
##RRUFFID=R050450
##IDEAL CHEMISTRY=Al_2_OSiO_4_
##LOCALITY=Switzerland
##OWNER=RRUFF
##SOURCE=Marcus Origlieri
##DESCRIPTION=Blue bladed crystals
##STATUS=The identification of this mineral has been confirmed by X-ray diffraction and chemical analysis
##URL=rruff.info/R050450
##MEASURED CHEMISTRY=Al_2.00_OSi_1.00_O_4_
##PIN_ID=M01448
##ORIENTATION=Laser parallel to -c* (0 0 -1). Fiducial mark perpendicular to laser is parallel to -a [-1 0 0]
148.7160, 0.0000000E+00
149.9470, 98.59766
151.1780, 1.593750
152.4080, 315.0645
153.6380, 223.3887
154.8690, 314.6074
156.0980, 133.3779
157.3280, 142.3965
158.5580, 5.382813
159.7870, 89.14746
161.0170, 101.7568
162.2460, 23.15234
163.4750, 249.1602
164.7030, 137.6055
165.9320, 260.3750
167.1600, 385.3945
168.3890, 76.61523
169.6170, 196.0020
170.8450, 135.9980
172.0730, 269.0010
173.3000, 241.4385
174.5280, 142.2412
175.7550, 250.0928
176.9820, 304.9043
178.2090, 255.5645
179.4350, 272.1035
180.6620, 170.5459
181.8880, 149.9189
183.1150, 140.2402
184.3410, 156.5254
185.5670, 143.6270
186.7920, 167.0332
188.0180, 158.7393
189.2430, 208.5029
190.4690, 252.7344
191.6940, 247.5879
192.9180, 348.8076
194.1430, 281.8213
195.3680, 268.5918
196.5920, 337.9980
197.8160, 382.4688
199.0400, 510.4219
200.2640, 436.7705
201.4880, 606.8721
202.7110, 558.0508
203.9350, 610.4434
205.1580, 633.9062
206.3810, 481.4395
207.6040, 443.0400
208.8270, 426.7070
210.0490, 250.4473
211.2710, 193.2686
212.4940, 188.1719
213.7160, 260.1562
214.9370, 311.2197
216.1590, 200.3564
217.3810, 228.9551
218.6020, 190.8447
219.8230, 149.1904
221.0440, 155.6006
222.2650, 125.0703
223.4860, 219.5625
224.7060, 388.0713
225.9260, 359.6113
227.1470, 362.1846
228.3670, 323.7900
229.5860, 312.4297
230.8060, 34.10547
232.0260, 55.81738
233.2450, 27.43652
234.4640, 13.65332
235.6830, 47.83594
236.9020, 1.983398
238.1200, 55.90332
239.3390, 37.17578
240.5570, 114.2227
241.7750, 42.23438
242.9930, 75.78711
244.2110, 89.83887
245.4290, 127.9219
246.6460, 26.03320
247.8630, 89.82812
249.0810, 41.33789
250.2980, 237.5293
251.5140, 208.7480
252.7310, 57.99316
253.9470, 23.73340
255.1640, 100.5674
256.3800, 62.10645
257.5960, 17.24805
258.8120, 142.6289
260.0270, 139.1377
261.2430, 158.3623
262.4580, 326.9336
263.6730, 68.42285
264.8880, 176.9336
266.1030, 64.47559
267.3170, 77.04004
268.5320, 137.6250
269.7460, 122.8828
270.9600, 177.0400
272.1740, 235.5107
273.3880, 304.7490
274.6010, 427.0156
275.8150, 593.3330
277.0280, 810.6553
278.2410, 868.9912
279.4540, 791.3418
280.6670, 575.7080
281.8790, 315.0879
283.0920, 217.4834
284.3040, 282.8926
285.5160, 396.3174
286.7280, 384.7578
287.9400, 478.2109
289.1510, 934.6807
290.3630, 1248.163
291.5740, 1346.662
292.7850, 1429.173
293.9960, 1605.699
295.2070, 1483.984
296.4170, 1617.458
297.6280, 2228.166
298.8380, 3394.828
300.0480, 4435.555
301.2580, 5599.343
302.4680, 5418.189
303.6770, 4559.082
304.8870, 3067.965
306.0960, 1951.946
307.3050, 1342.965
308.5140, 623.0195
309.7230, 410.1045
310.9310, 200.2188
312.1400, 427.3613
313.3480, 361.5322
314.5560, 405.7275
315.7640, 563.9502
316.9720, 453.1934
318.1790, 969.4551
319.3870, 1089.732
320.5940, 1364.023
321.8010, 2135.328
323.0080, 3181.648
324.2150, 4639.984
325.4210, 5552.336
326.6280, 5489.701
327.8340, 4525.084
329.0400, 3268.482
330.2460, 2011.899
331.4510, 1283.334
332.6570, 722.7832
333.8620, 377.2510
335.0680, 362.7354
336.2730, 192.2373
337.4780, 241.7334
338.6820, 354.2188
339.8870, 420.7041
341.0910, 644.1162
342.2950, 561.5488
343.5000, 533.0010
344.7030, 412.4287
345.9070, 158.8779
347.1110, 130.3389
348.3140, 89.79492
349.5170, 116.2715
350.7200, 79.76953
351.9230, 176.2891
353.1260, 187.8271
354.3290, 370.3857
355.5310, 394.9639
356.7330, 629.5615
357.9350, 995.1777
359.1370, 1308.813
360.3390, 1454.467
361.5400, 1336.137
362.7420, 1338.825
363.9430, 1009.530
365.1440, 740.2539
366.3450, 639.9922
367.5460, 815.7480
368.7460, 816.5205
369.9470, 1188.309
371.1470, 1698.112
372.3470, 1717.933
373.5470, 2156.770
374.7460, 1952.622
375.9460, 2145.490
377.1450, 2460.373
378.3450, 2474.326
379.5440, 2431.473
380.7430, 2406.555
381.9410, 2492.905
383.1400, 3033.865
384.3380, 3546.584
385.5370, 3641.713
386.7350, 3390.921
387.9320, 3209.815
389.1300, 2812.843
390.3280, 2913.224
391.5250, 3508.586
392.7220, 3568.884
393.9190, 3077.744
395.1160, 2313.945
396.3130, 2076.081
397.5100, 1545.203
398.7060, 1409.746
399.9020, 1577.885
401.0980, 1992.898
402.2940, 3013.058
403.4900, 3768.226
404.6860, 4029.404
405.8810, 3559.594
407.0760, 3008.793
408.2710, 3017.041
409.4660, 1337.260
410.6610, 826.4873
411.8550, 553.7256
413.0500, 493.9893
414.2440, 242.2598
415.4380, 457.5400
416.6320, 521.8271
417.8260, 647.1201
419.0190, 685.1787
420.2130, 692.8545
421.4060, 681.0654
422.5990, 583.3916
423.7920, 533.7246
424.9850, 324.0615
426.1770, 269.4062
427.3700, 260.7559
428.5620, 338.1729
429.7540, 511.5254
430.9460, 775.8438
432.1380, 1136.222
433.3290, 1611.606
434.5210, 2237.996
435.7120, 2798.395
436.9030, 3337.797
438.0940, 3563.206
439.2850, 3575.622
440.4750, 3154.047
441.6660, 2290.485
442.8560, 1845.932
444.0460, 1275.387
445.2360, 989.8506
446.4260, 1095.321
447.6160, 953.7998
448.8050, 1069.286
449.9940, 913.7773
451.1830, 768.2773
452.3720, 470.7832
453.5610, 301.2969
454.7500, 151.9385
455.9380, 26.62109
457.1260, 118.1699
458.3150, 123.7266
459.5020, 119.2920
460.6900, 217.8613
461.8780, 201.3281
463.0650, 115.0439
464.2530, 225.6582
465.4400, 149.3223
466.6270, 133.9941
467.8130, 351.6699
469.0000, 261.3525
470.1870, 348.0410
471.3730, 307.7344
472.5590, 322.4316
473.7450, 357.1357
474.9310, 668.8447
476.1160, 957.5566
477.3020, 1272.273
478.4870, 1802.994
479.6720, 2624.719
480.8570, 3346.443
482.0420, 4802.176
483.2270, 6409.910
484.4110, 8982.645
485.5960, 11403.39
486.7800, 12842.13
487.9640, 12224.88
489.1480, 10345.64
490.3310, 8018.395
491.5150, 7222.156
492.6980, 5498.926
493.8810, 3803.729
495.0640, 2913.533
496.2470, 2129.340
497.4300, 1774.148
498.6120, 1252.963
499.7950, 1007.783
500.9770, 919.6094
502.1590, 804.4395
503.3410, 795.2715
504.5220, 495.1074
505.7040, 493.9434
506.8850, 526.7852
508.0660, 493.9473
509.2470, 717.4727
510.4280, 680.3223
511.6090, 750.1758
512.7890, 919.0430
513.9700, 570.9180
515.1500, 784.7949
516.3300, 518.6758
517.5100, 286.5801
518.6900, 250.4980
519.8690, 258.4238
521.0490, 21.64844
522.2280, 8.736328
523.4070, 0.1933590
524.5860, 162.1191
525.7640, 36.05859
526.9430, 32.00000
528.1210, 99.05859
529.3000, 118.1719
530.4780, 135.5996
531.6560, 156.5859
532.8330, 123.9258
534.0110, 116.3418
535.1880, 114.9727
536.3650, 40.34766
537.5430, 38.91406
538.7190, 50.50586
539.8960, 45.92188
541.0730, 69.66211
542.2490, 94.70312
543.4250, 313.4160
544.6020, 393.8340
545.7780, 285.1992
546.9530, 158.6113
548.1290, 163.0195
549.3040, 51.42969
550.4800, 202.8867
551.6550, 179.3418
552.8300, 116.7891
554.0040, 91.68750
555.1790, 269.1211
556.3540, 456.5527
557.5280, 318.0918
558.7020, 333.5117
559.8760, 594.8223
561.0500, 807.2324
562.2230, 1347.637
563.3970, 1178.033
564.5700, 1294.424
565.7430, 1171.809
566.9160, 966.1875
568.0890, 615.5605
569.2620, 559.1328
570.4340, 489.8574
571.6070, 586.4785
572.7790, 376.4941
573.9510, 495.0723
575.1230, 660.9355
576.2940, 447.7578
577.4660, 347.2422
578.6370, 405.7207
579.8080, 218.2148
580.9790, 237.5098
582.1500, 465.8555
583.3210, 677.1328
584.4910, 746.4043
585.6620, 894.6660
586.8320, 761.9160
588.0020, 632.1582
589.1720, 654.3906
590.3410, 532.6133
591.5110, 304.8262
592.6800, 182.0273
593.8500, 163.5137
595.0190, 79.52930
596.1880, 74.00586
597.3560, 239.8555
598.5250, 250.5332
599.6930, 170.1348
600.8620, 526.3379
602.0300, 384.8301
603.1970, 400.1758
604.3650, 510.2109
605.5330, 667.8418
606.7000, 735.5762
607.8680, 729.8613
609.0350, 781.1816
610.2020, 675.3867
611.3680, 721.3965
612.5350, 653.3223
613.7010, 693.3516
614.8680, 558.4531
616.0340, 447.4062
617.2000, 446.8711
618.3660, 343.7988
619.5310, 556.7109
620.6970, 259.6094
621.8620, 444.4922
623.0270, 404.4180
624.1920, 421.2734
625.3570, 361.1484
626.5220, 624.7266
627.6860, 494.8027
628.8500, 633.0293
630.0140, 489.8066
631.1780, 804.2012
632.3420, 782.5273
633.5060, 1028.828
634.6700, 886.6367
635.8330, 1195.334
636.9960, 1345.018
638.1590, 1167.422
639.3220, 1078.252
640.4850, 946.4746
641.6470, 710.7891
642.8100, 681.9258
643.9720, 590.0137
645.1340, 381.0469
646.2960, 426.1152
647.4570, 304.0527
648.6190, 392.1328
649.7800, 462.4082
650.9420, 473.6660
652.1030, 420.8672
653.2640, 477.4688
654.4240, 669.7578
655.5850, 777.9082
656.7450, 702.2070
657.9060, 808.1289
659.0660, 517.5098
660.2260, 780.3027
661.3850, 654.1211
662.5450, 381.1719
663.7040, 492.8223
664.8640, 482.1016
666.0230, 660.5234
667.1820, 556.4863
668.3410, 474.7871
669.4990, 532.2285
670.6580, 782.6738
671.8160, 649.4785
672.9740, 583.2695
674.1320, 576.7559
675.2900, 445.3105
676.4480, 473.2422
677.6050, 444.5566
678.7630, 267.6523
679.9200, 259.6094
681.0770, 282.5723
682.2340, 66.60352
683.3900, 136.5293
684.5470, 229.2148
685.7030, 407.0566
686.8590, 193.1270
688.0150, 165.2695
689.1710, 202.3379
690.3270, 191.1445
691.4830, 223.9336
692.6380, 24.29688
693.7930, 224.4219
694.9480, 338.4199
696.1030, 149.8535
697.2580, 606.8965
698.4130, 0.7421880
699.5670, 206.3340
700.7210, 390.3906
701.8750, 379.9434
703.0290, 419.6621
704.1830, 420.0801
705.3370, 248.2070
706.4900, 340.1758
707.6430, 133.2070
708.7970, 96.15234
709.9490, 120.1426
711.1020, 39.56250
712.2550, 128.0273
713.4070, 57.34961
714.5600, 66.64453
715.7120, 144.9180
716.8640, 145.1660
718.0160, 140.9805
719.1670, 196.9746
720.3190, 172.6133
721.4700, 243.7715
722.6210, 337.9062
723.7720, 317.0176
724.9230, 208.1074
726.0740, 326.1758
727.2250, 301.2227
728.3750, 259.2480
729.5250, 330.2520
730.6750, 286.2305
731.8250, 119.1895
732.9750, 2.125000
734.1240, 12.57422
735.2740, 40.62109
736.4230, 64.45312
737.5720, 80.25977
738.7210, 173.0391
739.8700, 100.7949
741.0190, 52.47461
742.1670, 25.18750
743.3150, 137.1816
744.4630, 44.33594
745.6110, 136.8242
746.7590, 125.2930
747.9070, 208.7344
749.0540, 43.15234
750.2020, 222.5449
751.3490, 79.91211
752.4960, 162.2559
753.6430, 234.5703
754.7890, 68.87891
755.9360, 198.1582
757.0820, 272.4141
758.2280, 285.6484
759.3740, 305.6641
760.5200, 180.0547
761.6660, 203.2246
762.8120, 185.3711
763.9570, 34.49805
765.1020, 130.5957
766.2470, 90.66992
767.3920, 284.7402
768.5370, 47.78711
769.6810, 55.80859
770.8260, 92.19922
771.9700, 171.7090
773.1140, 390.5898
774.2580, 244.4492
775.4020, 34.29102
776.5460, 11.10156
777.6890, 52.88086
778.8320, 38.63281
779.9750, 64.35938
781.1180, 72.34375
782.2610, 81.57617
783.4040, 68.40430
784.5460, 95.03711
785.6890, 56.64062
786.8310, 28.22266
787.9730, 28.03516
789.1150, 33.70117
790.2560, 8.767578
791.3980, 21.20312
792.5390, 29.60938
793.6810, 69.01172
794.8220, 31.70508
795.9630, 11.54688
797.1030, 78.76758
798.2440, 148.9648
799.3840, 50.85352
800.5240, 18.27344
801.6650, 24.62500
802.8040, 138.4277
803.9440, 146.4570
805.0840, 23.47656
806.2230, 27.50586
807.3630, 115.5059
808.5020, 182.5312
809.6410, 205.5820
810.7790, 126.6504
811.9180, 1.726563
813.0570, 210.8086
814.1950, 47.11719
815.3330, 162.9141
816.4710, 231.9238
817.6090, 206.9160
818.7470, 166.9160
819.8840, 214.5527
821.0220, 19.45898
822.1590, 169.6094
823.2960, 138.1973
824.4330, 1.3672000E-02
825.5690, 175.2598
826.7060, 240.3711
827.8420, 258.9844
828.9790, 206.5820
830.1150, 180.7070
831.2510, 108.2676
832.3860, 144.8086
833.5220, 197.2148
834.6570, 128.7168
835.7930, 187.9102
836.9280, 61.76758
838.0630, 252.2090
839.1980, 131.6309
840.3320, 192.0352
841.4670, 44.41992
842.6010, 55.77930
843.7350, 35.11914
844.8690, 49.23242
846.0030, 33.18359
847.1370, 134.2070
848.2700, 251.8105
849.4040, 289.8418
850.5370, 372.5684
851.6700, 319.3125
852.8030, 417.3652
853.9360, 30.40039
855.0680, 110.3926
856.2000, 185.5508
857.3330, 226.6348
858.4650, 299.7559
859.5970, 336.8633
860.7290, 460.9531
861.8600, 311.0273
862.9920, 475.0820
864.1230, 279.1328
865.2540, 466.1719
866.3850, 335.1895
867.5160, 282.2051
868.6460, 466.9082
869.7770, 534.0605
870.9070, 413.7207
872.0370, 612.9785
873.1670, 669.3809
874.2970, 610.8340
875.4270, 648.6562
876.5570, 839.1602
877.6860, 652.7832
878.8150, 1097.693
879.9440, 906.9766
881.0730, 1342.133
882.2020, 1272.707
883.3300, 1574.219
884.4590, 1707.000
885.5870, 1828.088
886.7150, 2272.854
887.8430, 2600.129
888.9710, 2794.734
890.0990, 3014.588
891.2260, 2975.773
892.3530, 3112.498
893.4810, 3116.182
894.6080, 3110.152
895.7340, 3327.811
896.8610, 3259.395
897.9880, 3743.021
899.1140, 3534.217
900.2400, 3954.115
901.3660, 4003.443
902.4920, 3741.756
903.6180, 3508.324
904.7430, 3107.248
905.8690, 2573.215
906.9940, 2330.342
908.1190, 1718.766
909.2440, 1451.271
910.3690, 1353.889
911.4930, 1295.652
912.6180, 1129.973
913.7420, 1133.217
914.8660, 1057.986
915.9900, 1068.320
917.1140, 1003.951
918.2380, 1113.188
919.3610, 1170.084
920.4850, 1128.078
921.6080, 1121.164
922.7310, 1132.848
923.8540, 994.4336
924.9760, 1005.047
926.0990, 1073.270
927.2210, 1378.740
928.3440, 1159.330
929.4660, 1311.746
930.5880, 1601.504
931.7090, 1371.775
932.8310, 1552.605
933.9520, 1982.129
935.0740, 1883.699
936.1950, 2063.326
937.3160, 2526.553
938.4360, 2769.596
939.5570, 2869.662
940.6780, 3055.125
941.7980, 3570.395
942.9180, 3987.307
944.0380, 4323.883
945.1580, 5041.145
946.2780, 5562.297
947.3970, 6279.279
948.5170, 6512.496
949.6360, 7138.377
950.7550, 7560.469
951.8740, 7682.148
952.9930, 7436.445
954.1110, 7246.527
955.2300, 6858.918
956.3480, 6426.285
957.4660, 6044.227
958.5840, 5539.688
959.7020, 5323.514
960.8190, 5001.799
961.9370, 4653.264
963.0540, 4340.523
964.1710, 4033.945
965.2880, 3610.031
966.4050, 3260.812
967.5220, 2875.789
968.6380, 2592.527
969.7550, 2319.953
970.8710, 2053.314
971.9870, 1980.879
973.1030, 1705.621
974.2190, 1597.805
975.3340, 1415.273
976.4500, 1203.742
977.5650, 964.6211
978.6800, 755.4004
979.7950, 656.0703
980.9100, 724.9004
982.0250, 609.9922
983.1390, 538.8555
984.2530, 777.5820
985.3680, 566.5645
986.4820, 577.5391
987.5950, 499.5078
988.7090, 548.8828
989.8230, 411.6328
990.9360, 627.6035
992.0490, 599.5664
993.1620, 540.9902
994.2750, 397.9395
995.3880, 594.0586
996.5010, 786.3477
997.6130, 937.2520
998.7250, 898.4473
999.8370, 783.3574
1000.949, 964.6172
1002.061, 1113.688
1003.173, 840.5742
1004.284, 786.4648
1005.396, 651.3555
1006.507, 479.2363
1007.618, 322.3887
1008.729, 441.2617
1009.839, 286.1250
1010.950, 323.9805
1012.060, 287.8555
1013.171, 335.8457
1014.281, 250.2578
1015.391, 157.2012
1016.500, 122.1387
1017.610, 243.4199
1018.719, 156.3418
1019.829, 288.0371
1020.938, 328.3086
1022.047, 153.5352
1023.156, 49.53320
1024.264, 125.3379
1025.373, 80.20898
1026.481, 186.4941
1027.589, 15.35938
1028.697, 230.7168
1029.805, 172.5566
1030.913, 197.3906
1032.020, 11.78516
1033.128, 77.01367
1034.235, 361.8184
1035.342, 97.38281
1036.449, 113.5156
1037.556, 264.5137
1038.663, 149.9082
1039.769, 50.63477
1040.875, 138.3828
1041.981, 101.1250
1043.087, 59.85938
1044.193, 234.5820
1045.299, 91.93945
1046.404, 10.10938
1047.510, 214.0684
1048.615, 31.23047
1049.720, 12.27734
1050.825, 30.39062
1051.930, 103.0488
1053.034, 228.7324
1054.139, 33.37695
1055.243, 76.01367
1056.347, 156.6406
1057.451, 99.85156
1058.555, 87.48633
1059.658, 109.4473
1060.762, 114.0586
1061.865, 187.6738
1062.968, 198.3086
1064.071, 167.9512
1065.174, 167.8164
1066.277, 3.447266
1067.380, 176.6211
1068.482, 48.47852
1069.584, 237.0820
1070.686, 139.8438
1071.788, 249.7148
1072.890, 147.4023
1073.992, 22.99805
1075.093, 143.6797
1076.194, 11.82812
1077.295, 91.40234
1078.396, 69.80664
1079.497, 106.7676
1080.598, 256.3145
1081.698, 182.0684
1082.799, 314.8242
1083.899, 24.64062
1084.999, 86.87109
1086.099, 121.3711
1087.199, 60.86133
1088.298, 233.3379
1089.398, 183.8086
1090.497, 47.32227
1091.596, 175.8184
1092.695, 9.316406
1093.794, 187.8516
1094.892, 21.62305
1095.991, 13.40820
1097.089, 264.8926
1098.187, 251.3672
1099.285, 72.83398
1100.383, 14.42578
1101.481, 271.0332
1102.579, 50.48047
1103.676, 189.9355
1104.773, 205.3770
1105.870, 115.8047
1106.967, 19.61328
1108.064, 162.0156
1109.161, 43.53125
1110.257, 46.05273
1111.353, 49.27148
1112.449, 88.41602
1113.545, 68.85156
1114.641, 39.69727
1115.737, 37.41406
1116.832, 355.8320
1117.928, 160.0684
1119.023, 456.4082
1120.118, 390.9844
1121.213, 126.3672
1122.308, 308.0273
1123.402, 407.4531
1124.497, 26.10156
1125.591, 319.2500
1126.685, 96.39062
1127.779, 54.51172
1128.873, 37.37891
1129.967, 73.81250
1131.060, 151.8828
1132.153, 42.76758
1133.247, 99.36328
1134.340, 311.3574
1135.433, 692.7891
1136.525, 412.7070
1137.618, 409.7129
1138.710, 78.01758
1139.802, 181.9512
1140.895, 425.9668
1141.987, 155.9297
1143.078, 239.9648
1144.170, 121.1797
1145.261, 30.05469
1146.353, 207.2754
1147.444, 281.1172
1148.535, 71.94727
1149.626, 292.7578
1150.716, 26.44727
1151.807, 70.30859
1152.897, 80.04688
1153.988, 148.7656
1155.078, 207.2520
1156.168, 223.7168
1157.257, 58.74805
1158.347, 158.0117
1159.436, 38.50195
1160.526, 245.1250
1161.615, 184.7324
1162.704, 216.3262
1163.793, 3.662109
1164.881, 191.1680
1165.970, 188.7070
1167.058, 0.9355470
1168.147, 96.56250
1169.235, 12.09961
1170.323, 281.6113
1171.410, 188.9473
1172.498, 203.4297
1173.585, 192.8945
1174.673, 60.77930
1175.760, 17.61133
1176.847, 53.97461
1177.934, 101.9824
1179.020, 187.3340
1180.107, 97.25000
1181.193, 204.8770
1182.279, 284.9082
1183.365, 156.1973
1184.451, 241.4688
1185.537, 257.4629
1186.623, 260.6211
1187.708, 27.84375
1188.793, 243.0469
1189.878, 86.19531
1190.963, 42.63672
1192.048, 416.4824
1193.133, 360.5957
1194.217, 309.6836
1195.302, 112.7539
1196.386, 253.9512
1197.470, 35.57422
1198.554, 114.6250
1199.638, 7.441406
1200.721, 137.4141
1201.805, 109.3672
1202.888, 151.3008
1203.971, 398.2168
1205.054, 150.9160
1206.137, 36.96484
1207.219, 262.4395
1208.302, 117.6875
1209.384, 0.8867190
1210.466, 172.5801
1211.548, 120.2871
1212.630, 122.9746
1213.712, 277.6445
1214.794, 357.8027
1215.875, 315.3184
1216.956, 238.9395
1218.037, 273.3066
1219.118, 270.0488
1220.199, 325.2676
1221.280, 330.8730
1222.360, 436.9395
1223.441, 256.9980
1224.521, 183.6094
1225.601, 46.66211
1226.681, 288.6758
1227.760, 275.4219
1228.840, 186.9707
1229.919, 115.5703
1230.999, 190.0664
1232.078, 400.5371
1233.157, 180.5605
1234.236, 273.8945
1235.314, 326.2109
1236.393, 89.47461
1237.471, 218.3125
1238.549, 21.42578
1239.627, 149.4336
1240.705, 110.4941
1241.783, 95.24609
1242.860, 153.2305
1243.938, 146.3223
1245.015, 194.1328
1246.092, 191.1875
1247.169, 247.2676
1248.246, 151.3320
1249.323, 92.64062
1250.399, 8.199219
1251.475, 12.69922
1252.552, 121.4180
1253.628, 65.34375
1254.703, 366.7812
1255.779, 202.6680
1256.855, 266.3594
1257.930, 216.8555
1259.005, 148.8242
1260.080, 174.3594
1261.155, 104.1875
1262.230, 143.6133
1263.305, 201.5938
1264.379, 69.53125
1265.454, 386.2656
1266.528, 178.9805
1267.602, 92.92578
1268.676, 233.6250
1269.750, 159.3281
1270.823, 167.9727
1271.897, 147.5938
1272.970, 10.47656
1274.043, 321.9805
1275.116, 90.68359
1276.189, 244.8711
1277.261, 253.3242
1278.334, 196.4609
1279.406, 233.8789
1280.478, 215.4219
1281.550, 343.5703
1282.622, 217.6172
1283.694, 17.93359
1284.766, 2.457031
1285.837, 84.58203
1286.908, 43.54688
1287.979, 140.8047
1289.050, 268.5430
1290.121, 238.7773
1291.192, 225.9922
1292.262, 86.40625
1293.333, 239.7383
1294.403, 306.9062
1295.473, 185.5391
1296.543, 175.5430
1297.613, 293.8906
1298.682, 438.3516
1299.752, 523.4609
1300.821, 513.6562
1301.890, 295.6289
1302.959, 435.6953
1304.028, 340.7578
1305.096, 295.3945
1306.165, 372.7188
1307.233, 334.2109
1308.301, 359.2852
1309.370, 411.0859
1310.437, 334.0508
1311.505, 381.0000
1312.573, 217.8984
1313.640, 246.8164
1314.708, 311.7148
1315.775, 429.6055
1316.842, 267.8945
1317.908, 235.7578
1318.975, 218.2695
1320.042, 519.1172
1321.108, 174.9414
1322.174, 329.7539
1323.240, 354.5508
1324.306, 142.1016
1325.372, 511.8828
1326.438, 168.0820
1327.503, 165.6016
1328.568, 177.3555
1329.634, 238.9414
1330.699, 217.3984
1331.763, 202.0117
1332.828, 290.6914
1333.893, 135.2969
1334.957, 266.2031
1336.021, 154.0117
1337.085, 406.7812
1338.149, 223.9492
1339.213, 248.5156
1340.277, 329.8477
1341.340, 216.1758
1342.404, 203.7031
1343.467, 189.0781
1344.530, 228.6953
1345.593, 210.1719
1346.655, 125.6367
1347.718, 304.1445
1348.780, 463.5820
1349.843, 46.00781
1350.905, 267.4258
1351.967, 135.8242
1353.028, 175.2070
1354.090, 254.0508
1355.152, 88.40234
1356.213, 130.7266
1357.274, 61.96094
1358.335, 110.0469
1359.396, 135.3203
1360.457, 39.42188
1361.517, 290.8047
1362.578, 259.0234
1363.638, 351.2383
1364.698, 270.0469
1365.758, 227.2305
1366.818, 355.2891
1367.878, 104.3203
1368.937, 275.1719
1369.997, 195.8789
1371.056, 101.8242
1372.115, 28.27734
1373.174, 134.8672
1374.232, 218.8711
1375.291, 283.8633
1376.350, 54.71875
1377.408, 177.3164
1378.466, 35.08984
1379.524, 105.5820
1380.582, 336.2422
1381.640, 255.6797
1382.697, 230.5859
1383.754, 248.4844
1384.812, 468.3672
1385.869, 117.3984
1386.926, 352.1523
1387.983, 135.8516
1389.039, 221.3984
1390.096, 17.87891
1391.152, 95.95703
1392.208, 152.3086
1393.264, 340.1250
1394.320, 0.9296880
1395.376, 69.35938
1396.431, 11.86328
1397.487, 346.8125
1398.542, 363.5078
1399.597, 62.11328
1400.652, 168.5195
1401.707, 70.23438
1402.762, 110.5781
1403.816, 166.2773
1404.871, 115.9688
1405.925, 155.6562
1406.979, 117.3320
1408.033, 154.0156
1409.086, 269.6289
1410.140, 225.3047
1411.194, 198.0703
1412.247, 148.9648
1413.300, 101.2422
1414.353, 287.2812
1415.406, 133.7656
1416.458, 446.3594
1417.511, 280.9453
1418.563, 70.52734
1419.616, 88.73438
1420.668, 785.3125
1421.720, 22.88672
1422.772, 368.4609
1423.823, 182.9648
1424.875, 432.5273
1425.926, 340.0156
1426.977, 448.5000
1428.028, 344.3594
1429.079, 234.8477
1430.130, 116.3398
1431.180, 60.85156
1432.231, 11.62891
1433.281, 11.32812
1434.331, 96.22266
1435.381, 92.51562
1436.431, 169.6836
1437.481, 354.9648
1438.530, 215.1484
1439.580, 428.3672
1440.629, 349.3867
1441.678, 394.3984
1442.727, 428.3984
1443.776, 471.4023
1444.824, 363.4102
1445.873, 506.2539
1446.921, 398.1484
1447.969, 246.1250
1449.017, 152.0938
1450.065, 321.8672
1451.113, 107.7227
1452.160, 279.7422
1453.208, 337.7617
1454.255, 381.7734
1455.302, 421.4375
1456.349, 392.5898
1457.396, 360.5703
1458.443, 250.9141
1459.489, 106.7422
1460.535, 159.5391
1461.582, 296.5703
1462.628, 153.0586
1463.674, 306.9922
1464.719, 168.7852
1465.765, 256.5703
1466.810, 293.1133
1467.856, 238.9219
1468.901, 498.2969
1469.946, 286.9492
1470.991, 186.1602
1472.035, 493.1719
1473.080, 79.71875
1474.124, 107.5000
1475.169, 244.2773
1476.213, 279.8945
1477.257, 261.6094
1478.300, 465.6250
1479.344, 393.3125
1480.388, 128.7031
1481.431, 148.2969
1482.474, 156.4180
1483.517, 422.6289
1484.560, 319.2305
1485.603, 255.8672
1486.645, 171.5234
1487.688, 248.2266
1488.730, 318.9609
1489.772, 144.5547
1490.814, 214.2812
1491.856, 374.7109
1492.898, 174.2422
1493.939, 319.1484
1494.981, 305.4961
1496.022, 466.9180
1497.063, 300.2969
1498.104, 36.19922
1499.145, 131.8633
1500.186, 56.74609
1501.226, 106.9844
1502.266, 190.2188
1503.307, 582.4258
1504.347, 361.6094
1505.387, 539.2344
1506.426, 546.4102
1507.466, 509.9570
1508.505, 434.9844
1509.545, 235.0000
1510.584, 14.97266
1511.623, 189.9062
1512.662, 11.20703
1513.700, 197.8008
1514.739, 592.8828
1515.777, 441.9297
1516.815, 29.00391
1517.854, 188.0898
1518.892, 264.0117
1519.929, 171.0508
1520.967, 441.0547
1522.004, 561.1172
1523.042, 351.2500
1524.079, 195.4062
1525.116, 346.5430
1526.153, 79.64062
1527.190, 289.6953
1528.226, 334.7109
1529.263, 398.7031
1530.299, 370.3516
1531.335, 44.59766
1532.371, 136.5117
1533.407, 9.527344
1534.443, 212.4766
1535.478, 114.5312
1536.514, 228.6484
1537.549, 87.12500
1538.584, 130.2422
1539.619, 216.4180
1540.654, 192.1758
1541.689, 250.4453
1542.723, 189.9844
1543.757, 254.9961
1544.792, 272.0820
1545.826, 150.7891
1546.860, 407.5352
1547.893, 190.8984
1548.927, 188.6523
1549.960, 500.5156
1550.994, 209.3086
1552.027, 27.58594
1553.060, 175.4961
1554.093, 460.7383
1555.126, 365.1641
1556.158, 233.7773
1557.191, 155.9609
1558.223, 64.50391
1559.255, 32.43750
1560.287, 155.6719
1561.319, 130.6953
1562.350, 222.2227
1563.382, 0.0000000E+00
##END=



