##NAMES=Kyanite
##RRUFFID=R050450
##IDEAL CHEMISTRY=Al_2_OSiO_4_
##LOCALITY=Switzerland
##OWNER=RRUFF
##SOURCE=Marcus Origlieri
##DESCRIPTION=Blue bladed crystals
##STATUS=The identification of this mineral has been confirmed by X-ray diffraction and chemical analysis
##URL=rruff.info/R050450
##MEASURED CHEMISTRY=Al_2.00_OSi_1.00_O_4_
##PIN_ID=M01603
##ORIENTATION=Laser parallel to (-1 0 -1). Fiducial mark perpendicular to laser is parallel to b [0 1 0]
148.7160, 0.0000000E+00
149.9470, 41.94238
151.1780, 0.4492190
152.4080, 119.1318
153.6380, 276.1436
154.8690, 119.7803
156.0980, 143.1602
157.3280, 111.0244
158.5580, 233.9961
159.7870, 348.9062
161.0170, 261.6201
162.2460, 206.2744
163.4750, 200.9541
164.7030, 141.7969
165.9320, 116.7617
167.1600, 144.0078
168.3890, 148.2139
169.6170, 32.20312
170.8450, 313.4727
172.0730, 92.97363
173.3000, 240.6055
174.5280, 70.85840
175.7550, 179.1045
176.9820, 205.8623
178.2090, 337.0400
179.4350, 334.6621
180.6620, 293.1758
181.8880, 192.5820
183.1150, 91.90430
184.3410, 1.162109
185.5670, 174.3730
186.7920, 106.5488
188.0180, 5.699219
189.2430, 72.82910
190.4690, 17.05176
191.6940, 27.05762
192.9180, 136.1631
194.1430, 87.26855
195.3680, 234.6543
196.5920, 208.7354
197.8160, 332.8281
199.0400, 127.1475
200.2640, 268.0039
201.4880, 157.8896
202.7110, 204.8066
203.9350, 359.8652
205.1580, 345.6055
206.3810, 463.7871
207.6040, 226.9189
208.8270, 452.3359
210.0490, 272.8389
211.2710, 315.3906
212.4940, 127.0293
213.7160, 170.7500
214.9370, 268.5508
216.1590, 231.4277
217.3810, 141.3770
218.6020, 191.3984
219.8230, 317.4883
221.0440, 129.6445
222.2650, 127.8691
223.4860, 299.1396
224.7060, 335.4512
225.9260, 553.8066
227.1470, 609.2041
228.3670, 622.6367
229.5860, 530.1045
230.8060, 504.7363
232.0260, 254.1416
233.2450, 317.6602
234.4640, 200.2109
235.6830, 60.79785
236.9020, 116.4189
238.1200, 22.07324
239.3390, 111.7578
240.5570, 11.53027
241.7750, 246.2100
242.9930, 210.9746
244.2110, 183.7607
245.4290, 66.57910
246.6460, 186.4307
247.8630, 86.31250
249.0810, 80.77344
250.2980, 67.17188
251.5140, 194.1445
252.7310, 244.1455
253.9470, 224.4326
255.1640, 198.2295
256.3800, 73.31445
257.5960, 6.574219
258.8120, 90.43555
260.0270, 82.73242
261.2430, 37.92773
262.4580, 40.15039
263.6730, 51.59668
264.8880, 72.31836
266.1030, 61.96289
267.3170, 66.44531
268.5320, 57.10645
269.7460, 88.76172
270.9600, 20.34082
272.1740, 137.5957
273.3880, 201.6904
274.6010, 369.8828
275.8150, 595.1172
277.0280, 950.3516
278.2410, 1239.578
279.4540, 1396.812
280.6670, 1280.047
281.8790, 933.3203
283.0920, 627.6094
284.3040, 562.9102
285.5160, 504.4980
286.7280, 507.5625
287.9400, 848.9102
289.1510, 1068.271
290.3630, 1665.648
291.5740, 2370.039
292.7850, 2951.445
293.9960, 3285.863
295.2070, 3270.613
296.4170, 2977.652
297.6280, 3580.250
298.8380, 4429.387
300.0480, 5750.523
301.2580, 7918.629
302.4680, 9751.723
303.6770, 9110.809
304.8870, 6786.902
306.0960, 4654.814
307.3050, 2845.750
308.5140, 1702.709
309.7230, 904.6934
310.9310, 579.6992
312.1400, 543.7285
313.3480, 666.7578
314.5560, 650.8027
315.7640, 935.4863
316.9720, 1423.535
318.1790, 1829.609
319.3870, 2174.707
320.5940, 2251.824
321.8010, 2523.963
323.0080, 3876.125
324.2150, 5416.303
325.4210, 7410.496
326.6280, 9458.705
327.8340, 8775.930
329.0400, 6792.170
330.2460, 4460.885
331.4510, 2820.162
332.6570, 1653.457
333.8620, 848.5801
335.0680, 383.9082
336.2730, 368.8301
337.4780, 228.1465
338.6820, 108.5312
339.8870, 271.9355
341.0910, 471.3496
342.2950, 461.7812
343.5000, 447.2324
344.7030, 294.6504
345.9070, 267.0898
347.1110, 226.5469
348.3140, 40.02539
349.5170, 174.4727
350.7200, 279.9395
351.9230, 160.4082
353.1260, 340.8379
354.3290, 501.2637
355.5310, 477.7012
356.7330, 831.1641
357.9350, 1178.648
359.1370, 1626.152
360.3390, 2648.676
361.5400, 2996.223
362.7420, 2646.787
363.9430, 2075.373
365.1440, 1531.977
366.3450, 1189.602
367.5460, 882.2422
368.7460, 971.9023
369.9470, 1131.582
371.1470, 1988.279
372.3470, 2776.994
373.5470, 3232.729
374.7460, 3510.480
375.9460, 3994.527
377.1450, 3942.035
378.3450, 4447.840
379.5440, 4266.660
380.7430, 4095.289
381.9410, 4267.555
383.1400, 4474.820
384.3380, 5401.074
385.5370, 6564.953
386.7350, 6572.168
387.9320, 5795.137
389.1300, 4942.066
390.3280, 4641.168
391.5250, 4716.178
392.7220, 5614.371
393.9190, 6159.547
395.1160, 5033.641
396.3130, 3993.631
397.5100, 3167.688
398.7060, 2569.102
399.9020, 2665.396
401.0980, 2998.980
402.2940, 4207.414
403.4900, 5583.545
404.6860, 6984.727
405.8810, 7293.855
407.0760, 5807.996
408.2710, 4423.398
409.4660, 3120.756
410.6610, 1780.490
411.8550, 1112.789
413.0500, 720.4160
414.2440, 772.7559
415.4380, 688.5664
416.6320, 808.8125
417.8260, 1078.064
419.0190, 1532.324
420.2130, 1672.592
421.4060, 1887.865
422.5990, 1420.143
423.7920, 1066.426
424.9850, 783.7148
426.1770, 578.0098
427.3700, 667.3125
428.5620, 944.6191
429.7540, 935.9316
430.9460, 1318.254
432.1380, 1825.582
433.3290, 2186.918
434.5210, 2867.258
435.7120, 3814.607
436.9030, 4855.961
438.0940, 5224.320
439.2850, 5462.684
440.4750, 4900.057
441.6660, 4263.439
442.8560, 3177.828
444.0460, 2436.227
445.2360, 1788.631
446.4260, 1857.043
447.6160, 1964.459
448.8050, 2452.895
449.9940, 2450.338
451.1830, 1928.787
452.3720, 1319.244
453.5610, 911.7344
454.7500, 522.2324
455.9380, 368.7402
457.1260, 140.2617
458.3150, 97.78906
459.5020, 89.35547
460.6900, 26.69531
461.8780, 200.5176
463.0650, 122.1055
464.2530, 341.7031
465.4400, 571.3066
466.6270, 608.9141
467.8130, 510.5449
469.0000, 448.1816
470.1870, 641.8242
471.3730, 346.4824
472.5590, 672.1426
473.7450, 719.8203
474.9310, 810.5000
476.1160, 1290.186
477.3020, 1906.877
478.4870, 3053.578
479.6720, 4216.287
480.8570, 5467.006
482.0420, 6719.797
483.2270, 8728.590
484.4110, 11824.39
485.5960, 15762.18
486.7800, 18999.99
487.9640, 20640.80
489.1480, 18719.62
490.3310, 14934.44
491.5150, 11195.27
492.6980, 8088.107
493.8810, 6369.984
495.0640, 4771.863
496.2470, 3520.742
497.4300, 2872.668
498.6120, 2041.594
499.7950, 1731.523
500.9770, 1607.500
502.1590, 973.4785
503.3410, 1109.482
504.5220, 987.4844
505.7040, 659.4844
506.8850, 703.4961
508.0660, 761.5059
509.2470, 732.5449
510.4280, 632.5801
511.6090, 551.6152
512.7890, 742.6504
513.9700, 948.6855
515.1500, 667.7188
516.3300, 602.7480
517.5100, 288.7754
518.6900, 490.7969
519.8690, 334.8145
521.0490, 198.8457
522.2280, 57.12695
523.4070, 6.865234
524.5860, 193.1504
525.7640, 20.72266
526.9430, 16.60352
528.1210, 12.51953
529.3000, 104.3398
530.4780, 215.8086
531.6560, 186.0781
532.8330, 56.46094
534.0110, 71.11523
535.1880, 40.30664
536.3650, 119.7480
537.5430, 181.2656
538.7190, 123.0996
539.8960, 59.53906
541.0730, 73.80273
542.2490, 9.136719
543.4250, 18.45703
544.6020, 101.7617
545.7780, 118.0742
546.9530, 159.8535
548.1290, 188.5039
549.3040, 162.7930
550.4800, 215.9180
551.6550, 93.46289
552.8300, 25.78516
554.0040, 48.42188
555.1790, 120.6133
556.3540, 425.6777
557.5280, 657.2930
558.7020, 610.4512
559.8760, 875.1172
561.0500, 1275.260
562.2230, 1667.432
563.3970, 2206.584
564.5700, 2330.699
565.7430, 2058.779
566.9160, 1504.098
568.0890, 1060.146
569.2620, 912.1816
570.4340, 860.8203
571.6070, 505.7578
572.7790, 305.1152
573.9510, 433.0527
575.1230, 548.2070
576.2940, 452.6211
577.4660, 498.4609
578.6370, 452.0410
579.8080, 382.5703
580.9790, 428.0703
582.1500, 322.4961
583.3210, 578.0352
584.4910, 934.0098
585.6620, 1297.777
586.8320, 996.9316
588.0020, 1017.686
589.1720, 889.3418
590.3410, 836.3164
591.5110, 498.4141
592.6800, 459.6328
593.8500, 221.6328
595.0190, 267.6230
596.1880, 302.9805
597.3560, 400.4473
598.5250, 469.0996
599.6930, 597.4043
600.8620, 685.0566
602.0300, 943.5488
603.1970, 1119.021
604.3650, 1451.361
605.5330, 1774.059
606.7000, 2073.184
607.8680, 2077.697
609.0350, 2076.379
610.2020, 1838.375
611.3680, 1448.074
612.5350, 1231.508
613.7010, 1039.355
614.8680, 863.2227
616.0340, 901.3867
617.2000, 857.1816
618.3660, 693.9746
619.5310, 932.8262
620.6970, 840.8242
621.8620, 845.5156
623.0270, 1018.234
624.1920, 874.4062
625.3570, 732.6191
626.5220, 977.9844
627.6860, 1072.629
628.8500, 1442.080
630.0140, 1418.916
631.1780, 1582.709
632.3420, 1565.660
633.5060, 1492.137
634.6700, 1623.670
635.8330, 1666.381
636.9960, 1770.891
638.1590, 1731.516
639.3220, 1767.529
640.4850, 1717.031
641.6470, 1494.578
642.8100, 1301.682
643.9720, 1191.188
645.1340, 765.3613
646.2960, 822.6133
647.4570, 762.8613
648.6190, 739.0898
649.7800, 910.0117
650.9420, 966.4551
652.1030, 1002.559
653.2640, 1326.877
654.4240, 1483.279
655.5850, 1783.562
656.7450, 1758.707
657.9060, 1780.959
659.0660, 1524.475
660.2260, 1728.654
661.3850, 1632.682
662.5450, 1206.076
663.7040, 918.3438
664.8640, 1064.615
666.0230, 1023.268
667.1820, 1006.387
668.3410, 1018.094
669.4990, 1090.578
670.6580, 1159.178
671.8160, 1209.945
672.9740, 1090.498
674.1320, 1128.145
675.2900, 814.8945
676.4480, 601.4082
677.6050, 411.2266
678.7630, 347.4590
679.9200, 353.7598
681.0770, 351.3965
682.2340, 327.7441
683.3900, 336.0312
684.5470, 379.0176
685.7030, 191.3535
686.8590, 219.8926
688.0150, 342.0215
689.1710, 106.6523
690.3270, 23.07812
691.4830, 195.7871
692.6380, 371.5684
693.7930, 339.9551
694.9480, 90.58008
696.1030, 197.2598
697.2580, 332.0391
698.4130, 179.6895
699.5670, 303.3027
700.7210, 294.1133
701.8750, 296.4609
703.0290, 301.8691
704.1830, 437.5508
705.3370, 248.1055
706.4900, 390.5742
707.6430, 374.0703
708.7970, 162.6621
709.9490, 88.19531
711.1020, 223.6582
712.2550, 82.22852
713.4070, 266.2969
714.5600, 200.4707
715.7120, 221.3984
716.8640, 265.2852
718.0160, 162.5371
719.1670, 165.3320
720.3190, 179.0801
721.4700, 147.7812
722.6210, 278.4355
723.7720, 85.04883
724.9230, 227.6113
726.0740, 354.1270
727.2250, 3.400391
728.3750, 257.0059
729.5250, 223.3672
730.6750, 190.6816
731.8250, 58.04883
732.9750, 41.12305
734.1240, 142.2402
735.2740, 16.31055
736.4230, 186.3223
737.5720, 43.71680
738.7210, 87.15625
739.8700, 364.9785
741.0190, 340.7578
742.1670, 15.49414
743.3150, 258.1699
744.4630, 149.8027
745.6110, 23.61133
746.7590, 43.89062
747.9070, 164.3418
749.0540, 3.742188
750.2020, 286.0801
751.3490, 0.3730470
752.4960, 169.5996
753.6430, 92.77734
754.7890, 174.9062
755.9360, 22.98633
757.0820, 148.0078
758.2280, 12.98242
759.3740, 224.1016
760.5200, 159.6289
761.6660, 282.3125
762.8120, 265.9531
763.9570, 1.552734
765.1020, 148.0859
766.2470, 186.5703
767.3920, 7.986328
768.5370, 90.38672
769.6810, 11.28906
770.8260, 100.0176
771.9700, 129.1367
773.1140, 317.2422
774.2580, 134.6875
775.4020, 82.24805
776.5460, 31.13281
777.6890, 137.0332
778.8320, 75.66602
779.9750, 68.68359
781.1180, 305.8750
782.2610, 138.4180
783.4040, 10.07812
784.5460, 102.3691
785.6890, 75.22852
786.8310, 162.0742
787.9730, 137.3320
789.1150, 29.54297
790.2560, 51.70117
791.3980, 247.8086
792.5390, 45.87305
793.6810, 289.8867
794.8220, 254.8613
795.9630, 181.7910
797.1030, 36.32617
798.2440, 50.48242
799.3840, 26.23633
800.5240, 103.9609
801.6650, 95.15430
802.8040, 38.65039
803.9440, 113.9824
805.0840, 22.56641
806.2230, 91.10938
807.3630, 67.67188
808.5020, 218.2461
809.6410, 50.82812
810.7790, 26.61719
811.9180, 210.8711
813.0570, 256.3301
814.1950, 201.7832
815.3330, 61.24805
816.4710, 90.33789
817.6090, 152.0078
818.7470, 145.3105
819.8840, 158.5723
821.0220, 347.7930
822.1590, 16.97266
823.2960, 180.6328
824.4330, 38.36719
825.5690, 138.4062
826.7060, 212.5742
827.8420, 107.2070
828.9790, 170.7148
830.1150, 44.64062
831.2510, 287.5176
832.3860, 50.47070
833.5220, 254.8203
834.6570, 275.5742
835.7930, 37.77148
836.9280, 216.4336
838.0630, 78.01367
839.1980, 300.5605
840.3320, 217.0879
841.4670, 236.5977
842.6010, 246.8164
843.7350, 229.2500
844.8690, 196.6445
846.0030, 199.6348
847.1370, 203.8477
848.2700, 166.6777
849.4040, 274.9551
850.5370, 237.9629
851.6700, 345.6543
852.8030, 409.4062
853.9360, 186.3281
855.0680, 586.8008
856.2000, 358.2480
857.3330, 342.7168
858.4650, 645.0176
859.5970, 504.8281
860.7290, 452.7910
861.8600, 531.3164
862.9920, 672.1836
864.1230, 616.0938
865.2540, 447.6309
866.3850, 597.9922
867.5160, 635.1797
868.6460, 320.5312
869.7770, 633.8438
870.9070, 309.7305
872.0370, 678.4590
873.1670, 662.4590
874.2970, 773.5625
875.4270, 647.0801
876.5570, 504.5508
877.6860, 536.9863
878.8150, 548.4980
879.9440, 939.6055
881.0730, 912.2266
882.2020, 950.4043
883.3300, 1154.355
884.4590, 1043.939
885.5870, 1083.789
886.7150, 1350.852
887.8430, 1381.467
888.9710, 1314.006
890.0990, 1602.191
891.2260, 1743.689
892.3530, 1614.135
893.4810, 1840.492
894.6080, 1885.791
895.7340, 1872.176
896.8610, 1930.500
897.9880, 2052.994
899.1140, 2375.945
900.2400, 2331.891
901.3660, 2430.055
902.4920, 2643.033
903.6180, 2444.223
904.7430, 2373.545
905.8690, 1977.781
906.9940, 2196.363
908.1190, 1837.004
909.2440, 1721.268
910.3690, 1498.490
911.4930, 1508.258
912.6180, 1293.238
913.7420, 1185.531
914.8660, 1242.818
915.9900, 1474.541
917.1140, 1406.863
918.2380, 1231.977
919.3610, 1380.475
920.4850, 1280.129
921.6080, 1638.248
922.7310, 1565.330
923.8540, 1780.416
924.9760, 1948.445
926.0990, 1952.650
927.2210, 1920.398
928.3440, 2215.521
929.4660, 2444.770
930.5880, 2561.801
931.7090, 2823.037
932.8310, 3163.016
933.9520, 3334.178
935.0740, 3837.541
936.1950, 4272.508
937.3160, 4691.406
938.4360, 5183.453
939.5570, 5588.756
940.6780, 6172.320
941.7980, 6425.025
942.9180, 7367.076
944.0380, 8177.838
945.1580, 8792.529
946.2780, 10417.12
947.3970, 11401.30
948.5170, 12387.03
949.6360, 13655.51
950.7550, 14200.38
951.8740, 14823.47
952.9930, 15239.87
954.1110, 14688.19
955.2300, 13747.39
956.3480, 13019.17
957.4660, 11905.83
958.5840, 10918.06
959.7020, 10399.14
960.8190, 10407.71
961.9370, 9882.461
963.0540, 9630.027
964.1710, 9243.598
965.2880, 8408.355
966.4050, 7384.039
967.5220, 6701.598
968.6380, 5855.992
969.7550, 5052.113
970.8710, 4327.551
971.9870, 3661.980
973.1030, 3362.012
974.2190, 3069.465
975.3340, 2665.777
976.4500, 2291.012
977.5650, 1845.215
978.6800, 1827.746
979.7950, 1870.188
980.9100, 1619.145
982.0250, 1424.793
983.1390, 1452.578
984.2530, 1058.285
985.3680, 1171.328
986.4820, 805.7500
987.5950, 1123.418
988.7090, 830.2930
989.8230, 664.4609
990.9360, 906.1914
992.0490, 978.0625
993.1620, 814.1758
994.2750, 1081.348
995.3880, 1214.422
996.5010, 1401.984
997.6130, 1710.016
998.7250, 1883.039
999.8370, 2038.727
1000.949, 2155.258
1002.061, 2299.082
1003.173, 2114.336
1004.284, 2235.289
1005.396, 1881.223
1006.507, 1508.148
1007.618, 1184.141
1008.729, 1051.047
1009.839, 777.9414
1010.950, 658.0703
1012.060, 870.6562
1013.171, 507.8906
1014.281, 524.7031
1015.391, 587.4961
1016.500, 188.4102
1017.610, 351.4766
1018.719, 430.8398
1019.829, 475.1602
1020.938, 308.9766
1022.047, 394.0469
1023.156, 290.8984
1024.264, 241.5391
1025.373, 273.2422
1026.481, 189.4727
1027.589, 154.3281
1028.697, 223.9531
1029.805, 279.7930
1030.913, 32.43750
1032.020, 139.2344
1033.128, 90.25781
1034.235, 197.2188
1035.342, 33.16406
1036.449, 125.5000
1037.556, 90.90234
1038.663, 50.40625
1039.769, 81.15625
1040.875, 38.97266
1041.981, 72.44922
1043.087, 115.9062
1044.193, 182.3789
1045.299, 23.83594
1046.404, 57.27344
1047.510, 34.11719
1048.615, 22.15625
1049.720, 98.94141
1050.825, 27.23438
1051.930, 19.51562
1053.034, 5.394531
1054.139, 63.86328
1055.243, 132.7539
1056.347, 100.9922
1057.451, 211.3867
1058.555, 205.5508
1059.658, 38.09375
1060.762, 259.2539
1061.865, 189.9844
1062.968, 252.7695
1064.071, 75.31250
1065.174, 221.3906
1066.277, 182.9688
1067.380, 81.66016
1068.482, 44.70312
1069.584, 60.65625
1070.686, 158.8359
1071.788, 377.7930
1072.890, 51.68750
1073.992, 235.0859
1075.093, 243.8516
1076.194, 179.5977
1077.295, 20.32812
1078.396, 378.0312
1079.497, 57.73047
1080.598, 405.4023
1081.698, 332.0547
1082.799, 313.9492
1083.899, 40.09375
1084.999, 159.5000
1086.099, 165.2578
1087.199, 229.8125
1088.298, 269.4375
1089.398, 146.2539
1090.497, 242.7500
1091.596, 83.23438
1092.695, 7.312500
1093.794, 96.11328
1094.892, 36.81250
1095.991, 95.93359
1097.089, 157.2891
1098.187, 174.6250
1099.285, 321.9336
1100.383, 286.8125
1101.481, 44.51172
1102.579, 258.7578
1103.676, 139.9961
1104.773, 92.20312
1105.870, 300.3984
1106.967, 154.5664
1108.064, 187.7148
1109.161, 298.8438
1110.257, 100.4219
1111.353, 84.50781
1112.449, 211.6211
1113.545, 32.66797
1114.641, 349.6836
1115.737, 82.73828
1116.832, 506.7148
1117.928, 30.81641
1119.023, 50.91016
1120.118, 76.97656
1121.213, 368.7969
1122.308, 60.54688
1123.402, 21.27344
1124.497, 307.9766
1125.591, 178.6562
1126.685, 320.3203
1127.779, 74.96094
1128.873, 396.5703
1129.967, 218.1680
1131.060, 31.74219
1132.153, 99.28516
1133.247, 248.8164
1134.340, 15.68359
1135.433, 233.7852
1136.525, 206.2266
1137.618, 360.6523
1138.710, 173.0547
1139.802, 411.4336
1140.895, 192.8047
1141.987, 375.1641
1143.078, 331.1641
1144.170, 17.19141
1145.261, 279.0781
1146.353, 195.3320
1147.444, 163.5625
1148.535, 123.8242
1149.626, 99.98828
1150.716, 55.11719
1151.807, 75.80469
1152.897, 107.1992
1153.988, 154.1797
1155.078, 99.14062
1156.168, 42.07812
1157.257, 36.01172
1158.347, 134.8555
1159.436, 187.5430
1160.526, 61.62109
1161.615, 250.1719
1162.704, 153.8594
1163.793, 93.61719
1164.881, 105.9023
1165.970, 104.6523
1167.058, 53.26953
1168.147, 9.125000
1169.235, 168.3398
1170.323, 27.60156
1171.410, 111.5000
1172.498, 343.4062
1173.585, 487.4375
1174.673, 470.6250
1175.760, 418.0703
1176.847, 234.8398
1177.934, 89.73047
1179.020, 38.49609
1180.107, 69.18750
1181.193, 91.79297
1182.279, 133.8633
1183.365, 156.3867
1184.451, 193.6797
1185.537, 22.44531
1186.623, 303.4727
1187.708, 130.3477
1188.793, 267.6211
1189.878, 94.88281
1190.963, 227.4375
1192.048, 29.65625
1193.133, 58.80859
1194.217, 15.98047
1195.302, 275.6094
1196.386, 8.257813
1197.470, 16.76172
1198.554, 251.3320
1199.638, 16.73438
1200.721, 26.87500
1201.805, 297.9336
1202.888, 1.085938
1203.971, 87.22266
1205.054, 104.4531
1206.137, 202.3672
1207.219, 255.1680
1208.302, 187.2812
1209.384, 236.9336
1210.466, 299.3867
1211.548, 216.2227
1212.630, 81.04297
1213.712, 60.84766
1214.794, 218.0938
1215.875, 13.32031
1216.956, 343.2617
1218.037, 291.9844
1219.118, 43.69922
1220.199, 444.1523
1221.280, 287.8320
1222.360, 426.9961
1223.441, 206.0859
1224.521, 400.2734
1225.601, 122.1992
1226.681, 242.3633
1227.760, 355.7617
1228.840, 326.2227
1229.919, 300.7852
1230.999, 220.3320
1232.078, 222.2070
1233.157, 157.7266
1234.236, 333.9805
1235.314, 289.0117
1236.393, 163.4961
1237.471, 448.7656
1238.549, 379.1641
1239.627, 15.60547
1240.705, 334.6094
1241.783, 113.5352
1242.860, 281.9297
1243.938, 654.6094
1245.015, 112.9805
1246.092, 297.8398
1247.169, 2.179688
1248.246, 220.3164
1249.323, 97.16797
1250.399, 152.3672
1251.475, 333.6523
1252.552, 361.3477
1253.628, 539.8633
1254.703, 572.1094
1255.779, 319.2656
1256.855, 275.4922
1257.930, 259.1875
1259.005, 382.3906
1260.080, 215.5781
1261.155, 126.0625
1262.230, 505.8203
1263.305, 401.1797
1264.379, 288.0391
1265.454, 326.1758
1266.528, 497.5000
1267.602, 356.6172
1268.676, 296.8281
1269.750, 346.1406
1270.823, 271.9414
1271.897, 404.2852
1272.970, 209.6211
1274.043, 271.2695
1275.116, 152.3086
1276.189, 365.3398
1277.261, 86.24219
1278.334, 191.9648
1279.406, 180.3633
1280.478, 370.7812
1281.550, 138.8711
1282.622, 269.4961
1283.694, 438.3125
1284.766, 316.8945
1285.837, 137.2227
1286.908, 177.1016
1287.979, 242.8086
1289.050, 105.7422
1290.121, 133.4844
1291.192, 87.59766
1292.262, 24.12891
1293.333, 134.5859
1294.403, 563.9805
1295.473, 339.7852
1296.543, 582.9648
1297.613, 481.8945
1298.682, 526.7266
1299.752, 650.8750
1300.821, 384.0469
1301.890, 573.9102
1302.959, 653.7656
1304.028, 807.6211
1305.096, 353.4688
1306.165, 495.3125
1307.233, 466.7617
1308.301, 427.9883
1309.370, 551.3516
1310.437, 834.8516
1311.505, 806.3789
1312.573, 851.5234
1313.640, 865.1719
1314.708, 806.3906
1315.775, 670.2344
1316.842, 746.9062
1317.908, 956.7461
1318.975, 632.2617
1320.042, 748.0938
1321.108, 610.3359
1322.174, 887.7031
1323.240, 724.8867
1324.306, 573.7070
1325.372, 710.0273
1326.438, 560.2148
1327.503, 362.0312
1328.568, 431.2188
1329.634, 414.5195
1330.699, 268.3516
1331.763, 381.2188
1332.828, 345.7422
1333.893, 143.4648
1334.957, 276.3555
1336.021, 477.2500
1337.085, 459.1484
1338.149, 363.0391
1339.213, 310.9336
1340.277, 281.8242
1341.340, 307.4609
1342.404, 247.4336
1343.467, 312.9219
1344.530, 188.6445
1345.593, 87.55469
1346.655, 81.85156
1347.718, 151.5859
1348.780, 161.8867
1349.843, 244.7969
1350.905, 229.0938
1351.967, 108.6250
1353.028, 242.9180
1354.090, 217.7930
1355.152, 303.7188
1356.213, 320.6328
1357.274, 391.0312
1358.335, 463.4570
1359.396, 426.3711
1360.457, 422.2891
1361.517, 411.9023
1362.578, 447.1211
1363.638, 321.0469
1364.698, 395.9492
1365.758, 299.2734
1366.818, 237.1406
1367.878, 360.6211
1368.937, 286.3477
1369.997, 162.0195
1371.056, 243.7422
1372.115, 187.5508
1373.174, 292.2227
1374.232, 344.2148
1375.291, 340.4180
1376.350, 413.4844
1377.408, 431.9844
1378.466, 465.6055
1379.524, 500.3906
1380.582, 476.1719
1381.640, 517.9648
1382.697, 388.7500
1383.754, 310.6055
1384.812, 382.3945
1385.869, 239.1836
1386.926, 131.9766
1387.983, 277.7656
1389.039, 303.5625
1390.096, 31.35938
1391.152, 164.5352
1392.208, 283.6328
1393.264, 32.44141
1394.320, 198.2461
1395.376, 34.05078
1396.431, 43.14844
1397.487, 351.6367
1398.542, 125.4258
1399.597, 16.21094
1400.652, 140.9961
1401.707, 112.7891
1402.762, 265.5781
1403.816, 300.3633
1404.871, 386.1289
1405.925, 464.9844
1406.979, 291.8633
1408.033, 36.69922
1409.086, 174.6836
1410.140, 347.5508
1411.194, 230.6875
1412.247, 337.5664
1413.300, 61.54688
1414.353, 110.3633
1415.406, 463.8672
1416.458, 84.24609
1417.511, 231.6523
1418.563, 109.9570
1419.616, 277.6250
1420.668, 163.4492
1421.720, 154.0898
1422.772, 60.12109
1423.823, 294.0156
1424.875, 67.92188
1425.926, 5.183594
1426.977, 8.878906
1428.028, 442.9961
1429.079, 477.8828
1430.130, 215.7695
1431.180, 402.6484
1432.231, 315.5000
1433.281, 207.0195
1434.331, 444.6562
1435.381, 418.6797
1436.431, 473.9219
1437.481, 153.0391
1438.530, 427.8242
1439.580, 459.3164
1440.629, 499.4766
1441.678, 621.6484
1442.727, 765.8281
1443.776, 771.0117
1444.824, 866.2109
1445.873, 829.4258
1446.921, 503.6680
1447.969, 876.9258
1449.017, 551.2148
1450.065, 865.5156
1451.113, 752.8203
1452.160, 831.1328
1453.208, 726.4492
1454.255, 915.7812
1455.302, 744.1289
1456.349, 626.4922
1457.396, 864.8594
1458.443, 1098.234
1459.489, 972.6172
1460.535, 904.0039
1461.582, 616.4062
1462.628, 727.8125
1463.674, 621.2227
1464.719, 805.6484
1465.765, 707.8281
1466.810, 643.5195
1467.856, 579.9766
1468.901, 602.4453
1469.946, 535.9297
1470.991, 530.4336
1472.035, 548.9492
1473.080, 424.4805
1474.124, 354.0273
1475.169, 294.5859
1476.213, 367.1641
1477.257, 297.7578
1478.300, 32.07031
1479.344, 569.3867
1480.388, 719.7227
1481.431, 678.0352
1482.474, 320.2344
1483.517, 527.8672
1484.560, 376.5156
1485.603, 737.1875
1486.645, 202.5625
1487.688, 476.2617
1488.730, 352.9805
1489.772, 665.8398
1490.814, 22.01953
1491.856, 321.5977
1492.898, 69.99219
1493.939, 165.7109
1494.981, 172.7188
1496.022, 531.0234
1497.063, 73.07031
1498.104, 348.1172
1499.145, 31.16406
1500.186, 211.2148
1501.226, 472.2852
1502.266, 174.3867
1503.307, 184.4961
1504.347, 144.5977
1505.387, 363.6953
1506.426, 165.7773
1507.466, 512.8477
1508.505, 86.90234
1509.545, 356.9453
1510.584, 166.9648
1511.623, 483.9688
1512.662, 300.9492
1513.700, 142.9023
1514.739, 306.8281
1515.777, 21.72656
1516.815, 36.58984
1517.854, 114.4180
1518.892, 346.2031
1519.929, 226.9453
1520.967, 473.6406
1522.004, 387.1875
1523.042, 223.8008
1524.079, 124.4141
1525.116, 308.9570
1526.153, 374.4375
1527.190, 172.9141
1528.226, 314.0742
1529.263, 103.9453
1530.299, 98.64062
1531.335, 103.0586
1532.371, 349.7812
1533.407, 88.54688
1534.443, 209.3438
1535.478, 59.17969
1536.514, 410.7734
1537.549, 190.6836
1538.584, 124.6367
1539.619, 8.339844
1540.654, 137.1797
1541.689, 328.2109
1542.723, 221.3359
1543.757, 360.6445
1544.792, 552.1055
1545.826, 54.75391
1546.860, 72.42969
1547.893, 524.5938
1548.927, 198.7617
1549.960, 37.28516
1550.994, 280.0117
1552.027, 342.6758
1553.060, 218.0430
1554.093, 310.3516
1555.126, 263.9023
1556.158, 359.4570
1557.191, 138.1602
1558.223, 60.52734
1559.255, 7.855469
1560.287, 153.5000
1561.319, 225.8242
1562.350, 261.3672
1563.382, 0.0000000E+00
##END=



