##NAMES=Kyanite
##RRUFFID=R050450
##IDEAL CHEMISTRY=Al_2_OSiO_4_
##LOCALITY=Switzerland
##OWNER=RRUFF
##SOURCE=Marcus Origlieri
##DESCRIPTION=Blue bladed crystals
##STATUS=The identification of this mineral has been confirmed by X-ray diffraction and chemical analysis
##URL=rruff.info/R050450
##MEASURED CHEMISTRY=Al_2.00_OSi_1.00_O_4_
##PIN_ID=M01448
##ORIENTATION=Laser parallel to -c* (0 0 -1). Fiducial mark perpendicular to laser is parallel to -a [-1 0 0]
148.7160, 0.0000000E+00
149.9470, 28.68066
151.1780, 48.46582
152.4080, 99.91699
153.6380, 273.0664
154.8690, 225.2070
156.0980, 221.2002
157.3280, 69.40332
158.5580, 139.5498
159.7870, 27.51660
161.0170, 55.09766
162.2460, 10.39648
163.4750, 131.3018
164.7030, 147.7246
165.9320, 289.5781
167.1600, 273.7979
168.3890, 316.9658
169.6170, 330.2832
170.8450, 313.2188
172.0730, 288.5078
173.3000, 215.3320
174.5280, 159.7168
175.7550, 190.3525
176.9820, 365.1396
178.2090, 416.0762
179.4350, 397.1465
180.6620, 215.2764
181.8880, 287.4668
183.1150, 228.7236
184.3410, 209.0488
185.5670, 220.4434
186.7920, 246.9033
188.0180, 294.4268
189.2430, 311.0078
190.4690, 149.6436
191.6940, 264.3350
192.9180, 102.0801
194.1430, 217.8818
195.3680, 241.7373
196.5920, 405.7793
197.8160, 413.5928
199.0400, 563.0449
200.2640, 474.4014
201.4880, 644.6826
202.7110, 562.5889
203.9350, 327.7119
205.1580, 433.8789
206.3810, 400.0928
207.6040, 169.6260
208.8270, 262.0342
210.0490, 189.7168
211.2710, 189.5078
212.4940, 231.9238
213.7160, 97.40039
214.9370, 187.9375
216.1590, 190.5342
217.3810, 38.18555
218.6020, 8.895508
219.8230, 206.6592
221.0440, 340.4775
222.2650, 275.3398
223.4860, 480.6025
224.7060, 404.1484
225.9260, 717.0791
227.1470, 913.0254
228.3670, 1032.946
229.5860, 890.8848
230.8060, 505.8477
232.0260, 244.8359
233.2450, 144.8516
234.4640, 7.907227
235.6830, 11.02734
236.9020, 83.17578
238.1200, 72.35352
239.3390, 100.5576
240.5570, 135.7920
241.7750, 36.05469
242.9930, 98.34766
244.2110, 133.6279
245.4290, 100.7998
246.6460, 57.45215
247.8630, 28.62891
249.0810, 18.08301
250.2980, 99.20215
251.5140, 4.484375
252.7310, 17.13770
253.9470, 201.2383
255.1640, 32.64355
256.3800, 34.92090
257.5960, 30.54395
258.8120, 88.04004
260.0270, 119.0166
261.2430, 139.8535
262.4580, 248.7090
263.6730, 84.32422
264.8880, 115.9688
266.1030, 44.35645
267.3170, 59.34570
268.5320, 120.0791
269.7460, 178.0498
270.9600, 258.1035
272.1740, 100.2100
273.3880, 20.45801
274.6010, 143.7861
275.8150, 200.1299
277.0280, 472.4863
278.2410, 573.8623
279.4540, 695.2559
280.6670, 565.6748
281.8790, 367.1172
283.0920, 315.5781
284.3040, 158.0586
285.5160, 159.5566
286.7280, 276.0732
287.9400, 447.6074
289.1510, 637.1602
290.3630, 994.7305
291.5740, 1768.319
292.7850, 1737.115
293.9960, 2632.550
295.2070, 2101.685
296.4170, 1960.808
297.6280, 2346.879
298.8380, 2928.857
300.0480, 4163.806
301.2580, 6732.492
302.4680, 9259.215
303.6770, 9163.967
304.8870, 6719.803
306.0960, 4228.834
307.3050, 2583.769
308.5140, 1272.432
309.7230, 684.4541
310.9310, 150.5195
312.1400, 558.6416
313.3480, 379.7998
314.5560, 332.9951
315.7640, 628.2236
316.9720, 948.4844
318.1790, 936.7773
319.3870, 892.2812
320.5940, 832.2305
321.8010, 912.6045
323.0080, 1179.004
324.2150, 1982.428
325.4210, 3248.877
326.6280, 4373.350
327.8340, 4386.846
329.0400, 3364.363
330.2460, 2123.908
331.4510, 1296.473
332.6570, 450.0605
333.8620, 447.6719
335.0680, 188.3047
336.2730, 168.9570
337.4780, 102.3652
338.6820, 80.68359
339.8870, 12.99414
341.0910, 229.7148
342.2950, 175.4473
343.5000, 314.1426
344.7030, 27.84961
345.9070, 93.42578
347.1110, 133.3008
348.3140, 3.3202998E-02
349.5170, 74.78516
350.7200, 16.55664
351.9230, 217.3496
353.1260, 377.1465
354.3290, 237.9629
355.5310, 383.8008
356.7330, 576.6562
357.9350, 894.5312
359.1370, 1587.424
360.3390, 2382.338
361.5400, 3341.270
362.7420, 3225.219
363.9430, 2289.186
365.1440, 1543.172
366.3450, 1078.174
367.5460, 787.1953
368.7460, 746.2344
369.9470, 935.2871
371.1470, 1514.359
372.3470, 2045.451
373.5470, 2653.557
374.7460, 2746.682
375.9460, 2478.826
377.1450, 2384.984
378.3450, 2522.160
379.5440, 2561.354
380.7430, 2411.564
381.9410, 2078.791
383.1400, 2561.033
384.3380, 3076.295
385.5370, 3989.570
386.7350, 4326.863
387.9320, 4130.008
389.1300, 3478.197
390.3280, 3271.754
391.5250, 3658.062
392.7220, 5069.365
393.9190, 5990.277
395.1160, 4899.715
396.3130, 3724.689
397.5100, 2578.631
398.7060, 1853.006
399.9020, 1470.395
401.0980, 1971.875
402.2940, 2659.291
403.4900, 3613.727
404.6860, 5129.176
405.8810, 5734.639
407.0760, 4813.113
408.2710, 3412.602
409.4660, 2405.102
410.6610, 1354.719
411.8550, 894.2461
413.0500, 887.7891
414.2440, 617.3418
415.4380, 858.9082
416.6320, 635.4863
417.8260, 1009.074
419.0190, 1492.674
420.2130, 1996.281
421.4060, 1882.900
422.5990, 1742.527
423.7920, 1195.164
424.9850, 785.8086
426.1770, 496.4648
427.3700, 436.1270
428.5620, 610.8008
429.7540, 512.4824
430.9460, 833.1738
432.1380, 998.9004
433.3290, 1426.639
434.5210, 1813.383
435.7120, 2569.135
436.9030, 3554.900
438.0940, 3907.672
439.2850, 4380.457
440.4750, 4367.254
441.6660, 3419.059
442.8560, 2504.875
444.0460, 1812.701
445.2360, 1275.539
446.4260, 1162.393
447.6160, 1447.254
448.8050, 1805.127
449.9940, 1853.080
451.1830, 1573.072
452.3720, 1172.996
453.5610, 692.2012
454.7500, 157.6660
455.9380, 202.6270
457.1260, 41.74414
458.3150, 336.7227
459.5020, 98.78320
460.6900, 106.7148
461.8780, 25.25781
463.0650, 34.21484
464.2530, 281.8633
465.4400, 369.9590
466.6270, 539.0977
467.8130, 411.2656
469.0000, 585.4414
470.1870, 700.6445
471.3730, 628.8594
472.5590, 296.0801
473.7450, 386.3086
474.9310, 744.5645
476.1160, 720.8281
477.3020, 1457.104
478.4870, 1961.395
479.6720, 2656.719
480.8570, 3435.254
482.0420, 4465.844
483.2270, 5634.965
484.4110, 8253.316
485.5960, 11400.68
486.7800, 15457.05
487.9640, 17583.43
489.1480, 15988.48
490.3310, 12858.87
491.5150, 9360.250
492.6980, 7088.654
493.8810, 5699.061
495.0640, 4441.477
496.2470, 3525.896
497.4300, 2636.729
498.6120, 2197.791
499.7950, 1491.256
500.9770, 1178.732
502.1590, 1061.213
503.3410, 816.6973
504.5220, 710.1855
505.7040, 703.6797
506.8850, 776.1777
508.0660, 720.7344
509.2470, 971.2441
510.4280, 1046.764
511.6090, 1022.299
512.7890, 1193.855
513.9700, 1141.434
515.1500, 1156.025
516.3300, 1232.619
517.5100, 606.2188
518.6900, 575.8203
519.8690, 131.4375
521.0490, 323.0879
522.2280, 343.7441
523.4070, 100.4023
524.5860, 54.06250
525.7640, 144.7363
526.9430, 17.41016
528.1210, 92.08594
529.3000, 269.2227
530.4780, 110.6680
531.6560, 104.1641
532.8330, 79.30078
534.0110, 18.76758
535.1880, 95.76758
536.3650, 31.35352
537.5430, 216.9590
538.7190, 82.31836
539.8960, 48.59570
541.0730, 60.87305
542.2490, 8.451172
543.4250, 239.7285
544.6020, 222.7207
545.7780, 204.9941
546.9530, 395.2695
548.1290, 692.5410
549.3040, 376.8086
550.4800, 190.0781
551.6550, 33.47461
552.8300, 134.0410
554.0040, 214.7168
555.1790, 233.1816
556.3540, 453.7051
557.5280, 326.1719
558.7020, 522.5625
559.8760, 845.9082
561.0500, 1184.188
562.2230, 1580.414
563.3970, 2222.617
564.5700, 2433.811
565.7430, 2343.000
566.9160, 1792.186
568.0890, 1410.449
569.2620, 1391.623
570.4340, 1293.432
571.6070, 1782.588
572.7790, 1967.918
573.9510, 2038.367
575.1230, 1893.506
576.2940, 1464.127
577.4660, 1210.551
578.6370, 584.1602
579.8080, 618.5547
580.9790, 440.6445
582.1500, 330.7266
583.3210, 360.7949
584.4910, 282.8574
585.6620, 492.9062
586.8320, 247.9453
588.0020, 277.9746
589.1720, 380.1680
590.3410, 74.57227
591.5110, 68.72070
592.6800, 116.1953
593.8500, 26.45312
595.0190, 53.79883
596.1880, 160.5762
597.3560, 59.87109
598.5250, 124.0156
599.6930, 320.0430
600.8620, 362.6719
602.0300, 532.3379
603.1970, 662.8398
604.3650, 720.5840
605.5330, 1059.012
606.7000, 1239.479
607.8680, 1270.504
609.0350, 1170.568
610.2020, 1000.391
611.3680, 679.8984
612.5350, 598.5996
613.7010, 424.4121
614.8680, 487.3438
616.0340, 496.9922
617.2000, 463.7285
618.3660, 505.6914
619.5310, 416.7715
620.6970, 417.8086
621.8620, 381.9258
623.0270, 371.4922
624.1920, 337.1426
625.3570, 334.4766
626.5220, 319.3770
627.6860, 358.9961
628.8500, 378.4707
630.0140, 439.3711
631.1780, 625.1211
632.3420, 726.6953
633.5060, 711.2168
634.6700, 684.8027
635.8330, 785.4336
636.9960, 904.4336
638.1590, 859.3320
639.3220, 1050.633
640.4850, 846.3496
641.6470, 866.0312
642.8100, 613.8262
643.9720, 534.6191
645.1340, 444.2793
646.2960, 377.8320
647.4570, 182.5527
648.6190, 422.5527
649.7800, 450.5586
650.9420, 264.2656
652.1030, 409.5527
653.2640, 511.9766
654.4240, 671.9961
655.5850, 806.7734
656.7450, 947.3223
657.9060, 790.6797
659.0660, 894.3750
660.2260, 719.8242
661.3850, 615.0898
662.5450, 601.5566
663.7040, 553.2715
664.8640, 530.7285
666.0230, 625.8164
667.1820, 587.0469
668.3410, 689.8281
669.4990, 751.2109
670.6580, 970.6523
671.8160, 800.1289
672.9740, 888.3105
674.1320, 565.3301
675.2900, 720.2852
676.4480, 762.5898
677.6050, 341.0859
678.7630, 227.7969
679.9200, 281.3379
681.0770, 133.9785
682.2340, 312.0703
683.3900, 52.07422
684.5470, 309.9746
685.7030, 222.9414
686.8590, 278.6699
688.0150, 316.5820
689.1710, 262.8750
690.3270, 169.0332
691.4830, 146.7324
692.6380, 108.3223
693.7930, 158.4043
694.9480, 144.3477
696.1030, 158.0469
697.2580, 175.6328
698.4130, 186.2188
699.5670, 201.8945
700.7210, 214.2832
701.8750, 293.2070
703.0290, 294.0371
704.1830, 333.8398
705.3370, 320.2539
706.4900, 202.3516
707.6430, 246.4395
708.7970, 71.12305
709.9490, 295.7734
711.1020, 58.60547
712.2550, 153.5762
713.4070, 237.0801
714.5600, 109.6055
715.7120, 155.1172
716.8640, 109.5254
718.0160, 158.9023
719.1670, 231.2441
720.3190, 437.5586
721.4700, 537.8418
722.6210, 538.8145
723.7720, 377.3164
724.9230, 440.5098
726.0740, 372.6719
727.2250, 192.8047
728.3750, 139.9043
729.5250, 198.9180
730.6750, 117.8691
731.8250, 167.8672
732.9750, 61.56445
734.1240, 120.9746
735.2740, 137.8711
736.4230, 170.5840
737.5720, 196.4121
738.7210, 61.21094
739.8700, 39.03125
741.0190, 23.59570
742.1670, 114.0859
743.3150, 4.193359
744.4630, 100.7285
745.6110, 30.36523
746.7590, 162.9297
747.9070, 43.80859
749.0540, 60.37695
750.2020, 254.5254
751.3490, 207.6445
752.4960, 47.26758
753.6430, 321.7422
754.7890, 2.722656
755.9360, 21.65234
757.0820, 67.46289
758.2280, 219.3379
759.3740, 45.10938
760.5200, 38.84180
761.6660, 214.5488
762.8120, 57.22461
763.9570, 145.8652
765.1020, 29.47461
766.2470, 37.04297
767.3920, 134.5723
768.5370, 165.0684
769.6810, 201.6816
770.8260, 209.5723
771.9700, 189.4512
773.1140, 172.8496
774.2580, 9.783203
775.4020, 56.47070
776.5460, 243.7637
777.6890, 11.97266
778.8320, 134.1562
779.9750, 102.3047
781.1180, 96.42383
782.2610, 123.3398
783.4040, 142.5645
784.5460, 96.58398
785.6890, 42.51367
786.8310, 0.5390630
787.9730, 28.25586
789.1150, 38.13672
790.2560, 41.02344
791.3980, 19.31836
792.5390, 49.33203
793.6810, 88.94531
794.8220, 128.5254
795.9630, 32.92578
797.1030, 93.43945
798.2440, 4.947266
799.3840, 75.29492
800.5240, 190.6055
801.6650, 29.11523
802.8040, 145.1074
803.9440, 103.2988
805.0840, 40.54297
806.2230, 0.4472660
807.3630, 19.31445
808.5020, 129.7949
809.6410, 79.90039
810.7790, 111.9727
811.9180, 104.0117
813.0570, 25.04492
814.1950, 44.05664
815.3330, 158.0898
816.4710, 191.0938
817.6090, 161.0684
818.7470, 31.71094
819.8840, 59.62500
821.0220, 75.78516
822.1590, 52.63086
823.2960, 102.4492
824.4330, 52.23242
825.5690, 192.9863
826.7060, 238.7207
827.8420, 217.2402
828.9790, 99.66992
830.1150, 212.9043
831.2510, 92.31641
832.3860, 83.63867
833.5220, 180.9805
834.6570, 61.36328
835.7930, 349.7578
836.9280, 29.20312
838.0630, 84.66602
839.1980, 314.1172
840.3320, 305.5391
841.4670, 57.93750
842.6010, 125.3066
843.7350, 121.5605
844.8690, 228.8691
846.0030, 370.5059
847.1370, 266.7656
848.2700, 48.81836
849.4040, 233.7168
850.5370, 189.8926
851.6700, 184.4609
852.8030, 301.3711
853.9360, 259.9727
855.0680, 337.7520
856.2000, 464.8027
857.3330, 559.8281
858.4650, 475.8320
859.5970, 380.8086
860.7290, 448.7637
861.8600, 510.6934
862.9920, 457.5977
864.1230, 610.3066
865.2540, 830.7695
866.3850, 538.4531
867.5160, 895.7715
868.6460, 676.2754
869.7770, 811.2520
870.9070, 973.5488
872.0370, 1210.891
873.1670, 1145.361
874.2970, 1288.916
875.4270, 1320.834
876.5570, 1369.674
877.6860, 1254.467
878.8150, 1600.586
879.9440, 1716.588
881.0730, 1908.529
882.2020, 2434.875
883.3300, 2749.148
884.4590, 3129.633
885.5870, 3752.395
886.7150, 4274.938
887.8430, 4904.336
888.9710, 5577.580
890.0990, 6265.066
891.2260, 6484.449
892.3530, 6420.568
893.4810, 6392.609
894.6080, 5996.986
895.7340, 6090.627
896.8610, 5661.615
897.9880, 5855.896
899.1140, 5976.465
900.2400, 6224.227
901.3660, 6325.426
902.4920, 6639.734
903.6180, 6550.598
904.7430, 5799.725
905.8690, 4976.840
906.9940, 4484.039
908.1190, 3524.074
909.2440, 3358.025
910.3690, 2553.854
911.4930, 2259.789
912.6180, 2039.438
913.7420, 1807.371
914.8660, 1514.090
915.9900, 1541.293
917.1140, 1159.250
918.2380, 1190.879
919.3610, 913.7500
920.4850, 1337.238
921.6080, 1015.527
922.7310, 1089.844
923.8540, 1264.666
924.9760, 1137.662
926.0990, 988.6543
927.2210, 1339.934
928.3440, 1195.328
929.4660, 1383.682
930.5880, 1473.480
931.7090, 1422.746
932.8310, 1639.117
933.9520, 1821.631
935.0740, 1936.943
936.1950, 2338.699
937.3160, 2567.330
938.4360, 2698.316
939.5570, 2818.672
940.6780, 3111.268
941.7980, 3282.605
942.9180, 3520.457
944.0380, 3826.916
945.1580, 4093.154
946.2780, 4517.520
947.3970, 5079.846
948.5170, 5314.168
949.6360, 5703.217
950.7550, 5922.979
951.8740, 6095.629
952.9930, 6039.617
954.1110, 5954.533
955.2300, 5810.602
956.3480, 5676.205
957.4660, 5468.793
958.5840, 5355.182
959.7020, 5242.322
960.8190, 5168.113
961.9370, 5248.270
963.0540, 5177.486
964.1710, 5074.770
965.2880, 4847.730
966.4050, 4277.855
967.5220, 3828.131
968.6380, 3324.613
969.7550, 2858.590
970.8710, 2587.229
971.9870, 2024.070
973.1030, 1846.117
974.2190, 1744.688
975.3340, 1353.527
976.4500, 1191.707
977.5650, 1068.893
978.6800, 1004.051
979.7950, 827.5684
980.9100, 745.5742
982.0250, 577.1543
983.1390, 561.0469
984.2530, 532.8984
985.3680, 511.8359
986.4820, 556.4902
987.5950, 581.1973
988.7090, 746.6934
989.8230, 488.1816
990.9360, 513.6602
992.0490, 460.1309
993.1620, 605.5898
994.2750, 592.0371
995.3880, 603.4805
996.5010, 869.0020
997.6130, 1057.574
998.7250, 1177.400
999.8370, 1280.857
1000.949, 1290.293
1002.061, 1557.721
1003.173, 1342.777
1004.284, 1269.488
1005.396, 1127.895
1006.507, 780.0859
1007.618, 879.4766
1008.729, 548.8652
1009.839, 485.5781
1010.950, 494.9688
1012.060, 463.7402
1013.171, 345.1719
1014.281, 277.5879
1015.391, 185.4609
1016.500, 295.3379
1017.610, 330.5117
1018.719, 274.9863
1019.829, 304.3516
1020.938, 196.2500
1022.047, 247.7461
1023.156, 188.6836
1024.264, 156.1797
1025.373, 135.3047
1026.481, 87.81641
1027.589, 100.5859
1028.697, 71.10938
1029.805, 73.37891
1030.913, 132.1016
1032.020, 104.5664
1033.128, 15.82812
1034.235, 199.6992
1035.342, 148.3711
1036.449, 148.8086
1037.556, 128.7578
1038.663, 163.9688
1039.769, 94.89453
1040.875, 131.6445
1041.981, 173.1562
1043.087, 42.48047
1044.193, 36.64844
1045.299, 31.94922
1046.404, 63.85547
1047.510, 217.7109
1048.615, 35.01953
1049.720, 11.22266
1050.825, 163.7305
1051.930, 70.95703
1053.034, 122.2578
1054.139, 86.69141
1055.243, 69.12500
1056.347, 11.19922
1057.451, 60.40625
1058.555, 20.01562
1059.658, 39.28125
1060.762, 62.73438
1061.865, 172.9336
1062.968, 64.16016
1064.071, 100.3438
1065.174, 188.5352
1066.277, 167.0820
1067.380, 117.9180
1068.482, 125.4102
1069.584, 84.59375
1070.686, 20.98047
1071.788, 198.9570
1072.890, 7.308594
1073.992, 27.14844
1075.093, 187.9961
1076.194, 327.2305
1077.295, 158.3633
1078.396, 322.9688
1079.497, 160.3047
1080.598, 36.41016
1081.698, 210.5039
1082.799, 81.58594
1083.899, 248.6992
1084.999, 26.77344
1086.099, 289.8203
1087.199, 285.8516
1088.298, 28.87891
1089.398, 7.890625
1090.497, 103.8867
1091.596, 110.8711
1092.695, 31.14844
1093.794, 31.41797
1094.892, 36.02344
1095.991, 118.3516
1097.089, 68.33984
1098.187, 358.2070
1099.285, 100.0664
1100.383, 199.4727
1101.481, 147.3281
1102.579, 57.82422
1103.676, 140.2930
1104.773, 166.1133
1105.870, 317.8906
1106.967, 83.66016
1108.064, 86.41406
1109.161, 150.1484
1110.257, 404.8789
1111.353, 287.0742
1112.449, 15.61719
1113.545, 272.3359
1114.641, 160.8477
1115.737, 329.1250
1116.832, 173.7734
1117.928, 243.5078
1119.023, 112.0273
1120.118, 285.7695
1121.213, 323.9180
1122.308, 296.4961
1123.402, 436.0586
1124.497, 351.6094
1125.591, 196.3438
1126.685, 207.4297
1127.779, 149.5469
1128.873, 139.0234
1129.967, 81.08203
1131.060, 168.8633
1132.153, 288.8828
1133.247, 460.3633
1134.340, 21.83203
1135.433, 103.2852
1136.525, 288.9062
1137.618, 41.28906
1138.710, 258.0820
1139.802, 262.9648
1140.895, 97.31250
1141.987, 341.6406
1143.078, 81.05078
1144.170, 269.1992
1145.261, 26.57422
1146.353, 80.60547
1147.444, 82.76953
1148.535, 13.91016
1149.626, 329.6758
1150.716, 30.20312
1151.807, 334.8164
1152.897, 352.9648
1153.988, 301.4727
1155.078, 25.73438
1156.168, 56.57031
1157.257, 227.5273
1158.347, 140.3945
1159.436, 250.2852
1160.526, 380.3906
1161.615, 272.8359
1162.704, 388.7070
1163.793, 162.7656
1164.881, 178.0312
1165.970, 142.3242
1167.058, 214.1250
1168.147, 239.1133
1169.235, 4.726563
1170.323, 56.46094
1171.410, 96.10938
1172.498, 151.8047
1173.585, 332.5000
1174.673, 2.125000
1175.760, 179.1797
1176.847, 333.3438
1177.934, 175.7461
1179.020, 337.3672
1180.107, 322.3438
1181.193, 127.5078
1182.279, 315.4609
1183.365, 173.8359
1184.451, 141.3672
1185.537, 180.7656
1186.623, 182.0703
1187.708, 277.1133
1188.793, 99.34375
1189.878, 250.3828
1190.963, 7.480469
1192.048, 279.6445
1193.133, 99.98438
1194.217, 376.0469
1195.302, 280.2109
1196.386, 118.4570
1197.470, 48.68750
1198.554, 128.8594
1199.638, 632.0352
1200.721, 495.0234
1201.805, 295.7227
1202.888, 91.15234
1203.971, 237.0938
1205.054, 407.4062
1206.137, 179.4141
1207.219, 258.3984
1208.302, 86.36328
1209.384, 148.3086
1210.466, 250.2305
1211.548, 232.7109
1212.630, 225.9688
1213.712, 192.2227
1214.794, 199.0703
1215.875, 241.4258
1216.956, 398.2305
1218.037, 403.0234
1219.118, 377.3242
1220.199, 423.5117
1221.280, 310.0781
1222.360, 291.2109
1223.441, 334.6953
1224.521, 142.8984
1225.601, 87.41016
1226.681, 176.9297
1227.760, 281.2148
1228.840, 328.8086
1229.919, 79.93359
1230.999, 282.5117
1232.078, 436.0430
1233.157, 129.7148
1234.236, 197.1680
1235.314, 438.6406
1236.393, 421.4531
1237.471, 547.6016
1238.549, 244.7461
1239.627, 399.1328
1240.705, 471.5156
1241.783, 130.8750
1242.860, 198.6367
1243.938, 46.04297
1245.015, 60.44922
1246.092, 403.4453
1247.169, 238.6523
1248.246, 276.8477
1249.323, 175.2266
1250.399, 73.37500
1251.475, 226.5039
1252.552, 401.6094
1253.628, 262.8906
1254.703, 162.0430
1255.779, 72.09766
1256.855, 25.87891
1257.930, 7.8130001E-03
1259.005, 9.527344
1260.080, 131.3516
1261.155, 75.83203
1262.230, 248.4961
1263.305, 285.6875
1264.379, 485.2617
1265.454, 173.7539
1266.528, 125.5391
1267.602, 308.6484
1268.676, 88.55078
1269.750, 285.4570
1270.823, 399.8047
1271.897, 689.0625
1272.970, 673.3359
1274.043, 332.9570
1275.116, 234.5781
1276.189, 264.7461
1277.261, 302.0352
1278.334, 63.07031
1279.406, 230.5977
1280.478, 142.1836
1281.550, 187.2109
1282.622, 98.58984
1283.694, 28.05859
1284.766, 127.2539
1285.837, 412.9492
1286.908, 235.6211
1287.979, 244.6367
1289.050, 121.8750
1290.121, 169.0898
1291.192, 210.4648
1292.262, 150.6602
1293.333, 147.6914
1294.403, 89.14844
1295.473, 258.4844
1296.543, 13.60938
1297.613, 560.6992
1298.682, 335.4453
1299.752, 393.9648
1300.821, 750.6328
1301.890, 197.9375
1302.959, 442.9766
1304.028, 304.1562
1305.096, 253.9141
1306.165, 395.9414
1307.233, 393.1992
1308.301, 494.3008
1309.370, 468.5508
1310.437, 122.2344
1311.505, 502.1875
1312.573, 742.0391
1313.640, 275.7305
1314.708, 437.5742
1315.775, 370.4062
1316.842, 458.2812
1317.908, 436.0664
1318.975, 483.5859
1320.042, 415.1289
1321.108, 345.5000
1322.174, 432.7227
1323.240, 270.7734
1324.306, 212.6094
1325.372, 274.5781
1326.438, 235.7070
1327.503, 456.1562
1328.568, 540.8906
1329.634, 374.6133
1330.699, 290.3203
1331.763, 410.4492
1332.828, 491.1367
1333.893, 359.8203
1334.957, 573.3945
1336.021, 762.0195
1337.085, 516.1484
1338.149, 330.5273
1339.213, 352.1133
1340.277, 543.6875
1341.340, 388.1758
1342.404, 419.2031
1343.467, 264.2734
1344.530, 402.8008
1345.593, 288.3164
1346.655, 501.8164
1347.718, 317.3086
1348.780, 409.7891
1349.843, 61.25781
1350.905, 221.7188
1351.967, 202.0977
1353.028, 94.20703
1354.090, 440.0938
1355.152, 198.3359
1356.213, 484.6719
1357.274, 67.01562
1358.335, 183.7305
1359.396, 392.0000
1360.457, 142.2344
1361.517, 574.1523
1362.578, 379.3477
1363.638, 102.5586
1364.698, 455.9336
1365.758, 354.1211
1366.818, 399.3008
1367.878, 185.4648
1368.937, 258.8398
1369.997, 216.6523
1371.056, 239.7344
1372.115, 367.0000
1373.174, 228.4219
1374.232, 274.4023
1375.291, 460.3555
1376.350, 83.29297
1377.408, 377.0898
1378.466, 181.4688
1379.524, 196.3750
1380.582, 133.2695
1381.640, 159.6992
1382.697, 209.3789
1383.754, 450.6641
1384.812, 224.8984
1385.869, 360.7422
1386.926, 307.9766
1387.983, 25.53516
1389.039, 140.3125
1390.096, 83.41406
1391.152, 74.13281
1392.208, 219.8398
1393.264, 165.3594
1394.320, 131.8125
1395.376, 126.5078
1396.431, 4.339844
1397.487, 275.3242
1398.542, 24.98047
1399.597, 295.6250
1400.652, 242.2891
1401.707, 245.9453
1402.762, 316.6094
1403.816, 134.2578
1404.871, 53.44531
1405.925, 189.5469
1406.979, 181.1562
1408.033, 269.8359
1409.086, 172.3594
1410.140, 395.5117
1411.194, 47.34766
1412.247, 271.6289
1413.300, 252.2461
1414.353, 49.86328
1415.406, 467.2109
1416.458, 276.4727
1417.511, 111.9336
1418.563, 285.5469
1419.616, 264.9375
1420.668, 60.32031
1421.720, 32.53125
1422.772, 279.0664
1423.823, 208.4805
1424.875, 175.0977
1425.926, 556.7344
1426.977, 285.3906
1428.028, 47.16406
1429.079, 240.7383
1430.130, 235.3477
1431.180, 119.0195
1432.231, 8.406250
1433.281, 63.60547
1434.331, 10.35156
1435.381, 81.46484
1436.431, 238.1328
1437.481, 468.5195
1438.530, 534.3203
1439.580, 451.1602
1440.629, 317.1797
1441.678, 317.1875
1442.727, 275.0117
1443.776, 292.4102
1444.824, 280.2266
1445.873, 404.2617
1446.921, 422.2852
1447.969, 506.3008
1449.017, 87.33203
1450.065, 135.3945
1451.113, 20.44141
1452.160, 370.4844
1453.208, 257.5195
1454.255, 299.5391
1455.302, 364.5508
1456.349, 193.5508
1457.396, 273.3867
1458.443, 258.3945
1459.489, 220.3594
1460.535, 398.3203
1461.582, 260.2930
1462.628, 534.1367
1463.674, 556.7617
1464.719, 189.1719
1465.765, 195.0195
1466.810, 456.8477
1467.856, 203.6797
1468.901, 278.5312
1469.946, 521.4141
1470.991, 185.7461
1472.035, 403.6250
1473.080, 207.2383
1474.124, 667.9883
1475.169, 371.8867
1476.213, 309.8477
1477.257, 545.0273
1478.300, 420.6914
1479.344, 715.4336
1480.388, 355.7109
1481.431, 387.6758
1482.474, 511.5195
1483.517, 168.2578
1484.560, 324.7930
1485.603, 310.8828
1486.645, 193.6016
1487.688, 326.4102
1488.730, 189.5664
1489.772, 81.73047
1490.814, 465.5742
1491.856, 214.1445
1492.898, 655.3398
1493.939, 64.90234
1494.981, 266.7148
1496.022, 489.5273
1497.063, 383.5625
1498.104, 160.6641
1499.145, 326.9883
1500.186, 297.6836
1501.226, 103.0039
1502.266, 473.3008
1503.307, 96.59375
1504.347, 307.8594
1505.387, 414.0977
1506.426, 7.703125
1507.466, 563.7930
1508.505, 310.7227
1509.545, 383.7852
1510.584, 177.8047
1511.623, 406.7891
1512.662, 313.7383
1513.700, 109.7930
1514.739, 284.8203
1515.777, 216.8086
1516.815, 183.7539
1517.854, 195.6641
1518.892, 62.53125
1519.929, 312.3516
1520.967, 218.3242
1522.004, 483.5078
1523.042, 600.6914
1524.079, 137.8906
1525.116, 226.1484
1526.153, 194.4688
1527.190, 349.1836
1528.226, 291.4453
1529.263, 13.09375
1530.299, 591.2188
1531.335, 300.7578
1532.371, 237.9297
1533.407, 574.1992
1534.443, 454.4375
1535.478, 294.4648
1536.514, 1301.891
1537.549, 649.4297
1538.584, 521.0859
1539.619, 38.13672
1540.654, 339.7734
1541.689, 131.9883
1542.723, 358.2266
1543.757, 389.6562
1544.792, 201.2930
1545.826, 272.1836
1546.860, 350.6523
1547.893, 206.9141
1548.927, 191.4336
1549.960, 357.3203
1550.994, 224.6328
1552.027, 102.3125
1553.060, 302.7500
1554.093, 162.3633
1555.126, 292.0547
1556.158, 337.3789
1557.191, 316.6914
1558.223, 446.4531
1559.255, 287.7812
1560.287, 316.4453
1561.319, 2.054688
1562.350, 310.7930
1563.382, 0.0000000E+00
##END=



