##NAMES=Laumontite
##RRUFFID=R040020
##IDEAL CHEMISTRY=Ca(Si_4_Al_2_)O_12_&#183;4H_2_O
##LOCALITY=Pine Creek Tungsten mine, Bishop, Inyo County, California, USA
##OWNER=RRUFF
##SOURCE=University of Arizona Mineral Museum
##DESCRIPTION=Pale gray long prism coated with smaller crystals
##STATUS=The identification of this mineral has been confirmed by X-ray diffraction and chemical analysis
##URL=rruff.info/R040020
##MEASURED CHEMISTRY=(Ca_0.99_K_0.01_)_Σ=1_(Si_4.01_Al_1.99_)O_12_·4H_2_O; H_2_O estimated by difference
##PIN_ID=L00070
##ORIENTATION=Laser parallel to [-1 0 -1]. Fiducial mark perpendicular to laser is parallel to b* (0 1 0)
95.426, 0.000
96.813, 41.161
98.201, 48.476
99.588, 35.370
100.975, 168.489
102.362, 586.495
103.748, 696.900
105.135, 1071.623
106.521, 1235.715
107.907, 1565.604
109.292, 2088.281
110.678, 2281.330
112.063, 2542.854
113.448, 2581.477
114.833, 3136.990
116.218, 3459.388
117.602, 3417.750
118.987, 3240.812
120.371, 3507.625
121.755, 3467.473
123.138, 3309.802
124.522, 3514.185
125.905, 3530.281
127.288, 3407.815
128.671, 3616.568
130.053, 3376.404
131.436, 3569.480
132.818, 3558.067
134.200, 3562.434
135.582, 3650.971
136.963, 3582.130
138.345, 3482.788
139.726, 3382.222
141.107, 3620.597
142.488, 3428.065
143.868, 3434.748
145.248, 3410.738
146.629, 3266.108
148.008, 3140.919
149.388, 3045.225
150.768, 3059.069
152.147, 2922.492
153.526, 3125.528
154.905, 3048.209
156.284, 2970.562
157.662, 3302.604
159.040, 3204.354
160.418, 3645.825
161.796, 3637.033
163.174, 4087.987
164.551, 4179.940
165.929, 4318.004
167.306, 4773.834
168.683, 4772.529
170.059, 5043.325
171.436, 5023.849
172.812, 5174.628
174.188, 4933.525
175.564, 4498.994
176.939, 4252.799
178.315, 3765.864
179.690, 3409.141
181.065, 2931.028
182.440, 2661.281
183.814, 2312.093
185.188, 1973.434
186.563, 1755.227
187.937, 1457.518
189.310, 1450.227
190.684, 1303.198
192.057, 1286.475
193.430, 1199.939
194.803, 983.553
196.176, 1387.289
197.549, 1281.140
198.921, 1515.086
200.293, 1379.121
201.665, 1463.234
203.037, 1547.419
204.408, 1531.667
205.779, 1685.972
207.150, 1810.328
208.521, 2164.730
209.892, 2449.174
211.262, 2803.650
212.633, 3318.160
214.003, 3692.692
215.373, 3907.229
216.742, 3871.752
218.112, 3733.507
219.481, 3540.698
220.850, 2935.103
222.219, 2429.460
223.588, 1713.771
224.956, 1428.034
226.324, 962.252
227.692, 666.425
229.060, 470.549
230.428, 254.626
231.795, 218.653
233.162, 32.634
234.529, 3.435
235.896, 249.553
237.263, 115.720
238.629, 141.938
239.995, 358.206
241.361, 174.527
242.727, 310.896
244.093, 337.320
245.458, 343.796
246.823, 320.327
248.188, 207.011
249.553, 313.593
250.917, 287.271
252.282, 233.443
253.646, 301.284
255.010, 289.344
256.374, 227.355
257.737, 196.387
259.101, 212.352
260.464, 26.211
261.827, 14.443
263.189, 82.464
264.552, 70.825
265.914, 180.957
267.276, 332.064
268.638, 302.101
270.000, 444.667
271.362, 537.148
272.723, 543.914
274.084, 624.905
275.445, 583.878
276.806, 905.039
278.166, 671.532
279.526, 965.211
280.887, 994.209
282.246, 1032.848
283.606, 1434.679
284.966, 1434.325
286.325, 1509.932
287.684, 1767.619
289.043, 1776.853
290.402, 2065.945
291.760, 2252.815
293.118, 2540.481
294.477, 2587.213
295.834, 2973.941
297.192, 3270.977
298.550, 3707.485
299.907, 4273.899
301.264, 4910.205
302.621, 5876.404
303.978, 6552.502
305.334, 7748.506
306.690, 9094.416
308.046, 9940.240
309.402, 11345.973
310.758, 11891.622
312.113, 12647.186
313.469, 12492.674
314.824, 12198.079
316.179, 11523.405
317.533, 10468.657
318.888, 9723.847
320.242, 8898.967
321.596, 9244.013
322.950, 9238.986
324.304, 9763.892
325.657, 10498.731
327.010, 11273.499
328.363, 12178.191
329.716, 11762.640
331.069, 10786.861
332.421, 9370.709
333.774, 7704.137
335.126, 6367.143
336.478, 5039.813
337.829, 4282.155
339.181, 3444.140
340.532, 2805.859
341.883, 2467.402
343.234, 1988.893
344.585, 1799.771
345.935, 1761.804
347.285, 1443.221
348.635, 1444.609
349.985, 1035.967
351.335, 1177.291
352.684, 938.579
354.034, 829.831
355.383, 791.043
356.731, 792.216
358.080, 903.349
359.429, 799.671
360.777, 785.489
362.125, 696.496
363.473, 797.460
364.820, 808.379
366.168, 739.255
367.515, 920.085
368.862, 970.870
370.209, 1131.609
371.556, 1282.301
372.902, 1672.947
374.249, 1873.547
375.595, 2353.688
376.940, 2734.602
378.286, 3495.059
379.632, 4135.467
380.977, 5015.830
382.322, 5506.148
383.667, 6216.420
385.012, 5926.641
386.356, 5626.820
387.700, 4726.949
389.044, 3647.031
390.388, 3017.065
391.732, 2187.052
393.075, 1716.989
394.419, 1276.879
395.762, 1016.196
397.105, 804.103
398.447, 569.531
399.790, 691.942
401.132, 462.932
402.474, 421.729
403.816, 290.948
405.158, 342.871
406.499, 512.432
407.841, 411.727
409.182, 552.656
410.523, 459.279
411.864, 349.930
413.204, 481.727
414.544, 286.658
415.884, 507.426
417.224, 248.812
418.564, 233.754
419.904, 170.390
421.243, 53.916
422.582, 81.406
423.921, 7.226
425.260, 5.944
426.598, 5.502
427.937, 166.986
429.275, 21.336
430.613, 170.439
431.951, 2.423
433.288, 64.476
434.625, 126.684
435.963, 100.922
437.300, 121.533
438.636, 44.175
439.973, 3.056
441.309, 79.840
442.646, 147.098
443.981, 44.003
445.317, 110.803
446.653, 22.467
447.988, 214.123
449.323, 130.647
450.658, 137.089
451.993, 333.448
453.328, 219.745
454.662, 365.973
455.996, 362.137
457.331, 278.242
458.664, 664.280
459.998, 680.260
461.331, 836.272
462.665, 842.131
463.998, 1237.933
465.330, 1254.618
466.663, 1500.337
467.996, 1816.229
469.328, 1971.837
470.660, 2087.399
471.992, 2432.909
473.323, 2098.392
474.655, 2233.819
475.986, 1829.190
477.317, 2164.569
478.648, 2352.956
479.979, 2428.292
481.309, 2753.754
482.640, 3119.016
483.970, 3924.276
485.300, 4689.960
486.629, 5805.117
487.959, 7740.287
489.288, 9245.342
490.617, 12050.351
491.946, 14376.045
493.275, 15940.973
494.603, 16435.850
495.932, 15310.678
497.260, 13825.481
498.588, 11460.240
499.916, 9864.957
501.243, 8629.635
502.571, 7784.271
503.898, 8158.871
505.225, 7763.432
506.552, 8407.951
507.878, 9032.433
509.205, 9706.870
510.531, 11001.272
511.857, 11455.635
513.183, 12979.950
514.508, 12964.229
515.834, 13588.469
517.159, 13742.664
518.484, 12746.822
519.809, 11810.938
521.133, 10555.013
522.458, 9199.047
523.782, 7913.041
525.106, 6706.995
526.430, 5770.910
527.754, 4744.785
529.077, 4088.617
530.400, 3532.412
531.723, 2926.178
533.046, 2879.903
534.369, 2103.587
535.692, 2097.230
537.014, 1850.833
538.336, 1494.902
539.658, 1448.464
540.980, 1332.814
542.301, 1206.263
543.623, 999.670
544.944, 804.101
546.265, 887.426
547.585, 590.713
548.906, 713.960
550.226, 667.168
551.547, 580.335
552.867, 593.463
554.186, 544.332
555.506, 569.605
556.825, 502.631
558.145, 415.683
559.464, 388.729
560.783, 391.459
562.101, 323.995
563.420, 214.273
564.738, 506.020
566.056, 309.216
567.374, 212.263
568.692, 395.570
570.009, 308.899
571.326, 372.073
572.643, 345.511
573.960, 378.293
575.277, 672.067
576.594, 485.354
577.910, 630.509
579.226, 872.332
580.542, 824.805
581.858, 1205.644
583.173, 1242.242
584.489, 1559.534
585.804, 1755.171
587.119, 1931.162
588.434, 2639.332
589.748, 2554.389
591.063, 2951.171
592.377, 3113.074
593.691, 2861.201
595.005, 3016.582
596.318, 2685.094
597.632, 2502.604
598.945, 2188.342
600.258, 1809.479
601.571, 1741.240
602.884, 1369.044
604.196, 1283.521
605.508, 937.595
606.821, 860.440
608.132, 1021.479
609.444, 652.046
610.756, 734.898
612.067, 386.843
613.378, 439.848
614.689, 463.015
616.000, 275.429
617.311, 428.297
618.621, 211.138
619.931, 313.926
621.241, 487.047
622.551, 29.785
623.861, 410.964
625.170, 184.000
626.479, 267.621
627.788, 323.051
629.097, 316.509
630.406, 346.269
631.714, 259.424
633.023, 302.093
634.331, 429.935
635.639, 37.580
636.946, 560.962
638.254, 241.963
639.561, 294.727
640.868, 420.114
642.175, 173.383
643.482, 316.482
644.789, 269.639
646.095, 452.479
647.401, 447.240
648.707, 109.566
650.013, 556.270
651.319, 408.961
652.624, 351.082
653.929, 507.830
655.234, 299.885
656.539, 752.686
657.844, 375.543
659.148, 657.521
660.453, 761.326
661.757, 983.254
663.061, 1105.721
664.364, 998.371
665.668, 1460.225
666.971, 1613.207
668.274, 1715.010
669.577, 2276.799
670.880, 2279.469
672.183, 2351.320
673.485, 2663.230
674.787, 2525.455
676.089, 2667.121
677.391, 2278.965
678.693, 2180.582
679.994, 1793.010
681.296, 1404.789
682.597, 1206.334
683.898, 1068.570
685.198, 820.066
686.499, 732.262
687.799, 596.227
689.099, 637.650
690.399, 329.051
691.699, 560.428
692.998, 321.809
694.298, 153.592
695.597, 264.893
696.896, 66.463
698.195, 358.348
699.493, 359.570
700.792, 40.773
702.090, 461.943
703.388, 313.090
704.686, 424.215
705.984, 465.316
707.281, 356.395
708.578, 787.453
709.876, 608.488
711.172, 809.500
712.469, 900.492
713.766, 1271.566
715.062, 1070.227
716.358, 513.514
717.654, 724.418
718.950, 675.088
720.246, 505.516
721.541, 596.377
722.836, 406.959
724.131, 311.805
725.426, 312.600
726.721, 249.277
728.015, 270.025
729.310, 290.652
730.604, 202.029
731.898, 142.707
733.191, 15.709
734.485, 294.895
735.778, 265.486
737.071, 26.811
738.364, 227.406
739.657, 38.656
740.950, 239.258
742.242, 109.871
743.535, 21.162
744.827, 351.818
746.118, 157.469
747.410, 193.156
748.702, 153.807
749.993, 65.449
751.284, 125.184
752.575, 54.146
753.866, 256.926
755.156, 107.588
756.447, 151.287
757.737, 289.293
759.027, 50.127
760.316, 280.707
761.606, 51.252
762.896, 111.773
764.185, 412.275
765.474, 232.766
766.763, 393.236
768.051, 213.684
769.340, 164.107
770.628, 474.506
771.916, 244.887
773.204, 245.238
774.492, 305.475
775.780, 165.781
777.067, 336.064
778.354, 114.623
779.641, 165.539
780.928, 25.443
782.215, 24.453
783.501, 45.602
784.787, 94.371
786.073, 105.566
787.359, 215.479
788.645, 224.633
789.930, 285.268
791.216, 238.086
792.501, 118.533
793.786, 150.773
795.071, 189.799
796.355, 19.498
797.640, 48.289
798.924, 27.523
800.208, 96.666
801.492, 24.154
802.775, 204.982
804.059, 56.645
805.342, 102.406
806.625, 231.432
807.908, 59.566
809.191, 319.375
810.474, 48.293
811.756, 27.186
813.038, 256.051
814.320, 15.104
815.602, 353.699
816.884, 92.484
818.165, 41.246
819.446, 699.979
820.727, 1.170
822.008, 347.514
823.289, 308.410
824.569, 7.053
825.850, 195.664
827.130, 174.590
828.410, 93.160
829.690, 551.705
830.969, 170.232
832.249, 278.740
833.528, 17.279
834.807, 165.740
836.086, 274.180
837.364, 42.602
838.643, 351.000
839.921, 39.453
841.199, 32.191
842.477, 516.127
843.755, 254.428
845.033, 402.711
846.310, 200.975
847.587, 99.223
848.864, 446.945
850.141, 135.119
851.418, 52.443
852.694, 220.641
853.971, 278.820
855.247, 405.924
856.523, 264.076
857.798, 222.213
859.074, 390.336
860.349, 238.443
861.624, 306.533
862.899, 384.613
864.174, 382.680
865.449, 560.732
866.723, 168.773
867.998, 436.795
869.272, 174.889
870.545, 422.965
871.819, 341.027
873.093, 139.115
874.366, 347.189
875.639, 345.250
876.912, 76.699
878.185, 581.297
879.458, 100.713
880.730, 247.135
882.002, 475.041
883.274, 22.938
884.546, 410.547
885.818, 2.090
887.090, 293.371
888.361, 351.207
889.632, 9.068
890.903, 545.828
892.174, 23.508
893.444, 250.367
894.715, 398.094
895.985, 25.270
897.255, 301.951
898.525, 399.721
899.795, 226.289
901.064, 313.791
902.334, 151.121
903.603, 523.441
904.872, 270.631
906.140, 53.635
907.409, 461.348
908.677, 48.420
909.946, 475.283
911.214, 252.947
912.482, 66.139
913.749, 383.807
915.017, 350.607
916.284, 317.656
917.551, 425.283
918.818, 152.812
920.085, 530.416
921.352, 367.844
922.618, 265.049
923.884, 682.615
925.150, 230.133
926.416, 667.643
927.682, 475.164
928.947, 412.318
930.213, 549.818
931.478, 658.836
932.743, 455.957
934.008, 752.455
935.272, 397.109
936.537, 713.701
937.801, 443.953
939.065, 210.777
940.329, 678.049
941.593, 60.113
942.856, 817.498
944.119, 558.779
945.383, 187.568
946.646, 754.557
947.908, 268.885
949.171, 765.303
950.433, 581.859
951.696, 388.326
952.958, 755.078
954.220, 389.875
955.481, 467.074
956.743, 669.857
958.004, 206.625
959.265, 363.930
960.526, 216.576
961.787, 333.883
963.048, 620.414
964.308, 226.857
965.569, 464.146
966.829, 149.580
968.089, 126.861
969.348, 503.572
970.608, 230.068
971.867, 17.332
973.126, 623.438
974.385, 79.305
975.644, 347.928
976.903, 424.250
978.161, 8.639
979.420, 298.383
980.678, 295.062
981.936, 172.271
983.193, 249.275
984.451, 36.492
985.708, 162.867
986.966, 279.865
988.223, 147.143
989.479, 543.697
990.736, 30.967
991.993, 417.510
993.249, 433.611
994.505, 150.871
995.761, 558.131
997.017, 385.385
998.272, 452.680
999.528, 680.316
1000.783, 457.635
1002.038, 804.703
1003.293, 827.617
1004.548, 734.930
1005.802, 1072.969
1007.057, 541.105
1008.311, 838.410
1009.565, 596.369
1010.818, 673.664
1012.072, 930.959
1013.326, 580.025
1014.579, 887.312
1015.832, 905.430
1017.085, 693.350
1018.338, 1240.520
1019.590, 738.168
1020.842, 1135.361
1022.095, 1212.719
1023.347, 1079.629
1024.599, 1416.678
1025.850, 1174.902
1027.102, 1062.734
1028.353, 1415.297
1029.604, 514.596
1030.855, 1095.770
1032.106, 993.006
1033.356, 551.125
1034.607, 907.678
1035.857, 708.131
1037.107, 314.445
1038.357, 791.678
1039.607, 637.895
1040.856, 954.406
1042.106, 711.633
1043.355, 613.566
1044.604, 1030.787
1045.852, 358.709
1047.101, 715.559
1048.350, 672.770
1049.598, 677.896
1050.846, 665.146
1052.094, 663.529
1053.342, 651.984
1054.589, 1039.244
1055.837, 346.865
1057.084, 1083.979
1058.331, 871.242
1059.578, 598.453
1060.824, 1205.752
1062.071, 983.047
1063.317, 1087.912
1064.563, 1205.211
1065.809, 1003.254
1067.055, 1570.543
1068.301, 1547.824
1069.546, 1165.662
1070.791, 1892.928
1072.036, 1600.186
1073.281, 1787.438
1074.526, 2194.684
1075.771, 1571.918
1077.015, 2269.146
1078.259, 2106.365
1079.503, 1973.602
1080.747, 2230.826
1081.991, 1818.078
1083.234, 1985.326
1084.478, 1912.566
1085.721, 1460.094
1086.964, 1907.338
1088.206, 1454.605
1089.449, 1381.865
1090.691, 1689.117
1091.934, 1496.260
1093.176, 1533.910
1094.418, 1601.277
1095.659, 1368.670
1096.901, 1676.049
1098.142, 1293.467
1099.384, 1322.961
1100.625, 1970.365
1101.865, 1087.777
1103.106, 1925.193
1104.347, 1752.625
1105.587, 1220.059
1106.827, 1967.826
1108.067, 1545.287
1109.307, 1512.752
1110.546, 1580.242
1111.786, 1157.730
1113.025, 1655.227
1114.264, 1212.730
1115.503, 900.232
1116.742, 1418.010
1117.980, 645.529
1119.219, 683.053
1120.457, 1100.580
1121.695, 437.961
1122.933, 756.068
1124.171, 621.359
1125.408, 498.885
1126.645, 986.387
1127.883, 403.547
1129.120, 551.199
1130.356, 608.691
1131.593, 246.176
1132.829, 777.039
1134.066, 314.352
1135.302, 241.717
1136.538, 826.303
1137.773, 213.602
1139.009, 500.893
1140.244, 398.891
1141.480, 13.828
1142.715, 623.443
1143.950, 391.316
1145.184, 228.520
1146.419, 522.820
1147.653, 49.973
1148.887, 747.066
1150.121, 224.217
1151.355, 88.713
1152.589, 879.078
1153.822, 66.107
1155.056, 43.127
1156.289, 710.086
1157.522, 87.031
1158.755, 543.963
1159.987, 292.129
1161.220, 10.951
1162.452, 396.008
1163.684, 52.906
1164.916, 99.797
1166.148, 576.975
1167.379, 306.150
1168.611, 370.629
1169.842, 240.082
1171.073, 133.154
1172.304, 573.562
1173.534, 40.635
1174.765, 127.314
1175.995, 593.986
1177.225, 9.330
1178.455, 247.336
1179.685, 434.242
1180.915, 60.920
1182.144, 577.580
1183.374, 24.980
1184.603, 271.650
1185.832, 718.271
1187.060, 114.896
1188.289, 421.662
1189.518, 428.213
1190.746, 55.289
1191.974, 580.986
1193.202, 117.701
1194.430, 223.936
1195.657, 400.150
1196.884, 93.521
1198.112, 642.414
1199.339, 48.611
1200.566, 35.021
1201.792, 620.885
1203.019, 207.193
1204.245, 233.002
1205.471, 818.791
1206.697, 205.049
1207.923, 620.793
1209.149, 386.545
1210.374, 87.812
1211.600, 617.773
1212.825, 123.436
1214.050, 468.957
1215.275, 634.430
1216.499, 169.939
1217.724, 485.338
1218.948, 530.699
1220.172, 376.559
1221.396, 621.848
1222.620, 367.107
1223.843, 602.324
1225.067, 747.504
1226.290, 487.818
1227.513, 762.934
1228.736, 388.025
1229.959, 543.283
1231.181, 968.324
1232.404, 253.344
1233.626, 609.025
1234.848, 413.984
1236.070, 529.529
1237.291, 494.115
1238.513, 588.627
1239.734, 246.104
1240.955, 820.365
1242.177, 384.416
1243.397, 348.039
1244.618, 870.777
1245.838, 22.668
1247.059, 720.273
1248.279, 457.879
1249.499, 455.486
1250.719, 573.090
1251.938, 640.691
1253.158, 268.295
1254.377, 1105.898
1255.596, 353.500
1256.815, 611.100
1258.034, 908.695
1259.253, 396.309
1260.471, 693.922
1261.689, 491.537
1262.907, 299.131
1264.125, 1086.711
1265.343, 664.123
1266.561, 371.531
1267.778, 687.342
1268.995, 234.725
1270.212, 881.010
1271.429, 698.145
1272.646, 617.693
1273.862, 772.867
1275.079, 339.127
1276.295, 516.197
1277.511, 760.990
1278.727, 26.121
1279.943, 1006.525
1281.158, 473.117
1282.373, 213.070
1283.589, 1211.373
1284.804, 375.064
1286.019, 171.389
1287.233, 866.592
1288.448, 358.408
1289.662, 191.891
1290.876, 1068.064
1292.090, 213.633
1293.304, 750.975
1294.518, 635.092
1295.731, 329.219
1296.944, 723.096
1298.158, 167.900
1299.371, 773.053
1300.583, 928.801
1301.796, 431.762
1303.008, 696.090
1304.221, 760.688
1305.433, 106.217
1306.645, 1131.734
1307.856, 337.252
1309.068, 462.730
1310.280, 1318.174
1311.491, 283.619
1312.702, 708.543
1313.913, 703.971
1315.124, 29.410
1316.334, 1194.158
1317.545, 499.594
1318.755, 270.902
1319.965, 1126.309
1321.175, 541.631
1322.385, 526.207
1323.594, 741.332
1324.804, 316.354
1326.013, 681.270
1327.222, 785.475
1328.431, 190.143
1329.639, 724.709
1330.848, 607.785
1332.056, 322.197
1333.265, 1276.207
1334.473, 1020.523
1335.680, 626.184
1336.888, 564.484
1338.096, 228.250
1339.303, 829.709
1340.510, 501.525
1341.717, 214.812
1342.924, 847.559
1344.131, 230.154
1345.337, 170.434
1346.544, 963.047
1347.750, 185.709
1348.956, 383.906
1350.162, 725.877
1351.367, 176.719
1352.573, 858.387
1353.778, 269.291
1354.983, 408.592
1356.188, 959.115
1357.393, 259.293
1358.598, 398.082
1359.802, 833.756
1361.007, 262.529
1362.211, 669.676
1363.415, 787.561
1364.619, 144.676
1365.822, 1023.916
1367.026, 483.273
1368.229, 359.311
1369.432, 486.922
1370.635, 42.508
1371.838, 594.102
1373.041, 414.195
1374.243, 233.959
1375.446, 684.875
1376.648, 855.535
1377.850, 141.338
1379.052, 743.131
1380.253, 165.785
1381.455, 437.002
1382.656, 865.156
1383.857, 7.418
1385.058, 1005.670
1386.259, 770.822
1387.459, 55.434
1388.660, 559.166
1389.860, 0.000
##END=



