##NAMES=Laumontite
##RRUFFID=R040020
##IDEAL CHEMISTRY=Ca(Si_4_Al_2_)O_12_&#183;4H_2_O
##LOCALITY=Pine Creek Tungsten mine, Bishop, Inyo County, California, USA
##OWNER=RRUFF
##SOURCE=University of Arizona Mineral Museum
##DESCRIPTION=Pale gray long prism coated with smaller crystals
##STATUS=The identification of this mineral has been confirmed by X-ray diffraction and chemical analysis
##URL=rruff.info/R040020
##MEASURED CHEMISTRY=(Ca_0.99_K_0.01_)_Σ=1_(Si_4.01_Al_1.99_)O_12_·4H_2_O; H_2_O estimated by difference
##PIN_ID=L00504
##ORIENTATION=Laser parallel to -c [0 0 -1]. Fiducial mark perpendicular to laser is parallel to b* (0 1 0)
96.813, 0.000
98.201, 258.775
99.588, 309.094
100.975, 809.796
102.362, 1311.769
103.748, 1791.548
105.135, 2449.718
106.521, 2684.070
107.907, 3117.119
109.292, 3293.245
110.678, 3317.867
112.063, 3647.393
113.448, 3759.064
114.833, 3961.461
116.218, 3634.375
117.602, 3617.017
118.987, 3657.656
120.371, 3924.610
121.755, 3746.605
123.138, 3332.678
124.522, 3562.085
125.905, 3174.254
127.288, 3188.726
128.671, 3445.135
130.053, 3133.604
131.436, 3427.195
132.818, 3437.713
134.200, 3785.574
135.582, 3909.360
136.963, 4286.406
138.345, 4463.961
139.726, 4610.344
141.107, 5105.283
142.488, 5198.902
143.868, 5411.355
145.248, 5412.775
146.629, 5113.271
148.008, 4802.939
149.388, 4541.869
150.768, 4250.129
152.147, 3707.786
153.526, 3424.891
154.905, 2901.494
156.284, 2677.639
157.662, 2713.354
159.040, 2338.673
160.418, 2423.613
161.796, 2138.197
163.174, 2187.801
164.551, 2258.837
165.929, 2236.408
167.306, 2341.068
168.683, 2368.929
170.059, 2520.549
171.436, 2566.815
172.812, 2709.465
174.188, 2540.908
175.564, 2339.851
176.939, 2284.879
178.315, 1933.974
179.690, 1960.840
181.065, 1517.457
182.440, 1300.486
183.814, 1111.555
185.188, 1003.014
186.563, 894.868
187.937, 754.244
189.310, 719.474
190.684, 502.198
192.057, 555.171
193.430, 408.374
194.803, 161.784
196.176, 645.396
197.549, 379.199
198.921, 573.182
200.293, 317.330
201.665, 561.632
203.037, 436.072
204.408, 390.641
205.779, 405.326
207.150, 420.118
208.521, 555.011
209.892, 659.992
211.262, 735.058
212.633, 1040.197
214.003, 1225.396
215.373, 1430.636
216.742, 1225.886
218.112, 1511.129
219.481, 1256.346
220.850, 891.529
222.219, 836.675
223.588, 351.782
224.956, 316.851
226.324, 41.882
227.692, 83.127
229.060, 28.174
230.428, 413.262
231.795, 228.391
233.162, 26.440
234.529, 28.772
235.896, 334.028
237.263, 519.327
238.629, 254.672
239.995, 570.062
241.361, 275.498
242.727, 520.981
244.093, 486.513
245.458, 372.153
246.823, 458.113
248.188, 394.191
249.553, 339.511
250.917, 261.476
252.282, 318.577
253.646, 267.463
255.010, 178.334
256.374, 288.974
257.737, 53.671
259.101, 159.696
260.464, 23.632
261.827, 79.123
263.189, 4.979
264.552, 45.153
265.914, 31.838
267.276, 198.894
268.638, 114.451
270.000, 190.123
271.362, 521.688
272.723, 430.100
274.084, 487.489
275.445, 534.568
276.806, 886.735
278.166, 895.766
279.526, 1164.939
280.887, 1118.189
282.246, 1496.636
283.606, 1656.516
284.966, 1845.204
286.325, 2026.028
287.684, 2234.860
289.043, 2473.738
290.402, 3022.648
291.760, 3131.576
293.118, 3590.518
294.477, 3759.457
295.834, 4008.373
297.192, 4207.230
298.550, 4496.000
299.907, 4724.652
301.264, 5043.174
302.621, 5561.558
303.978, 5939.812
305.334, 6707.941
306.690, 7945.947
308.046, 8603.840
309.402, 9791.620
310.758, 10569.297
312.113, 11386.866
313.469, 11314.332
314.824, 11421.705
316.179, 11018.978
317.533, 10116.158
318.888, 9713.248
320.242, 8790.251
321.596, 8777.160
322.950, 8803.985
324.304, 9730.728
325.657, 10667.381
327.010, 11493.871
328.363, 12339.932
329.716, 12265.885
331.069, 11201.312
332.421, 9676.241
333.774, 8080.695
335.126, 6544.663
336.478, 5178.156
337.829, 4451.309
339.181, 3554.129
340.532, 3046.681
341.883, 2609.069
343.234, 2181.401
344.585, 1983.670
345.935, 1745.899
347.285, 1388.100
348.635, 1570.273
349.985, 1142.417
351.335, 1224.528
352.684, 1096.605
354.034, 888.648
355.383, 1000.654
356.731, 862.621
358.080, 1054.552
359.429, 776.442
360.777, 828.290
362.125, 770.096
363.473, 811.861
364.820, 833.581
366.168, 805.256
367.515, 906.887
368.862, 838.471
370.209, 870.007
371.556, 1001.498
372.902, 1162.940
374.249, 1184.334
375.595, 1265.679
376.940, 1556.974
378.286, 1988.219
379.632, 2359.418
380.977, 2950.568
382.322, 3151.666
383.667, 3642.715
385.012, 3693.713
386.356, 3454.674
387.700, 3075.588
389.044, 2236.449
390.388, 1983.045
391.732, 1491.785
393.075, 1231.688
394.419, 1011.086
395.762, 731.701
397.105, 710.045
398.447, 513.559
399.790, 407.092
401.132, 434.449
402.474, 24.291
403.816, 310.346
405.158, 113.197
406.499, 247.264
407.841, 117.730
409.182, 104.064
410.523, 242.691
411.864, 85.850
413.204, 169.748
414.544, 88.250
415.884, 286.301
417.224, 144.508
418.564, 18.297
419.904, 83.047
421.243, 87.939
422.582, 167.596
423.921, 43.580
425.260, 67.355
426.598, 20.639
427.937, 121.971
429.275, 136.453
430.613, 65.146
431.951, 13.109
433.288, 121.303
434.625, 60.578
435.963, 287.391
437.300, 45.381
438.636, 173.273
439.973, 181.148
441.309, 38.955
442.646, 356.652
443.981, 174.371
445.317, 292.016
446.653, 139.596
447.988, 297.096
449.323, 634.527
450.658, 421.895
451.993, 569.195
453.328, 706.430
454.662, 713.596
455.996, 950.693
457.331, 847.721
458.664, 1254.680
459.998, 1361.570
461.331, 1568.393
462.665, 1905.148
463.998, 2101.836
465.330, 2498.461
466.663, 2805.020
467.996, 3261.520
469.328, 3547.957
470.660, 3864.348
471.992, 4110.682
473.323, 3726.951
474.655, 3513.168
475.986, 3199.322
477.317, 2905.498
478.648, 3111.607
479.979, 2817.660
481.309, 3083.730
482.640, 2989.736
483.970, 3835.744
485.300, 4081.691
486.629, 4567.580
487.959, 5943.410
489.288, 6909.182
490.617, 8684.920
491.946, 10570.598
493.275, 12106.227
494.603, 12671.820
495.932, 12457.369
497.260, 11272.871
498.588, 10428.328
499.916, 9273.742
501.243, 8909.135
502.571, 8554.488
503.898, 8969.803
505.225, 9535.072
506.552, 10310.303
507.878, 11635.512
509.205, 12840.668
510.531, 14295.789
511.857, 15620.879
513.183, 17245.928
514.508, 17770.932
515.834, 18485.896
517.159, 18790.814
518.484, 17795.740
519.809, 16120.625
521.133, 14625.469
522.458, 12830.268
523.782, 10975.029
525.106, 9269.746
526.430, 7784.422
527.754, 6562.697
529.077, 5613.650
530.400, 4758.199
531.723, 4122.992
533.046, 3797.455
534.369, 2991.879
535.692, 2766.473
537.014, 2340.814
538.336, 1925.932
539.658, 1650.184
540.980, 1614.395
542.301, 1209.066
543.623, 1253.193
544.944, 910.531
546.265, 1094.576
547.585, 898.578
548.906, 812.543
550.226, 756.486
551.547, 590.586
552.867, 744.549
554.186, 278.523
555.506, 342.455
556.825, 626.361
558.145, 260.268
559.464, 563.287
560.783, 336.854
562.101, 297.420
563.420, 189.492
564.738, 305.988
566.056, 237.742
567.374, 125.922
568.692, 405.047
570.009, 328.148
571.326, 217.828
572.643, 341.588
573.960, 301.939
575.277, 446.896
576.594, 405.039
577.910, 424.146
579.226, 776.461
580.542, 628.553
581.858, 1021.920
583.173, 1277.045
584.489, 1347.039
585.804, 1721.742
587.119, 1812.059
588.434, 2362.242
589.748, 2566.357
591.063, 2713.953
592.377, 3147.082
593.691, 2840.760
595.005, 3164.219
596.318, 3034.549
597.632, 2671.555
598.945, 2515.604
600.258, 2045.385
601.571, 1849.662
602.884, 1763.137
604.196, 1438.846
605.508, 1331.572
606.821, 1162.912
608.132, 1101.350
609.444, 835.342
610.756, 929.898
612.067, 714.004
613.378, 587.900
614.689, 772.021
616.000, 605.855
617.311, 669.660
618.621, 603.637
619.931, 697.381
621.241, 961.629
622.551, 575.594
623.861, 1000.195
625.170, 924.902
626.479, 1119.459
627.788, 1267.594
629.097, 1232.070
630.406, 1246.725
631.714, 1182.270
633.023, 895.715
634.331, 988.791
635.639, 652.178
636.946, 956.346
638.254, 708.766
639.561, 722.061
640.868, 819.461
642.175, 573.988
643.482, 597.416
644.789, 921.711
646.095, 755.035
647.401, 993.076
648.707, 576.635
650.013, 1000.410
651.319, 1077.889
652.624, 730.875
653.929, 975.043
655.234, 758.912
656.539, 792.121
657.844, 881.010
659.148, 914.666
660.453, 921.922
661.757, 1021.787
663.061, 934.527
664.364, 971.748
665.668, 1024.426
666.971, 1567.117
668.274, 1483.000
669.577, 1685.631
670.880, 2009.195
672.183, 1722.064
673.485, 2214.613
674.787, 1988.912
676.089, 2031.398
677.391, 1964.508
678.693, 1566.945
679.994, 1579.898
681.296, 1132.908
682.597, 985.434
683.898, 828.184
685.198, 450.947
686.499, 403.266
687.799, 265.545
689.099, 427.764
690.399, 339.953
691.699, 282.113
692.998, 354.240
694.298, 136.336
695.597, 528.398
696.896, 460.428
698.195, 212.932
699.493, 494.900
700.792, 13.160
702.090, 458.715
703.388, 350.562
704.686, 352.383
705.984, 724.176
707.281, 285.936
708.578, 847.666
709.876, 799.369
711.172, 810.809
712.469, 1062.451
713.766, 914.068
715.062, 975.348
716.358, 706.910
717.654, 778.445
718.950, 889.918
720.246, 520.863
721.541, 542.389
722.836, 323.619
724.131, 154.912
725.426, 526.428
726.721, 207.920
728.015, 29.818
729.310, 281.307
730.604, 243.170
731.898, 174.654
733.191, 126.174
734.485, 67.684
735.778, 419.168
737.071, 119.326
738.364, 272.062
739.657, 66.535
740.950, 55.178
742.242, 246.123
743.535, 82.299
744.827, 168.939
746.118, 109.809
747.410, 91.355
748.702, 312.488
749.993, 266.361
751.284, 154.592
752.575, 184.471
753.866, 106.320
755.156, 197.076
756.447, 282.170
757.737, 178.369
759.027, 28.879
760.316, 159.344
761.606, 259.779
762.896, 40.184
764.185, 500.547
765.474, 180.877
766.763, 281.174
768.051, 461.436
769.340, 261.670
770.628, 451.871
771.916, 532.039
773.204, 272.180
774.492, 442.289
775.780, 192.369
777.067, 252.410
778.354, 92.422
779.641, 72.396
780.928, 87.660
782.215, 37.773
783.501, 92.055
784.787, 61.842
786.073, 1.590
787.359, 421.287
788.645, 279.045
789.930, 350.426
791.216, 119.867
792.501, 270.727
793.786, 518.486
795.071, 192.328
796.355, 36.707
797.640, 255.697
798.924, 54.662
800.208, 263.588
801.492, 47.516
802.775, 191.305
804.059, 130.096
805.342, 41.146
806.625, 307.539
807.908, 36.197
809.191, 74.818
810.474, 223.404
811.756, 68.039
813.038, 100.436
814.320, 218.875
815.602, 27.283
816.884, 325.656
818.165, 45.996
819.446, 442.285
820.727, 340.564
822.008, 21.211
823.289, 376.959
824.569, 65.100
825.850, 223.207
827.130, 493.467
828.410, 158.482
829.690, 689.439
830.969, 139.480
832.249, 307.346
833.528, 171.578
834.807, 149.529
836.086, 257.309
837.364, 195.184
838.643, 182.904
839.921, 280.598
841.199, 281.803
842.477, 311.709
843.755, 453.258
845.033, 300.848
846.310, 478.205
847.587, 365.752
848.864, 522.453
850.141, 499.951
851.418, 157.426
852.694, 734.424
853.971, 511.896
855.247, 676.096
856.523, 913.543
857.798, 510.965
859.074, 948.363
860.349, 865.742
861.624, 742.908
862.899, 1030.240
864.174, 487.553
865.449, 804.844
866.723, 572.178
867.998, 559.490
869.272, 756.795
870.545, 644.076
871.819, 561.336
873.093, 448.586
874.366, 375.816
875.639, 523.027
876.912, 60.213
878.185, 716.670
879.458, 363.834
880.730, 90.531
882.002, 836.002
883.274, 162.963
884.546, 379.738
885.818, 506.209
887.090, 412.508
888.361, 728.359
889.632, 265.459
890.903, 742.699
892.174, 729.549
893.444, 230.125
894.715, 581.395
895.985, 158.141
897.255, 407.664
898.525, 654.057
899.795, 241.812
901.064, 427.785
902.334, 474.719
903.603, 312.629
904.872, 508.912
906.140, 231.930
907.409, 658.033
908.677, 164.498
909.946, 431.402
911.214, 497.760
912.482, 263.133
913.749, 289.447
915.017, 756.166
916.284, 411.721
917.551, 468.686
918.818, 515.041
920.085, 271.803
921.352, 698.725
922.618, 245.381
923.884, 872.273
925.150, 699.152
926.416, 755.816
927.682, 892.670
928.947, 778.975
930.213, 705.520
931.478, 1141.387
932.743, 627.102
934.008, 1232.924
935.272, 715.131
936.537, 590.951
937.801, 906.553
939.065, 131.225
940.329, 1067.951
941.593, 485.006
942.856, 891.713
944.119, 1537.596
945.383, 2025.188
946.646, 1251.865
947.908, 1044.398
949.171, 1309.766
950.433, 1446.193
951.696, 1271.711
952.958, 1108.168
954.220, 1339.867
955.481, 856.012
956.743, 1101.900
958.004, 604.053
959.265, 530.660
960.526, 656.051
961.787, 521.703
963.048, 697.977
964.308, 558.539
965.569, 334.297
966.829, 650.553
968.089, 145.900
969.348, 652.469
970.608, 584.523
971.867, 228.914
973.126, 867.555
974.385, 370.803
975.644, 127.266
976.903, 592.764
978.161, 71.074
979.420, 245.359
980.678, 430.014
981.936, 73.557
983.193, 552.211
984.451, 171.383
985.708, 4.445
986.966, 600.184
988.223, 6.412
989.479, 782.379
990.736, 268.303
991.993, 444.643
993.249, 640.990
994.505, 27.363
995.761, 633.742
997.017, 711.117
998.272, 437.502
999.528, 1103.885
1000.783, 720.270
1002.038, 1226.654
1003.293, 2084.463
1004.548, 1460.848
1005.802, 2167.227
1007.057, 1217.578
1008.311, 1283.969
1009.565, 1300.420
1010.818, 1096.848
1012.072, 1243.256
1013.326, 1070.449
1014.579, 866.904
1015.832, 1273.342
1017.085, 735.062
1018.338, 1271.494
1019.590, 1150.227
1020.842, 986.658
1022.095, 1293.084
1023.347, 1101.879
1024.599, 1188.303
1025.850, 1484.729
1027.102, 824.590
1028.353, 1370.209
1029.604, 917.254
1030.855, 986.580
1032.106, 1042.342
1033.356, 719.494
1034.607, 845.572
1035.857, 1181.994
1037.107, 330.697
1038.357, 897.123
1039.607, 794.510
1040.856, 895.195
1042.106, 1171.662
1043.355, 634.814
1044.604, 1111.309
1045.852, 777.824
1047.101, 715.736
1048.350, 892.279
1049.598, 1019.625
1050.846, 766.213
1052.094, 1162.846
1053.342, 749.398
1054.589, 1536.066
1055.837, 1022.730
1057.084, 1102.145
1058.331, 1528.867
1059.578, 1025.578
1060.824, 1542.668
1062.071, 1989.469
1063.317, 1660.432
1064.563, 2037.232
1065.809, 2264.027
1067.055, 2501.609
1068.301, 3178.402
1069.546, 2705.191
1070.791, 3581.980
1072.036, 4048.760
1073.281, 4045.547
1074.526, 5132.322
1075.771, 4569.100
1077.015, 4986.385
1078.259, 5663.148
1079.503, 4949.914
1080.747, 5236.807
1081.991, 5033.566
1083.234, 4560.430
1084.478, 5137.189
1085.721, 4333.967
1086.964, 4450.787
1088.206, 4297.611
1089.449, 3744.439
1090.691, 3931.262
1091.934, 4208.154
1093.176, 3515.025
1094.418, 4091.910
1095.659, 3748.875
1096.901, 3725.852
1098.142, 4112.891
1099.384, 3129.941
1100.625, 4197.000
1101.865, 3164.070
1103.106, 3281.141
1104.347, 4108.246
1105.587, 2805.363
1106.827, 3692.707
1108.067, 3429.855
1109.307, 2877.008
1110.546, 3194.176
1111.786, 2671.352
1113.025, 2638.535
1114.264, 2455.758
1115.503, 1502.984
1116.742, 2080.227
1117.980, 1627.480
1119.219, 904.734
1120.457, 1732.016
1121.695, 959.277
1122.933, 1176.504
1124.171, 1403.754
1125.408, 510.992
1126.645, 1238.234
1127.883, 993.305
1129.120, 440.559
1130.356, 1287.789
1131.593, 562.855
1132.829, 970.066
1134.066, 1130.887
1135.302, 227.941
1136.538, 1313.102
1137.773, 710.102
1139.009, 437.234
1140.244, 935.258
1141.480, 262.289
1142.715, 509.211
1143.950, 698.035
1145.184, 4.953
1146.419, 803.715
1147.653, 400.555
1148.887, 477.395
1150.121, 814.746
1151.355, 188.500
1152.589, 798.098
1153.822, 484.691
1155.056, 58.719
1156.289, 957.852
1157.522, 214.906
1158.755, 221.473
1159.987, 813.352
1161.220, 49.906
1162.452, 226.457
1163.684, 460.547
1164.916, 232.906
1166.148, 1093.570
1167.379, 19.461
1168.611, 297.000
1169.842, 603.750
1171.073, 19.793
1172.304, 526.641
1173.534, 433.957
1174.765, 39.617
1175.995, 906.789
1177.225, 113.188
1178.455, 190.418
1179.685, 855.910
1180.915, 92.234
1182.144, 428.551
1183.374, 495.340
1184.603, 178.359
1185.832, 807.879
1187.060, 44.352
1188.289, 49.430
1189.518, 786.664
1190.746, 246.773
1191.974, 409.230
1193.202, 595.199
1194.430, 1.141
1195.657, 627.062
1196.884, 94.582
1198.112, 300.508
1199.339, 276.426
1200.566, 137.016
1201.792, 548.773
1203.019, 734.430
1204.245, 179.605
1205.471, 1045.973
1206.697, 441.652
1207.923, 227.199
1209.149, 852.738
1210.374, 201.730
1211.600, 603.730
1212.825, 359.176
1214.050, 115.398
1215.275, 840.824
1216.499, 416.230
1217.724, 441.641
1218.948, 917.000
1220.172, 333.773
1221.396, 489.109
1222.620, 774.449
1223.843, 189.793
1225.067, 865.152
1226.290, 840.531
1227.513, 285.902
1228.736, 711.297
1229.959, 296.723
1231.181, 862.109
1232.404, 697.543
1233.626, 402.859
1234.848, 568.426
1236.070, 1074.086
1237.291, 388.070
1238.513, 1140.750
1239.734, 392.285
1240.955, 759.875
1242.177, 1077.469
1243.397, 455.070
1244.618, 1292.680
1245.838, 750.293
1247.059, 487.918
1248.279, 1335.543
1249.499, 473.172
1250.719, 620.809
1251.938, 1488.449
1253.158, 316.094
1254.377, 1383.797
1255.596, 801.543
1256.815, 409.305
1258.034, 1507.098
1259.253, 1064.902
1260.471, 592.766
1261.689, 1090.629
1262.907, 398.469
1264.125, 1256.305
1265.343, 1204.145
1266.561, 460.758
1267.778, 1258.590
1268.995, 901.504
1270.212, 749.207
1271.429, 1581.879
1272.646, 969.434
1273.862, 1136.051
1275.079, 1333.590
1276.295, 660.762
1277.511, 1155.020
1278.727, 499.129
1279.943, 1066.445
1281.158, 948.965
1282.373, 82.887
1283.589, 1103.148
1284.804, 1080.223
1286.019, 149.305
1287.233, 988.434
1288.448, 720.137
1289.662, 16.613
1290.876, 1540.559
1292.090, 25.754
1293.304, 606.340
1294.518, 1242.562
1295.731, 198.156
1296.944, 713.633
1298.158, 495.910
1299.371, 511.527
1300.583, 1125.789
1301.796, 621.375
1303.008, 216.945
1304.221, 1092.504
1305.433, 72.887
1306.645, 1032.402
1307.856, 737.734
1309.068, 106.754
1310.280, 1508.586
1311.491, 633.914
1312.702, 229.305
1313.913, 1574.668
1315.124, 279.938
1316.334, 1055.113
1317.545, 1240.191
1318.755, 145.152
1319.965, 1269.508
1321.175, 1304.227
1322.385, 378.812
1323.594, 1533.254
1324.804, 837.543
1326.013, 601.684
1327.222, 1775.832
1328.431, 250.039
1329.639, 944.152
1330.848, 1278.332
1332.056, 312.723
1333.265, 1627.059
1334.473, 868.660
1335.680, 240.094
1336.888, 1174.918
1338.096, 394.051
1339.303, 683.281
1340.510, 1176.723
1341.717, 62.680
1342.924, 1009.004
1344.131, 933.633
1345.337, 190.422
1346.544, 1436.195
1347.750, 512.422
1348.956, 275.184
1350.162, 1478.570
1351.367, 333.082
1352.573, 973.566
1353.778, 1037.828
1354.983, 432.039
1356.188, 1116.211
1357.393, 1037.773
1358.598, 190.418
1359.802, 1344.816
1361.007, 586.918
1362.211, 602.277
1363.415, 1806.969
1364.619, 131.746
1365.822, 1182.043
1367.026, 1597.062
1368.229, 544.113
1369.432, 1042.777
1370.635, 822.059
1371.838, 573.445
1373.041, 1214.133
1374.243, 596.602
1375.446, 529.176
1376.648, 1243.605
1377.850, 40.555
1379.052, 1028.680
1380.253, 1073.082
1381.455, 286.473
1382.656, 1187.215
1383.857, 0.000
##END=



