##NAMES=Laumontite
##RRUFFID=R040020
##IDEAL CHEMISTRY=Ca(Si_4_Al_2_)O_12_&#183;4H_2_O
##LOCALITY=Pine Creek Tungsten mine, Bishop, Inyo County, California, USA
##OWNER=RRUFF
##SOURCE=University of Arizona Mineral Museum
##DESCRIPTION=Pale gray long prism coated with smaller crystals
##STATUS=The identification of this mineral has been confirmed by X-ray diffraction and chemical analysis
##URL=rruff.info/R040020
##MEASURED CHEMISTRY=(Ca_0.99_K_0.01_)_Σ=1_(Si_4.01_Al_1.99_)O_12_·4H_2_O; H_2_O estimated by difference
##PIN_ID=l00206
##ORIENTATION=Laser parallel to b* (0 1 0). Fiducial mark perpendicular to laser is parallel to -c [0 0 -1]
114.949, 0.000
116.339, 118.346
117.729, 145.067
119.119, 103.627
120.508, 181.016
121.897, 400.788
123.286, 289.395
124.675, 624.819
126.063, 575.387
127.452, 629.770
128.840, 987.145
130.228, 757.466
131.615, 1270.702
133.003, 1286.258
134.390, 1383.375
135.777, 1451.526
137.164, 1690.361
138.550, 1779.646
139.937, 1699.212
141.323, 1659.293
142.709, 1621.019
144.094, 1425.084
145.480, 1372.038
146.865, 1210.443
148.250, 969.528
149.635, 778.167
151.019, 625.668
152.403, 432.160
153.788, 467.756
155.171, 222.563
156.555, 296.695
157.939, 210.228
159.322, 73.231
160.705, 215.767
162.088, 87.879
163.470, 389.613
164.853, 141.004
166.235, 237.075
167.617, 308.345
168.998, 232.389
170.380, 223.672
171.761, 413.938
173.142, 363.258
174.523, 371.976
175.904, 375.951
177.284, 249.189
178.664, 300.664
180.044, 404.129
181.424, 438.976
182.803, 354.469
184.183, 298.181
185.562, 251.945
186.940, 225.752
188.319, 299.588
189.698, 403.445
191.076, 415.869
192.454, 591.215
193.831, 525.322
195.209, 759.789
196.586, 854.465
197.963, 789.164
199.340, 1023.941
200.717, 1088.898
202.093, 1023.963
203.470, 919.090
204.846, 904.291
206.221, 549.576
207.597, 464.914
208.972, 410.305
210.347, 325.740
211.722, 181.225
213.097, 136.748
214.472, 48.654
215.846, 257.895
217.220, 6.488
218.594, 19.156
219.967, 154.816
221.341, 39.504
222.714, 6.191
224.087, 108.102
225.460, 22.387
226.832, 96.672
228.204, 29.035
229.577, 85.273
230.948, 49.598
232.320, 56.053
233.692, 218.318
235.063, 22.709
236.434, 157.121
237.805, 128.447
239.175, 146.002
240.545, 80.064
241.916, 65.443
243.286, 159.070
244.655, 56.398
246.025, 38.150
247.394, 17.281
248.763, 27.316
250.132, 1.943
251.501, 83.365
252.869, 88.551
254.237, 121.312
255.605, 132.025
256.973, 143.488
258.340, 118.363
259.708, 102.988
261.075, 87.461
262.442, 132.002
263.808, 173.070
265.175, 260.414
266.541, 344.678
267.907, 449.428
269.273, 604.230
270.639, 339.750
272.004, 532.961
273.369, 673.117
274.734, 627.008
276.099, 858.055
277.463, 843.312
278.828, 927.775
280.192, 1014.807
281.556, 1002.402
282.919, 1288.775
284.283, 1549.830
285.646, 1572.131
287.009, 1818.928
288.372, 1946.135
289.734, 2363.043
291.097, 2520.424
292.459, 2457.510
293.821, 2735.459
295.183, 2713.555
296.544, 2640.557
297.905, 2707.561
299.266, 2804.557
300.627, 2791.535
301.988, 3178.498
303.348, 3605.439
304.709, 3952.361
306.069, 4599.254
307.428, 4886.119
308.788, 5592.941
310.147, 5659.701
311.507, 5626.398
312.865, 5493.029
314.224, 5369.598
315.583, 4856.131
316.941, 4392.609
318.299, 3999.051
319.657, 3635.443
321.015, 3361.793
322.372, 3123.330
323.729, 2734.369
325.086, 2770.609
326.443, 2706.811
327.800, 2552.979
329.156, 2359.115
330.512, 2085.189
331.868, 1761.229
333.224, 1587.172
334.579, 1482.947
335.935, 1258.631
337.290, 1214.152
338.645, 1149.484
339.999, 1124.639
341.354, 1179.664
342.708, 1224.607
344.062, 1289.420
345.416, 1544.172
346.769, 1568.867
348.123, 1773.559
349.476, 1538.246
350.829, 1482.932
352.182, 1207.611
353.534, 1212.285
354.887, 1026.955
356.239, 731.621
357.591, 666.279
358.942, 570.930
360.294, 735.572
361.645, 470.207
362.996, 174.832
364.347, 419.445
365.698, 314.049
367.048, 448.641
368.398, 323.221
369.748, 467.789
371.098, 442.346
372.448, 386.891
373.797, 461.424
375.146, 535.951
376.495, 800.467
377.844, 1064.975
379.192, 1199.467
380.540, 1332.379
381.889, 1366.646
383.236, 1371.119
384.584, 1301.895
385.932, 1145.506
387.279, 1141.941
388.626, 853.707
389.973, 550.795
391.319, 325.094
392.666, 433.402
394.012, 293.359
395.358, 307.711
396.704, 297.020
398.049, 188.602
399.394, 361.693
400.740, 334.355
402.084, 199.902
403.429, 457.752
404.774, 532.121
406.118, 664.961
407.462, 459.168
408.806, 319.592
410.150, 523.318
411.493, 374.385
412.836, 417.021
414.179, 261.258
415.522, 345.502
416.865, 369.738
418.207, 84.020
419.549, 208.287
420.891, 72.547
422.233, 16.807
423.575, 201.051
424.916, 254.699
426.257, 149.488
427.598, 56.332
428.939, 117.812
430.279, 91.947
431.619, 113.936
432.959, 10.139
434.299, 55.873
435.639, 98.053
436.978, 31.971
438.318, 65.840
439.657, 309.695
440.996, 6.463
442.334, 2.650
443.673, 91.123
445.011, 45.123
446.349, 61.430
447.687, 162.191
449.024, 95.793
450.361, 189.365
451.699, 92.920
453.036, 176.443
454.372, 29.945
455.709, 23.414
457.045, 216.850
458.381, 240.949
459.717, 384.965
461.053, 388.363
462.388, 393.141
463.724, 536.498
465.059, 560.170
466.394, 733.980
467.728, 767.805
469.063, 811.955
470.397, 1075.211
471.731, 1008.441
473.065, 892.277
474.398, 1095.877
475.732, 1035.314
477.065, 1318.703
478.398, 1465.965
479.731, 1659.594
481.063, 2082.859
482.396, 2276.559
483.728, 2530.551
485.060, 3916.570
486.391, 4469.592
487.723, 5773.043
489.054, 7596.807
490.385, 8559.754
491.716, 9473.000
493.047, 9606.648
494.377, 8529.518
495.708, 7608.875
497.038, 6361.699
498.368, 5435.465
499.697, 4428.816
501.027, 4361.729
502.356, 3904.467
503.685, 4147.182
505.014, 4139.879
506.342, 4282.551
507.671, 4755.205
508.999, 4987.840
510.327, 5410.451
511.655, 5793.041
512.982, 6075.613
514.310, 6308.162
515.637, 6150.693
516.964, 5823.199
518.291, 5335.686
519.617, 4868.150
520.944, 4600.592
522.270, 3503.016
523.596, 3065.102
524.921, 2827.479
526.247, 2299.838
527.572, 1942.172
528.897, 1604.488
530.222, 1736.785
531.547, 1209.559
532.871, 1242.455
534.196, 885.578
535.520, 948.584
536.844, 521.613
538.167, 874.203
539.491, 626.396
540.814, 658.623
542.137, 375.258
543.460, 727.400
544.783, 550.172
546.105, 242.383
547.427, 554.461
548.749, 260.066
550.071, 452.629
551.393, 115.469
552.714, 467.525
554.035, 439.580
555.356, 401.611
556.677, 243.977
557.998, 475.980
559.318, 328.064
560.638, 211.842
561.958, 343.895
563.278, 226.338
564.597, 388.846
565.917, 346.070
567.236, 423.275
568.555, 556.125
569.874, 271.049
571.192, 453.707
572.511, 695.768
573.829, 562.789
575.147, 825.625
576.464, 871.430
577.782, 1142.902
579.099, 965.676
580.416, 1319.926
581.733, 1350.912
583.050, 1685.859
584.366, 2035.439
585.683, 2407.781
586.999, 2613.566
588.315, 2796.020
589.630, 2947.248
590.946, 2932.363
592.261, 2915.277
593.576, 2901.467
594.891, 2622.525
596.206, 2403.154
597.520, 2114.387
598.834, 1836.725
600.148, 1735.832
601.462, 1355.617
602.776, 1126.537
604.089, 973.201
605.402, 1069.494
606.715, 730.625
608.028, 792.145
609.341, 504.076
610.653, 504.830
611.965, 516.000
613.277, 416.695
614.589, 486.762
615.901, 98.061
617.212, 127.930
618.523, 349.004
619.834, 22.289
621.145, 453.418
622.456, 198.949
623.766, 160.041
625.076, 151.615
626.386, 72.791
627.696, 363.654
629.006, 314.475
630.315, 125.270
631.624, 176.869
632.933, 62.402
634.242, 221.771
635.551, 27.193
636.859, 153.357
638.167, 234.832
639.475, 125.447
640.783, 73.842
642.090, 5.738
643.398, 315.088
644.705, 176.229
646.012, 96.533
647.318, 326.842
648.625, 207.080
649.931, 107.287
651.237, 417.461
652.543, 62.395
653.849, 407.662
655.155, 67.693
656.460, 147.688
657.765, 247.648
659.070, 467.578
660.375, 417.480
661.679, 527.355
662.984, 347.201
664.288, 397.029
665.592, 586.824
666.895, 796.596
668.199, 876.338
669.502, 786.055
670.805, 885.738
672.108, 975.396
673.411, 983.135
674.713, 1014.627
676.016, 1044.225
677.318, 943.795
678.620, 853.346
679.921, 822.869
681.223, 532.367
682.524, 561.836
683.825, 451.303
685.126, 291.258
686.427, 310.648
687.727, 160.537
689.028, 125.225
690.328, 69.160
691.628, 88.420
692.927, 77.904
694.227, 177.117
695.526, 266.611
696.825, 257.025
698.124, 33.875
699.423, 265.156
700.721, 114.227
702.020, 243.195
703.318, 452.299
704.616, 18.789
705.913, 160.064
707.211, 88.881
708.508, 377.777
709.805, 386.531
711.102, 565.262
712.399, 203.959
713.695, 252.600
714.992, 471.240
716.288, 9.850
717.584, 388.250
718.879, 186.783
720.175, 165.182
721.470, 46.262
722.765, 46.451
724.060, 80.799
725.355, 10.912
726.649, 117.322
727.944, 256.045
729.238, 45.787
730.532, 68.027
731.825, 183.908
733.119, 394.318
734.412, 62.209
735.705, 9.938
736.998, 187.863
738.291, 14.359
739.584, 56.641
740.876, 81.258
742.168, 278.941
743.460, 106.623
744.752, 344.385
746.043, 7.906
747.334, 10.295
748.626, 237.268
749.916, 125.172
751.207, 262.279
752.498, 189.707
753.788, 57.107
755.078, 244.473
756.368, 131.824
757.658, 309.154
758.947, 226.459
760.237, 63.758
761.526, 281.049
762.815, 88.316
764.104, 75.551
765.392, 312.934
766.680, 230.113
767.969, 137.266
769.257, 444.395
770.544, 211.936
771.832, 111.674
773.119, 364.711
774.406, 8.332
775.693, 217.176
776.980, 45.941
778.267, 210.555
779.553, 86.863
780.839, 173.102
782.125, 238.965
783.411, 495.797
784.697, 262.484
785.982, 38.512
787.267, 444.723
788.552, 34.953
789.837, 131.359
791.122, 253.742
792.406, 9.719
793.690, 196.004
794.974, 108.195
796.258, 537.230
797.542, 110.578
798.825, 26.883
800.108, 392.703
801.391, 208.168
802.674, 604.398
803.957, 500.281
805.239, 265.727
806.522, 581.895
807.804, 431.531
809.085, 617.660
810.367, 762.801
811.649, 668.312
812.930, 1224.227
814.211, 750.375
815.492, 1406.398
816.772, 1372.406
818.053, 1110.098
819.333, 946.066
820.613, 1062.340
821.893, 808.262
823.173, 874.496
824.452, 660.379
825.732, 726.246
827.011, 502.094
828.290, 517.922
829.568, 389.422
830.847, 275.215
832.125, 503.227
833.403, 408.980
834.681, 494.715
835.959, 410.430
837.236, 186.133
838.514, 63.109
839.791, 518.824
841.068, 64.469
842.345, 259.586
843.621, 374.547
844.898, 209.238
846.174, 124.016
847.450, 178.727
848.726, 103.836
850.001, 10.695
851.277, 274.703
852.552, 205.656
853.827, 161.059
855.102, 275.812
856.376, 131.125
857.651, 296.559
858.925, 478.445
860.199, 173.367
861.473, 7.977
862.746, 173.352
864.020, 428.707
865.293, 224.059
866.566, 249.121
867.839, 484.375
869.112, 279.758
870.384, 293.410
871.656, 338.766
872.928, 473.754
874.200, 138.633
875.472, 608.812
876.744, 68.977
878.015, 193.477
879.286, 545.922
880.557, 20.609
881.828, 425.867
883.098, 103.867
884.369, 560.520
885.639, 51.906
886.909, 247.133
888.178, 181.469
889.448, 193.820
890.717, 378.703
891.987, 380.789
893.256, 70.238
894.524, 304.656
895.793, 129.852
897.061, 84.367
898.330, 89.547
899.598, 192.094
900.865, 474.508
902.133, 341.004
903.401, 404.777
904.668, 269.922
905.935, 134.766
907.202, 239.047
908.468, 274.113
909.735, 128.707
911.001, 283.824
912.267, 228.812
913.533, 303.117
914.799, 488.223
916.064, 132.629
917.330, 46.980
918.595, 352.066
919.860, 247.062
921.124, 451.668
922.389, 3.254
923.653, 451.656
924.918, 77.957
926.182, 373.027
927.445, 335.852
928.709, 320.789
929.972, 221.301
931.236, 246.219
932.499, 170.621
933.761, 485.383
935.024, 40.426
936.286, 305.480
937.549, 420.531
938.811, 124.738
940.073, 599.781
941.334, 341.320
942.596, 105.969
943.857, 351.062
945.118, 115.195
946.379, 740.164
947.640, 367.312
948.900, 542.406
950.161, 247.043
951.421, 351.332
952.681, 486.426
953.940, 451.496
955.200, 196.609
956.459, 371.719
957.719, 96.828
958.978, 311.934
960.236, 247.066
961.495, 282.199
962.753, 297.328
964.012, 292.461
965.270, 27.590
966.527, 382.707
967.785, 177.820
969.043, 57.078
970.300, 308.016
971.557, 6.887
972.814, 268.211
974.071, 6.688
975.327, 168.391
976.583, 323.461
977.840, 128.535
979.095, 213.605
980.351, 141.324
981.607, 303.730
982.862, 71.215
984.117, 533.840
985.372, 318.898
986.627, 144.094
987.882, 199.160
989.136, 45.789
990.390, 39.195
991.644, 274.273
992.898, 319.199
994.152, 184.293
995.405, 309.391
996.659, 435.023
997.912, 129.879
999.165, 274.980
1000.417, 170.285
1001.670, 684.141
1002.922, 519.668
1004.174, 194.840
1005.426, 509.957
1006.678, 200.988
1007.930, 506.008
1009.181, 551.539
1010.432, 396.762
1011.683, 532.418
1012.934, 676.992
1014.185, 712.246
1015.435, 855.633
1016.685, 909.121
1017.935, 1014.773
1019.185, 1081.070
1020.435, 1026.395
1021.684, 1221.926
1022.934, 997.246
1024.183, 1352.969
1025.432, 1128.305
1026.680, 624.383
1027.929, 1109.492
1029.177, 587.383
1030.425, 892.820
1031.673, 1047.742
1032.921, 474.699
1034.169, 604.477
1035.416, 340.246
1036.663, 195.508
1037.911, 871.090
1039.157, 292.402
1040.404, 888.023
1041.650, 613.652
1042.897, 379.309
1044.143, 784.875
1045.389, 440.590
1046.634, 576.309
1047.880, 911.938
1049.125, 367.598
1050.371, 893.379
1051.615, 909.184
1052.860, 435.512
1054.105, 601.383
1055.349, 687.262
1056.593, 973.160
1057.837, 911.949
1059.081, 765.004
1060.325, 890.938
1061.568, 766.891
1062.812, 843.398
1064.055, 869.316
1065.298, 815.242
1066.540, 601.188
1067.783, 726.883
1069.025, 523.023
1070.267, 1358.773
1071.509, 1054.523
1072.751, 979.848
1073.993, 1305.426
1075.234, 1121.020
1076.475, 1226.617
1077.716, 1172.223
1078.957, 1069.246
1080.198, 1224.777
1081.438, 1120.301
1082.679, 886.031
1083.919, 1231.543
1085.159, 886.914
1086.398, 1122.402
1087.638, 1377.871
1088.877, 783.332
1090.116, 1288.758
1091.355, 774.180
1092.594, 1481.961
1093.833, 1087.336
1095.071, 762.699
1096.309, 1188.051
1097.547, 1193.426
1098.785, 798.750
1100.023, 1224.055
1101.260, 1089.352
1102.498, 1018.215
1103.735, 1373.496
1104.972, 1058.949
1106.208, 1694.070
1107.445, 939.180
1108.681, 1074.734
1109.918, 1209.469
1111.154, 594.082
1112.389, 1040.340
1113.625, 614.574
1114.860, 547.918
1116.096, 670.617
1117.331, 425.277
1118.566, 591.344
1119.800, 537.426
1121.035, 474.977
1122.269, 519.348
1123.503, 410.824
1124.737, 434.898
1125.971, 441.359
1127.205, 326.438
1128.438, 232.875
1129.671, 304.383
1130.904, 243.570
1132.137, 342.523
1133.370, 319.125
1134.602, 145.766
1135.834, 282.398
1137.066, 249.027
1138.298, 75.680
1139.530, 562.371
1140.762, 99.051
1141.993, 365.664
1143.224, 582.242
1144.455, 68.844
1145.686, 1055.461
1146.917, 222.035
1148.147, 78.566
1149.377, 365.137
1150.607, 111.758
1151.837, 568.375
1153.067, 454.969
1154.296, 78.414
1155.526, 458.223
1156.755, 134.883
1157.984, 421.559
1159.213, 118.242
1160.441, 474.941
1161.670, 321.660
1162.898, 288.391
1164.126, 84.871
1165.354, 511.887
1166.581, 151.344
1167.809, 225.453
1169.036, 182.277
1170.263, 249.129
1171.490, 146.000
1172.717, 222.895
1173.943, 79.809
1175.170, 236.766
1176.396, 166.238
1177.622, 360.789
1178.848, 297.824
1180.073, 14.906
1181.299, 662.023
1182.524, 199.195
1183.749, 286.355
1184.974, 633.566
1186.199, 49.168
1187.423, 708.164
1188.648, 375.551
1189.872, 423.055
1191.096, 270.660
1192.320, 428.312
1193.543, 496.055
1194.767, 493.941
1195.990, 465.109
1197.213, 849.898
1198.436, 397.953
1199.659, 185.734
1200.881, 412.805
1202.104, 570.074
1203.326, 458.270
1204.548, 435.215
1205.770, 462.203
1206.991, 699.516
1208.213, 507.879
1209.434, 180.254
1210.655, 747.449
1211.876, 494.402
1213.096, 682.578
1214.317, 910.484
1215.537, 203.953
1216.757, 1010.121
1217.977, 675.387
1219.197, 389.602
1220.417, 1093.039
1221.636, 452.980
1222.855, 807.016
1224.074, 921.844
1225.293, 24.062
1226.512, 827.730
1227.731, 810.867
1228.949, 213.867
1230.167, 626.465
1231.385, 586.223
1232.603, 787.797
1233.820, 698.812
1235.038, 299.250
1236.255, 485.938
1237.472, 935.457
1238.689, 5.395
1239.906, 902.680
1241.122, 632.586
1242.338, 524.562
1243.555, 796.312
1244.771, 326.742
1245.986, 656.738
1247.202, 778.297
1248.417, 20.156
1249.633, 1231.621
1250.848, 173.922
1252.063, 383.301
1253.277, 911.895
1254.492, 141.094
1255.706, 641.453
1256.920, 895.277
1258.134, 1.680
1259.348, 742.773
1260.562, 590.332
1261.775, 0.000
##END=



