##NAMES=Laumontite
##RRUFFID=R040020
##IDEAL CHEMISTRY=Ca(Si_4_Al_2_)O_12_&#183;4H_2_O
##LOCALITY=Pine Creek Tungsten mine, Bishop, Inyo County, California, USA
##OWNER=RRUFF
##SOURCE=University of Arizona Mineral Museum
##DESCRIPTION=Pale gray long prism coated with smaller crystals
##STATUS=The identification of this mineral has been confirmed by X-ray diffraction and chemical analysis
##URL=rruff.info/R040020
##MEASURED CHEMISTRY=(Ca_0.99_K_0.01_)_Σ=1_(Si_4.01_Al_1.99_)O_12_·4H_2_O; H_2_O estimated by difference
##PIN_ID=l00206
##ORIENTATION=Laser parallel to b* (0 1 0). Fiducial mark perpendicular to laser is parallel to -c [0 0 -1]
121.897, 0.000
123.286, 7.324
124.675, 141.953
126.063, 186.877
127.452, 368.264
128.840, 540.750
130.228, 637.332
131.615, 858.889
133.003, 930.752
134.390, 1165.967
135.777, 1424.342
137.164, 1586.207
138.550, 1781.115
139.937, 1837.994
141.323, 1995.615
142.709, 2053.279
144.094, 1943.375
145.480, 1729.254
146.865, 1598.420
148.250, 1390.645
149.635, 1105.121
151.019, 1043.715
152.403, 755.045
153.788, 865.930
155.171, 774.916
156.555, 793.877
157.939, 778.201
159.322, 760.156
160.705, 790.693
162.088, 837.635
163.470, 873.621
164.853, 909.346
166.235, 1025.152
167.617, 898.285
168.998, 1110.152
170.380, 1082.291
171.761, 1112.350
173.142, 1044.553
174.523, 1059.123
175.904, 1066.072
177.284, 871.797
178.664, 805.234
180.044, 720.828
181.424, 786.771
182.803, 780.852
184.183, 611.670
185.562, 647.012
186.940, 558.496
188.319, 531.406
189.698, 544.627
191.076, 422.537
192.454, 710.631
193.831, 553.992
195.209, 806.201
196.586, 746.676
197.963, 877.168
199.340, 1207.945
200.717, 978.816
202.093, 1039.830
203.470, 870.850
204.846, 881.938
206.221, 623.193
207.597, 424.629
208.972, 426.258
210.347, 398.055
211.722, 170.008
213.097, 22.107
214.472, 184.338
215.846, 136.689
217.220, 159.150
218.594, 101.709
219.967, 174.352
221.341, 2.934
222.714, 20.160
224.087, 47.338
225.460, 55.525
226.832, 131.578
228.204, 28.654
229.577, 4.281
230.948, 102.777
232.320, 20.158
233.692, 126.932
235.063, 184.062
236.434, 141.236
237.805, 38.461
239.175, 145.740
240.545, 113.070
241.916, 79.547
243.286, 187.881
244.655, 44.646
246.025, 52.873
247.394, 30.441
248.763, 51.941
250.132, 114.236
251.501, 86.439
252.869, 88.562
254.237, 50.590
255.605, 82.439
256.973, 34.115
258.340, 205.598
259.708, 96.994
261.075, 38.049
262.442, 348.914
263.808, 379.469
265.175, 239.867
266.541, 320.113
267.907, 400.246
269.273, 680.338
270.639, 470.441
272.004, 551.797
273.369, 793.650
274.734, 656.938
276.099, 921.508
277.463, 853.695
278.828, 988.092
280.192, 1143.480
281.556, 1237.127
282.919, 1197.691
284.283, 1468.145
285.646, 1541.121
287.009, 1887.404
288.372, 1874.049
289.734, 2280.650
291.097, 2617.832
292.459, 2455.172
293.821, 2713.031
295.183, 2910.617
296.544, 2867.607
297.905, 3014.562
299.266, 3161.467
300.627, 3330.322
301.988, 3485.051
303.348, 3821.703
304.709, 4228.248
306.069, 4534.686
307.428, 5041.004
308.788, 5557.215
310.147, 5753.307
311.507, 5879.277
312.865, 5705.109
314.224, 5590.799
315.583, 5286.332
316.941, 5081.689
318.299, 4606.871
319.657, 4211.891
321.015, 4176.742
322.372, 3771.443
323.729, 4006.014
325.086, 4130.451
326.443, 4034.773
327.800, 3888.982
329.156, 3763.086
330.512, 3397.072
331.868, 2630.873
333.224, 2374.533
334.579, 2288.055
335.935, 1801.420
337.290, 1834.512
338.645, 1337.322
339.999, 1459.924
341.354, 1472.281
342.708, 1494.236
344.062, 1405.902
345.416, 1747.242
346.769, 1798.344
348.123, 1779.307
349.476, 1700.154
350.829, 1540.949
352.182, 1331.646
353.534, 1402.318
354.887, 1162.465
356.239, 1043.057
357.591, 983.629
358.942, 834.188
360.294, 804.738
361.645, 535.283
362.996, 695.816
364.347, 556.342
365.698, 796.855
367.048, 867.361
368.398, 697.855
369.748, 778.336
371.098, 838.455
372.448, 948.578
373.797, 888.576
375.146, 1127.320
376.495, 1323.393
377.844, 1492.266
379.192, 1830.727
380.540, 1919.393
381.889, 2237.424
383.236, 1876.225
384.584, 1861.164
385.932, 1455.055
387.279, 1367.402
388.626, 1054.701
389.973, 841.676
391.319, 635.129
392.666, 534.896
394.012, 369.609
395.358, 495.980
396.704, 403.344
398.049, 519.740
399.394, 376.248
400.740, 329.738
402.084, 596.021
403.429, 544.393
404.774, 803.207
406.118, 757.309
407.462, 944.584
408.806, 776.867
410.150, 890.658
411.493, 718.254
412.836, 706.555
414.179, 444.547
415.522, 272.572
416.865, 380.062
418.207, 258.061
419.549, 5.297
420.891, 114.355
422.233, 22.588
423.575, 29.994
424.916, 190.359
426.257, 9.375
427.598, 61.465
428.939, 21.980
430.279, 117.850
431.619, 32.125
432.959, 42.111
434.299, 92.109
435.639, 187.855
436.978, 17.816
438.318, 52.211
439.657, 197.736
440.996, 107.686
442.334, 107.607
443.673, 217.502
445.011, 42.613
446.349, 27.250
447.687, 317.094
449.024, 56.902
450.361, 266.674
451.699, 166.426
453.036, 156.137
454.372, 45.809
455.709, 115.441
457.045, 315.027
458.381, 454.576
459.717, 404.088
461.053, 453.564
462.388, 483.006
463.724, 782.412
465.059, 622.604
466.394, 1032.727
467.728, 1042.059
469.063, 1252.404
470.397, 1211.682
471.731, 1131.393
473.065, 1081.164
474.398, 1210.320
475.732, 1302.088
477.065, 1321.201
478.398, 1321.174
479.731, 1571.080
481.063, 1790.510
482.396, 2049.918
483.728, 2329.516
485.060, 3508.422
486.391, 4108.195
487.723, 5158.117
489.054, 6647.979
490.385, 7626.770
491.716, 8335.762
493.047, 8854.949
494.377, 7773.652
495.708, 7357.672
497.038, 6176.320
498.368, 5325.367
499.697, 4574.113
501.027, 4213.225
502.356, 4101.773
503.685, 4220.867
505.014, 4529.375
506.342, 4797.865
507.671, 5136.338
508.999, 5704.791
510.327, 6233.227
511.655, 6741.645
512.982, 7290.049
514.310, 7438.434
515.637, 7476.809
516.964, 6895.160
518.291, 6343.498
519.617, 5641.816
520.944, 5340.123
522.270, 4218.408
523.596, 3606.680
524.921, 3454.932
526.247, 2713.168
527.572, 2221.385
528.897, 1849.602
530.222, 1767.953
531.547, 1306.139
532.871, 1374.617
534.196, 943.768
535.520, 1022.840
536.844, 862.055
538.167, 980.900
539.491, 589.961
540.814, 688.098
542.137, 429.395
543.460, 627.510
544.783, 316.586
546.105, 175.361
547.427, 533.508
548.749, 332.537
550.071, 311.580
551.393, 200.609
552.714, 188.809
554.035, 306.951
555.356, 295.178
556.677, 54.799
557.998, 243.490
559.318, 81.822
560.638, 315.365
561.958, 203.744
563.278, 7.465
564.597, 110.926
565.917, 346.387
567.236, 294.863
568.555, 203.998
569.874, 200.285
571.192, 578.961
572.511, 259.002
573.829, 708.486
575.147, 766.877
576.464, 585.928
577.782, 944.246
579.099, 789.025
580.416, 1357.980
581.733, 1335.945
583.050, 1613.752
584.366, 1862.609
585.683, 2212.760
586.999, 2480.295
588.315, 2717.459
589.630, 3005.986
590.946, 2992.859
592.261, 3070.764
593.576, 2934.578
594.891, 2716.555
596.206, 2473.920
597.520, 2220.084
598.834, 1905.725
600.148, 1703.723
601.462, 1301.139
602.776, 1169.600
604.089, 935.199
605.402, 912.781
606.715, 820.717
608.028, 657.926
609.341, 518.949
610.653, 486.428
611.965, 364.850
613.277, 301.850
614.589, 295.998
615.901, 397.012
617.212, 265.221
618.523, 363.098
619.834, 281.391
621.145, 289.182
622.456, 68.844
623.766, 76.443
625.076, 340.719
626.386, 19.004
627.696, 266.531
629.006, 154.350
630.315, 131.805
631.624, 319.658
632.933, 22.943
634.242, 265.311
635.551, 53.230
636.859, 60.516
638.167, 168.596
639.475, 165.922
640.783, 113.582
642.090, 400.746
643.398, 57.881
644.705, 14.984
646.012, 22.051
647.318, 279.453
648.625, 216.461
649.931, 163.441
651.237, 390.393
652.543, 62.682
653.849, 304.172
655.155, 170.996
656.460, 237.793
657.765, 144.562
659.070, 401.301
660.375, 138.043
661.679, 364.754
662.984, 381.441
664.288, 628.102
665.592, 544.742
666.895, 541.359
668.199, 817.953
669.502, 864.523
670.805, 861.082
672.108, 957.609
673.411, 1284.117
674.713, 930.598
676.016, 767.047
677.318, 973.477
678.620, 489.879
679.921, 656.254
681.223, 552.605
682.524, 278.926
683.825, 405.223
685.126, 314.945
686.427, 241.191
687.727, 277.957
689.028, 204.145
690.328, 40.305
691.628, 56.434
692.927, 23.242
694.227, 109.508
695.526, 55.562
696.825, 365.941
698.124, 18.098
699.423, 407.809
700.721, 53.691
702.020, 130.113
703.318, 315.793
704.616, 71.574
705.913, 77.328
707.211, 83.047
708.508, 369.582
709.805, 395.164
711.102, 480.789
712.399, 6.391
713.695, 319.352
714.992, 424.875
716.288, 50.137
717.584, 355.281
718.879, 190.957
720.175, 285.297
721.470, 234.508
722.765, 280.648
724.060, 125.918
725.355, 87.164
726.649, 237.715
727.944, 13.477
729.238, 38.391
730.532, 303.270
731.825, 131.879
733.119, 402.844
734.412, 82.461
735.705, 22.152
736.998, 126.719
738.291, 171.250
739.584, 5.758
740.876, 9.656
742.168, 225.164
743.460, 10.223
744.752, 64.168
746.043, 118.520
747.334, 2.848
748.626, 87.137
749.916, 188.586
751.207, 126.848
752.498, 169.555
753.788, 95.059
755.078, 139.211
756.368, 273.070
757.658, 126.906
758.947, 310.707
760.237, 134.492
761.526, 458.246
762.815, 241.973
764.104, 14.332
765.392, 449.309
766.680, 32.922
767.969, 256.500
769.257, 490.055
770.544, 224.809
771.832, 158.305
773.119, 231.770
774.406, 125.203
775.693, 238.605
776.980, 1.980
778.267, 444.484
779.553, 73.008
780.839, 90.207
782.125, 262.332
783.411, 185.465
784.697, 348.102
785.982, 160.609
787.267, 323.672
788.552, 44.066
789.837, 117.039
791.122, 369.098
792.406, 61.156
793.690, 233.637
794.974, 146.078
796.258, 418.266
797.542, 331.090
798.825, 295.418
800.108, 524.691
801.391, 166.391
802.674, 499.109
803.957, 571.570
805.239, 383.781
806.522, 496.418
807.804, 473.695
809.085, 716.285
810.367, 658.426
811.649, 820.820
812.930, 1162.805
814.211, 951.266
815.492, 1133.172
816.772, 1525.617
818.053, 1419.035
819.333, 891.434
820.613, 1035.363
821.893, 727.711
823.173, 880.035
824.452, 715.430
825.732, 587.711
827.011, 730.059
828.290, 362.285
829.568, 554.500
830.847, 376.688
832.125, 278.965
833.403, 411.109
834.681, 463.230
835.959, 275.332
837.236, 287.410
838.514, 30.531
839.791, 541.469
841.068, 103.293
842.345, 315.250
843.621, 326.871
844.898, 437.789
846.174, 58.820
847.450, 179.684
848.726, 220.887
850.001, 48.160
851.277, 273.668
852.552, 292.312
853.827, 314.102
855.102, 84.918
856.376, 276.066
857.651, 277.832
858.925, 598.695
860.199, 349.566
861.473, 10.441
862.746, 352.125
864.020, 463.797
865.293, 255.445
866.566, 365.316
867.839, 456.945
869.112, 528.562
870.384, 314.891
871.656, 136.477
872.928, 387.668
874.200, 70.777
875.472, 653.723
876.744, 155.184
878.015, 24.016
879.286, 739.613
880.557, 0.836
881.828, 250.664
883.098, 281.027
884.369, 482.414
885.639, 453.160
886.909, 398.438
888.178, 318.359
889.448, 198.445
890.717, 289.117
891.987, 279.965
893.256, 139.289
894.524, 67.641
895.793, 113.289
897.061, 266.969
898.330, 257.312
899.598, 217.910
900.865, 377.031
902.133, 157.469
903.401, 274.566
904.668, 345.531
905.935, 33.707
907.202, 29.203
908.468, 459.809
909.735, 230.961
911.001, 411.496
912.267, 562.652
913.533, 253.199
914.799, 484.336
916.064, 125.312
917.330, 163.277
918.595, 424.363
919.860, 184.426
921.124, 635.422
922.389, 33.523
923.653, 507.316
924.918, 477.875
926.182, 158.738
927.445, 359.152
928.709, 470.047
929.972, 249.031
931.236, 500.047
932.499, 114.348
933.761, 874.613
935.024, 165.605
936.286, 436.273
937.549, 377.281
938.811, 277.848
940.073, 858.855
941.334, 508.957
942.596, 249.375
943.857, 570.355
945.118, 480.500
946.379, 741.367
947.640, 831.871
948.900, 772.824
950.161, 713.773
951.421, 734.734
952.681, 695.691
953.940, 786.285
955.200, 661.320
956.459, 748.211
957.719, 549.180
958.978, 390.145
960.236, 551.137
961.495, 422.125
962.753, 203.117
964.012, 544.117
965.270, 134.887
966.527, 556.086
967.785, 437.062
969.043, 31.957
970.300, 699.020
971.557, 50.000
972.814, 250.973
974.071, 161.949
975.327, 87.066
976.583, 493.902
977.840, 64.871
979.095, 325.848
980.351, 296.828
981.607, 327.812
982.862, 59.188
984.117, 640.180
985.372, 211.176
986.627, 392.555
987.882, 233.562
989.136, 204.574
990.390, 442.145
991.644, 293.168
992.898, 633.891
994.152, 214.934
995.405, 265.984
996.659, 773.281
997.912, 113.637
999.165, 594.516
1000.417, 595.586
1001.670, 802.312
1002.922, 1143.438
1004.174, 614.586
1005.426, 1115.742
1006.678, 775.168
1007.930, 856.352
1009.181, 1297.703
1010.432, 778.922
1011.683, 1070.156
1012.934, 1350.535
1014.185, 1151.805
1015.435, 1983.082
1016.685, 1395.133
1017.935, 1876.453
1019.185, 1937.793
1020.435, 1819.148
1021.684, 2210.547
1022.934, 2243.594
1024.183, 2325.031
1025.432, 2241.215
1026.680, 1612.762
1027.929, 2074.184
1029.177, 1503.984
1030.425, 1365.629
1031.673, 1546.488
1032.921, 1170.949
1034.169, 882.387
1035.416, 1073.836
1036.663, 376.223
1037.911, 1167.754
1039.157, 569.852
1040.404, 1101.254
1041.650, 1192.668
1042.897, 744.086
1044.143, 1105.426
1045.389, 716.492
1046.634, 937.699
1047.880, 1169.094
1049.125, 668.273
1050.371, 779.645
1051.615, 1370.910
1052.860, 443.613
1054.105, 1024.883
1055.349, 866.160
1056.593, 996.051
1057.837, 1026.957
1059.081, 1138.223
1060.325, 948.945
1061.568, 1089.473
1062.812, 930.820
1064.055, 1381.035
1065.298, 1231.051
1066.540, 810.723
1067.783, 1550.152
1069.025, 1049.379
1070.267, 1701.191
1071.509, 1771.773
1072.751, 1483.609
1073.993, 2005.465
1075.234, 1877.355
1076.475, 1969.328
1077.716, 2111.328
1078.957, 1643.344
1080.198, 2035.387
1081.438, 1987.457
1082.679, 1559.555
1083.919, 2041.680
1085.159, 1513.828
1086.398, 1916.004
1087.638, 1938.195
1088.877, 1530.414
1090.116, 1642.656
1091.355, 1144.930
1092.594, 1820.125
1093.833, 1821.176
1095.071, 1111.547
1096.309, 1643.816
1097.547, 1582.281
1098.785, 1314.441
1100.023, 1936.750
1101.260, 1448.934
1102.498, 1531.285
1103.735, 2233.664
1104.972, 1746.117
1106.208, 2298.605
1107.445, 1851.027
1108.681, 1403.391
1109.918, 1665.816
1111.154, 1428.293
1112.389, 1580.742
1113.625, 1303.172
1114.860, 1185.922
1116.096, 1008.129
1117.331, 890.652
1118.566, 823.195
1119.800, 825.762
1121.035, 418.336
1122.269, 503.816
1123.503, 1023.723
1124.737, 546.480
1125.971, 649.234
1127.205, 912.012
1128.438, 364.809
1129.671, 1107.633
1130.904, 110.492
1132.137, 453.395
1133.370, 446.285
1134.602, 119.141
1135.834, 592.023
1137.066, 604.961
1138.298, 227.961
1139.530, 941.023
1140.762, 164.145
1141.993, 427.355
1143.224, 1120.688
1144.455, 235.902
1145.686, 1087.570
1146.917, 431.090
1148.147, 234.664
1149.377, 718.277
1150.607, 501.941
1151.837, 865.664
1153.067, 539.434
1154.296, 106.746
1155.526, 997.297
1156.755, 221.461
1157.984, 425.781
1159.213, 280.184
1160.441, 464.668
1161.670, 489.238
1162.898, 713.883
1164.126, 118.625
1165.354, 1033.461
1166.581, 368.398
1167.809, 383.445
1169.036, 638.609
1170.263, 43.883
1171.490, 359.277
1172.717, 534.797
1173.943, 479.141
1175.170, 674.906
1176.396, 299.457
1177.622, 795.492
1178.848, 810.785
1180.073, 47.137
1181.299, 895.590
1182.524, 549.801
1183.749, 124.051
1184.974, 918.305
1186.199, 119.496
1187.423, 791.098
1188.648, 973.211
1189.872, 445.043
1191.096, 762.152
1192.320, 652.992
1193.543, 520.801
1194.767, 829.730
1195.990, 72.164
1197.213, 1094.000
1198.436, 416.949
1199.659, 54.465
1200.881, 482.375
1202.104, 843.039
1203.326, 259.402
1204.548, 764.953
1205.770, 360.699
1206.991, 541.465
1208.213, 633.523
1209.434, 2.379
1210.655, 538.469
1211.876, 259.957
1213.096, 167.586
1214.317, 314.953
1215.537, 0.000
##END=



