##NAMES=Laverovite
##RRUFFID=R060216
##IDEAL CHEMISTRY=K_2_NaMn^2+^_7_Zr^4+^_2_(Si_4_O_12_)_2_O_2_(OH)_4_F
##LOCALITY=Desourdy Quarry, Mont Saint-Hilaire, Rouville County, Quebec, Canada
##OWNER=RRUFF
##SOURCE=Royal Ontario Museum
##DESCRIPTION=Brown fragment showing lamellar habit. Type sample
##STATUS=The identification of this mineral has been confirmed by X-ray diffraction and chemical analysis
##URL=rruff.info/R060216
##MEASURED CHEMISTRY=(K_1.74_Na_0.18_[box]_0.08_)_Σ=2_(Na_0.92_Ca_0.08_)_Σ=1_(Mn_4.09_Fe^2+^_2.67_Mg_0.24_)_Σ=7_(Zr_1.42_Ti_0.58_)_Σ=2_(Si_7.86_Al_0.14_)_Σ=8_O_26_((OH)_3.14_O_0.86_)_Σ=4_
##PIN_ID=L00587
##ORIENTATION=Laser parallel to -b* (0 -1 0). Fiducial mark perpendicular to laser is parallel to -c [0 0 -1]
159.7350, 0.0000000E+00
160.9660, 173.7148
162.1970, 508.2070
163.4270, 1358.289
164.6580, 1965.711
165.8880, 2249.057
167.1180, 2336.895
168.3480, 3029.141
169.5780, 2374.508
170.8080, 2609.578
172.0370, 2164.594
173.2670, 1342.510
174.4960, 1210.186
175.7250, 1048.332
176.9540, 709.8125
178.1820, 709.6016
179.4110, 719.9512
180.6390, 252.8027
181.8670, 217.2441
183.0950, 267.5957
184.3230, 439.8301
185.5500, 761.0059
186.7780, 1057.486
188.0050, 1068.258
189.2320, 1034.357
190.4590, 1544.111
191.6850, 1620.094
192.9120, 1971.316
194.1380, 2124.707
195.3650, 2643.826
196.5910, 2792.898
197.8160, 3068.244
199.0420, 3611.621
200.2680, 4668.752
201.4930, 5802.586
202.7180, 5720.109
203.9430, 3862.496
205.1680, 1528.928
206.3930, 117.5566
207.6170, 128.4824
208.8410, 136.0605
210.0660, 13.07812
211.2890, 33.43555
212.5130, 251.9531
213.7370, 438.9551
214.9600, 681.3184
216.1840, 474.3867
217.4070, 579.1836
218.6300, 909.2930
219.8520, 870.6621
221.0750, 1205.203
222.2970, 1311.492
223.5200, 1578.842
224.7420, 1840.098
225.9640, 1920.023
227.1850, 2279.158
228.4070, 2538.408
229.6280, 2876.100
230.8490, 3065.525
232.0700, 3379.068
233.2910, 3416.787
234.5120, 3699.693
235.7320, 3796.148
236.9530, 4082.250
238.1730, 4156.777
239.3930, 4302.592
240.6130, 4371.748
241.8320, 4217.484
243.0520, 4143.768
244.2710, 3810.055
245.4900, 3663.729
246.7090, 3287.463
247.9280, 2861.398
249.1470, 2392.277
250.3650, 2297.301
251.5840, 1988.621
252.8020, 1997.170
254.0200, 1771.164
255.2370, 1129.400
256.4550, 1325.092
257.6720, 1409.736
258.8900, 1389.244
260.1070, 949.1055
261.3240, 1050.797
262.5400, 935.3125
263.7570, 810.8535
264.9730, 988.6875
266.1900, 817.8457
267.4060, 604.2520
268.6220, 516.5566
269.8370, 535.7520
271.0530, 321.9180
272.2680, 155.9375
273.4830, 375.8125
274.6980, 373.5371
275.9130, 431.0957
277.1280, 398.4844
278.3420, 362.7090
279.5570, 96.76953
280.7710, 71.32812
281.9850, 27.58594
283.1990, 224.0020
284.4120, 185.5723
285.6260, 284.2930
286.8390, 203.1172
288.0520, 165.7031
289.2650, 165.7812
290.4780, 231.2617
291.6910, 113.6777
292.9030, 150.4766
294.1160, 162.6035
295.3280, 78.97070
296.5400, 179.2812
297.7510, 19.98828
298.9630, 59.02734
300.1740, 130.7871
301.3860, 73.31250
302.5970, 48.37500
303.8080, 24.50195
305.0180, 3.527344
306.2290, 30.89258
307.4390, 7.386719
308.6500, 137.1191
309.8600, 188.2031
311.0700, 291.3555
312.2790, 231.7969
313.4890, 271.4629
314.6980, 164.1914
315.9080, 404.9629
317.1170, 457.7461
318.3250, 398.4980
319.5340, 426.1895
320.7430, 596.7930
321.9510, 535.3027
323.1590, 432.6973
324.3670, 646.9512
325.5750, 952.0566
326.7830, 759.9980
327.9900, 834.7715
329.1980, 888.5938
330.4050, 825.6719
331.6120, 852.7832
332.8190, 985.0859
334.0250, 823.8223
335.2320, 1146.084
336.4380, 1016.492
337.6440, 1240.688
338.8500, 1351.643
340.0560, 1473.342
341.2620, 1414.775
342.4670, 1696.939
343.6730, 1467.838
344.8780, 2009.475
346.0830, 2094.863
347.2870, 1797.012
348.4920, 1682.930
349.6970, 1556.627
350.9010, 1645.111
352.1050, 1598.391
353.3090, 1583.641
354.5130, 1675.824
355.7160, 1633.408
356.9200, 1759.596
358.1230, 1924.945
359.3260, 1905.125
360.5290, 1889.121
361.7320, 1749.887
362.9340, 1937.465
364.1370, 1815.873
365.3390, 1787.398
366.5410, 1829.137
367.7430, 1774.266
368.9450, 1882.758
370.1460, 1608.113
371.3480, 1828.793
372.5490, 1938.326
373.7500, 1942.066
374.9510, 1526.396
376.1520, 1656.859
377.3520, 1566.238
378.5520, 1464.861
379.7530, 1676.623
380.9530, 1837.791
382.1530, 1714.543
383.3520, 1891.697
384.5520, 1975.227
385.7510, 1631.412
386.9500, 1689.766
388.1490, 1705.051
389.3480, 1651.268
390.5470, 1475.422
391.7450, 1498.512
392.9440, 1345.533
394.1420, 1386.488
395.3400, 1001.197
396.5380, 1237.609
397.7350, 1362.947
398.9330, 1383.178
400.1300, 983.6953
401.3270, 1126.033
402.5240, 1051.150
403.7210, 967.2891
404.9180, 1185.709
406.1140, 850.4336
407.3110, 829.6719
408.5070, 807.8516
409.7030, 810.9707
410.8990, 680.0273
412.0940, 577.7305
413.2900, 883.0020
414.4850, 628.2910
415.6800, 771.2500
416.8750, 609.6055
418.0700, 598.8984
419.2650, 457.1133
420.4590, 718.6738
421.6530, 646.9883
422.8470, 547.9551
424.0410, 396.1250
425.2350, 503.9336
426.4290, 364.3828
427.6220, 270.4805
428.8160, 319.1055
430.0090, 30.39062
431.2020, 169.7051
432.3940, 83.33789
433.5870, 122.9219
434.7790, 117.3691
435.9720, 15.82617
437.1640, 46.61914
438.3560, 8.722656
439.5470, 28.15430
440.7390, 39.53125
441.9300, 145.0391
443.1220, 129.3086
444.3130, 198.2480
445.5040, 149.4805
446.6940, 150.1719
447.8850, 173.5195
449.0750, 101.9336
450.2660, 136.6230
451.4560, 117.1250
452.6460, 92.16602
453.8350, 298.9707
455.0250, 285.7207
456.2140, 139.4883
457.4040, 290.7988
458.5930, 338.3262
459.7820, 283.1152
460.9700, 491.2500
462.1590, 588.7930
463.3470, 587.4707
464.5350, 1048.129
465.7240, 1101.447
466.9110, 1209.900
468.0990, 1215.529
469.2870, 1363.785
470.4740, 1549.740
471.6610, 1439.885
472.8480, 1200.973
474.0350, 1474.986
475.2220, 1246.971
476.4090, 1490.900
477.5950, 1187.709
478.7810, 1276.541
479.9670, 1178.322
481.1530, 1235.057
482.3390, 1249.746
483.5240, 1029.393
484.7100, 1028.994
485.8950, 1047.555
487.0800, 1097.072
488.2650, 1031.072
489.4490, 1086.996
490.6340, 888.4043
491.8180, 768.7754
493.0030, 639.1133
494.1870, 631.6680
495.3700, 595.6914
496.5540, 657.9453
497.7380, 540.1797
498.9210, 471.3867
500.1040, 341.5703
501.2870, 164.7266
502.4700, 219.8594
503.6530, 277.9668
504.8350, 241.0527
506.0180, 141.1152
507.2000, 128.8418
508.3820, 148.1484
509.5640, 78.12109
510.7450, 133.0781
511.9270, 197.9727
513.1080, 87.91016
514.2890, 22.21484
515.4700, 220.6523
516.6510, 37.48047
517.8320, 187.6230
519.0130, 83.81055
520.1930, 35.98633
521.3730, 287.2129
522.5530, 142.4902
523.7330, 117.2031
524.9130, 39.09180
526.0920, 50.61328
527.2710, 160.6719
528.4510, 224.0156
529.6300, 62.71680
530.8080, 100.4297
531.9870, 181.1543
533.1660, 333.8926
534.3440, 330.9746
535.5220, 143.4277
536.7000, 351.2402
537.8780, 416.0684
539.0560, 354.9121
540.2330, 585.5820
541.4110, 979.6719
542.5880, 921.5918
543.7650, 1086.578
544.9420, 1300.633
546.1180, 1298.727
547.2950, 1485.893
548.4710, 1944.139
549.6470, 2459.486
550.8230, 2606.902
551.9990, 3111.381
553.1750, 3433.662
554.3500, 3731.617
555.5260, 4171.318
556.7010, 4384.701
557.8760, 4468.590
559.0510, 4445.166
560.2250, 4670.820
561.4000, 4739.992
562.5740, 4657.262
563.7480, 4343.439
564.9220, 4233.279
566.0960, 3883.490
567.2700, 3991.527
568.4430, 3717.045
569.6170, 3527.150
570.7900, 3204.027
571.9630, 2929.330
573.1360, 2531.559
574.3080, 2639.906
575.4810, 2532.189
576.6530, 2503.027
577.8250, 1926.363
578.9980, 2080.957
580.1690, 1759.135
581.3410, 1939.051
582.5130, 1984.580
583.6840, 1800.895
584.8550, 1783.691
586.0260, 2028.812
587.1970, 2232.529
588.3680, 2197.699
589.5380, 2369.354
590.7080, 2128.980
591.8790, 2420.295
593.0490, 2371.270
594.2190, 2212.607
595.3880, 2249.367
596.5580, 2183.189
597.7270, 2328.035
598.8960, 2101.984
600.0650, 2069.012
601.2340, 2140.094
602.4030, 2348.234
603.5710, 2236.430
604.7400, 2214.684
605.9080, 2000.990
607.0760, 2189.352
608.2440, 2233.771
609.4120, 2356.246
610.5790, 2423.773
611.7460, 2474.350
612.9140, 2179.980
614.0810, 2334.662
615.2480, 2538.395
616.4140, 2433.182
617.5810, 2743.021
618.7470, 2881.914
619.9130, 3002.861
621.0790, 3173.861
622.2450, 3184.918
623.4110, 3130.025
624.5770, 3513.189
625.7420, 3447.410
626.9070, 3700.684
628.0720, 3672.016
629.2370, 3806.400
630.4020, 3994.844
631.5660, 4282.340
632.7310, 4328.896
633.8950, 4536.510
635.0590, 4536.180
636.2230, 4867.906
637.3870, 5285.688
638.5500, 5693.529
639.7140, 5908.428
640.8770, 6178.383
642.0400, 6834.400
643.2030, 7538.473
644.3660, 8348.602
645.5280, 8862.791
646.6910, 9774.043
647.8530, 10849.36
649.0150, 12002.36
650.1770, 13152.79
651.3390, 14136.28
652.5000, 15063.89
653.6620, 15440.50
654.8230, 15235.85
655.9840, 14642.57
657.1450, 13839.80
658.3060, 12489.46
659.4660, 11874.80
660.6270, 10372.77
661.7870, 9661.336
662.9470, 8960.141
664.1070, 8351.295
665.2670, 7573.973
666.4260, 7613.250
667.5860, 7035.846
668.7450, 6992.248
669.9040, 6904.713
671.0630, 6700.240
672.2220, 6968.828
673.3800, 7040.480
674.5390, 6999.520
675.6970, 7340.273
676.8550, 7561.111
678.0130, 7509.008
679.1710, 8049.969
680.3290, 8338.475
681.4860, 8579.656
682.6430, 8732.812
683.8000, 9029.047
684.9570, 9365.305
686.1140, 9845.480
687.2710, 9854.609
688.4270, 10437.57
689.5840, 10733.13
690.7400, 11153.33
691.8960, 11097.38
693.0520, 11418.88
694.2070, 11596.53
695.3630, 11557.27
696.5180, 11893.07
697.6730, 12159.22
698.8280, 12303.51
699.9830, 12539.82
701.1380, 12647.18
702.2920, 12653.31
703.4470, 12839.65
704.6010, 12763.77
705.7550, 12843.77
706.9090, 12917.16
708.0620, 13052.99
709.2160, 12934.35
710.3690, 13058.76
711.5220, 13074.96
712.6750, 13123.50
713.8280, 13042.66
714.9810, 12587.23
716.1340, 13081.57
717.2860, 12806.33
718.4380, 12945.49
719.5900, 12285.36
720.7420, 12152.60
721.8940, 12185.58
723.0450, 11756.66
724.1970, 11722.82
725.3480, 11407.07
726.4990, 11068.42
727.6500, 10678.84
728.8010, 10562.36
729.9510, 10248.94
731.1020, 9834.590
732.2520, 9481.312
733.4020, 9386.062
734.5520, 8994.836
735.7020, 8727.328
736.8510, 8227.465
738.0010, 8151.312
739.1500, 7550.191
740.2990, 7344.090
741.4480, 7258.014
742.5970, 6816.967
743.7450, 7012.938
744.8940, 6723.932
746.0420, 6646.949
747.1900, 6188.992
748.3380, 6232.051
749.4860, 6059.850
750.6330, 5909.574
751.7810, 5852.377
752.9280, 5784.527
754.0750, 5569.699
755.2220, 5602.895
756.3690, 5740.107
757.5160, 5599.344
758.6620, 5572.598
759.8090, 5258.873
760.9550, 5075.168
762.1010, 5244.482
763.2470, 4951.816
764.3920, 4800.980
765.5380, 4693.363
766.6830, 4363.936
767.8280, 4228.346
768.9730, 4130.771
770.1180, 3705.219
771.2630, 3580.684
772.4070, 3429.166
773.5520, 3488.664
774.6960, 3188.369
775.8400, 2730.715
776.9840, 2651.262
778.1280, 2395.828
779.2710, 2047.410
780.4140, 2112.010
781.5580, 1896.625
782.7010, 1716.254
783.8440, 1617.900
784.9860, 1608.562
786.1290, 1567.254
787.2710, 1467.963
788.4140, 1445.682
789.5560, 1352.418
790.6980, 1276.195
791.8390, 1199.986
792.9810, 1186.793
794.1220, 1024.611
795.2640, 974.4473
796.4050, 1087.318
797.5460, 858.2148
798.6860, 814.1191
799.8270, 545.0820
800.9680, 512.3027
802.1080, 444.2930
803.2480, 413.0879
804.3880, 389.1133
805.5280, 356.1680
806.6670, 339.2324
807.8070, 147.3066
808.9460, 103.0508
810.0850, 45.37500
811.2240, 43.41406
812.3630, 17.33984
813.5020, 65.71875
814.6400, 100.7871
815.7790, 81.84180
816.9170, 58.05273
818.0550, 30.99219
819.1930, 150.9609
820.3300, 166.9980
821.4680, 44.12695
822.6050, 161.2930
823.7430, 209.5508
824.8800, 271.9258
826.0170, 144.4512
827.1530, 119.0625
828.2900, 114.7461
829.4260, 171.5059
830.5620, 172.3672
831.6990, 206.2109
832.8340, 219.1035
833.9700, 230.6230
835.1060, 227.9688
836.2410, 158.4434
837.3760, 141.0215
838.5120, 169.6855
839.6470, 17.45703
840.7810, 12.25781
841.9160, 328.0840
843.0500, 101.0996
844.1850, 227.1875
845.3190, 109.5918
846.4530, 314.6270
847.5870, 161.8965
848.7200, 308.4727
849.8540, 74.02539
850.9870, 233.5820
852.1200, 24.27734
853.2530, 105.9922
854.3860, 18.25977
855.5190, 86.51758
856.6510, 18.77539
857.7840, 152.0195
858.9160, 375.2656
860.0480, 174.5137
861.1800, 419.7676
862.3110, 353.0195
863.4430, 313.2754
864.5740, 434.5312
865.7060, 637.7871
866.8370, 599.0469
867.9680, 730.3066
869.0980, 597.5664
870.2290, 712.8281
871.3590, 620.0898
872.4900, 764.3516
873.6200, 783.6152
874.7500, 1084.877
875.8790, 963.1426
877.0090, 1051.408
878.1380, 1168.674
879.2680, 973.9395
880.3970, 1290.209
881.5260, 1167.479
882.6550, 950.7480
883.7830, 1250.020
884.9120, 1164.391
886.0400, 1313.746
887.1680, 1359.842
888.2960, 1533.119
889.4240, 1668.396
890.5520, 1560.674
891.6790, 1721.953
892.8070, 1627.238
893.9340, 1863.523
895.0610, 1800.809
896.1880, 1898.125
897.3140, 1919.449
898.4410, 1901.775
899.5670, 2158.119
900.6940, 2327.463
901.8200, 2152.809
902.9450, 2248.160
904.0710, 2581.512
905.1970, 2424.076
906.3220, 2454.221
907.4470, 2486.578
908.5730, 2471.957
909.6980, 2685.342
910.8220, 2450.762
911.9470, 2801.189
913.0710, 2718.637
914.1960, 2785.096
915.3200, 2908.561
916.4440, 2959.027
917.5680, 2983.496
918.6910, 3159.967
919.8150, 3054.441
920.9380, 2886.920
922.0610, 3019.398
923.1840, 2893.900
924.3070, 3006.404
925.4300, 3005.912
926.5520, 2876.424
927.6750, 3021.938
928.7970, 2869.455
929.9190, 2877.977
931.0410, 3063.500
932.1630, 2730.029
933.2840, 2903.564
934.4060, 2705.102
935.5270, 2664.646
936.6480, 2811.193
937.7690, 2697.744
938.8900, 2781.736
940.0100, 2832.852
941.1310, 2812.410
942.2510, 2591.977
943.3710, 2470.033
944.4910, 2498.531
945.6110, 2423.764
946.7310, 2431.086
947.8500, 2428.037
948.9690, 2440.445
950.0890, 2385.219
951.2080, 2502.992
952.3260, 2371.291
953.4450, 2465.008
954.5640, 2127.846
955.6820, 2158.672
956.8000, 2138.541
957.9180, 1906.729
959.0360, 1881.746
960.1540, 1614.178
961.2710, 1621.070
962.3890, 1590.402
963.5060, 1398.953
964.6230, 1146.135
965.7400, 1228.230
966.8570, 1079.307
967.9730, 1023.596
969.0900, 1107.186
970.2060, 1109.912
971.3220, 1197.715
972.4380, 1048.525
973.5540, 891.6523
974.6700, 988.6641
975.7850, 1159.963
976.9010, 1089.465
978.0160, 888.6504
979.1310, 968.4570
980.2460, 915.8320
981.3600, 1033.240
982.4750, 1016.949
983.5890, 841.4043
984.7030, 1101.311
985.8170, 947.9004
986.9310, 1112.773
988.0450, 937.3398
989.1590, 943.5801
990.2720, 1025.396
991.3850, 1071.543
992.4980, 1147.229
993.6110, 1266.943
994.7240, 1307.689
995.8370, 1521.465
996.9490, 1395.273
998.0620, 1659.109
999.1740, 1523.979
1000.286, 1365.873
1001.398, 2042.803
1002.509, 1832.762
1003.621, 1996.750
1004.732, 1950.768
1005.843, 1964.818
1006.954, 2325.900
1008.065, 2356.014
1009.176, 2577.156
1010.286, 2577.342
1011.397, 2811.562
1012.507, 2798.822
1013.617, 2970.115
1014.727, 3132.441
1015.837, 3268.797
1016.946, 3310.184
1018.056, 3730.600
1019.165, 3816.051
1020.274, 4391.535
1021.383, 4109.045
1022.492, 4351.590
1023.601, 4195.166
1024.709, 4014.777
1025.817, 4034.590
1026.926, 4342.264
1028.034, 4139.967
1029.141, 4278.309
1030.249, 4189.861
1031.357, 4291.660
1032.464, 4190.012
1033.571, 4163.875
1034.678, 4104.373
1035.785, 3747.697
1036.892, 3848.654
1037.999, 3686.645
1039.105, 3405.676
1040.211, 3362.738
1041.317, 3170.354
1042.423, 3009.666
1043.529, 2932.807
1044.635, 2762.432
1045.740, 2702.998
1046.845, 2697.566
1047.951, 2385.850
1049.056, 2391.164
1050.160, 2560.508
1051.265, 2272.885
1052.370, 1919.291
1053.474, 2328.730
1054.578, 2180.197
1055.682, 2246.508
1056.786, 2125.037
1057.890, 2269.732
1058.993, 2513.834
1060.097, 2646.955
1061.200, 2675.070
1062.303, 2283.754
1063.406, 2434.168
1064.509, 2367.453
1065.612, 2292.646
1066.714, 2519.428
1067.816, 2189.121
1068.919, 2411.877
1070.021, 2406.781
1071.122, 2485.715
1072.224, 2349.682
1073.326, 2321.680
1074.427, 2500.707
1075.528, 2286.766
1076.629, 2610.178
1077.730, 2494.299
1078.831, 2381.510
1079.931, 2513.705
1081.032, 2150.801
1082.132, 2438.604
1083.232, 1968.928
1084.332, 2258.281
1085.432, 1896.170
1086.531, 2020.945
1087.631, 1927.549
1088.730, 1769.195
1089.829, 1843.324
1090.928, 1443.146
1092.027, 1601.840
1093.126, 1443.959
1094.224, 1335.055
1095.323, 1362.184
1096.421, 1189.424
1097.519, 1349.742
1098.617, 955.1406
1099.715, 1224.629
1100.812, 992.4844
1101.910, 868.1602
1103.007, 744.1602
1104.104, 828.0039
1105.201, 949.9219
1106.298, 865.6699
1107.394, 539.7070
1108.491, 707.3672
1109.587, 446.5625
1110.683, 812.0293
1111.779, 540.8086
1112.875, 748.1191
1113.971, 652.6055
1115.066, 425.1699
1116.162, 503.7578
1117.257, 577.3965
1118.352, 698.1992
1119.447, 760.9727
1120.542, 469.7656
1121.636, 522.5957
1122.731, 364.4434
1123.825, 345.3184
1124.919, 422.2148
1126.013, 540.2930
1127.107, 384.2266
1128.200, 399.3359
1129.294, 415.8633
1130.387, 293.2773
1131.480, 381.3223
1132.573, 244.3535
1133.666, 96.40430
1134.759, 314.4746
1135.851, 46.56055
1136.944, 201.6641
1138.036, 404.0254
1139.128, 143.1641
1140.220, 350.3203
1141.312, 93.98242
1142.403, 109.4570
1143.495, 174.5996
1144.586, 257.8242
1145.677, 372.0645
1146.768, 126.3223
1147.859, 173.5957
1148.950, 246.8789
1150.040, 31.17969
1151.130, 171.1934
1152.221, 143.3496
1153.311, 345.1621
1154.401, 73.51758
1155.490, 290.8887
1156.580, 11.73047
1157.669, 35.66211
1158.759, 320.0664
1159.848, 161.5156
1160.937, 38.09180
1162.025, 82.33789
1163.114, 102.2227
1164.202, 220.1934
1165.291, 152.6484
1166.379, 319.1133
1167.467, 178.5898
1168.555, 170.8496
1169.642, 16.61719
1170.730, 97.12891
1171.817, 102.2910
1172.905, 33.79883
1173.992, 148.3086
1175.078, 47.86914
1176.165, 85.43750
1177.252, 65.03320
1178.338, 135.3574
1179.425, 109.7559
1180.511, 84.16016
1181.597, 226.5703
1182.682, 15.99023
1183.768, 113.4121
1184.854, 128.8418
1185.939, 83.59180
1187.024, 59.81445
1188.109, 68.22461
1189.194, 12.64062
1190.279, 96.05859
1191.363, 74.48438
1192.448, 3.087891
1193.532, 51.34180
1194.616, 28.77344
1195.700, 17.79102
1196.784, 50.94531
1197.867, 602.3789
1198.951, 21.81445
1200.034, 384.2500
1201.117, 539.6895
1202.200, 124.1309
1203.283, 274.6680
1204.366, 154.1113
1205.448, 74.55664
1206.531, 133.9980
1207.613, 117.3730
1208.695, 111.2559
1209.777, 186.0527
1210.859, 102.7949
1211.940, 287.5215
1213.022, 112.5625
1214.103, 30.64453
1215.184, 90.06836
1216.265, 86.50781
1217.346, 21.24805
1218.427, 48.91406
1219.507, 67.13672
1220.587, 63.89258
1221.668, 97.47656
1222.748, 39.05273
1223.828, 214.8926
1224.907, 17.45117
1225.987, 133.2520
1227.066, 148.0449
1228.146, 373.8301
1229.225, 726.6035
1230.304, 42.45508
1231.382, 187.2070
1232.461, 30.04883
1233.540, 154.6445
1234.618, 265.3281
1235.696, 99.00391
1236.774, 112.5781
1237.852, 42.14844
1238.930, 236.6973
1240.007, 61.23438
1241.085, 25.24609
1242.162, 38.21875
1243.239, 240.6602
1244.316, 119.8945
1245.393, 384.3047
1246.469, 634.6992
1247.546, 87.07812
1248.622, 130.4395
1249.698, 490.7832
1250.774, 105.1055
1251.850, 207.4141
1252.926, 420.7031
1254.001, 246.9727
1255.077, 91.22461
1256.152, 156.2031
1257.227, 95.92578
1258.302, 129.5801
1259.377, 151.7520
1260.451, 199.9062
1261.526, 177.0410
1262.600, 166.1543
1263.674, 372.2480
1264.748, 258.3203
1265.822, 391.3730
1266.896, 107.4062
1267.969, 171.8145
1269.043, 538.8008
1270.116, 32.76953
1271.189, 111.7871
1272.262, 25.68555
1273.335, 353.6797
1274.407, 206.5078
1275.480, 196.3145
1276.552, 301.0977
1277.624, 305.8555
1278.696, 260.5938
1279.768, 733.3105
1280.840, 180.0117
1281.911, 582.6914
1282.982, 294.4004
1284.054, 460.4492
1285.125, 377.0586
1286.196, 434.4727
1287.266, 444.0312
1288.337, 438.6172
1289.407, 222.7656
1290.478, 388.8301
1291.548, 219.2949
1292.618, 205.2148
1293.688, 500.4492
1294.757, 312.8066
1295.827, 771.9062
1296.896, 296.4102
1297.965, 69.72656
1299.034, 204.9961
1300.103, 189.5508
1301.172, 338.7500
1302.241, 476.0996
1303.309, 361.4473
1304.377, 295.1562
1305.445, 431.9258
1306.513, 312.7012
1307.581, 433.7676
1308.649, 328.8105
1309.716, 418.8281
1310.784, 261.8184
1311.851, 256.7812
1312.918, 211.7207
1313.985, 179.6367
1315.052, 384.7109
1316.118, 267.5742
1317.185, 565.4102
1318.251, 256.2246
1319.317, 492.0117
1320.383, 339.7793
1321.449, 256.3379
1322.514, 604.0527
1323.580, 307.7422
1324.645, 94.63477
1325.711, 547.2754
1326.776, 271.8906
1327.840, 477.4824
1328.905, 415.2441
1329.970, 270.6016
1331.034, 205.0957
1332.099, 406.5820
1333.163, 305.0000
1334.227, 502.3594
1335.290, 457.3184
1336.354, 411.5664
1337.418, 319.7266
1338.481, 31.56641
1339.544, 208.3398
1340.607, 325.5430
1341.670, 356.1875
1342.733, 32.83008
1343.795, 113.5254
1344.858, 42.84766
1345.920, 30.50977
1346.982, 198.4727
1348.044, 135.1191
1349.106, 89.57617
1350.168, 85.73242
1351.229, 196.7949
1352.291, 83.01172
1353.352, 34.22266
1354.413, 323.1934
1355.474, 320.8750
1356.534, 466.5371
1357.595, 170.1777
1358.656, 275.5176
1359.716, 253.1113
1360.776, 215.4473
1361.836, 241.9922
1362.896, 308.5176
1363.955, 184.2695
1365.015, 455.7539
1366.074, 190.6309
1367.134, 223.0723
1368.193, 492.2852
1369.252, 214.1660
1370.310, 390.9609
1371.369, 69.18750
1372.427, 404.3828
1373.486, 406.9824
1374.544, 269.1230
1375.602, 284.1738
1376.660, 350.2715
1377.717, 210.3477
1378.775, 279.3984
1379.832, 264.4277
1380.889, 351.4395
1381.946, 356.4297
1383.003, 528.2344
1384.060, 256.1816
1385.117, 74.95117
1386.173, 376.1992
1387.230, 466.0762
1388.286, 325.9336
1389.342, 645.7676
1390.398, 249.5801
1391.453, 244.3730
1392.509, 275.1465
1393.564, 286.8984
1394.619, 105.3945
1395.675, 231.1074
1396.729, 338.7988
1397.784, 45.98828
1398.839, 384.3496
1399.893, 141.9668
1400.948, 398.4824
1402.002, 340.3340
1403.056, 245.4531
1404.110, 322.9043
1405.163, 191.3320
1406.217, 327.7383
1407.270, 217.4258
1408.324, 225.0488
1409.377, 163.4629
1410.430, 95.78125
1411.483, 301.0723
1412.535, 235.3477
1413.588, 228.6035
1414.640, 162.8438
1415.692, 170.5254
1416.744, 99.46289
1417.796, 258.3594
1418.848, 312.1875
1419.900, 53.62500
1420.951, 122.3789
1422.002, 81.26367
1423.053, 31.22656
1424.104, 283.4395
1425.155, 249.1133
1426.206, 100.1250
1427.256, 280.0586
1428.307, 279.9883
1429.357, 304.9082
1430.407, 337.8418
1431.457, 646.7734
1432.507, 427.7031
1433.556, 400.6309
1434.606, 443.1992
1435.655, 196.4512
1436.704, 441.3379
1437.753, 346.2148
1438.802, 461.0898
1439.851, 465.8340
1440.899, 436.1719
1441.948, 386.7695
1442.996, 437.6895
1444.044, 312.9453
1445.092, 386.8906
1446.140, 560.6406
1447.187, 427.6074
1448.235, 249.3867
1449.282, 386.8066
1450.329, 379.5098
1451.376, 528.1699
1452.423, 163.6973
1453.470, 332.2793
1454.517, 332.8633
1455.563, 181.4863
1456.609, 328.7090
1457.655, 147.4668
1458.701, 437.8008
1459.747, 433.2168
1460.793, 269.2852
1461.838, 358.2305
1462.884, 315.8047
1463.929, 75.10547
1464.974, 325.5547
1466.019, 198.8789
1467.064, 454.2969
1468.108, 390.7148
1469.153, 438.1914
1470.197, 295.6562
1471.241, 231.1211
1472.285, 230.5820
1473.329, 343.0234
1474.373, 19.44531
1475.416, 48.84766
1476.460, 91.76562
1477.503, 57.59375
1478.546, 6.937500
1479.589, 209.2891
1480.632, 308.5898
1481.674, 282.8711
1482.717, 316.1328
1483.759, 324.8203
1484.801, 161.0469
1485.843, 247.7070
1486.885, 190.7539
1487.927, 163.9961
1488.968, 176.2266
1490.010, 169.5234
1491.051, 419.5312
1492.092, 182.0469
1493.133, 308.1992
1494.174, 244.0312
1495.215, 11.28906
1496.255, 234.5156
1497.296, 309.0273
1498.336, 2.699219
1499.376, 175.8086
1500.416, 179.4180
1501.456, 313.0117
1502.495, 355.5938
1503.535, 245.1562
1504.574, 338.0352
1505.613, 236.2383
1506.652, 322.7500
1507.691, 424.2461
1508.730, 338.7148
1509.768, 81.14844
1510.807, 5.074219
1511.845, 273.7500
1512.883, 431.3984
1513.921, 483.9375
1514.959, 116.8906
1515.996, 291.8906
1517.034, 250.0781
1518.071, 198.8750
1519.109, 450.5000
1520.146, 144.9492
1521.183, 391.6875
1522.219, 417.8945
1523.256, 543.4531
1524.292, 64.15625
1525.329, 421.6094
1526.365, 328.7109
1527.401, 50.74219
1528.437, 114.7227
1529.472, 337.6719
1530.508, 118.5508
1531.543, 55.64844
1532.579, 185.0898
1533.614, 28.87109
1534.649, 127.3477
1535.683, 289.3789
1536.718, 271.8125
1537.753, 251.5195
1538.787, 341.7930
1539.821, 188.2305
1540.855, 27.65625
1541.889, 233.6133
1542.923, 408.9609
1543.956, 91.30078
1544.990, 89.60156
1546.023, 28.85156
1547.056, 27.73828
1548.089, 297.2930
1549.122, 456.4297
1550.155, 510.5820
1551.187, 145.2031
1552.220, 305.3398
1553.252, 263.5820
1554.284, 213.5234
1555.316, 465.8125
1556.348, 160.4258
1557.379, 408.0156
1558.411, 435.2109
1559.442, 562.0977
1560.474, 471.7031
1561.505, 267.9102
1562.535, 137.7500
1563.566, 57.03516
1564.597, 334.9883
1565.627, 19.89453
1566.658, 393.3711
1567.688, 8.679688
1568.718, 250.0742
1569.748, 1.156250
1570.777, 0.0000000E+00
##END=



