##NAMES=Laverovite
##RRUFFID=R060216
##IDEAL CHEMISTRY=K_2_NaMn^2+^_7_Zr^4+^_2_(Si_4_O_12_)_2_O_2_(OH)_4_F
##LOCALITY=Desourdy Quarry, Mont Saint-Hilaire, Rouville County, Quebec, Canada
##OWNER=RRUFF
##SOURCE=Royal Ontario Museum
##DESCRIPTION=Brown fragment showing lamellar habit. Type sample
##STATUS=The identification of this mineral has been confirmed by X-ray diffraction and chemical analysis
##URL=rruff.info/R060216
##MEASURED CHEMISTRY=(K_1.74_Na_0.18_[box]_0.08_)_Σ=2_(Na_0.92_Ca_0.08_)_Σ=1_(Mn_4.09_Fe^2+^_2.67_Mg_0.24_)_Σ=7_(Zr_1.42_Ti_0.58_)_Σ=2_(Si_7.86_Al_0.14_)_Σ=8_O_26_((OH)_3.14_O_0.86_)_Σ=4_
##PIN_ID=L01980
##ORIENTATION=Laser parallel to (1 1 0). Fiducial mark perpendicular to laser is parallel to c [0 0 1]
159.7350, 0.0000000E+00
160.9660, 526.5430
162.1970, 1340.900
163.4270, 2255.752
164.6580, 3068.840
165.8880, 4054.707
167.1180, 3672.811
168.3480, 3718.445
169.5780, 3971.869
170.8080, 4133.088
172.0370, 3189.535
173.2670, 2375.637
174.4960, 2308.818
175.7250, 2368.553
176.9540, 1636.574
178.1820, 1618.375
179.4110, 970.7402
180.6390, 673.5977
181.8670, 327.7773
183.0950, 214.0879
184.3230, 601.3496
185.5500, 1028.387
186.7780, 233.0410
188.0050, 72.16602
189.2320, 272.3652
190.4590, 618.5156
191.6850, 43.91797
192.9120, 319.9199
194.1380, 484.1758
195.3650, 151.4434
196.5910, 247.7422
197.8160, 233.5000
199.0420, 203.3965
200.2680, 751.2598
201.4930, 237.0137
202.7180, 777.6211
203.9430, 898.3320
205.1680, 1212.281
206.3930, 1109.885
207.6170, 1136.730
208.8410, 1581.135
210.0660, 1795.090
211.2890, 1646.418
212.5130, 1975.352
213.7370, 1452.047
214.9600, 1677.111
216.1840, 2225.287
217.4070, 2099.068
218.6300, 2370.922
219.8520, 2843.207
221.0750, 2944.633
222.2970, 3042.166
223.5200, 3270.781
224.7420, 3900.457
225.9640, 4404.168
227.1850, 4531.895
228.4070, 4723.613
229.6280, 4923.332
230.8490, 5098.238
232.0700, 5360.570
233.2910, 5574.439
234.5120, 5764.773
235.7320, 5983.598
236.9530, 6109.801
238.1730, 6139.076
239.3930, 6216.195
240.6130, 5977.822
241.8320, 6056.465
243.0520, 6179.016
244.2710, 5897.340
245.4900, 5461.928
246.7090, 5809.549
247.9280, 5944.980
249.1470, 5879.002
250.3650, 5012.174
251.5840, 5178.873
252.8020, 4931.148
254.0200, 4666.258
255.2370, 4978.266
256.4550, 4226.889
257.6720, 4529.500
258.8900, 4411.133
260.1070, 4485.418
261.3240, 4142.748
262.5400, 3928.863
263.7570, 4131.791
264.9730, 4103.793
266.1900, 3712.564
267.4060, 3798.484
268.6220, 3031.695
269.8370, 3013.137
271.0530, 3317.066
272.2680, 2946.385
273.4830, 2455.123
274.6980, 2440.441
275.9130, 2372.541
277.1280, 2237.396
278.3420, 2105.998
279.5570, 2048.334
280.7710, 1928.412
281.9850, 1866.229
283.1990, 2502.781
284.4120, 2570.074
285.6260, 2520.107
286.8390, 2408.883
288.0520, 2309.398
289.2650, 2529.654
290.4780, 2641.656
291.6910, 2845.398
292.9030, 2845.885
294.1160, 3081.510
295.3280, 3154.797
296.5400, 3344.826
297.7510, 3338.301
298.9630, 3183.859
300.1740, 3220.121
301.3860, 3212.719
302.5970, 3332.100
303.8080, 2981.422
305.0180, 3087.283
306.2290, 2974.312
307.4390, 2913.975
308.6500, 2886.027
309.8600, 2794.084
311.0700, 2700.746
312.2790, 2626.297
313.4890, 2219.283
314.6980, 2515.367
315.9080, 2457.336
317.1170, 2256.953
318.3250, 2500.869
319.5340, 2436.119
320.7430, 2603.828
321.9510, 2589.490
323.1590, 2575.943
324.3670, 2706.303
325.5750, 2878.215
326.7830, 2852.918
327.9900, 2976.668
329.1980, 3262.838
330.4050, 3337.598
331.6120, 3951.658
332.8190, 3752.031
334.0250, 4261.602
335.2320, 4535.592
336.4380, 4469.969
337.6440, 4943.402
338.8500, 5248.086
340.0560, 5496.586
341.2620, 5755.715
342.4670, 5980.271
343.6730, 6015.543
344.8780, 6323.156
346.0830, 6246.078
347.2870, 6454.680
348.4920, 6640.277
349.6970, 6496.498
350.9010, 6749.902
352.1050, 6736.352
353.3090, 6722.051
354.5130, 6998.797
355.7160, 6827.508
356.9200, 7004.113
358.1230, 6887.016
359.3260, 7139.926
360.5290, 7107.326
361.7320, 7448.062
362.9340, 7305.102
364.1370, 7279.936
365.3390, 7035.361
366.5410, 7101.244
367.7430, 6885.613
368.9450, 6956.457
370.1460, 6730.484
371.3480, 6650.203
372.5490, 6705.139
373.7500, 6487.939
374.9510, 6516.221
376.1520, 6378.959
377.3520, 6270.512
378.5520, 5971.014
379.7530, 5974.684
380.9530, 5884.732
382.1530, 5565.688
383.3520, 5498.137
384.5520, 5538.754
385.7510, 5287.420
386.9500, 4842.953
388.1490, 5142.979
389.3480, 4822.254
390.5470, 4838.088
391.7450, 4734.799
392.9440, 4664.721
394.1420, 4506.453
395.3400, 4290.127
396.5380, 4407.508
397.7350, 4255.709
398.9330, 4071.734
400.1300, 4151.584
401.3270, 4173.262
402.5240, 4056.900
403.7210, 3865.080
404.9180, 3872.232
406.1140, 3790.205
407.3110, 3622.004
408.5070, 3612.631
409.7030, 3587.084
410.8990, 3830.365
412.0940, 3934.475
413.2900, 3983.412
414.4850, 4027.182
415.6800, 4154.783
416.8750, 4178.215
418.0700, 4231.482
419.2650, 4293.582
420.4590, 4355.516
421.6530, 4308.287
422.8470, 4140.898
424.0410, 3943.348
425.2350, 3535.637
426.4290, 3190.770
427.6220, 2992.742
428.8160, 2838.561
430.0090, 2393.223
431.2020, 2165.730
432.3940, 1773.086
433.5870, 1362.287
434.7790, 1156.336
435.9720, 862.2324
437.1640, 229.2188
438.3560, 581.2305
439.5470, 721.3789
440.7390, 660.8242
441.9300, 200.5195
443.1220, 28.25977
444.3130, 270.5078
445.5040, 530.0547
446.6940, 506.4121
447.8850, 460.3789
449.0750, 404.0469
450.2660, 521.2070
451.4560, 632.9238
452.6460, 91.25781
453.8350, 375.7871
455.0250, 299.7305
456.2140, 504.6738
457.4040, 373.8145
458.5930, 429.4316
459.7820, 320.5488
460.9700, 301.1055
462.1590, 195.0898
463.3470, 124.1055
464.5350, 67.87305
465.7240, 9.974609
466.9110, 58.82812
468.0990, 68.46484
469.2870, 295.8906
470.4740, 381.1387
471.6610, 404.2168
472.8480, 401.2344
474.0350, 229.8652
475.2220, 271.4219
476.4090, 246.8027
477.5950, 271.0078
478.7810, 315.1289
479.9670, 249.2520
481.1530, 330.2227
482.3390, 349.0215
483.5240, 338.6504
484.7100, 304.1602
485.8950, 338.8633
487.0800, 266.6641
488.2650, 372.6582
489.4490, 234.4863
490.6340, 217.1445
491.8180, 124.6250
493.0030, 202.9297
494.1870, 179.0605
495.3700, 0.9824220
496.5540, 7.232422
497.7380, 87.31250
498.9210, 198.6777
500.1040, 73.12305
501.2870, 12.16016
502.4700, 139.3965
503.6530, 96.10352
504.8350, 2.429688
506.0180, 115.5723
507.2000, 4.455078
508.3820, 24.66797
509.5640, 24.92773
510.7450, 63.34766
511.9270, 20.60352
513.1080, 30.68750
514.2890, 308.6035
515.4700, 92.10938
516.6510, 143.9727
517.8320, 137.5762
519.0130, 55.35938
520.1930, 94.33008
521.3730, 0.5039060
522.5530, 211.1562
523.7330, 183.6680
524.9130, 57.96680
526.0920, 159.2227
527.2710, 12.73633
528.4510, 72.14844
529.6300, 138.8848
530.8080, 265.4805
531.9870, 315.9375
533.1660, 531.2617
534.3440, 427.4609
535.5220, 695.5332
536.7000, 620.4902
537.8780, 920.3418
539.0560, 975.0781
540.2330, 1287.715
541.4110, 1530.270
542.5880, 1773.766
543.7650, 2177.236
544.9420, 2758.676
546.1180, 3176.092
547.2950, 3730.572
548.4710, 4305.037
549.6470, 4658.535
550.8230, 5319.078
551.9990, 5917.668
553.1750, 6154.322
554.3500, 6550.053
555.5260, 6894.852
556.7010, 7155.707
557.8760, 7075.582
559.0510, 7033.484
560.2250, 6826.451
561.4000, 6684.438
562.5740, 6565.451
563.7480, 6264.896
564.9220, 5975.619
566.0960, 5659.736
567.2700, 5200.836
568.4430, 4831.906
569.6170, 4426.969
570.7900, 4341.980
571.9630, 4218.924
573.1360, 4346.787
574.3080, 4469.559
575.4810, 4104.240
576.6530, 3957.328
577.8250, 3690.242
578.9980, 4183.516
580.1690, 4468.074
581.3410, 4552.717
582.5130, 3836.277
583.6840, 4129.693
584.8550, 4019.523
586.0260, 3877.135
587.1970, 4295.359
588.3680, 3652.000
589.5380, 4065.463
590.7080, 4061.789
591.8790, 4243.373
593.0490, 4001.051
594.2190, 4021.533
595.3880, 4038.314
596.5580, 3701.965
597.7270, 3797.859
598.8960, 3685.086
600.0650, 3849.955
601.2340, 4004.797
602.4030, 3765.012
603.5710, 3801.043
604.7400, 3864.699
605.9080, 3948.889
607.0760, 4035.311
608.2440, 4324.471
609.4120, 4310.107
610.5790, 4240.959
611.7460, 4550.561
612.9140, 4538.340
614.0810, 4938.115
615.2480, 5039.566
616.4140, 5173.404
617.5810, 5688.078
618.7470, 5628.996
619.9130, 5767.328
621.0790, 5948.148
622.2450, 6294.689
623.4110, 6307.348
624.5770, 6343.977
625.7420, 7009.436
626.9070, 7308.100
628.0720, 7700.342
629.2370, 7857.184
630.4020, 8207.254
631.5660, 8662.234
632.7310, 9078.490
633.8950, 9557.459
635.0590, 10080.28
636.2230, 10655.74
637.3870, 11541.05
638.5500, 12201.28
639.7140, 13324.50
640.8770, 14379.31
642.0400, 15628.99
643.2030, 17051.07
644.3660, 18670.70
645.5280, 21269.26
646.6910, 23078.19
647.8530, 24285.76
649.0150, 26222.70
650.1770, 27691.14
651.3390, 29083.94
652.5000, 29221.43
653.6620, 29024.03
654.8230, 28636.44
655.9840, 26853.79
657.1450, 25332.54
658.3060, 23338.70
659.4660, 21627.71
660.6270, 19837.07
661.7870, 18075.89
662.9470, 16600.19
664.1070, 15744.43
665.2670, 14907.02
666.4260, 14281.28
667.5860, 14546.33
668.7450, 14385.35
669.9040, 14093.71
671.0630, 13497.67
672.2220, 13443.90
673.3800, 13750.10
674.5390, 13881.93
675.6970, 14354.80
676.8550, 14596.83
678.0130, 15059.63
679.1710, 15544.25
680.3290, 16046.86
681.4860, 16607.99
682.6430, 17127.44
683.8000, 17688.71
684.9570, 18009.48
686.1140, 18763.70
687.2710, 19336.70
688.4270, 19457.12
689.5840, 19792.91
690.7400, 20207.62
691.8960, 20923.39
693.0520, 20897.29
694.2070, 21098.36
695.3630, 21494.81
696.5180, 21544.06
697.6730, 21837.74
698.8280, 22057.89
699.9830, 22326.38
701.1380, 22071.93
702.2920, 22724.61
703.4470, 23010.61
704.6010, 22697.05
705.7550, 22847.86
706.9090, 23381.78
708.0620, 23334.92
709.2160, 23392.62
710.3690, 23561.09
711.5220, 23741.84
712.6750, 23612.19
713.8280, 23663.55
714.9810, 23488.91
716.1340, 23043.27
717.2860, 23024.65
718.4380, 22363.06
719.5900, 22170.48
720.7420, 21489.92
721.8940, 20857.37
723.0450, 20453.95
724.1970, 19664.61
725.3480, 19305.41
726.4990, 18584.42
727.6500, 18112.63
728.8010, 17537.38
729.9510, 17174.63
731.1020, 16314.42
732.2520, 15945.46
733.4020, 15239.59
734.5520, 14631.89
735.7020, 14289.34
736.8510, 13634.99
738.0010, 13196.81
739.1500, 12871.82
740.2990, 12466.98
741.4480, 12120.90
742.5970, 11686.72
743.7450, 11496.25
744.8940, 11214.83
746.0420, 11028.48
747.1900, 10676.18
748.3380, 10637.31
749.4860, 10046.93
750.6330, 10346.50
751.7810, 10434.11
752.9280, 10321.48
754.0750, 9408.133
755.2220, 9528.832
756.3690, 9235.168
757.5160, 8924.568
758.6620, 9191.053
759.8090, 8394.344
760.9550, 8651.754
762.1010, 8488.488
763.2470, 8517.805
764.3920, 8130.369
765.5380, 7871.598
766.6830, 8030.090
767.8280, 7957.684
768.9730, 7522.385
770.1180, 7564.330
771.2630, 6753.729
772.4070, 6691.473
773.5520, 6951.881
774.6960, 6537.926
775.8400, 6587.867
776.9840, 6461.201
778.1280, 5531.746
779.2710, 5998.723
780.4140, 5358.004
781.5580, 5443.926
782.7010, 5209.891
783.8440, 5011.900
784.9860, 5150.955
786.1290, 4629.062
787.2710, 4595.223
788.4140, 4481.426
789.5560, 4205.672
790.6980, 4167.965
791.8390, 3681.303
792.9810, 3708.678
794.1220, 3302.092
795.2640, 3066.547
796.4050, 2674.080
797.5460, 2755.670
798.6860, 2477.326
799.8270, 2200.027
800.9680, 1875.768
802.1080, 1781.549
803.2480, 1548.383
804.3880, 1416.258
805.5280, 1186.178
806.6670, 941.1387
807.8070, 898.1387
808.9460, 714.1777
810.0850, 383.2500
811.2240, 413.3555
812.3630, 75.49609
813.5020, 8.664063
814.6400, 98.83398
815.7790, 8.033203
816.9170, 58.76367
818.0550, 176.5938
819.1930, 281.5059
820.3300, 260.5586
821.4680, 409.7402
822.6050, 383.1289
823.7430, 409.7168
824.8800, 478.5098
826.0170, 546.5527
827.1530, 511.8789
828.2900, 607.4688
829.4260, 624.3750
830.5620, 594.6074
831.6990, 552.1484
832.8340, 420.9766
833.9700, 411.6426
835.1060, 594.2832
836.2410, 376.8516
837.3760, 441.6133
838.5120, 539.6035
839.6470, 385.8711
840.7810, 409.3398
841.9160, 241.0156
843.0500, 190.8105
844.1850, 279.7012
845.3190, 114.7285
846.4530, 14.81445
847.5870, 42.09180
848.7200, 104.0117
849.8540, 163.9668
850.9870, 207.9551
852.1200, 463.9785
853.2530, 527.0371
854.3860, 630.1328
855.5190, 930.2617
856.6510, 1013.428
857.7840, 1222.811
858.9160, 1359.869
860.0480, 1572.143
861.1800, 1727.453
862.3110, 1862.799
863.4430, 2343.182
864.5740, 2310.598
865.7060, 2486.047
866.8370, 2988.529
867.9680, 3245.047
869.0980, 3536.604
870.2290, 3868.191
871.3590, 4224.830
872.4900, 4697.521
873.6200, 4919.242
874.7500, 5236.002
875.8790, 5676.793
877.0090, 5759.613
878.1380, 6099.463
879.2680, 6682.365
880.3970, 7108.307
881.5260, 7714.301
882.6550, 8007.670
883.7830, 8250.389
884.9120, 8582.482
886.0400, 8857.609
887.1680, 9128.773
888.2960, 9653.988
889.4240, 10056.27
890.5520, 10312.60
891.6790, 11041.03
892.8070, 11077.52
893.9340, 11841.07
895.0610, 12006.69
896.1880, 12943.38
897.3140, 13008.14
898.4410, 13542.00
899.5670, 14138.95
900.6940, 14596.16
901.8200, 15024.06
902.9450, 15782.20
904.0710, 16257.03
905.1970, 17108.64
906.3220, 17401.96
907.4470, 17991.32
908.5730, 18474.56
909.6980, 18907.20
910.8220, 19382.59
911.9470, 19898.30
913.0710, 20184.93
914.1960, 20560.62
915.3200, 20875.91
916.4440, 21304.11
917.5680, 21452.91
918.6910, 21692.79
919.8150, 21870.74
920.9380, 21793.73
922.0610, 21656.78
923.1840, 21981.86
924.3070, 21985.98
925.4300, 21750.16
926.5520, 22137.37
927.6750, 21412.61
928.7970, 21341.92
929.9190, 20955.27
931.0410, 21135.68
932.1630, 20584.17
933.2840, 20326.73
934.4060, 20154.34
935.5270, 19811.03
936.6480, 19430.75
937.7690, 19112.51
938.8900, 18878.68
940.0100, 18519.27
941.1310, 18426.06
942.2510, 17964.04
943.3710, 17623.04
944.4910, 17493.11
945.6110, 17340.22
946.7310, 17267.35
947.8500, 16794.52
948.9690, 16321.45
950.0890, 15806.67
951.2080, 15536.49
952.3260, 15014.02
953.4450, 14408.20
954.5640, 13263.13
955.6820, 12805.29
956.8000, 11799.02
957.9180, 10919.37
959.0360, 10008.98
960.1540, 9277.918
961.2710, 8869.188
962.3890, 7940.297
963.5060, 7391.402
964.6230, 6792.453
965.7400, 6169.391
966.8570, 5703.018
967.9730, 5256.887
969.0900, 4903.441
970.2060, 4556.564
971.3220, 4242.930
972.4380, 3898.289
973.5540, 3684.098
974.6700, 3446.666
975.7850, 3276.285
976.9010, 3245.744
978.0160, 3078.596
979.1310, 2987.312
980.2460, 2989.531
981.3600, 2911.691
982.4750, 3036.367
983.5890, 2931.145
984.7030, 3148.998
985.8170, 3292.922
986.9310, 3343.912
988.0450, 3307.975
989.1590, 3631.109
990.2720, 3737.314
991.3850, 3905.811
992.4980, 4271.932
993.6110, 4306.344
994.7240, 4434.824
995.8370, 4681.070
996.9490, 4857.988
998.0620, 5351.668
999.1740, 5672.441
1000.286, 6056.281
1001.398, 6567.188
1002.509, 6984.105
1003.621, 7463.141
1004.732, 7955.787
1005.843, 8447.020
1006.954, 8948.242
1008.065, 9692.584
1009.176, 10650.14
1010.286, 11264.55
1011.397, 12164.04
1012.507, 13433.34
1013.617, 13961.29
1014.727, 15323.99
1015.837, 16028.65
1016.946, 16827.44
1018.056, 17917.76
1019.165, 18832.37
1020.274, 19874.33
1021.383, 20863.23
1022.492, 21879.12
1023.601, 22697.13
1024.709, 23521.21
1025.817, 24175.66
1026.926, 24873.90
1028.034, 25368.26
1029.141, 25361.07
1030.249, 25571.48
1031.357, 25224.64
1032.464, 24770.93
1033.571, 24113.01
1034.678, 23539.64
1035.785, 22778.50
1036.892, 21523.21
1037.999, 20589.96
1039.105, 19416.50
1040.211, 18843.06
1041.317, 17268.20
1042.423, 15847.50
1043.529, 14962.53
1044.635, 14201.46
1045.740, 13078.58
1046.845, 12104.48
1047.951, 11180.65
1049.056, 10660.09
1050.160, 10060.52
1051.265, 9464.562
1052.370, 8742.191
1053.474, 8197.674
1054.578, 7866.797
1055.682, 7498.463
1056.786, 7291.180
1057.890, 6938.916
1058.993, 6581.291
1060.097, 6371.520
1061.200, 6118.352
1062.303, 6106.828
1063.406, 6068.254
1064.509, 5868.242
1065.612, 5554.523
1066.714, 5523.254
1067.816, 5444.238
1068.919, 5298.480
1070.021, 5228.730
1071.122, 5212.957
1072.224, 5314.770
1073.326, 5467.545
1074.427, 5274.086
1075.528, 5154.789
1076.629, 4910.340
1077.730, 5038.795
1078.831, 4680.074
1079.931, 4766.537
1081.032, 4755.756
1082.132, 4550.561
1083.232, 4487.279
1084.332, 4275.465
1085.432, 4143.844
1086.531, 3969.537
1087.631, 4133.215
1088.730, 3972.436
1089.829, 3788.369
1090.928, 3531.244
1092.027, 3471.938
1093.126, 3488.996
1094.224, 3244.367
1095.323, 3211.170
1096.421, 2926.709
1097.519, 2809.574
1098.617, 2846.480
1099.715, 2612.562
1100.812, 2313.777
1101.910, 2188.123
1103.007, 2070.000
1104.104, 1836.504
1105.201, 1797.850
1106.298, 1648.285
1107.394, 1516.748
1108.491, 1212.979
1109.587, 1196.955
1110.683, 1124.693
1111.779, 1105.523
1112.875, 833.4238
1113.971, 790.9531
1115.066, 736.5469
1116.162, 756.5742
1117.257, 701.0195
1118.352, 660.6426
1119.447, 644.4863
1120.542, 633.3301
1121.636, 626.4062
1122.731, 321.9473
1123.825, 522.0352
1124.919, 652.7793
1126.013, 391.2852
1127.107, 242.0312
1128.200, 212.9395
1129.294, 294.5098
1130.387, 73.86133
1131.480, 93.33203
1132.573, 278.4473
1133.666, 47.11719
1134.759, 170.2891
1135.851, 114.3164
1136.944, 122.9766
1138.036, 45.88477
1139.128, 45.54492
1140.220, 6.587891
1141.312, 26.04688
1142.403, 119.1191
1143.495, 121.4238
1144.586, 47.98242
1145.677, 120.3477
1146.768, 33.60352
1147.859, 144.6719
1148.950, 15.56055
1150.040, 48.60742
1151.130, 19.96680
1152.221, 100.5801
1153.311, 160.3184
1154.401, 50.43359
1155.490, 292.7285
1156.580, 61.30078
1157.669, 150.7871
1158.759, 132.9160
1159.848, 104.6445
1160.937, 206.3848
1162.025, 214.8613
1163.114, 181.3398
1164.202, 143.0938
1165.291, 132.5938
1166.379, 53.20898
1167.467, 95.90039
1168.555, 3.306641
1169.642, 118.5332
1170.730, 36.40039
1171.817, 74.33984
1172.905, 25.39062
1173.992, 66.77930
1175.078, 110.0430
1176.165, 17.57617
1177.252, 119.8594
1178.338, 144.6348
1179.425, 70.03516
1180.511, 7.392578
1181.597, 111.3125
1182.682, 133.8105
1183.768, 116.2129
1184.854, 72.80273
1185.939, 99.76172
1187.024, 13.41406
1188.109, 4.580078
1189.194, 59.83594
1190.279, 38.44727
1191.363, 21.40820
1192.448, 13.31250
1193.532, 26.17188
1194.616, 128.2656
1195.700, 35.15430
1196.784, 56.04395
1197.867, 105.6982
1198.951, 108.4775
1200.034, 75.34180
1201.117, 141.5684
1202.200, 78.85645
1203.283, 20.14844
1204.366, 86.49902
1205.448, 117.7109
1206.531, 51.09277
1207.613, 149.9336
1208.695, 197.4463
1209.777, 162.3740
1210.859, 230.4043
1211.940, 206.5098
1213.022, 129.9629
1214.103, 132.0107
1215.184, 253.6465
1216.265, 117.6963
1217.346, 232.5469
1218.427, 165.0029
1219.507, 235.3281
1220.587, 283.6631
1221.668, 169.1250
1222.748, 317.5283
1223.828, 150.7422
1224.907, 97.82617
1225.987, 168.0186
1227.066, 113.3223
1228.146, 552.9102
1229.225, 383.4590
1230.304, 684.4014
1231.382, 375.2021
1232.461, 60.29102
1233.540, 200.8848
1234.618, 236.3213
1235.696, 117.6934
1236.774, 279.9346
1237.852, 369.1025
1238.930, 231.6748
1240.007, 96.06055
1241.085, 292.0791
1242.162, 290.2666
1243.239, 211.0264
1244.316, 377.7041
1245.393, 181.7539
1246.469, 216.2686
1247.546, 428.7002
1248.622, 208.0801
1249.698, 210.3525
1250.774, 293.5371
1251.850, 238.2520
1252.926, 294.5957
1254.001, 225.5674
1255.077, 485.6182
1256.152, 228.3965
1257.227, 340.0879
1258.302, 421.7002
1259.377, 63.23633
1260.451, 254.6436
1261.526, 296.9697
1262.600, 564.2637
1263.674, 862.9766
1264.748, 516.6738
1265.822, 562.9688
1266.896, 315.3936
1267.969, 234.7617
1269.043, 294.4795
1270.116, 358.3721
1271.189, 279.3340
1272.262, 395.8604
1273.335, 380.0518
1274.407, 326.0791
1275.480, 290.4785
1276.552, 383.8262
1277.624, 282.9600
1278.696, 450.5439
1279.768, 296.8262
1280.840, 315.7246
1281.911, 340.8711
1282.982, 397.8086
1284.054, 240.2236
1285.125, 550.7236
1286.196, 398.0459
1287.266, 278.5801
1288.337, 390.9893
1289.407, 366.8955
1290.478, 258.1729
1291.548, 196.6797
1292.618, 286.0488
1293.688, 588.5898
1294.757, 461.5674
1295.827, 408.3477
1296.896, 628.2314
1297.965, 361.0781
1299.034, 365.1162
1300.103, 414.1055
1301.172, 338.5039
1302.241, 472.7285
1303.309, 390.1934
1304.377, 433.7432
1305.445, 589.0918
1306.513, 313.6436
1307.581, 586.9023
1308.649, 347.8838
1309.716, 381.8418
1310.784, 239.1562
1311.851, 429.8672
1312.918, 363.7021
1313.985, 141.8691
1315.052, 314.4629
1316.118, 240.9863
1317.185, 157.4551
1318.251, 514.2598
1319.317, 156.1777
1320.383, 141.4668
1321.449, 226.0723
1322.514, 72.69531
1323.580, 325.7344
1324.645, 244.4473
1325.711, 152.6836
1326.776, 148.6387
1327.840, 210.1777
1328.905, 108.9453
1329.970, 281.5762
1331.034, 108.5781
1332.099, 395.5664
1333.163, 603.7598
1334.227, 220.7598
1335.290, 280.8809
1336.354, 94.06250
1337.418, 220.3906
1338.481, 183.5020
1339.544, 33.17383
1340.607, 73.03906
1341.670, 137.3164
1342.733, 324.5996
1343.795, 90.69531
1344.858, 155.5000
1345.920, 237.3691
1346.982, 30.74805
1348.044, 270.4980
1349.106, 173.3379
1350.168, 4.451172
1351.229, 201.2988
1352.291, 239.9551
1353.352, 166.3008
1354.413, 122.0488
1355.474, 45.61914
1356.534, 56.27930
1357.595, 126.8965
1358.656, 172.4688
1359.716, 86.99414
1360.776, 176.1230
1361.836, 194.6543
1362.896, 191.1914
1363.955, 226.4062
1365.015, 231.3262
1366.074, 82.56836
1367.134, 108.1016
1368.193, 167.9004
1369.252, 108.6602
1370.310, 198.3613
1371.369, 216.4199
1372.427, 82.39062
1373.486, 188.8906
1374.544, 310.8164
1375.602, 152.2285
1376.660, 203.3438
1377.717, 228.8809
1378.775, 35.14844
1379.832, 102.9141
1380.889, 171.0938
1381.946, 130.5801
1383.003, 205.2637
1384.060, 236.6719
1385.117, 242.8730
1386.173, 259.9961
1387.230, 210.0664
1388.286, 239.8066
1389.342, 151.6484
1390.398, 145.1309
1391.453, 155.5938
1392.509, 288.0312
1393.564, 66.46484
1394.619, 36.31641
1395.675, 171.4199
1396.729, 61.08789
1397.784, 70.03906
1398.839, 169.5117
1399.893, 32.56250
1400.948, 188.5625
1402.002, 116.3242
1403.056, 130.9121
1404.110, 177.9258
1405.163, 233.4082
1406.217, 218.9668
1407.270, 233.3594
1408.324, 97.21484
1409.377, 158.0117
1410.430, 181.1055
1411.483, 44.32617
1412.535, 270.7109
1413.588, 130.9551
1414.640, 129.7637
1415.692, 209.0977
1416.744, 215.3730
1417.796, 213.2949
1418.848, 352.9004
1419.900, 272.1309
1420.951, 332.8105
1422.002, 271.2793
1423.053, 410.0234
1424.104, 565.8027
1425.155, 605.5938
1426.206, 395.0371
1427.256, 456.8906
1428.307, 410.7695
1429.357, 573.2285
1430.407, 466.1719
1431.457, 615.6797
1432.507, 657.7031
1433.556, 731.7285
1434.606, 731.8340
1435.655, 945.5312
1436.704, 645.2285
1437.753, 666.5254
1438.802, 803.1406
1439.851, 606.4570
1440.899, 596.9961
1441.948, 915.4766
1442.996, 950.2188
1444.044, 940.5098
1445.092, 1029.213
1446.140, 993.8477
1447.187, 1076.174
1448.235, 1049.025
1449.282, 1053.584
1450.329, 959.3281
1451.376, 1002.850
1452.423, 866.7812
1453.470, 754.8633
1454.517, 753.9629
1455.563, 791.5332
1456.609, 736.5059
1457.655, 767.4902
1458.701, 832.9023
1459.747, 600.5977
1460.793, 667.5293
1461.838, 576.9219
1462.884, 678.7715
1463.929, 752.0508
1464.974, 621.3730
1466.019, 688.7012
1467.064, 642.8750
1468.108, 622.7051
1469.153, 660.6367
1470.197, 572.5254
1471.241, 543.9141
1472.285, 454.8613
1473.329, 577.2559
1474.373, 485.6914
1475.416, 483.5547
1476.460, 514.2188
1477.503, 478.0625
1478.546, 497.7012
1479.589, 528.6152
1480.632, 383.6094
1481.674, 511.4492
1482.717, 408.4316
1483.759, 310.1973
1484.801, 385.6875
1485.843, 402.2539
1486.885, 364.6211
1487.927, 378.7539
1488.968, 443.5723
1490.010, 360.7480
1491.051, 317.6602
1492.092, 377.2734
1493.133, 396.4863
1494.174, 383.7227
1495.215, 315.0332
1496.255, 375.3828
1497.296, 326.6797
1498.336, 447.9141
1499.376, 242.1465
1500.416, 310.3711
1501.456, 326.5898
1502.495, 234.7578
1503.535, 224.9199
1504.574, 380.0859
1505.613, 438.2656
1506.652, 378.4688
1507.691, 457.6484
1508.730, 254.9766
1509.768, 418.3125
1510.807, 276.7070
1511.845, 135.1328
1512.883, 86.58398
1513.921, 324.0449
1514.959, 372.6426
1515.996, 409.3262
1517.034, 305.0684
1518.071, 330.8574
1519.109, 284.7168
1520.146, 347.6289
1521.183, 259.5859
1522.219, 280.5957
1523.256, 311.7871
1524.292, 236.1699
1525.329, 236.6309
1526.365, 372.1504
1527.401, 314.7344
1528.437, 461.4219
1529.472, 439.2070
1530.508, 94.07617
1531.543, 245.0293
1532.579, 357.0762
1533.614, 535.2090
1534.649, 236.4297
1535.683, 385.7441
1536.718, 213.1680
1537.753, 423.7109
1538.787, 395.3887
1539.821, 244.2090
1540.855, 404.1797
1541.889, 374.2852
1542.923, 373.6582
1543.956, 493.1074
1544.990, 306.7422
1546.023, 128.7949
1547.056, 367.9082
1548.089, 653.0332
1549.122, 737.9297
1550.155, 22.32812
1551.187, 339.0957
1552.220, 243.5391
1553.252, 131.2637
1554.284, 596.2129
1555.316, 1.566406
1556.348, 454.9492
1557.379, 491.1816
1558.411, 720.4668
1559.442, 432.0000
1560.474, 364.5059
1561.505, 692.5078
1562.535, 797.4004
1563.566, 486.8574
1564.597, 694.8867
1565.627, 47.02734
1566.658, 289.5312
1567.688, 267.5762
1568.718, 207.6445
1569.748, 1.103516
1570.777, 0.0000000E+00
##END=



