##NAMES=Laverovite
##RRUFFID=R060216
##IDEAL CHEMISTRY=K_2_NaMn^2+^_7_Zr^4+^_2_(Si_4_O_12_)_2_O_2_(OH)_4_F
##LOCALITY=Desourdy Quarry, Mont Saint-Hilaire, Rouville County, Quebec, Canada
##OWNER=RRUFF
##SOURCE=Royal Ontario Museum
##DESCRIPTION=Brown fragment showing lamellar habit. Type sample
##STATUS=The identification of this mineral has been confirmed by X-ray diffraction and chemical analysis
##URL=rruff.info/R060216
##MEASURED CHEMISTRY=(K_1.74_Na_0.18_[box]_0.08_)_Σ=2_(Na_0.92_Ca_0.08_)_Σ=1_(Mn_4.09_Fe^2+^_2.67_Mg_0.24_)_Σ=7_(Zr_1.42_Ti_0.58_)_Σ=2_(Si_7.86_Al_0.14_)_Σ=8_O_26_((OH)_3.14_O_0.86_)_Σ=4_
##PIN_ID=L01980
##ORIENTATION=Laser parallel to (1 1 0). Fiducial mark perpendicular to laser is parallel to c [0 0 1]
117.7770, 0.0000000E+00
119.0130, 273.8730
120.2500, 26.45508
121.4870, 673.8887
122.7230, 596.9043
123.9590, 1011.469
125.1950, 1718.764
126.4310, 2106.178
127.6670, 2960.750
128.9030, 4166.135
130.1380, 4876.457
131.3730, 5327.203
132.6080, 5640.045
133.8430, 6211.533
135.0780, 7585.500
136.3120, 9158.688
137.5470, 11220.08
138.7810, 13729.31
140.0150, 15604.73
141.2480, 16431.43
142.4820, 17112.27
143.7160, 16988.98
144.9490, 16266.17
146.1820, 14002.30
147.4150, 11260.72
148.6480, 8727.424
149.8800, 6704.232
151.1130, 6322.314
152.3450, 5220.354
153.5770, 3874.375
154.8090, 2877.596
156.0410, 1695.852
157.2720, 1346.047
158.5040, 1055.131
159.7350, 1189.045
160.9660, 1733.748
162.1970, 2212.191
163.4270, 2912.357
164.6580, 3148.248
165.8880, 3974.105
167.1180, 3712.863
168.3480, 3616.594
169.5780, 3941.275
170.8080, 3744.832
172.0370, 3060.137
173.2670, 2230.092
174.4960, 1841.639
175.7250, 1073.729
176.9540, 804.3223
178.1820, 373.8848
179.4110, 141.8828
180.6390, 241.2266
181.8670, 464.9746
183.0950, 668.3926
184.3230, 481.5156
185.5500, 272.3633
186.7780, 73.96680
188.0050, 343.3496
189.2320, 113.5352
190.4590, 180.4531
191.6850, 308.6172
192.9120, 755.8867
194.1380, 1232.295
195.3650, 1906.904
196.5910, 1944.723
197.8160, 2211.748
199.0420, 2667.975
200.2680, 3702.391
201.4930, 4775.977
202.7180, 5252.711
203.9430, 3714.584
205.1680, 2184.609
206.3930, 1675.838
207.6170, 1613.457
208.8410, 2019.943
210.0660, 2361.545
211.2890, 2893.453
212.5130, 3830.889
213.7370, 4550.863
214.9600, 5144.199
216.1840, 5528.602
217.4070, 5753.781
218.6300, 6361.533
219.8520, 6463.551
221.0750, 6744.496
222.2970, 6897.273
223.5200, 7400.465
224.7420, 7817.598
225.9640, 7678.133
227.1850, 8573.168
228.4070, 8397.031
229.6280, 9215.762
230.8490, 9209.373
232.0700, 9650.918
233.2910, 9760.373
234.5120, 9860.688
235.7320, 10043.88
236.9530, 10309.96
238.1730, 10198.97
239.3930, 10249.31
240.6130, 9969.574
241.8320, 9980.146
243.0520, 9695.559
244.2710, 9348.812
245.4900, 9364.898
246.7090, 8927.816
247.9280, 8997.564
249.1470, 8268.078
250.3650, 8537.059
251.5840, 8558.531
252.8020, 8346.305
254.0200, 7199.859
255.2370, 7259.670
256.4550, 6835.643
257.6720, 6391.887
258.8900, 6620.586
260.1070, 5609.326
261.3240, 5827.197
262.5400, 5554.396
263.7570, 5505.711
264.9730, 4975.133
266.1900, 4589.893
267.4060, 4689.242
268.6220, 4523.859
269.8370, 3935.910
271.0530, 3904.646
272.2680, 2879.410
273.4830, 2727.018
274.6980, 2468.301
275.9130, 2321.051
277.1280, 1887.799
278.3420, 1856.531
279.5570, 1574.236
280.7710, 1220.871
281.9850, 1172.283
283.1990, 1100.449
284.4120, 1099.402
285.6260, 1305.178
286.8390, 1321.797
288.0520, 1517.279
289.2650, 1471.641
290.4780, 1800.385
291.6910, 1751.961
292.9030, 2001.520
294.1160, 2012.748
295.3280, 2422.941
296.5400, 2747.699
297.7510, 2527.432
298.9630, 2950.955
300.1740, 2923.920
301.3860, 3232.016
302.5970, 3145.434
303.8080, 3255.877
305.0180, 3536.033
306.2290, 3437.184
307.4390, 3683.766
308.6500, 3777.771
309.8600, 3690.094
311.0700, 3761.672
312.2790, 3882.094
313.4890, 3623.281
314.6980, 3689.682
315.9080, 3603.332
317.1170, 3600.191
318.3250, 3705.312
319.5340, 3654.885
320.7430, 3600.213
321.9510, 3794.549
323.1590, 3773.014
324.3670, 3855.842
325.5750, 3897.008
326.7830, 3876.379
327.9900, 4176.408
329.1980, 3778.336
330.4050, 4238.027
331.6120, 4338.010
332.8190, 4259.537
334.0250, 4793.492
335.2320, 5160.891
336.4380, 5400.539
337.6440, 5850.621
338.8500, 5869.553
340.0560, 6334.432
341.2620, 6477.086
342.4670, 6903.398
343.6730, 6759.949
344.8780, 7045.508
346.0830, 6940.336
347.2870, 7295.688
348.4920, 7298.539
349.6970, 7303.672
350.9010, 7210.287
352.1050, 7151.283
353.3090, 7373.125
354.5130, 7096.225
355.7160, 7182.662
356.9200, 7138.260
358.1230, 6933.514
359.3260, 6939.850
360.5290, 7313.328
361.7320, 7163.219
362.9340, 6991.953
364.1370, 7033.074
365.3390, 6868.070
366.5410, 6691.852
367.7430, 6706.605
368.9450, 6530.066
370.1460, 6359.609
371.3480, 6507.156
372.5490, 6523.975
373.7500, 6304.143
374.9510, 6396.205
376.1520, 6302.676
377.3520, 6244.350
378.5520, 6534.297
379.7530, 6290.318
380.9530, 6370.996
382.1530, 6568.631
383.3520, 6466.707
384.5520, 6281.385
385.7510, 6307.963
386.9500, 6314.008
388.1490, 6274.971
389.3480, 6321.492
390.5470, 6400.082
391.7450, 5887.377
392.9440, 5672.006
394.1420, 5752.574
395.3400, 5521.131
396.5380, 5356.471
397.7350, 5326.113
398.9330, 5129.594
400.1300, 5059.920
401.3270, 4758.090
402.5240, 4467.100
403.7210, 4456.955
404.9180, 4010.656
406.1140, 4113.207
407.3110, 3628.602
408.5070, 3686.846
409.7030, 3437.926
410.8990, 3390.861
412.0940, 3333.666
413.2900, 3309.314
414.4850, 3192.805
415.6800, 3445.139
416.8750, 3337.309
418.0700, 3384.318
419.2650, 3317.168
420.4590, 3316.857
421.6530, 3295.383
422.8470, 3462.746
424.0410, 3126.953
425.2350, 2846.996
426.4290, 2915.881
427.6220, 2455.607
428.8160, 2360.176
430.0090, 1996.590
431.2020, 1720.844
432.3940, 1554.947
433.5870, 1329.889
434.7790, 866.6738
435.9720, 847.2793
437.1640, 373.7109
438.3560, 206.9395
439.5470, 71.05469
440.7390, 222.9238
441.9300, 356.0078
443.1220, 373.3477
444.3130, 536.0469
445.5040, 558.3184
446.6940, 576.1680
447.8850, 780.6094
449.0750, 766.7441
450.2660, 776.1270
451.4560, 785.6914
452.6460, 698.2891
453.8350, 642.1465
455.0250, 579.6172
456.2140, 420.6719
457.4040, 412.4043
458.5930, 357.1758
459.7820, 253.7695
460.9700, 310.6758
462.1590, 68.01172
463.3470, 5.648438
464.5350, 230.4473
465.7240, 317.6328
466.9110, 360.0449
468.0990, 444.6152
469.2870, 419.9922
470.4740, 340.2734
471.6610, 401.5176
472.8480, 423.7773
474.0350, 412.0098
475.2220, 416.1543
476.4090, 359.1641
477.5950, 376.0996
478.7810, 376.9082
479.9670, 372.8203
481.1530, 430.0254
482.3390, 410.3340
483.5240, 431.4727
484.7100, 480.4512
485.8950, 390.2656
487.0800, 71.15625
488.2650, 494.7383
489.4490, 813.3945
490.6340, 898.1035
491.8180, 48.60742
493.0030, 405.0664
494.1870, 278.0078
495.3700, 130.9629
496.5540, 656.6895
497.7380, 57.77539
498.9210, 456.9082
500.1040, 496.3887
501.2870, 432.9746
502.4700, 352.4102
503.6530, 444.6914
504.8350, 434.2520
506.0180, 530.8027
507.2000, 511.6387
508.3820, 512.3887
509.5640, 469.2461
510.7450, 490.2812
511.9270, 421.5430
513.1080, 611.6602
514.2890, 499.6426
515.4700, 606.4883
516.6510, 345.1973
517.8320, 199.7656
519.0130, 342.1875
520.1930, 229.4707
521.3730, 162.6113
522.5530, 197.6074
523.7330, 159.4648
524.9130, 245.1777
526.0920, 291.7539
527.2710, 266.7656
528.4510, 107.5020
529.6300, 318.6719
530.8080, 135.7090
531.9870, 310.6113
533.1660, 333.1270
534.3440, 444.0352
535.5220, 410.5879
536.7000, 604.0469
537.8780, 608.4395
539.0560, 983.7402
540.2330, 1037.000
541.4110, 1236.264
542.5880, 1550.494
543.7650, 1760.715
544.9420, 1917.916
546.1180, 2491.102
547.2950, 2694.320
548.4710, 3469.551
549.6470, 3881.803
550.8230, 4472.119
551.9990, 5153.510
553.1750, 5634.982
554.3500, 5981.516
555.5260, 6277.107
556.7010, 6621.096
557.8760, 7143.332
559.0510, 7063.992
560.2250, 7335.695
561.4000, 7306.488
562.5740, 6961.324
563.7480, 6720.230
564.9220, 6518.180
566.0960, 6218.191
567.2700, 5615.258
568.4430, 5372.312
569.6170, 5076.383
570.7900, 4728.426
571.9630, 4416.383
573.1360, 4146.256
574.3080, 3972.041
575.4810, 3695.252
576.6530, 3583.445
577.8250, 3641.480
578.9980, 3241.678
580.1690, 3224.723
581.3410, 3249.053
582.5130, 2998.848
583.6840, 3203.293
584.8550, 3429.670
586.0260, 3802.859
587.1970, 3447.691
588.3680, 3581.457
589.5380, 3575.465
590.7080, 3958.430
591.8790, 3800.912
593.0490, 3907.920
594.2190, 3909.551
595.3880, 3741.867
596.5580, 4253.285
597.7270, 4010.865
598.8960, 3292.168
600.0650, 3499.148
601.2340, 3629.842
602.4030, 3613.195
603.5710, 3807.018
604.7400, 3561.000
605.9080, 3824.883
607.0760, 3843.557
608.2440, 3865.639
609.4120, 4023.340
610.5790, 4161.965
611.7460, 4261.057
612.9140, 4383.650
614.0810, 4484.359
615.2480, 4640.523
616.4140, 4757.766
617.5810, 4996.275
618.7470, 5258.877
619.9130, 5522.512
621.0790, 5891.148
622.2450, 5952.055
623.4110, 6345.643
624.5770, 6412.867
625.7420, 6937.064
626.9070, 7334.914
628.0720, 7533.648
629.2370, 7982.496
630.4020, 8321.711
631.5660, 8708.814
632.7310, 9016.523
633.8950, 9456.633
635.0590, 10118.25
636.2230, 10551.90
637.3870, 11157.17
638.5500, 11833.99
639.7140, 12713.50
640.8770, 13605.23
642.0400, 15062.73
643.2030, 16389.93
644.3660, 17739.56
645.5280, 19596.20
646.6910, 21250.28
647.8530, 23243.34
649.0150, 25208.43
650.1770, 26982.40
651.3390, 28470.49
652.5000, 29813.36
653.6620, 29834.06
654.8230, 29583.35
655.9840, 28548.13
657.1450, 27003.87
658.3060, 25841.05
659.4660, 23042.88
660.6270, 22859.29
661.7870, 21674.48
662.9470, 17285.87
664.1070, 16563.15
665.2670, 15032.85
666.4260, 14072.79
667.5860, 13654.70
668.7450, 13178.98
669.9040, 12975.22
671.0630, 12830.75
672.2220, 12717.06
673.3800, 12667.81
674.5390, 12968.58
675.6970, 13117.09
676.8550, 13433.02
678.0130, 13720.48
679.1710, 14148.24
680.3290, 14653.36
681.4860, 15038.71
682.6430, 15465.97
683.8000, 16065.11
684.9570, 16570.25
686.1140, 16948.58
687.2710, 17419.41
688.4270, 17737.24
689.5840, 18122.49
690.7400, 18650.37
691.8960, 19023.02
693.0520, 19377.49
694.2070, 19741.36
695.3630, 19960.15
696.5180, 20215.35
697.6730, 20145.61
698.8280, 20670.74
699.9830, 20550.61
701.1380, 20709.07
702.2920, 20908.85
703.4470, 21127.69
704.6010, 21260.22
705.7550, 21413.33
706.9090, 21681.27
708.0620, 21684.32
709.2160, 21726.39
710.3690, 21962.94
711.5220, 21805.63
712.6750, 21869.26
713.8280, 21799.67
714.9810, 21517.06
716.1340, 21345.45
717.2860, 21233.84
718.4380, 20843.23
719.5900, 20552.64
720.7420, 20094.12
721.8940, 19327.73
723.0450, 18987.50
724.1970, 18296.42
725.3480, 17772.53
726.4990, 17329.85
727.6500, 17065.39
728.8010, 16223.19
729.9510, 15757.54
731.1020, 14890.57
732.2520, 14486.15
733.4020, 13780.98
734.5520, 13182.03
735.7020, 12555.28
736.8510, 11944.70
738.0010, 11755.28
739.1500, 11256.01
740.2990, 11118.85
741.4480, 10510.83
742.5970, 10270.88
743.7450, 9734.975
744.8940, 9637.084
746.0420, 9465.203
747.1900, 9281.328
748.3380, 8945.455
749.4860, 8866.592
750.6330, 8938.734
751.7810, 8492.883
752.9280, 8561.033
754.0750, 8366.189
755.2220, 8251.348
756.3690, 8126.516
757.5160, 8148.686
758.6620, 7777.859
759.8090, 7755.039
760.9550, 7754.223
762.1010, 7470.412
763.2470, 7321.602
764.3920, 7199.797
765.5380, 6931.992
766.6830, 6748.355
767.8280, 6505.480
768.9730, 6202.723
770.1180, 5902.959
771.2630, 5469.211
772.4070, 5326.734
773.5520, 5083.822
774.6960, 4946.992
775.8400, 4768.258
776.9840, 4497.562
778.1280, 4320.867
779.2710, 4212.172
780.4140, 3901.480
781.5580, 3763.789
782.7010, 3730.102
783.8440, 3594.414
784.9860, 3361.727
786.1290, 3424.037
787.2710, 3221.348
788.4140, 3281.660
789.5560, 3178.973
790.6980, 2919.285
791.8390, 2876.594
792.9810, 2585.902
794.1220, 2465.779
795.2640, 2416.307
796.4050, 1970.828
797.5460, 2331.139
798.6860, 1706.416
799.8270, 1596.775
800.9680, 1398.100
802.1080, 1369.428
803.2480, 1261.754
804.3880, 950.0859
805.5280, 857.4160
806.6670, 587.7500
807.8070, 414.8262
808.9460, 395.4199
810.0850, 124.7539
811.2240, 31.91602
812.3630, 44.63867
813.5020, 104.4219
814.6400, 2.302734
815.7790, 183.2305
816.9170, 345.3008
818.0550, 202.6016
819.1930, 278.0566
820.3300, 241.7109
821.4680, 238.9766
822.6050, 447.5586
823.7430, 323.8633
824.8800, 386.3945
826.0170, 534.1855
827.1530, 558.3145
828.2900, 600.7949
829.4260, 500.6523
830.5620, 505.8340
831.6990, 280.3438
832.8340, 381.3496
833.9700, 397.3809
835.1060, 410.2930
836.2410, 596.8203
837.3760, 414.7266
838.5120, 530.9160
839.6470, 404.4473
840.7810, 479.2500
841.9160, 454.8418
843.0500, 185.7930
844.1850, 297.3789
845.3190, 139.1777
846.4530, 211.8867
847.5870, 168.6699
848.7200, 175.9844
849.8540, 379.0156
850.9870, 312.0410
852.1200, 457.0605
853.2530, 607.0723
854.3860, 706.0742
855.5190, 827.0742
856.6510, 1142.064
857.7840, 1082.049
858.9160, 1552.025
860.0480, 1515.996
861.1800, 1677.957
862.3110, 1976.912
863.4430, 2322.855
864.5740, 2429.789
865.7060, 2738.711
866.8370, 3051.621
867.9680, 3355.518
869.0980, 3700.398
870.2290, 4011.268
871.3590, 4272.119
872.4900, 4481.951
873.6200, 4818.781
874.7500, 5346.592
875.8790, 5428.387
877.0090, 5905.166
878.1380, 6148.926
879.2680, 6686.680
880.3970, 6993.414
881.5260, 7549.203
882.6550, 7783.018
883.7830, 8000.848
884.9120, 8234.719
886.0400, 8969.590
887.1680, 9233.441
888.2960, 9778.289
889.4240, 9990.113
890.5520, 10306.94
891.6790, 10866.74
892.8070, 11149.53
893.9340, 11558.33
895.0610, 12421.12
896.1880, 13354.90
897.3140, 14261.68
898.4410, 13831.52
899.5670, 14109.37
900.6940, 14473.23
901.8200, 15891.09
902.9450, 16767.93
904.0710, 16591.76
905.1970, 17046.58
906.3220, 17430.44
907.4470, 17854.72
908.5730, 18400.79
909.6980, 19034.14
910.8220, 19539.08
911.9470, 20057.02
913.0710, 20671.00
914.1960, 21155.99
915.3200, 21318.98
916.4440, 21880.98
917.5680, 21970.00
918.6910, 22054.00
919.8150, 22489.04
920.9380, 22476.85
922.0610, 23023.14
923.1840, 22811.23
924.3070, 22463.34
925.4300, 22863.47
926.5520, 22769.61
927.6750, 22361.76
928.7970, 22362.93
929.9190, 22040.09
931.0410, 22248.29
932.1630, 21524.53
933.2840, 21387.78
934.4060, 21046.03
935.5270, 20545.26
936.6480, 20383.51
937.7690, 20212.73
938.8900, 19872.97
940.0100, 19481.21
941.1310, 19409.46
942.2510, 20887.70
943.3710, 20317.94
944.4910, 20578.16
945.6110, 20020.10
946.7310, 17560.53
947.8500, 17335.16
948.9690, 17054.23
950.0890, 16665.86
951.2080, 16264.72
952.3260, 15602.08
953.4450, 14998.43
954.5640, 14066.93
955.6820, 13449.45
956.8000, 12515.99
957.9180, 11506.29
959.0360, 10708.29
960.1540, 10074.13
961.2710, 9026.676
962.3890, 8465.607
963.5060, 7974.777
964.6230, 7110.150
965.7400, 6425.139
966.8570, 5979.223
967.9730, 5468.914
969.0900, 5139.561
970.2060, 4721.365
971.3220, 4254.445
972.4380, 4030.941
973.5540, 3838.145
974.6700, 3616.295
975.7850, 3177.770
976.9010, 3287.816
978.0160, 3161.801
979.1310, 3341.828
980.2460, 3100.078
981.3600, 2896.434
982.4750, 2698.883
983.5890, 2864.410
984.7030, 2748.182
985.8170, 3118.984
986.9310, 2963.824
988.0450, 3233.695
989.1590, 3144.598
990.2720, 3178.537
991.3850, 3303.510
992.4980, 3419.402
993.6110, 3549.016
994.7240, 3747.646
995.8370, 3970.764
996.9490, 3978.918
998.0620, 4407.105
999.1740, 4695.332
1000.286, 4656.590
1001.398, 5288.885
1002.509, 5662.215
1003.621, 5938.574
1004.732, 7161.971
1005.843, 6765.396
1006.954, 7731.713
1008.065, 7936.207
1009.176, 8417.197
1010.286, 8849.762
1011.397, 9453.082
1012.507, 10125.02
1013.617, 10917.68
1014.727, 11611.95
1015.837, 12517.00
1016.946, 13242.78
1018.056, 13944.94
1019.165, 14763.00
1020.274, 15652.84
1021.383, 16417.15
1022.492, 16858.10
1023.601, 17438.31
1024.709, 18039.28
1025.817, 18647.46
1026.926, 19091.44
1028.034, 19801.81
1029.141, 19650.26
1030.249, 19953.46
1031.357, 19814.08
1032.464, 19608.10
1033.571, 18990.79
1034.678, 18749.99
1035.785, 17899.26
1036.892, 17019.76
1037.999, 16273.18
1039.105, 15355.41
1040.211, 14395.61
1041.317, 13425.10
1042.423, 12653.54
1043.529, 11804.66
1044.635, 11189.56
1045.740, 10346.48
1046.845, 9710.812
1047.951, 9135.707
1049.056, 8235.189
1050.160, 7984.348
1051.265, 7553.418
1052.370, 7112.146
1053.474, 6947.680
1054.578, 6564.883
1055.682, 6242.900
1056.786, 5960.973
1057.890, 5701.965
1058.993, 5273.441
1060.097, 5271.061
1061.200, 4867.428
1062.303, 4775.895
1063.406, 4951.352
1064.509, 4603.457
1065.612, 4611.637
1066.714, 4577.785
1067.816, 4508.508
1068.919, 4784.572
1070.021, 4555.873
1071.122, 4654.154
1072.224, 4651.654
1073.326, 4492.318
1074.427, 4444.293
1075.528, 4144.486
1076.629, 4133.299
1077.730, 4349.582
1078.831, 4122.840
1079.931, 4039.736
1081.032, 4273.879
1082.132, 4132.762
1083.232, 4206.137
1084.332, 4405.621
1085.432, 3856.230
1086.531, 4042.309
1087.631, 3747.969
1088.730, 3588.932
1089.829, 3523.596
1090.928, 3197.074
1092.027, 3200.959
1093.126, 3100.215
1094.224, 2981.898
1095.323, 2905.420
1096.421, 2845.609
1097.519, 2623.793
1098.617, 2488.277
1099.715, 2223.400
1100.812, 2091.906
1101.910, 1906.775
1103.007, 2162.137
1104.104, 1617.555
1105.201, 1723.855
1106.298, 1706.039
1107.394, 1486.104
1108.491, 1163.533
1109.587, 1121.818
1110.683, 1189.438
1111.779, 814.1152
1112.875, 930.3301
1113.971, 797.8418
1115.066, 674.7637
1116.162, 549.2422
1117.257, 579.2812
1118.352, 606.3066
1119.447, 705.4844
1120.542, 707.4824
1121.636, 706.1465
1122.731, 708.9395
1123.825, 620.3535
1124.919, 597.0273
1126.013, 482.5449
1127.107, 263.8887
1128.200, 62.20703
1129.294, 112.8555
1130.387, 128.8496
1131.480, 154.6777
1132.573, 152.1719
1133.666, 38.12695
1134.759, 137.8926
1135.851, 163.9629
1136.944, 181.8457
1138.036, 63.44336
1139.128, 34.21094
1140.220, 17.32617
1141.312, 42.92578
1142.403, 3.498047
1143.495, 55.89453
1144.586, 39.82031
1145.677, 290.7109
1146.768, 201.9688
1147.859, 124.1250
1148.950, 238.6855
1150.040, 89.32812
1151.130, 72.01367
1152.221, 30.74609
1153.311, 63.87305
1154.401, 45.57227
1155.490, 83.30859
1156.580, 43.71875
1157.669, 133.4043
1158.759, 23.11523
1159.848, 18.40039
1160.937, 30.49414
1162.025, 292.1211
1163.114, 88.80078
1164.202, 112.9727
1165.291, 192.3887
1166.379, 1.666016
1167.467, 78.29688
1168.555, 34.84766
1169.642, 125.0371
1170.730, 185.8066
1171.817, 124.1934
1172.905, 109.2246
1173.992, 172.0918
1175.078, 15.78125
1176.165, 185.8418
1177.252, 62.83984
1178.338, 21.93555
1179.425, 45.10352
1180.511, 69.84961
1181.597, 64.78906
1182.682, 154.6152
1183.768, 6.169922
1184.854, 62.79688
1185.939, 164.5312
1187.024, 49.41992
1188.109, 114.4102
1189.194, 20.52344
1190.279, 60.66211
1191.363, 81.48828
1192.448, 149.3750
1193.532, 177.5488
1194.616, 93.92578
1195.700, 93.68750
1196.784, 137.4180
1197.867, 88.27344
1198.951, 29.52148
1200.034, 114.3887
1201.117, 24.75586
1202.200, 22.00391
1203.283, 28.31445
1204.366, 209.2676
1205.448, 13.80273
1206.531, 122.2539
1207.613, 83.65430
1208.695, 158.6055
1209.777, 88.10352
1210.859, 206.0488
1211.940, 29.54492
1213.022, 172.5684
1214.103, 164.5391
1215.184, 164.1680
1216.265, 312.3184
1217.346, 198.1309
1218.427, 147.8887
1219.507, 92.58789
1220.587, 4.683594
1221.668, 97.75781
1222.748, 65.77539
1223.828, 50.27734
1224.907, 193.8047
1225.987, 135.9922
1227.066, 54.11523
1228.146, 132.1523
1229.225, 222.1250
1230.304, 91.02930
1231.382, 181.8613
1232.461, 97.62695
1233.540, 292.3125
1234.618, 391.9375
1235.696, 182.4980
1236.774, 242.9883
1237.852, 104.4102
1238.930, 78.94727
1240.007, 200.0000
1241.085, 111.1797
1242.162, 92.27734
1243.239, 263.2871
1244.316, 172.2266
1245.393, 270.0938
1246.469, 374.8848
1247.546, 383.6777
1248.622, 338.0430
1249.698, 493.8809
1250.774, 205.4004
1251.850, 196.8477
1252.926, 273.2168
1254.001, 208.5156
1255.077, 243.7402
1256.152, 139.8926
1257.227, 284.9609
1258.302, 203.0664
1259.377, 163.9922
1260.451, 422.8379
1261.526, 253.6152
1262.600, 157.3184
1263.674, 469.9453
1264.748, 318.5039
1265.822, 359.9902
1266.896, 182.4082
1267.969, 397.8984
1269.043, 204.1719
1270.116, 242.9121
1271.189, 427.0391
1272.262, 385.9727
1273.335, 348.0508
1274.407, 456.9746
1275.480, 280.6699
1276.552, 217.7031
1277.624, 289.3887
1278.696, 260.6680
1279.768, 243.9961
1280.840, 112.5098
1281.911, 188.0625
1282.982, 201.8535
1284.054, 251.8711
1285.125, 441.1035
1286.196, 434.0859
1287.266, 356.2402
1288.337, 439.9688
1289.407, 239.5723
1290.478, 549.4004
1291.548, 303.7695
1292.618, 298.7031
1293.688, 427.9238
1294.757, 355.6152
1295.827, 307.1953
1296.896, 454.5430
1297.965, 533.8320
1299.034, 190.3848
1300.103, 289.9336
1301.172, 466.1777
1302.241, 227.3965
1303.309, 269.2773
1304.377, 101.8008
1305.445, 277.4746
1306.513, 310.7344
1307.581, 298.6016
1308.649, 141.6504
1309.716, 458.9805
1310.784, 308.3711
1311.851, 407.0664
1312.918, 329.9238
1313.985, 311.0742
1315.052, 315.6875
1316.118, 265.3770
1317.185, 198.8398
1318.251, 281.5664
1319.317, 92.11133
1320.383, 131.2012
1321.449, 69.27734
1322.514, 122.0566
1323.580, 269.9512
1324.645, 233.7344
1325.711, 190.5137
1326.776, 423.0332
1327.840, 199.4727
1328.905, 276.9863
1329.970, 218.4863
1331.034, 338.7285
1332.099, 417.7676
1333.163, 149.4590
1334.227, 208.8984
1335.290, 155.1211
1336.354, 1.962891
1337.418, 296.2324
1338.481, 147.8496
1339.544, 38.22070
1340.607, 241.8574
1341.670, 258.9902
1342.733, 212.0410
1343.795, 319.0430
1344.858, 319.6172
1345.920, 408.6699
1346.982, 215.4648
1348.044, 416.6152
1349.106, 221.0527
1350.168, 224.1582
1351.229, 165.9863
1352.291, 164.5156
1353.352, 183.4688
1354.413, 217.6582
1355.474, 216.0977
1356.534, 237.3594
1357.595, 208.0527
1358.656, 138.4512
1359.716, 202.8984
1360.776, 386.3340
1361.836, 258.9258
1362.896, 341.2305
1363.955, 247.5410
1365.015, 247.0723
1366.074, 491.3574
1367.134, 212.9004
1368.193, 184.1562
1369.252, 344.4238
1370.310, 256.1875
1371.369, 240.6172
1372.427, 239.6133
1373.486, 240.9727
1374.544, 73.73828
1375.602, 81.48438
1376.660, 95.04688
1377.717, 79.14453
1378.775, 247.7070
1379.832, 222.5977
1380.889, 229.7871
1381.946, 430.6777
1383.003, 394.6953
1384.060, 173.8477
1385.117, 43.99414
1386.173, 191.7773
1387.230, 201.1797
1388.286, 220.7188
1389.342, 292.6582
1390.398, 267.9004
1391.453, 135.4023
1392.509, 206.5645
1393.564, 212.8848
1394.619, 326.3418
1395.675, 232.8125
1396.729, 127.4453
1397.784, 151.2500
1398.839, 136.7031
1399.893, 202.0879
1400.948, 189.3223
1402.002, 146.7754
1403.056, 281.8516
1404.110, 289.7461
1405.163, 240.9922
1406.217, 302.2207
1407.270, 99.41602
1408.324, 380.6836
1409.377, 195.6543
1410.430, 341.6836
1411.483, 325.0234
1412.535, 301.6582
1413.588, 281.3789
1414.640, 297.1445
1415.692, 305.9199
1416.744, 241.2402
1417.796, 117.0586
1418.848, 251.8398
1419.900, 194.6621
1420.951, 218.6680
1422.002, 268.6914
1423.053, 340.1074
1424.104, 163.1719
1425.155, 418.4980
1426.206, 752.6152
1427.256, 855.7305
1428.307, 22.67773
1429.357, 395.5625
1430.407, 286.3047
1431.457, 155.5645
1432.507, 706.5820
1433.556, 9.667969
1434.606, 542.2207
1435.655, 583.1367
1436.704, 849.2207
1437.753, 628.8301
1438.802, 293.4629
1439.851, 391.7207
1440.899, 413.3340
1441.948, 490.8398
1442.996, 370.1797
1444.044, 566.2363
1445.092, 306.1875
1446.140, 476.5645
1447.187, 426.0449
1448.235, 680.1797
1449.282, 385.1758
1450.329, 573.1992
1451.376, 549.2559
1452.423, 584.3613
1453.470, 470.5195
1454.517, 165.7012
1455.563, 282.2266
1456.609, 205.0586
1457.655, 350.3340
1458.701, 248.6113
1459.747, 253.8809
1460.793, 374.1562
1461.838, 470.4941
1462.884, 259.9434
1463.929, 66.41992
1464.974, 306.9316
1466.019, 278.4629
1467.064, 111.0312
1468.108, 424.6152
1469.153, 520.2109
1470.197, 448.8555
1471.241, 309.5430
1472.285, 550.2773
1473.329, 199.0430
1474.373, 227.7910
1475.416, 324.5957
1476.460, 375.4355
1477.503, 331.3125
1478.546, 301.2344
1479.589, 301.0586
1480.632, 371.0703
1481.674, 382.2637
1482.717, 402.2363
1483.759, 460.3828
1484.801, 507.5820
1485.843, 505.8320
1486.885, 326.1289
1487.927, 294.4707
1488.968, 318.8711
1490.010, 372.3223
1491.051, 389.2031
1492.092, 358.4238
1493.133, 418.0586
1494.174, 402.7383
1495.215, 279.4727
1496.255, 151.2539
1497.296, 110.0840
1498.336, 269.8477
1499.376, 313.4902
1500.416, 212.9414
1501.456, 327.6172
1502.495, 344.2676
1503.535, 203.5098
1504.574, 502.1562
1505.613, 307.8340
1506.652, 182.5566
1507.691, 461.3398
1508.730, 264.2051
1509.768, 110.1699
1510.807, 346.2246
1511.845, 416.3438
1512.883, 414.5293
1513.921, 341.7871
1514.959, 302.1289
1515.996, 258.5410
1517.034, 249.2461
1518.071, 250.6055
1519.109, 264.9297
1520.146, 305.9297
1521.183, 332.7168
1522.219, 277.5840
1523.256, 222.5352
1524.292, 215.0605
1525.329, 213.4824
1526.365, 234.9102
1527.401, 207.2168
1528.437, 382.6152
1529.472, 281.1094
1530.508, 474.6973
1531.543, 479.3828
1532.579, 194.1680
1533.614, 330.0527
1534.649, 206.0391
1535.683, 300.5625
1536.718, 297.6719
1537.753, 457.7285
1538.787, 421.6367
1539.821, 250.7305
1540.855, 535.0254
1541.889, 357.5234
1542.923, 615.2422
1543.956, 295.1875
1544.990, 297.3730
1546.023, 439.8203
1547.056, 116.6133
1548.089, 452.6094
1549.122, 775.0742
1550.155, 864.0996
1551.187, 19.42383
1552.220, 381.3184
1553.252, 260.3105
1554.284, 119.9629
1555.316, 653.0977
1556.348, 53.22461
1557.379, 470.4453
1558.411, 504.1172
1559.442, 665.0762
1560.474, 429.3711
1561.505, 314.2910
1562.535, 409.1699
1563.566, 502.3184
1564.597, 363.0820
1565.627, 323.1348
1566.658, 349.8203
1567.688, 179.2520
1568.718, 209.2910
1569.748, 196.9590
1570.777, 0.0000000E+00
##END=



