##NAMES=Lazulite
##RRUFFID=R050110
##IDEAL CHEMISTRY=MgAl_2_(PO_4_)_2_(OH)_2_
##LOCALITY=Rapid Creek, Yukon Territory, Canada
##OWNER=RRUFF
##SOURCE=Rock Currier
##DESCRIPTION=Azure-blue stubby crystals with complex terminations
##STATUS=The identification of this mineral has been confirmed by X-ray diffraction and chemical analysis
##URL=rruff.info/R050110
##MEASURED CHEMISTRY=(Mg_0.84_Fe_0.16_)Al_2.00_(P_1.00_O_4_)_2_(OH)_2_
##PIN_ID=L00379
##ORIENTATION=Laser parallel to -c* (0 0 -1). Fiducial mark perpendicular to laser is parallel to a [1 0 0]
80.125, 0.000
81.521, 28.534
82.916, 11.235
84.311, 179.271
85.706, 432.102
87.101, 581.959
88.496, 1234.916
89.890, 1899.343
91.284, 2421.706
92.678, 2799.627
94.071, 3096.905
95.465, 4562.396
96.858, 7245.547
98.251, 12310.744
99.644, 18122.211
101.036, 19259.342
102.428, 15904.757
103.820, 11298.513
105.212, 7222.488
106.604, 4667.747
107.995, 3320.695
109.387, 2932.955
110.777, 3128.565
112.168, 3229.440
113.559, 2895.155
114.949, 2268.829
116.339, 1856.925
117.729, 1381.511
119.119, 1112.897
120.508, 927.631
121.897, 958.174
123.286, 954.320
124.675, 839.693
126.063, 598.604
127.452, 731.813
128.840, 548.417
130.228, 539.377
131.615, 473.748
133.003, 481.577
134.390, 333.010
135.777, 320.849
137.164, 279.900
138.550, 247.146
139.937, 222.862
141.323, 161.939
142.709, 21.394
144.094, 11.022
145.480, 60.921
146.865, 12.671
148.250, 135.187
149.635, 9.245
151.019, 28.553
152.403, 156.773
153.788, 38.670
155.171, 130.907
156.555, 45.283
157.939, 79.085
159.322, 30.135
160.705, 137.596
162.088, 149.701
163.470, 298.104
164.853, 330.852
166.235, 505.883
167.617, 924.185
168.998, 1540.733
170.380, 2123.499
171.761, 3211.457
173.142, 4257.459
174.523, 4247.325
175.904, 3201.272
177.284, 2270.705
178.664, 1713.139
180.044, 1644.617
181.424, 1715.124
182.803, 2520.631
184.183, 4201.112
185.562, 7279.546
186.940, 11530.774
188.319, 16903.018
189.698, 25447.641
191.076, 31031.150
192.454, 29876.801
193.831, 21973.326
195.209, 14989.396
196.586, 9985.196
197.963, 6553.269
199.340, 4308.619
200.717, 2777.661
202.093, 1859.422
203.470, 1373.956
204.846, 1041.339
206.221, 813.624
207.597, 674.866
208.972, 591.079
210.347, 477.261
211.722, 446.417
213.097, 416.591
214.472, 494.881
215.846, 594.312
217.220, 884.869
218.594, 1361.468
219.967, 2027.061
221.341, 2871.617
222.714, 3813.127
224.087, 4375.586
225.460, 4677.991
226.832, 3849.328
228.204, 2662.584
229.577, 1673.751
230.948, 745.836
232.320, 269.866
233.692, 59.149
235.063, 164.210
236.434, 270.316
237.805, 222.457
239.175, 263.649
240.545, 123.073
241.916, 31.922
243.286, 121.828
244.655, 524.379
246.025, 908.784
247.394, 1431.741
248.763, 2159.583
250.132, 3366.781
251.501, 4779.882
252.869, 6749.824
254.237, 8544.565
255.605, 8104.075
256.973, 6241.315
258.340, 4319.273
259.708, 2696.943
261.075, 1843.316
262.442, 1192.365
263.808, 962.071
265.175, 785.405
266.541, 659.365
267.907, 656.973
269.273, 745.245
270.639, 843.180
272.004, 900.792
273.369, 1261.075
274.734, 1682.027
276.099, 2410.643
277.463, 3347.788
278.828, 4319.796
280.192, 5670.689
281.556, 6347.909
282.919, 6807.759
284.283, 6270.986
285.646, 4959.749
287.009, 3783.110
288.372, 2526.969
289.734, 1816.738
291.097, 1140.898
292.459, 770.498
293.821, 468.250
295.183, 292.866
296.544, 196.109
297.905, 4.284
299.266, 0.277
300.627, 64.008
301.988, 90.230
303.348, 116.885
304.709, 69.905
306.069, 15.405
307.428, 10.308
308.788, 114.437
310.147, 186.307
311.507, 326.083
312.865, 603.434
314.224, 1040.384
315.583, 1767.872
316.941, 2756.360
318.299, 3939.223
319.657, 5451.265
321.015, 6785.612
322.372, 7624.378
323.729, 6938.190
325.086, 5654.613
326.443, 4367.022
327.800, 3414.610
329.156, 3157.473
330.512, 2869.666
331.868, 2923.592
333.224, 3171.642
334.579, 3499.659
335.935, 4131.644
337.290, 4852.593
338.645, 6095.492
339.999, 7576.654
341.354, 9818.073
342.708, 12636.014
344.062, 15265.686
345.416, 18308.902
346.769, 18870.188
348.123, 18134.428
349.476, 15458.904
350.829, 12397.741
352.182, 9621.214
353.534, 7405.311
354.887, 5894.163
356.239, 4553.427
357.591, 3860.425
358.942, 3367.287
360.294, 3056.073
361.645, 2722.317
362.996, 2648.466
364.347, 2569.551
365.698, 2623.172
367.048, 2843.786
368.398, 3211.401
369.748, 3648.389
371.098, 4370.823
372.448, 5182.922
373.797, 6506.565
375.146, 8122.091
376.495, 9398.480
377.844, 10745.220
379.192, 10914.371
380.540, 10100.738
381.889, 8530.309
383.236, 6738.860
384.584, 5216.389
385.932, 3944.896
387.279, 3225.381
388.626, 2638.843
389.973, 2365.307
391.319, 2201.131
392.666, 2195.347
394.012, 2124.768
395.358, 1840.846
396.704, 1596.915
398.049, 1210.465
399.394, 878.197
400.740, 726.994
402.084, 585.014
403.429, 628.733
404.774, 664.063
406.118, 920.825
407.462, 1549.550
408.806, 2882.670
410.150, 4988.725
411.493, 7989.710
412.836, 11894.623
414.179, 12950.470
415.522, 9947.246
416.865, 6392.955
418.207, 3826.597
419.549, 2551.171
420.891, 2084.680
422.233, 2168.125
423.575, 2645.508
424.916, 3299.829
426.257, 4394.090
427.598, 4735.794
428.939, 4552.912
430.279, 3641.956
431.619, 2499.312
432.959, 1743.021
434.299, 1154.916
435.639, 887.799
436.978, 566.635
438.318, 489.423
439.657, 383.167
440.996, 325.864
442.334, 351.516
443.673, 304.125
445.011, 331.692
446.349, 356.220
447.687, 386.712
449.024, 502.169
450.361, 531.596
451.699, 704.992
453.036, 853.361
454.372, 1003.148
455.709, 1196.651
457.045, 1528.182
458.381, 1865.892
459.717, 2233.711
461.053, 2324.254
462.388, 2514.808
463.724, 2453.732
465.059, 2416.001
466.394, 2253.241
467.728, 2212.811
469.063, 2314.160
470.397, 2496.061
471.731, 3046.834
473.065, 3613.781
474.398, 4614.893
475.732, 5666.072
477.065, 6692.255
478.398, 7327.487
479.731, 6888.735
481.063, 6230.026
482.396, 4875.337
483.728, 3522.683
485.060, 2572.046
486.391, 1760.419
487.723, 1274.801
489.054, 929.184
490.385, 778.565
491.716, 679.940
493.047, 685.301
494.377, 741.646
495.708, 650.978
497.038, 603.294
498.368, 476.595
499.697, 239.882
501.027, 168.153
502.356, 32.403
503.685, 112.368
505.014, 122.209
506.342, 140.123
507.671, 156.119
508.999, 144.695
510.327, 151.377
511.655, 114.635
512.982, 71.960
514.310, 46.333
515.637, 36.743
516.964, 12.816
518.291, 18.466
519.617, 20.274
520.944, 140.161
522.270, 155.166
523.596, 163.731
524.921, 324.320
526.247, 320.202
527.572, 421.381
528.897, 457.694
530.222, 469.323
531.547, 532.642
532.871, 557.912
534.196, 588.126
535.520, 660.913
536.844, 681.369
538.167, 694.209
539.491, 775.071
540.814, 695.979
542.137, 619.328
543.460, 607.980
544.783, 419.593
546.105, 354.993
547.427, 320.381
548.749, 261.757
550.071, 168.121
551.393, 67.468
552.714, 88.796
554.035, 56.110
555.356, 44.416
556.677, 35.757
557.998, 83.158
559.318, 77.649
560.638, 133.221
561.958, 172.881
563.278, 212.603
564.597, 284.368
565.917, 316.140
567.236, 411.917
568.555, 557.695
569.874, 678.472
571.192, 866.264
572.511, 1105.056
573.829, 1498.862
575.147, 1937.672
576.464, 2563.486
577.782, 3403.315
579.099, 3930.142
580.416, 4132.979
581.733, 3904.821
583.050, 3297.677
584.366, 2528.540
585.683, 2010.402
586.999, 1642.272
588.315, 1399.146
589.630, 1245.023
590.946, 1185.906
592.261, 1267.791
593.576, 1417.689
594.891, 1593.602
596.206, 1781.511
597.520, 2210.430
598.834, 2830.937
600.148, 3653.220
601.462, 4643.632
602.776, 5951.853
604.089, 6906.211
605.402, 7453.676
606.715, 7399.271
608.028, 6724.184
609.341, 6256.088
610.653, 6105.991
611.965, 6232.889
613.277, 6166.781
614.589, 6104.667
615.901, 5836.557
617.212, 5662.451
618.523, 5856.369
619.834, 6061.310
621.145, 6735.294
622.456, 7223.323
623.766, 7256.407
625.076, 7236.533
626.386, 6943.675
627.696, 6884.840
629.006, 6992.009
630.315, 7116.182
631.624, 7430.352
632.933, 7197.517
634.242, 6968.667
635.551, 6386.805
636.859, 5704.930
638.167, 5264.044
639.475, 4743.143
640.783, 4364.229
642.090, 4303.303
643.398, 4384.360
644.705, 4536.404
646.012, 4676.434
647.318, 4823.449
648.625, 4530.449
649.931, 4168.434
651.237, 3740.406
652.543, 3071.362
653.849, 2677.303
655.155, 2063.228
656.460, 1711.138
657.765, 1382.729
659.070, 1158.095
660.375, 1003.030
661.679, 812.960
662.984, 685.567
664.288, 588.776
665.592, 475.840
666.895, 456.427
668.199, 344.088
669.502, 281.097
670.805, 270.358
672.108, 174.714
673.411, 177.530
674.713, 129.500
676.016, 87.525
677.318, 64.888
678.620, 33.404
679.921, 6.635
681.223, 29.317
682.524, 54.171
683.825, 75.836
685.126, 109.443
686.427, 114.085
687.727, 76.102
689.028, 90.822
690.328, 56.919
691.628, 66.178
692.927, 1.323
694.227, 3.192
695.526, 22.240
696.825, 51.433
698.124, 0.910
699.423, 106.307
700.721, 112.563
702.020, 215.852
703.318, 174.111
704.616, 251.382
705.913, 344.617
707.211, 399.285
708.508, 497.644
709.805, 612.196
711.102, 712.269
712.399, 759.688
713.695, 859.884
714.992, 1017.293
716.288, 1109.254
717.584, 1350.634
718.879, 1417.254
720.175, 1591.520
721.470, 1733.752
722.765, 2005.923
724.060, 2286.697
725.355, 2550.199
726.649, 3037.007
727.944, 3451.407
729.238, 4032.243
730.532, 4633.493
731.825, 5365.859
733.119, 6251.218
734.412, 7145.872
735.705, 8155.404
736.998, 9378.240
738.291, 10679.520
739.584, 11412.921
740.876, 12249.754
742.168, 12896.659
743.460, 12475.082
744.752, 12122.809
746.043, 10905.733
747.334, 9740.541
748.626, 8479.375
749.916, 7297.032
751.207, 6403.619
752.498, 5422.370
753.788, 4620.702
755.078, 3980.051
756.368, 3504.743
757.658, 3066.578
758.947, 2668.326
760.237, 2383.566
761.526, 2125.781
762.815, 1856.836
764.104, 1696.072
765.392, 1556.243
766.680, 1364.222
767.969, 1168.216
769.257, 1125.146
770.544, 1046.956
771.832, 985.722
773.119, 953.614
774.406, 790.324
775.693, 805.028
776.980, 674.682
778.267, 633.307
779.553, 643.903
780.839, 590.471
782.125, 574.009
783.411, 610.519
784.697, 509.998
785.982, 528.448
787.267, 474.869
788.552, 424.260
789.837, 422.622
791.122, 396.954
792.406, 432.257
793.690, 408.059
794.974, 348.775
796.258, 384.990
797.542, 311.176
798.825, 285.332
800.108, 327.459
801.391, 311.557
802.674, 288.626
803.957, 249.667
805.239, 259.677
806.522, 230.659
807.804, 231.612
809.085, 267.536
810.367, 217.430
811.649, 234.297
812.930, 186.135
814.211, 150.947
815.492, 204.733
816.772, 137.518
818.053, 214.302
819.333, 144.092
820.613, 130.890
821.893, 161.693
823.173, 145.503
824.452, 144.311
825.732, 137.890
827.011, 112.884
828.290, 100.642
829.568, 91.262
830.847, 58.680
832.125, 90.972
833.403, 56.104
834.681, 44.526
835.959, 65.089
837.236, 6.214
838.514, 43.990
839.791, 37.592
841.068, 1.163
842.345, 27.348
843.621, 8.872
844.898, 34.416
846.174, 3.355
847.450, 39.589
848.726, 32.975
850.001, 25.171
851.277, 32.850
852.552, 36.686
853.827, 64.907
855.102, 51.767
856.376, 53.802
857.651, 45.812
858.925, 43.797
860.199, 82.757
861.473, 52.695
862.746, 29.613
864.020, 103.508
865.293, 24.384
866.566, 47.238
867.839, 40.072
869.112, 9.885
870.384, 89.670
871.656, 12.563
872.928, 20.837
874.200, 17.843
875.472, 18.502
876.744, 28.891
878.015, 25.328
879.286, 78.812
880.557, 25.370
881.828, 80.973
883.098, 40.651
884.369, 33.381
885.639, 86.160
886.909, 18.015
888.178, 64.909
889.448, 38.866
890.717, 78.872
891.987, 49.948
893.256, 26.078
894.524, 44.249
895.793, 21.743
897.061, 27.795
898.330, 32.026
899.598, 31.366
900.865, 80.747
902.133, 79.194
903.401, 14.705
904.668, 67.247
905.935, 12.846
907.202, 47.473
908.468, 70.145
909.735, 7.874
911.001, 73.627
912.267, 3.562
913.533, 2.735
914.799, 17.110
916.064, 1.981
917.330, 21.870
918.595, 19.785
919.860, 7.274
921.124, 13.318
922.389, 33.349
923.653, 46.367
924.918, 1.374
926.182, 57.366
927.445, 22.347
928.709, 64.315
929.972, 47.273
931.236, 43.220
932.499, 137.156
933.761, 32.082
935.024, 92.997
936.286, 92.903
937.549, 57.799
938.811, 132.686
940.073, 125.564
941.334, 125.433
942.596, 125.293
943.857, 105.145
945.118, 89.989
946.379, 136.825
947.640, 174.653
948.900, 196.474
950.161, 212.671
951.421, 199.095
952.681, 224.895
953.940, 204.689
955.200, 215.477
956.459, 172.259
957.719, 252.035
958.978, 662.806
960.236, 445.690
961.495, 497.365
962.753, 315.090
964.012, 295.842
965.270, 347.509
966.527, 325.029
967.785, 385.770
969.043, 337.235
970.300, 406.969
971.557, 463.464
972.814, 439.919
974.071, 485.504
975.327, 526.029
976.583, 488.550
977.840, 648.044
979.095, 625.443
980.351, 706.797
981.607, 792.116
982.862, 710.105
984.117, 924.438
985.372, 983.388
986.627, 959.018
987.882, 1140.251
989.136, 1149.273
990.390, 1306.214
991.644, 1452.147
992.898, 1537.422
994.152, 1820.374
995.405, 1893.664
996.659, 2056.103
997.912, 2297.394
999.165, 2554.008
1000.417, 2899.556
1001.670, 3226.988
1002.922, 3544.616
1004.174, 3732.321
1005.426, 4019.832
1006.678, 4245.951
1007.930, 4567.770
1009.181, 4728.573
1010.432, 5175.383
1011.683, 5709.368
1012.934, 6652.255
1014.185, 7544.050
1015.435, 8781.187
1016.685, 10283.939
1017.935, 11336.884
1019.185, 11641.813
1020.435, 11292.173
1021.684, 9996.346
1022.934, 8775.450
1024.183, 7569.085
1025.432, 6522.888
1026.680, 5855.750
1027.929, 5416.995
1029.177, 4988.506
1030.425, 4752.710
1031.673, 4563.316
1032.921, 4596.480
1034.169, 4486.221
1035.416, 4594.464
1036.663, 4649.459
1037.911, 4853.790
1039.157, 5009.227
1040.404, 5527.363
1041.650, 5875.044
1042.897, 6496.600
1044.143, 7141.716
1045.389, 8099.752
1046.634, 9598.263
1047.880, 11048.454
1049.125, 12894.440
1050.371, 15426.534
1051.615, 18912.590
1052.860, 23050.816
1054.105, 28951.107
1055.349, 35780.234
1056.593, 43828.762
1057.837, 50596.273
1059.081, 56983.430
1060.325, 57966.434
1061.568, 54429.520
1062.812, 47013.113
1064.055, 38099.734
1065.298, 30251.502
1066.540, 22960.080
1067.783, 18028.727
1069.025, 14314.555
1070.267, 11785.359
1071.509, 9664.222
1072.751, 8369.194
1073.993, 7255.206
1075.234, 6549.082
1076.475, 5969.131
1077.716, 5505.181
1078.957, 5311.271
1080.198, 5007.382
1081.438, 5078.515
1082.679, 5095.669
1083.919, 5089.848
1085.159, 5458.057
1086.398, 5622.287
1087.638, 6079.538
1088.877, 6592.809
1090.116, 6948.101
1091.355, 7133.345
1092.594, 7397.751
1093.833, 7225.108
1095.071, 7046.487
1096.309, 6819.884
1097.547, 6614.304
1098.785, 6806.745
1100.023, 6864.206
1101.260, 6825.689
1102.498, 6733.195
1103.735, 6184.722
1104.972, 5682.270
1106.208, 5001.840
1107.445, 4489.433
1108.681, 4023.047
1109.918, 3602.684
1111.154, 3394.342
1112.389, 3269.022
1113.625, 3127.723
1114.860, 3123.446
1116.096, 3171.196
1117.331, 3114.963
1118.566, 3299.752
1119.800, 3482.563
1121.035, 3815.499
1122.269, 4079.476
1123.503, 4399.526
1124.737, 4760.427
1125.971, 5037.350
1127.205, 5751.515
1128.438, 6603.544
1129.671, 7671.717
1130.904, 9322.370
1132.137, 11195.405
1133.370, 13673.657
1134.602, 16660.842
1135.834, 18783.137
1137.066, 20526.023
1138.298, 20330.529
1139.530, 18800.053
1140.762, 16264.774
1141.993, 13614.981
1143.224, 11602.247
1144.455, 9711.232
1145.686, 8032.746
1146.917, 6805.085
1148.147, 5803.233
1149.377, 5035.153
1150.607, 4545.872
1151.837, 4036.204
1153.067, 3627.717
1154.296, 3365.675
1155.526, 3070.386
1156.755, 2896.332
1157.984, 2720.516
1159.213, 2498.090
1160.441, 2449.186
1161.670, 2222.576
1162.898, 2224.520
1164.126, 2107.330
1165.354, 1976.249
1166.581, 1944.847
1167.809, 1956.001
1169.036, 1764.273
1170.263, 1812.040
1171.490, 1674.505
1172.717, 1671.320
1173.943, 1683.268
1175.170, 1582.089
1176.396, 1638.490
1177.622, 1593.154
1178.848, 1573.525
1180.073, 1579.159
1181.299, 1522.570
1182.524, 1512.610
1183.749, 1404.372
1184.974, 1283.968
1186.199, 1227.194
1187.423, 1147.208
1188.648, 996.414
1189.872, 991.330
1191.096, 880.720
1192.320, 793.056
1193.543, 878.374
1194.767, 691.648
1195.990, 690.051
1197.213, 665.389
1198.436, 619.041
1199.659, 651.942
1200.881, 622.890
1202.104, 667.123
1203.326, 665.819
1204.548, 594.542
1205.770, 731.043
1206.991, 711.990
1208.213, 716.643
1209.434, 869.217
1210.655, 811.460
1211.876, 888.092
1213.096, 894.701
1214.317, 871.324
1215.537, 864.966
1216.757, 845.465
1217.977, 820.709
1219.197, 807.406
1220.417, 727.234
1221.636, 717.203
1222.855, 749.978
1224.074, 660.758
1225.293, 630.548
1226.512, 598.409
1227.731, 517.008
1228.949, 527.854
1230.167, 385.584
1231.385, 392.625
1232.603, 395.359
1233.820, 268.590
1235.038, 236.333
1236.255, 248.133
1237.472, 217.533
1238.689, 176.451
1239.906, 154.305
1241.122, 127.149
1242.338, 163.960
1243.555, 116.785
1244.771, 145.796
1245.986, 116.645
1247.202, 98.577
1248.417, 120.662
1249.633, 86.604
1250.848, 68.682
1252.063, 95.572
1253.277, 50.465
1254.492, 107.840
1255.706, 101.740
1256.920, 86.202
1258.134, 53.543
1259.348, 45.436
1260.562, 49.371
1261.775, 3.242
1262.988, 18.109
1264.201, 66.067
1265.414, 49.942
1266.627, 72.229
1267.839, 6.904
1269.052, 37.112
1270.264, 21.659
1271.476, 67.410
1272.688, 35.855
1273.899, 32.149
1275.111, 8.462
1276.322, 40.796
1277.533, 38.882
1278.744, 31.493
1279.955, 61.895
1281.165, 7.310
1282.376, 38.745
1283.586, 47.222
1284.796, 10.731
1286.006, 48.250
1287.215, 38.701
1288.425, 9.748
1289.634, 67.806
1290.843, 26.379
1292.052, 5.936
1293.261, 15.148
1294.469, 42.756
1295.678, 54.381
1296.886, 47.049
1298.094, 1.652
1299.302, 23.044
1300.509, 17.772
1301.717, 20.498
1302.924, 23.238
1304.131, 8.212
1305.338, 67.559
1306.545, 39.386
1307.752, 0.763
1308.958, 44.098
1310.164, 12.990
1311.370, 6.898
1312.576, 14.822
1313.782, 15.692
1314.987, 22.653
1316.193, 48.643
1317.398, 17.604
1318.603, 22.433
1319.807, 29.504
1321.012, 4.455
1322.216, 30.640
1323.421, 8.765
1324.625, 4.086
1325.829, 9.915
1327.032, 31.727
1328.236, 42.476
1329.439, 6.710
1330.642, 23.034
1331.845, 27.237
1333.048, 35.467
1334.251, 9.155
1335.453, 1.825
1336.656, 31.463
1337.858, 42.078
1339.060, 75.671
1340.261, 35.267
1341.463, 56.812
1342.664, 26.337
1343.866, 85.844
1345.067, 4.666
1346.267, 67.798
1347.468, 33.243
1348.669, 33.670
1349.869, 74.073
1351.069, 28.457
1352.269, 45.821
1353.469, 106.167
1354.668, 2.494
1355.868, 65.796
1357.067, 104.079
1358.266, 1.657
1359.465, 75.580
1360.664, 65.557
1361.862, 37.758
1363.061, 73.945
1364.259, 52.110
1365.457, 44.257
1366.655, 63.387
1367.852, 64.500
1369.050, 64.598
1370.247, 56.682
1371.444, 26.699
1372.641, 60.691
1373.838, 24.665
1375.035, 0.397
1376.231, 114.506
1377.427, 42.387
1378.623, 94.249
1379.819, 80.106
1381.015, 39.947
1382.211, 67.775
1383.406, 83.593
1384.601, 91.399
1385.796, 122.193
1386.991, 120.476
1388.185, 75.738
1389.380, 119.488
1390.574, 96.222
1391.768, 78.941
1392.962, 103.641
1394.156, 85.331
1395.350, 124.525
1396.543, 128.689
1397.736, 67.284
1398.929, 149.229
1400.122, 125.644
1401.315, 139.744
1402.507, 165.309
1403.700, 103.806
1404.892, 151.709
1406.084, 138.611
1407.276, 88.054
1408.467, 109.268
1409.659, 132.032
1410.850, 49.295
1412.041, 114.780
1413.232, 124.660
1414.423, 128.493
1415.614, 140.046
1416.804, 105.692
1417.994, 137.971
1419.184, 98.470
1420.374, 74.620
1421.564, 149.881
1422.753, 112.342
1423.943, 74.390
1425.132, 127.814
1426.321, 103.094
1427.510, 103.515
1428.698, 125.205
1429.887, 47.089
1431.075, 130.814
1432.263, 123.410
1433.451, 9.672
1434.639, 38.363
1435.827, 16.210
1437.014, 68.113
1438.201, 93.481
1439.388, 21.081
1440.575, 73.022
1441.762, 121.248
1442.949, 1.814
1444.135, 89.250
1445.321, 93.122
1446.507, 29.811
1447.693, 106.967
1448.879, 69.538
1450.064, 74.435
1451.250, 97.132
1452.435, 61.227
1453.620, 59.530
1454.805, 165.926
1455.989, 35.800
1457.174, 51.271
1458.358, 129.655
1459.542, 14.493
1460.726, 136.118
1461.910, 119.740
1463.093, 39.210
1464.277, 150.806
1465.460, 76.066
1466.643, 41.347
1467.826, 115.958
1469.009, 76.651
1470.191, 121.438
1471.373, 78.205
1472.556, 52.159
1473.738, 142.108
1474.919, 113.260
1476.101, 74.158
1477.283, 121.253
1478.464, 78.326
1479.645, 56.532
1480.826, 118.063
1482.007, 24.912
1483.187, 72.083
1484.368, 128.894
1485.548, 86.535
1486.728, 117.227
1487.908, 118.157
1489.088, 92.203
1490.268, 117.788
1491.447, 114.150
1492.626, 113.583
1493.805, 131.841
1494.984, 138.758
1496.163, 143.945
1497.341, 89.940
1498.520, 63.450
1499.698, 126.887
1500.876, 80.464
1502.054, 11.012
1503.232, 47.875
1504.409, 11.805
1505.586, 52.764
1506.763, 96.823
1507.940, 51.007
1509.117, 64.273
1510.294, 98.654
1511.470, 17.206
1512.647, 42.857
1513.823, 61.835
1514.999, 0.479
1516.174, 120.300
1517.350, 26.190
1518.526, 4.961
1519.701, 62.775
1520.876, 0.000
##END=



