##NAMES=Lazulite
##RRUFFID=R050110
##IDEAL CHEMISTRY=MgAl_2_(PO_4_)_2_(OH)_2_
##LOCALITY=Rapid Creek, Yukon Territory, Canada
##OWNER=RRUFF
##SOURCE=Rock Currier
##DESCRIPTION=Azure-blue stubby crystals with complex terminations
##STATUS=The identification of this mineral has been confirmed by X-ray diffraction and chemical analysis
##URL=rruff.info/R050110
##MEASURED CHEMISTRY=(Mg_0.84_Fe_0.16_)Al_2.00_(P_1.00_O_4_)_2_(OH)_2_
##PIN_ID=L00471
##ORIENTATION=Laser parallel to -b* (0 -1 0). Fiducial mark perpendicular to laser is parallel to -c [0 0 -1]
81.521, 0.000
82.916, 11.461
84.311, 14.170
85.706, 9.264
87.101, 84.875
88.496, 119.474
89.890, 193.379
91.284, 369.329
92.678, 590.183
94.071, 817.554
95.465, 1238.398
96.858, 1939.270
98.251, 3444.379
99.644, 4896.833
101.036, 5392.276
102.428, 4569.703
103.820, 3349.865
105.212, 2284.607
106.604, 1608.756
107.995, 1161.907
109.387, 983.286
110.777, 1112.094
112.168, 1046.480
113.559, 1198.339
114.949, 998.095
116.339, 878.423
117.729, 712.145
119.119, 611.793
120.508, 517.571
121.897, 559.697
123.286, 481.617
124.675, 501.230
126.063, 464.932
127.452, 468.957
128.840, 496.093
130.228, 496.347
131.615, 540.717
133.003, 427.631
134.390, 332.201
135.777, 338.456
137.164, 407.417
138.550, 319.158
139.937, 339.752
141.323, 162.132
142.709, 102.480
144.094, 94.502
145.480, 3.972
146.865, 98.403
148.250, 60.122
149.635, 211.042
151.019, 93.301
152.403, 42.633
153.788, 60.879
155.171, 91.042
156.555, 80.259
157.939, 75.627
159.322, 64.244
160.705, 63.829
162.088, 73.827
163.470, 67.545
164.853, 28.023
166.235, 22.641
167.617, 20.624
168.998, 75.231
170.380, 3.198
171.761, 60.268
173.142, 84.428
174.523, 73.671
175.904, 129.986
177.284, 192.363
178.664, 185.793
180.044, 372.268
181.424, 562.780
182.803, 1055.319
184.183, 1862.878
185.562, 3434.447
186.940, 5349.016
188.319, 7985.580
189.698, 11929.135
191.076, 14106.677
192.454, 13655.346
193.831, 9653.842
195.209, 5907.626
196.586, 3460.600
197.963, 1982.162
199.340, 1237.099
200.717, 731.273
202.093, 485.386
203.470, 245.435
204.846, 126.409
206.221, 46.302
207.597, 35.802
208.972, 10.718
210.347, 57.726
211.722, 93.300
213.097, 99.796
214.472, 102.302
215.846, 138.594
217.220, 21.253
218.594, 72.836
219.967, 187.521
221.341, 433.792
222.714, 688.068
224.087, 997.344
225.460, 1278.613
226.832, 1110.847
228.204, 893.026
229.577, 548.071
230.948, 313.927
232.320, 196.600
233.692, 11.229
235.063, 31.153
236.434, 101.542
237.805, 25.937
239.175, 94.338
240.545, 22.760
241.916, 48.728
243.286, 108.102
244.655, 251.402
246.025, 395.689
247.394, 846.109
248.763, 1421.158
250.132, 2460.892
251.501, 3538.090
252.869, 5078.912
254.237, 6339.682
255.605, 5948.390
256.973, 4547.022
258.340, 2990.572
259.708, 1855.032
261.075, 1298.398
262.442, 963.669
263.808, 794.840
265.175, 718.904
266.541, 762.857
267.907, 779.695
269.273, 898.408
270.639, 1078.999
272.004, 1366.474
273.369, 1915.842
274.734, 2502.110
276.099, 3388.284
277.463, 4518.345
278.828, 5837.269
280.192, 7538.053
281.556, 8275.702
282.919, 9082.189
284.283, 8441.545
285.646, 7050.763
287.009, 5574.835
288.372, 4132.750
289.734, 3121.461
291.097, 2284.024
292.459, 1627.482
293.821, 1354.854
295.183, 987.162
296.544, 728.432
297.905, 563.667
299.266, 472.866
300.627, 344.032
301.988, 280.166
303.348, 237.268
304.709, 204.338
306.069, 147.944
307.428, 74.259
308.788, 110.468
310.147, 66.629
311.507, 98.384
312.865, 114.250
314.224, 175.837
315.583, 418.597
316.941, 600.622
318.299, 1034.983
319.657, 1382.727
321.015, 1746.347
322.372, 1939.884
323.729, 1616.911
325.086, 1305.581
326.443, 893.346
327.800, 593.026
329.156, 418.730
330.512, 236.279
331.868, 162.422
333.224, 50.333
334.579, 54.071
335.935, 78.774
337.290, 24.161
338.645, 14.228
339.999, 45.723
341.354, 20.754
342.708, 2.117
344.062, 101.821
345.416, 168.644
346.769, 54.476
348.123, 141.180
349.476, 120.148
350.829, 145.016
352.182, 139.970
353.534, 165.308
354.887, 172.493
356.239, 209.214
357.591, 275.116
358.942, 359.958
360.294, 454.007
361.645, 494.207
362.996, 598.843
364.347, 814.485
365.698, 974.946
367.048, 1235.060
368.398, 1575.557
369.748, 2012.260
371.098, 2690.822
372.448, 3351.817
373.797, 4483.590
375.146, 5553.010
376.495, 6675.001
377.844, 7752.871
379.192, 7734.491
380.540, 7402.510
381.889, 6154.442
383.236, 4910.087
384.584, 3874.373
385.932, 2950.658
387.279, 2276.942
388.626, 1770.224
389.973, 1491.502
391.319, 1213.784
392.666, 1107.067
394.012, 1028.286
395.358, 1026.034
396.704, 964.373
398.049, 1006.446
399.394, 1202.993
400.740, 1270.348
402.084, 1600.448
403.429, 2155.082
404.774, 2992.228
406.118, 4574.858
407.462, 7458.985
408.806, 12520.403
410.150, 20397.766
411.493, 30682.299
412.836, 44009.645
414.179, 46495.980
415.522, 36574.285
416.865, 24327.578
418.207, 14991.946
419.549, 10064.210
420.891, 7278.456
422.233, 6378.695
423.575, 6480.911
424.916, 6733.110
426.257, 7827.292
427.598, 7694.459
428.939, 7078.613
430.279, 5643.751
431.619, 4149.875
432.959, 3052.981
434.299, 2191.081
435.639, 1822.177
436.978, 1347.255
438.318, 1097.319
439.657, 997.367
440.996, 840.409
442.334, 774.453
443.673, 635.482
445.011, 577.515
446.349, 561.535
447.687, 555.554
449.024, 637.560
450.361, 639.554
451.699, 569.542
453.036, 628.518
454.372, 597.490
455.709, 641.460
457.045, 673.421
458.381, 731.386
459.717, 770.342
461.053, 784.288
462.388, 684.231
463.724, 733.075
465.059, 731.733
466.394, 785.247
467.728, 898.520
469.063, 1193.466
470.397, 1422.577
471.731, 1997.468
473.065, 2559.532
474.398, 3551.669
475.732, 4465.066
477.065, 5405.951
478.398, 6035.839
479.731, 5904.728
481.063, 5333.617
482.396, 4418.507
483.728, 3265.395
485.060, 2589.286
486.391, 1884.182
487.723, 1416.081
489.054, 1067.984
490.385, 766.895
491.716, 608.682
493.047, 511.202
494.377, 328.255
495.708, 321.360
497.038, 242.580
498.368, 211.158
499.697, 119.299
501.027, 62.584
502.356, 104.440
503.685, 60.191
505.014, 34.540
506.342, 29.167
507.671, 56.315
508.999, 2.174
510.327, 10.701
511.655, 3.233
512.982, 22.736
514.310, 17.142
515.637, 62.524
516.964, 66.779
518.291, 65.950
519.617, 14.147
520.944, 21.355
522.270, 31.424
523.596, 62.804
524.921, 101.944
526.247, 40.686
527.572, 57.422
528.897, 141.158
530.222, 120.894
531.547, 197.633
532.871, 240.631
534.196, 397.397
535.520, 420.315
536.844, 476.451
538.167, 580.391
539.491, 604.587
540.814, 525.779
542.137, 533.286
543.460, 470.678
544.783, 384.275
546.105, 290.828
547.427, 281.292
548.749, 230.437
550.071, 167.890
551.393, 197.964
552.714, 94.073
554.035, 130.242
555.356, 123.518
556.677, 34.201
557.998, 80.768
559.318, 67.970
560.638, 83.525
561.958, 96.722
563.278, 47.794
564.597, 47.064
565.917, 78.414
567.236, 74.002
568.555, 114.383
569.874, 43.188
571.192, 131.299
572.511, 103.218
573.829, 121.263
575.147, 154.534
576.464, 76.300
577.782, 139.355
579.099, 112.294
580.416, 140.982
581.733, 132.905
583.050, 145.085
584.366, 182.328
585.683, 168.411
586.999, 179.853
588.315, 171.600
589.630, 252.562
590.946, 280.451
592.261, 258.344
593.576, 359.246
594.891, 394.143
596.206, 429.620
597.520, 533.521
598.834, 642.630
600.148, 770.428
601.462, 968.491
602.776, 1199.197
604.089, 1544.392
605.402, 1923.779
606.715, 2505.642
608.028, 3213.389
609.341, 4015.258
610.653, 4949.913
611.965, 5567.074
613.277, 5941.629
614.589, 5749.331
615.901, 5173.366
617.212, 4436.070
618.523, 3761.708
619.834, 3228.905
621.145, 3049.728
622.456, 2880.385
623.766, 2911.954
625.076, 3308.512
626.386, 3619.122
627.696, 4366.669
629.006, 5094.211
630.315, 5982.739
631.624, 7051.255
632.933, 7578.760
634.242, 8260.261
635.551, 8244.750
636.859, 8530.221
638.167, 8633.679
639.475, 8936.127
640.783, 9371.559
642.090, 9931.978
643.398, 10826.383
644.705, 11410.771
646.012, 12035.146
647.318, 12208.507
648.625, 11422.854
649.931, 10336.185
651.237, 8851.505
652.543, 7140.811
653.849, 5890.104
655.155, 4677.389
656.460, 3756.667
657.765, 3058.939
659.070, 2459.153
660.375, 1976.419
661.679, 1710.616
662.984, 1397.693
664.288, 1203.735
665.592, 1014.881
666.895, 864.737
668.199, 751.667
669.502, 643.485
670.805, 590.895
672.108, 528.432
673.411, 440.406
674.713, 398.169
676.016, 314.957
677.318, 304.503
678.620, 315.864
679.921, 194.760
681.223, 249.627
682.524, 150.650
683.825, 200.544
685.126, 162.480
686.427, 135.471
687.727, 173.432
689.028, 58.377
690.328, 196.304
691.628, 90.216
692.927, 46.110
694.227, 100.985
695.526, 49.844
696.825, 53.682
698.124, 22.502
699.423, 28.300
700.721, 19.077
702.020, 20.830
703.318, 24.560
704.616, 56.267
705.913, 0.044
707.211, 6.613
708.508, 59.242
709.805, 27.148
711.102, 33.416
712.399, 35.041
713.695, 21.298
714.992, 5.767
716.288, 15.811
717.584, 50.588
718.879, 71.034
720.175, 39.143
721.470, 11.703
722.765, 31.466
724.060, 12.309
725.355, 19.150
726.649, 8.222
727.944, 37.144
729.238, 66.883
730.532, 33.890
731.825, 35.124
733.119, 54.725
734.412, 6.360
735.705, 18.480
736.998, 76.356
738.291, 14.175
739.584, 16.968
740.876, 6.735
742.168, 2.035
743.460, 15.741
744.752, 10.420
746.043, 66.894
747.334, 21.416
748.626, 21.827
749.916, 56.901
751.207, 22.427
752.498, 55.169
753.788, 7.348
755.078, 33.699
756.368, 38.692
757.658, 32.795
758.947, 34.764
760.237, 10.938
761.526, 49.670
762.815, 69.970
764.104, 16.017
765.392, 97.686
766.680, 11.862
767.969, 4.592
769.257, 71.692
770.544, 19.215
771.832, 67.767
773.119, 79.795
774.406, 12.238
775.693, 50.236
776.980, 64.197
778.267, 122.195
779.553, 91.174
780.839, 69.085
782.125, 119.805
783.411, 80.683
784.697, 98.544
785.982, 133.396
787.267, 84.225
788.552, 173.397
789.837, 76.195
791.122, 148.977
792.406, 204.759
793.690, 127.510
794.974, 150.711
796.258, 155.431
797.542, 126.135
798.825, 157.825
800.108, 113.499
801.391, 172.159
802.674, 83.803
803.957, 103.434
805.239, 141.050
806.522, 91.651
807.804, 172.238
809.085, 158.812
810.367, 130.371
811.649, 172.916
812.930, 107.447
814.211, 168.965
815.492, 151.469
816.772, 125.961
818.053, 161.439
819.333, 79.905
820.613, 173.358
821.893, 206.800
823.173, 142.230
824.452, 243.649
825.732, 83.060
827.011, 160.461
828.290, 187.859
829.568, 174.256
830.847, 206.651
832.125, 140.038
833.403, 182.416
834.681, 244.782
835.959, 173.148
837.236, 263.503
838.514, 240.847
839.791, 224.180
841.068, 295.503
842.345, 272.815
843.621, 341.862
844.898, 325.154
846.174, 354.317
847.450, 399.286
848.726, 386.476
850.001, 446.444
851.277, 477.420
852.552, 436.072
853.827, 541.827
855.102, 480.362
856.376, 530.326
857.651, 583.400
858.925, 549.510
860.199, 651.131
861.473, 577.118
862.746, 520.056
864.020, 577.919
865.293, 463.665
866.566, 564.999
867.839, 517.453
869.112, 486.296
870.384, 476.792
871.656, 381.667
872.928, 348.672
874.200, 218.471
875.472, 230.180
876.744, 208.639
878.015, 122.293
879.286, 113.512
880.557, 212.412
881.828, 74.492
883.098, 123.434
884.369, 72.139
885.639, 49.339
886.909, 107.238
888.178, 35.243
889.448, 132.488
890.717, 16.489
891.987, 23.631
893.256, 36.883
894.524, 50.305
895.793, 52.126
897.061, 12.245
898.330, 15.862
899.598, 3.092
900.865, 46.033
902.133, 26.044
903.401, 74.871
904.668, 68.802
905.935, 15.081
907.202, 28.254
908.468, 18.710
909.735, 2.598
911.001, 53.558
912.267, 26.978
913.533, 35.686
914.799, 0.838
916.064, 23.881
917.330, 81.057
918.595, 42.959
919.860, 18.534
921.124, 29.433
922.389, 30.513
923.653, 73.879
924.918, 103.039
926.182, 15.978
927.445, 32.563
928.709, 59.216
929.972, 78.842
931.236, 1.829
932.499, 59.191
933.761, 53.841
935.024, 110.183
936.286, 6.208
937.549, 2.250
938.811, 71.304
940.073, 44.631
941.334, 128.432
942.596, 81.505
943.857, 0.590
945.118, 119.692
946.379, 21.193
947.640, 139.927
948.900, 70.061
950.161, 29.207
951.421, 162.364
952.681, 58.535
953.940, 114.717
955.200, 130.913
956.459, 89.121
957.719, 122.343
958.978, 80.580
960.236, 60.829
961.495, 242.093
962.753, 73.370
964.012, 225.662
965.270, 184.967
966.527, 174.288
967.785, 264.623
969.043, 111.981
970.300, 267.354
971.557, 277.743
972.814, 183.155
974.071, 409.583
975.327, 290.025
976.583, 366.484
977.840, 458.959
979.095, 364.451
980.351, 457.959
981.607, 489.483
982.862, 475.024
984.117, 657.582
985.372, 625.155
986.627, 667.747
987.882, 786.355
989.136, 821.982
990.390, 951.626
991.644, 1112.289
992.898, 1201.982
994.152, 1421.694
995.405, 1527.426
996.659, 1898.188
997.912, 1960.968
999.165, 2230.771
1000.417, 2597.594
1001.670, 2662.438
1002.922, 2937.305
1004.174, 2910.195
1005.426, 2680.107
1006.678, 2525.053
1007.930, 2232.021
1009.181, 1874.012
1010.432, 1751.024
1011.683, 1450.064
1012.934, 1493.152
1014.185, 1365.261
1015.435, 1254.404
1016.685, 1316.598
1017.935, 1302.828
1019.185, 1326.099
1020.435, 1343.407
1021.684, 1312.747
1022.934, 1482.142
1024.183, 1480.585
1025.432, 1521.050
1026.680, 1676.566
1027.929, 1686.118
1029.177, 1793.703
1030.425, 1951.339
1031.673, 2075.006
1032.921, 2320.723
1034.169, 2356.468
1035.416, 2613.238
1036.663, 2889.075
1037.911, 3173.935
1039.157, 3591.827
1040.404, 4052.770
1041.650, 4381.737
1042.897, 5203.731
1044.143, 5825.751
1045.389, 6731.237
1046.634, 8093.315
1047.880, 9510.423
1049.125, 11415.735
1050.371, 14035.850
1051.615, 17187.055
1052.860, 21434.121
1054.105, 26856.512
1055.349, 33175.586
1056.593, 40777.930
1057.837, 46009.102
1059.081, 50854.523
1060.325, 50973.832
1061.568, 46387.098
1062.812, 39998.613
1064.055, 31916.812
1065.298, 25036.328
1066.540, 19210.107
1067.783, 14747.273
1069.025, 11695.943
1070.267, 9408.066
1071.509, 7657.818
1072.751, 6543.585
1073.993, 5415.461
1075.234, 4847.298
1076.475, 4224.728
1077.716, 3699.607
1078.957, 3708.533
1080.198, 3375.428
1081.438, 3382.350
1082.679, 3317.348
1083.919, 3211.550
1085.159, 3448.602
1086.398, 3486.681
1087.638, 3986.951
1088.877, 4635.083
1090.116, 4590.878
1091.355, 5155.061
1092.594, 5910.267
1093.833, 6837.053
1095.071, 8347.308
1096.309, 10284.120
1097.547, 11766.511
1098.785, 14095.842
1100.023, 15663.199
1101.260, 16661.582
1102.498, 16439.990
1103.735, 14902.430
1104.972, 13347.889
1106.208, 11008.371
1107.445, 9089.039
1108.681, 7523.572
1109.918, 6018.128
1111.154, 5216.711
1112.389, 4359.316
1113.625, 3867.947
1114.860, 3463.626
1116.096, 3071.329
1117.331, 2894.785
1118.566, 2702.535
1119.800, 2626.309
1121.035, 2679.791
1122.269, 2606.612
1123.503, 2797.458
1124.737, 3038.327
1125.971, 2955.219
1127.205, 3390.135
1128.438, 3738.082
1129.671, 4207.051
1130.904, 5163.043
1132.137, 6070.059
1133.370, 7206.097
1134.602, 8690.156
1135.834, 9336.241
1137.066, 9983.389
1138.298, 9515.511
1139.530, 8324.658
1140.762, 7037.989
1141.993, 5656.179
1143.224, 4707.388
1144.455, 3772.242
1145.686, 3098.493
1146.917, 2693.439
1148.147, 2215.731
1149.377, 1893.044
1150.607, 1801.476
1151.837, 1398.828
1153.067, 1353.199
1154.296, 1255.082
1155.526, 1020.491
1156.755, 1109.921
1157.984, 907.555
1159.213, 862.022
1160.441, 1001.562
1161.670, 729.065
1162.898, 829.585
1164.126, 765.425
1165.354, 630.981
1166.581, 788.427
1167.809, 624.048
1169.036, 614.655
1170.263, 642.855
1171.490, 549.656
1172.717, 537.310
1173.943, 559.928
1175.170, 349.612
1176.396, 520.312
1177.622, 354.684
1178.848, 377.412
1180.073, 426.410
1181.299, 268.722
1182.524, 476.491
1183.749, 757.898
1184.974, 711.692
1186.199, 851.499
1187.423, 839.357
1188.648, 648.188
1189.872, 416.056
1191.096, 41.998
1192.320, 238.862
1193.543, 208.894
1194.767, 22.792
1195.990, 212.701
1197.213, 88.842
1198.436, 21.776
1199.659, 195.721
1200.881, 8.836
1202.104, 191.131
1203.326, 103.479
1204.548, 122.479
1205.770, 208.495
1206.991, 106.210
1208.213, 146.243
1209.434, 241.295
1210.655, 106.565
1211.876, 288.639
1213.096, 260.722
1214.317, 181.315
1215.537, 374.432
1216.757, 149.638
1217.977, 260.773
1219.197, 303.919
1220.417, 198.687
1221.636, 315.860
1222.855, 273.039
1224.074, 102.527
1225.293, 249.727
1226.512, 90.938
1227.731, 187.169
1228.949, 207.407
1230.167, 84.975
1231.385, 172.239
1232.603, 133.502
1233.820, 10.239
1235.038, 204.038
1236.255, 45.327
1237.472, 76.862
1238.689, 76.171
1239.906, 46.508
1241.122, 85.816
1242.338, 160.151
1243.555, 4.860
1244.771, 140.496
1245.986, 18.863
1247.202, 47.397
1248.417, 152.783
1249.633, 43.217
1250.848, 119.632
1252.063, 124.028
1253.277, 7.566
1254.492, 161.847
1255.706, 66.268
1256.920, 48.174
1258.134, 146.612
1259.348, 13.058
1260.562, 73.066
1261.775, 120.509
1262.988, 38.056
1264.201, 153.479
1265.414, 92.909
1266.627, 35.540
1267.839, 76.879
1269.052, 58.303
1270.264, 48.782
1271.476, 111.188
1272.688, 21.562
1273.899, 108.051
1275.111, 54.353
1276.322, 29.655
1277.533, 149.205
1278.744, 28.466
1279.955, 35.714
1281.165, 144.954
1282.376, 2.153
1283.586, 52.325
1284.796, 76.498
1286.006, 50.331
1287.215, 114.826
1288.425, 22.960
1289.634, 39.905
1290.843, 182.386
1292.052, 6.536
1293.261, 55.523
1294.469, 129.581
1295.678, 12.364
1296.886, 98.766
1298.094, 52.773
1299.302, 33.222
1300.509, 141.812
1301.717, 23.774
1302.924, 6.731
1304.131, 175.684
1305.338, 71.380
1306.545, 78.519
1307.752, 88.413
1308.958, 89.701
1310.164, 174.152
1311.370, 50.009
1312.576, 20.194
1313.782, 112.610
1314.987, 107.613
1316.193, 15.121
1317.398, 162.845
1318.603, 48.447
1319.807, 139.174
1321.012, 93.782
1322.216, 42.624
1323.421, 162.939
1324.625, 19.513
1325.829, 7.989
1327.032, 144.488
1328.236, 88.052
1329.439, 59.367
1330.642, 164.773
1331.845, 45.833
1333.048, 119.532
1334.251, 33.884
1335.453, 30.221
1336.656, 152.545
1337.858, 28.855
1339.060, 117.152
1340.261, 144.437
1341.463, 30.291
1342.664, 163.955
1343.866, 183.188
1345.067, 49.590
1346.267, 208.493
1347.468, 0.670
1348.669, 66.828
1349.869, 164.975
1351.069, 3.887
1352.269, 134.234
1353.469, 95.348
1354.668, 34.456
1355.868, 218.557
1357.067, 96.652
1358.266, 15.257
1359.465, 241.820
1360.664, 8.105
1361.862, 127.960
1363.061, 182.026
1364.259, 0.097
1365.457, 168.166
1366.655, 122.244
1367.852, 6.333
1369.050, 175.430
1370.247, 86.803
1371.444, 107.946
1372.641, 143.122
1373.838, 8.338
1375.035, 66.340
1376.231, 191.239
1377.427, 17.074
1378.623, 162.432
1379.819, 123.958
1381.015, 49.867
1382.211, 234.373
1383.406, 108.781
1384.601, 83.268
1385.796, 276.745
1386.991, 37.216
1388.185, 116.508
1389.380, 173.965
1390.574, 23.414
1391.768, 149.803
1392.962, 83.244
1394.156, 87.691
1395.350, 260.019
1396.543, 145.337
1397.736, 104.636
1398.929, 233.917
1400.122, 57.188
1401.315, 214.453
1402.507, 205.658
1403.700, 48.966
1404.892, 248.243
1406.084, 179.161
1407.276, 88.469
1408.467, 296.209
1409.659, 89.336
1410.850, 203.203
1412.041, 322.037
1413.232, 89.361
1414.423, 267.356
1415.614, 194.739
1416.804, 2.532
1417.994, 219.663
1419.184, 136.087
1420.374, 49.079
1421.564, 295.347
1422.753, 112.533
1423.943, 140.668
1425.132, 251.117
1426.321, 92.242
1427.510, 212.388
1428.698, 265.421
1429.887, 73.353
1431.075, 307.337
1432.263, 166.402
1433.451, 30.068
1434.639, 310.743
1435.827, 97.773
1437.014, 123.610
1438.201, 274.066
1439.388, 35.442
1440.575, 211.417
1441.762, 228.056
1442.949, 37.681
1444.135, 339.779
1445.321, 211.249
1446.507, 76.674
1447.693, 308.439
1448.879, 71.766
1450.064, 73.980
1451.250, 316.642
1452.435, 96.693
1453.620, 274.261
1454.805, 300.083
1455.989, 39.208
1457.174, 316.645
1458.358, 242.149
1459.542, 129.528
1460.726, 359.625
1461.910, 115.025
1463.093, 164.805
1464.277, 341.233
1465.460, 112.515
1466.643, 264.840
1467.826, 335.379
1469.009, 85.149
1470.191, 220.096
1471.373, 272.896
1472.556, 128.791
1473.738, 339.849
1474.919, 146.791
1476.101, 114.752
1477.283, 344.156
1478.464, 108.227
1479.645, 179.897
1480.826, 275.000
1482.007, 66.924
1483.187, 242.999
1484.368, 242.106
1485.548, 75.168
1486.728, 340.183
1487.908, 184.117
1489.088, 120.136
1490.268, 369.139
1491.447, 143.748
1492.626, 114.448
1493.805, 268.261
1494.984, 53.500
1496.163, 244.892
1497.341, 222.417
1498.520, 50.121
1499.698, 232.036
1500.876, 148.183
1502.054, 42.591
1503.232, 394.312
1504.409, 100.436
1505.586, 157.029
1506.763, 372.113
1507.940, 104.735
1509.117, 200.986
1510.294, 251.997
1511.470, 12.059
1512.647, 225.026
1513.823, 305.524
1514.999, 116.856
1516.174, 324.625
1517.350, 169.591
1518.526, 0.000
##END=



