##NAMES=Leucophanite
##RRUFFID=R050004
##IDEAL CHEMISTRY=NaCaBeSi_2_O_6_F
##LOCALITY=Langesundfjord, Norway
##OWNER=RRUFF
##SOURCE=University of Arizona Mineral Museum
##DESCRIPTION=Pale green massive
##STATUS=The identification of this mineral has been confirmed by X-ray diffraction and chemical analysis
##URL=rruff.info/R050004
##MEASURED CHEMISTRY=Ca_1.00_Ca_1.00_Na_2.00_Be_2.00_Si_4.00_O_12_(F_0.96_(OH)_0.04_)_2_
##PIN_ID=M00469
##ORIENTATION=Laser parallel to -c* (0 0 -1). Fiducial mark perpendicular to laser is parallel to -a [-1 0 0]
60.426, 0.000
61.830, 12.970
63.234, 67.749
64.637, 56.863
66.041, 44.838
67.444, 96.428
68.847, 73.871
70.250, 121.748
71.652, 95.239
73.054, 25.490
74.456, 5.534
75.858, 0.874
77.260, 10.575
78.661, 11.677
80.062, 14.221
81.463, 49.757
82.863, 83.225
84.264, 84.148
85.664, 181.493
87.064, 222.232
88.463, 371.341
89.863, 374.797
91.262, 495.582
92.661, 635.678
94.059, 686.068
95.458, 839.738
96.856, 809.674
98.254, 1015.866
99.652, 953.301
101.049, 1063.969
102.446, 1121.862
103.843, 1128.967
105.240, 1234.267
106.637, 1141.747
108.033, 1500.391
109.429, 1485.698
110.825, 1495.858
112.220, 1675.246
113.616, 1398.496
115.011, 1455.893
116.406, 1298.432
117.800, 1390.108
119.195, 1251.917
120.589, 1357.853
121.983, 1360.913
123.377, 1298.093
124.770, 1355.389
126.163, 1216.798
127.556, 1366.317
128.949, 1202.945
130.342, 1192.679
131.734, 1251.519
133.126, 1118.462
134.518, 1274.506
135.909, 1074.649
137.301, 1276.888
138.692, 1148.221
140.083, 1221.646
141.473, 1201.160
142.864, 1179.762
144.254, 1248.442
145.644, 1085.174
147.034, 1338.940
148.423, 1203.723
149.812, 1402.526
151.201, 1486.325
152.590, 1478.110
153.979, 1706.894
155.367, 1464.704
156.755, 1614.601
158.143, 1351.575
159.530, 1455.595
160.918, 1383.678
162.305, 1200.833
163.692, 1265.087
165.078, 1008.475
166.465, 1241.948
167.851, 1107.471
169.237, 1257.063
170.623, 1273.714
172.008, 1117.410
173.393, 1186.148
174.778, 963.931
176.163, 1044.756
177.548, 855.626
178.932, 866.539
180.316, 946.494
181.700, 753.493
183.083, 936.533
184.467, 748.617
185.850, 895.743
187.233, 718.910
188.616, 793.119
189.998, 817.369
191.380, 634.661
192.762, 888.999
194.144, 698.382
195.525, 856.817
196.907, 799.311
198.288, 830.859
199.669, 903.472
201.049, 823.134
202.429, 991.835
203.810, 782.577
205.189, 942.359
206.569, 674.178
207.949, 734.038
209.328, 829.937
210.707, 686.875
212.085, 782.859
213.464, 576.877
214.842, 732.928
216.220, 662.010
217.598, 618.120
218.976, 767.255
220.353, 560.416
221.730, 733.602
223.107, 578.811
224.483, 592.044
225.860, 681.304
227.236, 585.210
228.612, 736.832
229.988, 504.360
231.363, 713.479
232.738, 490.344
234.113, 614.058
235.488, 624.414
236.863, 435.480
238.237, 737.022
239.611, 452.151
240.985, 664.386
242.359, 546.342
243.732, 543.201
245.105, 672.283
246.478, 428.577
247.851, 663.774
249.223, 496.031
250.595, 602.644
251.967, 589.050
253.339, 530.024
254.711, 623.563
256.082, 469.152
257.453, 662.567
258.824, 488.275
260.195, 526.247
261.565, 582.074
262.935, 405.394
264.305, 637.504
265.675, 424.480
267.044, 669.047
268.414, 602.123
269.783, 663.240
271.151, 703.396
272.520, 594.665
273.888, 847.011
275.256, 504.286
276.624, 678.235
277.992, 607.610
279.359, 465.020
280.726, 640.542
282.093, 361.019
283.460, 597.675
284.827, 359.214
286.193, 406.780
287.559, 492.377
288.925, 319.006
290.290, 505.883
291.656, 317.585
293.021, 430.312
294.386, 333.064
295.750, 353.843
297.115, 532.644
298.479, 350.486
299.843, 575.350
301.207, 380.237
302.570, 549.149
303.933, 543.079
305.296, 578.040
306.659, 868.019
308.022, 878.019
309.384, 1470.039
310.746, 1491.076
312.108, 1784.150
313.470, 1956.240
314.831, 1565.350
316.193, 1518.480
317.554, 942.625
318.914, 918.792
320.275, 627.055
321.635, 479.255
322.995, 566.341
324.355, 294.572
325.715, 407.819
327.074, 273.040
328.434, 333.315
329.792, 357.370
331.151, 231.668
332.510, 453.362
333.868, 229.160
335.226, 495.549
336.584, 323.213
337.941, 295.563
339.299, 479.399
340.656, 194.934
342.013, 430.311
343.370, 262.406
344.726, 343.800
346.082, 341.876
347.438, 177.417
348.794, 442.959
350.150, 121.075
351.505, 394.504
352.860, 288.877
354.215, 386.466
355.570, 577.431
356.924, 506.461
358.278, 1047.919
359.632, 1116.103
360.986, 1693.568
362.339, 1855.239
363.693, 1559.296
365.046, 1490.773
366.399, 844.918
367.751, 790.399
369.104, 490.028
370.456, 350.514
371.808, 423.000
373.159, 184.489
374.511, 355.978
375.862, 164.468
377.213, 235.957
378.564, 180.448
379.914, 98.938
381.265, 331.427
382.615, 100.915
383.965, 285.403
385.315, 151.889
386.664, 34.771
388.013, 205.254
389.362, 4.682
390.711, 205.400
392.060, 13.117
393.408, 148.542
394.756, 173.030
396.104, 33.806
397.451, 231.522
398.799, 33.891
400.146, 138.762
401.493, 84.592
402.840, 53.104
404.186, 224.634
405.533, 8.396
406.879, 268.819
408.225, 24.695
409.570, 130.250
410.916, 167.797
412.261, 93.744
413.606, 235.784
414.951, 77.217
416.295, 160.450
417.639, 92.983
418.983, 30.276
420.327, 241.922
421.671, 65.093
423.014, 89.157
424.357, 45.035
425.700, 79.398
427.043, 153.833
428.386, 138.108
429.728, 121.312
431.070, 72.281
432.412, 106.026
433.753, 24.094
435.095, 30.616
436.436, 142.915
437.777, 61.545
439.118, 173.437
440.458, 124.742
441.798, 47.258
443.138, 226.740
444.478, 35.486
445.818, 253.051
447.157, 111.650
448.496, 80.952
449.835, 200.927
451.174, 31.425
452.513, 310.083
453.851, 125.520
455.189, 218.566
456.527, 231.594
457.864, 188.842
459.202, 506.742
460.539, 257.079
461.876, 510.180
463.212, 478.558
464.549, 584.553
465.885, 883.302
467.221, 742.277
468.557, 1213.567
469.893, 1103.184
471.228, 1166.116
472.563, 1083.045
473.898, 577.942
475.233, 824.777
476.567, 444.694
477.902, 517.543
479.236, 424.744
480.570, 134.557
481.903, 474.242
483.237, 0.292
484.570, 258.043
485.903, 173.475
487.235, 0.185
488.568, 296.379
489.900, 13.962
491.232, 285.678
492.564, 86.292
493.896, 25.118
495.227, 169.433
496.558, 21.041
497.889, 332.481
499.220, 77.979
500.551, 154.451
501.881, 220.906
503.211, 30.331
504.541, 292.736
505.870, 44.117
507.200, 176.465
508.529, 180.791
509.858, 48.087
511.187, 244.378
512.515, 14.643
513.844, 186.875
515.172, 101.090
516.500, 89.273
517.827, 293.427
519.155, 0.554
520.482, 385.635
521.809, 190.696
523.136, 101.724
524.462, 424.721
525.789, 87.688
527.115, 348.622
528.441, 217.574
529.766, 429.493
531.092, 678.382
532.417, 424.243
533.742, 841.071
535.067, 643.880
536.391, 716.652
537.716, 727.395
539.040, 485.109
540.364, 693.788
541.688, 298.472
543.011, 486.118
544.334, 324.732
545.657, 194.316
546.980, 396.858
548.303, 68.396
549.625, 240.889
550.947, 412.344
552.269, 39.620
553.591, 326.992
554.913, 41.671
556.234, 258.583
557.555, 13.796
558.876, 47.417
560.197, 241.547
561.517, 18.363
562.837, 322.652
564.157, 36.625
565.477, 167.937
566.797, 252.810
568.116, 0.871
569.435, 341.929
570.754, 76.359
572.073, 99.966
573.391, 228.514
574.709, 50.444
576.027, 336.962
577.345, 34.683
578.663, 179.996
579.980, 232.210
581.297, 59.500
582.614, 272.386
583.931, 34.042
585.248, 160.404
586.564, 202.365
587.880, 36.039
589.196, 341.987
590.511, 16.730
591.827, 176.841
593.142, 123.335
594.457, 7.035
595.772, 301.108
597.086, 95.099
598.401, 110.767
599.715, 60.277
601.029, 68.375
602.343, 244.040
603.656, 50.014
604.969, 278.281
606.282, 109.299
607.595, 28.479
608.908, 299.649
610.220, 39.750
611.532, 312.646
612.844, 165.726
614.156, 169.664
615.468, 355.703
616.779, 26.728
618.090, 332.986
619.401, 149.217
620.712, 81.827
622.022, 433.231
623.332, 9.142
624.642, 425.938
625.952, 102.095
627.262, 261.540
628.571, 433.583
629.880, 25.342
631.189, 477.193
632.498, 203.069
633.807, 180.495
635.115, 501.852
636.423, 109.891
637.731, 541.194
639.039, 229.211
640.346, 378.640
641.653, 496.345
642.960, 279.651
644.267, 634.177
645.574, 329.881
646.880, 498.808
648.186, 682.457
649.492, 472.657
650.798, 791.910
652.103, 539.458
653.409, 729.102
654.714, 956.931
656.019, 708.409
657.323, 1256.514
658.628, 1010.545
659.932, 1501.061
661.236, 1653.201
662.540, 1801.538
663.843, 2523.340
665.147, 2780.117
666.450, 3681.909
667.753, 4859.637
669.056, 5901.752
670.358, 7983.612
671.660, 9778.043
672.963, 12179.260
674.264, 14011.648
675.566, 13583.541
676.868, 13043.517
678.169, 10696.978
679.470, 8857.792
680.771, 7249.703
682.071, 5561.249
683.372, 4962.187
684.672, 3854.970
685.972, 3555.746
687.271, 3227.436
688.571, 2519.014
689.870, 2779.938
691.169, 2176.609
692.468, 2423.434
693.767, 2365.155
695.065, 2113.684
696.364, 2637.056
697.662, 2446.504
698.960, 2726.153
700.257, 3187.157
701.555, 3138.387
702.852, 4037.646
704.149, 3924.807
705.446, 3963.714
706.742, 4053.638
708.038, 3284.108
709.335, 3312.207
710.631, 2412.752
711.926, 2277.360
713.222, 1746.378
714.517, 1172.940
715.812, 1498.311
717.107, 884.739
718.402, 991.090
719.696, 844.782
720.990, 478.188
722.284, 820.825
723.578, 542.117
724.872, 525.879
726.165, 712.203
727.458, 358.641
728.751, 676.215
730.044, 345.754
731.336, 605.719
732.629, 611.490
733.921, 315.081
735.213, 666.679
736.504, 275.421
737.796, 396.244
739.087, 590.639
740.378, 184.514
741.669, 570.295
742.960, 275.426
744.250, 286.100
745.540, 580.968
746.830, 241.730
748.120, 610.941
749.410, 307.410
750.699, 454.811
751.988, 669.095
753.277, 235.938
754.566, 558.209
755.854, 384.163
757.143, 505.865
758.431, 741.994
759.719, 337.234
761.006, 745.435
762.294, 575.078
763.581, 562.148
764.868, 705.702
766.155, 228.688
767.442, 531.414
768.728, 311.448
770.014, 274.020
771.300, 613.464
772.586, 74.260
773.872, 424.444
775.157, 318.271
776.442, 113.791
777.727, 458.789
779.012, 19.579
780.297, 367.446
781.581, 283.046
782.865, 124.617
784.149, 595.773
785.433, 218.927
786.716, 366.680
787.999, 459.491
789.282, 45.639
790.565, 527.704
791.848, 209.137
793.130, 244.135
794.413, 388.854
795.695, 98.875
796.977, 631.155
798.258, 83.767
799.540, 274.316
800.821, 435.811
802.102, 9.369
803.382, 579.559
804.663, 220.922
805.943, 111.522
807.224, 414.322
808.504, 91.262
809.783, 434.255
811.063, 153.843
812.342, 42.685
813.621, 611.408
814.900, 19.990
816.179, 378.430
817.457, 326.995
818.736, 205.198
820.014, 424.553
821.292, 47.145
822.569, 341.692
823.847, 161.862
825.124, 9.983
826.401, 379.965
827.678, 68.521
828.954, 306.192
830.231, 336.117
831.507, 22.992
832.783, 461.273
834.059, 89.641
835.334, 296.411
836.610, 264.895
837.885, 137.503
839.160, 389.673
840.435, 188.481
841.709, 194.816
842.983, 332.110
844.258, 0.973
845.532, 554.229
846.805, 81.173
848.079, 106.146
849.352, 361.996
850.625, 102.277
851.898, 492.151
853.171, 148.233
854.443, 73.143
855.715, 428.097
856.988, 75.436
858.259, 338.251
859.531, 242.710
860.803, 146.714
862.074, 409.988
863.345, 83.632
864.616, 216.623
865.886, 349.500
867.157, 67.762
868.427, 474.789
869.697, 157.221
870.967, 229.502
872.236, 361.662
873.506, 63.684
874.775, 405.070
876.044, 306.813
877.313, 248.181
878.581, 569.350
879.849, 60.693
881.118, 460.927
882.386, 332.020
883.653, 42.380
884.921, 573.207
886.188, 65.557
887.455, 404.963
888.722, 395.400
889.989, 45.603
891.255, 704.957
892.522, 124.999
893.788, 213.227
895.054, 382.915
896.319, 38.776
897.585, 299.417
898.850, 78.698
900.115, 13.569
901.380, 335.484
902.645, 176.826
903.909, 261.212
905.174, 229.760
906.438, 83.352
907.701, 494.667
908.965, 98.180
910.229, 100.854
911.492, 88.629
912.755, 32.791
914.018, 475.037
915.280, 182.136
916.543, 391.044
917.805, 458.094
919.067, 64.863
920.329, 532.965
921.590, 138.269
922.852, 85.604
924.113, 532.251
925.374, 73.503
926.635, 414.152
927.895, 148.720
929.156, 94.307
930.416, 410.447
931.676, 62.496
932.936, 259.546
934.195, 393.728
935.454, 121.795
936.714, 356.278
937.973, 30.335
939.231, 156.237
940.490, 501.521
941.748, 66.408
943.006, 302.603
944.264, 224.646
945.522, 49.487
946.780, 574.974
948.037, 43.428
949.294, 512.839
950.551, 425.903
951.808, 49.265
953.064, 544.641
954.320, 3.706
955.577, 348.723
956.832, 501.950
958.088, 7.156
959.344, 728.240
960.599, 411.095
961.854, 604.275
963.109, 1147.550
964.364, 747.343
965.618, 1252.019
966.872, 1132.883
968.127, 695.029
969.380, 950.555
970.634, 451.091
971.888, 673.896
973.141, 500.561
974.394, 151.214
975.647, 614.803
976.900, 133.256
978.152, 444.361
979.404, 625.822
980.656, 56.032
981.908, 756.338
983.160, 386.120
984.411, 336.122
985.663, 685.592
986.914, 243.734
988.165, 422.225
989.415, 459.856
990.666, 37.242
991.916, 596.023
993.166, 333.730
994.416, 390.451
995.665, 817.090
996.915, 315.931
998.164, 751.859
999.413, 510.102
1000.662, 507.608
1001.911, 986.698
1003.159, 336.409
1004.407, 581.553
1005.655, 540.592
1006.903, 149.277
1008.151, 979.285
1009.398, 548.346
1010.646, 623.363
1011.893, 1051.035
1013.139, 647.758
1014.386, 1321.918
1015.633, 1419.186
1016.879, 1405.340
1018.125, 2624.734
1019.371, 2803.461
1020.616, 4157.266
1021.862, 5273.732
1023.107, 4759.418
1024.352, 4902.471
1025.597, 3379.176
1026.842, 2423.012
1028.086, 2287.607
1029.330, 1105.396
1030.574, 1487.094
1031.818, 1043.703
1033.062, 678.568
1034.305, 1100.656
1035.548, 397.488
1036.791, 810.314
1038.034, 1164.541
1039.277, 500.078
1040.519, 1551.361
1041.762, 1358.199
1043.004, 1311.158
1044.246, 2413.508
1045.487, 1885.889
1046.729, 3024.451
1047.970, 3287.758
1049.211, 2843.480
1050.452, 3551.566
1051.692, 2625.840
1052.933, 2217.545
1054.173, 2198.250
1055.413, 1031.939
1056.653, 1607.604
1057.893, 930.488
1059.132, 426.605
1060.371, 1056.211
1061.610, 297.338
1062.849, 726.031
1064.088, 957.018
1065.326, 339.555
1066.565, 849.676
1067.803, 460.861
1069.041, 412.145
1070.278, 991.012
1071.516, 272.406
1072.753, 742.477
1073.990, 751.014
1075.227, 237.727
1076.464, 1067.086
1077.700, 354.367
1078.936, 536.738
1080.173, 773.490
1081.408, 161.857
1082.644, 731.984
1083.880, 468.861
1085.115, 21.746
1086.350, 739.416
1087.585, 84.582
1088.820, 454.094
1090.054, 710.357
1091.288, 85.990
1092.522, 873.312
1093.756, 198.775
1094.990, 156.012
1096.224, 763.641
1097.457, 136.570
1098.690, 326.727
1099.923, 411.258
1101.156, 58.186
1102.388, 446.510
1103.621, 218.617
1104.853, 255.514
1106.085, 671.717
1107.316, 36.660
1108.548, 552.156
1109.779, 344.992
1111.010, 9.512
1112.241, 647.209
1113.472, 71.168
1114.703, 137.494
1115.933, 382.037
1117.163, 93.250
1118.393, 533.584
1119.623, 175.918
1120.853, 40.105
1122.082, 545.494
1123.311, 74.713
1124.540, 379.891
1125.769, 371.664
1126.997, 17.684
1128.226, 448.025
1129.454, 418.412
1130.682, 69.643
1131.910, 555.674
1133.138, 275.549
1134.365, 767.689
1135.592, 619.090
1136.819, 488.029
1138.046, 941.119
1139.273, 369.869
1140.499, 600.424
1141.725, 944.502
1142.951, 254.490
1144.177, 597.828
1145.403, 789.234
1146.628, 227.781
1147.854, 631.072
1149.079, 422.008
1150.304, 170.244
1151.528, 895.959
1152.753, 35.771
1153.977, 263.834
1155.201, 516.768
1156.425, 44.910
1157.649, 884.678
1158.872, 124.719
1160.096, 582.414
1161.319, 846.225
1162.542, 204.344
1163.764, 573.412
1164.987, 621.430
1166.209, 37.621
1167.431, 866.883
1168.653, 277.471
1169.875, 563.211
1171.097, 879.465
1172.318, 315.340
1173.539, 870.684
1174.760, 638.070
1175.981, 162.002
1177.202, 1077.789
1178.422, 274.246
1179.642, 527.689
1180.862, 876.473
1182.082, 240.973
1183.302, 652.121
1184.521, 627.725
1185.740, 270.027
1186.959, 902.469
1188.178, 231.676
1189.397, 542.824
1190.615, 747.047
1191.834, 885.637
1193.052, 794.398
1194.269, 522.561
1195.487, 35.221
1196.705, 1163.615
1197.922, 246.906
1199.139, 274.592
1200.356, 953.562
1201.573, 174.387
1202.789, 649.812
1204.006, 561.162
1205.222, 269.801
1206.438, 873.090
1207.653, 482.842
1208.869, 517.186
1210.084, 822.732
1211.299, 180.670
1212.514, 922.330
1213.729, 699.434
1214.944, 244.830
1216.158, 1246.350
1217.372, 213.467
1218.586, 434.906
1219.800, 1205.406
1221.014, 223.357
1222.227, 852.328
1223.440, 1043.623
1224.654, 16.396
1225.866, 1405.342
1227.079, 640.031
1228.292, 389.582
1229.504, 1261.168
1230.716, 334.094
1231.928, 1038.980
1233.139, 947.266
1234.351, 362.658
1235.562, 1439.307
1236.773, 830.096
1237.984, 429.143
1239.195, 1224.281
1240.406, 583.422
1241.616, 968.838
1242.826, 1063.580
1244.036, 281.469
1245.246, 1426.496
1246.456, 430.178
1247.665, 547.250
1248.874, 1449.201
1250.083, 602.232
1251.292, 879.037
1252.501, 1370.367
1253.709, 382.809
1254.917, 1467.396
1256.125, 1206.510
1257.333, 549.279
1258.541, 1392.494
1259.748, 781.389
1260.956, 1165.078
1262.163, 1012.809
1263.370, 510.678
1264.576, 1233.299
1265.783, 960.074
1266.989, 459.031
1268.195, 1399.787
1269.401, 652.322
1270.607, 801.840
1271.813, 1327.893
1273.018, 330.674
1274.223, 902.936
1275.428, 1347.031
1276.633, 121.674
1277.838, 1151.176
1279.042, 903.471
1280.246, 593.797
1281.450, 1308.500
1282.654, 380.623
1283.858, 890.535
1285.061, 962.082
1286.265, 143.867
1287.468, 792.258
1288.671, 381.441
1289.873, 363.230
1291.076, 1337.211
1292.278, 185.113
1293.480, 437.164
1294.682, 1268.500
1295.884, 14.770
1297.086, 966.977
1298.287, 541.176
1299.488, 123.305
1300.689, 1007.473
1301.890, 411.082
1303.091, 387.672
1304.291, 934.117
1305.491, 48.113
1306.691, 715.043
1307.891, 456.352
1309.091, 31.266
1310.290, 993.383
1311.490, 342.664
1312.689, 174.965
1313.888, 907.480
1315.086, 22.336
1316.285, 748.664
1317.483, 808.270
1318.681, 211.637
1319.879, 1016.883
1321.077, 502.969
1322.275, 392.402
1323.472, 930.633
1324.669, 86.879
1325.866, 544.109
1327.063, 880.910
1328.260, 326.289
1329.456, 861.078
1330.653, 486.195
1331.849, 128.859
1333.045, 922.719
1334.240, 316.383
1335.436, 29.117
1336.631, 1284.586
1337.826, 26.531
1339.021, 416.809
1340.216, 1045.367
1341.411, 72.621
1342.605, 1174.965
1343.799, 803.062
1344.993, 402.691
1346.187, 1498.625
1347.381, 266.078
1348.574, 582.688
1349.767, 1407.645
1350.961, 55.285
1352.153, 869.574
1353.346, 934.223
1354.539, 360.410
1355.731, 1311.539
1356.923, 467.477
1358.115, 450.641
1359.307, 1171.480
1360.498, 347.531
1361.690, 887.293
1362.881, 1497.570
1364.072, 249.328
1365.263, 1199.066
1366.453, 1160.504
1367.644, 368.453
1368.834, 1246.641
1370.024, 286.633
1371.214, 25.570
1372.404, 570.746
1373.593, 547.355
1374.783, 26.348
1375.972, 1122.281
1377.161, 309.094
1378.349, 1044.965
1379.538, 395.383
1380.726, 102.629
1381.915, 1778.863
1383.103, 253.336
1384.290, 739.734
1385.478, 1446.172
1386.665, 279.773
1387.853, 814.004
1389.040, 1161.832
1390.227, 255.809
1391.413, 1479.246
1392.600, 930.176
1393.786, 283.656
1394.972, 1775.008
1396.158, 543.906
1397.344, 622.789
1398.530, 1734.340
1399.715, 478.844
1400.900, 835.484
1402.085, 1222.160
1403.270, 329.309
1404.455, 1899.414
1405.639, 658.719
1406.824, 540.758
1408.008, 1454.453
1409.192, 708.387
1410.375, 667.977
1411.559, 1647.805
1412.742, 646.359
1413.925, 1377.480
1415.108, 1680.160
1416.291, 226.445
1417.474, 1699.453
1418.656, 1042.203
1419.839, 397.539
1421.021, 2002.953
1422.202, 325.945
1423.384, 1181.066
1424.566, 1951.645
1425.747, 333.500
1426.928, 1391.148
1428.109, 1457.438
1429.290, 340.180
1430.470, 2019.570
1431.651, 1140.586
1432.831, 716.895
1434.011, 1875.582
1435.191, 847.176
1436.370, 684.727
1437.550, 1638.797
1438.729, 666.273
1439.908, 1882.066
1441.087, 1593.711
1442.266, 368.984
1443.444, 2089.102
1444.623, 1335.691
1445.801, 471.102
1446.979, 2415.750
1448.157, 692.465
1449.334, 1215.621
1450.512, 1726.449
1451.689, 561.719
1452.866, 1620.680
1454.043, 1926.020
1455.220, 391.949
1456.396, 2258.352
1457.573, 1276.176
1458.749, 777.281
1459.925, 2365.379
1461.100, 1232.102
1462.276, 1223.859
1463.451, 2667.824
1464.627, 440.766
1465.802, 1584.602
1466.977, 2173.789
1468.151, 374.887
1469.326, 2119.020
1470.500, 1693.016
1471.674, 428.363
1472.848, 2646.762
1474.022, 1109.691
1475.195, 636.094
1476.369, 2803.867
1477.542, 276.633
1478.715, 1786.578
1479.888, 2255.559
1481.061, 327.316
1482.233, 1695.836
1483.405, 1832.211
1484.577, 634.508
1485.749, 2555.648
1486.921, 1046.113
1488.093, 921.789
1489.264, 2143.766
1490.435, 1151.492
1491.606, 908.914
1492.777, 1972.156
1493.948, 743.320
1495.118, 1888.652
1496.288, 1640.391
1497.459, 437.441
1498.628, 2404.762
1499.798, 1329.746
1500.968, 388.039
1502.137, 2226.242
1503.306, 911.012
1504.475, 1286.230
1505.644, 1841.078
1506.813, 565.840
1507.981, 1533.227
1509.149, 1704.738
1510.318, 58.359
1511.485, 2042.266
1512.653, 1203.844
1513.821, 334.895
1514.988, 1665.375
1516.155, 655.258
1517.322, 0.625
1518.489, 0.000
##END=



