##NAMES=Leucophanite
##RRUFFID=R050004
##IDEAL CHEMISTRY=NaCaBeSi_2_O_6_F
##LOCALITY=Langesundfjord, Norway
##OWNER=RRUFF
##SOURCE=University of Arizona Mineral Museum
##DESCRIPTION=Pale green massive
##STATUS=The identification of this mineral has been confirmed by X-ray diffraction and chemical analysis
##URL=rruff.info/R050004
##MEASURED CHEMISTRY=Ca_1.00_Ca_1.00_Na_2.00_Be_2.00_Si_4.00_O_12_(F_0.96_(OH)_0.04_)_2_
##PIN_ID=M00469
##ORIENTATION=Laser parallel to -c* (0 0 -1). Fiducial mark perpendicular to laser is parallel to -a [-1 0 0]
60.426, 0.000
61.830, 3.470
63.234, 2.807
64.637, 45.652
66.041, 14.521
67.444, 15.253
68.847, 43.400
70.250, 40.248
71.652, 61.411
73.054, 81.920
74.456, 101.650
75.858, 44.869
77.260, 24.500
78.661, 21.508
80.062, 41.032
81.463, 47.979
82.863, 1.009
84.264, 4.949
85.664, 19.150
87.064, 2.708
88.463, 3.476
89.863, 21.708
91.262, 7.001
92.661, 37.353
94.059, 53.759
95.458, 63.214
96.856, 56.671
98.254, 74.196
99.652, 80.809
101.049, 124.485
102.446, 154.155
103.843, 143.790
105.240, 172.397
106.637, 165.980
108.033, 353.542
109.429, 382.344
110.825, 358.114
112.220, 518.315
113.616, 288.013
115.011, 219.720
116.406, 225.458
117.800, 228.263
119.195, 207.178
120.589, 220.171
121.983, 185.310
123.377, 221.507
124.770, 196.504
126.163, 219.632
127.556, 203.821
128.949, 186.165
130.342, 175.844
131.734, 159.403
133.126, 199.950
134.518, 155.782
135.909, 193.513
137.301, 163.582
138.692, 154.292
140.083, 175.000
141.473, 195.392
142.864, 182.997
144.254, 167.148
145.644, 157.386
147.034, 144.621
148.423, 150.892
149.812, 180.181
151.201, 220.482
152.590, 220.781
153.979, 197.075
155.367, 179.408
156.755, 236.911
158.143, 289.384
159.530, 334.708
160.918, 275.948
162.305, 271.085
163.692, 256.549
165.078, 285.936
166.465, 298.320
167.851, 396.153
169.237, 595.028
170.623, 644.445
172.008, 638.241
173.393, 536.419
174.778, 322.034
176.163, 255.421
177.548, 146.644
178.932, 101.695
180.316, 94.702
181.700, 133.465
183.083, 80.198
184.467, 77.780
185.850, 93.346
187.233, 109.896
188.616, 81.428
189.998, 105.942
191.380, 63.439
192.762, 84.031
194.144, 72.050
195.525, 58.452
196.907, 80.094
198.288, 95.817
199.669, 142.794
201.049, 149.839
202.429, 162.011
203.810, 143.366
205.189, 114.852
206.569, 53.170
207.949, 24.298
209.328, 33.966
210.707, 47.287
212.085, 8.518
213.464, 26.750
214.842, 5.979
216.220, 60.392
217.598, 17.859
218.976, 41.435
220.353, 36.670
221.730, 51.884
223.107, 81.080
224.483, 94.256
225.860, 124.744
227.236, 157.586
228.612, 142.160
229.988, 111.722
231.363, 119.260
232.738, 149.563
234.113, 191.223
235.488, 229.294
236.863, 273.064
238.237, 344.185
239.611, 335.786
240.985, 328.453
242.359, 281.726
243.732, 236.709
245.105, 183.973
246.478, 162.146
247.851, 139.361
249.223, 117.026
250.595, 130.040
251.967, 90.036
253.339, 115.396
254.711, 99.032
256.082, 29.951
257.453, 59.984
258.824, 45.789
260.195, 50.440
261.565, 26.847
262.935, 10.812
264.305, 39.594
265.675, 16.983
267.044, 49.449
268.414, 3.874
269.783, 36.292
271.151, 11.696
272.520, 69.087
273.888, 58.462
275.256, 56.822
276.624, 60.166
277.992, 31.505
279.359, 1.167
280.726, 6.759
282.093, 1.209
283.460, 40.577
284.827, 14.146
286.193, 2.631
287.559, 44.606
288.925, 0.097
290.290, 31.203
291.656, 29.293
293.021, 1.304
294.386, 29.110
295.750, 19.563
297.115, 3.730
298.479, 47.779
299.843, 38.804
301.207, 49.802
302.570, 135.776
303.933, 130.724
305.296, 199.648
306.659, 289.551
308.022, 377.433
309.384, 459.298
310.746, 648.144
312.108, 751.971
313.470, 805.778
314.831, 722.564
316.193, 595.331
317.554, 419.077
318.914, 274.801
320.275, 243.505
321.635, 189.265
322.995, 134.364
324.355, 103.611
325.715, 103.708
327.074, 69.042
328.434, 63.136
329.792, 42.275
331.151, 40.480
332.510, 134.790
333.868, 128.031
335.226, 100.040
336.584, 111.766
337.941, 91.345
339.299, 103.607
340.656, 87.705
342.013, 77.013
343.370, 57.166
344.726, 64.258
346.082, 44.664
347.438, 44.073
348.794, 62.700
350.150, 57.190
351.505, 78.151
352.860, 79.612
354.215, 112.726
355.570, 142.567
356.924, 155.570
358.278, 322.538
359.632, 446.521
360.986, 597.865
362.339, 676.244
363.693, 608.211
365.046, 489.355
366.399, 326.182
367.751, 235.934
369.104, 140.522
370.456, 158.628
371.808, 154.980
373.159, 106.466
374.511, 228.842
375.862, 224.934
377.213, 423.198
378.564, 496.222
379.914, 503.521
381.265, 477.542
382.615, 415.729
383.965, 328.668
385.315, 234.864
386.664, 193.908
388.013, 128.005
389.362, 60.924
390.711, 63.844
392.060, 15.688
393.408, 0.188
394.756, 1.649
396.104, 11.485
397.451, 1.331
398.799, 35.101
400.146, 7.173
401.493, 37.505
402.840, 0.140
404.186, 20.730
405.533, 43.277
406.879, 4.218
408.225, 31.242
409.570, 26.659
410.916, 51.032
412.261, 21.528
413.606, 28.994
414.951, 49.594
416.295, 58.660
417.639, 52.855
418.983, 78.916
420.327, 101.099
421.671, 152.085
423.014, 218.161
424.357, 291.094
425.700, 406.954
427.043, 563.645
428.386, 798.740
429.728, 1047.690
431.070, 1222.478
432.412, 1243.468
433.753, 1150.583
435.095, 893.403
436.436, 736.254
437.777, 527.033
439.118, 397.082
440.458, 339.209
441.798, 225.321
443.138, 187.585
444.478, 127.885
445.818, 176.483
447.157, 192.609
448.496, 125.211
449.835, 131.223
451.174, 128.189
452.513, 169.915
453.851, 189.666
455.189, 182.450
456.527, 169.140
457.864, 234.299
459.202, 287.077
460.539, 359.083
461.876, 473.647
463.212, 568.469
464.549, 803.264
465.885, 1025.146
467.221, 1341.260
468.557, 1505.999
469.893, 1641.936
471.228, 1518.624
472.563, 1247.322
473.898, 1040.658
475.233, 791.966
476.567, 647.615
477.902, 511.790
479.236, 334.004
480.570, 295.238
481.903, 257.324
483.237, 172.355
484.570, 131.223
485.903, 161.776
487.235, 98.021
488.568, 147.989
489.900, 131.043
491.232, 108.416
492.564, 76.896
493.896, 87.548
495.227, 136.121
496.558, 196.525
497.889, 224.928
499.220, 346.196
500.551, 399.466
501.881, 403.627
503.211, 313.693
504.541, 294.629
505.870, 219.546
507.200, 191.328
508.529, 131.057
509.858, 82.808
511.187, 40.480
512.515, 31.182
513.844, 15.829
515.172, 35.556
516.500, 11.348
517.827, 6.135
519.155, 1.946
520.482, 3.669
521.809, 3.541
523.136, 9.055
524.462, 0.644
525.789, 29.171
527.115, 40.640
528.441, 8.949
529.766, 4.783
531.092, 31.392
532.417, 31.509
533.742, 35.298
535.067, 60.614
536.391, 28.383
537.716, 58.320
539.040, 40.198
540.364, 57.016
541.688, 33.778
543.011, 81.477
544.334, 28.114
545.657, 86.701
546.980, 80.202
548.303, 135.363
549.625, 125.180
550.947, 133.943
552.269, 156.439
553.591, 249.794
554.913, 371.106
556.234, 530.841
557.555, 696.032
558.876, 993.306
560.197, 1255.091
561.517, 1603.253
562.837, 1684.190
564.157, 1563.157
565.477, 1177.151
566.797, 917.808
568.116, 682.615
569.435, 526.335
570.754, 305.088
572.073, 310.649
573.391, 235.176
574.709, 140.721
576.027, 84.234
577.345, 37.651
578.663, 30.106
579.980, 53.593
581.297, 27.618
582.614, 30.087
583.931, 18.446
585.248, 7.652
586.564, 11.021
587.880, 30.543
589.196, 31.597
590.511, 2.950
591.827, 2.343
593.142, 34.060
594.457, 9.415
595.772, 15.119
597.086, 35.640
598.401, 22.583
599.715, 7.429
601.029, 11.327
602.343, 23.818
603.656, 4.428
604.969, 62.866
606.282, 19.752
607.595, 13.104
608.908, 52.919
610.220, 10.641
611.532, 5.536
612.844, 58.279
614.156, 104.705
615.468, 2.344
616.779, 38.415
618.090, 19.089
619.401, 106.244
620.712, 46.265
622.022, 129.995
623.332, 95.254
624.642, 45.343
625.952, 126.578
627.262, 70.791
628.571, 121.958
629.880, 110.833
631.189, 188.584
632.498, 186.561
633.807, 96.026
635.115, 200.820
636.423, 182.814
637.731, 169.424
639.039, 196.014
640.346, 200.094
641.653, 208.777
642.960, 242.240
644.267, 305.360
645.574, 326.268
646.880, 288.973
648.186, 465.347
649.492, 388.554
650.798, 496.679
652.103, 531.438
653.409, 551.765
654.714, 701.464
656.019, 671.726
657.323, 881.227
658.628, 934.935
659.932, 1156.926
661.236, 1278.586
662.540, 1556.846
663.843, 1892.399
665.147, 2323.300
666.450, 2931.645
667.753, 3758.939
669.056, 4717.826
670.358, 6297.356
671.660, 8058.067
672.963, 9598.438
674.264, 11209.109
675.566, 11070.040
676.868, 10279.883
678.169, 8534.393
679.470, 6914.001
680.771, 5564.030
682.071, 4420.636
683.372, 3618.620
684.672, 3056.576
685.972, 2572.560
687.271, 2363.998
688.571, 1923.653
689.870, 1814.806
691.169, 1624.059
692.468, 1545.210
693.767, 1493.464
695.065, 1517.413
696.364, 1573.338
697.662, 1655.019
698.960, 1676.015
700.257, 1984.425
701.555, 2024.493
702.852, 2309.975
704.149, 2439.788
705.446, 2351.304
706.742, 2429.431
708.038, 2106.667
709.335, 2004.948
710.631, 1626.456
711.926, 1301.083
713.222, 1087.496
714.517, 808.197
715.812, 809.048
717.107, 656.332
718.402, 583.174
719.696, 581.450
720.990, 520.029
722.284, 495.300
723.578, 588.332
724.872, 578.196
726.165, 655.339
727.458, 640.317
728.751, 675.737
730.044, 782.494
731.336, 704.773
732.629, 679.883
733.921, 645.934
735.213, 518.569
736.504, 425.326
737.796, 368.827
739.087, 359.855
740.378, 262.335
741.669, 285.900
742.960, 304.485
744.250, 174.041
745.540, 247.496
746.830, 192.955
748.120, 255.945
749.410, 250.297
750.699, 154.214
751.988, 248.194
753.277, 268.401
754.566, 243.457
755.854, 296.503
757.143, 304.881
758.431, 438.333
759.719, 508.990
761.006, 521.075
762.294, 698.493
763.581, 733.841
764.868, 705.470
766.155, 564.533
767.442, 567.218
768.728, 388.914
770.014, 305.998
771.300, 253.072
772.586, 114.805
773.872, 226.258
775.157, 241.503
776.442, 53.923
777.727, 148.631
779.012, 171.259
780.297, 118.960
781.581, 112.843
782.865, 108.614
784.149, 167.169
785.433, 180.324
786.716, 149.445
787.999, 180.989
789.282, 123.938
790.565, 71.790
791.848, 151.691
793.130, 137.979
794.413, 101.395
795.695, 109.734
796.977, 213.861
798.258, 67.769
799.540, 35.340
800.821, 115.070
802.102, 38.830
803.382, 155.792
804.663, 125.620
805.943, 20.188
807.224, 97.168
808.504, 48.222
809.783, 160.725
811.063, 147.639
812.342, 5.551
813.621, 227.297
814.900, 45.896
816.179, 120.343
817.457, 191.635
818.736, 57.848
820.014, 108.476
821.292, 50.647
822.569, 84.739
823.847, 139.417
825.124, 58.970
826.401, 137.815
827.678, 25.875
828.954, 11.473
830.231, 139.032
831.507, 61.490
832.783, 78.165
834.059, 56.618
835.334, 85.826
836.610, 41.043
837.885, 36.389
839.160, 38.742
840.435, 13.314
841.709, 29.304
842.983, 96.677
844.258, 81.902
845.532, 103.839
846.805, 24.969
848.079, 103.026
849.352, 65.758
850.625, 2.835
851.898, 231.038
853.171, 154.549
854.443, 31.467
855.715, 92.797
856.988, 12.828
858.259, 83.236
859.531, 140.300
860.803, 97.194
862.074, 82.931
863.345, 96.501
864.616, 129.902
865.886, 157.137
867.157, 63.204
868.427, 241.094
869.697, 112.825
870.967, 193.383
872.236, 302.772
873.506, 444.001
874.775, 492.070
876.044, 523.602
877.313, 537.688
878.581, 445.284
879.849, 412.728
881.118, 230.006
882.386, 157.119
883.653, 94.069
884.921, 50.277
886.188, 7.868
887.455, 55.165
888.722, 21.418
889.989, 28.193
891.255, 113.470
892.522, 128.539
893.788, 16.961
895.054, 137.451
896.319, 28.220
897.585, 65.381
898.850, 9.130
900.115, 67.515
901.380, 265.874
902.645, 30.927
903.909, 31.676
905.174, 114.494
906.438, 162.371
907.701, 229.988
908.965, 43.162
910.229, 6.990
911.492, 129.943
912.755, 74.106
914.018, 67.644
915.280, 140.659
916.543, 84.597
917.805, 147.781
919.067, 70.842
920.329, 224.578
921.590, 145.669
922.852, 42.669
924.113, 98.829
925.374, 51.800
926.635, 0.031
927.895, 80.079
929.156, 60.535
930.416, 11.224
931.676, 8.704
932.936, 68.104
934.195, 37.554
935.454, 68.531
936.714, 27.659
937.973, 21.919
939.231, 88.799
940.490, 141.359
941.748, 130.136
943.006, 70.217
944.264, 27.493
945.522, 84.095
946.780, 214.581
948.037, 27.995
949.294, 49.899
950.551, 158.238
951.808, 104.943
953.064, 183.039
954.320, 147.028
955.577, 24.227
956.832, 333.221
958.088, 198.682
959.344, 386.381
960.599, 483.057
961.854, 589.217
963.109, 879.189
964.364, 953.585
965.618, 1170.432
966.872, 1197.050
968.127, 842.583
969.380, 789.196
970.634, 654.400
971.888, 489.884
973.141, 476.753
974.394, 301.728
975.647, 537.038
976.900, 431.870
978.152, 346.725
979.404, 660.278
980.656, 393.212
981.908, 616.565
983.160, 526.588
984.411, 538.334
985.663, 561.067
986.914, 523.663
988.165, 454.309
989.415, 415.010
990.666, 325.126
991.916, 665.076
993.166, 535.978
994.416, 536.786
995.665, 808.072
996.915, 729.912
998.164, 709.167
999.413, 751.134
1000.662, 632.490
1001.911, 801.516
1003.159, 693.701
1004.407, 543.197
1005.655, 671.220
1006.903, 452.347
1008.151, 801.108
1009.398, 902.098
1010.646, 870.573
1011.893, 1250.864
1013.139, 1259.768
1014.386, 1457.822
1015.633, 2016.655
1016.879, 2525.368
1018.125, 3591.798
1019.371, 4981.788
1020.616, 6778.789
1021.862, 8696.407
1023.107, 8635.208
1024.352, 8153.867
1025.597, 5932.960
1026.842, 4041.656
1028.086, 3269.579
1029.330, 2179.226
1030.574, 1855.789
1031.818, 1583.163
1033.062, 970.965
1034.305, 1065.945
1035.548, 793.076
1036.791, 688.219
1038.034, 972.029
1039.277, 638.527
1040.519, 1242.480
1041.762, 1228.125
1043.004, 1103.568
1044.246, 1716.826
1045.487, 1562.266
1046.729, 1964.693
1047.970, 2268.775
1049.211, 1875.025
1050.452, 2173.094
1051.692, 1938.301
1052.933, 1361.070
1054.173, 1424.326
1055.413, 828.182
1056.653, 1141.188
1057.893, 734.912
1059.132, 548.232
1060.371, 849.932
1061.610, 592.773
1062.849, 716.551
1064.088, 837.777
1065.326, 581.488
1066.565, 723.846
1067.803, 715.166
1069.041, 518.535
1070.278, 938.371
1071.516, 680.729
1072.753, 621.621
1073.990, 1059.945
1075.227, 438.367
1076.464, 808.430
1077.700, 497.633
1078.936, 500.748
1080.173, 628.184
1081.408, 406.879
1082.644, 454.762
1083.880, 580.146
1085.115, 236.594
1086.350, 513.295
1087.585, 510.594
1088.820, 275.525
1090.054, 572.750
1091.288, 112.789
1092.522, 669.096
1093.756, 443.842
1094.990, 286.406
1096.224, 554.264
1097.457, 498.439
1098.690, 205.475
1099.923, 520.176
1101.156, 224.967
1102.388, 252.066
1103.621, 395.131
1104.853, 30.250
1106.085, 535.088
1107.316, 87.461
1108.548, 243.648
1109.779, 437.416
1111.010, 89.355
1112.241, 458.256
1113.472, 222.719
1114.703, 57.584
1115.933, 353.311
1117.163, 127.729
1118.393, 292.980
1119.623, 236.314
1120.853, 41.312
1122.082, 253.469
1123.311, 183.414
1124.540, 175.664
1125.769, 208.088
1126.997, 358.127
1128.226, 371.559
1129.454, 443.580
1130.682, 3.217
1131.910, 688.344
1133.138, 390.102
1134.365, 409.479
1135.592, 792.223
1136.819, 731.098
1138.046, 832.568
1139.273, 752.445
1140.499, 551.111
1141.725, 604.625
1142.951, 433.793
1144.177, 283.584
1145.403, 786.211
1146.628, 173.865
1147.854, 245.533
1149.079, 577.857
1150.304, 135.289
1151.528, 669.086
1152.753, 268.078
1153.977, 136.084
1155.201, 579.979
1156.425, 107.383
1157.649, 725.014
1158.872, 239.771
1160.096, 515.609
1161.319, 695.053
1162.542, 502.193
1163.764, 520.568
1164.987, 943.318
1166.209, 229.729
1167.431, 776.037
1168.653, 676.102
1169.875, 460.131
1171.097, 597.318
1172.318, 502.902
1173.539, 585.926
1174.760, 778.973
1175.981, 232.436
1177.202, 896.814
1178.422, 483.217
1179.642, 264.695
1180.862, 842.689
1182.082, 247.984
1183.302, 618.361
1184.521, 962.715
1185.740, 243.750
1186.959, 812.062
1188.178, 476.588
1189.397, 495.459
1190.615, 585.668
1191.834, 431.344
1193.052, 577.910
1194.269, 600.127
1195.487, 91.613
1196.705, 958.174
1197.922, 408.785
1199.139, 275.180
1200.356, 550.924
1201.573, 450.316
1202.789, 553.064
1204.006, 515.529
1205.222, 383.758
1206.438, 684.979
1207.653, 492.270
1208.869, 195.693
1210.084, 716.418
1211.299, 229.865
1212.514, 419.008
1213.729, 682.045
1214.944, 167.006
1216.158, 1015.465
1217.372, 290.035
1218.586, 114.621
1219.800, 1111.230
1221.014, 391.691
1222.227, 528.383
1223.440, 785.984
1224.654, 81.836
1225.866, 1088.998
1227.079, 637.531
1228.292, 221.781
1229.504, 1056.965
1230.716, 368.545
1231.928, 786.498
1233.139, 880.635
1234.351, 347.568
1235.562, 930.533
1236.773, 774.617
1237.984, 253.377
1239.195, 1254.918
1240.406, 727.250
1241.616, 590.301
1242.826, 960.496
1244.036, 514.877
1245.246, 1126.176
1246.456, 995.994
1247.665, 468.914
1248.874, 1347.242
1250.083, 795.254
1251.292, 876.500
1252.501, 1394.041
1253.709, 611.744
1254.917, 1231.127
1256.125, 1407.104
1257.333, 501.896
1258.541, 1200.092
1259.748, 1044.014
1260.956, 781.090
1262.163, 1034.779
1263.370, 759.705
1264.576, 1025.855
1265.783, 1028.109
1266.989, 410.455
1268.195, 1294.535
1269.401, 915.078
1270.607, 707.844
1271.813, 1129.254
1273.018, 569.309
1274.223, 586.047
1275.428, 1315.629
1276.633, 173.129
1277.838, 619.637
1279.042, 1147.789
1280.246, 358.520
1281.450, 1039.926
1282.654, 398.277
1283.858, 549.434
1285.061, 1118.629
1286.265, 154.812
1287.468, 744.949
1288.671, 799.520
1289.873, 233.082
1291.076, 1081.742
1292.278, 293.555
1293.480, 155.199
1294.682, 1020.367
1295.884, 50.422
1297.086, 374.180
1298.287, 543.840
1299.488, 157.488
1300.689, 675.383
1301.890, 592.852
1303.091, 157.523
1304.291, 883.523
1305.491, 231.168
1306.691, 470.043
1307.891, 286.680
1309.091, 12.898
1310.290, 451.070
1311.490, 425.023
1312.689, 70.781
1313.888, 738.641
1315.086, 221.984
1316.285, 365.426
1317.483, 749.109
1318.681, 188.621
1319.879, 503.777
1321.077, 353.383
1322.275, 135.207
1323.472, 724.730
1324.669, 32.867
1325.866, 142.863
1327.063, 650.516
1328.260, 108.496
1329.456, 477.414
1330.653, 744.684
1331.849, 108.117
1333.045, 707.051
1334.240, 414.652
1335.436, 19.191
1336.631, 1014.605
1337.826, 128.035
1339.021, 151.027
1340.216, 761.078
1341.411, 164.531
1342.605, 635.168
1343.799, 705.758
1344.993, 175.734
1346.187, 1154.621
1347.381, 17.898
1348.574, 135.922
1349.767, 992.676
1350.961, 180.789
1352.153, 425.918
1353.346, 999.188
1354.539, 358.312
1355.731, 1080.027
1356.923, 378.281
1358.115, 168.273
1359.307, 986.598
1360.498, 233.215
1361.690, 137.680
1362.881, 1336.195
1364.072, 328.695
1365.263, 1005.547
1366.453, 1089.285
1367.644, 295.352
1368.834, 747.840
1370.024, 520.148
1371.214, 127.402
1372.404, 977.523
1373.593, 79.586
1374.783, 282.031
1375.972, 1094.715
1377.161, 20.008
1378.349, 1010.117
1379.538, 970.301
1380.726, 119.773
1381.915, 1860.027
1383.103, 1067.758
1384.290, 674.691
1385.478, 1631.465
1386.665, 508.699
1387.853, 787.598
1389.040, 1380.805
1390.227, 433.180
1391.413, 1316.660
1392.600, 1452.938
1393.786, 350.043
1394.972, 1768.801
1396.158, 974.582
1397.344, 632.535
1398.530, 1784.145
1399.715, 750.770
1400.900, 792.277
1402.085, 1521.887
1403.270, 522.078
1404.455, 1622.449
1405.639, 858.133
1406.824, 633.191
1408.008, 1364.137
1409.192, 821.254
1410.375, 755.539
1411.559, 1637.926
1412.742, 779.457
1413.925, 1047.586
1415.108, 1730.270
1416.291, 192.637
1417.474, 1464.414
1418.656, 1314.418
1419.839, 213.203
1421.021, 1912.211
1422.202, 647.082
1423.384, 765.980
1424.566, 1960.191
1425.747, 554.508
1426.928, 846.535
1428.109, 1831.793
1429.290, 374.484
1430.470, 1693.852
1431.651, 1296.215
1432.831, 328.336
1434.011, 1447.617
1435.191, 1025.066
1436.370, 388.902
1437.550, 1579.633
1438.729, 511.168
1439.908, 1264.590
1441.087, 1552.316
1442.266, 287.277
1443.444, 1665.051
1444.623, 1423.727
1445.801, 127.797
1446.979, 2199.695
1448.157, 658.801
1449.334, 927.535
1450.512, 1730.750
1451.689, 666.445
1452.866, 1200.969
1454.043, 2154.125
1455.220, 160.980
1456.396, 1776.039
1457.573, 1313.586
1458.749, 445.102
1459.925, 1849.141
1461.100, 1190.500
1462.276, 805.324
1463.451, 2228.758
1464.627, 763.379
1465.802, 1025.422
1466.977, 2004.766
1468.151, 436.434
1469.326, 1660.910
1470.500, 1919.395
1471.674, 123.270
1472.848, 1922.766
1474.022, 1142.168
1475.195, 5.184
1476.369, 2435.633
1477.542, 57.121
1478.715, 1118.008
1479.888, 1858.789
1481.061, 409.809
1482.233, 1333.258
1483.405, 1723.121
1484.577, 149.602
1485.749, 1907.555
1486.921, 958.668
1488.093, 23.297
1489.264, 2097.102
1490.435, 975.910
1491.606, 202.785
1492.777, 1461.273
1493.948, 6.215
1495.118, 0.000
##END=



