##NAMES=Leucophanite
##RRUFFID=R050004
##IDEAL CHEMISTRY=NaCaBeSi_2_O_6_F
##LOCALITY=Langesundfjord, Norway
##OWNER=RRUFF
##SOURCE=University of Arizona Mineral Museum
##DESCRIPTION=Pale green massive
##STATUS=The identification of this mineral has been confirmed by X-ray diffraction and chemical analysis
##URL=rruff.info/R050004
##MEASURED CHEMISTRY=Ca_1.00_Ca_1.00_Na_2.00_Be_2.00_Si_4.00_O_12_(F_0.96_(OH)_0.04_)_2_
##PIN_ID=M00205
##ORIENTATION=Laser parallel to -b* (0 -1 0). Fiducial mark perpendicular to laser is parallel to c [0 0 1]
53.401, 0.000
54.807, 28.555
56.212, 64.249
57.617, 110.369
59.021, 225.095
60.426, 248.419
61.830, 201.306
63.234, 112.189
64.637, 64.182
66.041, 29.795
67.444, 92.556
68.847, 78.171
70.250, 110.784
71.652, 107.601
73.054, 238.625
74.456, 312.989
75.858, 315.048
77.260, 229.843
78.661, 239.810
80.062, 296.434
81.463, 353.911
82.863, 300.244
84.264, 232.947
85.664, 265.405
87.064, 273.678
88.463, 187.926
89.863, 183.312
91.262, 93.068
92.661, 86.564
94.059, 58.463
95.458, 30.018
96.856, 21.600
98.254, 2.707
99.652, 17.081
101.049, 4.213
102.446, 62.248
103.843, 55.312
105.240, 134.974
106.637, 60.746
108.033, 26.479
109.429, 9.825
110.825, 72.862
112.220, 110.217
113.616, 87.572
115.011, 128.770
116.406, 79.106
117.800, 88.186
119.195, 73.718
120.589, 82.936
121.983, 152.373
123.377, 67.619
124.770, 105.232
126.163, 30.825
127.556, 122.400
128.949, 66.247
130.342, 93.628
131.734, 24.306
133.126, 75.360
134.518, 107.689
135.909, 117.548
137.301, 134.104
138.692, 131.492
140.083, 155.586
141.473, 226.101
142.864, 314.085
144.254, 312.813
145.644, 309.264
147.034, 309.570
148.423, 209.968
149.812, 158.459
151.201, 236.990
152.590, 306.596
153.979, 414.269
155.367, 329.966
156.755, 370.719
158.143, 265.538
159.530, 235.473
160.918, 261.203
162.305, 137.919
163.692, 230.615
165.078, 141.283
166.465, 245.919
167.851, 262.516
169.237, 290.062
170.623, 240.552
172.008, 198.021
173.393, 207.409
174.778, 50.754
176.163, 33.051
177.548, 0.286
178.932, 72.751
180.316, 18.615
181.700, 36.576
183.083, 42.406
184.467, 43.332
185.850, 57.194
187.233, 29.000
188.616, 1.760
189.998, 54.473
191.380, 22.871
192.762, 131.917
194.144, 147.139
195.525, 358.973
196.907, 216.413
198.288, 203.425
199.669, 179.760
201.049, 56.392
202.429, 147.234
203.810, 27.306
205.189, 47.246
206.569, 7.616
207.949, 58.657
209.328, 7.112
210.707, 80.622
212.085, 18.146
213.464, 66.600
214.842, 18.751
216.220, 13.848
217.598, 28.120
218.976, 15.205
220.353, 67.242
221.730, 235.396
223.107, 302.717
224.483, 302.737
225.860, 285.347
227.236, 131.577
228.612, 158.380
229.988, 79.607
231.363, 157.481
232.738, 140.396
234.113, 117.065
235.488, 302.598
236.863, 310.281
238.237, 541.979
239.611, 576.398
240.985, 735.012
242.359, 788.260
243.732, 802.524
245.105, 912.325
246.478, 689.388
247.851, 766.473
249.223, 562.203
250.595, 543.908
251.967, 557.367
253.339, 498.131
254.711, 511.542
256.082, 455.292
257.453, 492.648
258.824, 395.755
260.195, 335.016
261.565, 388.802
262.935, 318.542
264.305, 457.302
265.675, 397.720
267.044, 585.235
268.414, 609.499
269.783, 647.862
271.151, 767.813
272.520, 815.735
273.888, 1211.836
275.256, 1264.475
276.624, 1494.434
277.992, 1523.958
279.359, 1141.928
280.726, 1083.945
282.093, 670.516
283.460, 624.895
284.827, 485.147
286.193, 403.353
287.559, 467.965
288.925, 355.950
290.290, 505.987
291.656, 434.933
293.021, 458.867
294.386, 458.532
295.750, 371.963
297.115, 436.737
298.479, 366.198
299.843, 382.286
301.207, 282.628
302.570, 305.155
303.933, 394.595
305.296, 359.781
306.659, 509.221
308.022, 514.774
309.384, 677.288
310.746, 921.769
312.108, 1184.222
313.470, 1628.412
314.831, 1521.353
316.193, 1631.589
317.554, 1306.906
318.914, 1099.193
320.275, 914.251
321.635, 664.463
322.995, 717.347
324.355, 509.702
325.715, 550.762
327.074, 376.514
328.434, 383.362
329.792, 333.994
331.151, 253.821
332.510, 353.297
333.868, 303.017
335.226, 384.103
336.584, 403.347
337.941, 378.423
339.299, 390.730
340.656, 241.698
342.013, 283.448
343.370, 228.341
344.726, 172.884
346.082, 225.571
347.438, 103.613
348.794, 219.636
350.150, 79.848
351.505, 169.478
352.860, 125.001
354.215, 122.055
355.570, 232.966
356.924, 156.481
358.278, 292.013
359.632, 343.078
360.986, 606.816
362.339, 860.458
363.693, 844.321
365.046, 875.089
366.399, 510.714
367.751, 347.868
369.104, 272.381
370.456, 166.903
371.808, 230.194
373.159, 90.697
374.511, 211.560
375.862, 112.321
377.213, 206.011
378.564, 199.675
379.914, 208.161
381.265, 385.190
382.615, 329.677
383.965, 319.012
385.315, 281.026
386.664, 108.890
388.013, 197.077
389.362, 36.673
390.711, 123.524
392.060, 6.439
393.408, 73.695
394.756, 44.004
396.104, 27.873
397.451, 96.422
398.799, 41.460
400.146, 18.567
401.493, 65.076
402.840, 34.476
404.186, 59.891
405.533, 48.803
406.879, 116.420
408.225, 34.585
409.570, 4.317
410.916, 71.749
412.261, 95.156
413.606, 100.016
414.951, 5.719
416.295, 8.337
417.639, 33.697
418.983, 49.011
420.327, 80.179
421.671, 20.567
423.014, 88.687
424.357, 65.060
425.700, 8.826
427.043, 175.320
428.386, 11.835
429.728, 149.503
431.070, 100.782
432.412, 229.160
433.753, 182.636
435.095, 87.620
436.436, 282.356
437.777, 137.967
439.118, 264.777
440.458, 413.120
441.798, 429.016
443.138, 534.385
444.478, 629.986
445.818, 590.330
447.157, 439.188
448.496, 310.988
449.835, 354.705
451.174, 131.068
452.513, 256.016
453.851, 152.718
455.189, 141.542
456.527, 205.540
457.864, 125.693
459.202, 302.393
460.539, 158.594
461.876, 323.874
463.212, 284.387
464.549, 294.611
465.885, 613.324
467.221, 496.878
468.557, 804.103
469.893, 900.314
471.228, 930.934
472.563, 981.285
473.898, 663.498
475.233, 746.279
476.567, 546.143
477.902, 458.942
479.236, 450.077
480.570, 185.586
481.903, 438.622
483.237, 207.320
484.570, 293.690
485.903, 401.206
487.235, 321.481
488.568, 540.712
489.900, 333.895
491.232, 390.896
492.564, 233.741
493.896, 176.723
495.227, 285.451
496.558, 195.421
497.889, 235.357
499.220, 173.240
500.551, 162.076
501.881, 374.313
503.211, 192.690
504.541, 363.843
505.870, 291.741
507.200, 445.843
508.529, 498.399
509.858, 412.394
511.187, 816.763
512.515, 574.466
513.844, 793.949
515.172, 751.392
516.500, 567.275
517.827, 825.795
519.155, 412.836
520.482, 552.037
521.809, 480.287
523.136, 308.487
524.462, 543.638
525.789, 312.746
527.115, 606.803
528.441, 466.801
529.766, 589.435
531.092, 919.599
532.417, 737.029
533.742, 1227.840
535.067, 1190.206
536.391, 1282.130
537.716, 1327.445
539.040, 956.712
540.364, 1162.968
541.688, 611.750
543.011, 653.472
544.334, 645.100
545.657, 251.521
546.980, 400.159
548.303, 278.116
549.625, 287.344
550.947, 283.876
552.269, 107.880
553.591, 397.100
554.913, 170.148
556.234, 322.304
557.555, 315.456
558.876, 291.373
560.197, 533.130
561.517, 429.051
562.837, 756.615
564.157, 622.383
565.477, 526.190
566.797, 570.085
568.116, 273.657
569.435, 332.887
570.754, 161.444
572.073, 113.306
573.391, 212.827
574.709, 19.165
576.027, 270.041
577.345, 34.336
578.663, 38.132
579.980, 217.518
581.297, 71.113
582.614, 197.955
583.931, 12.900
585.248, 145.625
586.564, 130.598
587.880, 83.527
589.196, 165.304
590.511, 44.602
591.827, 96.889
593.142, 203.376
594.457, 35.076
595.772, 272.736
597.086, 0.333
598.401, 76.723
599.715, 173.510
601.029, 23.663
602.343, 253.065
603.656, 69.022
604.969, 145.519
606.282, 149.477
607.595, 77.286
608.908, 229.659
610.220, 28.858
611.532, 132.707
612.844, 91.727
614.156, 39.134
615.468, 231.630
616.779, 28.123
618.090, 201.338
619.401, 171.691
620.712, 24.647
622.022, 346.847
623.332, 12.721
624.642, 304.433
625.952, 141.541
627.262, 135.612
628.571, 276.563
629.880, 91.327
631.189, 354.817
632.498, 210.127
633.807, 181.153
635.115, 438.858
636.423, 109.944
637.731, 522.233
639.039, 353.395
640.346, 424.439
641.653, 650.959
642.960, 448.876
644.267, 929.611
645.574, 639.914
646.880, 675.074
648.186, 851.139
649.492, 451.483
650.798, 788.382
652.103, 619.858
653.409, 578.471
654.714, 937.330
656.019, 595.650
657.323, 1072.489
658.628, 872.052
659.932, 1108.812
661.236, 1324.376
662.540, 1248.931
663.843, 2035.904
665.147, 1987.411
666.450, 2592.856
667.753, 3495.680
669.056, 3936.028
670.358, 5899.052
671.660, 6914.404
672.963, 9544.833
674.264, 12237.470
675.566, 11999.172
676.868, 13629.933
678.169, 10399.182
679.470, 8619.951
680.771, 7101.281
682.071, 4792.687
683.372, 4482.863
684.672, 3255.036
685.972, 2936.056
687.271, 2692.023
688.571, 1919.779
689.870, 2266.355
691.169, 1679.680
692.468, 1710.700
693.767, 1831.192
695.065, 1329.362
696.364, 1918.073
697.662, 1518.874
698.960, 1698.380
700.257, 2182.116
701.555, 1905.124
702.852, 2744.188
704.149, 2470.806
705.446, 2694.068
706.742, 3058.136
708.038, 2236.168
709.335, 2660.027
710.631, 1876.168
711.926, 1623.839
713.222, 1459.970
714.517, 777.719
715.812, 1174.846
717.107, 623.419
718.402, 730.104
719.696, 806.482
720.990, 339.107
722.284, 773.886
723.578, 379.735
724.872, 419.072
726.165, 633.335
727.458, 298.249
728.751, 731.731
730.044, 418.403
731.336, 359.169
732.629, 587.199
733.921, 225.735
735.213, 584.412
736.504, 274.399
737.796, 401.445
739.087, 582.389
740.378, 178.518
741.669, 462.506
742.960, 306.320
744.250, 190.479
745.540, 540.731
746.830, 70.905
748.120, 488.880
749.410, 363.731
750.699, 247.011
751.988, 616.861
753.277, 58.494
754.566, 526.373
755.854, 422.165
757.143, 348.068
758.431, 708.657
759.719, 271.453
761.006, 638.948
762.294, 502.128
763.581, 342.964
764.868, 784.450
766.155, 293.679
767.442, 549.529
768.728, 427.559
770.014, 213.863
771.300, 657.253
772.586, 41.192
773.872, 388.183
775.157, 391.143
776.442, 40.767
777.727, 453.513
779.012, 98.525
780.297, 331.305
781.581, 320.458
782.865, 44.557
784.149, 594.821
785.433, 162.306
786.716, 186.740
787.999, 474.434
789.282, 82.133
790.565, 423.513
791.848, 115.474
793.130, 175.181
794.413, 380.982
795.695, 8.643
796.977, 531.209
798.258, 165.524
799.540, 192.658
800.821, 510.920
802.102, 55.828
803.382, 433.220
804.663, 135.449
805.943, 6.353
807.224, 471.901
808.504, 30.459
809.783, 454.574
811.063, 250.527
812.342, 46.610
813.621, 671.906
814.900, 39.761
816.179, 432.491
817.457, 480.995
818.736, 18.605
820.014, 667.732
821.292, 80.736
822.569, 414.934
823.847, 476.699
825.124, 28.379
826.401, 582.324
827.678, 37.657
828.954, 240.115
830.231, 450.294
831.507, 103.455
832.783, 407.953
834.059, 169.167
835.334, 217.836
836.610, 410.187
837.885, 94.252
839.160, 492.501
840.435, 250.289
841.709, 41.146
842.983, 543.427
844.258, 136.359
845.532, 399.690
846.805, 272.338
848.079, 89.241
849.352, 656.861
850.625, 71.162
851.898, 425.350
853.171, 350.512
854.443, 24.260
855.715, 545.331
856.988, 64.454
858.259, 242.211
859.531, 514.179
860.803, 47.041
862.074, 577.244
863.345, 58.950
864.616, 159.923
865.886, 420.755
867.157, 182.569
868.427, 581.838
869.697, 102.119
870.967, 52.205
872.236, 582.157
873.506, 21.966
874.775, 440.364
876.044, 399.859
877.313, 108.113
878.581, 636.354
879.849, 45.355
881.118, 322.773
882.386, 351.481
883.653, 30.908
884.921, 746.260
886.188, 4.298
887.455, 312.598
888.722, 630.222
889.989, 149.905
891.255, 806.562
892.522, 123.648
893.788, 210.378
895.054, 686.633
896.319, 76.945
897.585, 557.877
898.850, 274.015
900.115, 18.102
901.380, 603.756
902.645, 131.255
903.909, 613.014
905.174, 338.664
906.438, 55.971
907.701, 678.946
908.965, 4.154
910.229, 271.346
911.492, 456.456
912.755, 35.312
914.018, 660.451
915.280, 244.473
916.543, 372.217
917.805, 736.581
919.067, 59.335
920.329, 736.831
921.590, 349.600
922.852, 15.459
924.113, 909.275
925.374, 50.051
926.635, 685.576
927.895, 587.387
929.156, 370.011
930.416, 1234.480
931.676, 734.622
932.936, 1250.707
934.195, 2151.908
935.454, 1689.295
936.714, 3045.320
937.973, 2154.997
939.231, 1638.471
940.490, 1829.989
941.748, 612.755
943.006, 897.397
944.264, 586.122
945.522, 156.706
946.780, 1029.336
948.037, 46.411
949.294, 750.068
950.551, 569.032
951.808, 27.129
953.064, 980.904
954.320, 243.830
955.577, 354.676
956.832, 865.045
958.088, 139.830
959.344, 933.581
960.599, 557.723
961.854, 547.685
963.109, 1503.025
964.364, 649.826
965.618, 1421.366
966.872, 1544.347
968.127, 774.010
969.380, 1487.860
970.634, 623.980
971.888, 865.207
973.141, 1136.431
974.394, 382.407
975.647, 1193.833
976.900, 567.112
978.152, 623.425
979.404, 1292.545
980.656, 116.946
981.908, 1024.307
983.160, 696.668
984.411, 231.246
985.663, 1159.707
986.914, 134.559
988.165, 528.575
989.415, 909.484
990.666, 16.504
991.916, 1057.789
993.166, 442.544
994.416, 186.216
995.665, 883.577
996.915, 43.072
998.164, 848.883
999.413, 645.295
1000.662, 288.508
1001.911, 1257.521
1003.159, 403.949
1004.407, 945.360
1005.655, 1182.959
1006.903, 317.078
1008.151, 1556.975
1009.398, 1003.421
1010.646, 1014.636
1011.893, 2045.538
1013.139, 959.694
1014.386, 2238.532
1015.633, 2463.383
1016.879, 2114.312
1018.125, 4632.051
1019.371, 4479.428
1020.616, 7167.563
1021.862, 10160.428
1023.107, 9553.225
1024.352, 11010.522
1025.597, 7755.973
1026.842, 5374.471
1028.086, 5092.283
1029.330, 2437.344
1030.574, 2673.982
1031.818, 2355.754
1033.062, 1176.324
1034.305, 2110.635
1035.548, 795.488
1036.791, 1000.646
1038.034, 1718.678
1039.277, 272.535
1040.519, 1829.350
1041.762, 1192.516
1043.004, 801.592
1044.246, 2367.584
1045.487, 946.555
1046.729, 2128.559
1047.970, 2418.803
1049.211, 1349.189
1050.452, 2953.176
1051.692, 1875.639
1052.933, 1417.020
1054.173, 2293.031
1055.413, 674.693
1056.653, 1725.816
1057.893, 993.223
1059.132, 413.127
1060.371, 1546.703
1061.610, 25.648
1062.849, 939.867
1064.088, 1184.486
1065.326, 115.033
1066.565, 1538.383
1067.803, 874.457
1069.041, 590.994
1070.278, 2015.127
1071.516, 262.785
1072.753, 1156.979
1073.990, 1441.213
1075.227, 390.225
1076.464, 1883.209
1077.700, 686.645
1078.936, 639.406
1080.173, 1442.781
1081.408, 69.635
1082.644, 1197.383
1083.880, 890.133
1085.115, 260.197
1086.350, 1662.727
1087.585, 395.051
1088.820, 1123.955
1090.054, 1415.877
1091.288, 259.033
1092.522, 2005.795
1093.756, 915.609
1094.990, 602.494
1096.224, 1995.793
1097.457, 434.082
1098.690, 1182.133
1099.923, 1430.779
1101.156, 301.809
1102.388, 1817.613
1103.621, 854.270
1104.853, 637.982
1106.085, 1908.293
1107.316, 147.648
1108.548, 1217.176
1109.779, 894.002
1111.010, 87.295
1112.241, 1178.826
1113.472, 184.730
1114.703, 51.947
1115.933, 776.225
1117.163, 557.719
1118.393, 1076.438
1119.623, 530.963
1120.853, 8.865
1122.082, 1853.523
1123.311, 186.246
1124.540, 1047.453
1125.769, 1444.176
1126.997, 187.164
1128.226, 1665.490
1129.454, 955.854
1130.682, 99.752
1131.910, 1615.498
1133.138, 305.596
1134.365, 1181.869
1135.592, 1615.248
1136.819, 385.803
1138.046, 1906.365
1139.273, 1184.676
1140.499, 826.717
1141.725, 2028.482
1142.951, 436.361
1144.177, 1412.773
1145.403, 1915.047
1146.628, 284.957
1147.854, 1882.904
1149.079, 831.838
1150.304, 501.857
1151.528, 2026.045
1152.753, 5.006
1153.977, 1076.641
1155.201, 1574.465
1156.425, 183.150
1157.649, 1986.455
1158.872, 459.277
1160.096, 917.111
1161.319, 1962.250
1162.542, 279.537
1163.764, 1438.703
1164.987, 1513.787
1166.209, 120.275
1167.431, 2061.133
1168.653, 461.104
1169.875, 966.701
1171.097, 1864.803
1172.318, 200.660
1173.539, 1865.359
1174.760, 1612.281
1175.981, 366.426
1177.202, 2594.738
1178.422, 784.863
1179.642, 1058.117
1180.862, 2257.809
1182.082, 373.916
1183.302, 1804.803
1184.521, 1539.639
1185.740, 421.404
1186.959, 2270.848
1188.178, 720.723
1189.397, 971.557
1190.615, 1757.322
1191.834, 45.033
1193.052, 1513.869
1194.269, 1030.424
1195.487, 88.729
1196.705, 2270.051
1197.922, 470.982
1199.139, 839.100
1200.356, 2108.141
1201.573, 372.471
1202.789, 1797.631
1204.006, 1540.844
1205.222, 349.764
1206.438, 2503.078
1207.653, 840.047
1208.869, 1111.246
1210.084, 2456.016
1211.299, 387.141
1212.514, 2007.926
1213.729, 1677.598
1214.944, 384.801
1216.158, 2696.748
1217.372, 781.594
1218.586, 1222.309
1219.800, 2745.826
1221.014, 140.150
1222.227, 2209.887
1223.440, 1832.973
1224.654, 92.895
1225.866, 2792.705
1227.079, 1026.789
1228.292, 957.975
1229.504, 2889.217
1230.716, 541.734
1231.928, 2358.480
1233.139, 2199.340
1234.351, 617.465
1235.562, 2756.898
1236.773, 1506.912
1237.984, 875.361
1239.195, 2704.715
1240.406, 358.049
1241.616, 1603.742
1242.826, 1852.258
1244.036, 23.809
1245.246, 2703.250
1246.456, 1030.832
1247.665, 772.354
1248.874, 3229.242
1250.083, 653.627
1251.292, 1841.160
1252.501, 2747.145
1253.709, 240.566
1254.917, 2785.102
1256.125, 1697.967
1257.333, 519.461
1258.541, 2952.795
1259.748, 943.572
1260.956, 1985.703
1262.163, 2296.053
1263.370, 542.088
1264.576, 2513.598
1265.783, 1561.668
1266.989, 398.680
1268.195, 3069.785
1269.401, 755.195
1270.607, 1306.969
1271.813, 2826.471
1273.018, 90.424
1274.223, 2244.123
1275.428, 2460.527
1276.633, 112.721
1277.838, 2840.637
1279.042, 1472.594
1280.246, 1190.289
1281.450, 3286.562
1282.654, 457.730
1283.858, 2010.355
1285.061, 2253.789
1286.265, 165.375
1287.468, 2492.953
1288.671, 801.570
1289.873, 693.770
1291.076, 3167.082
1292.278, 403.801
1293.480, 1726.887
1294.682, 3074.934
1295.884, 21.211
1297.086, 3034.062
1298.287, 1586.199
1299.488, 193.395
1300.689, 3332.816
1301.890, 915.176
1303.091, 973.227
1304.291, 2975.926
1305.491, 10.109
1306.691, 2406.926
1307.891, 1637.402
1309.091, 482.301
1310.290, 3217.648
1311.490, 1025.492
1312.689, 1169.926
1313.888, 3091.250
1315.086, 161.691
1316.285, 1934.617
1317.483, 2290.547
1318.681, 377.348
1319.879, 2853.602
1321.077, 1038.855
1322.275, 39.465
1323.472, 3031.242
1324.669, 37.688
1325.866, 1276.602
1327.063, 2700.336
1328.260, 231.613
1329.456, 2194.637
1330.653, 1665.781
1331.849, 157.625
1333.045, 2573.730
1334.240, 625.352
1335.436, 539.801
1336.631, 3036.711
1337.826, 290.855
1339.021, 1638.824
1340.216, 2606.953
1341.411, 221.312
1342.605, 3193.270
1343.799, 1698.691
1344.993, 590.266
1346.187, 3796.125
1347.381, 676.504
1348.574, 1305.188
1349.767, 3343.883
1350.961, 21.871
1352.153, 2185.516
1353.346, 2031.184
1354.539, 735.711
1355.731, 3017.105
1356.923, 928.023
1358.115, 1090.805
1359.307, 3305.043
1360.498, 296.820
1361.690, 1840.441
1362.881, 3541.891
1364.072, 168.234
1365.263, 3667.277
1366.453, 2734.906
1367.644, 350.809
1368.834, 4130.938
1370.024, 1547.027
1371.214, 941.102
1372.404, 2975.402
1373.593, 514.578
1374.783, 2170.598
1375.972, 3307.078
1377.161, 257.980
1378.349, 3855.645
1379.538, 2255.906
1380.726, 1182.059
1381.915, 4668.074
1383.103, 697.805
1384.290, 2215.500
1385.478, 3915.395
1386.665, 370.203
1387.853, 3094.062
1389.040, 3586.207
1390.227, 431.348
1391.413, 4416.668
1392.600, 2503.621
1393.786, 875.379
1394.972, 4829.297
1396.158, 1170.238
1397.344, 2205.875
1398.530, 4431.215
1399.715, 755.453
1400.900, 3462.453
1402.085, 3039.086
1403.270, 603.949
1404.455, 5204.043
1405.639, 1730.602
1406.824, 1630.160
1408.008, 4594.852
1409.192, 1203.211
1410.375, 2534.383
1411.559, 4663.891
1412.742, 822.371
1413.925, 3920.902
1415.108, 3540.152
1416.291, 587.555
1417.474, 4349.121
1418.656, 1964.891
1419.839, 1672.582
1421.021, 4775.734
1422.202, 800.887
1423.384, 2849.680
1424.566, 4589.238
1425.747, 156.910
1426.928, 3591.984
1428.109, 3404.285
1429.290, 499.188
1430.470, 4677.918
1431.651, 1968.445
1432.831, 907.098
1434.011, 4445.836
1435.191, 725.055
1436.370, 2211.945
1437.550, 3844.438
1438.729, 379.238
1439.908, 4184.820
1441.087, 3242.988
1442.266, 61.090
1443.444, 5335.309
1444.623, 1986.684
1445.801, 937.965
1446.979, 5616.578
1448.157, 769.805
1449.334, 2996.461
1450.512, 4466.535
1451.689, 554.922
1452.866, 3971.156
1454.043, 3808.988
1455.220, 136.195
1456.396, 4938.672
1457.573, 2266.500
1458.749, 1275.035
1459.925, 5068.094
1461.100, 1007.020
1462.276, 2557.867
1463.451, 5113.711
1464.627, 73.305
1465.802, 3338.555
1466.977, 4218.707
1468.151, 109.383
1469.326, 4784.137
1470.500, 3070.844
1471.674, 511.125
1472.848, 5860.758
1474.022, 1440.328
1475.195, 1558.211
1476.369, 5884.375
1477.542, 42.285
1478.715, 3779.738
1479.888, 4206.527
1481.061, 128.785
1482.233, 4623.418
1483.405, 2754.383
1484.577, 0.000
##END=



