##NAMES=Leucophanite
##RRUFFID=R050004
##IDEAL CHEMISTRY=NaCaBeSi_2_O_6_F
##LOCALITY=Langesundfjord, Norway
##OWNER=RRUFF
##SOURCE=University of Arizona Mineral Museum
##DESCRIPTION=Pale green massive
##STATUS=The identification of this mineral has been confirmed by X-ray diffraction and chemical analysis
##URL=rruff.info/R050004
##MEASURED CHEMISTRY=Ca_1.00_Ca_1.00_Na_2.00_Be_2.00_Si_4.00_O_12_(F_0.96_(OH)_0.04_)_2_
##PIN_ID=M00290
##ORIENTATION=Laser parallel to -a* (-1 0 0). Fiducial mark perpendicular to laser is parallel to -b [0 -1 0]
59.021, 0.000
60.426, 8.344
61.830, 51.017
63.234, 52.092
64.637, 53.501
66.041, 46.981
67.444, 66.793
68.847, 63.137
70.250, 106.367
71.652, 74.390
73.054, 71.653
74.456, 30.604
75.858, 31.781
77.260, 2.628
78.661, 14.446
80.062, 1.318
81.463, 14.002
82.863, 3.490
84.264, 6.146
85.664, 44.954
87.064, 89.908
88.463, 101.998
89.863, 64.216
91.262, 59.555
92.661, 87.007
94.059, 67.566
95.458, 113.225
96.856, 114.978
98.254, 139.821
99.652, 167.748
101.049, 192.754
102.446, 223.837
103.843, 258.994
105.240, 290.222
106.637, 372.519
108.033, 483.878
109.429, 1002.300
110.825, 799.954
112.220, 804.223
113.616, 653.943
115.011, 493.610
116.406, 451.329
117.800, 465.099
119.195, 435.916
120.589, 465.779
121.983, 457.636
123.377, 505.629
124.770, 465.611
126.163, 476.630
127.556, 489.681
128.949, 513.765
130.342, 439.879
131.734, 472.022
133.126, 471.202
134.518, 502.414
135.909, 494.650
137.301, 497.908
138.692, 571.188
140.083, 601.490
141.473, 714.810
142.864, 734.157
144.254, 776.557
145.644, 780.000
147.034, 672.472
148.423, 617.963
149.812, 652.506
151.201, 692.073
152.590, 794.633
153.979, 823.191
155.367, 698.759
156.755, 702.355
158.143, 653.010
159.530, 624.730
160.918, 601.484
162.305, 588.288
163.692, 562.122
165.078, 557.976
166.465, 603.855
167.851, 564.746
169.237, 591.640
170.623, 535.532
172.008, 526.423
173.393, 449.313
174.778, 419.207
176.163, 387.109
177.548, 348.022
178.932, 290.948
180.316, 391.881
181.700, 386.819
183.083, 333.756
184.467, 405.693
185.850, 351.628
187.233, 363.563
188.616, 356.497
189.998, 404.429
191.380, 385.364
192.762, 434.302
194.144, 464.240
195.525, 497.176
196.907, 497.115
198.288, 453.061
199.669, 450.014
201.049, 371.974
202.429, 365.940
203.810, 392.923
205.189, 320.026
206.569, 315.481
207.949, 265.611
209.328, 257.679
210.707, 287.480
212.085, 262.404
213.464, 291.322
214.842, 316.233
216.220, 303.136
217.598, 292.196
218.976, 305.177
220.353, 403.136
221.730, 424.003
223.107, 467.860
224.483, 439.830
225.860, 446.965
227.236, 351.110
228.612, 350.178
229.988, 320.029
231.363, 332.717
232.738, 375.096
234.113, 365.740
235.488, 482.705
236.863, 491.736
238.237, 645.627
239.611, 682.860
240.985, 757.092
242.359, 812.782
243.732, 766.666
245.105, 733.980
246.478, 701.833
247.851, 670.950
249.223, 667.439
250.595, 611.052
251.967, 673.049
253.339, 691.884
254.711, 707.235
256.082, 618.500
257.453, 563.342
258.824, 506.250
260.195, 509.575
261.565, 425.002
262.935, 441.425
264.305, 537.551
265.675, 519.746
267.044, 562.954
268.414, 622.312
269.783, 710.781
271.151, 714.039
272.520, 887.508
273.888, 968.962
275.256, 1059.199
276.624, 1105.256
277.992, 1045.119
279.359, 836.998
280.726, 687.881
282.093, 576.768
283.460, 492.665
284.827, 469.566
286.193, 388.470
287.559, 420.578
288.925, 379.879
290.290, 443.981
291.656, 423.469
293.021, 452.853
294.386, 393.310
295.750, 413.859
297.115, 394.137
298.479, 326.516
299.843, 322.769
301.207, 329.964
302.570, 278.925
303.933, 346.849
305.296, 359.772
306.659, 415.695
308.022, 485.616
309.384, 647.536
310.746, 733.453
312.108, 955.368
313.470, 1119.279
314.831, 1079.185
316.193, 1009.087
317.554, 882.983
318.914, 708.874
320.275, 526.929
321.635, 411.075
322.995, 370.056
324.355, 302.361
325.715, 226.212
327.074, 201.086
328.434, 164.918
329.792, 207.740
331.151, 216.992
332.510, 223.078
333.868, 231.508
335.226, 221.826
336.584, 284.088
337.941, 247.309
339.299, 218.557
340.656, 222.015
342.013, 144.296
343.370, 182.573
344.726, 98.462
346.082, 126.396
347.438, 74.145
348.794, 106.815
350.150, 97.472
351.505, 8.117
352.860, 109.748
354.215, 68.366
355.570, 141.971
356.924, 187.564
358.278, 258.144
359.632, 367.709
360.986, 449.263
362.339, 558.803
363.693, 596.439
365.046, 494.951
366.399, 308.450
367.751, 260.935
369.104, 166.404
370.456, 183.858
371.808, 107.296
373.159, 96.720
374.511, 100.128
375.862, 129.522
377.213, 104.901
378.564, 166.265
379.914, 133.614
381.265, 200.947
382.615, 208.264
383.965, 179.566
385.315, 188.853
386.664, 102.124
388.013, 85.377
389.362, 39.610
390.711, 16.277
392.060, 23.647
393.408, 15.376
394.756, 35.116
396.104, 7.358
397.451, 23.814
398.799, 0.067
400.146, 41.006
401.493, 28.983
402.840, 14.992
404.186, 4.973
405.533, 15.080
406.879, 8.843
408.225, 13.246
409.570, 30.223
410.916, 0.697
412.261, 14.724
413.606, 18.990
414.951, 31.178
416.295, 39.535
417.639, 0.068
418.983, 48.198
420.327, 30.711
421.671, 1.993
423.014, 19.520
424.357, 18.471
425.700, 30.190
427.043, 63.902
428.386, 12.596
429.728, 37.437
431.070, 14.104
432.412, 10.594
433.753, 29.408
435.095, 38.158
436.436, 92.987
437.777, 138.270
439.118, 219.601
440.458, 309.231
441.798, 361.715
443.138, 394.045
444.478, 369.740
445.818, 276.241
447.157, 289.613
448.496, 148.886
449.835, 104.102
451.174, 153.389
452.513, 62.479
453.851, 88.821
455.189, 72.830
456.527, 51.922
457.864, 117.912
459.202, 94.827
460.539, 125.996
461.876, 140.827
463.212, 201.850
464.549, 315.439
465.885, 431.296
467.221, 536.474
468.557, 615.083
469.893, 697.927
471.228, 714.697
472.563, 650.297
473.898, 565.701
475.233, 397.861
476.567, 314.353
477.902, 249.313
479.236, 243.404
480.570, 183.282
481.903, 160.835
483.237, 199.361
484.570, 120.862
485.903, 328.332
487.235, 221.777
488.568, 274.195
489.900, 282.588
491.232, 127.956
492.564, 166.295
493.896, 82.604
495.227, 107.900
496.558, 120.164
497.889, 128.396
499.220, 120.596
500.551, 68.764
501.881, 109.906
503.211, 109.012
504.541, 200.089
505.870, 188.121
507.200, 230.134
508.529, 302.993
509.858, 338.943
511.187, 476.827
512.515, 559.301
513.844, 506.153
515.172, 526.807
516.500, 511.594
517.827, 489.349
519.155, 434.071
520.482, 325.760
521.809, 416.417
523.136, 234.042
524.462, 333.637
525.789, 366.199
527.115, 463.729
528.441, 500.227
529.766, 657.702
531.092, 886.144
532.417, 957.518
533.742, 1198.810
535.067, 1313.077
536.391, 1336.403
537.716, 1282.613
539.040, 1176.872
540.364, 943.096
541.688, 793.285
543.011, 590.439
544.334, 541.557
545.657, 360.650
546.980, 337.593
548.303, 318.430
549.625, 175.039
550.947, 241.503
552.269, 151.955
553.591, 145.325
554.913, 192.731
556.234, 272.729
557.555, 281.997
558.876, 336.106
560.197, 480.149
561.517, 552.832
562.837, 564.370
564.157, 728.198
565.477, 489.482
566.797, 459.925
568.116, 264.437
569.435, 282.611
570.754, 121.605
572.073, 84.152
573.391, 52.519
574.709, 89.147
576.027, 121.494
577.345, 22.641
578.663, 101.148
579.980, 41.119
581.297, 51.213
582.614, 12.025
583.931, 0.483
585.248, 14.899
586.564, 59.551
587.880, 47.833
589.196, 15.396
590.511, 2.561
591.827, 64.386
593.142, 11.323
594.457, 5.684
595.772, 79.045
597.086, 64.103
598.401, 27.174
599.715, 21.145
601.029, 54.147
602.343, 11.748
603.656, 14.772
604.969, 32.403
606.282, 51.936
607.595, 61.087
608.908, 39.397
610.220, 81.243
611.532, 18.226
612.844, 90.538
614.156, 65.612
615.468, 84.653
616.779, 98.069
618.090, 32.184
619.401, 108.490
620.712, 21.350
622.022, 157.149
623.332, 88.773
624.642, 16.400
625.952, 140.160
627.262, 79.683
628.571, 92.988
629.880, 129.470
631.189, 171.397
632.498, 226.177
633.807, 141.870
635.115, 265.994
636.423, 230.274
637.731, 276.235
639.039, 379.240
640.346, 473.879
641.653, 431.852
642.960, 642.807
644.267, 580.704
645.574, 715.418
646.880, 621.967
648.186, 655.075
649.492, 622.062
650.798, 573.286
652.103, 623.123
653.409, 578.055
654.714, 685.777
656.019, 747.375
657.323, 795.897
658.628, 958.090
659.932, 1054.961
661.236, 1292.003
662.540, 1495.583
663.843, 1792.799
665.147, 2311.062
666.450, 2789.138
667.753, 3589.061
669.056, 4684.056
670.358, 5987.824
671.660, 7851.886
672.963, 9585.769
674.264, 11949.509
675.566, 12183.381
676.868, 11917.182
678.169, 10481.104
679.470, 8445.168
680.771, 6819.373
682.071, 5293.203
683.372, 4281.018
684.672, 3487.912
685.972, 2944.934
687.271, 2518.333
688.571, 2141.485
689.870, 1839.904
691.169, 1778.245
692.468, 1589.532
693.767, 1488.462
695.065, 1569.231
696.364, 1587.287
697.662, 1595.348
698.960, 1621.331
700.257, 1836.281
701.555, 1990.246
702.852, 2123.553
704.149, 2486.355
705.446, 2500.504
706.742, 2557.292
708.038, 2279.444
709.335, 2120.987
710.631, 1787.580
711.926, 1442.144
713.222, 1142.892
714.517, 954.763
715.812, 781.629
717.107, 636.389
718.402, 611.353
719.696, 441.103
720.990, 497.507
722.284, 310.852
723.578, 384.464
724.872, 232.464
726.165, 377.602
727.458, 319.155
728.751, 297.484
730.044, 307.111
731.336, 251.000
732.629, 297.757
733.921, 302.325
735.213, 188.435
736.504, 148.742
737.796, 230.095
739.087, 142.785
740.378, 176.976
741.669, 193.361
742.960, 149.336
744.250, 190.071
745.540, 197.522
746.830, 205.407
748.120, 168.642
749.410, 172.435
750.699, 142.864
751.988, 173.981
753.277, 197.217
754.566, 216.988
755.854, 279.651
757.143, 241.876
758.431, 369.306
759.719, 329.098
761.006, 339.053
762.294, 369.270
763.581, 271.618
764.868, 417.598
766.155, 279.140
767.442, 211.421
768.728, 237.778
770.014, 209.248
771.300, 170.899
772.586, 204.573
773.872, 173.858
775.157, 208.811
776.442, 164.518
777.727, 128.778
779.012, 111.844
780.297, 62.806
781.581, 103.195
782.865, 138.209
784.149, 79.156
785.433, 195.134
786.716, 22.167
787.999, 218.297
789.282, 8.957
790.565, 44.995
791.848, 105.345
793.130, 39.529
794.413, 89.285
795.695, 32.895
796.977, 182.859
798.258, 50.805
799.540, 72.479
800.821, 106.340
802.102, 16.806
803.382, 106.661
804.663, 78.846
805.943, 47.459
807.224, 103.225
808.504, 104.474
809.783, 124.996
811.063, 118.250
812.342, 10.180
813.621, 226.952
814.900, 11.968
816.179, 110.863
817.457, 166.633
818.736, 179.285
820.014, 222.430
821.292, 241.976
822.569, 208.014
823.847, 245.584
825.124, 159.016
826.401, 184.474
827.678, 201.378
828.954, 152.434
830.231, 151.190
831.507, 104.508
832.783, 53.535
834.059, 13.082
835.334, 73.241
836.610, 58.762
837.885, 21.689
839.160, 26.522
840.435, 104.362
841.709, 63.471
842.983, 63.771
844.258, 64.293
845.532, 58.347
846.805, 124.764
848.079, 2.552
849.352, 56.947
850.625, 36.629
851.898, 34.921
853.171, 23.745
854.443, 28.633
855.715, 18.843
856.988, 11.441
858.259, 0.433
859.531, 91.917
860.803, 49.136
862.074, 83.813
863.345, 43.163
864.616, 74.978
865.886, 89.656
867.157, 47.203
868.427, 36.606
869.697, 42.873
870.967, 4.003
872.236, 7.986
873.506, 65.828
874.775, 59.532
876.044, 211.553
877.313, 65.745
878.581, 29.153
879.849, 223.029
881.118, 102.479
882.386, 88.705
883.653, 67.205
884.921, 83.457
886.188, 5.175
887.455, 43.124
888.722, 42.821
889.989, 35.222
891.255, 46.632
892.522, 78.990
893.788, 54.351
895.054, 73.078
896.319, 7.183
897.585, 38.765
898.850, 1.600
900.115, 63.669
901.380, 81.761
902.645, 132.924
903.909, 5.038
905.174, 28.988
906.438, 143.106
907.701, 19.122
908.965, 129.795
910.229, 49.257
911.492, 131.974
912.755, 92.634
914.018, 23.898
915.280, 214.553
916.543, 15.405
917.805, 137.138
919.067, 107.014
920.329, 137.422
921.590, 296.580
922.852, 6.523
924.113, 225.823
925.374, 224.535
926.635, 113.270
927.895, 332.466
929.156, 270.978
930.416, 460.077
931.676, 728.804
932.936, 947.150
934.195, 1646.079
935.454, 1774.186
936.714, 2193.045
937.973, 2031.673
939.231, 1558.871
940.490, 1267.546
941.748, 723.124
943.006, 480.647
944.264, 297.413
945.522, 203.937
946.780, 211.787
948.037, 98.096
949.294, 75.104
950.551, 112.893
951.808, 38.622
953.064, 104.858
954.320, 221.220
955.577, 72.977
956.832, 204.476
958.088, 165.436
959.344, 242.176
960.599, 388.625
961.854, 424.741
963.109, 560.871
964.364, 874.582
965.618, 851.135
966.872, 1107.407
968.127, 952.525
969.380, 658.469
970.634, 684.054
971.888, 459.828
973.141, 470.705
974.394, 316.013
975.647, 321.817
976.900, 527.138
978.152, 391.777
979.404, 566.203
980.656, 371.104
981.908, 494.124
983.160, 438.007
984.411, 570.769
985.663, 392.672
986.914, 515.957
988.165, 387.943
989.415, 389.660
990.666, 328.979
991.916, 229.058
993.166, 405.744
994.416, 306.313
995.665, 386.062
996.915, 508.021
998.164, 387.349
999.413, 447.411
1000.662, 348.712
1001.911, 648.160
1003.159, 399.130
1004.407, 358.275
1005.655, 676.356
1006.903, 485.954
1008.151, 544.117
1009.398, 843.796
1010.646, 764.235
1011.893, 1093.642
1013.139, 1443.805
1014.386, 1553.455
1015.633, 2222.732
1016.879, 2432.815
1018.125, 3670.701
1019.371, 5180.217
1020.616, 6849.207
1021.862, 9536.612
1023.107, 10585.065
1024.352, 10133.592
1025.597, 8451.087
1026.842, 5840.424
1028.086, 4387.477
1029.330, 3076.051
1030.574, 2213.843
1031.818, 1855.242
1033.062, 1244.448
1034.305, 1047.155
1035.548, 864.590
1036.791, 672.777
1038.034, 776.418
1039.277, 625.457
1040.519, 750.321
1041.762, 726.516
1043.004, 634.069
1044.246, 967.777
1045.487, 1020.246
1046.729, 1075.794
1047.970, 1531.537
1049.211, 1397.107
1050.452, 1369.595
1051.692, 1425.238
1052.933, 874.094
1054.173, 929.901
1055.413, 735.031
1056.653, 593.345
1057.893, 518.453
1059.132, 384.382
1060.371, 407.537
1061.610, 472.025
1062.849, 307.702
1064.088, 452.302
1065.326, 277.931
1066.565, 183.237
1067.803, 457.883
1069.041, 233.266
1070.278, 527.359
1071.516, 281.798
1072.753, 366.432
1073.990, 509.354
1075.227, 443.883
1076.464, 337.377
1077.700, 429.711
1078.936, 224.482
1080.173, 269.061
1081.408, 283.461
1082.644, 159.596
1083.880, 363.830
1085.115, 97.754
1086.350, 242.066
1087.585, 335.848
1088.820, 200.650
1090.054, 554.980
1091.288, 245.992
1092.522, 459.844
1093.756, 420.148
1094.990, 120.959
1096.224, 404.463
1097.457, 354.094
1098.690, 4.066
1099.923, 484.609
1101.156, 363.234
1102.388, 153.846
1103.621, 402.584
1104.853, 21.600
1106.085, 449.301
1107.316, 66.666
1108.548, 106.549
1109.779, 176.059
1111.010, 133.102
1112.241, 214.338
1113.472, 83.865
1114.703, 47.840
1115.933, 252.281
1117.163, 82.225
1118.393, 150.729
1119.623, 120.016
1120.853, 152.547
1122.082, 156.447
1123.311, 43.920
1124.540, 39.596
1125.769, 198.246
1126.997, 234.650
1128.226, 42.566
1129.454, 460.717
1130.682, 175.670
1131.910, 364.932
1133.138, 462.492
1134.365, 196.330
1135.592, 465.207
1136.819, 460.764
1138.046, 476.699
1139.273, 873.369
1140.499, 496.656
1141.725, 654.598
1142.951, 821.121
1144.177, 254.926
1145.403, 1013.150
1146.628, 496.916
1147.854, 321.271
1149.079, 720.205
1150.304, 324.059
1151.528, 719.658
1152.753, 445.521
1153.977, 189.842
1155.201, 626.338
1156.425, 369.363
1157.649, 351.951
1158.872, 546.305
1160.096, 368.896
1161.319, 423.283
1162.542, 519.617
1163.764, 313.098
1164.987, 765.338
1166.209, 341.629
1167.431, 444.646
1168.653, 750.205
1169.875, 502.840
1171.097, 514.412
1172.318, 726.934
1173.539, 407.205
1174.760, 778.756
1175.981, 351.039
1177.202, 699.926
1178.422, 523.742
1179.642, 173.848
1180.862, 693.654
1182.082, 534.801
1183.302, 242.613
1184.521, 751.699
1185.740, 61.848
1186.959, 518.482
1188.178, 653.098
1189.397, 331.900
1190.615, 467.051
1191.834, 486.504
1193.052, 571.311
1194.269, 616.865
1195.487, 613.102
1196.705, 555.363
1197.922, 621.867
1199.139, 337.930
1200.356, 440.588
1201.573, 596.635
1202.789, 239.635
1204.006, 520.994
1205.222, 407.740
1206.438, 386.705
1207.653, 678.486
1208.869, 321.822
1210.084, 468.619
1211.299, 404.678
1212.514, 243.010
1213.729, 480.100
1214.944, 244.094
1216.158, 541.832
1217.372, 579.541
1218.586, 211.334
1219.800, 797.305
1221.014, 377.570
1222.227, 476.254
1223.440, 929.916
1224.654, 289.988
1225.866, 486.684
1227.079, 641.082
1228.292, 249.854
1229.504, 643.531
1230.716, 679.828
1231.928, 604.217
1233.139, 686.596
1234.351, 440.201
1235.562, 516.057
1236.773, 1268.162
1237.984, 415.629
1239.195, 1037.062
1240.406, 777.518
1241.616, 224.029
1242.826, 873.496
1244.036, 723.242
1245.246, 608.967
1246.456, 948.014
1247.665, 502.328
1248.874, 1022.012
1250.083, 848.547
1251.292, 401.664
1252.501, 1168.299
1253.709, 592.660
1254.917, 800.408
1256.125, 1374.273
1257.333, 459.084
1258.541, 898.330
1259.748, 1141.879
1260.956, 657.646
1262.163, 651.994
1263.370, 944.387
1264.576, 710.469
1265.783, 923.105
1266.989, 490.230
1268.195, 660.447
1269.401, 1041.551
1270.607, 482.635
1271.813, 839.275
1273.018, 598.574
1274.223, 360.801
1275.428, 1133.039
1276.633, 210.980
1277.838, 485.770
1279.042, 1144.830
1280.246, 223.605
1281.450, 624.172
1282.654, 481.521
1283.858, 320.512
1285.061, 867.354
1286.265, 183.752
1287.468, 263.070
1288.671, 751.479
1289.873, 145.609
1291.076, 657.066
1292.278, 522.111
1293.480, 46.457
1294.682, 736.395
1295.884, 238.943
1297.086, 183.756
1298.287, 477.736
1299.488, 91.498
1300.689, 554.834
1301.890, 725.492
1303.091, 54.281
1304.291, 609.834
1305.491, 298.924
1306.691, 117.840
1307.891, 348.537
1309.091, 465.744
1310.290, 84.412
1311.490, 311.906
1312.689, 101.613
1313.888, 297.057
1315.086, 392.760
1316.285, 248.033
1317.483, 485.162
1318.681, 299.029
1319.879, 204.057
1321.077, 617.920
1322.275, 81.730
1323.472, 344.340
1324.669, 345.125
1325.866, 187.512
1327.063, 548.734
1328.260, 318.301
1329.456, 199.566
1330.653, 548.090
1331.849, 7.438
1333.045, 236.863
1334.240, 713.043
1335.436, 79.297
1336.631, 727.867
1337.826, 484.953
1339.021, 168.270
1340.216, 627.879
1341.411, 263.293
1342.605, 278.547
1343.799, 812.102
1344.993, 225.633
1346.187, 579.383
1347.381, 791.523
1348.574, 84.066
1349.767, 995.652
1350.961, 376.742
1352.153, 208.602
1353.346, 1198.527
1354.539, 121.336
1355.731, 637.984
1356.923, 756.203
1358.115, 74.773
1359.307, 481.898
1360.498, 699.852
1361.690, 87.547
1362.881, 783.262
1364.072, 182.547
1365.263, 258.121
1366.453, 1053.699
1367.644, 249.211
1368.834, 254.617
1370.024, 548.887
1371.214, 256.559
1372.404, 445.754
1373.593, 209.344
1374.783, 377.250
1375.972, 555.289
1377.161, 202.102
1378.349, 99.125
1379.538, 660.566
1380.726, 35.328
1381.915, 578.375
1383.103, 708.445
1384.290, 30.977
1385.478, 802.566
1386.665, 623.414
1387.853, 137.500
1389.040, 793.293
1390.227, 85.277
1391.413, 323.094
1392.600, 1122.379
1393.786, 50.227
1394.972, 1017.715
1396.158, 1112.461
1397.344, 31.625
1398.530, 1203.297
1399.715, 867.621
1400.900, 186.750
1402.085, 968.562
1403.270, 289.559
1404.455, 799.707
1405.639, 1013.602
1406.824, 299.613
1408.008, 838.391
1409.192, 840.449
1410.375, 51.031
1411.559, 849.887
1412.742, 776.543
1413.925, 117.258
1415.108, 1454.004
1416.291, 345.359
1417.474, 549.898
1418.656, 1260.152
1419.839, 137.402
1421.021, 1015.695
1422.202, 732.793
1423.384, 473.828
1424.566, 1296.871
1425.747, 683.426
1426.928, 67.625
1428.109, 1330.008
1429.290, 457.504
1430.470, 754.684
1431.651, 1261.223
1432.831, 179.875
1434.011, 902.223
1435.191, 808.398
1436.370, 147.184
1437.550, 1184.102
1438.729, 754.207
1439.908, 588.754
1441.087, 1411.270
1442.266, 195.516
1443.444, 1023.059
1444.623, 1463.961
1445.801, 195.699
1446.979, 1318.820
1448.157, 1021.434
1449.334, 327.094
1450.512, 1243.492
1451.689, 797.008
1452.866, 503.070
1454.043, 1454.137
1455.220, 309.637
1456.396, 650.684
1457.573, 1580.621
1458.749, 297.332
1459.925, 1142.270
1461.100, 1304.750
1462.276, 323.398
1463.451, 1381.648
1464.627, 810.859
1465.802, 524.359
1466.977, 1896.312
1468.151, 742.500
1469.326, 600.168
1470.500, 1780.473
1471.674, 247.469
1472.848, 1529.535
1474.022, 1628.035
1475.195, 124.473
1476.369, 1644.586
1477.542, 780.074
1478.715, 604.156
1479.888, 1374.367
1481.061, 491.629
1482.233, 622.145
1483.405, 1325.914
1484.577, 636.176
1485.749, 912.523
1486.921, 1538.059
1488.093, 88.449
1489.264, 1206.219
1490.435, 1583.734
1491.606, 177.391
1492.777, 1415.121
1493.948, 896.965
1495.118, 459.449
1496.288, 1281.660
1497.459, 619.238
1498.628, 508.496
1499.798, 1248.500
1500.968, 268.676
1502.137, 1049.629
1503.306, 1371.078
1504.475, 66.891
1505.644, 1212.348
1506.813, 884.703
1507.981, 367.371
1509.149, 1200.020
1510.318, 396.023
1511.485, 826.387
1512.653, 1169.043
1513.821, 47.148
1514.988, 92.664
1516.155, 1342.734
1517.322, 257.219
1518.489, 828.758
1519.656, 1002.863
1520.822, 0.000
##END=



