##NAMES=Leucophanite
##RRUFFID=R050004
##IDEAL CHEMISTRY=NaCaBeSi_2_O_6_F
##LOCALITY=Langesundfjord, Norway
##OWNER=RRUFF
##SOURCE=University of Arizona Mineral Museum
##DESCRIPTION=Pale green massive
##STATUS=The identification of this mineral has been confirmed by X-ray diffraction and chemical analysis
##URL=rruff.info/R050004
##MEASURED CHEMISTRY=Ca_1.00_Ca_1.00_Na_2.00_Be_2.00_Si_4.00_O_12_(F_0.96_(OH)_0.04_)_2_
##PIN_ID=M00290
##ORIENTATION=Laser parallel to -a* (-1 0 0). Fiducial mark perpendicular to laser is parallel to -b [0 -1 0]
61.830, 0.000
63.234, 10.438
64.637, 3.424
66.041, 15.541
67.444, 33.386
68.847, 36.695
70.250, 48.162
71.652, 65.720
73.054, 92.721
74.456, 72.885
75.858, 50.043
77.260, 37.570
78.661, 9.890
80.062, 2.567
81.463, 0.182
82.863, 24.876
84.264, 18.244
85.664, 0.532
87.064, 41.974
88.463, 15.561
89.863, 43.284
91.262, 47.135
92.661, 69.108
94.059, 96.196
95.458, 117.392
96.856, 139.691
98.254, 159.086
99.652, 178.572
101.049, 191.145
102.446, 239.800
103.843, 279.534
105.240, 293.343
106.637, 337.224
108.033, 399.172
109.429, 676.183
110.825, 651.745
112.220, 627.313
113.616, 731.561
115.011, 456.801
116.406, 425.098
117.800, 419.450
119.195, 420.855
120.589, 398.311
121.983, 407.814
123.377, 379.364
124.770, 415.956
126.163, 439.589
127.556, 441.261
128.949, 435.970
130.342, 408.714
131.734, 431.493
133.126, 400.305
134.518, 418.150
135.909, 427.026
137.301, 416.400
138.692, 432.869
140.083, 420.833
141.473, 456.823
142.864, 476.837
144.254, 484.875
145.644, 513.947
147.034, 547.063
148.423, 568.209
149.812, 638.377
151.201, 752.567
152.590, 900.762
153.979, 995.968
155.367, 976.173
156.755, 970.377
158.143, 957.592
159.530, 886.830
160.918, 839.097
162.305, 705.402
163.692, 620.741
165.078, 581.131
166.465, 583.573
167.851, 604.061
169.237, 625.585
170.623, 722.123
172.008, 737.674
173.393, 671.239
174.778, 567.816
176.163, 540.405
177.548, 443.010
178.932, 363.628
180.316, 363.255
181.700, 335.888
183.083, 295.525
184.467, 302.167
185.850, 288.812
187.233, 271.462
188.616, 288.116
189.998, 265.774
191.380, 267.436
192.762, 287.101
194.144, 288.770
195.525, 336.447
196.907, 334.134
198.288, 336.832
199.669, 417.541
201.049, 439.262
202.429, 427.995
203.810, 497.742
205.189, 417.498
206.569, 387.264
207.949, 342.037
209.328, 309.820
210.707, 289.598
212.085, 264.386
213.464, 248.866
214.842, 244.972
216.220, 234.764
217.598, 237.552
218.976, 256.333
220.353, 232.109
221.730, 259.879
223.107, 268.641
224.483, 197.397
225.860, 257.277
227.236, 269.260
228.612, 220.021
229.988, 190.521
231.363, 229.964
232.738, 233.137
234.113, 172.255
235.488, 184.266
236.863, 212.971
238.237, 282.271
239.611, 278.869
240.985, 252.412
242.359, 275.720
243.732, 259.770
245.105, 256.630
246.478, 262.430
247.851, 249.570
249.223, 270.729
250.595, 243.316
251.967, 332.853
253.339, 277.839
254.711, 338.144
256.082, 302.005
257.453, 321.668
258.824, 312.625
260.195, 274.697
261.565, 221.237
262.935, 215.287
264.305, 258.012
265.675, 299.077
267.044, 306.304
268.414, 351.905
269.783, 394.608
271.151, 509.378
272.520, 536.001
273.888, 565.337
275.256, 625.575
276.624, 589.627
277.992, 429.857
279.359, 419.879
280.726, 313.973
282.093, 356.210
283.460, 287.306
284.827, 235.407
286.193, 201.566
287.559, 214.688
288.925, 166.910
290.290, 184.039
291.656, 203.461
293.021, 174.627
294.386, 218.763
295.750, 185.939
297.115, 217.796
298.479, 214.656
299.843, 212.516
301.207, 234.378
302.570, 270.240
303.933, 357.103
305.296, 443.966
306.659, 503.830
308.022, 699.693
309.384, 933.554
310.746, 1322.414
312.108, 1634.272
313.470, 1836.128
314.831, 1901.981
316.193, 1630.832
317.554, 1291.679
318.914, 932.522
320.275, 709.362
321.635, 492.197
322.995, 400.033
324.355, 328.101
325.715, 236.060
327.074, 261.272
328.434, 185.271
329.792, 212.663
331.151, 168.921
332.510, 216.030
333.868, 246.372
335.226, 217.743
336.584, 207.021
337.941, 178.204
339.299, 224.549
340.656, 193.078
342.013, 194.451
343.370, 232.803
344.726, 106.016
346.082, 150.283
347.438, 139.646
348.794, 95.724
350.150, 162.834
351.505, 180.970
352.860, 137.983
354.215, 214.066
355.570, 299.103
356.924, 436.122
358.278, 594.250
359.632, 872.297
360.986, 1323.247
362.339, 1720.987
363.693, 1885.952
365.046, 1660.001
366.399, 1254.667
367.751, 838.163
369.104, 514.646
370.456, 378.115
371.808, 267.571
373.159, 250.012
374.511, 124.440
375.862, 135.853
377.213, 124.252
378.564, 115.636
379.914, 133.005
381.265, 98.359
382.615, 95.838
383.965, 117.023
385.315, 77.377
386.664, 52.826
388.013, 70.491
389.362, 38.333
390.711, 34.058
392.060, 31.988
393.408, 3.945
394.756, 22.007
396.104, 8.877
397.451, 1.858
398.799, 52.918
400.146, 19.296
401.493, 21.203
402.840, 17.277
404.186, 59.528
405.533, 18.613
406.879, 33.979
408.225, 12.466
409.570, 7.844
410.916, 37.192
412.261, 21.772
413.606, 3.399
414.951, 4.846
416.295, 16.850
417.639, 23.956
418.983, 19.706
420.327, 29.103
421.671, 25.323
423.014, 13.786
424.357, 27.153
425.700, 34.877
427.043, 33.545
428.386, 59.740
429.728, 11.583
431.070, 12.358
432.412, 12.106
433.753, 42.694
435.095, 9.929
436.436, 36.581
437.777, 84.071
439.118, 44.537
440.458, 96.997
441.798, 82.248
443.138, 50.675
444.478, 86.958
445.818, 88.132
447.157, 76.479
448.496, 87.731
449.835, 65.976
451.174, 90.066
452.513, 22.010
453.851, 84.976
455.189, 93.896
456.527, 85.921
457.864, 189.810
459.202, 175.854
460.539, 219.839
461.876, 221.591
463.212, 335.562
464.549, 493.281
465.885, 585.004
467.221, 801.990
468.557, 945.551
469.893, 1123.076
471.228, 1239.478
472.563, 1102.061
473.898, 882.383
475.233, 730.585
476.567, 606.233
477.902, 458.122
479.236, 333.313
480.570, 308.348
481.903, 215.194
483.237, 185.963
484.570, 130.552
485.903, 156.040
487.235, 95.499
488.568, 145.934
489.900, 51.338
491.232, 82.709
492.564, 118.049
493.896, 61.357
495.227, 53.632
496.558, 74.884
497.889, 97.102
499.220, 57.287
500.551, 12.437
501.881, 48.569
503.211, 52.663
504.541, 84.728
505.870, 70.757
507.200, 46.748
508.529, 113.701
509.858, 104.617
511.187, 97.496
512.515, 125.339
513.844, 107.145
515.172, 116.915
516.500, 119.659
517.827, 92.366
519.155, 110.036
520.482, 131.671
521.809, 180.272
523.136, 124.842
524.462, 103.375
525.789, 192.868
527.115, 241.329
528.441, 272.755
529.766, 305.160
531.092, 442.529
532.417, 492.863
533.742, 598.161
535.067, 657.422
536.391, 689.648
537.716, 736.835
539.040, 706.990
540.364, 490.112
541.688, 457.223
543.011, 343.301
544.334, 239.341
545.657, 214.335
546.980, 160.193
548.303, 115.665
549.625, 140.795
550.947, 62.446
552.269, 78.036
553.591, 76.402
554.913, 92.874
556.234, 63.240
557.555, 2.473
558.876, 103.960
560.197, 10.386
561.517, 27.788
562.837, 15.889
564.157, 24.107
565.477, 10.096
566.797, 7.728
568.116, 9.563
569.435, 34.375
570.754, 20.298
572.073, 14.625
573.391, 72.162
574.709, 22.040
576.027, 51.503
577.345, 10.482
578.663, 41.900
579.980, 15.199
581.297, 96.873
582.614, 22.458
583.931, 16.483
585.248, 1.940
586.564, 34.098
587.880, 4.711
589.196, 30.875
590.511, 31.801
591.827, 66.727
593.142, 19.575
594.457, 16.867
595.772, 37.450
597.086, 38.940
598.401, 35.675
599.715, 80.971
601.029, 33.847
602.343, 63.496
603.656, 84.057
604.969, 37.291
606.282, 54.577
607.595, 50.675
608.908, 81.979
610.220, 111.245
611.532, 100.366
612.844, 106.181
614.156, 75.834
615.468, 103.478
616.779, 61.748
618.090, 71.665
619.401, 122.665
620.712, 65.756
622.022, 122.023
623.332, 116.095
624.642, 49.187
625.952, 146.053
627.262, 150.191
628.571, 174.820
629.880, 126.747
631.189, 184.508
632.498, 208.645
633.807, 97.430
635.115, 274.334
636.423, 196.847
637.731, 229.154
639.039, 270.431
640.346, 283.819
641.653, 323.049
642.960, 370.954
644.267, 388.024
645.574, 391.428
646.880, 429.861
648.186, 489.492
649.492, 515.249
650.798, 490.742
652.103, 690.311
653.409, 543.810
654.714, 713.098
656.019, 839.500
657.323, 950.499
658.628, 1088.575
659.932, 1175.930
661.236, 1441.028
662.540, 1715.771
663.843, 2032.138
665.147, 2553.279
666.450, 3149.633
667.753, 4020.901
669.056, 5259.456
670.358, 6812.724
671.660, 8936.128
672.963, 11041.858
674.264, 14005.290
675.566, 15168.376
676.868, 15272.143
678.169, 13935.742
679.470, 11380.219
680.771, 9273.223
682.071, 7385.905
683.372, 5769.680
684.672, 4882.954
685.972, 4051.370
687.271, 3498.227
688.571, 3113.276
689.870, 2724.268
691.169, 2650.096
692.468, 2435.893
693.767, 2217.333
695.065, 2352.884
696.364, 2330.210
697.662, 2533.953
698.960, 2635.221
700.257, 2983.560
701.555, 3206.582
702.852, 3626.700
704.149, 4010.388
705.446, 4247.468
706.742, 4352.594
708.038, 4069.431
709.335, 3850.352
710.631, 3316.120
711.926, 2679.903
713.222, 2133.219
714.517, 1801.456
715.812, 1493.748
717.107, 1078.366
718.402, 1038.014
719.696, 767.560
720.990, 747.068
722.284, 543.256
723.578, 568.797
724.872, 431.014
726.165, 425.089
727.458, 443.446
728.751, 382.179
730.044, 321.133
731.336, 312.299
732.629, 313.817
733.921, 268.442
735.213, 313.927
736.504, 240.938
737.796, 217.000
739.087, 255.670
740.378, 199.423
741.669, 179.002
742.960, 262.666
744.250, 210.276
745.540, 256.202
746.830, 224.725
748.120, 192.066
749.410, 251.645
750.699, 194.318
751.988, 249.892
753.277, 354.089
754.566, 302.369
755.854, 353.991
757.143, 361.284
758.431, 404.753
759.719, 489.954
761.006, 429.972
762.294, 559.007
763.581, 384.987
764.868, 403.700
766.155, 355.006
767.442, 237.159
768.728, 269.098
770.014, 247.795
771.300, 160.612
772.586, 230.364
773.872, 196.003
775.157, 163.712
776.442, 107.867
777.727, 140.293
779.012, 120.541
780.297, 158.811
781.581, 78.750
782.865, 184.631
784.149, 97.378
785.433, 120.144
786.716, 33.207
787.999, 81.215
789.282, 38.232
790.565, 114.463
791.848, 148.846
793.130, 15.753
794.413, 99.551
795.695, 13.087
796.977, 127.292
798.258, 97.592
799.540, 2.750
800.821, 208.291
802.102, 56.508
803.382, 41.395
804.663, 125.187
805.943, 35.746
807.224, 12.796
808.504, 81.001
809.783, 58.113
811.063, 97.000
812.342, 46.587
813.621, 204.321
814.900, 1.114
816.179, 109.781
817.457, 166.329
818.736, 176.759
820.014, 173.881
821.292, 165.564
822.569, 71.420
823.847, 149.224
825.124, 79.435
826.401, 19.825
827.678, 48.512
828.954, 85.503
830.231, 10.369
831.507, 15.219
832.783, 1.985
834.059, 62.571
835.334, 99.121
836.610, 7.294
837.885, 47.578
839.160, 39.148
840.435, 111.755
841.709, 47.649
842.983, 43.159
844.258, 63.660
845.532, 52.943
846.805, 119.022
848.079, 1.999
849.352, 0.588
850.625, 91.007
851.898, 2.159
853.171, 46.508
854.443, 2.077
855.715, 26.468
856.988, 49.785
858.259, 52.546
859.531, 120.797
860.803, 89.348
862.074, 90.309
863.345, 74.354
864.616, 63.888
865.886, 2.709
867.157, 96.562
868.427, 122.702
869.697, 86.719
870.967, 154.614
872.236, 110.380
873.506, 133.019
874.775, 105.533
876.044, 223.914
877.313, 291.177
878.581, 158.253
879.849, 303.177
881.118, 34.935
882.386, 155.551
883.653, 18.650
884.921, 42.155
886.188, 111.610
887.455, 36.620
888.722, 70.801
889.989, 7.234
891.255, 0.030
892.522, 155.863
893.788, 57.332
895.054, 27.412
896.319, 49.037
897.585, 48.863
898.850, 0.282
900.115, 64.818
901.380, 56.804
902.645, 1.541
903.909, 26.903
905.174, 91.363
906.438, 42.119
907.701, 27.474
908.965, 222.997
910.229, 6.633
911.492, 3.780
912.755, 214.322
914.018, 4.830
915.280, 186.041
916.543, 16.110
917.805, 116.652
919.067, 117.016
920.329, 147.033
921.590, 147.669
922.852, 120.181
924.113, 66.415
925.374, 75.537
926.635, 45.753
927.895, 16.588
929.156, 92.025
930.416, 101.638
931.676, 240.692
932.936, 149.437
934.195, 378.878
935.454, 407.708
936.714, 566.584
937.973, 525.300
939.231, 532.269
940.490, 390.897
941.748, 248.495
943.006, 106.538
944.264, 224.214
945.522, 20.009
946.780, 68.213
948.037, 154.534
949.294, 120.827
950.551, 8.662
951.808, 123.997
953.064, 78.687
954.320, 109.621
955.577, 24.312
956.832, 132.802
958.088, 128.483
959.344, 252.213
960.599, 388.878
961.854, 414.739
963.109, 500.765
964.364, 882.326
965.618, 898.435
966.872, 910.747
968.127, 1159.341
969.380, 714.438
970.634, 720.339
971.888, 513.896
973.141, 396.756
974.394, 381.197
975.647, 255.721
976.900, 340.586
978.152, 162.595
979.404, 215.838
980.656, 222.932
981.908, 195.206
983.160, 178.549
984.411, 203.482
985.663, 174.844
986.914, 236.802
988.165, 178.149
989.415, 149.422
990.666, 198.578
991.916, 168.892
993.166, 230.290
994.416, 202.018
995.665, 221.845
996.915, 240.931
998.164, 233.411
999.413, 292.961
1000.662, 304.431
1001.911, 388.486
1003.159, 398.041
1004.407, 188.672
1005.655, 347.889
1006.903, 397.386
1008.151, 267.039
1009.398, 544.057
1010.646, 465.194
1011.893, 485.683
1013.139, 769.963
1014.386, 660.408
1015.633, 1239.854
1016.879, 1179.877
1018.125, 1728.481
1019.371, 2558.768
1020.616, 3138.730
1021.862, 4607.469
1023.107, 5586.835
1024.352, 5566.501
1025.597, 4804.209
1026.842, 3274.293
1028.086, 2573.025
1029.330, 1872.377
1030.574, 1241.663
1031.818, 1197.631
1033.062, 836.473
1034.305, 564.407
1035.548, 739.438
1036.791, 498.401
1038.034, 615.044
1039.277, 678.979
1040.519, 856.070
1041.762, 1072.443
1043.004, 1140.184
1044.246, 1547.896
1045.487, 2032.443
1046.729, 2219.598
1047.970, 3103.748
1049.211, 3230.707
1050.452, 3303.687
1051.692, 3379.752
1052.933, 2596.432
1054.173, 2182.789
1055.413, 1857.800
1056.653, 1364.414
1057.893, 1109.064
1059.132, 814.962
1060.371, 790.881
1061.610, 745.004
1062.849, 521.495
1064.088, 526.818
1065.326, 601.455
1066.565, 478.200
1067.803, 441.961
1069.041, 377.187
1070.278, 442.005
1071.516, 346.127
1072.753, 291.424
1073.990, 464.709
1075.227, 497.963
1076.464, 320.562
1077.700, 362.199
1078.936, 126.295
1080.173, 209.932
1081.408, 292.783
1082.644, 16.850
1083.880, 241.262
1085.115, 114.139
1086.350, 148.531
1087.585, 432.680
1088.820, 76.303
1090.054, 250.422
1091.288, 190.326
1092.522, 282.414
1093.756, 454.725
1094.990, 43.658
1096.224, 245.531
1097.457, 465.953
1098.690, 36.344
1099.923, 207.309
1101.156, 206.908
1102.388, 55.672
1103.621, 264.322
1104.853, 62.521
1106.085, 283.035
1107.316, 231.635
1108.548, 31.758
1109.779, 172.545
1111.010, 141.078
1112.241, 141.883
1113.472, 172.445
1114.703, 29.471
1115.933, 140.900
1117.163, 291.973
1118.393, 80.441
1119.623, 611.199
1120.853, 739.311
1122.082, 238.141
1123.311, 267.002
1124.540, 83.277
1125.769, 171.189
1126.997, 377.832
1128.226, 96.273
1129.454, 424.195
1130.682, 179.043
1131.910, 116.105
1133.138, 543.895
1134.365, 167.686
1135.592, 474.357
1136.819, 600.742
1138.046, 305.297
1139.273, 833.275
1140.499, 477.486
1141.725, 363.039
1142.951, 811.455
1144.177, 255.801
1145.403, 861.691
1146.628, 555.914
1147.854, 99.516
1149.079, 543.115
1150.304, 486.879
1151.528, 401.230
1152.753, 536.939
1153.977, 130.082
1155.201, 581.967
1156.425, 306.967
1157.649, 240.297
1158.872, 355.652
1160.096, 348.520
1161.319, 291.373
1162.542, 499.705
1163.764, 153.479
1164.987, 675.963
1166.209, 288.330
1167.431, 299.395
1168.653, 633.291
1169.875, 423.238
1171.097, 344.232
1172.318, 757.254
1173.539, 278.871
1174.760, 640.676
1175.981, 334.906
1177.202, 464.615
1178.422, 476.572
1179.642, 368.701
1180.862, 417.928
1182.082, 538.717
1183.302, 210.039
1184.521, 657.441
1185.740, 332.141
1186.959, 469.752
1188.178, 578.527
1189.397, 411.037
1190.615, 286.775
1191.834, 677.094
1193.052, 374.244
1194.269, 459.672
1195.487, 341.865
1196.705, 517.484
1197.922, 562.621
1199.139, 334.340
1200.356, 408.863
1201.573, 764.359
1202.789, 299.586
1204.006, 432.457
1205.222, 590.248
1206.438, 272.928
1207.653, 725.074
1208.869, 342.523
1210.084, 332.203
1211.299, 686.027
1212.514, 179.393
1213.729, 558.092
1214.944, 370.102
1216.158, 459.627
1217.372, 587.537
1218.586, 253.309
1219.800, 640.625
1221.014, 619.869
1222.227, 269.676
1223.440, 745.418
1224.654, 326.225
1225.866, 421.547
1227.079, 706.584
1228.292, 301.689
1229.504, 407.980
1230.716, 762.434
1231.928, 600.436
1233.139, 573.875
1234.351, 670.137
1235.562, 381.768
1236.773, 1204.578
1237.984, 497.215
1239.195, 521.297
1240.406, 1083.375
1241.616, 386.006
1242.826, 778.793
1244.036, 708.795
1245.246, 426.244
1246.456, 825.811
1247.665, 517.807
1248.874, 628.525
1250.083, 765.857
1251.292, 436.115
1252.501, 845.896
1253.709, 562.363
1254.917, 509.014
1256.125, 1027.121
1257.333, 522.875
1258.541, 640.830
1259.748, 1186.174
1260.956, 591.938
1262.163, 378.877
1263.370, 953.584
1264.576, 359.934
1265.783, 879.537
1266.989, 544.477
1268.195, 487.986
1269.401, 932.385
1270.607, 573.711
1271.813, 662.428
1273.018, 844.104
1274.223, 73.916
1275.428, 969.111
1276.633, 378.934
1277.838, 283.311
1279.042, 1056.490
1280.246, 385.834
1281.450, 368.367
1282.654, 698.711
1283.858, 147.484
1285.061, 735.447
1286.265, 423.699
1287.468, 83.029
1288.671, 604.627
1289.873, 310.668
1291.076, 541.254
1292.278, 699.660
1293.480, 56.006
1294.682, 665.186
1295.884, 480.934
1297.086, 104.631
1298.287, 612.145
1299.488, 35.387
1300.689, 209.713
1301.890, 603.338
1303.091, 94.969
1304.291, 538.975
1305.491, 609.922
1306.691, 20.184
1307.891, 362.988
1309.091, 521.939
1310.290, 57.441
1311.490, 743.395
1312.689, 231.559
1313.888, 29.322
1315.086, 579.615
1316.285, 246.713
1317.483, 385.826
1318.681, 332.002
1319.879, 88.939
1321.077, 575.625
1322.275, 220.953
1323.472, 185.828
1324.669, 500.715
1325.866, 234.477
1327.063, 188.283
1328.260, 610.965
1329.456, 4.395
1330.653, 565.984
1331.849, 347.527
1333.045, 39.098
1334.240, 829.668
1335.436, 100.906
1336.631, 419.570
1337.826, 698.598
1339.021, 302.707
1340.216, 514.840
1341.411, 563.207
1342.605, 10.809
1343.799, 566.953
1344.993, 372.957
1346.187, 370.023
1347.381, 745.383
1348.574, 90.168
1349.767, 645.129
1350.961, 699.398
1352.153, 64.062
1353.346, 996.656
1354.539, 219.039
1355.731, 262.227
1356.923, 952.555
1358.115, 264.457
1359.307, 494.738
1360.498, 864.953
1361.690, 5.285
1362.881, 693.715
1364.072, 403.895
1365.263, 312.953
1366.453, 860.094
1367.644, 119.344
1368.834, 34.156
1370.024, 672.266
1371.214, 30.480
1372.404, 244.539
1373.593, 589.543
1374.783, 582.637
1375.972, 572.074
1377.161, 284.602
1378.349, 20.121
1379.538, 617.336
1380.726, 543.887
1381.915, 358.023
1383.103, 821.465
1384.290, 355.250
1385.478, 408.734
1386.665, 1151.199
1387.853, 22.137
1389.040, 874.656
1390.227, 367.793
1391.413, 276.480
1392.600, 1286.215
1393.786, 415.895
1394.972, 594.887
1396.158, 1272.453
1397.344, 6.094
1398.530, 683.059
1399.715, 1148.922
1400.900, 18.355
1402.085, 1133.078
1403.270, 696.547
1404.455, 574.801
1405.639, 1184.887
1406.824, 504.957
1408.008, 345.832
1409.192, 1329.762
1410.375, 14.875
1411.559, 767.453
1412.742, 1245.629
1413.925, 114.039
1415.108, 1376.629
1416.291, 720.637
1417.474, 394.301
1418.656, 1294.621
1419.839, 260.828
1421.021, 641.109
1422.202, 1099.711
1423.384, 554.598
1424.566, 1106.641
1425.747, 1105.957
1426.928, 99.852
1428.109, 1187.523
1429.290, 655.965
1430.470, 474.098
1431.651, 1420.945
1432.831, 574.160
1434.011, 694.895
1435.191, 1372.832
1436.370, 173.277
1437.550, 970.379
1438.729, 1324.434
1439.908, 580.816
1441.087, 1552.727
1442.266, 811.402
1443.444, 789.586
1444.623, 1524.594
1445.801, 493.758
1446.979, 948.078
1448.157, 1504.031
1449.334, 424.684
1450.512, 898.703
1451.689, 1343.648
1452.866, 371.086
1454.043, 1601.445
1455.220, 914.809
1456.396, 609.016
1457.573, 1624.344
1458.749, 662.594
1459.925, 739.148
1461.100, 1799.398
1462.276, 457.711
1463.451, 1403.230
1464.627, 1260.223
1465.802, 548.734
1466.977, 1652.023
1468.151, 1247.125
1469.326, 543.910
1470.500, 1805.180
1471.674, 894.508
1472.848, 1225.926
1474.022, 1785.988
1475.195, 107.109
1476.369, 1283.859
1477.542, 1308.621
1478.715, 508.520
1479.888, 1321.164
1481.061, 1111.547
1482.233, 391.180
1483.405, 1581.180
1484.577, 1021.332
1485.749, 549.641
1486.921, 1586.961
1488.093, 287.801
1489.264, 1108.328
1490.435, 1786.148
1491.606, 160.887
1492.777, 1210.352
1493.948, 1370.211
1495.118, 313.371
1496.288, 1358.438
1497.459, 1003.887
1498.628, 193.391
1499.798, 1494.145
1500.968, 510.160
1502.137, 449.996
1503.306, 1592.566
1504.475, 90.945
1505.644, 586.582
1506.813, 1459.020
1507.981, 56.082
1509.149, 1010.191
1510.318, 670.020
1511.485, 148.824
1512.653, 1030.789
1513.821, 466.977
1514.988, 4.637
1516.155, 1299.953
1517.322, 0.000
##END=



