##NAMES=Magnesio-hastingsite
##RRUFFID=R040010
##IDEAL CHEMISTRY=NaCa_2_(Mg_4_Fe^3+^)Si_6_Al_2_O_22_(OH)_2_
##LOCALITY=Amity, New York, USA
##OWNER=RRUFF
##SOURCE=University of Arizona Mineral Museum
##DESCRIPTION=Group of black prismatic crystals
##STATUS=The identification of this mineral has been confirmed by X-ray diffraction and chemical analysis
##URL=rruff.info/R040010
##MEASURED CHEMISTRY=(Na_0.50_K_0.43_[box]_0.07_)_Σ=1_(Ca_1.77_Na_0.23_)_Σ=2_(Mg_1.74_Fe_1.22_Fe^3+^_0.79_Mn_0.57_Al_0.30_Zn_0.25_Ti_0.13_)_Σ=5_(Si_5.95_Al_2.05_)_Σ=8_O_22_((OH)_1.75_F_0.22_Cl_0.03_)_Σ=2_; OH estimated by charge balance
##PIN_ID=L00491
##ORIENTATION=Laser parallel to [1 0 1]. Fiducial mark perpendicular to laser is parallel to b* (0 1 0)
162.1560, 0.0000000E+00
163.3880, 303.4824
164.6200, 422.6465
165.8510, 177.9238
167.0820, 90.01562
168.3130, 108.9688
169.5440, 102.1133
170.7750, 531.6582
172.0050, 405.9961
173.2350, 423.4648
174.4650, 589.6758
175.6950, 349.8184
176.9250, 932.5215
178.1550, 901.1270
179.3840, 994.5488
180.6130, 970.1270
181.8420, 969.4492
183.0710, 1210.334
184.3000, 1239.295
185.5280, 1293.250
186.7570, 1489.645
187.9850, 1471.482
189.2130, 1370.803
190.4400, 1672.174
191.6680, 1433.326
192.8960, 1159.645
194.1230, 1386.467
195.3500, 1365.076
196.5770, 1525.721
197.8030, 1624.605
199.0300, 1965.918
200.2560, 2186.826
201.4830, 2717.488
202.7090, 2118.375
203.9340, 1691.531
205.1600, 1400.053
206.3860, 424.9551
207.6110, 457.7031
208.8360, 747.4121
210.0610, 979.2578
211.2860, 1601.479
212.5100, 2018.969
213.7350, 2642.877
214.9590, 2914.508
216.1830, 3587.262
217.4070, 3959.527
218.6310, 4040.369
219.8540, 4710.627
221.0780, 4750.035
222.3010, 4747.572
223.5240, 4801.211
224.7470, 4624.938
225.9690, 4404.732
227.1920, 4331.590
228.4140, 3939.119
229.6360, 3275.492
230.8580, 3194.545
232.0800, 2678.666
233.3020, 2303.854
234.5230, 2038.109
235.7440, 1977.457
236.9650, 1670.992
238.1860, 1505.746
239.4070, 1273.729
240.6280, 761.9395
241.8480, 681.3945
243.0680, 456.7988
244.2880, 384.4141
245.5080, 232.3730
246.7280, 202.4336
247.9470, 17.81641
249.1660, 81.13867
250.3860, 99.77734
251.6040, 202.9688
252.8230, 90.35547
254.0420, 144.0039
255.2600, 204.3340
256.4790, 32.89258
257.6970, 288.2266
258.9150, 120.2480
260.1320, 121.1367
261.3500, 44.66211
262.5670, 135.5742
263.7840, 174.7246
265.0010, 46.37109
266.2180, 10.71289
267.4350, 120.7539
268.6510, 39.13867
269.8680, 98.06836
271.0840, 44.20312
272.3000, 53.69922
273.5160, 136.6406
274.7310, 224.1445
275.9470, 303.2539
277.1620, 396.6660
278.3770, 472.5195
279.5920, 518.0273
280.8070, 639.9922
282.0210, 685.3945
283.2360, 695.5801
284.4500, 836.5332
285.6640, 998.3652
286.8780, 1013.020
288.0920, 993.6191
289.3050, 1126.133
290.5180, 994.6113
291.7320, 936.1465
292.9450, 929.7461
294.1570, 1084.410
295.3700, 952.1367
296.5830, 843.9219
297.7950, 628.7695
299.0070, 833.6758
300.2190, 689.6387
301.4310, 634.6602
302.6420, 585.7383
303.8540, 515.8711
305.0650, 355.0605
306.2760, 348.3184
307.4870, 664.6582
308.6980, 875.9160
309.9080, 288.1836
311.1190, 512.0078
312.3290, 218.2598
313.5390, 421.7812
314.7490, 553.5703
315.9580, 170.5645
317.1680, 145.7480
318.3770, 273.0762
319.5860, 226.5488
320.7950, 2.173828
322.0040, 176.0703
323.2130, 93.92578
324.4210, 267.3086
325.6290, 21.13281
326.8380, 366.9258
328.0460, 242.6953
329.2530, 8.480469
330.4610, 110.2051
331.6680, 58.44141
332.8760, 191.5371
334.0830, 213.0195
335.2890, 215.3652
336.4960, 366.5781
337.7030, 350.0195
338.9090, 410.6758
340.1150, 464.5742
341.3210, 538.3848
342.5270, 717.1211
343.7330, 634.7832
344.9380, 768.3828
346.1440, 914.1855
347.3490, 785.4180
348.5540, 1195.859
349.7590, 1139.250
350.9630, 1146.254
352.1680, 1337.199
353.3720, 1603.742
354.5760, 1836.873
355.7800, 1675.637
356.9840, 2446.125
358.1870, 2100.400
359.3910, 2223.451
360.5940, 2511.357
361.7970, 2340.127
363.0000, 2459.855
364.2030, 2500.613
365.4050, 2423.521
366.6080, 2511.652
367.8100, 2370.072
369.0120, 2485.951
370.2140, 2503.861
371.4150, 2331.799
372.6170, 2284.764
373.8180, 2395.758
375.0190, 2331.779
376.2200, 2121.826
377.4210, 2237.902
378.6220, 2067.002
379.8220, 1963.098
381.0230, 1857.389
382.2230, 1638.455
383.4230, 1653.652
384.6220, 1361.871
385.8220, 1534.113
387.0220, 1497.369
388.2210, 1352.559
389.4200, 1342.475
390.6190, 1076.814
391.8180, 1003.471
393.0160, 1007.893
394.2150, 667.0234
395.4130, 739.4707
396.6110, 650.7812
397.8090, 620.3164
399.0060, 591.6406
400.2040, 595.6094
401.4010, 507.9277
402.5980, 618.6426
403.7950, 459.0430
404.9920, 373.5254
406.1890, 477.9473
407.3860, 533.7969
408.5820, 569.3242
409.7780, 733.0410
410.9740, 759.1250
412.1700, 779.4316
413.3650, 798.9902
414.5610, 894.6074
415.7560, 819.4688
416.9510, 1055.191
418.1460, 1094.379
419.3410, 1049.863
420.5360, 1252.355
421.7300, 1447.855
422.9240, 1606.367
424.1180, 1607.887
425.3120, 1924.416
426.5060, 1902.963
427.7000, 2080.518
428.8930, 2090.088
430.0860, 1836.676
431.2790, 1992.275
432.4720, 2024.895
433.6650, 1827.527
434.8580, 1917.176
436.0500, 1938.844
437.2420, 1616.527
438.4340, 1594.223
439.6260, 1649.938
440.8180, 1475.664
442.0090, 1360.406
443.2010, 1254.162
444.3920, 1158.934
445.5830, 1030.926
446.7740, 948.3633
447.9640, 806.1777
449.1550, 794.6582
450.3450, 736.7773
451.5350, 730.4141
452.7250, 593.8711
453.9150, 510.9570
455.1050, 654.3125
456.2940, 501.8652
457.4830, 449.7949
458.6720, 461.7246
459.8610, 761.1914
461.0500, 334.2930
462.2390, 614.6367
463.4270, 409.3027
464.6150, 589.7754
465.8040, 287.1660
466.9910, 221.6250
468.1790, 418.3809
469.3670, 584.2676
470.5540, 462.5488
471.7410, 470.4375
472.9280, 473.8750
474.1150, 701.6660
475.3020, 555.9824
476.4890, 456.2812
477.6750, 562.6445
478.8610, 980.4824
480.0470, 1121.160
481.2330, 944.3281
482.4190, 1183.459
483.6040, 1197.557
484.7900, 1173.621
485.9750, 1413.650
487.1600, 1807.646
488.3450, 2516.609
489.5290, 2379.779
490.7140, 2666.432
491.8980, 2544.291
493.0820, 2882.119
494.2660, 3030.104
495.4500, 3273.676
496.6340, 3578.406
497.8170, 3747.107
499.0010, 4265.783
500.1840, 4821.434
501.3670, 4718.059
502.5500, 5045.656
503.7320, 5298.227
504.9150, 5296.777
506.0970, 5385.303
507.2790, 5560.805
508.4610, 5958.281
509.6430, 6030.734
510.8250, 6249.160
512.0060, 6399.562
513.1870, 6636.938
514.3680, 6786.285
515.5490, 7052.609
516.7300, 7151.904
517.9110, 7523.174
519.0910, 7660.416
520.2710, 7897.631
521.4510, 8204.812
522.6310, 8415.971
523.8110, 8638.102
524.9910, 8847.402
526.1700, 9036.270
527.3490, 9230.312
528.5280, 9379.324
529.7070, 9612.305
530.8860, 9736.254
532.0650, 9639.176
533.2430, 9719.070
534.4210, 10931.01
535.5990, 9985.740
536.7770, 11211.85
537.9550, 8924.730
539.1320, 8978.654
540.3100, 8788.586
541.4870, 8257.547
542.6640, 8122.549
543.8410, 7868.543
545.0170, 7681.596
546.1940, 7327.666
547.3700, 7052.754
548.5470, 6895.830
549.7230, 6670.928
550.8980, 6476.051
552.0740, 6476.166
553.2500, 6102.266
554.4250, 6064.402
555.6000, 5630.531
556.7750, 5374.695
557.9500, 5635.848
559.1250, 5257.980
560.2990, 5029.098
561.4730, 4881.217
562.6480, 4641.404
563.8220, 4350.449
564.9950, 4347.256
566.1690, 4143.836
567.3430, 4055.131
568.5160, 3679.455
569.6890, 3487.832
570.8620, 3233.188
572.0350, 2764.531
573.2070, 2753.857
574.3800, 2591.221
575.5520, 2176.547
576.7240, 1839.850
577.8960, 1832.121
579.0680, 1428.396
580.2400, 1439.672
581.4110, 1207.912
582.5830, 1097.113
583.7540, 830.2734
584.9250, 738.3887
586.0950, 716.4648
587.2660, 374.4980
588.4370, 308.4941
589.6070, 276.4395
590.7770, 188.3262
591.9470, 149.8496
593.1170, 241.2207
594.2860, 21.16797
595.4560, 189.5488
596.6250, 0.4843750
597.7940, 260.5371
598.9630, 227.8457
600.1320, 315.3945
601.3000, 261.2285
602.4690, 328.3203
603.6370, 444.7070
604.8050, 467.4492
605.9730, 130.5527
607.1410, 190.0605
608.3090, 255.1406
609.4760, 41.12891
610.6430, 23.29883
611.8100, 130.6406
612.9770, 118.2266
614.1440, 260.9805
615.3110, 292.5547
616.4770, 154.0352
617.6430, 337.4434
618.8090, 452.8008
619.9750, 283.1055
621.1410, 700.3535
622.3070, 766.5605
623.4720, 1019.721
624.6370, 986.8418
625.8020, 1265.918
626.9670, 1331.951
628.1320, 1465.939
629.2970, 1648.885
630.4610, 1759.791
631.6250, 1958.420
632.7890, 2238.467
633.9530, 2354.244
635.1170, 2806.979
636.2810, 3059.672
637.4440, 3269.322
638.6070, 3240.926
639.7700, 3513.490
640.9330, 3780.012
642.0960, 3975.490
643.2590, 4235.930
644.4210, 4371.805
645.5830, 4437.680
646.7450, 4602.994
647.9070, 4907.266
649.0690, 4981.496
650.2310, 5185.684
651.3920, 5459.832
652.5530, 5644.238
653.7140, 5872.002
654.8750, 6092.027
656.0360, 6327.010
657.1970, 6432.953
658.3570, 6745.852
659.5170, 6773.713
660.6770, 6811.535
661.8370, 6770.312
662.9970, 6878.055
664.1570, 6886.752
665.3160, 6775.410
666.4750, 6465.031
667.6340, 6239.611
668.7930, 6000.152
669.9520, 5961.650
671.1110, 5386.111
672.2690, 5465.531
673.4270, 5125.914
674.5850, 5223.258
675.7430, 4978.562
676.9010, 4808.824
678.0590, 5060.051
679.2160, 4698.240
680.3730, 4633.387
681.5300, 4596.496
682.6870, 4506.564
683.8440, 4404.164
685.0010, 4207.336
686.1570, 4048.535
687.3130, 3703.449
688.4690, 3263.318
689.6250, 2911.150
690.7810, 3088.941
691.9370, 2652.693
693.0920, 2471.564
694.2470, 2640.236
695.4020, 2440.008
696.5570, 2305.281
697.7120, 2382.363
698.8670, 2622.857
700.0210, 2469.414
701.1750, 2601.391
702.3290, 2968.658
703.4830, 2910.541
704.6370, 3220.303
705.7910, 3305.611
706.9440, 3401.660
708.0970, 3750.406
709.2510, 3791.570
710.4030, 4130.738
711.5560, 4362.117
712.7090, 4582.436
713.8610, 4827.240
715.0140, 5039.605
716.1660, 5251.234
717.3180, 5483.945
718.4690, 5740.820
719.6210, 5955.285
720.7730, 6098.662
721.9240, 6276.842
723.0750, 6332.117
724.2260, 6556.633
725.3770, 6643.102
726.5270, 6796.957
727.6780, 6940.156
728.8280, 6987.039
729.9780, 7112.660
731.1280, 7337.484
732.2780, 7182.066
733.4280, 7013.971
734.5770, 6885.555
735.7260, 7095.887
736.8760, 6720.787
738.0250, 6766.629
739.1730, 6718.883
740.3220, 6499.443
741.4700, 6433.918
742.6190, 5944.594
743.7670, 6075.984
744.9150, 5596.469
746.0630, 5367.168
747.2100, 4857.738
748.3580, 4712.568
749.5050, 4356.508
750.6520, 4253.783
751.7990, 3922.803
752.9460, 3966.840
754.0930, 3884.074
755.2390, 3531.730
756.3860, 3306.277
757.5320, 3365.295
758.6780, 3033.422
759.8240, 2965.016
760.9690, 2714.594
762.1150, 2863.158
763.2600, 2962.713
764.4060, 2757.252
765.5510, 2787.785
766.6950, 2602.143
767.8400, 2790.953
768.9850, 2894.701
770.1290, 2917.941
771.2730, 2619.621
772.4170, 2736.523
773.5610, 2687.008
774.7050, 2630.656
775.8480, 2805.975
776.9920, 2554.379
778.1350, 2726.006
779.2780, 2728.686
780.4210, 2808.682
781.5640, 2721.230
782.7060, 2685.502
783.8490, 2657.115
784.9910, 2493.525
786.1330, 2399.934
787.2750, 2343.340
788.4170, 2327.746
789.5580, 2349.150
790.7000, 2225.553
791.8410, 2156.955
792.9820, 2052.359
794.1230, 1987.762
795.2640, 1880.158
796.4040, 1890.574
797.5450, 1727.982
798.6850, 1598.393
799.8250, 1644.805
800.9650, 1686.221
802.1050, 1115.791
803.2450, 1268.754
804.3840, 1336.703
805.5230, 1324.164
806.6630, 990.0410
807.8020, 1071.184
808.9400, 985.9609
810.0790, 893.8828
811.2170, 1033.512
812.3560, 746.2188
813.4940, 882.1836
814.6320, 849.2148
815.7700, 664.0723
816.9070, 857.5664
818.0450, 732.8301
819.1820, 837.5840
820.3190, 723.1055
821.4560, 645.6387
822.5930, 679.2812
823.7300, 587.7344
824.8670, 336.2969
826.0030, 389.8730
827.1390, 96.45703
828.2750, 286.0547
829.4110, 111.3359
830.5470, 66.22656
831.6820, 125.1992
832.8180, 132.3242
833.9530, 42.14062
835.0880, 52.61719
836.2230, 152.1133
837.3580, 105.6738
838.4920, 203.7520
839.6270, 374.9551
840.7610, 231.8125
841.8950, 497.7695
843.0290, 272.9609
844.1630, 366.2715
845.2960, 61.74805
846.4300, 105.2383
847.5630, 91.75977
848.6960, 306.3086
849.8290, 15.98242
850.9620, 49.65234
852.0940, 20.32617
853.2270, 205.9941
854.3590, 174.7324
855.4910, 16.52539
856.6230, 24.69141
857.7550, 50.92969
858.8870, 143.1895
860.0180, 38.47461
861.1500, 172.7852
862.2810, 63.88086
863.4120, 41.45508
864.5430, 264.8242
865.6730, 329.2207
866.8040, 216.6602
867.9340, 259.1992
869.0640, 149.8633
870.1940, 287.5879
871.3240, 148.4258
872.4540, 199.3301
873.5830, 419.3711
874.7130, 338.5371
875.8420, 533.8535
876.9710, 373.3086
878.1000, 479.9180
879.2290, 675.7129
880.3570, 545.7031
881.4860, 638.7969
882.6140, 639.0605
883.7420, 642.3613
884.8700, 621.7734
885.9980, 831.2539
887.1250, 843.8398
888.2530, 669.4746
889.3800, 616.2520
890.5070, 946.0723
891.6340, 783.9395
892.7610, 825.8457
893.8880, 741.7891
895.0140, 815.7734
896.1400, 919.7930
897.2670, 945.8711
898.3930, 1108.025
899.5180, 1077.250
900.6440, 1107.514
901.7700, 1219.846
902.8950, 988.2129
904.0200, 1021.646
905.1450, 1214.189
906.2700, 1289.770
907.3950, 1089.457
908.5190, 1394.197
909.6440, 1479.973
910.7680, 1543.787
911.8920, 1253.734
913.0160, 1371.760
914.1400, 1520.828
915.2630, 1463.939
916.3870, 1581.668
917.5100, 1514.914
918.6330, 1666.836
919.7560, 1464.312
920.8790, 1462.840
922.0010, 1643.475
923.1240, 1521.170
924.2460, 1653.918
925.3680, 1899.711
926.4900, 1571.553
927.6120, 1603.449
928.7340, 1984.385
929.8550, 1764.406
930.9760, 2136.488
932.0980, 1916.611
933.2190, 1735.779
934.3390, 1893.994
935.4600, 1972.248
936.5810, 2046.543
937.7010, 2041.879
938.8210, 2134.264
939.9410, 2114.689
941.0610, 2307.156
942.1810, 2166.676
943.3010, 2226.238
944.4200, 2416.842
945.5390, 2319.486
946.6580, 2442.174
947.7770, 2414.906
948.8960, 2359.678
950.0150, 2373.492
951.1330, 2444.350
952.2510, 2489.252
953.3690, 2667.199
954.4870, 2772.186
955.6050, 2831.477
956.7230, 2939.348
957.8400, 2964.492
958.9580, 2964.682
960.0750, 3046.914
961.1920, 2908.184
962.3090, 2985.502
963.4250, 3208.859
964.5420, 3127.105
965.6580, 3258.555
966.7740, 3090.230
967.8900, 3347.766
969.0060, 3600.814
970.1220, 3634.459
971.2380, 3557.043
972.3530, 3668.213
973.4680, 3570.092
974.5830, 3435.365
975.6980, 3794.764
976.8130, 3944.617
977.9280, 3912.740
979.0420, 4312.170
980.1560, 4234.191
981.2710, 4254.211
982.3850, 4413.027
983.4980, 4503.912
984.6120, 4499.273
985.7260, 4690.373
986.8390, 5126.754
987.9520, 4879.270
989.0650, 4904.633
990.1780, 5339.418
991.2910, 5235.016
992.4030, 5469.672
993.5160, 5439.422
994.6280, 5684.223
995.7400, 5805.080
996.8520, 6020.674
997.9640, 5817.646
999.0750, 5972.676
1000.187, 5984.771
1001.298, 6031.922
1002.409, 6190.125
1003.520, 6178.385
1004.631, 6033.693
1005.741, 6387.059
1006.852, 6342.473
1007.962, 6284.941
1009.072, 6595.465
1010.182, 6481.037
1011.292, 6658.660
1012.402, 6388.332
1013.511, 6835.053
1014.621, 6478.822
1015.730, 6429.637
1016.839, 6513.500
1017.948, 6458.414
1019.056, 6480.861
1020.165, 6423.391
1021.273, 6451.455
1022.382, 6394.566
1023.490, 6278.721
1024.598, 6059.916
1025.706, 6228.158
1026.813, 5932.445
1027.921, 5779.773
1029.028, 5971.150
1030.135, 5950.047
1031.242, 5980.480
1032.349, 5605.959
1033.456, 5575.504
1034.562, 5632.918
1035.668, 5403.543
1036.775, 5479.111
1037.881, 5378.539
1038.987, 5207.289
1040.092, 5285.881
1041.198, 5328.648
1042.303, 4918.510
1043.408, 5046.406
1044.514, 4855.658
1045.618, 5198.146
1046.723, 5052.330
1047.828, 4983.301
1048.932, 4911.857
1050.037, 4849.141
1051.141, 4656.629
1052.245, 4739.762
1053.349, 4508.988
1054.452, 4618.113
1055.556, 4587.551
1056.659, 4620.934
1057.762, 4621.305
1058.865, 4134.383
1059.968, 4345.820
1061.071, 4491.203
1062.174, 4769.855
1063.276, 4335.760
1064.378, 4229.344
1065.480, 4185.125
1066.582, 4061.295
1067.684, 3959.820
1068.786, 3901.375
1069.887, 3868.934
1070.988, 4029.715
1072.090, 3937.336
1073.191, 3850.975
1074.291, 4023.158
1075.392, 3738.838
1076.493, 3643.674
1077.593, 3679.396
1078.693, 3824.229
1079.793, 3545.121
1080.893, 3286.922
1081.993, 3498.738
1083.092, 3415.584
1084.192, 3456.439
1085.291, 3160.789
1086.390, 3277.764
1087.489, 3166.027
1088.588, 3167.951
1089.686, 3000.893
1090.785, 2890.850
1091.883, 2820.672
1092.981, 2619.811
1094.079, 2637.816
1095.177, 2571.992
1096.275, 2490.832
1097.373, 2371.635
1098.470, 2534.732
1099.567, 2216.875
1100.664, 2241.410
1101.761, 2038.596
1102.858, 1661.807
1103.954, 2005.377
1105.051, 1788.678
1106.147, 1613.043
1107.243, 1469.631
1108.339, 1617.639
1109.435, 1680.609
1110.531, 1663.586
1111.626, 1324.744
1112.722, 1401.090
1113.817, 1311.131
1114.912, 1214.369
1116.007, 1349.363
1117.101, 1057.520
1118.196, 1188.855
1119.290, 1151.326
1120.385, 1191.178
1121.479, 1064.982
1122.573, 989.1777
1123.666, 1080.908
1124.760, 1088.814
1125.853, 942.0840
1126.947, 986.9238
1128.040, 690.2051
1129.133, 693.2246
1130.226, 826.3984
1131.318, 690.6836
1132.411, 818.9375
1133.503, 651.2246
1134.596, 340.5117
1135.688, 304.8047
1136.780, 354.0938
1137.871, 563.3828
1138.963, 435.0645
1140.054, 215.6934
1141.146, 127.0156
1142.237, 99.23633
1143.328, 424.6543
1144.419, 81.99219
1145.509, 318.5625
1146.600, 228.9141
1147.690, 83.32227
1148.780, 111.5078
1149.870, 70.86523
1150.960, 255.1191
1152.050, 176.9434
1153.139, 197.3398
1154.229, 266.7266
1155.318, 48.10938
1156.407, 170.2324
1157.496, 309.2168
1158.585, 194.4941
1159.674, 36.55078
1160.762, 81.11133
1161.850, 150.7109
1162.939, 132.9375
1164.027, 152.0156
1165.114, 110.8848
1166.202, 119.3984
1167.290, 92.38867
1168.377, 262.9629
1169.464, 173.3281
1170.551, 244.9004
1171.638, 38.28320
1172.725, 73.81250
1173.812, 43.37695
1174.898, 326.0469
1175.984, 120.6309
1177.071, 0.3554690
1178.157, 39.38672
1179.242, 242.4355
1180.328, 109.1992
1181.414, 142.4551
1182.499, 182.6504
1183.584, 8.750000
1184.669, 226.8301
1185.754, 38.91797
1186.839, 20.44141
1187.924, 75.30273
1189.008, 3.583984
1190.092, 16.44727
1191.177, 192.3828
1192.260, 112.3301
1193.344, 35.14844
1194.428, 80.96875
1195.512, 53.06445
1196.595, 38.13672
1197.678, 166.1797
1198.761, 129.7871
1199.844, 169.7852
1200.927, 29.76367
1202.009, 157.9258
1203.092, 217.8457
1204.174, 25.74219
1205.256, 263.8340
1206.338, 115.4277
1207.420, 172.2285
1208.502, 132.3242
1209.583, 125.3711
1210.665, 169.7324
1211.746, 223.8438
1212.827, 166.5273
1213.908, 223.3105
1214.988, 86.94531
1216.069, 157.5488
1217.149, 40.87305
1218.230, 266.6211
1219.310, 231.0898
1220.390, 415.5293
1221.470, 406.9434
1222.549, 448.7480
1223.629, 453.1074
1224.708, 329.4414
1225.787, 96.28711
1226.866, 269.5586
1227.945, 344.7988
1229.024, 550.1738
1230.103, 130.3594
1231.181, 318.5117
1232.259, 240.6348
1233.337, 149.7852
1234.415, 298.0000
1235.493, 450.0293
1236.571, 330.0273
1237.648, 195.9941
1238.726, 344.9746
1239.803, 155.8730
1240.880, 262.8516
1241.957, 396.8066
1243.034, 255.8984
1244.110, 347.6543
1245.187, 460.3730
1246.263, 305.0566
1247.339, 405.8516
1248.415, 378.4609
1249.491, 262.6074
1250.566, 112.1445
1251.642, 310.1543
1252.717, 322.6934
1253.793, 47.89648
1254.868, 329.3965
1255.943, 292.6504
1257.017, 157.8672
1258.092, 279.0352
1259.166, 175.3887
1260.241, 77.52734
1261.315, 224.5801
1262.389, 481.3027
1263.462, 425.9824
1264.536, 469.0176
1265.610, 390.7695
1266.683, 374.8398
1267.756, 219.2695
1268.829, 233.0273
1269.902, 454.1465
1270.975, 933.8047
1272.048, 359.0195
1273.120, 548.1328
1274.192, 284.1621
1275.264, 340.8027
1276.336, 323.2520
1277.408, 196.8750
1278.480, 431.3711
1279.551, 105.9199
1280.623, 259.5586
1281.694, 389.8301
1282.765, 362.9883
1283.836, 521.8398
1284.907, 373.9668
1285.977, 401.4297
1287.048, 525.4219
1288.118, 405.3691
1289.188, 384.3262
1290.258, 339.7051
1291.328, 492.6484
1292.398, 253.8340
1293.467, 469.5664
1294.537, 288.4258
1295.606, 304.0723
1296.675, 233.7773
1297.744, 216.8770
1298.813, 691.3906
1299.882, 429.0645
1300.950, 201.6797
1302.018, 543.1289
1303.086, 266.5000
1304.155, 331.5000
1305.222, 366.2578
1306.290, 409.4316
1307.358, 423.1406
1308.425, 347.2773
1309.492, 366.2285
1310.559, 322.9707
1311.626, 239.0703
1312.693, 412.0664
1313.760, 137.1699
1314.826, 404.9531
1315.893, 271.7891
1316.959, 330.6309
1318.025, 304.7617
1319.091, 381.5312
1320.157, 393.3477
1321.222, 372.8828
1322.288, 281.4824
1323.353, 258.0742
1324.418, 433.4688
1325.483, 420.6406
1326.548, 101.2832
1327.612, 536.8945
1328.677, 351.4785
1329.741, 173.8613
1330.806, 249.3711
1331.870, 386.8535
1332.934, 170.7871
1333.997, 257.2148
1335.061, 212.4824
1336.124, 243.8555
1337.188, 159.1152
1338.251, 18.70312
1339.314, 275.5625
1340.377, 560.8027
1341.439, 200.0059
1342.502, 283.1914
1343.564, 469.8730
1344.627, 497.8652
1345.689, 315.5605
1346.751, 278.5781
1347.813, 341.5703
1348.874, 365.5352
1349.936, 125.4531
1350.997, 309.3398
1352.058, 256.2012
1353.119, 28.03711
1354.180, 306.1602
1355.241, 306.9355
1356.301, 186.6758
1357.362, 447.3867
1358.422, 286.6758
1359.482, 241.2754
1360.542, 210.8457
1361.602, 188.0137
1362.662, 320.4609
1363.721, 815.8477
1364.781, 479.1191
1365.840, 135.7949
1366.899, 293.3672
1367.958, 194.0879
1369.017, 191.1934
1370.075, 149.4688
1371.134, 296.5098
1372.192, 287.5234
1373.250, 330.5117
1374.308, 184.4746
1375.366, 242.3984
1376.424, 19.70508
1377.481, 354.1074
1378.539, 97.60352
1379.596, 194.4062
1380.653, 299.1836
1381.710, 281.9707
1382.767, 308.6953
1383.824, 267.4570
1384.880, 268.4648
1385.937, 151.9219
1386.993, 190.9570
1388.049, 195.0156
1389.105, 57.28125
1390.161, 56.81836
1391.216, 83.33008
1392.272, 82.81250
1393.327, 139.2676
1394.382, 14.30469
1395.437, 192.7051
1396.492, 75.26172
1397.547, 259.0488
1398.601, 67.33398
1399.656, 62.40625
1400.710, 62.19531
1401.764, 155.7539
1402.818, 324.8887
1403.872, 59.06250
1404.925, 155.1855
1405.979, 187.7715
1407.032, 91.35156
1408.085, 166.8809
1409.139, 233.8086
1410.191, 39.74805
1411.244, 167.8496
1412.297, 75.72461
1413.349, 332.6406
1414.402, 196.4805
1415.454, 163.3047
1416.506, 226.1152
1417.558, 5.812500
1418.609, 79.65039
1419.661, 286.0879
1420.712, 302.9355
1421.764, 170.5410
1422.815, 321.4453
1423.866, 104.8340
1424.916, 317.2598
1425.967, 633.1875
1427.018, 0.8242190
1428.068, 150.6523
1429.118, 159.6387
1430.168, 311.3887
1431.218, 427.4492
1432.268, 442.7012
1433.318, 376.8125
1434.367, 469.9199
1435.416, 347.0918
1436.465, 267.3008
1437.514, 411.5625
1438.563, 295.8223
1439.612, 306.9180
1440.661, 216.0723
1441.709, 272.5195
1442.757, 246.6055
1443.805, 282.8262
1444.853, 160.3965
1445.901, 399.2539
1446.949, 431.3418
1447.996, 80.60742
1449.044, 320.8613
1450.091, 328.4941
1451.138, 116.6914
1452.185, 442.6426
1453.232, 428.5527
1454.278, 470.6211
1455.325, 216.4180
1456.371, 197.1406
1457.417, 304.0176
1458.463, 550.0020
1459.509, 408.9922
1460.555, 195.9883
1461.601, 400.4883
1462.646, 158.4336
1463.691, 201.5801
1464.737, 299.2793
1465.782, 271.1426
1466.826, 386.9199
1467.871, 333.5664
1468.916, 315.3750
1469.960, 267.6289
1471.004, 172.9707
1472.048, 255.2188
1473.092, 192.5566
1474.136, 234.2305
1475.180, 198.1953
1476.223, 239.9219
1477.267, 328.4883
1478.310, 219.0957
1479.353, 356.4082
1480.396, 480.9238
1481.439, 511.5156
1482.481, 389.7012
1483.524, 417.2051
1484.566, 378.5430
1485.608, 367.1113
1486.650, 361.3613
1487.692, 133.3691
1488.734, 388.5527
1489.775, 189.9668
1490.817, 315.7676
1491.858, 281.4414
1492.899, 404.6328
1493.940, 189.4102
1494.981, 32.48047
1496.022, 123.6699
1497.062, 83.48438
1498.103, 264.8555
1499.143, 227.6641
1500.183, 470.4102
1501.223, 209.1484
1502.263, 77.89453
1503.302, 419.6211
1504.342, 496.3262
1505.381, 293.0059
1506.420, 501.6250
1507.459, 323.2070
1508.498, 327.7461
1509.537, 161.2676
1510.576, 187.0879
1511.614, 476.1367
1512.652, 106.4629
1513.691, 341.7168
1514.729, 342.9844
1515.767, 232.1777
1516.804, 321.2969
1517.842, 289.3555
1518.879, 187.3535
1519.917, 319.2676
1520.954, 456.2402
1521.991, 326.2852
1523.028, 363.2559
1524.064, 145.2637
1525.101, 286.1973
1526.137, 443.0488
1527.173, 225.8750
1528.210, 99.83789
1529.245, 167.0645
1530.281, 448.5469
1531.317, 406.6426
1532.352, 269.5664
1533.388, 296.6289
1534.423, 48.49414
1535.458, 4.718750
1536.493, 461.0195
1537.528, 42.08008
1538.562, 231.4609
1539.597, 335.8223
1540.631, 359.7305
1541.665, 62.15625
1542.700, 179.8848
1543.733, 131.2832
1544.767, 75.96094
1545.801, 252.4258
1546.834, 2.132813
1547.868, 175.2246
1548.901, 179.5469
1549.934, 261.4023
1550.967, 176.0352
1551.999, 142.5488
1553.032, 276.5508
1554.064, 316.6387
1555.097, 212.1914
1556.129, 300.0059
1557.161, 45.69922
1558.193, 92.12109
1559.224, 265.8633
1560.256, 171.4277
1561.287, 263.5645
1562.318, 285.0918
1563.350, 15.17383
1564.380, 242.8496
1565.411, 261.5117
1566.442, 31.97461
1567.472, 209.2891
1568.503, 8.880859
1569.533, 44.81055
1570.563, 0.0000000E+00
##END=



