##NAMES=Marialite
##RRUFFID=R040043
##IDEAL CHEMISTRY=Na_4_Al_3_Si_9_O_24_Cl
##LOCALITY=Gouverneur, New York, USA
##OWNER=RRUFF
##SOURCE=University of Arizona Mineral Museum
##DESCRIPTION=White prismatic crystals
##STATUS=The identification of this mineral has been confirmed by X-ray diffraction and chemical analysis
##URL=rruff.info/R040043
##MEASURED CHEMISTRY=(Na_.493_Ca_.446_K_.061_)_4_(Si_.634_Al_.366_)_12_O_24_((CO_3_)_.581_Cl_.419_)
##PIN_ID=S00028
##ORIENTATION=Laser parallel to a* (1 0 0). Fiducial mark perpendicular to laser is parallel to c [0 0 1]
104.516, 0.000
105.908, 826.982
107.300, 1142.246
108.691, 1850.117
110.082, 1832.615
111.473, 1928.930
112.864, 1812.984
114.254, 1701.668
115.644, 1408.285
117.034, 1093.559
118.424, 418.459
119.813, 465.291
121.203, 180.479
122.592, 108.562
123.981, 331.256
125.369, 204.256
126.758, 465.496
128.146, 396.168
129.534, 488.635
130.922, 740.693
132.309, 682.049
133.696, 489.547
135.083, 645.113
136.470, 256.850
137.857, 755.035
139.243, 617.604
140.630, 745.625
142.016, 594.951
143.401, 835.771
144.787, 1429.857
146.172, 1921.008
147.557, 2445.291
148.942, 3119.316
150.327, 4140.387
151.711, 5035.113
153.096, 6509.463
154.480, 7703.758
155.863, 8871.312
157.247, 10310.055
158.630, 11265.170
160.013, 11978.426
161.396, 12831.170
162.779, 13094.473
164.161, 12631.980
165.544, 12140.176
166.926, 11277.434
168.308, 10001.496
169.689, 8762.293
171.070, 7770.914
172.452, 6599.551
173.833, 5303.617
175.213, 4596.822
176.594, 3678.975
177.974, 3452.375
179.354, 3321.344
180.734, 2750.242
182.114, 2842.893
183.493, 3193.150
184.872, 3092.988
186.251, 3484.463
187.630, 3382.699
189.008, 3477.838
190.387, 3748.707
191.765, 3710.809
193.143, 4064.000
194.520, 3803.230
195.898, 3846.039
197.275, 3515.461
198.652, 3404.488
200.029, 3239.127
201.405, 3022.396
202.782, 2746.721
204.158, 2715.145
205.534, 3063.342
206.909, 2635.285
208.285, 3111.715
209.660, 3261.883
211.035, 2967.311
212.410, 3132.371
213.784, 3035.129
215.159, 3284.355
216.533, 3291.199
217.907, 3465.846
219.281, 3352.766
220.654, 3138.221
222.027, 3218.590
223.400, 3222.184
224.773, 3215.732
226.146, 3040.244
227.518, 3054.734
228.891, 2659.979
230.263, 2606.375
231.634, 2336.697
233.006, 1958.883
234.377, 1779.928
235.748, 1513.824
237.119, 1086.078
238.490, 1088.377
239.860, 716.994
241.231, 589.232
242.601, 498.139
243.970, 465.629
245.340, 523.109
246.709, 531.182
248.079, 754.465
249.448, 591.004
250.816, 1198.602
252.185, 1466.029
253.553, 1965.375
254.921, 2715.092
256.289, 3359.395
257.657, 4215.705
259.024, 4956.816
260.391, 5809.875
261.758, 5994.441
263.125, 6095.762
264.492, 5834.830
265.858, 5100.654
267.224, 4394.229
268.590, 3165.547
269.956, 2554.109
271.321, 1894.664
272.687, 1294.066
274.052, 870.750
275.416, 633.330
276.781, 563.717
278.146, 519.590
279.510, 654.875
280.874, 832.469
282.237, 1109.307
283.601, 1282.324
284.964, 1414.459
286.327, 2063.664
287.690, 2455.900
289.053, 2603.131
290.416, 3119.326
291.778, 3018.455
293.140, 3339.500
294.502, 3176.441
295.863, 3246.262
297.225, 3072.934
298.586, 2260.436
299.947, 1688.748
301.308, 881.863
302.668, 463.748
304.029, 64.365
305.389, 135.352
306.749, 487.471
308.108, 572.068
309.468, 719.193
310.827, 708.867
312.186, 815.105
313.545, 794.951
314.903, 735.393
316.262, 800.406
317.620, 645.988
318.978, 565.135
320.336, 541.830
321.693, 343.123
323.051, 126.029
324.408, 160.521
325.765, 198.406
327.121, 209.834
328.478, 563.771
329.834, 835.277
331.190, 1206.373
332.546, 1478.088
333.902, 1897.432
335.257, 2028.416
336.612, 2171.021
337.967, 2302.227
339.322, 2127.029
340.677, 2001.836
342.031, 1622.459
343.385, 1489.410
344.739, 1214.623
346.093, 1032.902
347.446, 1132.893
348.799, 1204.895
350.153, 1346.926
351.505, 1421.906
352.858, 1742.902
354.210, 2078.643
355.563, 2537.969
356.915, 3048.498
358.267, 3587.730
359.618, 3938.684
360.969, 4223.363
362.321, 4133.771
363.672, 3700.910
365.022, 3270.777
366.373, 2735.371
367.723, 2253.602
369.073, 2047.145
370.423, 1753.576
371.773, 1763.758
373.122, 1735.625
374.471, 1869.236
375.821, 1838.738
377.169, 1971.980
378.518, 2130.160
379.866, 2203.551
381.215, 2113.643
382.563, 2164.516
383.910, 2084.201
385.258, 2173.703
386.605, 2087.021
387.952, 1966.123
389.299, 1968.979
390.646, 1699.594
391.992, 1678.979
393.339, 1513.158
394.685, 1376.145
396.031, 1635.938
397.376, 1388.541
398.722, 1265.213
400.067, 1281.043
401.412, 1032.041
402.757, 1106.891
404.101, 1410.176
405.446, 1237.451
406.790, 1400.125
408.134, 1629.650
409.478, 1807.715
410.821, 1829.947
412.165, 1869.859
413.508, 2442.824
414.851, 2477.152
416.193, 2823.551
417.536, 3158.871
418.878, 3620.418
420.220, 3898.449
421.562, 3572.898
422.904, 3799.756
424.245, 3712.143
425.586, 3519.311
426.927, 3624.699
428.268, 3474.346
429.609, 3466.930
430.949, 3702.074
432.289, 4101.627
433.629, 4134.371
434.969, 4726.721
436.309, 5140.600
437.648, 5923.312
438.987, 6703.170
440.326, 7705.297
441.665, 9093.906
443.003, 10935.078
444.342, 12715.959
445.680, 15436.229
447.018, 17692.764
448.355, 20795.639
449.693, 24920.461
451.030, 29465.795
452.367, 34154.883
453.704, 36653.727
455.041, 38761.695
456.377, 39439.047
457.713, 39727.203
459.049, 39709.676
460.385, 38950.926
461.721, 37744.816
463.056, 34599.184
464.391, 31530.299
465.726, 28390.623
467.061, 24404.844
468.395, 20835.500
469.730, 18221.086
471.064, 15148.562
472.398, 13194.680
473.731, 10805.869
475.065, 9378.910
476.398, 8145.225
477.731, 7176.996
479.064, 6293.553
480.397, 5730.338
481.729, 5049.832
483.062, 4409.406
484.394, 3868.580
485.725, 3507.713
487.057, 3104.170
488.389, 2826.090
489.720, 2367.025
491.051, 2307.855
492.382, 2116.654
493.712, 1990.938
495.043, 1601.658
496.373, 1660.482
497.703, 1405.365
499.032, 1487.275
500.362, 1189.906
501.691, 1141.480
503.020, 978.744
504.349, 1071.869
505.678, 971.371
507.007, 714.779
508.335, 629.982
509.663, 779.230
510.991, 715.053
512.319, 871.295
513.646, 844.580
514.973, 852.348
516.300, 1288.160
517.627, 1281.441
518.954, 1245.395
520.280, 1782.193
521.607, 2118.877
522.933, 2437.402
524.259, 2929.926
525.584, 3801.215
526.910, 4921.559
528.235, 6055.730
529.560, 7968.293
530.885, 9743.613
532.209, 11668.883
533.534, 14041.924
534.858, 14236.984
536.182, 14032.633
537.506, 12780.133
538.829, 11106.418
540.152, 9134.605
541.476, 7842.203
542.799, 5939.992
544.121, 5147.336
545.444, 4119.941
546.766, 3505.070
548.088, 2939.576
549.410, 2336.982
550.732, 2210.150
552.053, 1683.123
553.375, 1449.297
554.696, 1040.627
556.017, 1121.107
557.337, 902.336
558.658, 960.432
559.978, 609.562
561.298, 665.346
562.618, 625.828
563.938, 604.748
565.257, 612.141
566.576, 454.807
567.895, 513.389
569.214, 470.619
570.533, 292.842
571.851, 369.129
573.170, 528.438
574.488, 214.635
575.805, 409.715
577.123, 297.723
578.440, 367.621
579.758, 455.406
581.075, 92.105
582.391, 376.684
583.708, 384.152
585.024, 285.518
586.341, 417.783
587.657, 386.945
588.972, 448.008
590.288, 296.965
591.603, 193.818
592.918, 372.561
594.233, 225.207
595.548, 343.758
596.863, 558.223
598.177, 312.617
599.491, 373.934
600.805, 433.166
602.119, 353.320
603.432, 558.385
604.746, 701.371
606.059, 657.273
607.372, 604.100
608.685, 973.855
609.997, 878.543
611.309, 824.152
612.621, 543.689
613.933, 827.145
615.245, 603.537
616.557, 462.855
617.868, 214.096
619.179, 169.254
620.490, 27.324
621.801, 241.330
623.111, 21.707
624.421, 135.266
625.731, 100.686
627.041, 113.490
628.351, 115.137
629.660, 18.426
630.970, 172.221
632.279, 19.721
633.588, 82.406
634.896, 192.869
636.205, 153.848
637.513, 134.197
638.821, 89.082
640.129, 247.207
641.437, 131.658
642.744, 94.785
644.051, 172.854
645.358, 66.521
646.665, 128.217
647.972, 126.895
649.278, 13.459
650.584, 43.129
651.890, 298.662
653.196, 107.143
654.502, 156.561
655.807, 102.924
657.113, 80.223
658.418, 389.080
659.722, 265.721
661.027, 108.662
662.331, 78.848
663.636, 399.348
664.940, 23.492
666.244, 453.900
667.547, 35.088
668.851, 177.590
670.154, 196.068
671.457, 145.088
672.760, 284.746
674.062, 376.439
675.365, 524.520
676.667, 840.979
677.969, 857.627
679.271, 705.211
680.572, 376.615
681.874, 394.693
683.175, 344.006
684.476, 286.295
685.777, 464.418
687.077, 138.074
688.378, 359.520
689.678, 120.963
690.978, 213.371
692.278, 161.975
693.577, 396.223
694.877, 94.963
696.176, 463.299
697.475, 190.959
698.774, 586.482
700.072, 487.443
701.371, 686.678
702.669, 619.018
703.967, 701.836
705.265, 908.906
706.562, 825.152
707.860, 571.170
709.157, 975.688
710.454, 646.580
711.751, 874.861
713.047, 1089.527
714.344, 1103.281
715.640, 1058.949
716.936, 651.529
718.232, 861.131
719.527, 608.566
720.823, 740.373
722.118, 683.150
723.413, 653.867
724.708, 711.303
726.002, 802.111
727.297, 625.811
728.591, 918.326
729.885, 959.529
731.179, 829.682
732.472, 768.963
733.766, 795.615
735.059, 728.557
736.352, 782.857
737.645, 800.119
738.937, 1043.604
740.230, 879.729
741.522, 891.504
742.814, 1152.805
744.106, 1098.727
745.397, 1212.545
746.689, 1256.027
747.980, 1463.801
749.271, 1643.998
750.562, 1857.920
751.853, 1805.701
753.143, 2063.037
754.433, 2182.355
755.723, 2079.941
757.013, 2733.787
758.303, 2692.307
759.592, 3169.699
760.881, 3371.604
762.170, 3966.430
763.459, 4511.568
764.748, 4748.590
766.036, 5727.412
767.325, 6042.652
768.613, 6391.066
769.901, 6907.920
771.188, 6621.646
772.476, 6823.762
773.763, 6075.035
775.050, 5937.953
776.337, 5004.318
777.624, 4292.564
778.910, 3296.258
780.196, 3014.086
781.482, 2162.734
782.768, 1789.500
784.054, 1448.531
785.339, 1018.918
786.625, 686.955
787.910, 915.807
789.195, 569.539
790.479, 627.160
791.764, 498.203
793.048, 516.459
794.332, 548.930
795.616, 665.268
796.900, 683.109
798.183, 695.330
799.467, 973.324
800.750, 905.867
802.033, 1023.654
803.316, 1467.422
804.598, 1170.336
805.880, 1549.734
807.163, 1452.189
808.445, 1076.832
809.726, 873.674
811.008, 656.277
812.289, 313.779
813.570, 332.562
814.851, 289.824
816.132, 24.578
817.413, 58.145
818.693, 164.570
819.973, 63.947
821.253, 45.201
822.533, 29.814
823.813, 15.484
825.092, 181.785
826.371, 159.586
827.650, 45.463
828.929, 146.814
830.208, 45.232
831.486, 170.379
832.764, 523.893
834.042, 23.859
835.320, 2.195
836.598, 3.701
837.875, 326.840
839.152, 49.516
840.429, 152.406
841.706, 12.115
842.983, 104.270
844.259, 183.248
845.536, 114.146
846.812, 124.834
848.088, 49.717
849.363, 93.002
850.639, 47.518
851.914, 70.059
853.189, 12.408
854.464, 122.035
855.739, 88.061
857.013, 274.543
858.288, 136.277
859.562, 86.654
860.836, 135.012
862.110, 16.348
863.383, 16.340
864.656, 55.934
865.930, 280.184
867.203, 109.414
868.475, 165.641
869.748, 57.154
871.020, 166.000
872.292, 174.143
873.564, 68.268
874.836, 88.381
876.108, 71.523
877.379, 78.518
878.650, 271.543
879.922, 37.561
881.192, 92.436
882.463, 155.506
883.733, 92.432
885.004, 155.646
886.274, 56.178
887.544, 57.992
888.813, 64.207
890.083, 162.541
891.352, 214.287
892.621, 32.025
893.890, 30.252
895.159, 25.438
896.427, 85.111
897.695, 306.773
898.964, 102.426
900.232, 187.066
901.499, 11.699
902.767, 216.320
904.034, 82.934
905.301, 210.533
906.568, 314.121
907.835, 397.699
909.102, 392.660
910.368, 411.168
911.634, 327.379
912.900, 262.916
914.166, 234.436
915.432, 32.057
916.697, 25.588
917.962, 372.844
919.227, 52.260
920.492, 351.658
921.757, 24.959
923.021, 146.391
924.285, 269.723
925.550, 109.045
926.813, 203.361
928.077, 4.316
929.341, 150.990
930.604, 239.289
931.867, 441.639
933.130, 190.979
934.393, 441.338
935.655, 139.750
936.918, 300.182
938.180, 232.613
939.442, 276.035
940.703, 293.467
941.965, 393.906
943.226, 124.393
944.488, 323.875
945.749, 583.379
947.009, 410.936
948.270, 659.387
949.530, 630.039
950.791, 767.604
952.051, 647.178
953.311, 454.801
954.570, 784.416
955.830, 907.062
957.089, 652.721
958.348, 820.377
959.607, 1342.035
960.866, 980.814
962.124, 939.436
963.383, 826.164
964.641, 683.887
965.899, 946.652
967.156, 921.410
968.414, 888.301
969.671, 978.438
970.928, 565.852
972.185, 892.670
973.442, 834.498
974.699, 1153.367
975.955, 1054.094
977.211, 768.154
978.468, 1224.588
979.723, 1180.408
980.979, 1070.797
982.234, 1418.762
983.490, 959.490
984.745, 1261.236
986.000, 1477.113
987.254, 1175.270
988.509, 1454.256
989.763, 1158.107
991.017, 1414.076
992.271, 1389.477
993.525, 1280.053
994.779, 1473.596
996.032, 1330.178
997.285, 1493.477
998.538, 1290.654
999.791, 1855.043
1001.044, 1557.623
1002.296, 1783.287
1003.548, 1654.793
1004.800, 1444.090
1006.052, 1662.900
1007.304, 1554.285
1008.555, 1635.900
1009.807, 1647.189
1011.058, 1525.873
1012.309, 1667.385
1013.559, 1575.842
1014.810, 1535.434
1016.060, 1782.623
1017.310, 1784.404
1018.560, 1627.789
1019.810, 1842.447
1021.060, 2243.961
1022.309, 1881.625
1023.558, 2299.324
1024.807, 1869.586
1026.056, 2185.932
1027.305, 2292.693
1028.553, 2587.000
1029.801, 2469.086
1031.049, 2358.227
1032.297, 2348.875
1033.545, 2732.500
1034.793, 2580.855
1036.040, 2665.898
1037.287, 2657.094
1038.534, 2592.293
1039.781, 2710.498
1041.027, 2748.133
1042.274, 2889.826
1043.520, 2978.910
1044.766, 3089.932
1046.012, 2722.980
1047.257, 2791.299
1048.503, 3311.975
1049.748, 2736.355
1050.993, 3220.023
1052.238, 3323.010
1053.483, 3206.658
1054.727, 3204.939
1055.971, 3259.084
1057.216, 3185.174
1058.459, 3364.773
1059.703, 3608.357
1060.947, 3711.934
1062.190, 3836.494
1063.433, 4012.035
1064.676, 4017.566
1065.919, 3852.566
1067.162, 4654.885
1068.404, 5217.367
1069.646, 4444.396
1070.888, 4851.848
1072.130, 4660.188
1073.372, 4672.564
1074.613, 5022.961
1075.855, 4739.582
1077.096, 4613.420
1078.337, 5398.754
1079.578, 4965.160
1080.818, 5470.520
1082.059, 5698.021
1083.299, 6674.199
1084.539, 7179.973
1085.779, 8244.133
1087.018, 9222.141
1088.258, 9685.004
1089.497, 10209.148
1090.736, 10668.988
1091.975, 11526.719
1093.213, 12266.463
1094.452, 12870.609
1095.690, 13169.410
1096.928, 13174.238
1098.166, 13203.426
1099.404, 12981.121
1100.642, 12422.234
1101.879, 12597.695
1103.116, 12569.969
1104.353, 13375.684
1105.590, 13761.773
1106.827, 14916.656
1108.063, 15109.609
1109.299, 15002.207
1110.536, 13921.012
1111.771, 12228.055
1113.007, 9910.836
1114.243, 7210.859
1115.478, 4869.273
1116.713, 3371.367
1117.948, 2458.117
1119.183, 1578.500
1120.418, 1553.078
1121.652, 1965.965
1122.886, 2463.289
1124.120, 2086.598
1125.354, 1508.883
1126.588, 1234.094
1127.821, 831.895
1129.055, 824.648
1130.288, 990.152
1131.521, 710.844
1132.753, 674.805
1133.986, 358.902
1135.218, 720.047
1136.450, 220.957
1137.682, 552.734
1138.914, 761.223
1140.146, 632.027
1141.377, 462.531
1142.609, 622.074
1143.840, 362.820
1145.071, 346.965
1146.301, 17.484
1147.532, 206.605
1148.762, 10.258
1149.992, 144.977
1151.222, 6.227
1152.452, 150.230
1153.682, 34.230
1154.911, 267.559
1156.140, 92.695
1157.369, 105.457
1158.598, 203.344
1159.827, 432.773
1161.055, 187.715
1162.284, 328.328
1163.512, 469.129
1164.740, 439.406
1165.967, 35.910
1167.195, 705.867
1168.422, 1141.676
1169.650, 642.836
1170.877, 333.949
1172.103, 354.730
1173.330, 407.102
1174.557, 560.867
1175.783, 644.719
1177.009, 250.496
1178.235, 558.695
1179.461, 456.273
1180.686, 527.918
1181.912, 763.504
1183.137, 840.047
1184.362, 622.562
1185.587, 622.766
1186.811, 982.109
1188.036, 833.672
1189.260, 974.211
1190.484, 1179.555
1191.708, 1333.906
1192.932, 1137.984
1194.155, 1187.980
1195.378, 1313.801
1196.602, 1173.277
1197.825, 1143.578
1199.047, 1318.156
1200.270, 1300.949
1201.492, 1305.273
1202.715, 1376.145
1203.937, 1240.625
1205.159, 1215.309
1206.380, 1131.250
1207.602, 585.703
1208.823, 651.387
1210.044, 896.953
1211.265, 517.047
1212.486, 710.879
1213.707, 453.098
1214.927, 548.320
1216.147, 1117.355
1217.367, 1243.238
1218.587, 849.988
1219.807, 1660.492
1221.027, 443.980
1222.246, 65.289
1223.465, 2.312
1224.684, 382.379
1225.903, 128.852
1227.121, 133.094
1228.340, 336.785
1229.558, 170.523
1230.776, 187.344
1231.994, 157.492
1233.212, 194.125
1234.429, 222.785
1235.646, 26.047
1236.864, 215.133
1238.081, 4.332
1239.297, 205.926
1240.514, 122.762
1241.730, 111.160
1242.947, 51.000
1244.163, 19.723
1245.378, 209.016
1246.594, 15.789
1247.810, 147.691
1249.025, 100.324
1250.240, 85.711
1251.455, 5.082
1252.670, 178.793
1253.885, 10.426
1255.099, 15.969
1256.313, 193.402
1257.527, 149.117
1258.741, 213.578
1259.955, 146.012
1261.168, 305.348
1262.382, 147.680
1263.595, 230.852
1264.808, 121.129
1266.021, 281.367
1267.233, 31.516
1268.446, 350.789
1269.658, 2.105
1270.870, 146.777
1272.082, 160.008
1273.294, 42.641
1274.505, 105.875
1275.716, 131.906
1276.928, 114.473
1278.139, 459.109
1279.349, 188.523
1280.560, 419.879
1281.770, 535.172
1282.981, 273.422
1284.191, 365.168
1285.401, 290.316
1286.610, 164.449
1287.820, 356.559
1289.029, 66.359
1290.239, 220.684
1291.448, 363.699
1292.656, 242.633
1293.865, 346.531
1295.073, 336.410
1296.282, 155.281
1297.490, 196.156
1298.698, 188.738
1299.906, 318.941
1301.113, 239.852
1302.320, 327.797
1303.528, 296.785
1304.735, 209.836
1305.942, 283.441
1307.148, 357.133
1308.355, 277.430
1309.561, 401.219
1310.767, 253.406
1311.973, 230.117
1313.179, 224.512
1314.384, 181.203
1315.590, 335.340
1316.795, 198.871
1318.000, 247.066
1319.205, 341.246
1320.410, 280.355
1321.614, 59.551
1322.819, 336.926
1324.023, 237.910
1325.227, 537.051
1326.431, 445.660
1327.634, 436.637
1328.838, 412.230
1330.041, 211.371
1331.244, 396.785
1332.447, 119.430
1333.650, 114.617
1334.852, 348.418
1336.055, 123.203
1337.257, 454.219
1338.459, 44.613
1339.661, 471.773
1340.862, 184.016
1342.064, 1.727
1343.265, 347.633
1344.466, 270.590
1345.667, 131.648
1346.868, 437.828
1348.068, 486.152
1349.269, 177.742
1350.469, 416.254
1351.669, 161.934
1352.869, 451.875
1354.069, 451.891
1355.268, 51.539
1356.468, 508.262
1357.667, 568.355
1358.866, 265.742
1360.065, 672.988
1361.263, 615.832
1362.462, 389.062
1363.660, 301.773
1364.858, 19.645
1366.056, 197.840
1367.254, 355.418
1368.451, 172.129
1369.649, 45.312
1370.846, 91.883
1372.043, 73.543
1373.240, 67.707
1374.436, 168.961
1375.633, 194.242
1376.829, 210.484
1378.025, 128.262
1379.221, 218.324
1380.417, 148.727
1381.613, 64.359
1382.808, 223.754
1384.003, 55.777
1385.199, 192.617
1386.393, 1.488
1387.588, 0.000
##END=



