##NAMES=Marialite
##RRUFFID=R050123
##IDEAL CHEMISTRY=Na_4_Al_3_Si_9_O_24_Cl
##LOCALITY=Pakistan
##OWNER=RRUFF
##SOURCE=Syed Shah
##DESCRIPTION=Purple fragment
##STATUS=The identification of this mineral has been confirmed by X-ray diffraction and chemical analysis
##URL=rruff.info/R050123
##MEASURED CHEMISTRY=(Na_0.88_Ca_0.07_K_0.05_)_4_Al_3.00_Si_9.00_O_24_Cl_0.97
##PIN_ID=L00138
##ORIENTATION=Laser parallel to c* (0 0 1). Fiducial mark perpendicular to laser is parallel to a [1 0 0]
49.365, 0.000
50.765, 33.356
52.166, 19.727
53.566, 122.858
54.966, 174.875
56.365, 365.133
57.765, 512.109
59.164, 814.000
60.563, 1175.944
61.962, 1325.304
63.360, 1144.552
64.758, 804.400
66.157, 667.172
67.554, 675.553
68.952, 903.908
70.349, 878.072
71.747, 941.270
73.144, 903.278
74.540, 856.008
75.937, 701.374
77.333, 606.299
78.729, 338.716
80.125, 265.588
81.521, 139.904
82.916, 105.758
84.311, 28.713
85.706, 96.562
87.101, 165.888
88.496, 59.790
89.890, 24.652
91.284, 357.371
92.678, 763.322
94.071, 1202.480
95.465, 1684.822
96.858, 1957.324
98.251, 2743.965
99.644, 3011.722
101.036, 3636.564
102.428, 4301.459
103.820, 4951.395
105.212, 5985.360
106.604, 6277.347
107.995, 6341.143
109.387, 5981.683
110.777, 5724.206
112.168, 5054.928
113.559, 4266.044
114.949, 3944.398
116.339, 3410.418
117.729, 3357.506
119.119, 2905.816
120.508, 2869.008
121.897, 2903.954
123.286, 2848.633
124.675, 3133.017
126.063, 2830.091
127.452, 3268.869
128.840, 3345.362
130.228, 3680.582
131.615, 3802.539
133.003, 4062.291
134.390, 4413.001
135.777, 4463.674
137.164, 5250.315
138.550, 5358.916
139.937, 6187.473
141.323, 6661.982
142.709, 7176.421
144.094, 8060.767
145.480, 8265.028
146.865, 9519.200
148.250, 9483.283
149.635, 10607.240
151.019, 11150.943
152.403, 11644.243
153.788, 13077.381
155.171, 13120.438
156.555, 15003.425
157.939, 14686.335
159.322, 15419.177
160.705, 15301.946
162.088, 14434.647
163.470, 14367.279
164.853, 12401.478
166.235, 12436.853
167.617, 10463.211
168.998, 10020.355
170.380, 8999.062
171.761, 8087.231
173.142, 7964.354
174.523, 7040.655
175.904, 7272.118
177.284, 6509.118
178.664, 6551.672
180.044, 6435.711
181.424, 6103.428
182.803, 6225.977
184.183, 5584.908
185.562, 5854.378
186.940, 5101.743
188.319, 4972.493
189.698, 4677.729
191.076, 4129.970
192.454, 4297.751
193.831, 3546.939
195.209, 3656.950
196.586, 3256.696
197.963, 3215.558
199.340, 3206.609
200.717, 3041.607
202.093, 3101.335
203.470, 2953.439
204.846, 3067.271
206.221, 2845.049
207.597, 2641.772
208.972, 2511.441
210.347, 2160.058
211.722, 2120.620
213.097, 1741.130
214.472, 1864.587
215.846, 1636.277
217.220, 1611.163
218.594, 1682.045
219.967, 1479.064
221.341, 1647.766
222.714, 1529.768
224.087, 1555.726
225.460, 1596.186
226.832, 1525.747
228.204, 1620.996
229.577, 1411.333
230.948, 1587.638
232.320, 1299.675
233.692, 1341.178
235.063, 1375.520
236.434, 1151.201
237.805, 1311.571
239.175, 1046.196
240.545, 1244.794
241.916, 1143.135
243.286, 1238.569
244.655, 1348.616
246.025, 1396.284
247.394, 1726.966
248.763, 1796.017
250.132, 2219.059
251.501, 2550.674
252.869, 2959.082
254.237, 3624.284
255.605, 4043.313
256.973, 5120.622
258.340, 5263.904
259.708, 5751.163
261.075, 5614.395
262.442, 5161.599
263.808, 4895.775
265.175, 3744.921
266.541, 3265.034
267.907, 2456.115
269.273, 1988.159
270.639, 1531.168
272.004, 1195.143
273.369, 996.082
274.734, 721.983
276.099, 645.846
277.463, 465.670
278.828, 430.451
280.192, 406.182
281.556, 275.855
282.919, 331.464
284.283, 204.008
285.646, 202.483
287.009, 209.892
288.372, 107.235
289.734, 168.510
291.097, 124.721
292.459, 171.867
293.821, 137.952
295.183, 228.973
296.544, 224.935
297.905, 200.841
299.266, 172.687
300.627, 1.472
301.988, 31.181
303.348, 37.181
304.709, 117.629
306.069, 95.187
307.428, 215.847
308.788, 150.642
310.147, 221.553
311.507, 178.600
312.865, 157.771
314.224, 176.058
315.583, 115.461
316.941, 143.968
318.299, 33.584
319.657, 72.282
321.015, 11.928
322.372, 10.068
323.729, 33.140
325.086, 91.448
326.443, 89.098
327.800, 174.000
329.156, 205.843
330.512, 223.620
331.868, 343.329
333.224, 320.968
334.579, 391.535
335.935, 378.029
337.290, 388.452
338.645, 400.819
339.999, 384.095
341.354, 444.358
342.708, 462.238
344.062, 537.990
345.416, 609.516
346.769, 617.833
348.123, 791.971
349.476, 877.983
350.829, 1161.911
352.182, 1258.775
353.534, 1664.586
354.887, 2156.350
356.239, 2397.077
357.591, 2881.766
358.942, 2840.421
360.294, 3027.038
361.645, 2739.625
362.996, 2505.185
364.347, 2467.719
365.698, 2070.223
367.048, 2074.699
368.398, 1794.145
369.748, 1561.563
371.098, 1481.954
372.448, 1170.316
373.797, 1184.650
375.146, 950.974
376.495, 929.269
377.844, 744.541
379.192, 632.768
380.540, 651.940
381.889, 485.057
383.236, 521.118
384.584, 405.125
385.932, 372.074
387.279, 419.963
388.626, 328.799
389.973, 350.576
391.319, 287.297
392.666, 254.962
394.012, 265.569
395.358, 227.118
396.704, 313.612
398.049, 215.056
399.394, 290.448
400.740, 229.790
402.084, 235.231
403.429, 295.471
404.774, 270.983
406.118, 338.514
407.462, 359.091
408.806, 419.834
410.150, 500.241
411.493, 424.080
412.836, 564.621
414.179, 556.061
415.522, 714.655
416.865, 672.132
418.207, 747.630
419.549, 936.002
420.891, 922.028
422.233, 1148.959
423.575, 1107.037
424.916, 1278.507
426.257, 1430.356
427.598, 1418.247
428.939, 1655.170
430.279, 1621.741
431.619, 1808.424
432.959, 1902.890
434.299, 1980.464
435.639, 2377.013
436.978, 2427.378
438.318, 2997.847
439.657, 3338.733
440.996, 3783.562
442.334, 4498.146
443.673, 4857.014
445.011, 6045.425
446.349, 6580.690
447.687, 8290.092
449.024, 10010.648
450.361, 11890.111
451.699, 15870.469
453.036, 18540.195
454.372, 23920.441
455.709, 27350.037
457.045, 29400.281
458.381, 31030.998
459.717, 26260.898
461.053, 24260.568
462.388, 19346.844
463.724, 15814.242
465.059, 13358.098
466.394, 10306.531
467.728, 9216.330
469.063, 7214.519
470.397, 6263.772
471.731, 5343.621
473.065, 4245.116
474.398, 4005.198
475.732, 3132.858
477.065, 2854.470
478.398, 2478.302
479.731, 2042.860
481.063, 1962.874
482.396, 1503.102
483.728, 1463.509
485.060, 1306.670
486.391, 1206.979
487.723, 1199.812
489.054, 944.068
490.385, 986.417
491.716, 803.992
493.047, 845.910
494.377, 816.190
495.708, 680.245
497.038, 725.210
498.368, 598.570
499.697, 637.535
501.027, 670.689
502.356, 621.777
503.685, 662.105
505.014, 607.006
506.342, 642.637
507.671, 563.447
508.999, 472.263
510.327, 490.261
511.655, 350.374
512.982, 423.267
514.310, 343.155
515.637, 383.080
516.964, 383.733
518.291, 306.998
519.617, 507.564
520.944, 466.316
522.270, 544.190
523.596, 722.589
524.921, 735.078
526.247, 1007.526
527.572, 1104.995
528.897, 1562.418
530.222, 2094.227
531.547, 2711.552
532.871, 4217.783
534.196, 5445.553
535.520, 7946.730
536.844, 9268.030
538.167, 9350.158
539.491, 8900.120
540.814, 6342.392
542.137, 5235.364
543.460, 4112.520
544.783, 2596.188
546.105, 2155.462
547.427, 1523.326
548.749, 1314.485
550.071, 923.776
551.393, 716.122
552.714, 692.961
554.035, 434.986
555.356, 433.522
556.677, 323.557
557.998, 294.301
559.318, 247.069
560.638, 135.475
561.958, 204.019
563.278, 90.854
564.597, 72.652
565.917, 48.577
567.236, 0.844
568.555, 65.092
569.874, 37.338
571.192, 16.050
572.511, 38.592
573.829, 31.877
575.147, 27.626
576.464, 72.891
577.782, 31.565
579.099, 20.999
580.416, 19.591
581.733, 65.796
583.050, 35.836
584.366, 96.499
585.683, 74.815
586.999, 55.115
588.315, 127.401
589.630, 88.670
590.946, 128.923
592.261, 91.161
593.576, 85.381
594.891, 117.589
596.206, 80.781
597.520, 89.956
598.834, 56.118
600.148, 78.265
601.462, 106.402
602.776, 20.528
604.089, 112.642
605.402, 64.750
606.715, 29.848
608.028, 45.937
609.341, 4.980
610.653, 11.093
611.965, 2.840
613.277, 59.217
614.589, 73.271
615.901, 9.682
617.212, 76.351
618.523, 65.383
619.834, 53.409
621.145, 94.445
622.456, 27.486
623.766, 175.546
625.076, 125.660
626.386, 156.811
627.696, 100.032
629.006, 79.306
630.315, 82.651
631.624, 8.061
632.933, 22.479
634.242, 24.031
635.551, 15.668
636.859, 57.986
638.167, 80.542
639.475, 84.406
640.783, 13.470
642.090, 39.157
643.398, 25.516
644.705, 57.793
646.012, 0.127
647.318, 27.531
648.625, 3.184
649.931, 46.827
651.237, 32.538
652.543, 49.074
653.849, 50.678
655.155, 49.728
656.460, 60.835
657.765, 0.389
659.070, 62.932
660.375, 17.465
661.679, 29.013
662.984, 52.484
664.288, 3.968
665.592, 1.438
666.895, 5.107
668.199, 8.669
669.502, 3.126
670.805, 3.560
672.108, 5.031
673.411, 3.062
674.713, 14.230
676.016, 13.255
677.318, 2.237
678.620, 5.932
679.921, 18.421
681.223, 10.929
682.524, 15.389
683.825, 5.316
685.126, 11.099
686.427, 6.605
687.727, 25.373
689.028, 42.613
690.328, 82.254
691.628, 46.865
692.927, 18.178
694.227, 35.036
695.526, 97.223
696.825, 16.650
698.124, 29.675
699.423, 24.165
700.721, 21.395
702.020, 79.583
703.318, 5.418
704.616, 60.484
705.913, 47.568
707.211, 3.649
708.508, 53.663
709.805, 16.839
711.102, 119.865
712.399, 56.981
713.695, 25.119
714.992, 144.102
716.288, 3.316
717.584, 87.536
718.879, 75.654
720.175, 59.931
721.470, 146.399
722.765, 31.178
724.060, 120.734
725.355, 126.298
726.649, 58.866
727.944, 154.154
729.238, 130.059
730.532, 210.942
731.825, 157.820
733.119, 206.144
734.412, 229.609
735.705, 147.320
736.998, 244.450
738.291, 259.816
739.584, 228.940
740.876, 317.424
742.168, 214.999
743.460, 329.774
744.752, 353.389
746.043, 351.161
747.334, 410.811
748.626, 379.242
749.916, 437.871
751.207, 525.402
752.498, 453.872
753.788, 657.604
755.078, 557.862
756.368, 702.814
757.658, 732.272
758.947, 670.787
760.237, 891.422
761.526, 802.689
762.815, 867.952
764.104, 1008.129
765.392, 916.008
766.680, 1152.515
767.969, 1049.410
769.257, 1165.316
770.544, 1254.720
771.832, 1095.427
773.119, 1370.037
774.406, 1256.250
775.693, 1357.406
776.980, 1497.931
778.267, 1393.966
779.553, 1625.648
780.839, 1549.006
782.125, 1570.393
783.411, 1811.056
784.697, 1601.271
785.982, 1806.586
787.267, 1622.588
788.552, 1438.760
789.837, 1492.075
791.122, 1118.970
792.406, 1029.257
793.690, 862.518
794.974, 593.664
796.258, 612.565
797.542, 407.495
798.825, 465.505
800.108, 367.847
801.391, 324.541
802.674, 406.433
803.957, 274.146
805.239, 309.029
806.522, 300.522
807.804, 295.388
809.085, 432.327
810.367, 412.796
811.649, 483.672
812.930, 592.444
814.211, 397.303
815.492, 476.021
816.772, 317.390
818.053, 210.167
819.333, 203.829
820.613, 99.346
821.893, 183.646
823.173, 67.794
824.452, 58.126
825.732, 102.427
827.011, 44.656
828.290, 145.120
829.568, 59.938
830.847, 51.419
832.125, 118.679
833.403, 41.781
834.681, 74.324
835.959, 44.742
837.236, 35.165
838.514, 94.532
839.791, 73.911
841.068, 8.869
842.345, 79.274
843.621, 4.739
844.898, 88.625
846.174, 12.927
847.450, 73.355
848.726, 36.773
850.001, 71.674
851.277, 95.511
852.552, 41.260
853.827, 30.892
855.102, 38.020
856.376, 14.622
857.651, 61.313
858.925, 54.546
860.199, 52.713
861.473, 65.537
862.746, 24.707
864.020, 57.710
865.293, 35.017
866.566, 27.165
867.839, 62.165
869.112, 12.566
870.384, 51.781
871.656, 21.989
872.928, 13.864
874.200, 79.186
875.472, 8.630
876.744, 8.732
878.015, 45.412
879.286, 29.454
880.557, 59.498
881.828, 29.400
883.098, 2.670
884.369, 4.730
885.639, 70.224
886.909, 24.783
888.178, 34.780
889.448, 12.229
890.717, 85.742
891.987, 28.704
893.256, 80.663
894.524, 32.612
895.793, 11.450
897.061, 72.467
898.330, 12.373
899.598, 62.267
900.865, 80.150
902.133, 7.975
903.401, 118.879
904.668, 50.723
905.935, 11.558
907.202, 110.381
908.468, 2.196
909.735, 114.995
911.001, 6.786
912.267, 33.564
913.533, 79.333
914.799, 36.093
916.064, 114.844
917.330, 66.587
918.595, 3.324
919.860, 121.049
921.124, 1.232
922.389, 35.472
923.653, 89.166
924.918, 13.144
926.182, 126.524
927.445, 88.186
928.709, 18.839
929.972, 108.482
931.236, 30.882
932.499, 62.725
933.761, 52.324
935.024, 3.914
936.286, 85.494
937.549, 10.935
938.811, 38.619
940.073, 53.165
941.334, 1.709
942.596, 95.242
943.857, 14.231
945.118, 33.278
946.379, 71.784
947.640, 45.717
948.900, 146.750
950.161, 24.211
951.421, 42.665
952.681, 73.125
953.940, 43.582
955.200, 114.032
956.459, 79.488
957.719, 31.937
958.978, 193.386
960.236, 37.831
961.495, 77.269
962.753, 159.713
964.012, 9.151
965.270, 113.584
966.527, 40.012
967.785, 53.434
969.043, 75.857
970.300, 29.286
971.557, 130.710
972.814, 136.131
974.071, 113.549
975.327, 221.841
976.583, 111.091
977.840, 236.501
979.095, 214.691
980.351, 207.097
981.607, 395.350
982.862, 289.564
984.117, 415.962
985.372, 559.133
986.627, 516.445
987.882, 742.629
989.136, 734.770
990.390, 759.156
991.644, 996.453
992.898, 850.050
994.152, 1034.368
995.405, 971.777
996.659, 776.166
997.912, 783.699
999.165, 558.026
1000.417, 483.212
1001.670, 556.214
1002.922, 337.602
1004.174, 479.510
1005.426, 370.663
1006.678, 338.847
1007.930, 474.371
1009.181, 339.650
1010.432, 450.906
1011.683, 444.407
1012.934, 383.708
1014.185, 564.839
1015.435, 407.112
1016.685, 451.289
1017.935, 529.458
1019.185, 393.815
1020.435, 570.516
1021.684, 489.786
1022.934, 453.927
1024.183, 635.593
1025.432, 431.606
1026.680, 550.586
1027.929, 583.047
1029.177, 432.333
1030.425, 557.102
1031.673, 422.144
1032.921, 452.925
1034.169, 547.612
1035.416, 422.464
1036.663, 543.732
1037.911, 517.935
1039.157, 421.178
1040.404, 717.043
1041.650, 496.471
1042.897, 556.691
1044.143, 616.124
1045.389, 454.370
1046.634, 635.325
1047.880, 541.750
1049.125, 532.847
1050.371, 632.230
1051.615, 545.669
1052.860, 687.879
1054.105, 651.333
1055.349, 515.687
1056.593, 729.812
1057.837, 574.267
1059.081, 648.114
1060.325, 680.565
1061.568, 547.598
1062.812, 720.891
1064.055, 675.346
1065.298, 706.658
1066.540, 868.115
1067.783, 668.579
1069.025, 925.572
1070.267, 978.050
1071.509, 817.841
1072.751, 1103.185
1073.993, 1025.668
1075.234, 1027.809
1076.475, 1282.293
1077.716, 1030.778
1078.957, 1310.061
1080.198, 1310.544
1081.438, 1128.781
1082.679, 1499.267
1083.919, 1306.710
1085.159, 1465.028
1086.398, 1525.537
1087.638, 1460.981
1088.877, 1809.428
1090.116, 1746.894
1091.355, 1799.121
1092.594, 2141.632
1093.833, 1929.915
1095.071, 2201.526
1096.309, 2190.046
1097.547, 1932.793
1098.785, 2299.410
1100.023, 1925.779
1101.260, 1910.731
1102.498, 2023.453
1103.735, 1604.908
1104.972, 1655.852
1106.208, 1577.371
1107.445, 1268.797
1108.681, 1477.725
1109.918, 1173.164
1111.154, 1198.974
1112.389, 1218.678
1113.625, 927.999
1114.860, 1045.919
1116.096, 959.372
1117.331, 752.881
1118.566, 982.063
1119.800, 706.474
1121.035, 797.392
1122.269, 943.968
1123.503, 701.478
1124.737, 778.239
1125.971, 671.854
1127.205, 534.387
1128.438, 636.353
1129.671, 557.857
1130.904, 754.417
1132.137, 711.013
1133.370, 364.514
1134.602, 463.224
1135.834, 348.724
1137.066, 363.223
1138.298, 448.206
1139.530, 244.702
1140.762, 328.356
1141.993, 265.149
1143.224, 241.642
1144.455, 339.606
1145.686, 251.101
1146.917, 165.601
1148.147, 281.320
1149.377, 120.815
1150.607, 197.394
1151.837, 201.321
1153.067, 68.845
1154.296, 202.959
1155.526, 89.740
1156.755, 66.262
1157.984, 176.580
1159.213, 9.719
1160.441, 105.792
1161.670, 104.886
1162.898, 27.390
1164.126, 154.343
1165.354, 24.051
1166.581, 14.543
1167.809, 179.326
1169.036, 61.348
1170.263, 238.390
1171.490, 77.243
1172.717, 21.274
1173.943, 129.965
1175.170, 16.217
1176.396, 34.251
1177.622, 214.354
1178.848, 23.979
1180.073, 193.477
1181.299, 120.943
1182.524, 35.402
1183.749, 251.204
1184.974, 115.788
1186.199, 167.252
1187.423, 272.309
1188.648, 95.164
1189.872, 219.616
1191.096, 228.307
1192.320, 176.953
1193.543, 326.630
1194.767, 148.723
1195.990, 155.163
1197.213, 354.006
1198.436, 133.846
1199.659, 408.264
1200.881, 276.979
1202.104, 290.497
1203.326, 498.015
1204.548, 306.491
1205.770, 417.875
1206.991, 529.317
1208.213, 269.700
1209.434, 446.063
1210.655, 364.296
1211.876, 278.615
1213.096, 483.953
1214.317, 284.015
1215.537, 301.478
1216.757, 431.976
1217.977, 215.197
1219.197, 367.541
1220.417, 313.953
1221.636, 151.074
1222.855, 292.345
1224.074, 194.044
1225.293, 103.609
1226.512, 276.850
1227.731, 80.336
1228.949, 138.594
1230.167, 180.883
1231.385, 61.127
1232.603, 260.323
1233.820, 93.963
1235.038, 91.657
1236.255, 237.822
1237.472, 82.931
1238.689, 141.090
1239.906, 156.239
1241.122, 15.763
1242.338, 129.374
1243.555, 39.598
1244.771, 87.244
1245.986, 168.365
1247.202, 0.307
1248.417, 64.146
1249.633, 198.246
1250.848, 32.974
1252.063, 208.090
1253.277, 112.147
1254.492, 18.699
1255.706, 191.740
1256.920, 47.776
1258.134, 74.204
1259.348, 178.225
1260.562, 23.530
1261.775, 243.535
1262.988, 123.532
1264.201, 33.899
1265.414, 169.071
1266.627, 27.034
1267.839, 109.299
1269.052, 167.241
1270.264, 66.267
1271.476, 101.945
1272.688, 121.544
1273.899, 19.308
1275.111, 174.156
1276.322, 116.996
1277.533, 109.103
1278.744, 238.901
1279.955, 82.686
1281.165, 239.897
1282.376, 166.615
1283.586, 20.316
1284.796, 262.212
1286.006, 97.886
1287.215, 65.679
1288.425, 150.296
1289.634, 25.901
1290.843, 156.185
1292.052, 230.735
1293.261, 87.266
1294.469, 236.909
1295.678, 126.409
1296.886, 42.900
1298.094, 196.421
1299.302, 15.827
1300.509, 81.202
1301.717, 213.558
1302.924, 12.103
1304.131, 101.554
1305.338, 179.570
1306.545, 19.799
1307.752, 217.080
1308.958, 5.734
1310.164, 97.428
1311.370, 230.523
1312.576, 66.440
1313.782, 197.622
1314.987, 128.664
1316.193, 35.317
1317.398, 253.670
1318.603, 9.016
1319.807, 68.958
1321.012, 240.395
1322.216, 19.262
1323.421, 105.135
1324.625, 206.434
1325.829, 108.737
1327.032, 182.036
1328.236, 70.716
1329.439, 1.441
1330.642, 173.140
1331.845, 26.813
1333.048, 60.460
1334.251, 173.415
1335.453, 15.983
1336.656, 106.580
1337.858, 104.948
1339.060, 20.535
1340.261, 186.949
1341.463, 62.413
1342.664, 61.850
1343.866, 281.265
1345.067, 46.340
1346.267, 135.018
1347.468, 133.431
1348.669, 5.751
1349.869, 167.049
1351.069, 147.537
1352.269, 7.799
1353.469, 220.036
1354.668, 13.256
1355.868, 9.455
1357.067, 236.818
1358.266, 68.027
1359.465, 129.979
1360.664, 119.963
1361.862, 7.074
1363.061, 152.860
1364.259, 134.930
1365.457, 16.819
1366.655, 217.673
1367.852, 60.900
1369.050, 90.694
1370.247, 250.463
1371.444, 43.783
1372.641, 172.861
1373.838, 75.697
1375.035, 19.666
1376.231, 267.780
1377.427, 59.464
1378.623, 51.974
1379.819, 241.327
1381.015, 14.708
1382.211, 183.159
1383.406, 260.332
1384.601, 19.686
1385.796, 300.153
1386.991, 149.282
1388.185, 54.027
1389.380, 350.852
1390.574, 120.792
1391.768, 89.824
1392.962, 305.593
1394.156, 34.820
1395.350, 217.510
1396.543, 252.557
1397.736, 60.250
1398.929, 269.770
1400.122, 185.762
1401.315, 80.690
1402.507, 324.460
1403.700, 107.875
1404.892, 182.654
1406.084, 358.245
1407.276, 56.595
1408.467, 285.226
1409.659, 242.035
1410.850, 107.378
1412.041, 350.127
1413.232, 157.609
1414.423, 166.154
1415.614, 384.146
1416.804, 119.653
1417.994, 226.142
1419.184, 320.645
1420.374, 104.546
1421.564, 302.530
1422.753, 341.149
1423.943, 72.380
1425.132, 379.154
1426.321, 166.343
1427.510, 116.761
1428.698, 330.454
1429.887, 130.949
1431.075, 204.625
1432.263, 370.072
1433.451, 30.484
1434.639, 311.371
1435.827, 253.335
1437.014, 129.135
1438.201, 277.308
1439.388, 153.980
1440.575, 125.772
1441.762, 331.822
1442.949, 156.898
1444.135, 178.669
1445.321, 369.361
1446.507, 66.245
1447.693, 263.560
1448.879, 260.772
1450.064, 120.065
1451.250, 384.191
1452.435, 228.338
1453.620, 142.409
1454.805, 373.028
1455.989, 143.683
1457.174, 197.125
1458.358, 421.151
1459.542, 154.645
1460.726, 256.888
1461.910, 378.221
1463.093, 131.673
1464.277, 324.708
1465.460, 257.177
1466.643, 83.150
1467.826, 342.559
1469.009, 177.941
1470.191, 196.776
1471.373, 388.485
1472.556, 150.963
1473.738, 208.165
1474.919, 361.045
1476.101, 41.029
1477.283, 290.487
1478.464, 219.652
1479.645, 55.375
1480.826, 394.901
1482.007, 211.084
1483.187, 122.631
1484.368, 387.818
1485.548, 130.508
1486.728, 157.951
1487.908, 375.771
1489.088, 98.650
1490.268, 313.560
1491.447, 234.470
1492.626, 67.419
1493.805, 308.401
1494.984, 165.511
1496.163, 313.599
1497.341, 409.791
1498.520, 76.125
1499.698, 279.450
1500.876, 387.887
1502.054, 101.041
1503.232, 313.181
1504.409, 322.282
1505.586, 63.608
1506.763, 307.350
1507.940, 232.686
1509.117, 18.713
1510.294, 400.913
1511.470, 123.193
1512.647, 124.826
1513.823, 400.643
1514.999, 74.270
1516.174, 238.294
1517.350, 337.010
1518.526, 1.482
1519.701, 307.613
1520.876, 0.000
##END=



