##NAMES=Marialite
##RRUFFID=R050123
##IDEAL CHEMISTRY=Na_4_Al_3_Si_9_O_24_Cl
##LOCALITY=Pakistan
##OWNER=RRUFF
##SOURCE=Syed Shah
##DESCRIPTION=Purple fragment
##STATUS=The identification of this mineral has been confirmed by X-ray diffraction and chemical analysis
##URL=rruff.info/R050123
##MEASURED CHEMISTRY=(Na_0.88_Ca_0.07_K_0.05_)_4_Al_3.00_Si_9.00_O_24_Cl_0.97
##PIN_ID=L00138
##ORIENTATION=Laser parallel to c* (0 0 1). Fiducial mark perpendicular to laser is parallel to a [1 0 0]
49.365, 0.000
50.765, 2.955
52.166, 42.657
53.566, 133.537
54.966, 150.638
56.365, 302.140
57.765, 430.481
59.164, 533.688
60.563, 638.402
61.962, 842.613
63.360, 706.681
64.758, 576.366
66.157, 474.707
67.554, 555.669
68.952, 738.114
70.349, 907.606
71.747, 871.213
73.144, 862.158
74.540, 819.786
75.937, 754.041
77.333, 650.867
78.729, 517.211
80.125, 320.028
81.521, 281.277
82.916, 181.929
84.311, 158.055
85.706, 6.679
87.101, 174.253
88.496, 72.800
89.890, 81.005
91.284, 44.088
92.678, 244.454
94.071, 418.070
95.465, 717.926
96.858, 853.012
98.251, 1263.326
99.644, 1452.851
101.036, 1879.565
102.428, 2391.430
103.820, 2953.429
105.212, 3672.555
106.604, 4013.792
107.995, 4157.582
109.387, 4120.575
110.777, 4001.106
112.168, 3549.719
113.559, 3170.410
114.949, 3033.183
116.339, 2636.399
117.729, 2710.756
119.119, 2314.843
120.508, 2400.097
121.897, 2366.310
123.286, 2370.448
124.675, 2614.511
126.063, 2378.501
127.452, 2745.423
128.840, 2800.278
130.228, 3048.071
131.615, 3227.801
133.003, 3384.495
134.390, 3745.218
135.777, 3739.980
137.164, 4417.790
138.550, 4544.652
139.937, 5273.587
141.323, 5618.635
142.709, 6011.801
144.094, 6633.070
145.480, 6871.478
146.865, 7999.928
148.250, 8108.378
149.635, 9106.808
151.019, 9915.168
152.403, 10343.216
153.788, 11811.051
155.171, 11888.857
156.555, 13596.638
157.939, 13484.401
159.322, 14312.142
160.705, 14039.869
162.088, 13297.576
163.470, 13295.271
164.853, 11392.947
166.235, 11200.610
167.617, 9708.256
168.998, 9095.889
170.380, 8253.507
171.761, 7501.108
173.142, 7258.694
174.523, 6426.268
175.904, 6633.823
177.284, 5952.363
178.664, 5901.888
180.044, 5711.354
181.424, 5354.681
182.803, 5488.805
184.183, 4898.850
185.562, 4991.647
186.940, 4343.079
188.319, 4115.149
189.698, 3989.265
191.076, 3421.442
192.454, 3441.591
193.831, 2850.174
195.209, 2850.387
196.586, 2484.690
197.963, 2326.865
199.340, 2321.028
200.717, 1943.180
202.093, 2143.319
203.470, 1811.442
204.846, 1956.551
206.221, 1775.645
207.597, 1716.724
208.972, 1755.788
210.347, 1530.837
211.722, 1648.871
213.097, 1328.890
214.472, 1433.893
215.846, 1366.880
217.220, 1256.794
218.594, 1384.818
219.967, 1166.278
221.341, 1415.489
222.714, 1220.881
224.087, 1296.780
225.460, 1379.983
226.832, 1241.280
228.204, 1410.592
229.577, 1180.674
230.948, 1308.826
232.320, 1089.542
233.692, 1135.348
235.063, 1192.359
236.434, 909.245
237.805, 1067.723
239.175, 894.859
240.545, 996.306
241.916, 966.543
243.286, 981.062
244.655, 1194.746
246.025, 1199.905
247.394, 1505.729
248.763, 1591.783
250.132, 1994.516
251.501, 2268.340
252.869, 2723.094
254.237, 3348.126
255.605, 3683.838
256.973, 4611.196
258.340, 4858.118
259.708, 5322.106
261.075, 5322.104
262.442, 4904.109
263.808, 4728.119
265.175, 3534.130
266.541, 3291.144
267.907, 2463.159
269.273, 2055.171
270.639, 1765.183
272.004, 1411.192
273.369, 1557.198
274.734, 1298.200
276.099, 1496.198
277.463, 1478.192
278.828, 1587.180
280.192, 1771.161
281.556, 1682.135
282.919, 1903.095
284.283, 1753.038
285.646, 1857.963
287.009, 1730.871
288.372, 1556.761
289.734, 1706.633
291.097, 1649.489
292.459, 1979.326
293.821, 2204.147
295.183, 2632.951
296.544, 2972.738
297.905, 2837.507
299.266, 2848.259
300.627, 2128.994
301.988, 1709.711
303.348, 1221.409
304.709, 793.089
306.069, 655.750
307.428, 231.390
308.788, 239.009
310.147, 65.604
311.507, 17.828
312.865, 28.298
314.224, 177.809
315.583, 118.400
316.941, 170.053
318.299, 128.781
319.657, 163.573
321.015, 91.437
322.372, 57.354
323.729, 92.316
325.086, 28.675
326.443, 9.360
327.800, 80.573
329.156, 120.484
330.512, 140.372
331.868, 263.239
333.224, 202.085
334.579, 297.913
335.935, 281.727
337.290, 324.523
338.645, 381.303
339.999, 304.063
341.354, 404.820
342.708, 330.559
344.062, 396.276
345.416, 485.959
346.769, 493.528
348.123, 663.968
349.476, 643.275
350.829, 941.499
352.182, 1119.667
353.534, 1427.799
354.887, 1870.933
356.239, 2070.176
357.591, 2575.275
358.942, 2476.373
360.294, 2703.456
361.645, 2451.525
362.996, 2170.579
364.347, 2184.619
365.698, 1730.647
367.048, 1769.660
368.398, 1462.659
369.748, 1345.642
371.098, 1185.610
372.448, 913.562
373.797, 891.498
375.146, 679.420
376.495, 605.325
377.844, 520.214
379.192, 325.076
380.540, 422.912
381.889, 214.720
383.236, 253.496
384.584, 184.242
385.932, 68.956
387.279, 165.633
388.626, 7.277
389.973, 75.876
391.319, 25.561
392.666, 28.059
394.012, 12.379
395.358, 59.224
396.704, 11.907
398.049, 46.640
399.394, 55.439
400.740, 65.312
402.084, 53.792
403.429, 30.230
404.774, 22.173
406.118, 101.365
407.462, 43.670
408.806, 76.188
410.150, 155.702
411.493, 209.712
412.836, 263.168
414.179, 249.452
415.522, 372.575
416.865, 431.929
418.207, 481.827
419.549, 641.460
420.891, 650.039
422.233, 800.035
423.575, 806.540
424.916, 946.823
426.257, 1081.703
427.598, 1030.505
428.939, 1319.247
430.279, 1296.841
431.619, 1406.713
432.959, 1476.236
434.299, 1576.733
435.639, 1956.427
436.978, 1972.873
438.318, 2481.480
439.657, 2795.981
440.996, 3321.348
442.334, 3963.689
443.673, 4177.004
445.011, 5446.410
446.349, 6013.672
447.687, 7518.907
449.024, 9098.281
450.361, 10961.466
451.699, 14764.721
453.036, 17297.854
454.372, 22250.957
455.709, 25914.088
457.045, 27647.135
458.381, 29100.162
459.717, 24703.164
461.053, 22816.131
462.388, 18189.076
463.724, 14681.994
465.059, 12444.885
466.394, 9487.751
467.728, 8520.588
469.063, 6678.008
470.397, 5774.429
471.731, 4871.920
473.065, 3865.248
474.398, 3634.881
475.732, 2809.093
477.065, 2561.154
478.398, 2224.139
479.731, 1751.387
481.063, 1704.076
482.396, 1330.995
483.728, 1260.032
485.060, 1117.275
486.391, 970.453
487.723, 968.522
489.054, 785.270
490.385, 818.210
491.716, 632.304
493.047, 603.794
494.377, 630.178
495.708, 520.291
497.038, 621.869
498.368, 482.150
499.697, 532.716
501.027, 528.760
502.356, 429.715
503.685, 563.380
505.014, 465.724
506.342, 487.320
507.671, 423.942
508.999, 352.735
510.327, 378.517
511.655, 235.546
512.982, 301.061
514.310, 241.090
515.637, 201.618
516.964, 293.059
518.291, 261.204
519.617, 380.502
520.944, 367.126
522.270, 440.378
523.596, 591.587
524.921, 640.654
526.247, 870.708
527.572, 997.020
528.897, 1414.108
530.222, 1915.156
531.547, 2469.370
532.871, 3850.052
534.196, 5051.310
535.520, 7416.024
536.844, 8780.891
538.167, 8922.956
539.491, 8464.869
540.814, 6009.754
542.137, 4778.056
543.460, 3459.458
544.783, 2493.834
546.105, 2030.233
547.427, 1414.377
548.749, 1230.083
550.071, 918.541
551.393, 681.239
552.714, 615.496
554.035, 441.448
555.356, 392.636
556.677, 314.972
557.998, 236.271
559.318, 246.678
560.638, 75.773
561.958, 172.212
563.278, 25.988
564.597, 23.625
565.917, 71.869
567.236, 11.827
568.555, 4.851
569.874, 62.743
571.192, 35.822
572.511, 12.590
573.829, 32.716
575.147, 36.255
576.464, 28.799
577.782, 3.872
579.099, 2.970
580.416, 14.095
581.733, 2.251
583.050, 24.565
584.366, 114.363
585.683, 126.139
586.999, 133.894
588.315, 162.640
589.630, 89.365
590.946, 176.072
592.261, 173.761
593.576, 111.429
594.891, 191.092
596.206, 118.735
597.520, 137.357
598.834, 164.959
600.148, 207.542
601.462, 224.106
602.776, 132.650
604.089, 209.174
605.402, 172.678
606.715, 119.164
608.028, 223.629
609.341, 134.075
610.653, 157.502
611.965, 155.911
613.277, 143.300
614.589, 225.670
615.901, 161.023
617.212, 263.356
618.523, 280.672
619.834, 312.969
621.145, 377.249
622.456, 350.511
623.766, 490.754
625.076, 449.987
626.386, 527.200
627.696, 453.397
629.006, 370.586
630.315, 315.762
631.624, 250.937
632.933, 167.112
634.242, 109.328
635.551, 60.566
636.859, 130.844
638.167, 1.846
639.475, 37.493
640.783, 34.845
642.090, 24.795
643.398, 57.565
644.705, 9.912
646.012, 31.250
647.318, 46.571
648.625, 23.875
649.931, 46.159
651.237, 4.424
652.543, 24.332
653.849, 25.876
655.155, 7.936
656.460, 66.224
657.765, 55.637
659.070, 1.538
660.375, 23.535
661.679, 43.413
662.984, 29.592
664.288, 32.425
665.592, 19.481
666.895, 19.572
668.199, 39.697
669.502, 20.135
670.805, 88.056
672.108, 5.684
673.411, 20.283
674.713, 43.022
676.016, 42.627
677.318, 0.571
678.620, 42.032
679.921, 46.849
681.223, 10.588
682.524, 71.945
683.825, 4.779
685.126, 52.270
686.427, 55.972
687.727, 10.545
689.028, 131.975
690.328, 2.654
691.628, 112.119
692.927, 73.133
694.227, 19.712
695.526, 46.051
696.825, 53.990
698.124, 73.350
699.423, 82.937
700.721, 14.494
702.020, 96.763
703.318, 42.666
704.616, 69.927
705.913, 83.450
707.211, 47.662
708.508, 109.847
709.805, 22.013
711.102, 127.416
712.399, 79.808
713.695, 41.799
714.992, 118.024
716.288, 40.596
717.584, 138.254
718.879, 100.616
720.175, 73.009
721.470, 174.677
722.765, 84.667
724.060, 136.404
725.355, 184.028
726.649, 144.431
727.944, 298.239
729.238, 230.131
730.532, 277.931
731.825, 238.510
733.119, 149.246
734.412, 298.118
735.705, 256.514
736.998, 270.589
738.291, 312.793
739.584, 253.492
740.876, 375.506
742.168, 281.399
743.460, 392.714
744.752, 453.625
746.043, 400.157
747.334, 553.288
748.626, 486.175
749.916, 516.492
751.207, 729.343
752.498, 625.008
753.788, 714.845
755.078, 679.648
756.368, 751.619
757.658, 831.391
758.947, 760.031
760.237, 914.856
761.526, 826.581
762.815, 873.294
764.104, 1024.047
765.392, 959.776
766.680, 1123.699
767.969, 1076.345
769.257, 1152.128
770.544, 1238.942
771.832, 1065.625
773.119, 1319.485
774.406, 1257.068
775.693, 1267.905
776.980, 1435.724
778.267, 1299.250
779.553, 1566.611
780.839, 1537.108
782.125, 1541.626
783.411, 1794.170
784.697, 1537.685
785.982, 1722.343
787.267, 1637.846
788.552, 1404.346
789.837, 1427.759
791.122, 1112.670
792.406, 1067.028
793.690, 907.669
794.974, 680.587
796.258, 685.030
797.542, 508.461
798.825, 539.533
800.108, 520.290
801.391, 429.069
802.674, 603.014
803.957, 469.732
805.239, 588.529
806.522, 687.344
807.804, 677.582
809.085, 982.268
810.367, 1041.372
811.649, 1346.181
812.930, 1522.992
814.211, 1317.335
815.492, 1290.923
816.772, 859.799
818.053, 661.385
819.333, 535.907
820.613, 324.221
821.893, 288.509
823.173, 236.514
824.452, 145.997
825.732, 203.929
827.011, 99.328
828.290, 136.777
829.568, 154.487
830.847, 57.007
832.125, 101.165
833.403, 41.659
834.681, 111.161
835.959, 108.768
837.236, 19.354
838.514, 126.645
839.791, 40.124
841.068, 65.607
842.345, 109.889
843.621, 30.667
844.898, 75.833
846.174, 15.493
847.450, 38.988
848.726, 91.234
850.001, 15.420
851.277, 75.930
852.552, 17.352
853.827, 19.801
855.102, 83.952
856.376, 16.562
857.651, 77.667
858.925, 13.001
860.199, 83.380
861.473, 97.601
862.746, 4.928
864.020, 34.155
865.293, 38.667
866.566, 2.030
867.839, 78.095
869.112, 7.530
870.384, 4.374
871.656, 40.083
872.928, 36.585
874.200, 57.589
875.472, 25.991
876.744, 24.063
878.015, 41.586
879.286, 2.952
880.557, 22.329
881.828, 16.304
883.098, 38.959
884.369, 67.360
885.639, 68.329
886.909, 1.059
888.178, 37.198
889.448, 7.448
890.717, 109.690
891.987, 13.074
893.256, 16.144
894.524, 53.349
895.793, 33.454
897.061, 82.710
898.330, 7.134
899.598, 22.005
900.865, 76.132
902.133, 52.750
903.401, 105.328
904.668, 71.396
905.935, 45.456
907.202, 152.506
908.468, 30.548
909.735, 130.579
911.001, 82.601
912.267, 52.615
913.533, 125.619
914.799, 31.615
916.064, 57.603
917.330, 35.581
918.595, 8.550
919.860, 97.509
921.124, 21.459
922.389, 22.400
923.653, 49.332
924.918, 3.255
926.182, 65.167
927.445, 2.072
928.709, 1.966
929.972, 77.850
931.236, 27.274
932.499, 94.578
933.761, 56.422
935.024, 31.740
936.286, 49.071
937.549, 10.875
938.811, 43.670
940.073, 40.458
941.334, 20.238
942.596, 11.989
943.857, 15.228
945.118, 57.516
946.379, 51.260
947.640, 7.002
948.900, 54.728
950.161, 22.460
951.421, 46.188
952.681, 108.919
953.940, 29.648
955.200, 58.372
956.459, 77.096
957.719, 6.816
958.978, 92.531
960.236, 51.250
961.495, 80.964
962.753, 89.685
964.012, 45.598
965.270, 75.108
966.527, 65.819
967.785, 53.528
969.043, 128.245
970.300, 87.961
971.557, 114.683
972.814, 67.409
974.071, 52.138
975.327, 174.876
976.583, 117.612
977.840, 116.369
979.095, 204.115
980.351, 83.875
981.607, 254.643
982.862, 196.238
984.117, 327.004
985.372, 470.534
986.627, 394.295
987.882, 587.057
989.136, 619.495
990.390, 679.254
991.644, 831.780
992.898, 758.410
994.152, 850.163
995.405, 823.646
996.659, 677.320
997.912, 691.423
999.165, 406.939
1000.417, 310.674
1001.670, 380.786
1002.922, 259.456
1004.174, 314.881
1005.426, 251.314
1006.678, 184.018
1007.930, 343.072
1009.181, 179.748
1010.432, 295.155
1011.683, 297.992
1012.934, 216.717
1014.185, 357.462
1015.435, 274.016
1016.685, 256.534
1017.935, 369.532
1019.185, 263.239
1020.435, 409.594
1021.684, 362.434
1022.934, 315.969
1024.183, 409.860
1025.432, 317.613
1026.680, 398.097
1027.929, 430.794
1029.177, 287.352
1030.425, 447.601
1031.673, 411.208
1032.921, 365.389
1034.169, 459.206
1035.416, 391.897
1036.663, 447.881
1037.911, 505.961
1039.157, 407.527
1040.404, 620.971
1041.650, 501.738
1042.897, 575.188
1044.143, 652.690
1045.389, 468.349
1046.634, 718.603
1047.880, 605.382
1049.125, 590.217
1050.371, 763.763
1051.615, 633.537
1052.860, 760.640
1054.105, 745.417
1055.349, 638.175
1056.593, 859.825
1057.837, 658.600
1059.081, 740.191
1060.325, 801.964
1061.568, 641.764
1062.812, 866.477
1064.055, 762.276
1065.298, 740.915
1066.540, 872.665
1067.783, 766.335
1069.025, 884.894
1070.267, 966.712
1071.509, 844.331
1072.751, 1136.954
1073.993, 965.691
1075.234, 1038.242
1076.475, 1245.051
1077.716, 1076.593
1078.957, 1206.136
1080.198, 1252.955
1081.438, 1127.925
1082.679, 1341.744
1083.919, 1241.526
1085.159, 1344.295
1086.398, 1584.062
1087.638, 1392.669
1088.877, 1707.480
1090.116, 1679.214
1091.355, 1658.257
1092.594, 2083.248
1093.833, 1794.017
1095.071, 2003.371
1096.309, 2065.176
1097.547, 1852.739
1098.785, 2143.786
1100.023, 1854.475
1101.260, 1823.435
1102.498, 1936.459
1103.735, 1476.253
1104.972, 1563.020
1106.208, 1529.857
1107.445, 1203.485
1108.681, 1377.429
1109.918, 1167.246
1111.154, 1164.620
1112.389, 1198.597
1113.625, 918.793
1114.860, 1023.258
1116.096, 920.085
1117.331, 733.079
1118.566, 927.235
1119.800, 684.062
1121.035, 765.234
1122.269, 934.206
1123.503, 697.027
1124.737, 810.136
1125.971, 593.952
1127.205, 556.914
1128.438, 655.248
1129.671, 487.055
1130.904, 458.025
1132.137, 496.999
1133.370, 319.799
1134.602, 455.719
1135.834, 381.516
1137.066, 304.310
1138.298, 375.514
1139.530, 247.302
1140.762, 306.113
1141.993, 284.308
1143.224, 213.086
1144.455, 262.374
1145.686, 256.147
1146.917, 198.923
1148.147, 311.108
1149.377, 89.878
1150.607, 171.651
1151.837, 239.790
1153.067, 69.556
1154.296, 188.728
1155.526, 102.556
1156.755, 62.317
1157.984, 193.717
1159.213, 5.589
1160.441, 147.335
1161.670, 89.514
1162.898, 25.254
1164.126, 125.263
1165.354, 21.163
1166.581, 35.891
1167.809, 74.563
1169.036, 65.578
1170.263, 54.372
1171.490, 76.961
1172.717, 14.650
1173.943, 171.691
1175.170, 0.726
1176.396, 93.395
1177.622, 218.492
1178.848, 24.258
1180.073, 129.089
1181.299, 154.272
1182.524, 94.073
1183.749, 233.985
1184.974, 152.125
1186.199, 170.781
1187.423, 284.097
1188.648, 181.547
1189.872, 265.180
1191.096, 175.473
1192.320, 184.259
1193.543, 329.991
1194.767, 243.161
1195.990, 315.808
1197.213, 510.253
1198.436, 285.201
1199.659, 453.788
1200.881, 502.948
1202.104, 440.709
1203.326, 635.285
1204.548, 524.501
1205.770, 652.057
1206.991, 772.934
1208.213, 524.029
1209.434, 737.557
1210.655, 672.668
1211.876, 520.915
1213.096, 654.488
1214.317, 480.130
1215.537, 458.831
1216.757, 595.589
1217.977, 295.036
1219.197, 419.482
1220.417, 365.240
1221.636, 238.950
1222.855, 357.365
1224.074, 240.236
1225.293, 161.963
1226.512, 340.346
1227.731, 181.089
1228.949, 227.796
1230.167, 227.429
1231.385, 98.026
1232.603, 245.368
1233.820, 131.056
1235.038, 88.862
1236.255, 223.176
1237.472, 12.075
1238.689, 92.422
1239.906, 130.821
1241.122, 0.496
1242.338, 170.771
1243.555, 37.089
1244.771, 59.224
1245.986, 160.477
1247.202, 25.104
1248.417, 70.462
1249.633, 97.669
1250.848, 4.658
1252.063, 188.527
1253.277, 124.705
1254.492, 91.307
1255.706, 169.462
1256.920, 13.391
1258.134, 84.344
1259.348, 120.468
1260.562, 14.233
1261.775, 158.928
1262.988, 81.027
1264.201, 44.437
1265.414, 168.515
1266.627, 40.583
1267.839, 88.959
1269.052, 176.007
1270.264, 56.042
1271.476, 187.065
1272.688, 91.072
1273.899, 9.853
1275.111, 215.110
1276.322, 89.051
1277.533, 88.218
1278.744, 218.123
1279.955, 101.003
1281.165, 175.491
1282.376, 174.320
1283.586, 33.135
1284.796, 188.986
1286.006, 126.739
1287.215, 34.489
1288.425, 181.200
1289.634, 19.884
1290.843, 141.906
1292.052, 150.562
1293.261, 37.200
1294.469, 185.191
1295.678, 156.751
1296.886, 48.278
1298.094, 220.976
1299.302, 39.440
1300.509, 121.041
1301.717, 190.463
1302.924, 11.865
1304.131, 110.542
1305.338, 141.768
1306.545, 35.090
1307.752, 183.528
1308.958, 1.254
1310.164, 100.002
1311.370, 223.164
1312.576, 27.685
1313.782, 107.458
1314.987, 76.549
1316.193, 12.351
1317.398, 208.718
1318.603, 53.632
1319.807, 19.344
1321.012, 171.614
1322.216, 20.427
1323.421, 114.501
1324.625, 97.428
1325.829, 53.691
1327.032, 106.151
1328.236, 77.967
1329.439, 31.757
1330.642, 160.515
1331.845, 39.749
1333.048, 6.948
1334.251, 145.618
1335.453, 7.738
1336.656, 102.876
1337.858, 113.615
1339.060, 37.825
1340.261, 132.696
1341.463, 6.195
1342.664, 57.664
1343.866, 176.290
1345.067, 22.712
1346.267, 99.110
1347.468, 155.716
1348.669, 15.073
1349.869, 157.406
1351.069, 62.894
1352.269, 85.820
1353.469, 188.418
1354.668, 19.744
1355.868, 25.058
1357.067, 123.110
1358.266, 31.740
1359.465, 87.375
1360.664, 71.705
1361.862, 2.781
1363.061, 173.838
1364.259, 63.873
1365.457, 2.115
1366.655, 249.879
1367.852, 34.857
1369.050, 60.822
1370.247, 201.761
1371.444, 51.692
1372.641, 59.616
1373.838, 74.773
1375.035, 33.303
1376.231, 156.605
1377.427, 57.533
1378.623, 34.317
1379.819, 183.786
1381.015, 22.845
1382.211, 131.780
1383.406, 118.891
1384.601, 49.936
1385.796, 182.971
1386.991, 130.254
1388.185, 6.570
1389.380, 191.748
1390.574, 100.180
1391.768, 58.616
1392.962, 199.629
1394.156, 38.430
1395.350, 152.011
1396.543, 220.797
1397.736, 44.720
1398.929, 231.020
1400.122, 146.662
1401.315, 24.531
1402.507, 216.518
1403.700, 103.986
1404.892, 133.394
1406.084, 221.682
1407.276, 0.424
1408.467, 176.932
1409.659, 171.310
1410.850, 71.609
1412.041, 247.324
1413.232, 189.104
1414.423, 172.284
1415.614, 252.305
1416.804, 129.784
1417.994, 157.207
1419.184, 281.848
1420.374, 87.963
1421.564, 207.195
1422.753, 198.068
1423.943, 13.661
1425.132, 279.459
1426.321, 209.125
1427.510, 112.680
1428.698, 260.386
1429.887, 127.175
1431.075, 123.701
1432.263, 284.907
1433.451, 40.067
1434.639, 208.831
1435.827, 231.784
1437.014, 22.122
1438.201, 237.937
1439.388, 158.831
1440.575, 56.567
1441.762, 335.877
1442.949, 68.853
1444.135, 124.006
1445.321, 328.976
1446.507, 33.705
1447.693, 211.917
1448.879, 285.860
1450.064, 64.404
1451.250, 286.341
1452.435, 237.087
1453.620, 77.819
1454.805, 293.608
1455.989, 97.886
1457.174, 88.725
1458.358, 316.170
1459.542, 107.578
1460.726, 186.902
1461.910, 322.665
1463.093, 39.193
1464.277, 253.842
1465.460, 207.628
1466.643, 41.458
1467.826, 298.993
1469.009, 73.212
1470.191, 87.628
1471.373, 292.293
1472.556, 76.777
1473.738, 124.079
1474.919, 341.208
1476.101, 68.482
1477.283, 202.637
1478.464, 174.798
1479.645, 25.730
1480.826, 311.410
1482.007, 115.289
1483.187, 91.697
1484.368, 249.886
1485.548, 14.750
1486.728, 140.115
1487.908, 269.549
1489.088, 2.158
1490.268, 220.768
1491.447, 211.365
1492.626, 13.146
1493.805, 172.089
1494.984, 113.795
1496.163, 29.563
1497.341, 333.483
1498.520, 59.473
1499.698, 94.602
1500.876, 309.809
1502.054, 2.225
1503.232, 170.359
1504.409, 228.077
1505.586, 71.771
1506.763, 260.843
1507.940, 158.898
1509.117, 71.821
1510.294, 338.178
1511.470, 76.208
1512.647, 101.822
1513.823, 318.130
1514.999, 32.125
1516.174, 174.389
1517.350, 228.727
1518.526, 0.843
1519.701, 0.000
##END=



