##NAMES=Marialite
##RRUFFID=R040043
##IDEAL CHEMISTRY=Na_4_Al_3_Si_9_O_24_Cl
##LOCALITY=Gouverneur, New York, USA
##OWNER=RRUFF
##SOURCE=University of Arizona Mineral Museum
##DESCRIPTION=White prismatic crystals
##STATUS=The identification of this mineral has been confirmed by X-ray diffraction and chemical analysis
##URL=rruff.info/R040043
##MEASURED CHEMISTRY=(Na_.493_Ca_.446_K_.061_)_4_(Si_.634_Al_.366_)_12_O_24_((CO_3_)_.581_Cl_.419_)
##PIN_ID=S00036
##ORIENTATION=Laser parallel to c* (0 0 1). Fiducial mark perpendicular to laser is parallel to -a [-1 0 0]
104.516, 0.000
105.908, 792.255
107.300, 1421.510
108.691, 1894.766
110.082, 2058.699
111.473, 2282.396
112.864, 1813.167
114.254, 1271.244
115.644, 705.161
117.034, 200.242
118.424, 169.382
119.813, 71.347
121.203, 23.589
122.592, 200.794
123.981, 665.617
125.369, 849.977
126.758, 1151.098
128.146, 1173.341
129.534, 1518.185
130.922, 1407.989
132.309, 1235.070
133.696, 1173.131
135.083, 1355.246
136.470, 1060.720
137.857, 1515.980
139.243, 1626.837
140.630, 2092.574
142.016, 2468.258
143.401, 3251.395
144.787, 4078.813
146.172, 5029.332
147.557, 6192.827
148.942, 7369.322
150.327, 8967.666
151.711, 11036.824
153.096, 12939.770
154.480, 14890.736
155.863, 17106.418
157.247, 18915.129
158.630, 20606.859
160.013, 22095.082
161.396, 22918.533
162.779, 23162.590
164.161, 22362.381
165.544, 21214.203
166.926, 19383.477
168.308, 17206.980
169.689, 14727.704
171.070, 12950.763
172.452, 11089.886
173.833, 9278.622
175.213, 8205.312
176.594, 7135.148
177.974, 6691.296
179.354, 6359.438
180.734, 6215.933
182.114, 6266.584
183.493, 6600.104
184.872, 6736.398
186.251, 7210.514
187.630, 7339.584
189.008, 7541.971
190.387, 7626.771
191.765, 7709.713
193.143, 7658.441
194.520, 6989.682
195.898, 6956.465
197.275, 6337.850
198.652, 6164.854
200.029, 5593.494
201.405, 5218.783
202.782, 4707.729
204.158, 4729.914
205.534, 4588.035
206.909, 4137.821
208.285, 4466.170
209.660, 4545.979
211.035, 4202.865
212.410, 4346.222
213.784, 4301.232
215.159, 4262.738
216.533, 4418.862
217.907, 4507.230
219.281, 4627.726
220.654, 4564.172
222.027, 4813.559
223.400, 4782.874
224.773, 4786.023
226.146, 4663.373
227.518, 4409.587
228.891, 4073.898
230.263, 3710.324
231.634, 3231.838
233.006, 2821.231
234.377, 2383.494
235.748, 2015.623
237.119, 1694.498
238.490, 1508.144
239.860, 1248.793
241.231, 933.284
242.601, 914.624
243.970, 784.164
245.340, 738.373
246.709, 830.657
248.079, 1027.866
249.448, 1053.237
250.816, 1434.782
252.185, 1963.955
253.553, 2431.357
254.921, 3417.127
256.289, 4327.762
257.657, 5409.587
259.024, 6548.916
260.391, 7795.041
261.758, 8479.053
263.125, 9027.653
264.492, 8611.049
265.858, 7622.240
267.224, 6463.227
268.590, 4988.002
269.956, 3862.698
271.321, 3036.999
272.687, 2183.216
274.052, 1824.975
275.416, 1631.197
276.781, 1338.400
278.146, 1403.935
279.510, 1563.755
280.874, 1749.797
282.237, 2159.004
283.601, 2732.309
284.964, 3335.715
286.327, 4400.891
287.690, 5011.353
289.053, 5321.799
290.416, 5405.207
291.778, 4961.561
293.140, 4476.840
294.502, 3910.036
295.863, 3886.131
297.225, 3809.104
298.586, 3155.936
299.947, 2227.611
301.308, 1288.122
302.668, 511.451
304.029, 137.559
305.389, 323.616
306.749, 500.196
308.108, 527.218
309.468, 667.707
310.827, 750.701
312.186, 759.220
313.545, 707.272
314.903, 617.819
316.262, 573.541
317.620, 554.322
318.978, 375.281
320.336, 252.678
321.693, 56.545
323.051, 300.127
324.408, 534.389
325.765, 1022.284
327.121, 1239.842
328.478, 1643.074
329.834, 2405.994
331.190, 3151.610
332.546, 3708.932
333.902, 4465.963
335.257, 4504.711
336.612, 4517.172
337.967, 4109.320
339.322, 3526.139
340.677, 2895.033
342.031, 2370.411
343.385, 1851.529
344.739, 1388.436
346.093, 1097.044
347.446, 1125.758
348.799, 1074.412
350.153, 1273.383
351.505, 1441.324
352.858, 1715.828
354.210, 2222.883
355.563, 2859.793
356.915, 3400.712
358.267, 4244.155
359.618, 4687.146
360.969, 4929.911
362.321, 4632.450
363.672, 3867.765
365.022, 2994.855
366.373, 2186.724
367.723, 1723.294
369.073, 1351.152
370.423, 1157.951
371.773, 1067.548
373.122, 1177.935
374.471, 1378.252
375.821, 1267.626
377.169, 1522.338
378.518, 1349.722
379.866, 1505.925
381.215, 1441.968
382.563, 1381.865
383.910, 1343.604
385.258, 1227.186
386.605, 1186.608
387.952, 1041.865
389.299, 985.917
390.646, 935.754
391.992, 821.390
393.339, 844.844
394.685, 756.127
396.031, 677.233
397.376, 532.159
398.722, 647.893
400.067, 603.437
401.412, 619.866
402.757, 750.854
404.101, 705.840
405.446, 749.847
406.790, 823.606
408.134, 880.767
409.478, 1078.087
410.821, 1230.864
412.165, 1421.881
413.508, 1699.927
414.851, 1970.618
416.193, 2216.663
417.536, 2721.332
418.878, 2984.107
420.220, 3126.066
421.562, 3242.299
422.904, 3286.488
424.245, 3206.948
425.586, 3219.449
426.927, 3326.014
428.268, 3452.073
429.609, 3560.760
430.949, 3812.265
432.289, 4106.552
433.629, 4248.102
434.969, 4966.164
436.309, 5400.462
437.648, 6207.848
438.987, 6951.466
440.326, 7958.046
441.665, 9033.688
443.003, 10402.793
444.342, 12132.517
445.680, 14439.922
447.018, 17655.133
448.355, 21777.146
449.693, 27393.973
451.030, 33776.613
452.367, 40524.047
453.704, 44496.281
455.041, 48250.340
456.377, 49584.188
457.713, 51027.852
459.049, 51468.312
460.385, 51091.598
461.721, 49167.953
463.056, 44769.988
464.391, 40375.410
465.726, 35475.461
467.061, 29835.244
468.395, 25148.816
469.730, 21000.871
471.064, 17224.424
472.398, 14539.911
473.731, 11636.749
475.065, 9902.372
476.398, 8313.521
477.731, 6926.760
479.064, 5777.042
480.397, 4980.727
481.729, 4285.582
483.062, 3682.004
484.394, 3197.754
485.725, 2930.625
487.057, 2533.852
488.389, 2243.689
489.720, 1949.767
491.051, 1766.654
492.382, 1659.355
493.712, 1571.824
495.043, 1364.085
496.373, 1304.252
497.703, 1118.226
499.032, 1090.035
500.362, 924.493
501.691, 974.720
503.020, 728.810
504.349, 710.091
505.678, 710.268
507.007, 613.746
508.335, 557.286
509.663, 651.223
510.991, 590.598
512.319, 629.181
513.646, 672.186
514.973, 641.474
516.300, 816.151
517.627, 867.706
518.954, 937.135
520.280, 1160.453
521.607, 1492.651
522.933, 1737.733
524.259, 2306.702
525.584, 2859.553
526.910, 3922.288
528.235, 4928.701
529.560, 6795.368
530.885, 8738.609
532.209, 11311.392
533.534, 14479.317
534.858, 16895.855
536.182, 18171.969
537.506, 18198.969
538.829, 16493.912
540.152, 13901.574
541.476, 11478.644
542.799, 9015.483
544.121, 7414.304
545.444, 5869.312
546.766, 4634.082
548.088, 3862.614
549.410, 3058.619
550.732, 2452.147
552.053, 2052.507
553.375, 1630.116
554.696, 1362.567
556.017, 1114.967
557.337, 1040.773
558.658, 845.620
559.978, 642.694
561.298, 550.015
562.618, 411.162
563.938, 325.709
565.257, 392.773
566.576, 145.741
567.895, 227.158
569.214, 254.182
570.533, 163.980
571.851, 208.516
573.170, 236.159
574.488, 91.872
575.805, 124.721
577.123, 44.490
578.440, 93.191
579.758, 173.823
581.075, 47.393
582.391, 184.903
583.708, 138.348
585.024, 86.730
586.341, 171.042
587.657, 224.292
588.972, 231.475
590.288, 236.588
591.603, 125.636
592.918, 192.615
594.233, 85.528
595.548, 252.372
596.863, 187.155
598.177, 199.878
599.491, 275.542
600.805, 352.148
602.119, 389.699
603.432, 710.199
604.746, 828.648
606.059, 919.049
607.372, 973.400
608.685, 1247.703
609.997, 1185.976
611.309, 1389.202
612.621, 1111.382
613.933, 1048.518
615.245, 724.613
616.557, 564.666
617.868, 365.677
619.179, 267.646
620.490, 74.579
621.801, 210.476
623.111, 63.379
624.421, 95.325
625.731, 111.548
627.041, 126.761
628.351, 9.708
629.660, 37.915
630.970, 11.149
632.279, 183.502
633.588, 166.930
634.896, 181.155
636.205, 82.193
637.513, 173.008
638.821, 89.684
640.129, 75.222
641.437, 22.331
642.744, 87.080
644.051, 33.504
645.358, 3.954
646.665, 36.571
647.972, 103.068
649.278, 109.655
650.584, 127.402
651.890, 139.383
653.196, 124.766
654.502, 134.120
655.807, 136.451
657.113, 183.754
658.418, 303.655
659.722, 309.772
661.027, 328.870
662.331, 323.902
663.636, 424.975
664.940, 293.653
666.244, 366.463
667.547, 101.977
668.851, 190.643
670.154, 72.735
671.457, 59.066
672.760, 214.997
674.062, 275.013
675.365, 398.014
676.667, 748.884
677.969, 790.720
679.271, 878.830
680.572, 508.860
681.874, 397.188
683.175, 187.543
684.476, 85.854
685.777, 103.738
687.077, 14.173
688.378, 84.945
689.678, 15.494
690.978, 71.608
692.278, 115.638
693.577, 77.688
694.877, 128.043
696.176, 101.985
697.475, 48.539
698.774, 149.040
700.072, 95.971
701.371, 167.402
702.669, 260.664
703.967, 339.844
705.265, 353.261
706.562, 322.398
707.860, 236.380
709.157, 388.463
710.454, 395.485
711.751, 448.166
713.047, 225.243
714.344, 474.361
715.640, 637.511
716.936, 339.587
718.232, 452.355
719.527, 305.606
720.823, 341.738
722.118, 333.399
723.413, 380.372
724.708, 456.102
726.002, 537.179
727.297, 438.728
728.591, 570.255
729.885, 632.179
731.179, 603.310
732.472, 442.855
733.766, 483.985
735.059, 370.092
736.352, 404.743
737.645, 390.407
738.937, 434.498
740.230, 438.004
741.522, 513.063
742.814, 477.082
744.106, 677.280
745.397, 681.140
746.689, 743.813
747.980, 935.657
749.271, 1009.810
750.562, 1293.543
751.853, 1198.003
753.143, 1520.221
754.433, 1588.520
755.723, 1463.165
757.013, 2029.160
758.303, 2137.344
759.592, 2445.676
760.881, 2832.062
762.170, 3415.396
763.459, 4068.730
764.748, 4437.332
766.036, 5310.668
767.325, 5812.223
768.613, 6533.565
769.901, 7005.562
771.188, 7307.907
772.476, 7778.250
773.763, 7265.733
775.050, 7298.248
776.337, 6467.152
777.624, 5643.521
778.910, 4695.904
780.196, 3810.322
781.482, 2707.584
782.768, 2159.266
784.054, 1659.120
785.339, 1362.584
786.625, 917.808
787.910, 838.635
789.195, 580.852
790.479, 506.346
791.764, 492.154
793.048, 404.034
794.332, 476.143
795.616, 513.709
796.900, 563.073
798.183, 580.272
799.467, 726.938
800.750, 970.120
802.033, 996.566
803.316, 1425.297
804.598, 1431.061
805.880, 1953.904
807.163, 2238.805
808.445, 1959.647
809.726, 1670.537
811.008, 1263.442
812.289, 928.551
813.570, 697.745
814.851, 519.934
816.132, 353.118
817.413, 77.303
818.693, 184.483
819.973, 9.665
821.253, 1.843
822.533, 99.679
823.813, 24.847
825.092, 14.583
826.371, 86.269
827.650, 12.572
828.929, 60.568
830.208, 40.298
831.486, 1.805
832.764, 4.107
834.042, 23.036
835.320, 20.010
836.598, 16.047
837.875, 102.926
839.152, 39.256
840.429, 69.458
841.706, 116.544
842.983, 68.989
844.259, 64.226
845.536, 90.320
846.812, 29.016
848.088, 27.625
849.363, 56.999
850.639, 34.527
851.914, 92.818
853.189, 4.237
854.464, 7.115
855.739, 10.258
857.013, 18.290
858.288, 8.862
859.562, 34.424
860.836, 134.979
862.110, 56.530
863.383, 98.075
864.656, 5.615
865.930, 112.143
867.203, 108.664
868.475, 98.749
869.748, 119.855
871.020, 83.188
872.292, 80.684
873.564, 35.178
874.836, 7.331
876.108, 12.855
877.379, 94.605
878.650, 30.066
879.922, 109.523
881.192, 33.019
882.463, 75.414
883.733, 33.156
885.004, 67.249
886.274, 35.346
887.544, 11.966
888.813, 33.602
890.083, 61.265
891.352, 1.966
892.621, 31.679
893.890, 12.461
895.159, 18.165
896.427, 70.067
897.695, 84.296
898.964, 70.522
900.232, 152.745
901.499, 228.966
902.767, 211.183
904.034, 262.680
905.301, 167.611
906.568, 252.820
907.835, 215.025
909.102, 135.227
910.368, 125.419
911.634, 178.605
912.900, 63.784
914.166, 216.952
915.432, 99.113
916.697, 38.733
917.962, 159.382
919.227, 29.489
920.492, 133.585
921.757, 11.673
923.021, 87.745
924.285, 183.810
925.550, 44.865
926.813, 5.087
928.077, 12.941
929.341, 24.040
930.604, 56.951
931.867, 51.060
933.130, 62.891
934.393, 68.853
935.655, 13.187
936.918, 140.756
938.180, 77.709
939.442, 5.340
940.703, 54.639
941.965, 127.640
943.226, 5.320
944.488, 214.713
945.749, 272.770
947.009, 206.848
948.270, 302.939
949.530, 353.028
950.791, 354.125
952.051, 397.220
953.311, 420.482
954.570, 418.912
955.830, 475.486
957.089, 441.567
958.348, 473.646
959.607, 538.716
960.866, 439.815
962.124, 390.944
963.383, 571.077
964.641, 456.205
965.899, 443.352
967.156, 485.511
968.414, 382.688
969.671, 387.863
970.928, 379.058
972.185, 539.907
973.442, 514.475
974.699, 602.650
975.955, 592.600
977.211, 572.502
978.468, 786.680
979.723, 736.514
980.979, 735.588
982.234, 1089.993
983.490, 800.413
984.745, 1036.536
986.000, 1021.720
987.254, 798.585
988.509, 1051.402
989.763, 914.256
991.017, 893.527
992.271, 972.587
993.525, 775.742
994.779, 983.108
996.032, 849.169
997.285, 952.947
998.538, 735.243
999.791, 1155.137
1001.044, 980.881
1002.296, 1197.315
1003.548, 1057.402
1004.800, 1046.949
1006.052, 1068.287
1007.304, 980.144
1008.555, 1000.774
1009.807, 895.669
1011.058, 921.111
1012.309, 928.804
1013.559, 973.764
1014.810, 1035.130
1016.060, 1111.659
1017.310, 1144.989
1018.560, 1204.032
1019.810, 1221.139
1021.060, 1315.285
1022.309, 1344.424
1023.558, 1440.558
1024.807, 1434.958
1026.056, 1379.801
1027.305, 1454.278
1028.553, 1461.160
1029.801, 1591.585
1031.049, 1552.684
1032.297, 1587.021
1033.545, 1627.863
1034.793, 1773.394
1036.040, 1857.428
1037.287, 2028.562
1038.534, 2251.942
1039.781, 2394.141
1041.027, 2204.819
1042.274, 2223.670
1043.520, 2405.931
1044.766, 2305.404
1046.012, 2326.374
1047.257, 2420.373
1048.503, 2564.391
1049.748, 2531.375
1050.993, 2793.379
1052.238, 2849.373
1053.483, 2819.359
1054.727, 2980.339
1055.971, 3083.609
1057.216, 3337.270
1058.459, 3444.219
1059.703, 3592.162
1060.947, 3849.095
1062.190, 4040.018
1063.433, 4109.877
1064.676, 4344.776
1065.919, 4517.668
1067.162, 4999.281
1068.404, 4871.148
1069.646, 5115.787
1070.888, 5424.631
1072.130, 5354.809
1073.372, 5814.627
1074.613, 5649.436
1075.855, 5375.393
1077.096, 5200.418
1078.337, 5423.679
1079.578, 5066.448
1080.818, 5135.826
1082.059, 4978.604
1083.299, 5054.797
1084.539, 4951.647
1085.779, 5408.098
1087.018, 5458.709
1088.258, 6015.993
1089.497, 6612.522
1090.736, 7491.766
1091.975, 8343.509
1093.213, 9421.256
1094.452, 10535.551
1095.690, 11427.657
1096.928, 12478.240
1098.166, 12677.527
1099.404, 13032.470
1100.642, 12455.202
1101.879, 11736.974
1103.116, 10443.070
1104.353, 9711.988
1105.590, 8783.446
1106.827, 8809.721
1108.063, 9348.531
1109.299, 10766.368
1110.536, 12454.489
1111.771, 13747.812
1113.007, 14512.946
1114.243, 13681.931
1115.478, 10815.331
1116.713, 7225.912
1117.948, 4400.580
1119.183, 2497.887
1120.418, 1765.003
1121.652, 1542.616
1122.886, 1482.907
1124.120, 1304.690
1125.354, 989.391
1126.588, 945.938
1127.821, 706.419
1129.055, 727.135
1130.288, 665.781
1131.521, 595.565
1132.753, 523.097
1133.986, 536.875
1135.218, 651.521
1136.450, 365.103
1137.682, 591.293
1138.914, 304.150
1140.146, 243.459
1141.377, 123.914
1142.609, 3.134
1143.840, 176.041
1145.071, 75.823
1146.301, 59.757
1147.532, 201.527
1148.762, 18.572
1149.992, 3.239
1151.222, 43.173
1152.452, 88.474
1153.682, 18.712
1154.911, 253.267
1156.140, 14.181
1157.369, 136.999
1158.598, 71.736
1159.827, 183.990
1161.055, 96.983
1162.284, 138.056
1163.512, 187.697
1164.740, 182.091
1165.967, 215.780
1167.195, 305.188
1168.422, 230.476
1169.650, 232.484
1170.877, 210.063
1172.103, 89.052
1173.330, 179.040
1174.557, 353.002
1175.783, 303.980
1177.009, 132.474
1178.235, 428.408
1179.461, 285.414
1180.686, 316.236
1181.912, 390.036
1183.137, 486.899
1184.362, 484.780
1185.587, 442.714
1186.811, 537.285
1188.036, 566.501
1189.260, 656.778
1190.484, 684.542
1191.708, 839.934
1192.932, 741.633
1194.155, 875.572
1195.378, 913.075
1196.602, 1096.427
1197.825, 1180.287
1199.047, 1323.741
1200.270, 1296.835
1201.492, 1374.676
1202.715, 1391.326
1203.937, 1386.572
1205.159, 1308.713
1206.380, 1219.532
1207.602, 975.772
1208.823, 1036.452
1210.044, 859.076
1211.265, 862.850
1212.486, 758.383
1213.707, 498.854
1214.927, 652.270
1216.147, 382.639
1217.367, 468.029
1218.587, 338.294
1219.807, 267.501
1221.027, 299.861
1222.246, 160.962
1223.465, 66.003
1224.684, 207.208
1225.903, 114.151
1227.121, 62.047
1228.340, 270.864
1229.558, 106.777
1230.776, 24.510
1231.994, 79.196
1233.212, 1.260
1234.429, 87.215
1235.646, 39.379
1236.864, 67.953
1238.081, 35.606
1239.297, 91.585
1240.514, 67.720
1241.730, 25.880
1242.947, 1.720
1244.163, 64.221
1245.378, 136.094
1246.594, 182.903
1247.810, 169.396
1249.025, 87.345
1250.240, 124.974
1251.455, 39.548
1252.670, 53.068
1253.885, 138.529
1255.099, 103.078
1256.313, 107.775
1257.527, 15.559
1258.741, 59.602
1259.955, 74.285
1261.168, 49.238
1262.382, 68.242
1263.595, 69.426
1264.808, 0.117
1266.021, 52.350
1267.233, 20.410
1268.446, 210.166
1269.658, 55.141
1270.870, 112.531
1272.082, 149.180
1273.294, 30.809
1274.505, 110.416
1275.716, 126.992
1276.928, 96.902
1278.139, 157.057
1279.349, 98.066
1280.560, 130.895
1281.770, 144.609
1282.981, 9.168
1284.191, 21.287
1285.401, 215.439
1286.610, 43.008
1287.820, 86.395
1289.029, 69.627
1290.239, 109.344
1291.448, 48.723
1292.656, 117.643
1293.865, 83.418
1295.073, 141.900
1296.282, 27.697
1297.490, 234.467
1298.698, 249.211
1299.906, 49.922
1301.113, 104.592
1302.320, 37.230
1303.528, 126.826
1304.735, 72.395
1305.942, 30.934
1307.148, 281.447
1308.355, 143.943
1309.561, 202.422
1310.767, 123.883
1311.973, 213.338
1313.179, 72.783
1314.384, 398.225
1315.590, 151.666
1316.795, 404.105
1318.000, 98.025
1319.205, 396.516
1320.410, 289.807
1321.614, 162.482
1322.819, 288.680
1324.023, 256.859
1325.227, 292.062
1326.431, 315.922
1327.634, 260.879
1328.838, 279.621
1330.041, 214.764
1331.244, 116.855
1332.447, 169.488
1333.650, 133.104
1334.852, 150.838
1336.055, 106.023
1337.257, 159.109
1338.459, 5.271
1339.661, 165.270
1340.862, 176.133
1342.064, 67.461
1343.265, 135.551
1344.466, 304.000
1345.667, 85.486
1346.868, 278.914
1348.068, 175.426
1349.269, 154.033
1350.469, 235.381
1351.669, 60.229
1352.869, 232.350
1354.069, 209.059
1355.268, 130.625
1356.468, 317.766
1357.667, 269.049
1358.866, 171.744
1360.065, 371.729
1361.263, 139.914
1362.462, 152.061
1363.660, 166.580
1364.858, 97.232
1366.056, 224.465
1367.254, 264.467
1368.451, 86.734
1369.649, 141.902
1370.846, 174.852
1372.043, 214.502
1373.240, 85.076
1374.436, 108.393
1375.633, 92.225
1376.829, 180.789
1378.025, 124.041
1379.221, 206.746
1380.417, 203.066
1381.613, 53.973
1382.808, 255.334
1384.003, 269.479
1385.199, 14.654
1386.393, 49.307
1387.588, 303.289
1388.783, 313.865
1389.977, 185.156
1391.171, 117.643
1392.365, 93.281
1393.559, 253.475
1394.753, 119.020
1395.946, 190.893
1397.140, 108.260
1398.333, 232.850
1399.526, 175.980
1400.719, 215.297
1401.911, 191.123
1403.104, 140.545
1404.296, 137.477
1405.488, 354.096
1406.680, 4.666
1407.872, 166.162
1409.063, 199.697
1410.255, 0.000
##END=



