##NAMES=Marialite
##RRUFFID=R050123
##IDEAL CHEMISTRY=Na_4_Al_3_Si_9_O_24_Cl
##LOCALITY=Pakistan
##OWNER=RRUFF
##SOURCE=Syed Shah
##DESCRIPTION=Purple fragment
##STATUS=The identification of this mineral has been confirmed by X-ray diffraction and chemical analysis
##URL=rruff.info/R050123
##MEASURED CHEMISTRY=(Na_0.88_Ca_0.07_K_0.05_)_4_Al_3.00_Si_9.00_O_24_Cl_0.97
##PIN_ID=L00138
##ORIENTATION=Laser parallel to c* (0 0 1). Fiducial mark perpendicular to laser is parallel to a [1 0 0]
49.365, 0.000
50.765, 18.424
52.166, 188.659
53.566, 274.196
54.966, 629.167
56.365, 850.940
57.765, 1007.552
59.164, 1344.568
60.563, 1647.981
61.962, 1600.292
63.360, 1520.451
64.758, 1370.499
66.157, 1266.891
67.554, 1409.350
68.952, 1330.446
70.349, 1317.454
71.747, 1132.553
73.144, 1064.339
74.540, 794.545
75.937, 554.445
77.333, 351.973
78.729, 220.076
80.125, 89.414
81.521, 41.804
82.916, 40.646
84.311, 94.597
85.706, 80.040
87.101, 138.025
88.496, 28.604
89.890, 37.180
91.284, 205.292
92.678, 450.717
94.071, 639.457
95.465, 883.502
96.858, 1101.840
98.251, 1463.850
99.644, 1817.337
101.036, 2305.420
102.428, 2726.666
103.820, 3300.057
105.212, 4051.586
106.604, 4334.242
107.995, 4846.018
109.387, 4425.905
110.777, 4413.897
112.168, 3992.988
113.559, 3612.174
114.949, 3480.471
116.339, 3174.136
117.729, 3193.817
119.119, 2796.067
120.508, 2859.450
121.897, 2890.852
123.286, 2838.228
124.675, 3149.570
126.063, 2967.877
127.452, 3350.155
128.840, 3321.404
130.228, 3600.626
131.615, 3752.823
133.003, 3903.070
134.390, 4333.583
135.777, 4350.334
137.164, 5115.294
138.550, 5095.429
139.937, 5843.716
141.323, 6244.104
142.709, 6740.558
144.094, 7437.099
145.480, 7603.798
146.865, 8830.548
148.250, 8957.209
149.635, 10063.648
151.019, 10659.706
152.403, 11395.376
153.788, 12780.874
155.171, 13096.323
156.555, 14791.765
157.939, 14537.204
159.322, 15602.642
160.705, 15208.083
162.088, 14653.523
163.470, 14488.967
164.853, 12334.411
166.235, 12249.856
167.617, 10555.307
168.998, 10060.756
170.380, 9026.209
171.761, 8231.665
173.142, 7947.124
174.523, 7102.582
175.904, 7368.042
177.284, 6563.504
178.664, 6518.965
180.044, 6336.590
181.424, 6060.990
182.803, 5980.810
184.183, 5440.267
185.562, 5512.303
186.940, 4957.162
188.319, 4720.794
189.698, 4319.262
191.076, 3822.020
192.454, 3868.151
193.831, 3261.212
195.209, 3254.119
196.586, 2816.683
197.963, 2644.223
199.340, 2557.770
200.717, 2271.321
202.093, 2324.871
203.470, 2081.420
204.846, 2257.968
206.221, 2010.514
207.597, 1885.061
208.972, 2042.605
210.347, 1781.148
211.722, 1779.691
213.097, 1576.232
214.472, 1655.772
215.846, 1590.773
217.220, 1561.606
218.594, 1628.041
219.967, 1521.504
221.341, 1692.223
222.714, 1540.921
224.087, 1591.134
225.460, 1635.457
226.832, 1508.849
228.204, 1647.404
229.577, 1494.345
230.948, 1631.616
232.320, 1368.667
233.692, 1387.171
235.063, 1355.031
236.434, 1229.736
237.805, 1289.665
239.175, 1145.870
240.545, 1342.629
241.916, 1232.406
243.286, 1243.296
244.655, 1418.533
246.025, 1408.550
247.394, 1789.893
248.763, 1898.174
250.132, 2344.227
251.501, 2549.758
252.869, 3117.160
254.237, 3771.492
255.605, 4200.152
256.973, 5134.298
258.340, 5359.182
259.708, 6083.910
261.075, 5838.279
262.442, 5315.664
263.808, 5121.065
265.175, 3973.478
266.541, 3610.903
267.907, 2740.339
269.273, 2306.784
270.639, 2042.238
272.004, 1633.700
273.369, 1685.170
274.734, 1394.645
276.099, 1632.125
277.463, 1567.612
278.828, 1690.103
280.192, 1939.596
281.556, 1778.092
282.919, 2105.585
284.283, 1817.072
285.646, 1942.552
287.009, 1846.025
288.372, 1709.492
289.734, 1852.952
291.097, 1739.406
292.459, 2104.853
293.821, 2283.293
295.183, 2768.728
296.544, 3047.155
297.905, 2898.574
299.266, 2902.986
300.627, 2096.388
301.988, 1719.779
303.348, 1208.158
304.709, 883.525
306.069, 603.880
307.428, 227.221
308.788, 180.546
310.147, 23.851
311.507, 51.135
312.865, 37.603
314.224, 138.371
315.583, 115.195
316.941, 204.065
318.299, 74.005
319.657, 141.979
321.015, 98.001
322.372, 41.064
323.729, 58.154
325.086, 4.270
326.443, 31.596
327.800, 162.450
329.156, 143.291
330.512, 177.123
331.868, 242.950
333.224, 194.765
334.579, 393.567
335.935, 269.360
337.290, 300.142
338.645, 390.920
339.999, 370.688
341.354, 456.451
342.708, 399.205
344.062, 485.940
345.416, 535.665
346.769, 524.306
348.123, 698.833
349.476, 696.268
350.829, 985.637
352.182, 1155.975
353.534, 1588.292
354.887, 2022.608
356.239, 2301.917
357.591, 2819.217
358.942, 2671.531
360.294, 2891.835
361.645, 2570.143
362.996, 2308.444
364.347, 2327.737
365.698, 1842.027
367.048, 1892.309
368.398, 1551.585
369.748, 1391.852
371.098, 1193.111
372.448, 937.364
373.797, 893.607
375.146, 652.842
376.495, 653.067
377.844, 480.282
379.192, 371.451
380.540, 338.573
381.889, 210.652
383.236, 248.682
384.584, 114.668
385.932, 80.608
387.279, 116.501
388.626, 22.647
389.973, 18.147
391.319, 16.101
392.666, 9.603
394.012, 10.686
395.358, 22.480
396.704, 27.520
398.049, 77.975
399.394, 33.494
400.740, 117.056
402.084, 118.495
403.429, 19.061
404.774, 90.277
406.118, 32.431
407.462, 4.962
408.806, 88.640
410.150, 86.333
411.493, 132.778
412.836, 310.694
414.179, 263.071
415.522, 374.604
416.865, 422.659
418.207, 501.091
419.549, 609.066
420.891, 632.077
422.233, 818.037
423.575, 828.925
424.916, 947.810
426.257, 1140.245
427.598, 1075.861
428.939, 1345.333
430.279, 1286.570
431.619, 1484.044
432.959, 1541.280
434.299, 1604.739
435.639, 2034.871
436.978, 2129.983
438.318, 2641.377
439.657, 2923.450
440.996, 3454.504
442.334, 4164.592
443.673, 4534.604
445.011, 5807.674
446.349, 6305.645
447.687, 8013.607
449.024, 9736.539
450.361, 11729.450
451.699, 15982.585
453.036, 18665.455
454.372, 24108.473
455.709, 27421.365
457.045, 29424.172
458.381, 30836.992
459.717, 26009.762
461.053, 24072.502
462.388, 18985.229
463.724, 15387.931
465.059, 12930.612
466.394, 10053.271
467.728, 8935.913
469.063, 6940.770
470.397, 6044.417
471.731, 5084.306
473.065, 3995.379
474.398, 3734.427
475.732, 2935.164
477.065, 2667.400
478.398, 2269.493
479.731, 1830.498
481.063, 1797.186
482.396, 1340.788
483.728, 1308.035
485.060, 1150.702
486.391, 962.614
487.723, 995.448
489.054, 858.296
490.385, 829.909
491.716, 680.434
493.047, 707.511
494.377, 667.513
495.708, 492.205
497.038, 601.405
498.368, 499.401
499.697, 547.951
501.027, 546.765
502.356, 459.437
503.685, 618.081
505.014, 509.540
506.342, 552.021
507.671, 466.979
508.999, 362.524
510.327, 372.620
511.655, 252.650
512.982, 310.150
514.310, 262.576
515.637, 237.777
516.964, 327.177
518.291, 234.527
519.617, 428.562
520.944, 355.554
522.270, 475.813
523.596, 654.073
524.921, 663.483
526.247, 938.688
527.572, 1058.179
528.897, 1561.294
530.222, 2043.452
531.547, 2659.146
532.871, 4178.968
534.196, 5487.138
535.520, 8206.063
536.844, 9437.812
538.167, 9560.068
539.491, 8881.770
540.814, 6284.462
542.137, 5011.665
543.460, 3637.176
544.783, 2616.323
546.105, 2132.760
547.427, 1428.791
548.749, 1277.611
550.071, 976.865
551.393, 766.262
552.714, 648.282
554.035, 432.000
555.356, 449.843
556.677, 287.524
557.998, 253.172
559.318, 257.242
560.638, 151.341
561.958, 154.158
563.278, 62.073
564.597, 59.853
565.917, 81.848
567.236, 31.444
568.555, 59.735
569.874, 61.112
571.192, 20.312
572.511, 42.672
573.829, 26.903
575.147, 12.064
576.464, 41.995
577.782, 30.910
579.099, 18.791
580.416, 34.353
581.733, 39.469
583.050, 35.265
584.366, 138.039
585.683, 89.792
586.999, 119.522
588.315, 170.232
589.630, 108.921
590.946, 160.591
592.261, 102.241
593.576, 196.868
594.891, 211.477
596.206, 102.067
597.520, 182.634
598.834, 183.183
600.148, 159.712
601.462, 239.221
602.776, 153.710
604.089, 228.180
605.402, 168.630
606.715, 188.061
608.028, 220.473
609.341, 110.864
610.653, 196.234
611.965, 128.590
613.277, 152.925
614.589, 197.242
615.901, 158.539
617.212, 273.816
618.523, 289.093
619.834, 309.350
621.145, 403.588
622.456, 316.806
623.766, 556.005
625.076, 490.189
626.386, 464.354
627.696, 526.501
629.006, 309.635
630.315, 386.755
631.624, 172.873
632.933, 208.987
634.242, 145.126
635.551, 36.285
636.859, 91.481
638.167, 6.309
639.475, 57.918
640.783, 34.153
642.090, 1.608
643.398, 26.624
644.705, 1.159
646.012, 44.035
647.318, 6.790
648.625, 20.642
649.931, 59.471
651.237, 25.562
652.543, 44.635
653.849, 45.683
655.155, 20.279
656.460, 63.721
657.765, 12.302
659.070, 24.645
660.375, 26.566
661.679, 55.535
662.984, 55.305
664.288, 47.878
665.592, 29.886
666.895, 0.374
668.199, 33.664
669.502, 25.999
670.805, 40.362
672.108, 20.773
673.411, 34.795
674.713, 71.679
676.016, 111.847
677.318, 34.604
678.620, 47.787
679.921, 42.389
681.223, 9.226
682.524, 45.233
683.825, 7.860
685.126, 56.121
686.427, 40.608
687.727, 1.905
689.028, 110.091
690.328, 21.519
691.628, 74.661
692.927, 111.127
694.227, 10.359
695.526, 111.435
696.825, 0.362
698.124, 93.663
699.423, 54.029
700.721, 14.049
702.020, 134.031
703.318, 26.460
704.616, 140.431
705.913, 105.544
707.211, 70.632
708.508, 168.531
709.805, 44.820
711.102, 111.756
712.399, 81.858
713.695, 67.381
714.992, 147.247
716.288, 80.361
717.584, 121.244
718.879, 113.599
720.175, 73.301
721.470, 156.754
722.765, 80.281
724.060, 158.975
725.355, 198.579
726.649, 111.133
727.944, 240.317
729.238, 145.823
730.532, 310.141
731.825, 211.230
733.119, 207.453
734.412, 318.783
735.705, 206.037
736.998, 274.124
738.291, 330.216
739.584, 237.715
740.876, 387.267
742.168, 342.523
743.460, 364.128
744.752, 401.690
746.043, 382.493
747.334, 552.174
748.626, 483.406
749.916, 574.183
751.207, 696.688
752.498, 634.130
753.788, 755.715
755.078, 683.167
756.368, 815.716
757.658, 809.134
758.947, 800.593
760.237, 957.143
761.526, 864.500
762.815, 943.024
764.104, 1083.357
765.392, 982.427
766.680, 1186.948
767.969, 1130.132
769.257, 1223.765
770.544, 1289.012
771.832, 1156.208
773.119, 1375.885
774.406, 1353.083
775.693, 1397.411
776.980, 1530.660
778.267, 1364.807
779.553, 1622.942
780.839, 1658.061
782.125, 1653.160
783.411, 1911.473
784.697, 1648.537
785.982, 1905.734
787.267, 1791.897
788.552, 1524.116
789.837, 1589.681
791.122, 1162.188
792.406, 1078.312
793.690, 930.709
794.974, 683.212
796.258, 806.892
797.542, 519.762
798.825, 525.213
800.108, 598.147
801.391, 438.508
802.674, 594.195
803.957, 506.878
805.239, 639.254
806.522, 723.677
807.804, 725.958
809.085, 1080.686
810.367, 1047.257
811.649, 1398.570
812.930, 1566.342
814.211, 1218.460
815.492, 1317.691
816.772, 969.950
818.053, 641.151
819.333, 544.951
820.613, 326.016
821.893, 322.496
823.173, 242.006
824.452, 143.013
825.732, 270.059
827.011, 107.296
828.290, 200.299
829.568, 90.318
830.847, 79.617
832.125, 157.926
833.403, 46.932
834.681, 92.901
835.959, 65.688
837.236, 19.644
838.514, 125.278
839.791, 40.254
841.068, 80.152
842.345, 122.480
843.621, 35.646
844.898, 139.427
846.174, 15.421
847.450, 65.553
848.726, 110.146
850.001, 5.742
851.277, 130.337
852.552, 12.339
853.827, 86.163
855.102, 89.761
856.376, 12.101
857.651, 83.559
858.925, 47.686
860.199, 49.655
861.473, 95.468
862.746, 8.581
864.020, 76.262
865.293, 34.213
866.566, 32.972
867.839, 115.741
869.112, 28.770
870.384, 37.516
871.656, 1.425
872.928, 44.715
874.200, 65.928
875.472, 7.131
876.744, 23.512
878.015, 20.431
879.286, 22.662
880.557, 74.104
881.828, 3.006
883.098, 36.121
884.369, 75.740
885.639, 33.407
886.909, 28.426
888.178, 30.250
889.448, 24.935
890.717, 90.863
891.987, 2.653
893.256, 61.431
894.524, 82.198
895.793, 21.958
897.061, 96.706
898.330, 0.445
899.598, 32.169
900.865, 88.883
902.133, 15.589
903.401, 168.283
904.668, 13.968
905.935, 47.642
907.202, 137.307
908.468, 33.962
909.735, 107.607
911.001, 41.244
912.267, 32.871
913.533, 89.488
914.799, 30.096
916.064, 95.695
917.330, 88.285
918.595, 15.132
919.860, 53.431
921.124, 1.014
922.389, 73.529
923.653, 119.065
924.918, 69.408
926.182, 118.073
927.445, 31.547
928.709, 46.012
929.972, 124.468
931.236, 13.083
932.499, 63.350
933.761, 63.775
935.024, 8.193
936.286, 90.602
937.549, 33.995
938.811, 30.382
940.073, 12.752
941.334, 7.885
942.596, 49.464
943.857, 40.190
945.118, 9.872
946.379, 63.446
947.640, 38.241
948.900, 82.050
950.161, 26.340
951.421, 34.626
952.681, 94.913
953.940, 7.196
955.200, 89.477
956.459, 69.772
957.719, 5.062
958.978, 116.349
960.236, 43.366
961.495, 72.894
962.753, 124.161
964.012, 14.576
965.270, 112.683
966.527, 21.941
967.785, 72.196
969.043, 94.467
970.300, 22.735
971.557, 92.016
972.814, 83.296
974.071, 77.577
975.327, 188.867
976.583, 73.157
977.840, 193.457
979.095, 169.744
980.351, 115.050
981.607, 250.307
982.862, 174.519
984.117, 361.852
985.372, 434.948
986.627, 440.237
987.882, 652.422
989.136, 593.413
990.390, 672.750
991.644, 884.836
992.898, 776.088
994.152, 960.423
995.405, 851.493
996.659, 629.832
997.912, 661.823
999.165, 407.025
1000.417, 374.372
1001.670, 429.568
1002.922, 254.916
1004.174, 312.903
1005.426, 244.214
1006.678, 208.543
1007.930, 336.409
1009.181, 222.714
1010.432, 318.869
1011.683, 301.158
1012.934, 233.499
1014.185, 288.441
1015.435, 256.816
1016.685, 252.923
1017.935, 297.706
1019.185, 270.238
1020.435, 342.339
1021.684, 354.045
1022.934, 303.769
1024.183, 436.765
1025.432, 297.161
1026.680, 383.431
1027.929, 468.521
1029.177, 276.598
1030.425, 452.987
1031.673, 435.323
1032.921, 574.869
1034.169, 551.380
1035.416, 348.935
1036.663, 458.738
1037.911, 520.872
1039.157, 410.015
1040.404, 657.347
1041.650, 473.708
1042.897, 608.627
1044.143, 652.921
1045.389, 530.292
1046.634, 726.424
1047.880, 642.815
1049.125, 675.691
1050.371, 839.890
1051.615, 632.297
1052.860, 768.447
1054.105, 804.874
1055.349, 715.041
1056.593, 898.350
1057.837, 676.785
1059.081, 798.051
1060.325, 845.484
1061.568, 682.797
1062.812, 839.075
1064.055, 779.522
1065.298, 798.795
1066.540, 948.241
1067.783, 766.707
1069.025, 939.949
1070.267, 1049.344
1071.509, 885.386
1072.751, 1143.858
1073.993, 1061.328
1075.234, 1080.339
1076.475, 1277.811
1077.716, 1051.135
1078.957, 1343.522
1080.198, 1290.993
1081.438, 1220.475
1082.679, 1446.955
1083.919, 1303.440
1085.159, 1426.842
1086.398, 1631.343
1087.638, 1517.809
1088.877, 1852.467
1090.116, 1750.765
1091.355, 1744.729
1092.594, 2220.185
1093.833, 1865.237
1095.071, 2162.509
1096.309, 2149.020
1097.547, 2010.560
1098.785, 2254.414
1100.023, 1944.795
1101.260, 1844.702
1102.498, 1911.215
1103.735, 1580.522
1104.972, 1634.044
1106.208, 1553.556
1107.445, 1263.083
1108.681, 1492.040
1109.918, 1226.092
1111.154, 1190.156
1112.389, 1299.665
1113.625, 941.387
1114.860, 1101.506
1116.096, 888.893
1117.331, 734.619
1118.566, 956.579
1119.800, 783.972
1121.035, 803.989
1122.269, 954.563
1123.503, 687.064
1124.737, 826.918
1125.971, 642.418
1127.205, 579.916
1128.438, 677.857
1129.671, 418.351
1130.904, 507.949
1132.137, 515.755
1133.370, 343.245
1134.602, 502.813
1135.834, 335.346
1137.066, 363.832
1138.298, 429.656
1139.530, 283.137
1140.762, 354.617
1141.993, 302.304
1143.224, 195.778
1144.455, 276.893
1145.686, 211.407
1146.917, 191.875
1148.147, 300.574
1149.377, 112.036
1150.607, 218.831
1151.837, 214.514
1153.067, 39.970
1154.296, 193.783
1155.526, 125.584
1156.755, 44.032
1157.984, 187.983
1159.213, 4.423
1160.441, 163.077
1161.670, 164.687
1162.898, 14.114
1164.126, 156.076
1165.354, 1.493
1166.581, 3.914
1167.809, 69.104
1169.036, 19.488
1170.263, 158.115
1171.490, 92.925
1172.717, 13.329
1173.943, 191.762
1175.170, 75.472
1176.396, 80.862
1177.622, 277.855
1178.848, 42.527
1180.073, 159.947
1181.299, 198.039
1182.524, 21.419
1183.749, 235.127
1184.974, 113.726
1186.199, 145.094
1187.423, 304.186
1188.648, 145.994
1189.872, 282.348
1191.096, 249.912
1192.320, 183.488
1193.543, 365.110
1194.767, 219.426
1195.990, 293.741
1197.213, 482.548
1198.436, 293.204
1199.659, 460.495
1200.881, 559.074
1202.104, 474.416
1203.326, 727.715
1204.548, 509.888
1205.770, 660.132
1206.991, 835.409
1208.213, 530.205
1209.434, 720.419
1210.655, 614.231
1211.876, 497.053
1213.096, 691.236
1214.317, 509.255
1215.537, 471.511
1216.757, 553.763
1217.977, 319.305
1219.197, 454.439
1220.417, 413.810
1221.636, 197.712
1222.855, 451.830
1224.074, 288.229
1225.293, 207.735
1226.512, 312.819
1227.731, 127.671
1228.949, 248.898
1230.167, 238.435
1231.385, 78.421
1232.603, 281.448
1233.820, 83.870
1235.038, 43.578
1236.255, 211.572
1237.472, 91.122
1238.689, 149.109
1239.906, 189.083
1241.122, 17.086
1242.338, 171.879
1243.555, 41.839
1244.771, 38.330
1245.986, 227.272
1247.202, 5.649
1248.417, 153.911
1249.633, 219.828
1250.848, 23.607
1252.063, 152.520
1253.277, 72.402
1254.492, 19.476
1255.706, 238.338
1256.920, 3.205
1258.134, 142.362
1259.348, 156.209
1260.562, 1.438
1261.775, 200.406
1262.988, 78.223
1264.201, 23.491
1265.414, 246.263
1266.627, 14.026
1267.839, 117.379
1269.052, 213.117
1270.264, 50.934
1271.476, 177.056
1272.688, 226.755
1273.899, 31.627
1275.111, 249.282
1276.322, 113.927
1277.533, 65.164
1278.744, 247.777
1279.955, 122.371
1281.165, 131.365
1282.376, 143.925
1283.586, 5.535
1284.796, 207.006
1286.006, 156.512
1287.215, 95.066
1288.425, 199.493
1289.634, 9.094
1290.843, 136.604
1292.052, 210.918
1293.261, 33.800
1294.469, 222.964
1295.678, 70.181
1296.886, 96.413
1298.094, 253.556
1299.302, 64.684
1300.509, 66.851
1301.717, 244.976
1302.924, 34.029
1304.131, 184.176
1305.338, 101.037
1306.545, 0.971
1307.752, 248.353
1308.958, 32.146
1310.164, 177.010
1311.370, 244.685
1312.576, 39.655
1313.782, 216.110
1314.987, 107.374
1316.193, 1.912
1317.398, 222.120
1318.603, 148.653
1319.807, 82.294
1321.012, 179.014
1322.216, 4.393
1323.421, 90.167
1324.625, 148.715
1325.829, 5.778
1327.032, 168.692
1328.236, 79.011
1329.439, 2.424
1330.642, 241.807
1331.845, 19.159
1333.048, 53.483
1334.251, 191.779
1335.453, 28.951
1336.656, 104.276
1337.858, 91.794
1339.060, 57.037
1340.261, 194.087
1341.463, 45.186
1342.664, 46.743
1343.866, 274.355
1345.067, 61.646
1346.267, 145.307
1347.468, 153.434
1348.669, 23.659
1349.869, 169.205
1351.069, 152.199
1352.269, 33.983
1353.469, 193.795
1354.668, 33.552
1355.868, 31.284
1357.067, 190.097
1358.266, 54.214
1359.465, 139.425
1360.664, 139.276
1361.862, 15.124
1363.061, 188.445
1364.259, 103.077
1365.457, 18.603
1366.655, 335.104
1367.852, 92.725
1369.050, 64.188
1370.247, 246.638
1371.444, 36.940
1372.641, 123.447
1373.838, 50.297
1375.035, 39.352
1376.231, 184.842
1377.427, 67.059
1378.623, 28.113
1379.819, 219.942
1381.015, 43.007
1382.211, 168.148
1383.406, 323.746
1384.601, 20.875
1385.796, 240.658
1386.991, 202.673
1388.185, 47.531
1389.380, 278.769
1390.574, 61.095
1391.768, 86.995
1392.962, 275.200
1394.156, 36.299
1395.350, 112.543
1396.543, 287.254
1397.736, 122.616
1398.929, 273.845
1400.122, 233.437
1401.315, 99.757
1402.507, 249.272
1403.700, 78.304
1404.892, 138.907
1406.084, 329.231
1407.276, 63.701
1408.467, 275.169
1409.659, 262.202
1410.850, 46.345
1412.041, 303.830
1413.232, 150.551
1414.423, 75.621
1415.614, 388.382
1416.804, 128.957
1417.994, 213.085
1419.184, 312.021
1420.374, 44.242
1421.564, 253.911
1422.753, 312.752
1423.943, 70.383
1425.132, 368.952
1426.321, 205.681
1427.510, 162.589
1428.698, 372.891
1429.887, 145.530
1431.075, 178.161
1432.263, 357.135
1433.451, 73.890
1434.639, 210.802
1435.827, 249.436
1437.014, 33.789
1438.201, 284.142
1439.388, 129.322
1440.575, 157.126
1441.762, 431.905
1442.949, 110.693
1444.135, 114.811
1445.321, 374.233
1446.507, 100.395
1447.693, 303.756
1448.879, 298.903
1450.064, 12.689
1451.250, 329.845
1452.435, 151.163
1453.620, 106.614
1454.805, 360.809
1455.989, 136.789
1457.174, 84.110
1458.358, 353.549
1459.542, 21.792
1460.726, 288.996
1461.910, 266.822
1463.093, 76.295
1464.277, 342.231
1465.460, 229.284
1466.643, 86.854
1467.826, 327.583
1469.009, 158.330
1470.191, 164.571
1471.373, 361.511
1472.556, 120.020
1473.738, 207.204
1474.919, 435.430
1476.101, 91.376
1477.283, 278.670
1478.464, 248.008
1479.645, 4.780
1480.826, 314.124
1482.007, 150.721
1483.187, 126.861
1484.368, 398.933
1485.548, 60.667
1486.728, 148.552
1487.908, 275.304
1489.088, 28.108
1490.268, 217.512
1491.447, 227.676
1492.626, 36.871
1493.805, 323.556
1494.984, 176.057
1496.163, 85.838
1497.341, 366.721
1498.520, 47.709
1499.698, 157.782
1500.876, 368.825
1502.054, 18.075
1503.232, 255.438
1504.409, 267.386
1505.586, 55.273
1506.763, 343.964
1507.940, 122.301
1509.117, 48.295
1510.294, 431.160
1511.470, 163.494
1512.647, 99.472
1513.823, 341.444
1514.999, 7.166
1516.174, 158.696
1517.350, 241.562
1518.526, 1.302
1519.701, 272.502
1520.876, 0.000
##END=



