##NAMES=Marialite
##RRUFFID=R040043
##IDEAL CHEMISTRY=Na_4_Al_3_Si_9_O_24_Cl
##LOCALITY=Gouverneur, New York, USA
##OWNER=RRUFF
##SOURCE=University of Arizona Mineral Museum
##DESCRIPTION=White prismatic crystals
##STATUS=The identification of this mineral has been confirmed by X-ray diffraction and chemical analysis
##URL=rruff.info/R040043
##MEASURED CHEMISTRY=(Na_.493_Ca_.446_K_.061_)_4_(Si_.634_Al_.366_)_12_O_24_((CO_3_)_.581_Cl_.419_)
##PIN_ID=S00036
##ORIENTATION=Laser parallel to c* (0 0 1). Fiducial mark perpendicular to laser is parallel to -a [-1 0 0]
103.124, 0.000
104.516, 664.160
105.908, 1572.266
107.300, 2263.576
108.691, 3176.732
110.082, 3121.262
111.473, 3032.586
112.864, 2501.867
114.254, 1810.859
115.644, 958.307
117.034, 510.678
118.424, 121.449
119.813, 265.609
121.203, 103.453
122.592, 17.740
123.981, 548.699
125.369, 439.953
126.758, 932.260
128.146, 823.992
129.534, 1512.113
130.922, 1299.906
132.309, 1376.396
133.696, 1036.605
135.083, 1300.760
136.470, 1052.229
137.857, 1520.510
139.243, 1374.727
140.630, 2131.516
142.016, 2311.146
143.401, 2974.418
144.787, 3748.119
146.172, 4897.096
147.557, 5980.305
148.942, 6889.635
150.327, 8650.992
151.711, 10229.330
153.096, 12231.625
154.480, 13912.574
155.863, 15838.518
157.247, 17744.869
158.630, 19362.764
160.013, 20827.529
161.396, 21741.043
162.779, 22239.350
164.161, 21979.619
165.544, 20872.342
166.926, 19473.477
168.308, 17687.885
169.689, 15219.646
171.070, 13343.023
172.452, 11579.242
173.833, 9788.824
175.213, 8462.238
176.594, 7128.914
177.974, 6709.855
179.354, 6290.418
180.734, 5862.373
182.114, 5769.305
183.493, 6201.029
184.872, 6010.584
186.251, 6442.066
187.630, 6667.779
189.008, 7095.852
190.387, 7133.367
191.765, 7243.082
193.143, 7139.590
194.520, 6886.641
195.898, 6700.271
197.275, 6475.527
198.652, 6224.430
200.029, 5851.986
201.405, 5604.215
202.782, 4999.215
204.158, 5103.082
205.534, 5136.248
206.909, 4581.910
208.285, 4636.352
209.660, 4798.652
211.035, 4529.721
212.410, 4420.488
213.784, 4336.039
215.159, 4167.910
216.533, 4260.379
217.907, 4143.018
219.281, 4328.621
220.654, 4175.182
222.027, 4443.686
223.400, 4460.131
224.773, 4677.266
226.146, 4463.484
227.518, 4242.461
228.891, 3902.270
230.263, 3540.080
231.634, 3249.791
233.006, 2724.391
234.377, 2315.861
235.748, 2072.197
237.119, 1522.885
238.490, 1662.504
239.860, 1111.621
241.231, 1036.932
242.601, 714.707
243.970, 694.613
245.340, 549.092
246.709, 470.617
248.079, 790.629
249.448, 613.277
250.816, 1100.717
252.185, 1493.725
253.553, 1875.049
254.921, 2775.740
256.289, 3606.273
257.657, 4526.492
259.024, 5602.223
260.391, 6729.934
261.758, 7492.883
263.125, 8340.633
264.492, 8476.176
265.858, 7551.502
267.224, 6681.623
268.590, 5126.988
269.956, 4322.850
271.321, 3219.201
272.687, 2469.570
274.052, 1784.672
275.416, 1391.892
276.781, 1141.111
278.146, 1174.634
279.510, 1180.245
280.874, 1507.127
282.237, 1928.217
283.601, 2288.507
284.964, 2728.869
286.327, 3897.885
287.690, 4453.197
289.053, 4794.691
290.416, 5192.175
291.778, 4643.630
293.140, 4252.035
294.502, 3760.375
295.863, 3717.629
297.225, 3717.772
298.586, 3220.789
299.947, 2587.660
301.308, 1519.380
302.668, 622.940
304.029, 300.306
305.389, 61.563
306.749, 462.755
308.108, 479.373
309.468, 717.433
310.827, 655.971
312.186, 773.983
313.545, 809.521
314.903, 594.597
316.262, 766.150
317.620, 620.217
318.978, 518.784
320.336, 423.829
321.693, 219.418
323.051, 168.481
324.408, 172.956
325.765, 801.033
327.121, 891.769
328.478, 1380.177
329.834, 1966.272
331.190, 2763.069
332.546, 3239.575
333.902, 3930.795
335.257, 4172.731
336.612, 4324.387
337.967, 4051.738
339.322, 3451.899
340.677, 3054.979
342.031, 2302.192
343.385, 1933.584
344.739, 1581.641
346.093, 1143.006
347.446, 1006.245
348.799, 971.179
350.153, 1005.451
351.505, 1330.589
352.858, 1460.696
354.210, 1991.683
355.563, 2393.225
356.915, 2887.336
358.267, 3752.895
359.618, 4112.107
360.969, 4488.039
362.321, 4404.737
363.672, 3945.205
365.022, 3307.443
366.373, 2351.450
367.723, 1898.102
369.073, 1436.922
370.423, 1238.636
371.773, 1142.160
373.122, 1093.491
374.471, 1367.743
375.821, 1225.026
377.169, 1419.789
378.518, 1367.223
379.866, 1509.500
381.215, 1640.615
382.563, 1339.602
383.910, 1320.424
385.258, 1260.082
386.605, 1112.066
387.952, 1001.894
389.299, 977.993
390.646, 928.866
391.992, 944.536
393.339, 724.030
394.685, 680.338
396.031, 888.452
397.376, 645.388
398.722, 658.128
400.067, 560.661
401.412, 479.327
402.757, 545.081
404.101, 563.599
405.446, 664.421
406.790, 710.647
408.134, 785.771
409.478, 1037.938
410.821, 1199.496
412.165, 1397.252
413.508, 1768.688
414.851, 1899.426
416.193, 2168.390
417.536, 2566.839
418.878, 2959.611
420.220, 3313.088
421.562, 2980.523
422.904, 3245.598
424.245, 3173.410
425.586, 3085.673
426.927, 3456.153
428.268, 3518.625
429.609, 3722.822
430.949, 3677.201
432.289, 4179.559
433.629, 4140.707
434.969, 4795.946
436.309, 4948.422
437.648, 5844.275
438.987, 6621.137
440.326, 7343.604
441.665, 8360.879
443.003, 9651.854
444.342, 11079.316
445.680, 12918.234
447.018, 15939.938
448.355, 19108.445
449.693, 24120.750
451.030, 29806.846
452.367, 37229.730
453.704, 40861.422
455.041, 45049.891
456.377, 46938.164
457.713, 48408.215
459.049, 49270.078
460.385, 49411.734
461.721, 48130.336
463.056, 44374.691
464.391, 40473.297
465.726, 36338.914
467.061, 30901.248
468.395, 25871.777
469.730, 22040.289
471.064, 17895.984
472.398, 15259.962
473.731, 12314.479
475.065, 10375.049
476.398, 8611.340
477.731, 7481.064
479.064, 6162.000
480.397, 5254.186
481.729, 4662.740
483.062, 3945.920
484.394, 3476.494
485.725, 2956.449
487.057, 2702.465
488.389, 2405.691
489.720, 2031.926
491.051, 1835.264
492.382, 1759.430
493.712, 1616.398
495.043, 1381.330
496.373, 1216.109
497.703, 1212.732
499.032, 1030.312
500.362, 972.535
501.691, 870.697
503.020, 758.703
504.349, 770.549
505.678, 627.346
507.007, 587.709
508.335, 613.350
509.663, 557.955
510.991, 736.332
512.319, 580.818
513.646, 543.758
514.973, 585.443
516.300, 863.889
517.627, 933.334
518.954, 714.518
520.280, 1235.555
521.607, 1298.465
522.933, 1701.264
524.259, 1944.951
525.584, 2575.533
526.910, 3529.221
528.235, 4539.271
529.560, 6159.688
530.885, 7748.633
532.209, 10035.723
533.534, 13093.125
534.858, 15715.633
536.182, 17328.445
537.506, 17626.596
538.829, 16355.824
540.152, 14130.068
541.476, 11959.746
542.799, 9512.279
544.121, 7926.133
545.444, 6229.258
546.766, 4637.068
548.088, 4188.854
549.410, 3165.354
550.732, 2779.357
552.053, 2154.000
553.375, 1750.305
554.696, 1507.814
556.017, 1145.105
557.337, 1117.873
558.658, 867.781
559.978, 666.299
561.298, 656.242
562.618, 478.723
563.938, 338.523
565.257, 394.195
566.576, 183.578
567.895, 420.938
569.214, 443.760
570.533, 139.676
571.851, 161.336
573.170, 255.467
574.488, 133.055
575.805, 191.010
577.123, 54.873
578.440, 72.641
579.758, 276.312
581.075, 81.908
582.391, 345.410
583.708, 197.830
585.024, 107.162
586.341, 70.416
587.657, 97.738
588.972, 247.652
590.288, 204.645
591.603, 203.555
592.918, 131.381
594.233, 261.121
595.548, 356.783
596.863, 174.373
598.177, 234.883
599.491, 217.322
600.805, 349.688
602.119, 416.980
603.432, 492.641
604.746, 798.375
606.059, 800.479
607.372, 954.523
608.685, 1368.506
609.997, 1180.434
611.309, 1415.305
612.621, 1206.121
613.933, 1189.879
615.245, 858.582
616.557, 683.230
617.868, 438.826
619.179, 372.365
620.490, 123.854
621.801, 236.277
623.111, 133.668
624.421, 290.057
625.731, 79.525
627.041, 194.178
628.351, 147.975
629.660, 124.924
630.970, 214.328
632.279, 40.855
633.588, 29.332
634.896, 112.301
636.205, 33.025
637.513, 240.520
638.821, 83.107
640.129, 78.076
641.437, 64.859
642.744, 115.160
644.051, 41.828
645.358, 112.791
646.665, 215.729
647.972, 76.633
649.278, 76.492
650.584, 82.309
651.890, 351.084
653.196, 333.822
654.502, 308.529
655.807, 440.822
657.113, 270.709
658.418, 507.967
659.722, 434.791
661.027, 375.145
662.331, 164.543
663.636, 568.342
664.940, 127.984
666.244, 321.748
667.547, 82.312
668.851, 221.629
670.154, 195.434
671.457, 1.381
672.760, 279.525
674.062, 211.150
675.365, 358.352
676.667, 750.840
677.969, 1027.873
679.271, 685.756
680.572, 609.650
681.874, 504.883
683.175, 180.066
684.476, 195.367
685.777, 86.734
687.077, 6.141
688.378, 263.553
689.678, 32.523
690.978, 110.672
692.278, 297.072
693.577, 198.314
694.877, 214.766
696.176, 215.195
697.475, 150.975
698.774, 168.264
700.072, 48.805
701.371, 136.541
702.669, 2.982
703.967, 303.488
705.265, 341.824
706.562, 281.305
707.860, 62.053
709.157, 540.537
710.454, 196.312
711.751, 410.170
713.047, 222.980
714.344, 557.824
715.640, 49.693
716.936, 361.229
718.232, 569.820
719.527, 317.842
720.823, 503.250
722.118, 439.326
723.413, 463.889
724.708, 379.693
726.002, 768.986
727.297, 431.979
728.591, 624.561
729.885, 778.988
731.179, 564.973
732.472, 724.688
733.766, 530.342
735.059, 450.094
736.352, 447.035
737.645, 510.875
738.937, 528.842
740.230, 521.902
741.522, 565.039
742.814, 524.875
744.106, 593.006
745.397, 645.686
746.689, 642.213
747.980, 974.762
749.271, 1016.033
750.562, 1350.879
751.853, 1190.150
753.143, 1432.686
754.433, 1509.504
755.723, 1489.275
757.013, 2031.631
758.303, 1944.514
759.592, 2539.525
760.881, 2802.551
762.170, 3364.574
763.459, 3839.600
764.748, 4260.928
766.036, 5271.955
767.325, 5451.723
768.613, 6445.754
769.901, 7180.969
771.188, 7388.998
772.476, 7892.066
773.763, 7505.102
775.050, 7544.975
776.337, 7099.838
777.624, 6278.203
778.910, 5155.172
780.196, 4367.898
781.482, 3230.703
782.768, 2341.012
784.054, 1770.742
785.339, 1425.604
786.625, 930.076
787.910, 1007.844
789.195, 645.961
790.479, 470.477
791.764, 471.547
793.048, 290.350
794.332, 513.371
795.616, 487.232
796.900, 536.193
798.183, 330.641
799.467, 741.523
800.750, 713.713
802.033, 1025.342
803.316, 1451.395
804.598, 1186.455
805.880, 1814.547
807.163, 2226.514
808.445, 1928.475
809.726, 1603.430
811.008, 1185.379
812.289, 868.307
813.570, 664.248
814.851, 497.188
816.132, 373.896
817.413, 244.742
818.693, 178.564
819.973, 92.023
821.253, 84.971
822.533, 98.229
823.813, 56.084
825.092, 80.154
826.371, 35.676
827.650, 81.404
828.929, 75.348
830.208, 28.217
831.486, 20.916
832.764, 96.070
834.042, 96.277
835.320, 121.027
836.598, 111.139
837.875, 47.422
839.152, 29.049
840.429, 227.072
841.706, 6.596
842.983, 79.775
844.259, 69.990
845.536, 26.906
846.812, 17.824
848.088, 29.375
849.363, 29.662
850.639, 134.186
851.914, 86.275
853.189, 31.967
854.464, 71.834
855.739, 51.189
857.013, 8.506
858.288, 4.975
859.562, 30.385
860.836, 255.219
862.110, 7.770
863.383, 186.842
864.656, 37.453
865.930, 82.080
867.203, 138.707
868.475, 127.373
869.748, 104.393
871.020, 172.119
872.292, 31.787
873.564, 33.539
874.836, 3.146
876.108, 122.168
877.379, 70.010
878.650, 10.076
879.922, 25.689
881.192, 24.691
882.463, 100.918
883.733, 40.533
885.004, 0.846
886.274, 89.777
887.544, 132.404
888.813, 38.961
890.083, 123.658
891.352, 147.281
892.621, 161.908
893.890, 45.459
895.159, 29.152
896.427, 28.771
897.695, 305.395
898.964, 123.021
900.232, 200.652
901.499, 279.285
902.767, 324.924
904.034, 332.787
905.301, 389.209
906.568, 272.855
907.835, 311.504
909.102, 213.154
910.368, 7.805
911.634, 271.451
912.900, 235.096
914.166, 473.736
915.432, 156.373
916.697, 16.992
917.962, 223.627
919.227, 4.758
920.492, 227.846
921.757, 14.445
923.021, 210.041
924.285, 51.633
925.550, 100.223
926.813, 168.812
928.077, 85.400
929.341, 92.990
930.604, 204.586
931.867, 44.215
933.130, 70.844
934.393, 247.475
935.655, 116.107
936.918, 203.781
938.180, 230.475
939.442, 258.168
940.703, 123.863
941.965, 283.562
943.226, 252.285
944.488, 137.016
945.749, 484.789
947.009, 470.566
948.270, 355.357
949.530, 397.148
950.791, 481.955
952.051, 585.764
953.311, 462.604
954.570, 599.447
955.830, 602.297
957.089, 650.154
958.348, 741.018
959.607, 774.883
960.866, 592.746
962.124, 558.648
963.383, 597.545
964.641, 530.438
965.899, 619.373
967.156, 620.312
968.414, 546.250
969.671, 643.184
970.928, 423.115
972.185, 819.049
973.442, 616.971
974.699, 977.898
975.955, 859.695
977.211, 665.961
978.468, 961.666
979.723, 997.822
980.979, 1077.688
982.234, 1440.357
983.490, 893.502
984.745, 1257.768
986.000, 1333.000
987.254, 1165.867
988.509, 1347.037
989.763, 1064.789
991.017, 1192.848
992.271, 1187.117
993.525, 980.529
994.779, 1108.186
996.032, 969.412
997.285, 1098.146
998.538, 954.496
999.791, 1299.025
1001.044, 1093.852
1002.296, 1445.623
1003.548, 1372.174
1004.800, 1257.496
1006.052, 1306.322
1007.304, 1162.061
1008.555, 1158.637
1009.807, 1199.145
1011.058, 1244.918
1012.309, 1520.953
1013.559, 1285.492
1014.810, 1279.938
1016.060, 1274.893
1017.310, 1563.926
1018.560, 1459.557
1019.810, 1336.660
1021.060, 1713.486
1022.309, 1547.477
1023.558, 1979.162
1024.807, 1624.293
1026.056, 1799.602
1027.305, 1711.455
1028.553, 1976.584
1029.801, 1954.066
1031.049, 1781.043
1032.297, 1779.467
1033.545, 2274.434
1034.793, 2109.299
1036.040, 2091.695
1037.287, 2434.594
1038.534, 2271.482
1039.781, 2679.043
1041.027, 2333.914
1042.274, 2499.770
1043.520, 2753.621
1044.766, 2498.805
1046.012, 2589.531
1047.257, 2562.293
1048.503, 2907.145
1049.748, 2713.980
1050.993, 2961.807
1052.238, 3091.619
1053.483, 3079.418
1054.727, 3220.203
1055.971, 3727.971
1057.216, 3442.723
1058.459, 3563.461
1059.703, 4064.180
1060.947, 3928.664
1062.190, 4153.348
1063.433, 4214.012
1064.676, 4386.660
1065.919, 4432.291
1067.162, 5059.602
1068.404, 4917.191
1069.646, 5109.018
1070.888, 5658.568
1072.130, 5571.924
1073.372, 5654.432
1074.613, 5714.891
1075.855, 5520.764
1077.096, 5200.740
1078.337, 5648.160
1079.578, 5278.662
1080.818, 5255.010
1082.059, 5311.107
1083.299, 5539.850
1084.539, 5270.045
1085.779, 5621.225
1087.018, 5852.256
1088.258, 6441.486
1089.497, 6971.336
1090.736, 7564.498
1091.975, 8527.262
1093.213, 9728.551
1094.452, 10882.086
1095.690, 11499.637
1096.928, 12337.584
1098.166, 12741.062
1099.404, 13393.191
1100.642, 12302.293
1101.879, 12023.426
1103.116, 10652.637
1104.353, 9933.590
1105.590, 9166.699
1106.827, 9161.963
1108.063, 9788.113
1109.299, 11148.746
1110.536, 12642.934
1111.771, 13898.836
1113.007, 14643.953
1114.243, 13830.184
1115.478, 10870.410
1116.713, 7392.641
1117.948, 4629.625
1119.183, 2761.699
1120.418, 2033.490
1121.652, 1756.863
1122.886, 1686.777
1124.120, 1472.541
1125.354, 1111.684
1126.588, 804.150
1127.821, 587.186
1129.055, 851.570
1130.288, 834.627
1131.521, 728.674
1132.753, 455.971
1133.986, 407.369
1135.218, 923.312
1136.450, 233.344
1137.682, 520.355
1138.914, 209.287
1140.146, 215.141
1141.377, 285.627
1142.609, 13.729
1143.840, 223.430
1145.071, 395.367
1146.301, 9.531
1147.532, 186.803
1148.762, 7.494
1149.992, 14.096
1151.222, 83.600
1152.452, 65.176
1153.682, 15.619
1154.911, 218.217
1156.140, 172.131
1157.369, 216.156
1158.598, 62.771
1159.827, 95.441
1161.055, 10.287
1162.284, 3.258
1163.512, 102.562
1164.740, 95.895
1165.967, 93.557
1167.195, 323.811
1168.422, 151.014
1169.650, 463.211
1170.877, 164.221
1172.103, 51.744
1173.330, 197.311
1174.557, 232.322
1175.783, 458.029
1177.009, 41.795
1178.235, 328.891
1179.461, 348.594
1180.686, 355.377
1181.912, 469.787
1183.137, 394.443
1184.362, 462.580
1185.587, 516.391
1186.811, 547.777
1188.036, 680.260
1189.260, 685.186
1190.484, 780.990
1191.708, 840.561
1192.932, 823.699
1194.155, 926.949
1195.378, 1128.525
1196.602, 1299.408
1197.825, 1141.027
1199.047, 1537.045
1200.270, 1245.480
1201.492, 1656.789
1202.715, 1360.332
1203.937, 1721.809
1205.159, 1350.018
1206.380, 1471.359
1207.602, 997.637
1208.823, 969.969
1210.044, 1119.062
1211.265, 931.787
1212.486, 811.711
1213.707, 640.525
1214.927, 812.268
1216.147, 528.936
1217.367, 657.084
1218.587, 407.568
1219.807, 530.941
1221.027, 479.555
1222.246, 110.725
1223.465, 285.801
1224.684, 532.766
1225.903, 152.570
1227.121, 59.684
1228.340, 220.727
1229.558, 316.996
1230.776, 203.141
1231.994, 32.160
1233.212, 229.246
1234.429, 414.027
1235.646, 260.703
1236.864, 476.246
1238.081, 98.684
1239.297, 372.980
1240.514, 306.152
1241.730, 295.199
1242.947, 192.113
1244.163, 296.824
1245.378, 371.414
1246.594, 369.887
1247.810, 61.609
1249.025, 126.809
1250.240, 68.852
1251.455, 59.930
1252.670, 110.703
1253.885, 54.820
1255.099, 181.188
1256.313, 97.340
1257.527, 335.508
1258.741, 274.012
1259.955, 115.801
1261.168, 44.172
1262.382, 233.094
1263.595, 290.969
1264.808, 109.793
1266.021, 136.574
1267.233, 195.320
1268.446, 303.023
1269.658, 337.348
1270.870, 246.266
1272.082, 410.504
1273.294, 272.141
1274.505, 190.637
1275.716, 266.547
1276.928, 119.129
1278.139, 464.082
1279.349, 186.773
1280.560, 285.164
1281.770, 205.504
1282.981, 81.102
1284.191, 199.637
1285.401, 213.391
1286.610, 9.805
1287.820, 146.707
1289.029, 79.996
1290.239, 155.094
1291.448, 126.512
1292.656, 111.730
1293.865, 192.098
1295.073, 207.430
1296.282, 223.527
1297.490, 205.902
1298.698, 233.016
1299.906, 190.352
1301.113, 30.848
1302.320, 128.629
1303.528, 86.336
1304.735, 96.988
1305.942, 209.582
1307.148, 159.125
1308.355, 184.617
1309.561, 459.059
1310.767, 3.469
1311.973, 380.809
1313.179, 182.133
1314.384, 405.312
1315.590, 203.734
1316.795, 443.406
1318.000, 30.156
1319.205, 382.801
1320.410, 215.449
1321.614, 38.371
1322.819, 346.957
1324.023, 192.078
1325.227, 606.527
1326.431, 221.582
1327.634, 73.453
1328.838, 255.473
1330.041, 318.148
1331.244, 483.910
1332.447, 34.172
1333.650, 177.465
1334.852, 65.113
1336.055, 79.074
1337.257, 327.715
1338.459, 142.863
1339.661, 196.414
1340.862, 406.656
1342.064, 154.652
1343.265, 97.727
1344.466, 165.992
1345.667, 170.160
1346.868, 412.363
1348.068, 332.656
1349.269, 143.613
1350.469, 589.051
1351.669, 363.074
1352.869, 289.074
1354.069, 572.051
1355.268, 148.191
1356.468, 447.062
1357.667, 494.520
1358.866, 368.797
1360.065, 432.199
1361.263, 155.125
1362.462, 382.777
1363.660, 688.828
1364.858, 204.879
1366.056, 517.633
1367.254, 456.840
1368.451, 306.879
1369.649, 19.660
1370.846, 368.883
1372.043, 206.078
1373.240, 282.930
1374.436, 351.012
1375.633, 240.426
1376.829, 147.289
1378.025, 188.371
1379.221, 198.039
1380.417, 336.648
1381.613, 293.949
1382.808, 474.379
1384.003, 415.887
1385.199, 374.195
1386.393, 398.117
1387.588, 380.969
1388.783, 226.742
1389.977, 304.676
1391.171, 70.945
1392.365, 10.473
1393.559, 292.629
1394.753, 53.375
1395.946, 243.121
1397.140, 5.980
1398.333, 88.957
1399.526, 0.316
1400.719, 82.230
1401.911, 160.426
1403.104, 0.000
##END=



