##NAMES=Marialite
##RRUFFID=R050123
##IDEAL CHEMISTRY=Na_4_Al_3_Si_9_O_24_Cl
##LOCALITY=Pakistan
##OWNER=RRUFF
##SOURCE=Syed Shah
##DESCRIPTION=Purple fragment
##STATUS=The identification of this mineral has been confirmed by X-ray diffraction and chemical analysis
##URL=rruff.info/R050123
##MEASURED CHEMISTRY=(Na_0.88_Ca_0.07_K_0.05_)_4_Al_3.00_Si_9.00_O_24_Cl_0.97
##PIN_ID=L00549
##ORIENTATION=Laser parallel to -a* (-1 0 0). Fiducial mark perpendicular to laser is parallel to -c [0 0 -1]
49.365, 0.000
50.765, 2.910
52.166, 76.768
53.566, 145.188
54.966, 319.528
56.365, 460.192
57.765, 638.076
59.164, 826.256
60.563, 967.693
61.962, 1062.833
63.360, 864.965
64.758, 855.496
66.157, 744.853
67.554, 766.178
68.952, 929.418
70.349, 1135.670
71.747, 1144.111
73.144, 1047.740
74.540, 1038.081
75.937, 921.080
77.333, 723.684
78.729, 453.843
80.125, 326.516
81.521, 307.668
82.916, 312.295
84.311, 168.428
85.706, 59.957
87.101, 102.899
88.496, 104.433
89.890, 86.586
91.284, 25.615
92.678, 136.154
94.071, 295.019
95.465, 474.193
96.858, 662.657
98.251, 926.666
99.644, 1288.370
101.036, 1572.573
102.428, 1913.962
103.820, 2404.523
105.212, 2963.251
106.604, 3414.143
107.995, 3971.191
109.387, 4340.396
110.777, 4898.751
112.168, 5492.256
113.559, 5946.905
114.949, 6134.904
116.339, 6403.536
117.729, 6482.662
119.119, 6292.017
120.508, 6341.446
121.897, 6160.945
123.286, 6050.518
124.675, 5800.165
126.063, 5436.892
127.452, 5249.697
128.840, 5025.580
130.228, 4764.545
131.615, 4599.592
133.003, 4325.744
134.390, 4070.061
135.777, 3857.527
137.164, 3725.127
138.550, 3538.841
139.937, 3364.646
141.323, 3110.529
142.709, 3111.461
144.094, 3081.409
145.480, 2759.374
146.865, 2690.358
148.250, 2572.355
149.635, 2632.358
151.019, 2641.287
152.403, 2679.926
153.788, 2750.351
155.171, 2862.781
156.555, 3038.272
157.939, 3100.828
159.322, 3120.449
160.705, 3167.137
162.088, 3097.890
163.470, 2984.710
164.853, 2773.599
166.235, 2821.554
167.617, 2647.578
168.998, 2553.671
170.380, 2339.832
171.761, 2317.063
173.142, 2160.363
174.523, 2139.733
175.904, 2174.174
177.284, 2023.687
178.664, 1980.085
180.044, 1944.055
181.424, 1945.327
182.803, 1954.655
184.183, 1984.318
185.562, 2064.208
186.940, 1958.458
188.319, 1981.327
189.698, 1891.942
191.076, 1751.634
192.454, 1772.403
193.831, 1655.249
195.209, 1648.170
196.586, 1475.167
197.963, 1487.237
199.340, 1397.379
200.717, 1243.591
202.093, 1187.870
203.470, 1178.216
204.846, 1176.629
206.221, 1129.299
207.597, 1027.654
208.972, 1091.265
210.347, 1052.939
211.722, 1096.678
213.097, 1055.479
214.472, 1040.345
215.846, 1024.531
217.220, 1147.207
218.594, 1156.034
219.967, 1109.715
221.341, 1196.198
222.714, 1188.471
224.087, 1197.547
225.460, 1269.337
226.832, 1267.804
228.204, 1283.034
229.577, 1314.092
230.948, 1273.967
232.320, 1286.684
233.692, 1260.873
235.063, 1290.166
236.434, 1366.013
237.805, 1449.886
239.175, 1549.296
240.545, 1597.907
241.916, 1817.049
243.286, 2017.275
244.655, 2212.223
246.025, 2544.721
247.394, 3089.249
248.763, 3684.999
250.132, 4517.543
251.501, 5269.943
252.869, 6450.042
254.237, 7610.408
255.605, 8712.244
256.973, 10001.120
258.340, 10622.478
259.708, 11205.132
261.075, 11538.307
262.442, 10451.542
263.808, 9384.836
265.175, 8048.186
266.541, 6921.591
267.907, 5885.049
269.273, 4888.560
270.639, 4182.533
272.004, 3429.741
273.369, 3053.408
274.734, 2655.126
276.099, 2343.895
277.463, 2096.959
278.828, 1940.578
280.192, 1761.501
281.556, 1679.482
282.919, 1672.520
284.283, 1593.607
285.646, 1593.746
287.009, 1410.926
288.372, 1353.154
289.734, 1188.422
291.097, 1033.758
292.459, 868.145
293.821, 735.597
295.183, 575.093
296.544, 478.645
297.905, 368.256
299.266, 325.931
300.627, 142.664
301.988, 112.447
303.348, 18.284
304.709, 52.826
306.069, 118.892
307.428, 102.913
308.788, 62.891
310.147, 211.814
311.507, 120.718
312.865, 155.592
314.224, 148.436
315.583, 121.255
316.941, 112.049
318.299, 147.817
319.657, 64.557
321.015, 78.259
322.372, 18.927
323.729, 15.553
325.086, 85.860
326.443, 45.317
327.800, 172.814
329.156, 166.349
330.512, 208.921
331.868, 258.528
333.224, 329.176
334.579, 478.857
335.935, 420.585
337.290, 514.346
338.645, 612.144
339.999, 611.978
341.354, 720.850
342.708, 855.730
344.062, 1138.618
345.416, 1358.476
346.769, 1649.290
348.123, 1834.145
349.476, 2311.975
350.829, 2838.822
352.182, 3245.701
353.534, 4216.608
354.887, 4942.557
356.239, 5508.534
357.591, 6064.543
358.942, 6040.583
360.294, 6266.654
361.645, 5862.754
362.996, 5628.882
364.347, 5365.041
365.698, 4961.226
367.048, 4747.441
368.398, 4185.684
369.748, 4026.953
371.098, 3640.249
372.448, 3178.571
373.797, 2994.919
375.146, 2513.293
376.495, 2399.693
377.844, 2101.118
379.192, 2087.556
380.540, 1886.009
381.889, 1628.476
383.236, 1654.956
384.584, 1441.452
385.932, 1422.965
387.279, 1358.494
388.626, 1235.041
389.973, 1128.605
391.319, 1053.957
392.666, 995.798
394.012, 907.426
395.358, 852.076
396.704, 817.751
398.049, 728.452
399.394, 752.184
400.740, 683.945
402.084, 693.735
403.429, 721.554
404.774, 694.401
406.118, 737.275
407.462, 783.179
408.806, 810.112
410.150, 922.077
411.493, 994.262
412.836, 1070.416
414.179, 1237.240
415.522, 1320.460
416.865, 1372.737
418.207, 1511.734
419.549, 1726.231
420.891, 1896.638
422.233, 2113.060
423.575, 2176.856
424.916, 2341.335
426.257, 2364.822
427.598, 2255.330
428.939, 2230.858
430.279, 1948.407
431.619, 1836.976
432.959, 1686.564
434.299, 1591.215
435.639, 1693.843
436.978, 1612.490
438.318, 1794.182
439.657, 2000.057
440.996, 2265.725
442.334, 2615.382
443.673, 3012.244
445.011, 3713.949
446.349, 4434.255
447.687, 5532.181
449.024, 6801.370
450.361, 8739.375
451.699, 10973.853
453.036, 13324.104
454.372, 16018.163
455.709, 17707.158
457.045, 18788.928
458.381, 18321.932
459.717, 16425.807
461.053, 14728.605
462.388, 12099.702
463.724, 10111.918
465.059, 8343.901
466.394, 6963.897
467.728, 6054.589
469.063, 4994.502
470.397, 4527.775
471.731, 3942.304
473.065, 3462.546
474.398, 3221.748
475.732, 2754.347
477.065, 2496.086
478.398, 2104.915
479.731, 1769.196
481.063, 1522.340
482.396, 1195.170
483.728, 1072.814
485.060, 964.418
486.391, 813.526
487.723, 718.509
489.054, 681.377
490.385, 602.927
491.716, 586.199
493.047, 551.808
494.377, 475.199
495.708, 386.802
497.038, 440.152
498.368, 347.077
499.697, 412.049
501.027, 342.553
502.356, 325.734
503.685, 300.265
505.014, 322.735
506.342, 320.061
507.671, 293.383
508.999, 273.557
510.327, 153.879
511.655, 180.191
512.982, 145.412
514.310, 68.770
515.637, 186.107
516.964, 243.315
518.291, 303.753
519.617, 528.035
520.944, 716.202
522.270, 856.377
523.596, 1072.706
524.921, 1392.788
526.247, 2024.962
527.572, 2643.068
528.897, 3681.140
530.222, 5217.208
531.547, 7165.272
532.871, 10263.335
534.196, 13511.387
535.520, 17079.439
536.844, 18107.482
538.167, 17675.523
539.491, 15273.563
540.814, 11571.596
542.137, 8939.619
543.460, 6567.638
544.783, 4915.650
546.105, 3689.656
547.427, 2793.656
548.749, 2271.649
550.071, 1678.635
551.393, 1321.615
552.714, 1121.586
554.035, 895.551
555.356, 736.507
556.677, 531.456
557.998, 483.396
559.318, 298.329
560.638, 339.251
561.958, 318.166
563.278, 199.070
564.597, 168.965
565.917, 187.858
567.236, 109.742
568.555, 101.615
569.874, 4.483
571.192, 21.336
572.511, 55.822
573.829, 44.973
575.147, 51.760
576.464, 84.466
577.782, 30.244
579.099, 60.941
580.416, 94.624
581.733, 12.688
583.050, 65.972
584.366, 80.619
585.683, 102.253
586.999, 109.887
588.315, 144.514
589.630, 94.135
590.946, 182.752
592.261, 73.363
593.576, 99.964
594.891, 149.556
596.206, 83.131
597.520, 45.690
598.834, 12.769
600.148, 27.526
601.462, 29.804
602.776, 10.389
604.089, 19.008
605.402, 69.337
606.715, 0.665
608.028, 60.959
609.341, 81.766
610.653, 13.567
611.965, 73.399
613.277, 8.697
614.589, 35.229
615.901, 54.203
617.212, 67.237
618.523, 49.338
619.834, 21.503
621.145, 38.715
622.456, 34.320
623.766, 20.312
625.076, 66.675
626.386, 44.097
627.696, 75.566
629.006, 31.085
630.315, 10.626
631.624, 32.199
632.933, 1.351
634.242, 17.802
635.551, 25.892
636.859, 10.182
638.167, 10.719
639.475, 8.749
640.783, 5.812
642.090, 34.636
643.398, 4.834
644.705, 33.084
646.012, 38.111
647.318, 53.716
648.625, 101.257
649.931, 18.319
651.237, 76.345
652.543, 0.345
653.849, 89.299
655.155, 42.229
656.460, 41.127
657.765, 24.995
659.070, 35.278
660.375, 64.625
661.679, 70.396
662.984, 103.142
664.288, 104.861
665.592, 99.556
666.895, 148.224
668.199, 109.869
669.502, 132.488
670.805, 35.083
672.108, 105.642
673.411, 137.176
674.713, 82.685
676.016, 120.167
677.318, 147.624
678.620, 146.055
679.921, 109.462
681.223, 194.843
682.524, 146.199
683.825, 162.531
685.126, 214.839
686.427, 215.122
687.727, 200.380
689.028, 286.614
690.328, 228.824
691.628, 310.010
692.927, 328.171
694.227, 320.308
695.526, 410.419
696.825, 385.507
698.124, 432.570
699.423, 415.608
700.721, 444.623
702.020, 553.611
703.318, 597.575
704.616, 608.515
705.913, 654.430
707.211, 696.234
708.508, 669.186
709.805, 732.112
711.102, 794.928
712.399, 686.719
713.695, 658.485
714.992, 868.227
716.288, 735.990
717.584, 788.682
718.879, 773.349
720.175, 781.992
721.470, 760.375
722.765, 733.969
724.060, 786.537
725.355, 849.259
726.649, 828.585
727.944, 851.954
729.238, 851.695
730.532, 1009.952
731.825, 985.349
733.119, 1081.073
734.412, 1121.413
735.705, 1082.749
736.998, 1224.519
738.291, 1312.464
739.584, 1268.819
740.876, 1371.561
742.168, 1478.942
743.460, 1591.005
744.752, 1672.112
746.043, 1646.629
747.334, 1813.710
748.626, 1809.320
749.916, 1895.521
751.207, 2114.648
752.498, 2215.728
753.788, 2522.541
755.078, 2622.554
756.368, 2874.571
757.658, 3021.433
758.947, 3264.938
760.237, 3586.527
761.526, 3740.247
762.815, 4012.695
764.104, 4326.318
765.392, 4603.488
766.680, 4917.359
767.969, 4934.960
769.257, 5409.225
770.544, 5810.723
771.832, 5779.634
773.119, 6498.479
774.406, 6467.240
775.693, 7157.736
776.980, 7617.052
778.267, 8046.594
779.553, 8748.184
780.839, 9075.594
782.125, 9694.373
783.411, 10306.610
784.697, 10316.114
785.982, 10227.930
787.267, 9929.929
788.552, 9041.152
789.837, 8283.994
791.122, 6856.543
792.406, 5957.071
793.690, 4868.809
794.974, 3750.396
796.258, 3361.775
797.542, 2547.246
798.825, 2173.477
800.108, 1912.818
801.391, 1540.262
802.674, 1454.012
803.957, 1214.024
805.239, 1082.689
806.522, 1017.556
807.804, 848.200
809.085, 778.081
810.367, 712.374
811.649, 602.604
812.930, 591.292
814.211, 357.285
815.492, 520.915
816.772, 558.591
818.053, 477.398
819.333, 324.195
820.613, 215.951
821.893, 271.894
823.173, 313.658
824.452, 337.500
825.732, 340.076
827.011, 338.145
828.290, 291.696
829.568, 290.264
830.847, 216.972
832.125, 165.779
833.403, 174.565
834.681, 259.182
835.959, 236.032
837.236, 244.772
838.514, 218.567
839.791, 246.381
841.068, 151.183
842.345, 107.973
843.621, 132.752
844.898, 165.520
846.174, 161.277
847.450, 141.022
848.726, 177.758
850.001, 84.483
851.277, 118.198
852.552, 143.902
853.827, 94.596
855.102, 113.280
856.376, 115.954
857.651, 113.619
858.925, 160.274
860.199, 118.920
861.473, 147.557
862.746, 39.185
864.020, 142.803
865.293, 78.412
866.566, 79.014
867.839, 148.606
869.112, 43.191
870.384, 117.768
871.656, 75.337
872.928, 57.897
874.200, 19.549
875.472, 116.980
876.744, 67.503
878.015, 10.981
879.286, 102.516
880.557, 51.008
881.828, 64.495
883.098, 7.008
884.369, 130.476
885.639, 41.953
886.909, 16.450
888.178, 60.940
889.448, 67.574
890.717, 85.868
891.987, 13.312
893.256, 3.250
894.524, 48.823
895.793, 28.428
897.061, 30.055
898.330, 37.704
899.598, 31.378
900.865, 24.920
902.133, 17.839
903.401, 8.482
904.668, 6.750
905.935, 45.013
907.202, 61.273
908.468, 24.542
909.735, 6.821
911.001, 9.888
912.267, 23.596
913.533, 49.694
914.799, 44.982
916.064, 68.276
917.330, 7.569
918.595, 48.110
919.860, 1.197
921.124, 34.470
922.389, 35.147
923.653, 8.781
924.918, 26.336
926.182, 31.874
927.445, 0.250
928.709, 22.642
929.972, 86.051
931.236, 29.521
932.499, 19.910
933.761, 72.369
935.024, 102.151
936.286, 2.310
937.549, 60.209
938.811, 25.740
940.073, 48.739
941.334, 20.771
942.596, 6.279
943.857, 18.216
945.118, 1.727
946.379, 33.689
947.640, 23.777
948.900, 73.319
950.161, 36.868
951.421, 46.429
952.681, 103.998
953.940, 50.574
955.200, 91.156
956.459, 79.744
957.719, 22.342
958.978, 198.943
960.236, 77.581
961.495, 98.222
962.753, 122.873
964.012, 28.532
965.270, 121.201
966.527, 97.879
967.785, 118.563
969.043, 99.254
970.300, 132.952
971.557, 169.654
972.814, 92.363
974.071, 123.079
975.327, 158.798
976.583, 210.546
977.840, 252.999
979.095, 280.072
980.351, 355.858
981.607, 419.653
982.862, 474.453
984.117, 720.265
985.372, 812.082
986.627, 838.905
987.882, 1081.734
989.136, 1170.569
990.390, 1212.434
991.644, 1365.304
992.898, 1431.180
994.152, 1406.804
995.405, 1382.387
996.659, 1304.912
997.912, 1141.835
999.165, 1042.386
1000.417, 827.700
1001.670, 827.643
1002.922, 681.593
1004.174, 597.552
1005.426, 621.519
1006.678, 557.994
1007.930, 666.498
1009.181, 588.505
1010.432, 638.529
1011.683, 724.562
1012.934, 631.602
1014.185, 709.568
1015.435, 781.625
1016.685, 599.692
1017.935, 755.770
1019.185, 635.854
1020.435, 659.906
1021.684, 708.013
1022.934, 734.134
1024.183, 737.277
1025.432, 684.661
1026.680, 677.819
1027.929, 813.989
1029.177, 637.985
1030.425, 812.169
1031.673, 793.371
1032.921, 864.580
1034.169, 955.953
1035.416, 867.192
1036.663, 982.438
1037.911, 1078.609
1039.157, 902.885
1040.404, 1197.721
1041.650, 1094.020
1042.897, 1252.229
1044.143, 1269.053
1045.389, 1192.223
1046.634, 1499.693
1047.880, 1313.129
1049.125, 1302.141
1050.371, 1669.572
1051.615, 1539.430
1052.860, 1576.720
1054.105, 1672.070
1055.349, 1679.427
1056.593, 1882.865
1057.837, 1726.343
1059.081, 1809.828
1060.325, 1873.263
1061.568, 1786.225
1062.812, 2038.501
1064.055, 1982.027
1065.298, 1995.578
1066.540, 2229.134
1067.783, 2242.686
1069.025, 2413.763
1070.267, 2597.296
1071.509, 2659.228
1072.751, 2951.154
1073.993, 2924.423
1075.234, 3136.909
1076.475, 3600.554
1077.716, 3464.168
1078.957, 3787.835
1080.198, 3941.509
1081.438, 4093.988
1082.679, 4507.695
1083.919, 4591.406
1085.159, 4859.645
1086.398, 5303.365
1087.638, 5394.350
1088.877, 5737.163
1090.116, 5880.904
1091.355, 5983.988
1092.594, 6687.861
1093.833, 6241.615
1095.071, 6645.457
1096.309, 6699.223
1097.547, 6453.293
1098.785, 6637.292
1100.023, 6311.067
1101.260, 6385.123
1102.498, 6349.308
1103.735, 6043.440
1104.972, 5887.820
1106.208, 5981.617
1107.445, 5435.479
1108.681, 5714.104
1109.918, 5267.912
1111.154, 5112.189
1112.389, 5216.416
1113.625, 4680.230
1114.860, 4744.393
1116.096, 4488.304
1117.331, 4122.459
1118.566, 4146.713
1119.800, 3750.715
1121.035, 3784.979
1122.269, 3879.319
1123.503, 3563.151
1124.737, 3352.320
1125.971, 3016.726
1127.205, 2930.920
1128.438, 2748.440
1129.671, 2582.658
1130.904, 2426.688
1132.137, 2351.898
1133.370, 2105.941
1134.602, 2079.887
1135.834, 1854.115
1137.066, 1658.066
1138.298, 1677.743
1139.530, 1541.718
1140.762, 1445.974
1141.993, 1250.146
1143.224, 1246.177
1144.455, 1155.442
1145.686, 1152.605
1146.917, 1029.535
1148.147, 960.723
1149.377, 784.027
1150.607, 793.469
1151.837, 864.940
1153.067, 678.300
1154.296, 570.558
1155.526, 541.312
1156.755, 427.546
1157.984, 589.631
1159.213, 296.151
1160.441, 481.537
1161.670, 405.365
1162.898, 298.261
1164.126, 344.299
1165.354, 300.942
1166.581, 216.967
1167.809, 252.977
1169.036, 198.109
1170.263, 238.688
1171.490, 237.286
1172.717, 131.244
1173.943, 305.555
1175.170, 141.504
1176.396, 183.192
1177.622, 390.604
1178.848, 126.899
1180.073, 262.904
1181.299, 299.264
1182.524, 199.382
1183.749, 357.432
1184.974, 264.277
1186.199, 284.088
1187.423, 372.218
1188.648, 299.691
1189.872, 395.563
1191.096, 396.548
1192.320, 354.610
1193.543, 453.630
1194.767, 354.708
1195.990, 337.392
1197.213, 430.408
1198.436, 330.123
1199.659, 360.988
1200.881, 366.562
1202.104, 258.472
1203.326, 460.040
1204.548, 434.007
1205.770, 309.838
1206.991, 376.598
1208.213, 300.971
1209.434, 376.909
1210.655, 317.576
1211.876, 272.155
1213.096, 359.578
1214.317, 239.712
1215.537, 284.368
1216.757, 398.067
1217.977, 134.047
1219.197, 278.517
1220.417, 216.065
1221.636, 201.456
1222.855, 314.817
1224.074, 287.721
1225.293, 297.337
1226.512, 280.944
1227.731, 283.570
1228.949, 192.813
1230.167, 194.180
1231.385, 139.005
1232.603, 134.646
1233.820, 106.835
1235.038, 143.440
1236.255, 141.618
1237.472, 144.438
1238.689, 69.604
1239.906, 164.757
1241.122, 111.350
1242.338, 171.482
1243.555, 62.604
1244.771, 81.788
1245.986, 196.901
1247.202, 72.967
1248.417, 44.392
1249.633, 59.431
1250.848, 8.963
1252.063, 150.226
1253.277, 131.196
1254.492, 71.502
1255.706, 171.462
1256.920, 37.345
1258.134, 52.448
1259.348, 177.301
1260.562, 71.269
1261.775, 133.243
1262.988, 75.991
1264.201, 55.065
1265.414, 116.778
1266.627, 55.470
1267.839, 39.800
1269.052, 217.422
1270.264, 72.987
1271.476, 31.780
1272.688, 80.297
1273.899, 45.209
1275.111, 77.236
1276.322, 123.629
1277.533, 7.000
1278.744, 122.339
1279.955, 146.640
1281.165, 80.770
1282.376, 148.003
1283.586, 75.811
1284.796, 145.180
1286.006, 78.277
1287.215, 66.422
1288.425, 133.555
1289.634, 77.486
1290.843, 102.386
1292.052, 158.262
1293.261, 96.661
1294.469, 69.208
1295.678, 45.932
1296.886, 42.724
1298.094, 56.891
1299.302, 0.532
1300.509, 39.987
1301.717, 85.736
1302.924, 12.851
1304.131, 38.702
1305.338, 55.001
1306.545, 13.263
1307.752, 163.488
1308.958, 5.680
1310.164, 26.837
1311.370, 130.038
1312.576, 9.873
1313.782, 102.174
1314.987, 2.576
1316.193, 34.612
1317.398, 140.299
1318.603, 63.177
1319.807, 11.016
1321.012, 208.812
1322.216, 50.572
1323.421, 12.706
1324.625, 122.962
1325.829, 29.409
1327.032, 93.168
1328.236, 107.709
1329.439, 36.790
1330.642, 160.646
1331.845, 82.198
1333.048, 1.547
1334.251, 143.847
1335.453, 12.110
1336.656, 94.330
1337.858, 105.663
1339.060, 71.208
1340.261, 25.859
1341.463, 104.882
1342.664, 17.134
1343.866, 138.839
1345.067, 32.740
1346.267, 123.601
1347.468, 202.421
1348.669, 84.794
1349.869, 132.924
1351.069, 146.605
1352.269, 11.747
1353.469, 97.856
1354.668, 160.421
1355.868, 31.054
1357.067, 259.421
1358.266, 24.138
1359.465, 148.253
1360.664, 138.908
1361.862, 78.234
1363.061, 187.526
1364.259, 167.014
1365.457, 43.752
1366.655, 205.435
1367.852, 14.593
1369.050, 23.720
1370.247, 132.893
1371.444, 32.073
1372.641, 40.822
1373.838, 180.136
1375.035, 78.905
1376.231, 137.604
1377.427, 186.380
1378.623, 111.446
1379.819, 265.959
1381.015, 77.365
1382.211, 238.901
1383.406, 330.185
1384.601, 111.506
1385.796, 392.320
1386.991, 362.817
1388.185, 204.193
1389.380, 210.384
1390.574, 290.748
1391.768, 131.652
1392.962, 252.426
1394.156, 102.954
1395.350, 163.047
1396.543, 358.067
1397.736, 138.020
1398.929, 204.262
1400.122, 243.317
1401.315, 163.789
1402.507, 293.985
1403.700, 177.492
1404.892, 161.080
1406.084, 320.836
1407.276, 130.780
1408.467, 230.158
1409.659, 308.925
1410.850, 76.693
1412.041, 211.253
1413.232, 257.455
1414.423, 155.363
1415.614, 293.537
1416.804, 251.965
1417.994, 208.249
1419.184, 280.135
1420.374, 278.710
1421.564, 206.657
1422.753, 351.502
1423.943, 45.180
1425.132, 313.379
1426.321, 276.210
1427.510, 41.932
1428.698, 238.641
1429.887, 136.421
1431.075, 213.547
1432.263, 336.766
1433.451, 193.483
1434.639, 181.611
1435.827, 307.356
1437.014, 70.509
1438.201, 287.731
1439.388, 128.855
1440.575, 39.986
1441.762, 336.377
1442.949, 203.797
1444.135, 82.287
1445.321, 404.522
1446.507, 83.100
1447.693, 248.258
1448.879, 343.688
1450.064, 179.804
1451.250, 275.522
1452.435, 242.389
1453.620, 108.146
1454.805, 274.516
1455.989, 190.887
1457.174, 66.330
1458.358, 197.600
1459.542, 166.062
1460.726, 221.645
1461.910, 356.808
1463.093, 161.634
1464.277, 376.373
1465.460, 331.780
1466.643, 125.358
1467.826, 389.999
1469.009, 245.089
1470.191, 160.148
1471.373, 375.123
1472.556, 147.509
1473.738, 62.354
1474.919, 454.499
1476.101, 188.510
1477.283, 223.353
1478.464, 328.195
1479.645, 51.815
1480.826, 364.476
1482.007, 199.462
1483.187, 103.667
1484.368, 318.254
1485.548, 73.636
1486.728, 118.956
1487.908, 273.847
1489.088, 97.915
1490.268, 163.038
1491.447, 358.121
1492.626, 123.208
1493.805, 248.310
1494.984, 73.455
1496.163, 178.594
1497.341, 302.936
1498.520, 218.359
1499.698, 173.852
1500.876, 228.413
1502.054, 15.807
1503.232, 189.788
1504.409, 215.725
1505.586, 21.845
1506.763, 248.096
1507.940, 154.457
1509.117, 121.109
1510.294, 278.026
1511.470, 24.659
1512.647, 49.131
1513.823, 287.982
1514.999, 0.828
1516.174, 134.138
1517.350, 80.735
1518.526, 0.521
1519.701, 0.000
##END=



