##NAMES=Meionite
##RRUFFID=R040169
##IDEAL CHEMISTRY=Ca_4_Al_6_Si_6_O_24_(CO_3_)
##LOCALITY=Black Hills, South Dakota, USA
##OWNER=RRUFF
##SOURCE=University of Arizona Mineral Museum
##DESCRIPTION=White massive
##STATUS=The identification of this mineral has been confirmed by X-ray diffraction and chemical analysis
##URL=rruff.info/R040169
##MEASURED CHEMISTRY=(Ca_0.73_Na_0.24_K_0.03_)_4_(Si_0.58_Al_0.41_)_12_O_24_((CO_3_)_0.90_Cl_0.10_)
##PIN_ID=L00447
##ORIENTATION=Laser parallel to c* (0 0 1). Fiducial mark perpendicular to laser is parallel to -a [-1 0 0]
82.916, 0.000
84.311, 50.537
85.706, 113.956
87.101, 69.421
88.496, 46.976
89.890, 43.964
91.284, 174.907
92.678, 515.190
94.071, 731.416
95.465, 970.896
96.858, 1011.471
98.251, 1411.485
99.644, 1789.879
101.036, 2355.805
102.428, 2708.384
103.820, 3706.781
105.212, 4610.238
106.604, 5468.090
107.995, 6739.783
109.387, 7394.865
110.777, 8022.933
112.168, 8573.858
113.559, 8498.022
114.949, 7995.659
116.339, 7476.559
117.729, 6410.234
119.119, 5716.218
120.508, 4994.117
121.897, 4453.608
123.286, 4204.423
124.675, 3506.333
126.063, 3679.149
127.452, 3482.721
128.840, 3716.932
130.228, 3615.207
131.615, 3477.024
133.003, 3572.959
134.390, 3629.418
135.777, 3756.256
137.164, 4023.346
138.550, 4160.855
139.937, 4570.186
141.323, 4693.512
142.709, 5191.431
144.094, 5253.639
145.480, 5798.926
146.865, 6386.252
148.250, 6993.786
149.635, 7760.719
151.019, 8566.731
152.403, 9701.645
153.788, 10625.518
155.171, 11638.408
156.555, 12690.359
157.939, 13651.415
159.322, 14531.614
160.705, 15130.991
162.088, 15559.584
163.470, 15287.424
164.853, 15284.550
166.235, 14580.991
167.617, 13836.812
168.998, 12972.027
170.380, 12016.786
171.761, 11201.162
173.142, 10115.203
174.523, 9268.945
175.904, 8532.427
177.284, 7845.670
178.664, 7279.232
180.044, 6706.009
181.424, 6321.547
182.803, 6056.699
184.183, 6302.271
185.562, 5897.268
186.940, 6010.295
188.319, 6291.902
189.698, 6203.363
191.076, 6494.682
192.454, 6338.717
193.831, 6848.768
195.209, 6606.933
196.586, 6839.145
197.963, 6696.156
199.340, 6738.247
200.717, 6918.375
202.093, 6910.696
203.470, 6877.056
204.846, 7068.318
206.221, 7186.801
207.597, 7211.407
208.972, 7143.367
210.347, 7122.345
211.722, 7048.066
213.097, 6939.146
214.472, 6851.004
215.846, 6879.195
217.220, 6722.979
218.594, 6281.590
219.967, 6339.479
221.341, 6037.334
222.714, 5915.141
224.087, 5882.885
225.460, 6000.541
226.832, 5958.094
228.204, 6015.523
229.577, 5922.818
230.948, 5869.973
232.320, 5526.983
233.692, 5463.846
235.063, 5180.564
236.434, 5137.141
237.805, 4643.574
239.175, 4659.859
240.545, 4566.011
241.916, 4242.273
243.286, 4348.361
244.655, 4424.559
246.025, 4260.222
247.394, 4215.776
248.763, 4354.365
250.132, 4542.762
251.501, 4511.141
252.869, 4887.180
254.237, 4797.740
255.605, 5159.061
256.973, 5381.025
258.340, 5073.539
259.708, 5016.521
261.075, 4579.910
262.442, 4373.648
263.808, 3767.691
265.175, 3141.995
266.541, 2506.543
267.907, 2081.281
269.273, 1716.222
270.639, 1211.300
272.004, 906.503
273.369, 651.836
274.734, 527.255
276.099, 402.734
277.463, 558.258
278.828, 553.810
280.192, 519.372
281.556, 574.925
282.919, 680.454
284.283, 535.950
285.646, 711.400
287.009, 516.798
288.372, 752.129
289.734, 787.390
291.097, 952.577
292.459, 1197.688
293.821, 1442.724
295.183, 1361.028
296.544, 1352.552
297.905, 1137.340
299.266, 832.041
300.627, 636.654
301.988, 461.171
303.348, 225.607
304.709, 119.924
306.069, 45.909
307.428, 91.946
308.788, 248.223
310.147, 244.791
311.507, 261.661
312.865, 448.848
314.224, 346.395
315.583, 364.276
316.941, 422.494
318.299, 341.062
319.657, 369.955
321.015, 399.180
322.372, 488.742
323.729, 388.659
325.086, 338.902
326.443, 319.457
327.800, 270.317
329.156, 251.470
330.512, 182.897
331.868, 224.591
333.224, 186.557
334.579, 138.782
335.935, 91.258
337.290, 86.056
338.645, 143.178
339.999, 180.123
341.354, 256.892
342.708, 273.501
344.062, 359.936
345.416, 376.335
346.769, 533.150
348.123, 589.400
349.476, 875.989
350.829, 1162.640
352.182, 1378.518
353.534, 1754.758
354.887, 1960.521
356.239, 2445.525
357.591, 2890.346
358.942, 3134.891
360.294, 3409.014
361.645, 3582.652
362.996, 3555.703
364.347, 3468.176
365.698, 3370.102
367.048, 3071.428
368.398, 2862.214
369.748, 2722.516
371.098, 2522.392
372.448, 2221.853
373.797, 2110.963
375.146, 1979.868
376.495, 1888.604
377.844, 1787.187
379.192, 1895.632
380.540, 1883.959
381.889, 1882.189
383.236, 1600.324
384.584, 1688.362
385.932, 1756.303
387.279, 1604.145
388.626, 1671.888
389.973, 1609.533
391.319, 1527.080
392.666, 1524.529
394.012, 1482.182
395.358, 1549.960
396.704, 1347.658
398.049, 1456.071
399.394, 1554.025
400.740, 1362.446
402.084, 1380.870
403.429, 1339.259
404.774, 1637.233
406.118, 1595.798
407.462, 1644.494
408.806, 1902.526
410.150, 1810.986
411.493, 2098.903
412.836, 2176.447
414.179, 2694.703
415.522, 2662.010
416.865, 3120.020
418.207, 3427.557
419.549, 3674.995
420.891, 4112.164
422.233, 4389.310
423.575, 4416.308
424.916, 4503.490
426.257, 4380.020
427.598, 4410.118
428.939, 4286.842
430.279, 4341.495
431.619, 4528.240
432.959, 4465.850
434.299, 4869.150
435.639, 4946.424
436.978, 5321.692
438.318, 6085.938
439.657, 6700.454
440.996, 7854.461
442.334, 9097.821
443.673, 10891.022
445.011, 13204.239
446.349, 16486.518
447.687, 20149.609
449.024, 23620.521
450.361, 27992.227
451.699, 31033.869
453.036, 33096.332
454.372, 34099.352
455.709, 32121.984
457.045, 31674.760
458.381, 30527.795
459.717, 29401.004
461.053, 29144.211
462.388, 27576.094
463.724, 26141.865
465.059, 23810.514
466.394, 21347.426
467.728, 18716.549
469.063, 16452.148
470.397, 14728.323
471.731, 12453.796
473.065, 10947.339
474.398, 9498.776
475.732, 8505.837
477.065, 7781.601
478.398, 6742.667
479.731, 6418.977
481.063, 5683.074
482.396, 5374.443
483.728, 4650.640
485.060, 4193.346
486.391, 3838.411
487.723, 3314.377
489.054, 2992.653
490.385, 2734.242
491.716, 2337.899
493.047, 2088.563
494.377, 1842.132
495.708, 1627.648
497.038, 1459.587
498.368, 1410.293
499.697, 1221.588
501.027, 1062.700
502.356, 1047.862
503.685, 902.704
505.014, 766.171
506.342, 709.798
507.671, 624.474
508.999, 589.211
510.327, 535.874
511.655, 682.838
512.982, 559.666
514.310, 636.928
515.637, 863.160
516.964, 948.830
518.291, 1124.393
519.617, 1549.873
520.944, 1855.248
522.270, 2530.547
523.596, 3176.131
524.921, 4211.844
526.247, 5528.053
527.572, 7114.176
528.897, 8690.195
530.222, 10106.311
531.547, 11382.260
532.871, 11148.113
534.196, 10944.097
535.520, 9620.035
536.844, 7885.810
538.167, 6681.347
539.491, 5416.576
540.814, 4341.740
542.137, 3606.296
543.460, 2820.645
544.783, 2524.692
546.105, 1948.656
547.427, 1672.555
548.749, 1366.366
550.071, 1080.092
551.393, 953.731
552.714, 627.289
554.035, 570.760
555.356, 564.143
556.677, 367.215
557.998, 450.428
559.318, 313.548
560.638, 286.383
561.958, 269.189
563.278, 341.718
564.597, 174.443
565.917, 117.066
567.236, 249.650
568.555, 122.128
569.874, 224.531
571.192, 286.834
572.511, 89.041
573.829, 291.165
575.147, 93.189
576.464, 175.111
577.782, 166.927
579.099, 198.641
580.416, 170.272
581.733, 171.800
583.050, 93.225
584.366, 214.546
585.683, 74.232
586.999, 96.886
588.315, 162.101
589.630, 18.735
590.946, 30.538
592.261, 149.927
593.576, 39.484
594.891, 10.837
596.206, 81.067
597.520, 121.203
598.834, 188.391
600.148, 257.743
601.462, 301.094
602.776, 350.888
604.089, 380.590
605.402, 310.209
606.715, 609.754
608.028, 579.221
609.341, 608.606
610.653, 427.911
611.965, 257.129
613.277, 306.252
614.589, 235.313
615.901, 134.277
617.212, 53.150
618.523, 18.083
619.834, 5.480
621.145, 130.856
622.456, 47.567
623.766, 45.908
625.076, 34.174
626.386, 82.397
627.696, 19.403
629.006, 8.806
630.315, 117.027
631.624, 105.277
632.933, 203.600
634.242, 151.977
635.551, 310.405
636.859, 189.171
638.167, 197.729
639.475, 327.011
640.783, 136.168
642.090, 4.951
643.398, 104.921
644.705, 104.042
646.012, 214.231
647.318, 55.438
648.625, 94.464
649.931, 115.070
651.237, 14.402
652.543, 106.949
653.849, 142.425
655.155, 29.211
656.460, 29.601
657.765, 60.660
659.070, 76.214
660.375, 65.525
661.679, 95.913
662.984, 67.561
664.288, 107.413
665.592, 167.571
666.895, 2.634
668.199, 157.015
669.502, 313.650
670.805, 183.019
672.108, 403.088
673.411, 565.475
674.713, 675.069
676.016, 809.858
677.318, 779.030
678.620, 694.417
679.921, 454.358
681.223, 407.261
682.524, 267.595
683.825, 267.762
685.126, 283.720
686.427, 267.349
687.727, 285.380
689.028, 301.378
690.328, 249.955
691.628, 257.493
692.927, 279.351
694.227, 315.696
695.526, 379.025
696.825, 379.690
698.124, 510.841
699.423, 548.182
700.721, 610.787
702.020, 648.723
703.318, 630.473
704.616, 607.823
705.913, 678.456
707.211, 622.593
708.508, 830.182
709.805, 947.581
711.102, 1084.608
712.399, 1174.294
713.695, 1059.995
714.992, 916.173
716.288, 911.859
717.584, 906.201
718.879, 881.137
720.175, 935.270
721.470, 985.188
722.765, 1069.880
724.060, 1102.458
725.355, 1193.566
726.649, 1117.496
727.944, 1362.247
729.238, 1360.711
730.532, 1234.658
731.825, 1358.281
733.119, 1531.026
734.412, 1664.279
735.705, 1522.107
736.998, 1804.283
738.291, 1777.259
739.584, 1880.099
740.876, 2093.086
742.168, 2080.116
743.460, 2511.939
744.752, 2265.726
746.043, 2597.476
747.334, 2828.170
748.626, 2883.180
749.916, 3222.752
751.207, 3246.525
752.498, 3838.391
753.788, 4139.629
755.078, 4258.350
756.368, 4989.879
757.658, 5192.591
758.947, 5924.561
760.237, 6417.065
761.526, 6922.154
762.815, 7614.958
764.104, 7817.744
765.392, 8620.456
766.680, 8442.286
767.969, 8553.286
769.257, 8530.906
770.544, 7881.121
771.832, 7062.502
773.119, 6380.883
774.406, 5439.975
775.693, 4668.865
776.980, 3613.061
778.267, 2931.709
779.553, 2470.609
780.839, 2038.680
782.125, 1797.420
783.411, 1465.072
784.697, 1222.938
785.982, 1112.025
787.267, 749.814
788.552, 988.693
789.837, 675.637
791.122, 613.639
792.406, 932.145
793.690, 519.225
794.974, 568.061
796.258, 764.467
797.542, 410.979
798.825, 627.588
800.108, 383.459
801.391, 360.270
802.674, 463.924
803.957, 299.389
805.239, 324.969
806.522, 129.459
807.804, 304.586
809.085, 53.768
810.367, 138.301
811.649, 341.844
812.930, 3.758
814.211, 197.838
815.492, 29.711
816.772, 13.818
818.053, 247.658
819.333, 71.533
820.613, 105.523
821.893, 68.580
823.173, 77.740
824.452, 116.373
825.732, 39.811
827.011, 165.973
828.290, 218.514
829.568, 47.133
830.847, 277.041
832.125, 58.918
833.403, 64.943
834.681, 21.721
835.959, 21.246
837.236, 23.479
838.514, 74.436
839.791, 192.498
841.068, 279.061
842.345, 79.438
843.621, 181.912
844.898, 107.092
846.174, 13.695
847.450, 174.428
848.726, 44.822
850.001, 3.994
851.277, 13.303
852.552, 32.232
853.827, 188.861
855.102, 110.043
856.376, 28.912
857.651, 201.967
858.925, 172.719
860.199, 143.340
861.473, 83.834
862.746, 58.795
864.020, 64.422
865.293, 15.484
866.566, 104.453
867.839, 74.264
869.112, 53.945
870.384, 283.500
871.656, 102.936
872.928, 152.248
874.200, 81.438
875.472, 209.494
876.744, 559.324
878.015, 81.967
879.286, 166.561
880.557, 54.969
881.828, 46.748
883.098, 161.371
884.369, 59.369
885.639, 287.250
886.909, 135.014
888.178, 37.338
889.448, 350.150
890.717, 137.531
891.987, 84.795
893.256, 131.939
894.524, 91.033
895.793, 245.826
897.061, 212.578
898.330, 139.254
899.598, 125.818
900.865, 82.275
902.133, 278.648
903.401, 5.076
904.668, 81.062
905.935, 227.090
907.202, 76.998
908.468, 248.742
909.735, 44.369
911.001, 189.875
912.267, 85.266
913.533, 19.461
914.799, 155.664
916.064, 130.672
917.330, 125.561
918.595, 160.330
919.860, 164.986
921.124, 70.469
922.389, 283.906
923.653, 18.178
924.918, 492.332
926.182, 136.391
927.445, 230.346
928.709, 174.201
929.972, 327.975
931.236, 241.654
932.499, 405.234
933.761, 268.719
935.024, 312.154
936.286, 355.496
937.549, 148.766
938.811, 421.934
940.073, 235.006
941.334, 757.980
942.596, 500.865
943.857, 233.398
945.118, 556.090
946.379, 238.029
947.640, 600.064
948.900, 412.477
950.161, 463.666
951.421, 625.664
952.681, 466.549
953.940, 637.230
955.200, 828.270
956.459, 568.523
957.719, 788.791
958.978, 758.160
960.236, 828.178
961.495, 957.066
962.753, 816.268
964.012, 1166.244
965.270, 1053.209
966.527, 1082.443
967.785, 1330.764
969.043, 1138.570
970.300, 1097.791
971.557, 1766.197
972.814, 1404.664
974.071, 1462.893
975.327, 1654.582
976.583, 1312.861
977.840, 1470.602
979.095, 1606.451
980.351, 1395.195
981.607, 1498.305
982.862, 1416.867
984.117, 1359.525
985.372, 1467.850
986.627, 1472.178
987.882, 1499.258
989.136, 1346.098
990.390, 1438.010
991.644, 1401.277
992.898, 1249.273
994.152, 1499.578
995.405, 1447.357
996.659, 1256.107
997.912, 1282.951
999.165, 1330.199
1000.417, 1354.842
1001.670, 1225.312
1002.922, 1319.199
1004.174, 1555.217
1005.426, 1382.229
1006.678, 1798.850
1007.930, 1282.260
1009.181, 1699.148
1010.432, 1756.734
1011.683, 1563.266
1012.934, 1949.447
1014.185, 1835.783
1015.435, 2011.693
1016.685, 2314.773
1017.935, 2150.877
1019.185, 2426.711
1020.435, 2452.324
1021.684, 2549.027
1022.934, 2554.926
1024.183, 2560.984
1025.432, 2636.625
1026.680, 3017.127
1027.929, 2674.750
1029.177, 3313.174
1030.425, 2829.064
1031.673, 2964.262
1032.921, 3354.785
1034.169, 3200.535
1035.416, 3155.652
1036.663, 3351.852
1037.911, 3227.381
1039.157, 3668.336
1040.404, 3294.695
1041.650, 3660.131
1042.897, 4055.246
1044.143, 3190.594
1045.389, 3988.055
1046.634, 3343.803
1047.880, 3819.383
1049.125, 3824.615
1050.371, 3429.762
1051.615, 3694.617
1052.860, 3910.334
1054.105, 3262.969
1055.349, 3647.613
1056.593, 3472.760
1057.837, 3130.574
1059.081, 3505.736
1060.325, 3229.773
1061.568, 3744.631
1062.812, 3388.953
1064.055, 3780.332
1065.298, 4474.965
1066.540, 4429.475
1067.783, 4404.012
1069.025, 5358.598
1070.267, 4893.799
1071.509, 5521.850
1072.751, 5357.297
1073.993, 4841.270
1075.234, 5827.141
1076.475, 6081.605
1077.716, 6796.424
1078.957, 7670.902
1080.198, 8667.412
1081.438, 11002.141
1082.679, 13037.545
1083.919, 15334.758
1085.159, 18939.771
1086.398, 21640.855
1087.638, 24765.186
1088.877, 25490.645
1090.116, 25115.715
1091.355, 25491.980
1092.594, 24287.746
1093.833, 24612.453
1095.071, 23328.408
1096.309, 23312.312
1097.547, 22647.240
1098.785, 22711.184
1100.023, 22025.105
1101.260, 22199.287
1102.498, 20852.602
1103.735, 18546.389
1104.972, 17359.869
1106.208, 13802.809
1107.445, 11148.730
1108.681, 8254.590
1109.918, 5780.387
1111.154, 4746.148
1112.389, 2871.861
1113.625, 2047.523
1114.860, 1933.135
1116.096, 1288.764
1117.331, 1094.408
1118.566, 1010.084
1119.800, 845.758
1121.035, 951.436
1122.269, 877.104
1123.503, 1202.867
1124.737, 818.699
1125.971, 664.574
1127.205, 710.473
1128.438, 246.357
1129.671, 372.189
1130.904, 557.955
1132.137, 193.736
1133.370, 99.490
1134.602, 515.234
1135.834, 220.986
1137.066, 276.748
1138.298, 32.510
1139.530, 338.258
1140.762, 504.092
1141.993, 280.035
1143.224, 226.025
1144.455, 202.088
1145.686, 48.158
1146.917, 704.264
1148.147, 39.598
1149.377, 93.439
1150.607, 642.830
1151.837, 210.879
1153.067, 395.434
1154.296, 331.785
1155.526, 118.189
1156.755, 394.725
1157.984, 91.307
1159.213, 687.963
1160.441, 424.695
1161.670, 201.482
1162.898, 348.365
1164.126, 575.348
1165.354, 432.385
1166.581, 759.482
1167.809, 566.621
1169.036, 543.719
1170.263, 630.738
1171.490, 327.768
1172.717, 634.836
1173.943, 911.943
1175.170, 379.104
1176.396, 476.342
1177.622, 763.676
1178.848, 781.123
1180.073, 898.695
1181.299, 987.035
1182.524, 1104.051
1183.749, 1121.828
1184.974, 949.678
1186.199, 1097.604
1187.423, 1135.607
1188.648, 973.697
1189.872, 1311.869
1191.096, 1139.480
1192.320, 1687.814
1193.543, 1332.920
1194.767, 1390.486
1195.990, 1635.770
1197.213, 904.361
1198.436, 1451.953
1199.659, 1556.676
1200.881, 1238.160
1202.104, 1169.809
1203.326, 1238.742
1204.548, 1013.945
1205.770, 1048.711
1206.991, 686.152
1208.213, 562.230
1209.434, 859.656
1210.655, 297.078
1211.876, 804.492
1213.096, 521.910
1214.317, 299.316
1215.537, 476.703
1216.757, 174.059
1217.977, 431.363
1219.197, 228.594
1220.417, 175.742
1221.636, 602.770
1222.855, 309.680
1224.074, 316.570
1225.293, 553.430
1226.512, 110.199
1227.731, 497.645
1228.949, 747.539
1230.167, 122.176
1231.385, 878.430
1232.603, 11.055
1233.820, 659.613
1235.038, 646.133
1236.255, 294.238
1237.472, 520.129
1238.689, 520.336
1239.906, 387.148
1241.122, 879.102
1242.338, 467.043
1243.555, 271.984
1244.771, 432.496
1245.986, 234.043
1247.202, 158.398
1248.417, 192.738
1249.633, 7.945
1250.848, 2.645
1252.063, 0.000
##END=



