##NAMES=Microcline
##RRUFFID=R050150
##IDEAL CHEMISTRY=KAlSi_3_O_8_
##LOCALITY=Crystal Peak area, Park/Teller Counties, Colorado, USA
##OWNER=RRUFF
##SOURCE=Dave Bunk Minerals
##DESCRIPTION=Pale blue prismatic crystals
##STATUS=The identification of this mineral has been confirmed by X-ray diffraction and chemical analysis
##URL=rruff.info/R050150
##MEASURED CHEMISTRY=(K_0.95_Na_0.05_)_Î£=1_Al_1.00_Si_3.00_O_8_
##PIN_ID=L00941
##ORIENTATION=Laser parallel to (-1 0 -1). Fiducial mark perpendicular to laser is parallel to -b [0 -1 0]
137.6830, 0.0000000E+00
138.9210, 76.26074
140.1580, 753.5293
141.3950, 1601.572
142.6330, 2277.812
143.8690, 2816.287
145.1060, 3033.194
146.3430, 3362.158
147.5790, 3915.169
148.8150, 4557.729
150.0510, 5211.220
151.2870, 5943.470
152.5220, 6385.388
153.7580, 6100.066
154.9930, 5132.113
156.2280, 3533.021
157.4620, 2154.823
158.6970, 884.0898
159.9310, 187.6533
161.1660, 4.068359
162.4000, 257.1211
163.6330, 310.1523
164.8670, 534.0146
166.1000, 764.8525
167.3340, 1004.720
168.5670, 1168.507
169.8000, 1572.022
171.0320, 1989.867
172.2650, 2631.508
173.4970, 3043.354
174.7290, 3621.764
175.9610, 4193.077
177.1930, 4775.623
178.4240, 5370.695
179.6550, 5800.450
180.8870, 6261.219
182.1170, 6806.688
183.3480, 7321.197
184.5790, 8111.575
185.8090, 8590.793
187.0390, 9046.019
188.2690, 8977.376
189.4990, 9045.174
190.7290, 8544.092
191.9580, 7521.152
193.1870, 6614.111
194.4160, 5863.621
195.6450, 5377.920
196.8740, 4956.971
198.1020, 4977.574
199.3310, 4945.965
200.5590, 5353.286
201.7870, 5433.875
203.0140, 5601.289
204.2420, 5440.523
205.4690, 5467.594
206.6960, 5500.512
207.9230, 5832.282
209.1500, 6181.922
210.3760, 6635.432
211.6030, 6551.898
212.8290, 6204.615
214.0550, 5560.677
215.2810, 4459.104
216.5060, 3277.896
217.7320, 2235.043
218.9570, 1405.525
220.1820, 890.3213
221.4070, 483.4033
222.6320, 143.7500
223.8560, 19.65137
225.0800, 181.3564
226.3040, 247.1494
227.5280, 351.0039
228.7520, 273.8926
229.9760, 296.7295
231.1990, 288.4697
232.4220, 392.1250
233.6450, 349.7217
234.8680, 418.3125
236.0910, 298.9463
237.3130, 321.6641
238.5350, 215.4795
239.7570, 164.9629
240.9790, 55.07812
242.2010, 325.5996
243.4220, 447.0537
244.6430, 696.6270
245.8640, 870.9561
247.0850, 885.6787
248.3060, 1134.354
249.5270, 1390.084
250.7470, 1713.785
251.9670, 2064.354
253.1870, 2408.492
254.4070, 2757.193
255.6260, 2819.979
256.8460, 2842.516
258.0650, 2916.293
259.2840, 3072.351
260.5030, 3266.531
261.7220, 3347.311
262.9400, 3379.588
264.1580, 3460.347
265.3760, 3803.499
266.5940, 4014.264
267.8120, 4277.803
269.0290, 4496.373
270.2470, 4691.975
271.4640, 4592.602
272.6810, 4492.253
273.8980, 4606.926
275.1140, 4096.615
276.3310, 3632.322
277.5470, 3546.049
278.7630, 3520.795
279.9790, 3655.559
281.1940, 4074.342
282.4100, 4859.146
283.6250, 5414.973
284.8400, 6072.436
286.0550, 6544.520
287.2700, 6766.063
288.4850, 7397.595
289.6990, 8821.668
290.9130, 8566.148
292.1270, 8994.877
293.3410, 8987.754
294.5540, 8471.691
295.7680, 7674.638
296.9810, 6240.525
298.1940, 5046.297
299.4070, 3727.908
300.6200, 2854.337
301.8320, 2286.571
303.0450, 1730.604
304.2570, 1293.434
305.4690, 948.0615
306.6800, 899.4482
307.8920, 810.4434
309.1030, 619.1133
310.3150, 721.3496
311.5260, 584.1807
312.7360, 363.6455
313.9470, 620.7598
315.1580, 476.5566
316.3680, 562.0557
317.5780, 675.2754
318.7880, 929.2422
319.9980, 1014.969
321.2070, 1202.721
322.4170, 1291.780
323.6260, 1550.880
324.8350, 1699.791
326.0430, 1915.499
327.2520, 2203.719
328.4610, 2305.989
329.6690, 2767.196
330.8770, 2723.432
332.0850, 2821.623
333.2920, 2467.840
334.5000, 2202.270
335.7070, 1632.265
336.9140, 1153.208
338.1210, 969.1445
339.3280, 880.0771
340.5350, 589.0029
341.7410, 645.9131
342.9470, 481.8105
344.1540, 445.6875
345.3590, 426.5420
346.5650, 435.4082
347.7710, 413.1631
348.9760, 462.9307
350.1810, 620.6709
351.3860, 429.3877
352.5910, 490.0781
353.7950, 246.7441
355.0000, 350.3770
356.2040, 362.9814
357.4080, 349.5596
358.6120, 220.1094
359.8150, 327.6221
361.0190, 238.1035
362.2220, 268.5469
363.4250, 372.9531
364.6280, 267.3242
365.8310, 338.6553
367.0340, 186.5322
368.2360, 469.3154
369.4380, 282.1758
370.6400, 479.5049
371.8420, 328.7383
373.0440, 320.4902
374.2450, 168.1260
375.4470, 206.3691
376.6480, 148.1719
377.8490, 26.50586
379.0490, 197.4756
380.2500, 22.79590
381.4500, 149.6055
382.6510, 117.8535
383.8510, 277.4248
385.0500, 84.86621
386.2500, 90.76660
387.4500, 178.0303
388.6490, 78.76562
389.8480, 283.6572
391.0470, 204.7451
392.2460, 255.7783
393.4440, 410.7637
394.6430, 467.8936
395.8410, 704.5684
397.0390, 811.4102
398.2370, 1148.199
399.4340, 1473.951
400.6320, 1672.709
401.8290, 1973.436
403.0260, 1832.139
404.2230, 1939.743
405.4200, 2027.282
406.6170, 1985.681
407.8130, 2526.020
409.0090, 3009.312
410.2050, 3147.652
411.4010, 3237.023
412.5970, 3006.425
413.7920, 2795.837
414.9880, 3031.256
416.1830, 3053.708
417.3780, 3287.204
418.5730, 3504.706
419.7670, 3278.243
420.9620, 3073.812
422.1560, 2296.408
423.3500, 1398.012
424.5440, 1003.621
425.7380, 555.2715
426.9310, 420.9258
428.1240, 414.5938
429.3180, 381.2480
430.5110, 286.8838
431.7030, 191.4883
432.8960, 302.0381
434.0890, 349.5303
435.2810, 439.9629
436.4730, 520.3340
437.6650, 489.6582
438.8570, 707.9238
440.0480, 629.1318
441.2390, 597.2773
442.4310, 1162.359
443.6220, 1588.380
444.8120, 1925.339
446.0030, 2484.237
447.1940, 3114.076
448.3840, 4089.854
449.5740, 4760.577
450.7640, 5592.241
451.9540, 6175.852
453.1430, 6960.629
454.3330, 7770.762
455.5220, 8330.602
456.7110, 9065.650
457.9000, 9445.166
459.0890, 9588.020
460.2770, 8972.172
461.4650, 7955.051
462.6540, 7066.234
463.8420, 6256.973
465.0290, 5623.074
466.2170, 5611.135
467.4050, 6166.158
468.5920, 7239.145
469.7790, 9099.711
470.9660, 11066.63
472.1530, 13262.51
473.3390, 15332.37
474.5250, 16476.21
475.7120, 18198.03
476.8980, 19707.84
478.0840, 21372.64
479.2690, 23526.44
480.4550, 24613.22
481.6400, 25064.01
482.8250, 23377.78
484.0100, 20561.55
485.1950, 16868.57
486.3800, 13089.91
487.5640, 10040.06
488.7480, 7999.068
489.9320, 6659.174
491.1160, 5983.115
492.3000, 5616.414
493.4840, 5756.379
494.6670, 6125.520
495.8500, 7049.957
497.0330, 8832.311
498.2160, 11007.85
499.3990, 14311.52
500.5810, 17101.10
501.7630, 19907.17
502.9460, 22024.62
504.1280, 24207.07
505.3090, 26963.95
506.4910, 30361.83
507.6720, 33663.76
508.8540, 35805.40
510.0350, 36563.18
511.2160, 34754.70
512.3960, 31410.16
513.5770, 26538.06
514.7570, 21749.56
515.9380, 17160.34
517.1180, 13526.25
518.2970, 10885.91
519.4770, 8832.461
520.6570, 7005.430
521.8360, 5638.527
523.0150, 4801.816
524.1940, 3916.123
525.3730, 3623.104
526.5510, 2938.211
527.7300, 2805.098
528.9080, 2352.863
530.0860, 2090.619
531.2640, 1936.281
532.4420, 1634.822
533.6200, 1528.361
534.7970, 1343.623
535.9740, 1287.314
537.1510, 1098.012
538.3280, 982.3105
539.5050, 919.0176
540.6810, 980.8145
541.8580, 940.6250
543.0340, 918.3496
544.2100, 773.9570
545.3860, 800.6914
546.5610, 814.8672
547.7370, 519.6152
548.9120, 626.6406
550.0870, 570.5684
551.2620, 594.4062
552.4370, 550.5020
553.6120, 426.3125
554.7860, 568.7695
555.9600, 430.5977
557.1340, 405.0566
558.3080, 627.1836
559.4820, 640.9883
560.6560, 517.9844
561.8290, 535.6406
563.0020, 460.1406
564.1750, 472.9570
565.3480, 566.8262
566.5210, 461.3301
567.6930, 530.1543
568.8660, 603.3516
570.0380, 541.6543
571.2100, 791.8242
572.3820, 997.0938
573.5530, 974.9531
574.7250, 1121.828
575.8960, 1123.895
577.0670, 1089.729
578.2380, 1333.992
579.4090, 1452.396
580.5800, 1337.336
581.7500, 1328.182
582.9210, 1233.029
584.0910, 1048.879
585.2610, 1044.754
586.4300, 750.6309
587.6000, 501.5176
588.7690, 318.4062
589.9390, 539.3105
591.1080, 227.2168
592.2770, 325.1328
593.4450, 138.0527
594.6140, 91.98242
595.7820, 58.08398
596.9500, 60.84766
598.1190, 237.7910
599.2860, 8.750000
600.4540, 190.7207
601.6220, 19.29297
602.7890, 117.7148
603.9560, 63.24805
605.1230, 38.77930
606.2900, 131.8262
607.4570, 45.87695
608.6230, 175.9414
609.7890, 30.99023
610.9560, 76.09180
612.1220, 135.1777
613.2870, 164.2734
614.4530, 145.1445
615.6180, 82.56055
616.7840, 40.75000
617.9490, 86.94531
619.1140, 60.17969
620.2790, 169.4219
621.4430, 20.66992
622.6080, 94.92578
623.7720, 98.19922
624.9360, 191.4805
626.1000, 479.8164
627.2640, 197.1602
628.4270, 312.3203
629.5910, 643.8926
630.7540, 314.2793
631.9170, 297.6777
633.0800, 533.0898
634.2430, 322.5078
635.4050, 467.9414
636.5680, 500.3848
637.7300, 436.8457
638.8920, 792.3223
640.0540, 516.8125
641.2150, 723.3164
642.3770, 1658.842
643.5380, 1683.381
644.7000, 1281.939
645.8610, 2331.521
647.0210, 1137.141
648.1820, 760.7773
649.3430, 1008.426
650.5030, 1094.096
651.6630, 889.7734
652.8230, 695.4668
653.9830, 749.1660
655.1430, 650.8750
656.3020, 455.5918
657.4620, 400.3203
658.6210, 283.0547
659.7800, 201.8242
660.9390, 206.6113
662.0970, 432.4688
663.2560, 208.3477
664.4140, 36.72461
665.5720, 253.2266
666.7300, 54.25195
667.8880, 192.2969
669.0460, 1.632813
670.2030, 209.4805
671.3600, 134.5898
672.5180, 30.69336
673.6740, 143.7930
674.8310, 172.8867
675.9880, 161.1406
677.1440, 45.95117
678.3010, 117.0938
679.4570, 48.13281
680.6130, 133.8379
681.7690, 150.1113
682.9240, 6.947266
684.0800, 65.02344
685.2350, 103.1445
686.3900, 136.6680
687.5450, 14.47070
688.7000, 28.73633
689.8540, 156.9727
691.0090, 80.30469
692.1630, 74.69531
693.3170, 3.857422
694.4710, 79.39453
695.6250, 82.07812
696.7780, 123.6133
697.9320, 92.77148
699.0850, 87.85547
700.2380, 81.54688
701.3910, 62.30078
702.5440, 100.8926
703.6970, 86.07812
704.8490, 107.7500
706.0010, 147.3438
707.1530, 2.570313
708.3050, 38.51172
709.4570, 67.49609
710.6090, 52.53906
711.7600, 83.36523
712.9110, 96.25977
714.0620, 52.17383
715.2130, 111.0430
716.3640, 33.09766
717.5150, 20.71680
718.6650, 8.357422
719.8150, 180.1309
720.9650, 234.8945
722.1150, 130.7715
723.2650, 128.8945
724.4150, 268.6250
725.5640, 191.6660
726.7130, 346.4375
727.8630, 274.0957
729.0110, 234.0742
730.1600, 191.7188
731.3090, 260.3711
732.4570, 287.1035
733.6060, 259.7090
734.7540, 444.9785
735.9020, 465.5781
737.0490, 557.3945
738.1970, 637.1523
739.3440, 579.7070
740.4920, 918.0703
741.6390, 841.7070
742.7860, 1019.857
743.9320, 1408.977
745.0790, 1213.508
746.2250, 1720.311
747.3720, 1887.512
748.5180, 2052.744
749.6640, 2283.205
750.8100, 2497.797
751.9550, 2715.771
753.1010, 3180.471
754.2460, 3527.824
755.3910, 4331.336
756.5360, 5262.451
757.6810, 6376.764
758.8250, 7052.658
759.9700, 8029.109
761.1140, 9104.619
762.2580, 9787.863
763.4020, 10562.87
764.5460, 11089.07
765.6900, 11058.55
766.8330, 10304.96
767.9760, 9130.117
769.1200, 7437.244
770.2620, 5757.486
771.4050, 4701.617
772.5480, 3712.840
773.6900, 2832.941
774.8330, 2452.975
775.9750, 2025.988
777.1170, 1533.982
778.2590, 1562.957
779.4000, 1551.910
780.5420, 1428.844
781.6830, 1146.840
782.8240, 1010.434
783.9650, 977.8516
785.1060, 891.7012
786.2470, 678.5312
787.3870, 762.3398
788.5280, 774.1289
789.6680, 615.9570
790.8080, 818.7051
791.9480, 1021.674
793.0870, 812.5234
794.2270, 751.2051
795.3660, 928.8633
796.5060, 999.2383
797.6450, 1088.854
798.7830, 1093.445
799.9220, 1389.016
801.0610, 1391.564
802.1990, 1697.430
803.3370, 2253.932
804.4750, 2564.410
805.6130, 3164.865
806.7510, 4128.668
807.8890, 4931.072
809.0260, 6245.455
810.1630, 7494.699
811.3000, 8464.033
812.4370, 9468.344
813.5740, 10173.63
814.7110, 10963.29
815.8470, 11124.54
816.9830, 11421.67
818.1190, 10645.77
819.2550, 9073.936
820.3910, 7421.201
821.5270, 5988.328
822.6620, 4469.990
823.7970, 3366.066
824.9330, 2760.846
826.0670, 2245.713
827.2020, 1918.650
828.3370, 1582.314
829.4710, 1220.252
830.6060, 1237.523
831.7400, 1158.410
832.8740, 1110.648
834.0080, 951.2031
835.1410, 896.0664
836.2750, 630.7207
837.4080, 606.6973
838.5410, 439.8145
839.6740, 674.6016
840.8070, 627.3184
841.9400, 530.3809
843.0730, 389.1133
844.2050, 328.4531
845.3370, 352.6719
846.4690, 363.0078
847.6010, 459.2246
848.7330, 395.7715
849.8640, 122.3535
850.9960, 487.7305
852.1270, 227.3223
853.2580, 294.4727
854.3890, 22.46680
855.5200, 238.9062
856.6500, 153.4277
857.7810, 92.93164
858.9110, 39.58203
860.0410, 266.8496
861.1710, 9.267578
862.3010, 104.6562
863.4310, 1.972656
864.5600, 48.36523
865.6900, 15.68555
866.8190, 254.9824
867.9480, 101.2617
869.0770, 299.5254
870.2050, 589.7754
871.3340, 377.0195
872.4620, 8.246094
873.5900, 71.44531
874.7180, 12.63086
875.8460, 39.20898
876.9740, 55.09766
878.1010, 57.95508
879.2290, 31.99805
880.3560, 101.0000
881.4830, 34.98438
882.6100, 15.95117
883.7370, 14.10352
884.8630, 100.8105
885.9900, 64.71094
887.1160, 129.4043
888.2420, 32.38672
889.3680, 104.8398
890.4940, 64.84961
891.6200, 102.4746
892.7450, 166.1230
893.8700, 14.70703
894.9960, 59.27148
896.1210, 16.17773
897.2460, 219.3379
898.3700, 137.1582
899.4950, 240.2520
900.6190, 25.64648
901.7430, 36.02930
902.8670, 189.3965
903.9910, 105.7539
905.1150, 59.09766
906.2390, 80.42969
907.3620, 51.75195
908.4850, 74.87891
909.6080, 101.3555
910.7310, 137.6387
911.8540, 109.9141
912.9770, 153.1777
914.0990, 165.4316
915.2210, 240.6855
916.3440, 58.92773
917.4660, 17.81055
918.5870, 79.57227
919.7090, 173.6055
920.8310, 120.7715
921.9520, 134.9297
923.0730, 128.0781
924.1940, 55.21680
925.3150, 200.3457
926.4360, 8.462891
927.5560, 30.57227
928.6770, 201.6699
929.7970, 133.7598
930.9170, 89.16016
932.0370, 264.8613
933.1570, 81.87500
934.2760, 325.8809
935.3960, 57.87500
936.5150, 62.86523
937.6340, 64.85352
938.7530, 189.8359
939.8720, 321.8105
940.9910, 14.22461
942.1090, 242.7500
943.2280, 128.7168
944.3460, 182.6758
945.4640, 191.6289
946.5820, 242.5742
947.6990, 265.5117
948.8170, 183.4570
949.9340, 250.4023
951.0520, 252.3398
952.1690, 102.2715
953.2860, 291.2344
954.4030, 171.1914
955.5190, 166.1504
956.6360, 270.1191
957.7520, 256.1113
958.8680, 277.7715
959.9840, 325.0859
961.1000, 258.0781
962.2160, 271.1074
963.3310, 203.1602
964.4470, 342.2285
965.5620, 531.2988
966.6770, 341.3613
967.7920, 519.4473
968.9060, 704.5684
970.0210, 740.6836
971.1360, 846.8242
972.2500, 1109.986
973.3640, 1191.166
974.4780, 1284.346
975.5920, 1337.521
976.7050, 1656.727
977.8190, 1770.932
978.9320, 1815.143
980.0450, 1520.371
981.1580, 1520.617
982.2710, 1459.902
983.3840, 1025.184
984.4970, 875.4355
985.6090, 943.7168
986.7210, 728.0078
987.8330, 907.3262
988.9450, 662.8418
990.0570, 875.2363
991.1690, 779.6289
992.2800, 834.8945
993.3920, 818.9004
994.5030, 1087.291
995.6140, 981.3535
996.7250, 997.6719
997.8350, 745.0918
998.9460, 959.1777
1000.056, 1127.623
1001.167, 1312.066
1002.277, 1496.439
1003.387, 1417.902
1004.496, 1659.365
1005.606, 1644.832
1006.715, 1552.105
1007.825, 1670.430
1008.934, 1550.945
1010.043, 1498.473
1011.152, 1767.740
1012.260, 1340.021
1013.369, 1256.922
1014.477, 1226.395
1015.586, 1428.588
1016.694, 1333.365
1017.802, 1083.510
1018.909, 1089.031
1020.017, 969.4102
1021.124, 762.3926
1022.232, 689.6406
1023.339, 513.2207
1024.446, 562.6289
1025.553, 493.0508
1026.659, 695.0000
1027.766, 559.9844
1028.872, 570.4043
1029.979, 745.7520
1031.085, 539.3496
1032.191, 953.1719
1033.296, 622.7812
1034.402, 632.1035
1035.507, 755.4805
1036.613, 396.1074
1037.718, 544.7422
1038.823, 634.2480
1039.928, 740.8574
1041.032, 827.3555
1042.137, 818.9629
1043.241, 999.6250
1044.346, 864.4883
1045.450, 759.1621
1046.554, 806.8438
1047.657, 743.3457
1048.761, 851.0391
1049.864, 781.8828
1050.968, 517.8887
1052.071, 696.0566
1053.174, 562.7754
1054.277, 238.5000
1055.379, 229.2324
1056.482, 457.9707
1057.584, 347.6562
1058.687, 225.4043
1059.789, 381.9199
1060.891, 352.5352
1061.992, 352.3086
1063.094, 424.0879
1064.196, 199.1367
1065.297, 499.9277
1066.398, 309.7285
1067.499, 321.5352
1068.600, 384.3516
1069.701, 268.1738
1070.801, 271.0059
1071.902, 446.8457
1073.002, 27.69141
1074.102, 258.1484
1075.202, 259.0820
1076.302, 176.9473
1077.402, 383.8242
1078.501, 633.7070
1079.600, 653.3691
1080.700, 615.2676
1081.799, 740.1719
1082.898, 803.0859
1083.996, 806.0254
1085.095, 825.0410
1086.193, 1088.996
1087.292, 1284.961
1088.390, 1534.930
1089.488, 1523.908
1090.586, 2019.895
1091.683, 2293.887
1092.781, 2962.887
1093.878, 3166.924
1094.975, 3917.938
1096.073, 4325.961
1097.169, 4340.988
1098.266, 4921.023
1099.363, 4684.064
1100.459, 4716.254
1101.556, 4514.309
1102.652, 4211.369
1103.748, 3636.438
1104.844, 3232.514
1105.940, 2636.594
1107.035, 2331.684
1108.131, 2074.775
1109.226, 1721.043
1110.321, 1470.748
1111.416, 1493.859
1112.511, 1637.035
1113.605, 1102.400
1114.700, 1274.627
1115.794, 1244.824
1116.889, 1275.965
1117.983, 1188.941
1119.077, 1298.168
1120.170, 1339.109
1121.264, 1445.555
1122.357, 1317.727
1123.451, 1152.900
1124.544, 1330.082
1125.637, 1061.285
1126.730, 894.4922
1127.823, 842.7168
1128.915, 919.9434
1130.008, 906.1875
1131.100, 728.3887
1132.192, 649.0293
1133.284, 573.2871
1134.376, 720.6953
1135.467, 532.9609
1136.559, 757.4258
1137.650, 694.7109
1138.742, 726.2969
1139.833, 461.5801
1140.924, 567.8691
1142.014, 682.1816
1143.105, 398.5176
1144.195, 545.8574
1145.286, 643.3223
1146.376, 565.6934
1147.466, 748.0703
1148.556, 428.2695
1149.646, 497.6621
1150.735, 605.0586
1151.825, 450.4590
1152.914, 675.9160
1154.003, 549.1016
1155.092, 502.8418
1156.181, 464.3242
1157.270, 356.0312
1158.358, 428.5527
1159.447, 313.0762
1160.535, 385.6016
1161.623, 373.1387
1162.711, 197.6797
1163.799, 348.2617
1164.886, 280.8477
1165.974, 281.4336
1167.061, 141.0234
1168.148, 12.61523
1169.235, 161.2070
1170.322, 72.79883
1171.409, 237.3945
1172.496, 155.9922
1173.582, 173.5859
1174.669, 8.816406
1175.755, 71.78125
1176.841, 60.37891
1177.927, 43.02148
1179.012, 101.5586
1180.098, 128.8574
1181.183, 295.6602
1182.269, 143.1875
1183.354, 253.7402
1184.439, 165.2930
1185.524, 66.84570
1186.608, 59.40039
1187.693, 62.27539
1188.777, 38.50977
1189.862, 143.0664
1190.946, 110.6191
1192.030, 120.1758
1193.113, 212.7324
1194.197, 169.3242
1195.281, 196.9062
1196.364, 238.4863
1197.447, 326.0664
1198.530, 182.6465
1199.613, 228.2305
1200.696, 74.81055
1201.779, 182.3906
1202.861, 88.96875
1203.944, 74.45508
1205.026, 4.085938
1206.108, 296.6289
1207.190, 119.1680
1208.271, 337.7070
1209.353, 14.75586
1210.435, 160.7695
1211.516, 123.2969
1212.597, 221.8223
1213.678, 165.9980
1214.759, 16.52148
1215.840, 341.0430
1216.920, 97.56055
1218.001, 114.0781
1219.081, 61.59375
1220.161, 74.10938
1221.241, 123.6211
1222.321, 165.1328
1223.401, 31.64062
1224.480, 253.1465
1225.560, 311.6504
1226.639, 82.25586
1227.718, 119.7578
1228.797, 131.2539
1229.876, 9.750000
1230.955, 267.2402
1232.033, 164.7285
1233.112, 239.2910
1234.190, 252.7734
1235.268, 232.3047
1236.346, 224.7832
1237.424, 56.27148
1238.501, 9.757813
1239.579, 0.3496090
1240.656, 59.72266
1241.733, 38.20312
1242.811, 57.32227
1243.888, 30.31836
1244.964, 39.75000
1246.041, 131.1895
1247.117, 33.38672
1248.194, 36.99023
1249.270, 127.6250
1250.346, 103.3379
1251.422, 220.8828
1252.498, 144.1016
1253.573, 146.3164
1254.649, 135.5273
1255.724, 73.73828
1256.800, 163.9746
1257.875, 328.1738
1258.950, 292.3730
1260.024, 127.3008
1261.099, 54.18750
1262.173, 111.8848
1263.248, 50.04688
1264.322, 188.9824
1265.396, 20.00586
1266.470, 126.9727
1267.544, 4.035156
1268.617, 238.8848
1269.691, 262.8027
1270.764, 219.7168
1271.837, 151.6289
1272.910, 223.5332
1273.983, 48.98047
1275.056, 266.8789
1276.129, 235.7734
1277.201, 89.33984
1278.273, 248.4863
1279.346, 102.3066
1280.418, 186.1230
1281.489, 69.93555
1282.561, 145.7422
1283.633, 90.54688
1284.704, 176.3438
1285.776, 30.13672
1286.847, 280.9277
1287.918, 142.7090
1288.989, 213.4844
1290.059, 123.2598
1291.130, 170.0801
1292.200, 189.7949
1293.271, 212.5566
1294.341, 318.3125
1295.411, 204.0645
1296.481, 273.8125
1297.551, 89.55469
1298.620, 415.2910
1299.690, 345.0234
1300.759, 91.75195
1301.828, 420.4746
1302.897, 208.1934
1303.966, 200.7129
1305.035, 285.5059
1306.103, 254.2148
1307.172, 437.1055
1308.240, 364.8086
1309.308, 338.2793
1310.376, 205.9727
1311.444, 184.6621
1312.512, 204.3477
1313.580, 75.02539
1314.647, 185.8145
1315.714, 136.3594
1316.781, 296.0215
1317.848, 410.6758
1318.915, 358.3281
1319.982, 342.9727
1321.049, 164.6113
1322.115, 66.24609
1323.181, 451.8730
1324.248, 319.4980
1325.314, 373.1152
1326.380, 96.73047
1327.445, 181.3359
1328.511, 177.9141
1329.576, 433.4883
1330.642, 276.0547
1331.707, 316.6172
1332.772, 116.8340
1333.837, 120.3145
1334.902, 120.8594
1335.966, 271.3984
1337.031, 165.9277
1338.095, 365.6836
1339.159, 669.2031
1340.223, 209.7207
1341.287, 57.77344
1342.351, 167.7109
1343.415, 364.1211
1344.478, 402.5898
1345.541, 442.0547
1346.605, 375.5156
1347.668, 431.9688
1348.731, 390.4180
1349.793, 305.8555
1350.856, 352.2852
1351.918, 317.6855
1352.981, 243.1094
1354.043, 49.52930
1355.105, 203.9473
1356.167, 463.3594
1357.229, 247.7676
1358.290, 185.0176
1359.352, 169.4023
1360.413, 56.78516
1361.475, 358.1660
1362.536, 63.54102
1363.597, 321.9141
1364.657, 430.1621
1365.718, 318.5293
1366.779, 367.7266
1367.839, 167.0156
1368.899, 107.3750
1369.959, 96.67383
1371.019, 27.78906
1372.079, 115.0430
1373.139, 74.41211
1374.198, 348.6777
1375.258, 161.1934
1376.317, 109.4609
1377.376, 330.0156
1378.435, 251.0762
1379.494, 192.5488
1380.553, 208.8828
1381.611, 215.2188
1382.670, 280.5508
1383.728, 10.11523
1384.786, 197.2109
1385.844, 441.5371
1386.902, 25.88672
1387.960, 281.2559
1389.017, 328.2031
1390.075, 126.5430
1391.132, 63.72266
1392.189, 398.0508
1393.246, 154.1914
1394.303, 193.5137
1395.360, 92.54492
1396.417, 237.8848
1397.473, 244.2266
1398.529, 272.5723
1399.585, 239.9219
1400.642, 46.72266
1401.697, 249.5293
1402.753, 134.8418
1403.809, 119.1562
1404.864, 331.6152
1405.920, 166.8945
1406.975, 270.1777
1408.030, 199.4668
1409.085, 197.7441
1410.140, 88.03906
1411.194, 126.3359
1412.249, 395.6387
1413.303, 250.8730
1414.358, 341.1836
1415.412, 40.66016
1416.466, 209.9766
1417.520, 143.3027
1418.573, 195.2188
1419.627, 276.5488
1420.680, 186.8848
1421.733, 411.2266
1422.787, 417.5781
1423.840, 399.7266
1424.892, 393.7188
1425.945, 298.6934
1426.998, 315.0801
1428.050, 156.4766
1429.103, 324.8848
1430.155, 237.2773
1431.207, 11.68359
1432.259, 117.5820
1433.310, 438.0156
1434.362, 310.5762
1435.414, 418.2324
1436.465, 45.55859
1437.516, 202.4746
1438.567, 258.5332
1439.618, 256.7559
1440.669, 491.0645
1441.720, 147.3633
1442.770, 259.6582
1443.820, 81.94336
1444.871, 496.1816
1445.921, 235.4473
1446.971, 372.7070
1448.021, 311.9570
1449.070, 355.1992
1450.120, 482.4766
1451.169, 302.7500
1452.219, 295.0156
1453.268, 85.28125
1454.317, 347.2695
1455.366, 184.4727
1456.414, 213.6680
1457.463, 291.8516
1458.511, 316.0352
1459.560, 255.2070
1460.608, 390.2461
1461.656, 333.3984
1462.704, 362.5547
1463.752, 256.6016
1464.799, 85.67188
1465.847, 204.7656
1466.894, 322.8438
1467.941, 214.9062
1468.988, 151.7422
1470.035, 237.8203
1471.082, 203.9531
1472.129, 73.24219
1473.175, 133.4258
1474.222, 289.8906
1475.268, 121.7695
1476.314, 176.8867
1477.360, 171.3203
1478.406, 166.8047
1479.452, 144.3203
1480.498, 219.9648
1481.543, 81.61719
1482.588, 382.2773
1483.633, 466.0156
1484.679, 64.63281
1485.723, 249.3516
1486.768, 166.0742
1487.813, 263.8047
1488.857, 262.5430
1489.902, 58.70312
1490.946, 253.0469
1491.990, 268.8047
1493.034, 52.43359
1494.078, 83.33203
1495.122, 360.1055
1496.165, 407.8867
1497.209, 110.6758
1498.252, 338.3125
1499.295, 303.0859
1500.338, 209.8594
1501.381, 217.6328
1502.424, 160.4219
1503.466, 71.23438
1504.509, 10.05469
1505.551, 206.8945
1506.593, 193.7500
1507.635, 243.6211
1508.677, 111.5039
1509.719, 285.4688
1510.761, 57.50000
1511.802, 42.56250
1512.844, 236.6523
1513.885, 262.7773
1514.926, 47.94141
1515.967, 233.1445
1517.008, 214.3945
1518.049, 153.6875
1519.089, 257.0234
1520.130, 233.4180
1521.170, 229.8789
1522.210, 109.3789
1523.250, 564.9141
1524.290, 103.5391
1525.330, 528.2578
1526.370, 107.0273
1527.409, 200.1523
1528.448, 366.7305
1529.488, 198.3398
1530.527, 182.7148
1531.566, 354.1172
1532.605, 241.5508
1533.643, 204.0039
1534.682, 278.9297
1535.720, 130.4258
1536.759, 252.9531
1537.797, 37.50781
1538.835, 357.9688
1539.873, 29.48828
1540.910, 190.0742
1541.948, 128.6641
1542.986, 7.753906
1544.023, 196.8047
1545.060, 180.3242
1546.097, 364.0625
1547.134, 306.1016
1548.171, 184.0430
1549.208, 243.8398
1550.244, 210.8281
1551.281, 315.8672
1552.317, 464.4492
1553.353, 454.8203
1554.389, 139.0703
1555.425, 210.2383
1556.461, 8.488281
1557.497, 236.7578
1558.532, 94.16797
1559.567, 81.33203
1560.603, 95.06641
1561.638, 2.082031
1562.673, 201.6250
1563.708, 0.0000000E+00
##END=



