##NAMES=Microcline
##RRUFFID=R040154
##IDEAL CHEMISTRY=KAlSi_3_O_8_
##LOCALITY=Mitchell County, North Carolina, USA
##OWNER=RRUFF
##SOURCE=University of Arizona Mineral Museum
##DESCRIPTION=White cleavage fragment with some perthitic character
##STATUS=The identification of this mineral has been confirmed by X-ray diffraction and chemical analysis
##URL=rruff.info/R040154
##MEASURED CHEMISTRY=(K_0.90_Na_0.09_Ba_0.01_)Al_1.00_(Si_2.99_Al_0.01_)_Î£=3_O_8_
##PIN_ID=L00521
##ORIENTATION=Laser parallel to -c* (0 0 -1). Fiducial mark perpendicular to laser is parallel to a [1 0 0]
93.375, 0.000
94.768, 88.652
96.161, 0.306
97.554, 22.459
98.947, 96.038
100.340, 1.419
101.732, 219.828
103.124, 391.709
104.516, 566.569
105.908, 640.444
107.300, 756.887
108.691, 665.227
110.082, 534.653
111.473, 401.449
112.864, 583.898
114.254, 960.931
115.644, 1552.762
117.034, 2344.812
118.424, 2905.648
119.813, 4031.941
121.203, 4939.434
122.592, 6036.928
123.981, 6979.264
125.369, 7446.215
126.758, 7308.561
128.146, 6971.218
129.534, 6686.436
130.922, 6305.119
132.309, 6187.072
133.696, 6572.379
135.083, 7790.099
136.470, 8803.290
137.857, 10223.021
139.243, 10695.348
140.630, 10995.311
142.016, 10716.944
143.401, 10563.286
144.787, 10033.366
146.172, 10284.210
147.557, 10899.831
148.942, 12312.261
150.327, 14769.515
151.711, 17718.604
153.096, 21563.533
154.480, 24498.314
155.863, 26658.100
157.247, 27689.994
158.630, 27040.645
160.013, 25144.689
161.396, 22175.570
162.779, 18555.361
164.161, 15168.772
165.544, 12227.559
166.926, 9830.288
168.308, 7963.155
169.689, 6943.809
171.070, 6236.466
172.452, 5781.023
173.833, 5582.488
175.213, 5629.882
176.594, 5369.363
177.974, 5201.900
179.354, 4976.518
180.734, 4552.215
182.114, 4150.146
183.493, 3774.131
184.872, 3420.159
186.251, 3260.230
187.630, 2919.345
189.008, 2674.504
190.387, 2587.707
191.765, 2687.956
193.143, 2930.249
194.520, 3174.580
195.898, 3521.949
197.275, 3525.347
198.652, 3442.771
200.029, 3216.219
201.405, 2702.688
202.782, 2116.174
204.158, 1985.675
205.534, 1694.282
206.909, 1425.845
208.285, 1233.367
209.660, 975.880
211.035, 714.370
212.410, 527.824
213.784, 287.243
215.159, 107.626
216.533, 46.972
217.907, 111.719
219.281, 87.674
220.654, 190.463
222.027, 204.062
223.400, 193.960
224.773, 164.894
226.146, 224.861
227.518, 193.391
228.891, 202.641
230.263, 172.661
231.634, 72.378
233.006, 216.562
234.377, 138.528
235.748, 39.654
237.119, 67.793
238.490, 199.185
239.860, 332.956
241.231, 392.410
242.601, 619.328
243.970, 943.957
245.340, 1145.397
246.709, 1715.217
248.079, 2623.938
249.448, 3560.637
250.816, 4802.334
252.185, 6278.027
253.553, 7519.712
254.921, 8835.390
256.289, 9389.041
257.657, 9744.716
259.024, 9597.740
260.391, 9845.457
261.758, 9709.900
263.125, 9859.544
264.492, 9553.427
265.858, 9041.140
267.224, 8591.565
268.590, 7629.381
269.956, 7439.652
271.321, 6910.691
272.687, 7025.293
274.052, 7701.115
275.416, 9446.622
276.781, 11461.666
278.146, 14446.791
279.510, 18050.980
280.874, 21462.221
282.237, 24656.500
283.601, 25068.820
284.964, 24708.162
286.327, 23517.525
287.690, 20519.902
289.053, 16859.285
290.416, 13896.657
291.778, 10470.007
293.140, 8109.305
294.502, 6118.539
295.863, 4971.711
297.225, 3876.823
298.586, 3138.877
299.947, 2713.877
301.308, 2149.823
302.668, 1722.719
304.029, 1511.563
305.389, 1259.359
306.749, 1053.108
308.108, 951.810
309.468, 725.466
310.827, 657.077
312.186, 401.646
313.545, 455.170
314.903, 344.651
316.262, 275.089
317.620, 288.016
318.978, 430.839
320.336, 373.066
321.693, 662.049
323.051, 958.716
324.408, 1077.082
325.765, 1842.152
327.121, 2151.031
328.478, 2564.655
329.834, 2906.176
331.190, 2707.680
332.546, 2454.163
333.902, 2083.620
335.257, 1570.053
336.612, 1142.458
337.967, 895.840
339.322, 536.195
340.677, 479.525
342.031, 339.829
343.385, 230.105
344.739, 150.353
346.093, 160.563
347.446, 253.737
348.799, 242.881
350.153, 378.993
351.505, 459.075
352.858, 452.127
354.210, 537.148
355.563, 601.139
356.915, 570.100
358.267, 538.029
359.618, 294.927
360.969, 379.796
362.321, 248.633
363.672, 221.438
365.022, 222.214
366.373, 313.952
367.723, 428.656
369.073, 488.328
370.423, 598.968
371.773, 579.609
373.122, 360.216
374.471, 395.827
375.821, 126.426
377.169, 269.098
378.518, 8.266
379.866, 35.639
381.215, 35.996
382.563, 62.066
383.910, 143.486
385.258, 149.900
386.605, 29.808
387.952, 149.970
389.299, 99.026
390.646, 162.227
391.992, 17.143
393.339, 54.209
394.685, 82.776
396.031, 353.814
397.376, 346.688
398.722, 531.354
400.067, 609.311
401.412, 666.862
402.757, 693.172
404.101, 732.520
405.446, 624.626
406.790, 635.606
408.134, 566.066
409.478, 527.967
410.821, 434.851
412.165, 371.536
413.508, 344.564
414.851, 241.395
416.193, 72.203
417.536, 46.986
418.878, 26.268
420.220, 9.598
421.562, 41.980
422.904, 34.564
424.245, 7.932
425.586, 43.486
426.927, 86.873
428.268, 65.189
429.609, 135.539
430.949, 49.592
432.289, 209.668
433.629, 137.705
434.969, 344.852
436.309, 212.807
437.648, 516.713
438.987, 611.580
440.326, 651.666
441.665, 971.512
443.003, 1324.061
444.342, 1837.641
445.680, 2593.379
447.018, 3393.994
448.355, 4395.252
449.693, 5523.770
451.030, 6611.311
452.367, 7423.773
453.704, 7252.176
455.041, 7075.125
456.377, 6145.441
457.713, 5359.715
459.049, 4592.941
460.385, 4346.127
461.721, 4531.270
463.056, 3868.371
464.391, 4399.426
465.726, 5338.443
467.061, 6607.412
468.395, 8153.342
469.730, 10801.230
471.064, 12826.072
472.398, 15535.875
473.731, 16580.639
475.065, 17278.357
476.398, 16720.029
477.731, 15182.600
479.064, 13618.164
480.397, 12378.717
481.729, 11246.225
483.062, 9976.695
484.394, 8980.129
485.725, 7332.520
487.057, 6165.875
488.389, 4929.195
489.720, 4040.480
491.051, 3703.730
492.382, 3501.947
493.712, 3413.129
495.043, 3515.279
496.373, 3964.391
497.703, 4666.467
499.032, 5536.514
500.362, 6724.520
501.691, 8840.492
503.020, 11387.379
504.349, 15107.748
505.678, 19684.988
507.007, 25534.377
508.335, 31541.719
509.663, 37382.965
510.991, 42201.875
512.319, 42934.574
513.646, 41413.297
514.973, 35512.285
516.300, 29402.041
517.627, 22977.783
518.954, 17035.621
520.280, 13389.707
521.607, 10154.697
522.933, 8253.430
524.259, 6448.426
525.584, 5224.422
526.910, 4554.635
528.235, 3709.500
529.560, 3313.523
530.885, 2630.766
532.209, 2444.340
533.534, 2359.500
534.858, 1996.164
536.182, 1888.264
537.506, 1745.932
538.829, 1485.574
540.152, 1358.748
541.476, 1363.379
542.799, 945.777
544.121, 1042.428
545.444, 942.582
546.766, 771.854
548.088, 853.354
549.410, 836.080
550.732, 721.324
552.053, 684.830
553.375, 560.879
554.696, 522.559
556.017, 661.822
557.337, 599.268
558.658, 531.766
559.978, 390.018
561.298, 635.119
562.618, 407.100
563.938, 367.104
565.257, 607.877
566.576, 207.990
567.895, 528.061
569.214, 706.660
570.533, 431.746
571.851, 530.422
573.170, 825.463
574.488, 729.094
575.805, 734.514
577.123, 879.564
578.440, 1169.480
579.758, 1422.412
581.075, 1280.291
582.391, 1387.809
583.708, 1277.770
585.024, 1056.471
586.341, 936.773
587.657, 891.744
588.972, 895.613
590.288, 465.279
591.603, 344.367
592.918, 271.049
594.233, 307.637
595.548, 433.639
596.863, 361.111
598.177, 246.734
599.491, 294.236
600.805, 116.709
602.119, 1.850
603.432, 290.545
604.746, 385.910
606.059, 145.244
607.372, 73.543
608.685, 295.807
609.997, 66.047
611.309, 320.252
612.621, 166.428
613.933, 385.570
615.245, 371.688
616.557, 422.775
617.868, 368.836
619.179, 429.867
620.490, 509.871
621.801, 894.848
623.111, 709.795
624.421, 1086.717
625.731, 848.609
627.041, 1405.477
628.351, 1186.316
629.660, 1224.129
630.970, 1466.912
632.279, 1131.670
633.588, 1135.400
634.896, 989.105
636.205, 1208.779
637.513, 966.434
638.821, 1238.055
640.129, 1483.654
641.437, 1399.225
642.744, 1418.768
644.051, 1639.287
645.358, 2062.777
646.665, 2128.244
647.972, 2215.684
649.278, 2287.098
650.584, 2291.480
651.890, 2499.842
653.196, 2138.174
654.502, 2186.484
655.807, 1773.768
657.113, 1602.023
658.418, 1643.254
659.722, 1118.459
661.027, 913.635
662.331, 762.793
663.636, 805.930
664.940, 349.051
666.244, 594.146
667.547, 259.221
668.851, 390.268
670.154, 286.287
671.457, 214.281
672.760, 262.248
674.062, 258.189
675.365, 224.152
676.667, 65.988
677.969, 162.539
679.271, 79.363
680.572, 11.264
681.874, 178.023
683.175, 238.930
684.476, 160.641
685.777, 114.322
687.077, 96.027
688.378, 204.799
689.678, 115.027
690.978, 41.607
692.278, 423.045
693.577, 241.682
694.877, 204.117
696.176, 250.008
697.475, 101.973
698.774, 126.654
700.072, 136.238
701.371, 0.850
702.669, 47.705
703.967, 120.781
705.265, 222.416
706.562, 202.691
707.860, 218.924
709.157, 140.799
710.454, 76.240
711.751, 297.475
713.047, 10.705
714.344, 238.174
715.640, 56.020
716.936, 13.869
718.232, 115.822
719.527, 102.395
720.823, 149.205
722.118, 301.781
723.413, 98.568
724.708, 202.012
726.002, 372.420
727.297, 168.258
728.591, 466.299
729.885, 579.619
731.179, 309.006
732.472, 282.840
733.766, 479.227
735.059, 511.480
736.352, 671.664
737.645, 838.088
738.937, 1233.414
740.230, 1172.633
741.522, 1612.945
742.814, 1904.303
744.106, 2589.219
745.397, 2898.293
746.689, 3219.689
747.980, 3710.268
749.271, 3541.457
750.562, 3545.879
751.853, 2785.426
753.143, 2575.564
754.433, 2101.344
755.723, 1721.299
757.013, 1779.910
758.303, 1275.334
759.592, 1280.191
760.881, 1282.104
762.170, 1425.305
763.459, 1376.182
764.748, 1200.256
766.036, 1618.047
767.325, 1059.178
768.613, 1243.344
769.901, 1179.080
771.188, 907.789
772.476, 1098.477
773.763, 509.225
775.050, 668.863
776.337, 562.479
777.624, 594.068
778.910, 480.633
780.196, 521.178
781.482, 328.010
782.768, 315.504
784.054, 569.975
785.339, 505.422
786.625, 302.846
787.910, 497.246
789.195, 322.625
790.479, 337.979
791.764, 412.311
793.048, 350.619
794.332, 557.904
795.616, 496.170
796.900, 574.410
798.183, 565.629
799.467, 667.824
800.750, 636.998
802.033, 627.148
803.316, 1344.275
804.598, 797.385
805.880, 1676.471
807.163, 1918.533
808.445, 2480.576
809.726, 3052.596
811.008, 3699.598
812.289, 3904.574
813.570, 4176.531
814.851, 3780.469
816.132, 2996.385
817.413, 2394.279
818.693, 2126.154
819.973, 1368.010
821.253, 1022.842
822.533, 1002.479
823.813, 723.271
825.092, 657.982
826.371, 599.375
827.650, 472.947
828.929, 589.486
830.208, 505.863
831.486, 97.561
832.764, 337.635
834.042, 237.346
835.320, 391.496
836.598, 219.584
837.875, 338.906
839.152, 302.885
840.429, 419.650
841.706, 185.145
842.983, 94.256
844.259, 413.506
845.536, 19.658
846.812, 60.119
848.088, 179.277
849.363, 156.768
850.639, 184.938
851.914, 18.820
853.189, 49.555
854.464, 30.943
855.739, 64.797
857.013, 30.998
858.288, 27.400
859.562, 4.795
860.836, 98.900
862.110, 1.844
863.383, 152.250
864.656, 66.883
865.930, 196.113
867.203, 121.928
868.475, 130.664
869.748, 112.377
871.020, 18.336
872.292, 276.775
873.564, 73.820
874.836, 35.941
876.108, 300.092
877.379, 217.682
878.650, 271.887
879.922, 24.635
881.192, 71.244
882.463, 143.455
883.733, 109.152
885.004, 2.807
886.274, 97.346
887.544, 187.014
888.813, 37.322
890.083, 82.316
891.352, 101.951
892.621, 204.578
893.890, 101.203
895.159, 85.178
896.427, 34.596
897.695, 60.234
898.964, 69.494
900.232, 19.018
901.499, 67.543
902.767, 42.062
904.034, 74.424
905.301, 96.049
906.568, 240.568
907.835, 131.082
909.102, 8.594
910.368, 28.098
911.634, 345.646
912.900, 255.189
914.166, 369.732
915.432, 252.271
916.697, 29.191
917.962, 341.330
919.227, 20.854
920.492, 351.367
921.757, 168.883
923.021, 273.395
924.285, 217.902
925.550, 79.404
926.813, 128.896
928.077, 213.383
929.341, 175.867
930.604, 299.342
931.867, 273.812
933.130, 20.277
934.393, 397.730
935.655, 128.180
936.918, 472.623
938.180, 279.061
939.442, 138.494
940.703, 249.926
941.965, 355.352
943.226, 148.779
944.488, 216.203
945.749, 400.625
947.009, 235.041
948.270, 237.453
949.530, 455.865
950.791, 357.273
952.051, 235.676
953.311, 147.086
954.570, 344.492
955.830, 430.898
957.089, 365.307
958.348, 388.713
959.607, 316.117
960.866, 242.520
962.124, 243.947
963.383, 242.797
964.641, 286.822
965.899, 347.266
967.156, 396.705
968.414, 522.143
969.671, 409.578
970.928, 319.014
972.185, 703.449
973.442, 406.883
974.699, 725.316
975.955, 1070.748
977.211, 559.178
978.468, 896.607
979.723, 727.039
980.979, 756.471
982.234, 1165.908
983.490, 657.660
984.745, 933.111
986.000, 1248.465
987.254, 1217.949
988.509, 1577.816
989.763, 1639.719
991.017, 2067.205
992.271, 2315.695
993.525, 2532.973
994.779, 2708.873
996.032, 2582.506
997.285, 2678.973
998.538, 1901.137
999.791, 2625.814
1001.044, 2050.518
1002.296, 2247.340
1003.548, 2073.537
1004.800, 1896.801
1006.052, 2011.074
1007.304, 1533.545
1008.555, 1592.963
1009.807, 1387.271
1011.058, 1174.982
1012.309, 1264.828
1013.559, 979.395
1014.810, 809.885
1016.060, 978.273
1017.310, 947.338
1018.560, 545.555
1019.810, 819.568
1021.060, 815.346
1022.309, 654.207
1023.558, 1109.420
1024.807, 664.791
1026.056, 777.047
1027.305, 905.404
1028.553, 1214.221
1029.801, 1094.387
1031.049, 992.939
1032.297, 1296.496
1033.545, 1450.973
1034.793, 1373.207
1036.040, 2010.568
1037.287, 1876.963
1038.534, 1945.768
1039.781, 1958.982
1041.027, 1587.811
1042.274, 1572.619
1043.520, 1577.129
1044.766, 1246.111
1046.012, 900.436
1047.257, 922.838
1048.503, 1021.178
1049.748, 791.416
1050.993, 1136.111
1052.238, 945.471
1053.483, 743.744
1054.727, 813.717
1055.971, 836.152
1057.216, 583.068
1058.459, 501.293
1059.703, 610.250
1060.947, 503.721
1062.190, 465.242
1063.433, 441.443
1064.676, 408.391
1065.919, 177.010
1067.162, 502.020
1068.404, 142.514
1069.646, 246.096
1070.888, 454.115
1072.130, 213.105
1073.372, 342.666
1074.613, 469.885
1075.855, 447.000
1077.096, 189.186
1078.337, 777.357
1079.578, 253.514
1080.818, 394.656
1082.059, 363.781
1083.299, 678.572
1084.539, 306.662
1085.779, 427.734
1087.018, 498.787
1088.258, 633.822
1089.497, 721.955
1090.736, 765.217
1091.975, 885.551
1093.213, 942.977
1094.452, 1068.877
1095.690, 1104.070
1096.928, 1193.580
1098.166, 1313.178
1099.404, 1489.090
1100.642, 1418.307
1101.879, 1592.582
1103.116, 1246.652
1104.353, 1211.717
1105.590, 1032.031
1106.827, 1112.521
1108.063, 851.191
1109.299, 1150.996
1110.536, 1143.781
1111.771, 1117.883
1113.007, 1570.887
1114.243, 1582.559
1115.478, 1767.855
1116.713, 1918.656
1117.948, 2266.578
1119.183, 2326.348
1120.418, 3180.859
1121.652, 3813.359
1122.886, 4469.504
1124.120, 4585.660
1125.354, 4144.207
1126.588, 4079.570
1127.821, 3642.023
1129.055, 3487.066
1130.288, 3230.719
1131.521, 3157.094
1132.753, 2945.910
1133.986, 3130.008
1135.218, 3940.918
1136.450, 3734.066
1137.682, 4455.379
1138.914, 4107.871
1140.146, 4002.625
1141.377, 3828.516
1142.609, 3153.824
1143.840, 2898.172
1145.071, 2499.332
1146.301, 2101.488
1147.532, 1735.730
1148.762, 1207.742
1149.992, 1093.691
1151.222, 1027.414
1152.452, 1104.043
1153.682, 628.297
1154.911, 701.148
1156.140, 393.195
1157.369, 534.441
1158.598, 292.770
1159.827, 246.836
1161.055, 221.004
1162.284, 184.355
1163.512, 256.832
1164.740, 376.551
1165.967, 8.238
1167.195, 336.578
1168.422, 119.172
1169.650, 369.223
1170.877, 489.816
1172.103, 1.512
1173.330, 75.262
1174.557, 442.652
1175.783, 201.801
1177.009, 258.535
1178.235, 196.836
1179.461, 156.168
1180.686, 102.953
1181.912, 390.527
1183.137, 271.242
1184.362, 242.078
1185.587, 219.590
1186.811, 235.395
1188.036, 283.645
1189.260, 323.891
1190.484, 180.918
1191.708, 285.816
1192.932, 19.168
1194.155, 273.992
1195.378, 258.652
1196.602, 201.238
1197.825, 1.270
1199.047, 417.715
1200.270, 174.355
1201.492, 679.836
1202.715, 148.598
1203.937, 331.223
1205.159, 257.176
1206.380, 522.230
1207.602, 119.367
1208.823, 421.566
1210.044, 257.457
1211.265, 316.895
1212.486, 393.699
1213.707, 228.449
1214.927, 420.668
1216.147, 314.328
1217.367, 291.555
1218.587, 297.109
1219.807, 397.598
1221.027, 518.480
1222.246, 896.348
1223.465, 770.668
1224.684, 861.367
1225.903, 753.379
1227.121, 755.727
1228.340, 553.777
1229.558, 750.750
1230.776, 987.668
1231.994, 1039.523
1233.212, 949.309
1234.429, 706.141
1235.646, 231.594
1236.864, 436.156
1238.081, 139.918
1239.297, 285.270
1240.514, 432.484
1241.730, 439.598
1242.947, 360.879
1244.163, 335.828
1245.378, 495.707
1246.594, 264.508
1247.810, 40.426
1249.025, 446.008
1250.240, 203.504
1251.455, 156.043
1252.670, 332.270
1253.885, 284.344
1255.099, 246.320
1256.313, 38.797
1257.527, 25.074
1258.741, 422.277
1259.955, 38.500
1261.168, 339.793
1262.382, 450.684
1263.595, 261.805
1264.808, 152.434
1266.021, 259.938
1267.233, 254.453
1268.446, 332.730
1269.658, 322.969
1270.870, 222.281
1272.082, 258.266
1273.294, 229.168
1274.505, 134.969
1275.716, 178.668
1276.928, 14.262
1278.139, 348.746
1279.349, 113.129
1280.560, 132.395
1281.770, 241.551
1282.981, 19.402
1284.191, 379.516
1285.401, 133.328
1286.610, 13.980
1287.820, 177.699
1289.029, 101.855
1290.239, 3.691
1291.448, 182.582
1292.656, 33.617
1293.865, 189.527
1295.073, 192.324
1296.282, 224.059
1297.490, 237.230
1298.698, 319.051
1299.906, 184.410
1301.113, 157.676
1302.320, 128.836
1303.528, 12.121
1304.735, 80.797
1305.942, 95.410
1307.148, 221.801
1308.355, 190.023
1309.561, 350.266
1310.767, 69.688
1311.973, 86.758
1313.179, 134.023
1314.384, 78.125
1315.590, 140.152
1316.795, 121.023
1318.000, 111.371
1319.205, 317.961
1320.410, 79.578
1321.614, 251.480
1322.819, 248.055
1324.023, 66.332
1325.227, 155.543
1326.431, 172.574
1327.634, 218.285
1328.838, 77.777
1330.041, 156.508
1331.244, 112.598
1332.447, 55.273
1333.650, 56.000
1334.852, 80.359
1336.055, 194.988
1337.257, 315.414
1338.459, 40.660
1339.661, 224.688
1340.862, 236.270
1342.064, 14.672
1343.265, 145.258
1344.466, 390.254
1345.667, 183.836
1346.868, 391.484
1348.068, 310.496
1349.269, 265.688
1350.469, 651.062
1351.669, 379.703
1352.869, 595.250
1354.069, 535.691
1355.268, 333.047
1356.468, 657.305
1357.667, 555.141
1358.866, 351.980
1360.065, 605.449
1361.263, 328.191
1362.462, 779.953
1363.660, 709.758
1364.858, 253.238
1366.056, 601.609
1367.254, 618.121
1368.451, 354.363
1369.649, 261.602
1370.846, 576.945
1372.043, 403.859
1373.240, 528.367
1374.436, 639.543
1375.633, 563.551
1376.829, 490.391
1378.025, 433.238
1379.221, 269.125
1380.417, 506.430
1381.613, 386.766
1382.808, 525.289
1384.003, 505.570
1385.199, 637.828
1386.393, 366.723
1387.588, 470.152
1388.783, 434.422
1389.977, 496.684
1391.171, 362.801
1392.365, 427.773
1393.559, 476.938
1394.753, 385.160
1395.946, 616.660
1397.140, 532.586
1398.333, 608.156
1399.526, 422.836
1400.719, 478.574
1401.911, 374.844
1403.104, 543.434
1404.296, 217.605
1405.488, 690.027
1406.680, 148.730
1407.872, 275.484
1409.063, 372.848
1410.255, 195.008
1411.446, 433.453
1412.637, 0.691
1413.828, 177.691
1415.018, 352.137
1416.209, 289.004
1417.399, 435.789
1418.589, 571.691
1419.779, 434.629
1420.969, 535.613
1422.159, 308.781
1423.348, 370.711
1424.537, 355.262
1425.726, 319.875
1426.915, 263.703
1428.104, 374.742
1429.293, 223.324
1430.481, 113.133
1431.669, 370.938
1432.857, 359.621
1434.045, 221.609
1435.233, 544.590
1436.420, 561.492
1437.608, 329.270
1438.795, 484.941
1439.982, 571.574
1441.169, 412.535
1442.355, 400.727
1443.542, 666.734
1444.728, 238.426
1445.914, 488.809
1447.100, 497.641
1448.286, 495.332
1449.472, 256.945
1450.657, 690.590
1451.842, 368.355
1453.027, 354.219
1454.212, 755.645
1455.397, 245.086
1456.581, 390.930
1457.766, 469.316
1458.950, 363.238
1460.134, 807.668
1461.318, 87.473
1462.501, 228.137
1463.685, 681.402
1464.868, 98.438
1466.051, 881.453
1467.234, 17.355
1468.417, 372.168
1469.600, 667.266
1470.782, 572.293
1471.965, 287.762
1473.147, 635.254
1474.329, 452.305
1475.510, 0.605
1476.692, 0.000
##END=



