##NAMES=Microcline
##RRUFFID=R040154
##IDEAL CHEMISTRY=KAlSi_3_O_8_
##LOCALITY=Mitchell County, North Carolina, USA
##OWNER=RRUFF
##SOURCE=University of Arizona Mineral Museum
##DESCRIPTION=White cleavage fragment with some perthitic character
##STATUS=The identification of this mineral has been confirmed by X-ray diffraction and chemical analysis
##URL=rruff.info/R040154
##MEASURED CHEMISTRY=(K_0.90_Na_0.09_Ba_0.01_)Al_1.00_(Si_2.99_Al_0.01_)_Î£=3_O_8_
##PIN_ID=L00158
##ORIENTATION=Laser parallel to b* (0 1 0). Fiducial mark perpendicular to laser is parallel to c [0 0 1]
80.823, 0.000
82.218, 12.753
83.614, 31.362
85.009, 41.134
86.404, 442.410
87.798, 953.708
89.193, 1705.904
90.587, 2283.801
91.981, 2882.106
93.375, 3046.273
94.768, 3099.252
96.161, 2689.448
97.554, 2322.649
98.947, 2098.235
100.340, 1886.032
101.732, 1813.479
103.124, 1802.727
104.516, 1873.089
105.908, 1905.042
107.300, 1721.179
108.691, 1467.180
110.082, 1102.790
111.473, 813.869
112.864, 633.290
114.254, 715.976
115.644, 744.293
117.034, 1068.415
118.424, 1130.364
119.813, 1568.499
121.203, 1991.656
122.592, 2737.610
123.981, 3303.366
125.369, 3828.939
126.758, 4046.360
128.146, 4072.669
129.534, 4094.897
130.922, 3707.068
132.309, 3233.202
133.696, 2856.312
135.083, 2938.413
136.470, 2901.518
137.857, 3322.635
139.243, 4150.805
140.630, 5175.672
142.016, 6756.195
143.401, 8919.677
144.787, 11201.113
146.172, 13353.565
147.557, 15005.537
148.942, 15854.963
150.327, 15770.013
151.711, 14776.474
153.096, 13286.661
154.480, 11159.251
155.863, 9413.361
157.247, 7689.764
158.630, 6246.507
160.013, 5174.132
161.396, 4175.904
162.779, 3465.706
164.161, 2893.521
165.544, 2429.221
166.926, 2127.899
168.308, 1974.613
169.689, 1945.394
171.070, 2247.320
172.452, 2627.430
173.833, 2976.720
175.213, 3556.243
176.594, 3615.946
177.974, 3830.775
179.354, 3705.723
180.734, 3279.787
182.114, 2839.967
183.493, 2515.261
184.872, 1975.665
186.251, 1722.176
187.630, 1504.792
189.008, 1395.508
190.387, 1577.321
191.765, 1792.228
193.143, 2152.227
194.520, 2592.313
195.898, 2931.484
197.275, 3124.962
198.652, 3186.654
200.029, 2975.249
201.405, 2500.556
202.782, 1925.182
204.158, 1431.100
205.534, 1166.069
206.909, 654.089
208.285, 462.158
209.660, 401.277
211.035, 161.865
212.410, 13.669
213.784, 2.444
215.159, 0.205
216.533, 146.676
217.907, 159.744
219.281, 140.763
220.654, 231.735
222.027, 149.662
223.400, 176.545
224.773, 119.388
226.146, 153.193
227.518, 145.958
228.891, 164.686
230.263, 120.390
231.634, 167.101
233.006, 109.915
234.377, 92.865
235.748, 137.714
237.119, 118.790
238.490, 67.041
239.860, 10.626
241.231, 84.849
242.601, 95.799
243.970, 307.389
245.340, 453.024
246.709, 620.513
248.079, 1209.085
249.448, 1598.382
250.816, 2187.669
252.185, 2956.737
253.553, 3692.442
254.921, 4438.680
256.289, 4886.368
257.657, 5234.445
259.024, 5492.858
260.391, 5906.396
261.758, 6065.064
263.125, 6316.479
264.492, 6586.913
265.858, 6297.008
267.224, 6142.285
268.590, 5150.826
269.956, 4534.062
271.321, 3986.597
272.687, 3885.166
274.052, 3378.467
275.416, 3489.856
276.781, 3939.320
278.146, 4678.872
279.510, 5930.488
280.874, 7102.156
282.237, 8367.878
283.601, 9025.642
284.964, 9229.419
286.327, 9245.204
287.690, 8379.012
289.053, 7282.830
290.416, 6520.656
291.778, 5565.510
293.140, 5097.373
294.502, 4417.246
295.863, 4065.125
297.225, 3790.014
298.586, 3321.912
299.947, 2862.819
301.308, 2320.735
302.668, 1784.658
304.029, 1415.592
305.389, 1119.528
306.749, 819.468
308.108, 541.409
309.468, 384.353
310.827, 286.297
312.186, 36.226
313.545, 18.062
314.903, 109.263
316.262, 107.817
317.620, 9.549
318.978, 96.436
320.336, 18.484
321.693, 82.329
323.051, 208.046
324.408, 341.694
325.765, 756.357
327.121, 1024.039
328.478, 1118.738
329.834, 1460.456
331.190, 1325.193
332.546, 1235.949
333.902, 876.725
335.257, 614.517
336.612, 355.327
337.967, 294.153
339.322, 9.994
340.677, 2.833
342.031, 90.333
343.385, 21.472
344.739, 17.724
346.093, 90.931
347.446, 28.832
348.799, 124.593
350.153, 378.360
351.505, 759.141
352.858, 827.929
354.210, 1098.727
355.563, 1248.532
356.915, 1142.347
358.267, 1105.169
359.618, 968.999
360.969, 824.826
362.321, 785.586
363.672, 874.285
365.022, 1216.942
366.373, 1493.604
367.723, 2075.273
369.073, 2656.973
370.423, 3133.682
371.773, 3191.404
373.122, 3192.144
374.471, 2680.890
375.821, 1987.926
377.169, 1526.474
378.518, 856.831
379.866, 613.736
381.215, 405.971
382.563, 261.174
383.910, 156.755
385.258, 139.483
386.605, 192.845
387.952, 22.060
389.299, 103.552
390.646, 241.390
391.992, 299.272
393.339, 606.365
394.685, 918.098
396.031, 1780.693
397.376, 2467.115
398.722, 3641.284
400.067, 4604.408
401.412, 5372.025
402.757, 5949.879
404.101, 5311.766
405.446, 4213.666
406.790, 3385.577
408.134, 2797.502
409.478, 2348.469
410.821, 2143.474
412.165, 1878.507
413.508, 1580.564
414.851, 1135.642
416.193, 785.737
417.536, 447.848
418.878, 251.971
420.220, 151.104
421.562, 91.754
422.904, 29.336
424.245, 9.424
425.586, 25.496
426.927, 39.559
428.268, 68.389
429.609, 18.388
430.949, 10.405
432.289, 46.555
433.629, 51.041
434.969, 147.104
436.309, 211.945
437.648, 366.971
438.987, 435.212
440.326, 594.619
441.665, 822.611
443.003, 1096.706
444.342, 1538.675
445.680, 2042.393
447.018, 2801.326
448.355, 3584.591
449.693, 4789.189
451.030, 5862.113
452.367, 6880.247
453.704, 6979.328
455.041, 6970.236
456.377, 6620.141
457.713, 6020.037
459.049, 5567.933
460.385, 5525.823
461.721, 5759.707
463.056, 6371.586
464.391, 7488.459
465.726, 9518.329
467.061, 12185.191
468.395, 15761.052
469.730, 20795.904
471.064, 25690.754
472.398, 31221.596
473.731, 34027.867
475.065, 34999.305
476.398, 32738.807
477.731, 28537.318
479.064, 23545.129
480.397, 19465.174
481.729, 16097.408
483.062, 13545.686
484.394, 11362.517
485.725, 9297.360
487.057, 7589.209
488.389, 6059.062
489.720, 4932.920
491.051, 4318.780
492.382, 3927.640
493.712, 3761.528
495.043, 3825.417
496.373, 4016.305
497.703, 4358.193
499.032, 5206.080
500.362, 6279.473
501.691, 7845.457
503.020, 10139.218
504.349, 13737.079
505.678, 18221.861
507.007, 24139.467
508.335, 31090.574
509.663, 38492.270
510.991, 45233.160
512.319, 47738.043
513.646, 47522.930
514.973, 41638.812
516.300, 35056.699
517.627, 27267.684
518.954, 20604.576
520.280, 16205.137
521.607, 12097.035
522.933, 9404.286
524.259, 7490.844
525.584, 6053.769
526.910, 5127.788
528.235, 4099.262
529.560, 3536.535
530.885, 2899.793
532.209, 2577.517
533.534, 2344.085
534.858, 2013.231
536.182, 1796.962
537.506, 1658.047
538.829, 1390.050
540.152, 1245.699
541.476, 1191.239
542.799, 884.701
544.121, 916.135
545.444, 834.315
546.766, 666.528
548.088, 669.690
549.410, 611.876
550.732, 634.187
552.053, 512.532
553.375, 514.290
554.696, 463.319
556.017, 433.749
557.337, 438.194
558.658, 345.672
559.978, 196.171
561.298, 363.688
562.618, 219.200
563.938, 267.711
565.257, 328.227
566.576, 197.745
567.895, 344.272
569.214, 291.810
570.533, 246.344
571.851, 220.871
573.170, 446.400
574.488, 277.935
575.805, 482.460
577.123, 465.979
578.440, 579.491
579.758, 649.996
581.075, 586.659
582.391, 612.438
583.708, 587.014
585.024, 540.163
586.341, 487.125
587.657, 474.063
588.972, 354.878
590.288, 153.118
591.603, 17.168
592.918, 47.273
594.233, 0.731
595.548, 52.172
596.863, 42.394
598.177, 23.002
599.491, 57.384
600.805, 55.243
602.119, 68.918
603.432, 6.354
604.746, 77.609
606.059, 57.145
607.372, 12.054
608.685, 187.235
609.997, 54.590
611.309, 47.539
612.621, 108.655
613.933, 124.762
615.245, 107.860
616.557, 158.948
617.868, 316.026
619.179, 200.100
620.490, 233.163
621.801, 476.220
623.111, 430.268
624.421, 698.411
625.731, 496.439
627.041, 859.624
628.351, 690.752
629.660, 742.748
630.970, 983.735
632.279, 785.141
633.588, 866.127
634.896, 808.975
636.205, 1090.139
637.513, 921.672
638.821, 1200.252
640.129, 1293.538
641.437, 1455.675
642.744, 1601.342
644.051, 1848.049
645.358, 2184.318
646.665, 2375.746
647.972, 2606.077
649.278, 2737.094
650.584, 2774.646
651.890, 2739.757
653.196, 2679.615
654.502, 2418.757
655.807, 2163.709
657.113, 1843.647
658.418, 1691.591
659.722, 1317.538
661.027, 1065.513
662.331, 902.488
663.636, 809.473
664.940, 466.486
666.244, 589.575
667.547, 339.647
668.851, 438.634
670.154, 177.763
671.457, 124.154
672.760, 223.097
674.062, 76.325
675.365, 113.238
676.667, 37.470
677.969, 158.882
679.271, 22.462
680.572, 90.744
681.874, 109.897
683.175, 87.173
684.476, 40.757
685.777, 68.128
687.077, 15.945
688.378, 3.728
689.678, 41.423
690.978, 2.639
692.278, 218.797
693.577, 28.458
694.877, 59.550
696.176, 61.513
697.475, 77.950
698.774, 85.583
700.072, 93.361
701.371, 136.586
702.669, 166.635
703.967, 199.932
705.265, 392.312
706.562, 393.234
707.860, 396.209
709.157, 711.276
710.454, 552.499
711.751, 708.417
713.047, 541.433
714.344, 648.877
715.640, 428.731
716.936, 401.036
718.232, 553.080
719.527, 357.862
720.823, 303.663
722.118, 329.425
723.413, 237.404
724.708, 252.228
726.002, 375.207
727.297, 313.354
728.591, 374.649
729.885, 447.839
731.179, 387.580
732.472, 447.438
733.766, 572.091
735.059, 656.773
736.352, 978.544
737.645, 844.345
738.937, 1321.634
740.230, 1533.795
741.522, 1708.512
742.814, 2360.262
744.106, 2914.143
745.397, 3607.179
746.689, 4027.340
747.980, 4576.193
749.271, 4760.595
750.562, 4471.042
751.853, 3679.866
753.143, 3155.864
754.433, 2669.671
755.723, 2001.867
757.013, 1805.932
758.303, 1480.275
759.592, 1361.665
760.881, 1141.885
762.170, 1135.674
763.459, 994.101
764.748, 792.612
766.036, 944.450
767.325, 702.314
768.613, 683.324
769.901, 612.311
771.188, 488.273
772.476, 488.215
773.763, 261.981
775.050, 294.972
776.337, 327.509
777.624, 177.358
778.910, 144.186
780.196, 274.987
781.482, 129.767
782.768, 141.521
784.054, 182.253
785.339, 270.961
786.625, 90.646
787.910, 200.306
789.195, 54.941
790.479, 143.548
791.764, 83.129
793.048, 80.682
794.332, 126.208
795.616, 159.709
796.900, 23.281
798.183, 21.720
799.467, 120.120
800.750, 27.494
802.033, 101.833
803.316, 297.145
804.598, 60.566
805.880, 232.643
807.163, 332.829
808.445, 129.991
809.726, 358.130
811.008, 312.244
812.289, 309.338
813.570, 439.406
814.851, 400.452
816.132, 307.475
817.413, 279.475
818.693, 236.950
819.973, 152.403
821.253, 153.332
822.533, 216.235
823.813, 132.117
825.092, 77.974
826.371, 219.802
827.650, 97.609
828.929, 205.288
830.208, 89.046
831.486, 2.898
832.764, 39.211
834.042, 28.079
835.320, 22.034
836.598, 48.055
837.875, 70.037
839.152, 94.001
840.429, 105.143
841.706, 105.275
842.983, 78.921
844.259, 76.695
845.536, 53.869
846.812, 60.558
848.088, 41.383
849.363, 62.162
850.639, 70.608
851.914, 18.064
853.189, 16.188
854.464, 71.606
855.739, 176.666
857.013, 43.709
858.288, 20.731
859.562, 54.266
860.836, 7.313
862.110, 26.389
863.383, 36.500
864.656, 109.369
865.930, 74.222
867.203, 19.942
868.475, 135.862
869.748, 19.349
871.020, 43.410
872.292, 10.849
873.564, 30.132
874.836, 30.450
876.108, 50.803
877.379, 65.199
878.650, 21.353
879.922, 1.112
881.192, 27.598
882.463, 43.113
883.733, 52.334
885.004, 17.767
886.274, 60.182
887.544, 46.584
888.813, 18.910
890.083, 12.341
891.352, 13.303
892.621, 32.968
893.890, 18.338
895.159, 45.371
896.427, 48.113
897.695, 9.400
898.964, 36.686
900.232, 78.490
901.499, 39.657
902.767, 111.812
904.034, 10.039
905.301, 92.094
906.568, 88.232
907.835, 170.363
909.102, 91.481
910.368, 25.609
911.634, 208.748
912.900, 48.879
914.166, 138.998
915.432, 73.126
916.697, 7.752
917.962, 133.357
919.227, 117.475
920.492, 101.586
921.757, 133.767
923.021, 74.559
924.285, 136.863
925.550, 24.061
926.813, 32.000
928.077, 18.949
929.341, 109.085
930.604, 168.111
931.867, 128.027
933.130, 184.039
934.393, 310.874
935.655, 51.749
936.918, 303.738
938.180, 116.722
939.442, 94.275
940.703, 141.240
941.965, 143.366
943.226, 118.199
944.488, 134.662
945.749, 293.102
947.009, 134.837
948.270, 14.707
949.530, 223.028
950.791, 257.291
952.051, 226.972
953.311, 185.479
954.570, 211.064
955.830, 259.951
957.089, 322.284
958.348, 252.162
959.607, 200.037
960.866, 158.733
962.124, 236.604
963.383, 333.470
964.641, 180.332
965.899, 289.190
967.156, 298.046
968.414, 176.896
969.671, 250.746
970.928, 219.593
972.185, 301.365
973.442, 325.141
974.699, 475.983
975.955, 396.669
977.211, 361.092
978.468, 453.946
979.723, 416.511
980.979, 458.375
982.234, 742.908
983.490, 475.258
984.745, 701.349
986.000, 833.361
987.254, 772.400
988.509, 1162.789
989.763, 1183.373
991.017, 1547.102
992.271, 1850.893
993.525, 2004.697
994.779, 2280.412
996.032, 2071.205
997.285, 2085.912
998.538, 1445.123
999.791, 1743.578
1001.044, 1288.914
1002.296, 1577.760
1003.548, 1304.586
1004.800, 1228.166
1006.052, 1276.281
1007.304, 1174.553
1008.555, 919.562
1009.807, 876.482
1011.058, 880.846
1012.309, 918.162
1013.559, 692.369
1014.810, 761.402
1016.060, 737.727
1017.310, 955.934
1018.560, 783.693
1019.810, 863.027
1021.060, 935.916
1022.309, 869.043
1023.558, 1281.430
1024.807, 1074.779
1026.056, 1316.170
1027.305, 1544.326
1028.553, 1666.621
1029.801, 1732.771
1031.049, 1579.732
1032.297, 1591.545
1033.545, 1685.439
1034.793, 1502.764
1036.040, 1545.994
1037.287, 1594.469
1038.534, 1495.848
1039.781, 1722.248
1041.027, 1480.523
1042.274, 1566.348
1043.520, 1669.234
1044.766, 1702.562
1046.012, 1815.877
1047.257, 1802.258
1048.503, 2237.516
1049.748, 2158.420
1050.993, 2688.188
1052.238, 2556.717
1053.483, 2519.988
1054.727, 2272.092
1055.971, 2158.301
1057.216, 1753.215
1058.459, 1655.977
1059.703, 1360.664
1060.947, 1289.178
1062.190, 837.957
1063.433, 905.576
1064.676, 757.262
1065.919, 629.467
1067.162, 751.719
1068.404, 539.627
1069.646, 422.896
1070.888, 615.582
1072.130, 362.672
1073.372, 443.086
1074.613, 542.768
1075.855, 531.295
1077.096, 538.684
1078.337, 669.135
1079.578, 483.332
1080.818, 444.840
1082.059, 465.559
1083.299, 549.227
1084.539, 656.566
1085.779, 652.861
1087.018, 742.076
1088.258, 646.646
1089.497, 809.309
1090.736, 819.971
1091.975, 766.945
1093.213, 1052.604
1094.452, 1228.668
1095.690, 983.324
1096.928, 1296.383
1098.166, 1397.266
1099.404, 1530.195
1100.642, 1407.850
1101.879, 1608.277
1103.116, 1487.209
1104.353, 1724.902
1105.590, 1630.242
1106.827, 2080.256
1108.063, 2008.934
1109.299, 2387.156
1110.536, 2596.959
1111.771, 2871.271
1113.007, 3618.219
1114.243, 4036.502
1115.478, 4628.562
1116.713, 5609.791
1117.948, 6974.252
1119.183, 8051.584
1120.418, 9963.764
1121.652, 13576.117
1122.886, 13220.906
1124.120, 13731.188
1125.354, 13337.406
1126.588, 12405.691
1127.821, 10992.645
1129.055, 9982.355
1130.288, 8637.027
1131.521, 7823.803
1132.753, 6959.793
1133.986, 6876.176
1135.218, 7071.361
1136.450, 6698.703
1137.682, 7266.750
1138.914, 6989.197
1140.146, 6748.699
1141.377, 6047.611
1142.609, 5361.393
1143.840, 4618.230
1145.071, 4057.264
1146.301, 3445.977
1147.532, 2917.625
1148.762, 2427.117
1149.992, 2039.936
1151.222, 1600.412
1152.452, 1647.760
1153.682, 1265.887
1154.911, 1299.717
1156.140, 911.893
1157.369, 939.795
1158.598, 685.246
1159.827, 833.758
1161.055, 473.379
1162.284, 606.990
1163.512, 377.102
1164.740, 518.930
1165.967, 333.639
1167.195, 493.736
1168.422, 413.789
1169.650, 414.213
1170.877, 271.920
1172.103, 296.764
1173.330, 249.316
1174.557, 314.703
1175.783, 303.658
1177.009, 333.031
1178.235, 161.461
1179.461, 308.814
1180.686, 227.000
1181.912, 320.451
1183.137, 281.377
1184.362, 124.541
1185.587, 163.758
1186.811, 109.953
1188.036, 237.051
1189.260, 137.461
1190.484, 203.102
1191.708, 285.477
1192.932, 146.311
1194.155, 115.031
1195.378, 116.500
1196.602, 235.006
1197.825, 152.086
1199.047, 200.146
1200.270, 37.654
1201.492, 267.762
1202.715, 55.729
1203.937, 128.477
1205.159, 167.121
1206.380, 221.893
1207.602, 240.766
1208.823, 167.840
1210.044, 199.441
1211.265, 224.014
1212.486, 70.557
1213.707, 259.170
1214.927, 144.822
1216.147, 59.598
1217.367, 213.475
1218.587, 104.865
1219.807, 29.223
1221.027, 323.543
1222.246, 40.023
1223.465, 150.395
1224.684, 277.619
1225.903, 87.057
1227.121, 14.217
1228.340, 203.430
1229.558, 286.633
1230.776, 57.814
1231.994, 70.346
1233.212, 113.539
1234.429, 221.635
1235.646, 292.551
1236.864, 240.434
1238.081, 152.285
1239.297, 233.098
1240.514, 132.877
1241.730, 250.635
1242.947, 136.369
1244.163, 157.084
1245.378, 170.771
1246.594, 262.430
1247.810, 55.266
1249.025, 175.869
1250.240, 19.445
1251.455, 81.156
1252.670, 166.990
1253.885, 28.475
1255.099, 118.080
1256.313, 15.480
1257.527, 97.834
1258.741, 185.148
1259.955, 105.412
1261.168, 158.717
1262.382, 118.889
1263.595, 63.014
1264.808, 94.096
1266.021, 1.916
1267.233, 89.051
1268.446, 223.957
1269.658, 1.826
1270.870, 32.053
1272.082, 104.658
1273.294, 26.701
1274.505, 37.881
1275.716, 42.416
1276.928, 54.096
1278.139, 175.303
1279.349, 46.369
1280.560, 131.865
1281.770, 95.006
1282.981, 13.076
1284.191, 75.100
1285.401, 14.002
1286.610, 23.834
1287.820, 34.576
1289.029, 161.736
1290.239, 156.805
1291.448, 41.270
1292.656, 50.350
1293.865, 291.980
1295.073, 35.271
1296.282, 73.492
1297.490, 39.330
1298.698, 136.771
1299.906, 204.824
1301.113, 15.836
1302.320, 28.791
1303.528, 72.697
1304.735, 56.445
1305.942, 52.340
1307.148, 53.078
1308.355, 19.764
1309.561, 184.393
1310.767, 41.975
1311.973, 20.502
1313.179, 48.020
1314.384, 268.387
1315.590, 42.254
1316.795, 166.031
1318.000, 55.734
1319.205, 67.410
1320.410, 26.498
1321.614, 82.473
1322.819, 229.471
1324.023, 35.639
1325.227, 324.176
1326.431, 55.941
1327.634, 124.355
1328.838, 0.750
1330.041, 73.738
1331.244, 40.223
1332.447, 57.480
1333.650, 49.869
1334.852, 149.111
1336.055, 50.352
1337.257, 104.543
1338.459, 74.354
1339.661, 38.525
1340.862, 156.293
1342.064, 16.756
1343.265, 66.037
1344.466, 137.877
1345.667, 225.080
1346.868, 252.822
1348.068, 303.000
1349.269, 97.428
1350.469, 275.965
1351.669, 175.527
1352.869, 259.047
1354.069, 421.432
1355.268, 327.053
1356.468, 324.295
1357.667, 269.205
1358.866, 252.518
1360.065, 214.572
1361.263, 184.520
1362.462, 368.717
1363.660, 417.467
1364.858, 342.861
1366.056, 245.953
1367.254, 263.309
1368.451, 335.623
1369.649, 233.615
1370.846, 352.051
1372.043, 268.141
1373.240, 263.066
1374.436, 259.859
1375.633, 166.498
1376.829, 238.549
1378.025, 252.723
1379.221, 336.281
1380.417, 338.709
1381.613, 340.057
1382.808, 312.002
1384.003, 433.207
1385.199, 347.750
1386.393, 405.094
1387.588, 355.463
1388.783, 381.166
1389.977, 394.088
1391.171, 240.324
1392.365, 313.111
1393.559, 337.609
1394.753, 80.924
1395.946, 215.760
1397.140, 335.588
1398.333, 255.809
1399.526, 369.035
1400.719, 442.496
1401.911, 340.908
1403.104, 363.289
1404.296, 258.740
1405.488, 512.730
1406.680, 421.711
1407.872, 480.023
1409.063, 504.805
1410.255, 261.066
1411.446, 490.539
1412.637, 159.787
1413.828, 284.354
1415.018, 377.053
1416.209, 263.531
1417.399, 285.895
1418.589, 536.439
1419.779, 289.627
1420.969, 430.971
1422.159, 337.924
1423.348, 422.590
1424.537, 575.727
1425.726, 493.596
1426.915, 405.188
1428.104, 371.520
1429.293, 267.699
1430.481, 257.713
1431.669, 271.404
1432.857, 347.863
1434.045, 271.781
1435.233, 332.818
1436.420, 473.988
1437.608, 380.582
1438.795, 454.752
1439.982, 445.385
1441.169, 462.992
1442.355, 459.348
1443.542, 610.936
1444.728, 350.475
1445.914, 331.719
1447.100, 479.326
1448.286, 447.949
1449.472, 266.752
1450.657, 677.195
1451.842, 648.600
1453.027, 378.982
1454.212, 600.541
1455.397, 327.002
1456.581, 626.281
1457.766, 576.344
1458.950, 460.785
1460.134, 641.453
1461.318, 388.646
1462.501, 390.498
1463.685, 526.594
1464.868, 276.574
1466.051, 690.273
1467.234, 383.072
1468.417, 369.918
1469.600, 545.766
1470.782, 390.574
1471.965, 375.404
1473.147, 557.123
1474.329, 445.910
1475.510, 287.957
1476.692, 378.154
1477.873, 336.721
1479.055, 313.500
1480.236, 461.641
1481.416, 433.045
1482.597, 435.404
1483.778, 366.732
1484.958, 353.996
1486.138, 205.221
1487.318, 172.369
1488.498, 200.535
1489.678, 94.674
1490.857, 288.775
1492.037, 392.857
1493.216, 240.957
1494.395, 77.225
1495.574, 230.578
1496.752, 42.047
1497.931, 262.664
1499.109, 31.449
1500.287, 111.404
1501.465, 58.527
1502.643, 19.207
1503.820, 113.156
1504.998, 130.604
1506.175, 55.160
1507.352, 248.857
1508.529, 88.734
1509.706, 3.168
1510.882, 290.172
1512.059, 181.373
1513.235, 146.373
1514.411, 7.088
1515.587, 51.359
1516.762, 3.307
1517.938, 140.629
1519.113, 159.926
1520.288, 217.094
1521.463, 153.039
1522.638, 47.227
1523.813, 55.355
1524.987, 0.000
##END=



