##NAMES=Microcline
##RRUFFID=R050054
##IDEAL CHEMISTRY=KAlSi_3_O_8_
##LOCALITY=Kenticha, Negele area, Sidamo Province, Ethiopia
##OWNER=RRUFF
##SOURCE=Rock Currier
##DESCRIPTION=Light blue single crystal
##STATUS=The identification of this mineral has been confirmed by X-ray diffraction and chemical analysis
##URL=rruff.info/R050054
##MEASURED CHEMISTRY=(K_0.96_Na_0.04_)Al_1.00_Si_3.00_O_8_
##PIN_ID=L00301
##ORIENTATION=Laser parallel to -c* (0 0 -1). Fiducial mark perpendicular to laser is parallel to a [1 0 0]
49.365, 0.000
50.765, 1.321
52.166, 38.352
53.566, 146.756
54.966, 262.337
56.365, 428.258
57.765, 568.881
59.164, 663.104
60.563, 775.917
61.962, 945.315
63.360, 1052.294
64.758, 1027.683
66.157, 952.293
67.554, 911.254
68.952, 957.472
70.349, 945.552
71.747, 923.199
73.144, 806.903
74.540, 732.235
75.937, 615.066
77.333, 581.085
78.729, 503.886
80.125, 277.182
81.521, 136.684
82.916, 116.370
84.311, 66.222
85.706, 32.224
87.101, 16.639
88.496, 16.620
89.890, 5.997
91.284, 29.506
92.678, 11.855
94.071, 45.975
95.465, 52.670
96.858, 28.955
98.251, 20.010
99.644, 15.773
101.036, 70.165
102.428, 112.346
103.820, 227.562
105.212, 309.806
106.604, 487.078
107.995, 703.373
109.387, 823.689
110.777, 1090.024
112.168, 1196.374
113.559, 1413.735
114.949, 1367.108
116.339, 1252.488
117.729, 1246.875
119.119, 1291.370
120.508, 1316.656
121.897, 1519.048
123.286, 1820.439
124.675, 2087.828
126.063, 2135.212
127.452, 2063.600
128.840, 1915.049
130.228, 1760.606
131.615, 1749.223
133.003, 1740.076
134.390, 2012.405
135.777, 2295.113
137.164, 2916.593
138.550, 3482.057
139.937, 4018.949
141.323, 4594.976
142.709, 5124.848
144.094, 5372.881
145.480, 5678.960
146.865, 5792.263
148.250, 5796.410
149.635, 6200.427
151.019, 7054.294
152.403, 8087.979
153.788, 9751.507
155.171, 11144.856
156.555, 12598.027
157.939, 13471.106
159.322, 14074.189
160.705, 13807.270
162.088, 13200.352
163.470, 11843.430
164.853, 10146.494
166.235, 9109.539
167.617, 8102.563
168.998, 7745.561
170.380, 7338.537
171.761, 7421.490
173.142, 7324.419
174.523, 7747.327
175.904, 8340.213
177.284, 9023.077
178.664, 9945.915
180.044, 11008.732
181.424, 12131.522
182.803, 12734.292
184.183, 13207.037
185.562, 13039.753
186.940, 12152.447
188.319, 10785.116
189.698, 9327.766
191.076, 7800.385
192.454, 6802.983
193.831, 5720.558
195.209, 5208.107
196.586, 4679.636
197.963, 4574.137
199.340, 4392.617
200.717, 4362.073
202.093, 4646.506
203.470, 5312.981
204.846, 6006.154
206.221, 6830.424
207.597, 7425.901
208.972, 7331.409
210.347, 6756.750
211.722, 5632.601
213.097, 4399.023
214.472, 3195.644
215.846, 2385.793
217.220, 1662.873
218.594, 1236.479
219.967, 907.434
221.341, 651.263
222.714, 523.585
224.087, 405.926
225.460, 365.441
226.832, 297.827
228.204, 188.872
229.577, 198.692
230.948, 153.675
232.320, 214.472
233.692, 164.151
235.063, 204.291
236.434, 187.940
237.805, 269.105
239.175, 312.815
240.545, 387.251
241.916, 459.329
243.286, 529.238
244.655, 860.853
246.025, 1184.504
247.394, 1790.984
248.763, 2338.280
250.132, 2934.951
251.501, 3338.215
252.869, 3503.506
254.237, 3603.118
255.605, 3489.605
256.973, 3208.071
258.340, 2986.010
259.708, 2778.126
261.075, 2687.766
262.442, 2696.457
263.808, 2855.464
265.175, 2875.785
266.541, 2910.063
267.907, 2868.419
269.273, 2748.882
270.639, 2613.724
272.004, 2644.768
273.369, 2779.067
274.734, 3033.112
276.099, 3595.974
277.463, 4506.741
278.828, 5677.041
280.192, 7331.536
281.556, 9573.750
282.919, 12235.869
284.283, 15257.978
285.646, 18610.070
287.009, 22022.154
288.372, 24214.232
289.734, 25566.289
291.097, 24528.340
292.459, 21460.375
293.821, 17342.402
295.183, 13354.413
296.544, 9946.409
297.905, 7338.392
299.266, 5522.359
300.627, 4062.307
301.988, 3022.233
303.348, 2411.128
304.709, 2004.984
306.069, 1667.798
307.428, 1397.572
308.788, 1241.308
310.147, 1159.015
311.507, 1021.701
312.865, 914.364
314.224, 829.008
315.583, 780.631
316.941, 933.235
318.299, 1152.820
319.657, 1317.386
321.015, 1600.936
322.372, 2141.468
323.729, 2992.982
325.086, 4013.479
326.443, 4896.958
327.800, 5820.420
329.156, 6306.865
330.512, 5106.291
331.868, 4030.699
333.224, 3021.090
334.579, 2245.463
335.935, 1592.818
337.290, 1225.157
338.645, 842.477
339.999, 676.779
341.354, 517.064
342.708, 534.332
344.062, 466.581
345.416, 556.813
346.769, 491.027
348.123, 513.224
349.476, 487.404
350.829, 454.565
352.182, 428.619
353.534, 384.943
354.887, 328.946
356.239, 290.039
357.591, 218.114
358.942, 157.169
360.294, 89.205
361.645, 15.220
362.996, 4.213
364.347, 39.183
365.698, 4.869
367.048, 10.945
368.398, 128.948
369.748, 144.820
371.098, 125.663
372.448, 115.472
373.797, 21.246
375.146, 9.994
376.495, 57.278
377.844, 87.601
379.192, 124.025
380.540, 57.568
381.889, 85.198
383.236, 57.927
384.584, 56.656
385.932, 111.624
387.279, 73.854
388.626, 63.365
389.973, 81.237
391.319, 68.660
392.666, 16.873
394.012, 166.182
395.358, 326.719
396.704, 482.030
398.049, 589.978
399.394, 728.863
400.740, 742.562
402.084, 821.002
403.429, 780.607
404.774, 808.073
406.118, 862.565
407.462, 765.052
408.806, 718.529
410.150, 495.999
411.493, 344.471
412.836, 254.940
414.179, 201.409
415.522, 118.884
416.865, 76.098
418.207, 65.830
419.549, 13.303
420.891, 0.773
422.233, 9.243
423.575, 23.281
424.916, 2.177
426.257, 57.371
427.598, 26.965
428.939, 52.592
430.279, 6.267
431.619, 6.971
432.959, 10.295
434.299, 14.534
435.639, 71.745
436.978, 111.930
438.318, 131.091
439.657, 239.229
440.996, 188.347
442.334, 252.444
443.673, 318.522
445.011, 502.581
446.349, 687.623
447.687, 908.644
449.024, 1236.648
450.361, 1582.633
451.699, 1994.601
453.036, 2276.549
454.372, 2264.480
455.709, 2165.392
457.045, 2116.285
458.381, 1851.160
459.717, 1777.017
461.053, 1753.855
462.388, 1738.675
463.724, 1811.477
465.059, 2010.260
466.394, 2450.025
467.728, 2993.772
469.063, 3789.501
470.397, 5055.213
471.731, 6739.906
473.065, 8828.581
474.398, 11257.241
475.732, 13685.882
477.065, 15904.506
478.398, 16613.111
479.731, 15451.700
481.063, 13560.271
482.396, 11028.824
483.728, 8737.357
485.060, 7085.879
486.391, 5509.381
487.723, 4520.864
489.054, 3933.331
490.385, 3489.780
491.716, 3406.212
493.047, 3565.627
494.377, 3748.025
495.708, 4351.405
497.038, 5355.768
498.368, 6680.115
499.697, 8888.445
501.027, 12326.756
502.356, 16665.053
503.685, 23073.330
505.014, 29291.592
506.342, 33129.836
507.671, 34598.062
508.999, 32776.270
510.327, 28894.465
511.655, 24882.645
512.982, 20880.801
514.310, 16869.016
515.637, 13327.293
516.964, 10455.183
518.291, 8193.027
519.617, 6470.332
520.944, 5279.715
522.270, 4206.647
523.596, 3537.441
524.921, 3081.524
526.247, 2621.992
527.572, 2337.195
528.897, 2022.652
530.222, 1885.958
531.547, 1613.334
532.871, 1475.712
534.196, 1370.627
535.520, 1265.296
536.844, 1172.422
538.167, 1096.589
539.491, 1002.411
540.814, 946.539
542.137, 868.767
543.460, 860.126
544.783, 782.354
546.105, 731.598
547.427, 716.655
548.749, 655.171
550.071, 641.390
551.393, 570.045
552.714, 559.831
554.035, 591.075
555.356, 481.104
556.677, 503.173
557.998, 471.195
559.318, 412.108
560.638, 424.300
561.958, 455.214
563.278, 460.107
564.597, 423.931
565.917, 464.799
567.236, 499.481
568.555, 521.265
569.874, 459.250
571.192, 614.958
572.511, 630.636
573.829, 794.970
575.147, 956.157
576.464, 1085.032
577.782, 1250.722
579.099, 1289.361
580.416, 1202.607
581.733, 1090.013
583.050, 1017.961
584.366, 840.248
585.683, 665.049
586.999, 514.755
588.315, 409.847
589.630, 354.742
590.946, 304.601
592.261, 276.995
593.576, 274.411
594.891, 277.064
596.206, 282.880
597.520, 276.770
598.834, 291.108
600.148, 267.229
601.462, 232.610
602.776, 194.080
604.089, 250.540
605.402, 228.988
606.715, 254.427
608.028, 227.855
609.341, 204.272
610.653, 199.680
611.965, 254.076
613.277, 239.463
614.589, 254.839
615.901, 242.206
617.212, 335.561
618.523, 431.907
619.834, 359.242
621.145, 490.568
622.456, 494.883
623.766, 516.189
625.076, 666.486
626.386, 785.772
627.696, 984.049
629.006, 1094.316
630.315, 1273.573
631.624, 1366.820
632.933, 1294.058
634.242, 1346.286
635.551, 1169.503
636.859, 1144.711
638.167, 1030.909
639.475, 1075.098
640.783, 1065.276
642.090, 1290.445
643.398, 1344.605
644.705, 1506.755
646.012, 1551.896
647.318, 1620.026
648.625, 1510.148
649.931, 1298.260
651.237, 1366.363
652.543, 1010.456
653.849, 949.540
655.155, 707.614
656.460, 626.680
657.765, 621.735
659.070, 501.783
660.375, 377.820
661.679, 457.848
662.984, 241.868
664.288, 184.878
665.592, 159.879
666.895, 154.871
668.199, 175.854
669.502, 132.828
670.805, 93.793
672.108, 58.749
673.411, 162.694
674.713, 44.632
676.016, 119.561
677.318, 19.483
678.620, 22.399
679.921, 29.309
681.223, 28.214
682.524, 23.113
683.825, 8.011
685.126, 15.094
686.427, 11.216
687.727, 30.696
689.028, 16.550
690.328, 12.396
691.628, 46.640
692.927, 53.702
694.227, 24.912
695.526, 30.117
696.825, 15.147
698.124, 11.976
699.423, 36.677
700.721, 3.474
702.020, 23.488
703.318, 14.408
704.616, 75.750
705.913, 56.887
707.211, 51.088
708.508, 13.217
709.805, 9.034
711.102, 29.364
712.399, 20.728
713.695, 32.725
714.992, 56.526
716.288, 5.410
717.584, 52.155
718.879, 55.479
720.175, 69.595
721.470, 23.211
722.765, 148.424
724.060, 77.294
725.355, 8.021
726.649, 96.115
727.944, 64.945
729.238, 91.519
730.532, 3.060
731.825, 77.595
733.119, 139.715
734.412, 63.404
735.705, 108.017
736.998, 203.618
738.291, 216.579
739.584, 288.087
740.876, 348.821
742.168, 514.667
743.460, 523.308
744.752, 663.997
746.043, 875.369
747.334, 854.057
748.626, 917.601
749.916, 913.133
751.207, 830.649
752.498, 754.160
753.788, 712.301
755.078, 701.796
756.368, 747.283
757.658, 809.278
758.947, 1003.792
760.237, 1285.253
761.526, 1522.704
762.815, 1687.146
764.104, 1626.579
765.392, 1502.002
766.680, 1354.417
767.969, 1083.833
769.257, 975.230
770.544, 795.618
771.832, 797.997
773.119, 838.414
774.406, 780.774
775.693, 783.127
776.980, 715.470
778.267, 579.981
779.553, 543.307
780.839, 392.701
782.125, 354.066
783.411, 316.366
784.697, 263.657
785.982, 220.940
787.267, 204.219
788.552, 161.480
789.837, 179.737
791.122, 227.986
792.406, 226.226
793.690, 229.458
794.974, 173.681
796.258, 317.896
797.542, 245.102
798.825, 204.301
800.108, 344.491
801.391, 357.673
802.674, 494.847
803.957, 514.013
805.239, 718.170
806.522, 899.319
807.804, 1207.460
809.085, 1517.594
810.367, 2059.719
811.649, 2579.836
812.930, 3177.945
814.211, 3300.047
815.492, 3415.140
816.772, 2882.226
818.053, 2349.303
819.333, 1738.374
820.613, 1364.436
821.893, 973.490
823.173, 756.537
824.452, 674.576
825.732, 468.538
827.011, 458.347
828.290, 335.363
829.568, 288.102
830.847, 288.103
832.125, 277.724
833.403, 251.353
834.681, 240.003
835.959, 181.644
837.236, 208.257
838.514, 108.802
839.791, 164.394
841.068, 77.185
842.345, 100.807
843.621, 96.365
844.898, 58.900
846.174, 54.569
847.450, 90.783
848.726, 103.740
850.001, 39.382
851.277, 2.871
852.552, 93.506
853.827, 7.294
855.102, 20.098
856.376, 55.011
857.651, 78.472
858.925, 54.125
860.199, 100.949
861.473, 38.125
862.746, 13.571
864.020, 21.232
865.293, 33.283
866.566, 14.859
867.839, 29.595
869.112, 7.144
870.384, 36.400
871.656, 4.079
872.928, 0.556
874.200, 52.984
875.472, 45.515
876.744, 2.183
878.015, 13.270
879.286, 38.944
880.557, 50.369
881.828, 43.033
883.098, 44.458
884.369, 15.830
885.639, 5.761
886.909, 3.775
888.178, 20.112
889.448, 15.367
890.717, 21.853
891.987, 51.646
893.256, 21.861
894.524, 12.615
895.793, 13.087
897.061, 3.554
898.330, 11.984
899.598, 2.466
900.865, 34.911
902.133, 15.647
903.401, 38.783
904.668, 61.214
905.935, 9.353
907.202, 40.073
908.468, 96.495
909.735, 59.085
911.001, 24.299
912.267, 62.682
913.533, 49.062
914.799, 116.437
916.064, 52.809
917.330, 52.192
918.595, 37.578
919.860, 28.964
921.124, 110.348
922.389, 48.728
923.653, 108.106
924.918, 18.481
926.182, 75.854
927.445, 38.222
928.709, 127.588
929.972, 2.047
931.236, 74.312
932.499, 8.669
933.761, 13.024
935.024, 35.375
936.286, 34.725
937.549, 104.071
938.811, 33.415
940.073, 80.756
941.334, 121.095
942.596, 69.432
943.857, 87.773
945.118, 80.113
946.379, 133.449
947.640, 95.783
948.900, 102.115
950.161, 50.445
951.421, 149.772
952.681, 153.097
953.940, 179.419
955.200, 180.739
956.459, 185.057
957.719, 169.373
958.978, 151.686
960.236, 151.997
961.495, 216.307
962.753, 213.614
964.012, 242.776
965.270, 210.222
966.527, 263.523
967.785, 290.823
969.043, 255.120
970.300, 402.417
971.557, 396.712
972.814, 493.007
974.071, 561.305
975.327, 717.602
976.583, 849.897
977.840, 837.192
979.095, 935.486
980.351, 800.778
981.607, 751.072
982.862, 593.364
984.117, 583.658
985.372, 476.963
986.627, 514.269
987.882, 430.579
989.136, 516.892
990.390, 564.206
991.644, 593.527
992.898, 749.802
994.152, 720.138
995.405, 746.476
996.659, 752.691
997.912, 675.917
999.165, 656.286
1000.417, 754.681
1001.670, 743.938
1002.922, 832.517
1004.174, 708.951
1005.426, 750.080
1006.678, 658.333
1007.930, 653.749
1009.181, 656.236
1010.432, 582.694
1011.683, 557.232
1012.934, 542.697
1014.185, 539.072
1015.435, 539.651
1016.685, 518.699
1017.935, 541.993
1019.185, 614.472
1020.435, 590.861
1021.684, 631.376
1022.934, 699.303
1024.183, 870.427
1025.432, 1038.469
1026.680, 1193.257
1027.929, 1494.599
1029.177, 1758.120
1030.425, 2170.298
1031.673, 2397.668
1032.921, 2588.277
1034.169, 2350.032
1035.416, 2119.552
1036.663, 1815.601
1037.911, 1595.077
1039.157, 1312.087
1040.404, 1177.824
1041.650, 909.104
1042.897, 766.756
1044.143, 682.976
1045.389, 558.521
1046.634, 555.193
1047.880, 493.719
1049.125, 395.811
1050.371, 413.328
1051.615, 381.234
1052.860, 338.254
1054.105, 346.127
1055.349, 308.049
1056.593, 297.544
1057.837, 298.429
1059.081, 269.312
1060.325, 223.588
1061.568, 201.466
1062.812, 247.250
1064.055, 196.945
1065.298, 228.640
1066.540, 167.713
1067.783, 150.645
1069.025, 155.328
1070.267, 164.746
1071.509, 262.753
1072.751, 242.673
1073.993, 285.367
1075.234, 335.237
1076.475, 300.964
1077.716, 330.655
1078.957, 263.666
1080.198, 406.179
1081.438, 382.887
1082.679, 404.923
1083.919, 581.554
1085.159, 559.345
1086.398, 739.031
1087.638, 880.716
1088.877, 808.595
1090.116, 1108.425
1091.355, 1228.116
1092.594, 1674.458
1093.833, 1942.171
1095.071, 2286.859
1096.309, 2728.655
1097.547, 3263.343
1098.785, 3384.029
1100.023, 3528.715
1101.260, 3406.399
1102.498, 3047.082
1103.735, 2742.765
1104.972, 2448.444
1106.208, 2235.811
1107.445, 2110.801
1108.681, 1943.477
1109.918, 1850.157
1111.154, 1851.835
1112.389, 1986.512
1113.625, 2016.188
1114.860, 1917.861
1116.096, 1979.533
1117.331, 1999.329
1118.566, 1882.134
1119.800, 1779.125
1121.035, 1753.908
1122.269, 1708.130
1123.503, 1631.624
1124.737, 1645.147
1125.971, 1448.078
1127.205, 1291.741
1128.438, 1077.510
1129.671, 1011.410
1130.904, 827.066
1132.137, 855.220
1133.370, 889.457
1134.602, 845.227
1135.834, 954.851
1137.066, 1001.990
1138.298, 983.959
1139.530, 1056.093
1140.762, 985.109
1141.993, 879.657
1143.224, 839.711
1144.455, 690.737
1145.686, 574.787
1146.917, 585.406
1148.147, 534.047
1149.377, 543.372
1150.607, 481.241
1151.837, 547.542
1153.067, 522.630
1154.296, 440.522
1155.526, 420.627
1156.755, 279.490
1157.984, 289.129
1159.213, 179.607
1160.441, 187.371
1161.670, 152.470
1162.898, 216.556
1164.126, 93.460
1165.354, 176.198
1166.581, 138.021
1167.809, 83.940
1169.036, 183.501
1170.263, 104.066
1171.490, 81.775
1172.717, 91.283
1173.943, 1.132
1175.170, 97.458
1176.396, 71.033
1177.622, 22.666
1178.848, 52.271
1180.073, 62.010
1181.299, 95.901
1182.524, 65.619
1183.749, 105.132
1184.974, 58.678
1186.199, 9.573
1187.423, 17.278
1188.648, 41.455
1189.872, 65.217
1191.096, 64.779
1192.320, 68.167
1193.543, 36.905
1194.767, 63.370
1195.990, 5.917
1197.213, 74.354
1198.436, 10.557
1199.659, 2.902
1200.881, 21.474
1202.104, 20.862
1203.326, 2.390
1204.548, 11.070
1205.770, 30.979
1206.991, 53.356
1208.213, 22.870
1209.434, 57.242
1210.655, 81.593
1211.876, 95.977
1213.096, 52.686
1214.317, 18.320
1215.537, 14.102
1216.757, 84.096
1217.977, 71.287
1219.197, 29.466
1220.417, 124.631
1221.636, 30.785
1222.855, 76.923
1224.074, 141.049
1225.293, 10.163
1226.512, 87.262
1227.731, 83.349
1228.949, 0.516
1230.167, 172.539
1231.385, 64.582
1232.603, 93.845
1233.820, 134.007
1235.038, 47.395
1236.255, 59.719
1237.472, 147.870
1238.689, 19.728
1239.906, 89.228
1241.122, 96.332
1242.338, 70.624
1243.555, 102.558
1244.771, 160.485
1245.986, 102.626
1247.202, 144.538
1248.417, 153.442
1249.633, 237.339
1250.848, 132.226
1252.063, 106.271
1253.277, 182.135
1254.492, 140.989
1255.706, 163.108
1256.920, 292.942
1258.134, 154.753
1259.348, 107.756
1260.562, 179.538
1261.775, 144.354
1262.988, 77.101
1264.201, 75.047
1265.414, 30.876
1266.627, 80.543
1267.839, 4.783
1269.052, 78.282
1270.264, 133.020
1271.476, 49.576
1272.688, 135.298
1273.899, 87.823
1275.111, 56.468
1276.322, 124.034
1277.533, 16.512
1278.744, 25.818
1279.955, 86.771
1281.165, 0.172
1282.376, 18.634
1283.586, 37.986
1284.796, 19.317
1286.006, 33.743
1287.215, 13.174
1288.425, 29.148
1289.634, 32.375
1290.843, 29.585
1292.052, 126.915
1293.261, 45.933
1294.469, 40.813
1295.678, 61.910
1296.886, 12.982
1298.094, 83.962
1299.302, 56.050
1300.509, 26.047
1301.717, 61.029
1302.924, 112.994
1304.131, 26.055
1305.338, 80.869
1306.545, 25.775
1307.752, 26.651
1308.958, 45.506
1310.164, 84.341
1311.370, 64.199
1312.576, 43.996
1313.782, 123.772
1314.987, 121.627
1316.193, 86.369
1317.398, 7.092
1318.603, 53.781
1319.807, 13.243
1321.012, 5.889
1322.216, 101.510
1323.421, 11.011
1324.625, 78.527
1325.829, 46.054
1327.032, 12.440
1328.236, 140.037
1329.439, 120.492
1330.642, 69.925
1331.845, 47.877
1333.048, 20.068
1334.251, 61.334
1335.453, 70.274
1336.656, 19.416
1337.858, 66.840
1339.060, 129.954
1340.261, 8.157
1341.463, 157.091
1342.664, 19.267
1343.866, 102.171
1345.067, 126.951
1346.267, 22.133
1347.468, 55.715
1348.669, 79.408
1349.869, 30.178
1351.069, 118.006
1352.269, 86.036
1353.469, 116.788
1354.668, 119.022
1355.868, 108.421
1357.067, 116.537
1358.266, 96.996
1359.465, 131.577
1360.664, 136.389
1361.862, 189.810
1363.061, 186.522
1364.259, 293.040
1365.457, 187.821
1366.655, 249.295
1367.852, 295.939
1369.050, 178.601
1370.247, 228.931
1371.444, 206.441
1372.641, 109.896
1373.838, 132.906
1375.035, 140.291
1376.231, 67.544
1377.427, 88.100
1378.623, 1.268
1379.819, 51.012
1381.015, 81.383
1382.211, 39.375
1383.406, 136.260
1384.601, 87.235
1385.796, 50.192
1386.991, 177.130
1388.185, 129.049
1389.380, 72.944
1390.574, 129.813
1391.768, 131.663
1392.962, 132.353
1394.156, 227.645
1395.350, 86.053
1396.543, 153.622
1397.736, 158.025
1398.929, 7.304
1400.122, 167.377
1401.315, 138.794
1402.507, 76.607
1403.700, 142.149
1404.892, 111.844
1406.084, 156.279
1407.276, 75.171
1408.467, 82.785
1409.659, 130.837
1410.850, 97.325
1412.041, 19.566
1413.232, 67.630
1414.423, 164.695
1415.614, 63.513
1416.804, 204.870
1417.994, 75.270
1419.184, 90.894
1420.374, 215.946
1421.564, 53.136
1422.753, 61.737
1423.943, 102.604
1425.132, 78.041
1426.321, 166.242
1427.510, 138.241
1428.698, 13.040
1429.887, 189.767
1431.075, 77.438
1432.263, 193.580
1433.451, 179.693
1434.639, 52.722
1435.827, 157.689
1437.014, 104.531
1438.201, 11.429
1439.388, 137.507
1440.575, 145.511
1441.762, 122.728
1442.949, 227.915
1444.135, 187.648
1445.321, 154.240
1446.507, 197.384
1447.693, 97.396
1448.879, 138.058
1450.064, 259.083
1451.250, 141.147
1452.435, 151.116
1453.620, 71.902
1454.805, 138.661
1455.989, 224.851
1457.174, 58.436
1458.358, 283.565
1459.542, 312.011
1460.726, 213.368
1461.910, 282.174
1463.093, 335.311
1464.277, 116.014
1465.460, 327.000
1466.643, 171.868
1467.826, 129.797
1469.009, 290.630
1470.191, 149.329
1471.373, 227.956
1472.556, 333.729
1473.738, 131.747
1474.919, 217.074
1476.101, 220.061
1477.283, 31.727
1478.464, 267.067
1479.645, 57.689
1480.826, 160.757
1482.007, 223.753
1483.187, 182.670
1484.368, 235.906
1485.548, 195.319
1486.728, 217.154
1487.908, 254.771
1489.088, 207.096
1490.268, 102.783
1491.447, 207.546
1492.626, 137.288
1493.805, 22.149
1494.984, 164.145
1496.163, 228.161
1497.341, 171.189
1498.520, 226.531
1499.698, 104.068
1500.876, 70.728
1502.054, 123.332
1503.232, 21.114
1504.409, 157.390
1505.586, 96.876
1506.763, 16.294
1507.940, 106.128
1509.117, 47.083
1510.294, 159.753
1511.470, 148.535
1512.647, 68.447
1513.823, 175.262
1514.999, 145.778
1516.174, 51.000
1517.350, 109.604
1518.526, 99.062
1519.701, 0.000
##END=



