##NAMES=Microcline
##RRUFFID=R050054
##IDEAL CHEMISTRY=KAlSi_3_O_8_
##LOCALITY=Kenticha, Negele area, Sidamo Province, Ethiopia
##OWNER=RRUFF
##SOURCE=Rock Currier
##DESCRIPTION=Light blue single crystal
##STATUS=The identification of this mineral has been confirmed by X-ray diffraction and chemical analysis
##URL=rruff.info/R050054
##MEASURED CHEMISTRY=(K_0.96_Na_0.04_)Al_1.00_Si_3.00_O_8_
##PIN_ID=M00460
##ORIENTATION=Laser parallel to (0 1 1). Fiducial mark perpendicular to laser is parallel to -a [-1 0 0]
98.519, 0.000
99.917, 5.264
101.314, 5.006
102.712, 48.397
104.109, 456.575
105.505, 1342.710
106.902, 2305.433
108.298, 4076.428
109.694, 5776.626
111.090, 6733.523
112.486, 5755.008
113.881, 3960.183
115.277, 2068.479
116.672, 880.579
118.066, 340.272
119.461, 125.492
120.855, 362.717
122.249, 1100.969
123.643, 2159.622
125.036, 3615.281
126.430, 4996.844
127.823, 6409.359
129.216, 7048.572
130.608, 6686.822
132.001, 5371.636
133.393, 3991.875
134.785, 2926.771
136.176, 2270.302
137.568, 2143.118
138.959, 2403.943
140.350, 3304.243
141.741, 3994.467
143.131, 4292.042
144.521, 4316.336
145.911, 4357.666
147.301, 5126.307
148.691, 6302.500
150.080, 8046.457
151.469, 9748.444
152.858, 10638.943
154.247, 11291.932
155.635, 11862.012
157.024, 12994.391
158.411, 13300.413
159.799, 12964.957
161.187, 11892.309
162.574, 9640.658
163.961, 7711.526
165.348, 5883.278
166.734, 4701.140
168.121, 3618.691
169.507, 3000.133
170.893, 2738.706
172.278, 2699.733
173.664, 2984.662
175.049, 3622.603
176.434, 4729.854
177.819, 6273.841
179.203, 7955.573
180.587, 9327.075
181.971, 9158.569
183.355, 7930.402
184.739, 6082.651
186.122, 4627.295
187.505, 3515.282
188.888, 2561.578
190.271, 2144.139
191.653, 1892.939
193.035, 1860.958
194.417, 2168.169
195.799, 2769.553
197.180, 3780.088
198.562, 4856.753
199.943, 6105.521
201.324, 6560.370
202.704, 6126.093
204.084, 4747.893
205.465, 3381.028
206.844, 2403.922
208.224, 1633.445
209.603, 1054.445
210.983, 664.430
212.362, 468.424
213.740, 247.549
215.119, 162.772
216.497, 2.376
217.875, 49.162
219.253, 127.850
220.631, 187.664
222.008, 242.617
223.385, 139.110
224.762, 173.089
226.139, 140.096
227.515, 171.495
228.891, 139.433
230.267, 218.520
231.643, 207.124
233.018, 223.070
234.394, 190.845
235.769, 167.633
237.144, 181.549
238.518, 101.645
239.893, 116.003
241.267, 13.996
242.641, 7.626
244.014, 11.966
245.388, 134.532
246.761, 235.200
248.134, 386.197
249.507, 573.227
250.879, 833.738
252.252, 1395.294
253.624, 1896.526
254.996, 3033.517
256.367, 4276.376
257.739, 5770.162
259.110, 6821.918
260.481, 7426.653
261.852, 7343.435
263.222, 7271.032
264.592, 7805.384
265.962, 8626.804
267.332, 9510.532
268.702, 9556.228
270.071, 8881.473
271.440, 7586.647
272.809, 6206.928
274.178, 5346.789
275.546, 4467.519
276.915, 4251.888
278.283, 4332.429
279.650, 4939.531
281.018, 6010.449
282.385, 7620.160
283.752, 9791.639
285.119, 11982.879
286.486, 14063.869
287.852, 14804.608
289.218, 13765.104
290.584, 11685.350
291.950, 9065.357
293.316, 6960.119
294.681, 5165.602
296.046, 4021.764
297.411, 3154.580
298.775, 2634.021
300.140, 2264.082
301.504, 1903.771
302.868, 1647.107
304.231, 1346.113
305.595, 1075.806
306.958, 926.202
308.321, 727.312
309.684, 572.149
311.047, 546.720
312.409, 447.037
313.771, 380.108
315.133, 308.938
316.495, 282.534
317.856, 252.456
319.217, 272.027
320.578, 255.839
321.939, 312.240
323.299, 368.039
324.660, 407.075
326.020, 574.341
327.380, 746.919
328.739, 1091.846
330.099, 1505.081
331.458, 1934.665
332.817, 2446.665
334.176, 2449.187
335.534, 2254.370
336.892, 1795.300
338.251, 1408.080
339.608, 1098.771
340.966, 805.413
342.323, 619.003
343.681, 537.536
345.037, 439.014
346.394, 399.434
347.751, 389.793
349.107, 345.091
350.463, 361.323
351.819, 438.489
353.174, 510.589
354.530, 616.625
355.885, 792.595
357.240, 935.504
358.594, 1048.352
359.949, 1036.141
361.303, 938.869
362.657, 813.534
364.011, 782.135
365.365, 789.671
366.718, 774.141
368.071, 905.527
369.424, 1129.817
370.777, 1432.012
372.129, 1961.103
373.481, 2300.867
374.833, 2485.766
376.185, 2166.969
377.537, 1681.333
378.888, 1299.045
380.239, 857.483
381.590, 673.770
382.941, 461.201
384.291, 364.949
385.642, 283.303
386.992, 238.193
388.341, 151.983
389.691, 174.874
391.040, 133.843
392.389, 134.391
393.738, 180.012
395.087, 186.915
396.435, 216.870
397.784, 333.905
399.132, 508.465
400.479, 921.225
401.827, 1375.074
403.174, 2050.100
404.521, 2703.602
405.868, 2763.573
407.215, 2378.844
408.561, 1854.510
409.908, 1536.920
411.254, 1359.024
412.599, 1431.693
413.945, 1611.462
415.290, 1590.809
416.636, 1318.142
417.980, 854.464
419.325, 515.773
420.670, 306.071
422.014, 138.354
423.358, 52.621
424.702, 165.307
426.045, 71.071
427.389, 33.059
428.732, 13.871
430.075, 76.860
431.417, 53.046
432.760, 46.342
434.102, 30.253
435.444, 117.748
436.786, 125.146
438.127, 179.447
439.469, 339.654
440.810, 435.800
442.151, 519.054
443.492, 814.223
444.832, 994.310
446.172, 1409.765
447.512, 1898.007
448.852, 2664.109
450.192, 3775.364
451.531, 5742.589
452.870, 7971.763
454.209, 9953.615
455.548, 11575.074
456.887, 11776.390
458.225, 10417.604
459.563, 8618.651
460.901, 6747.591
462.238, 5319.464
463.576, 4362.270
464.913, 3902.006
466.250, 3786.682
467.587, 3812.777
468.923, 4330.186
470.259, 5018.702
471.596, 6408.514
472.931, 8566.162
474.267, 11073.108
475.603, 14279.450
476.938, 16565.150
478.273, 17020.584
479.608, 15905.685
480.942, 13290.948
482.276, 11256.023
483.611, 9771.555
484.944, 8737.518
486.278, 8073.783
487.612, 7152.059
488.945, 5942.032
490.278, 4717.430
491.611, 3815.148
492.943, 3164.838
494.276, 2827.502
495.608, 2715.144
496.940, 2524.764
498.271, 2675.365
499.603, 2837.944
500.934, 3262.358
502.265, 3805.547
503.596, 4696.961
504.927, 5911.038
506.257, 7554.707
507.587, 10121.137
508.917, 13747.511
510.247, 18653.535
511.577, 25879.717
512.906, 33926.414
514.235, 41383.414
515.564, 44010.855
516.892, 41539.062
518.221, 35747.852
519.549, 27807.125
520.877, 21076.357
522.205, 15795.187
523.533, 12043.504
524.860, 9302.116
526.187, 7278.833
527.514, 5768.635
528.841, 4810.024
530.167, 3892.225
531.493, 3429.816
532.820, 2870.569
534.145, 2545.898
535.471, 2167.553
536.796, 1874.540
538.122, 1715.685
539.447, 1484.032
540.771, 1424.353
542.096, 1269.367
543.420, 1111.579
544.744, 1017.533
546.068, 948.484
547.392, 867.947
548.715, 785.466
550.039, 686.659
551.362, 658.204
552.684, 627.898
554.007, 576.899
555.329, 455.146
556.652, 472.739
557.973, 416.027
559.295, 388.239
560.617, 409.028
561.938, 343.897
563.259, 372.848
564.580, 328.854
565.901, 285.055
567.221, 308.162
568.541, 228.709
569.861, 310.878
571.181, 244.069
572.501, 267.273
573.820, 283.483
575.139, 276.694
576.458, 367.905
577.777, 335.116
579.095, 450.331
580.414, 550.863
581.732, 597.717
583.049, 797.226
584.367, 929.223
585.685, 966.844
587.002, 957.328
588.319, 803.752
589.636, 665.621
590.952, 463.115
592.268, 338.762
593.585, 276.319
594.900, 150.255
596.216, 88.238
597.532, 76.463
598.847, 57.373
600.162, 10.566
601.477, 9.754
602.792, 8.943
604.106, 19.873
605.420, 14.375
606.734, 11.531
608.048, 21.359
609.361, 23.197
610.675, 24.043
611.988, 14.450
613.301, 4.240
614.614, 17.379
615.926, 23.517
617.238, 46.653
618.550, 58.869
619.862, 98.927
621.174, 100.065
622.485, 151.204
623.797, 190.344
625.108, 204.485
626.418, 293.631
627.729, 408.782
629.039, 516.945
630.349, 525.121
631.659, 603.310
632.969, 612.516
634.279, 586.742
635.588, 604.990
636.897, 627.260
638.206, 673.556
639.515, 707.875
640.823, 809.618
642.131, 936.584
643.439, 1045.970
644.747, 1220.376
646.055, 1368.796
647.362, 1555.229
648.669, 1668.666
649.976, 1880.108
651.283, 2179.554
652.589, 2370.005
653.896, 2507.460
655.202, 2549.919
656.508, 2401.383
657.814, 2270.851
659.119, 1910.325
660.424, 1678.808
661.729, 1406.305
663.034, 1163.817
664.339, 946.345
665.643, 801.890
666.947, 657.453
668.251, 525.034
669.555, 419.235
670.859, 341.250
672.162, 242.880
673.465, 174.523
674.768, 124.175
676.071, 125.834
677.373, 64.497
678.676, 97.165
679.978, 55.840
681.280, 2.523
682.581, 1.210
683.883, 2.100
685.184, 2.408
686.485, 53.716
687.786, 61.048
689.087, 83.406
690.387, 74.801
691.687, 80.228
692.987, 85.491
694.287, 87.307
695.586, 89.619
696.886, 95.167
698.185, 100.333
699.484, 98.002
700.783, 96.123
702.081, 60.560
703.379, 50.150
704.677, 16.404
705.975, 41.124
707.273, 7.560
708.570, 42.339
709.868, 106.709
711.165, 116.637
712.462, 127.938
713.758, 213.300
715.055, 171.739
716.351, 161.465
717.647, 77.255
718.943, 105.574
720.238, 98.404
721.533, 37.995
722.829, 85.408
724.124, 18.917
725.418, 111.082
726.713, 142.828
728.007, 176.217
729.301, 230.016
730.595, 227.094
731.889, 343.114
733.182, 389.965
734.476, 424.636
735.769, 552.956
737.061, 633.865
738.354, 809.596
739.647, 1005.297
740.939, 1167.885
742.231, 1422.422
743.523, 1805.679
744.814, 2280.476
746.106, 2967.679
747.397, 3846.832
748.688, 4831.417
749.978, 5733.545
751.269, 6089.907
752.559, 5864.117
753.849, 5123.224
755.139, 4259.764
756.429, 3395.669
757.719, 2655.814
759.008, 2233.666
760.297, 1810.134
761.586, 1519.720
762.875, 1279.586
764.163, 1189.968
765.451, 1080.231
766.739, 1026.574
768.027, 991.035
769.315, 961.464
770.602, 875.338
771.890, 848.183
773.177, 693.118
774.463, 589.077
775.750, 560.027
777.036, 491.967
778.323, 440.897
779.609, 385.818
780.894, 387.730
782.180, 289.631
783.465, 350.523
784.750, 294.405
786.035, 348.277
787.320, 248.139
788.605, 299.990
789.889, 332.832
791.173, 345.663
792.457, 348.483
793.741, 376.293
795.024, 377.044
796.307, 383.881
797.591, 398.658
798.873, 441.424
800.156, 474.179
801.439, 563.922
802.721, 599.655
804.003, 739.375
805.285, 881.083
806.566, 1045.781
807.848, 1393.467
809.129, 1806.141
810.410, 2354.804
811.691, 3142.454
812.971, 3899.093
814.252, 4943.720
815.532, 5333.333
816.812, 5099.938
818.092, 4449.529
819.371, 3462.107
820.651, 2706.674
821.930, 2304.229
823.209, 1547.771
824.488, 1106.300
825.766, 865.817
827.045, 751.321
828.323, 593.812
829.601, 482.291
830.878, 461.756
832.156, 356.209
833.433, 341.648
834.710, 299.075
835.987, 242.069
837.264, 241.983
838.540, 207.531
839.817, 213.461
841.093, 189.828
842.369, 174.780
843.644, 195.544
844.920, 146.713
846.195, 92.545
847.470, 94.039
848.745, 26.385
850.020, 84.539
851.294, 37.344
852.568, 106.817
853.842, 24.372
855.116, 30.979
856.390, 3.473
857.663, 17.434
858.936, 3.021
860.209, 20.343
861.482, 9.739
862.755, 29.264
864.027, 8.361
865.299, 42.442
866.571, 31.513
867.843, 26.573
869.115, 14.622
870.386, 12.266
871.657, 36.676
872.928, 10.686
874.199, 18.680
875.470, 26.520
876.740, 20.510
878.010, 14.974
879.280, 25.060
880.550, 19.179
881.820, 9.326
883.089, 14.292
884.358, 13.541
885.627, 10.917
886.896, 25.165
888.164, 19.443
889.433, 29.750
890.701, 8.910
891.969, 9.500
893.236, 7.823
894.504, 24.222
895.771, 19.652
897.038, 29.110
898.305, 33.399
899.572, 45.900
900.838, 11.392
902.105, 50.871
903.371, 20.341
904.637, 29.801
905.902, 53.250
907.168, 9.692
908.433, 42.120
909.698, 7.458
910.963, 60.944
912.228, 30.338
913.492, 30.728
914.757, 25.889
916.021, 32.469
917.285, 82.822
918.548, 24.171
919.812, 70.515
921.075, 0.855
922.338, 33.181
923.601, 47.500
924.864, 68.812
926.126, 84.536
927.388, 91.413
928.650, 103.703
929.912, 93.986
931.174, 89.261
932.435, 111.529
933.697, 99.791
934.958, 113.045
936.218, 82.292
937.479, 116.533
938.739, 67.767
940.000, 122.994
941.260, 94.215
942.520, 69.430
943.779, 97.640
945.039, 108.845
946.298, 91.043
947.557, 184.235
948.816, 123.421
950.074, 171.600
951.333, 131.774
952.591, 158.941
953.849, 180.103
955.107, 199.259
956.365, 192.410
957.622, 208.554
958.879, 222.244
960.136, 216.885
961.393, 241.955
962.650, 224.078
963.906, 204.195
965.162, 227.308
966.418, 263.415
967.674, 235.521
968.930, 281.622
970.185, 248.719
971.441, 281.810
972.696, 284.897
973.950, 336.979
975.205, 335.057
976.459, 366.027
977.714, 400.211
978.968, 416.282
980.222, 439.349
981.475, 466.414
982.729, 534.475
983.982, 562.531
985.235, 685.584
986.488, 762.637
987.740, 873.689
988.993, 1043.744
990.245, 1364.799
991.497, 1625.862
992.749, 2087.947
994.000, 2463.043
995.252, 2891.157
996.503, 3088.287
997.754, 2922.377
999.005, 2828.514
1000.256, 2571.675
1001.506, 2281.849
1002.756, 2291.621
1004.006, 2058.878
1005.256, 1974.572
1006.506, 1931.567
1007.755, 1666.709
1009.005, 1477.512
1010.254, 1255.790
1011.502, 1037.792
1012.751, 911.466
1014.000, 769.676
1015.248, 717.344
1016.496, 699.644
1017.744, 617.890
1018.991, 575.061
1020.239, 543.941
1021.486, 516.766
1022.733, 525.058
1023.980, 502.832
1025.227, 557.838
1026.473, 533.016
1027.719, 527.102
1028.965, 621.529
1030.211, 545.375
1031.457, 660.570
1032.702, 612.349
1033.948, 631.844
1035.193, 698.388
1036.438, 633.094
1037.682, 737.974
1038.927, 849.197
1040.171, 787.826
1041.415, 871.632
1042.659, 842.469
1043.903, 760.415
1045.146, 675.412
1046.390, 541.689
1047.633, 495.427
1048.876, 546.771
1050.118, 574.174
1051.361, 557.150
1052.603, 547.582
1053.845, 527.586
1055.087, 490.080
1056.329, 458.574
1057.571, 407.556
1058.812, 361.974
1060.053, 325.146
1061.294, 308.604
1062.535, 202.986
1063.775, 223.376
1065.016, 151.539
1066.256, 171.945
1067.496, 140.416
1068.736, 104.771
1069.975, 120.247
1071.214, 119.068
1072.454, 92.502
1073.693, 137.988
1074.931, 118.476
1076.170, 166.966
1077.408, 185.459
1078.647, 130.963
1079.885, 169.470
1081.122, 214.980
1082.360, 209.503
1083.597, 235.029
1084.835, 243.558
1086.072, 334.090
1087.308, 336.625
1088.545, 315.232
1089.781, 406.774
1091.018, 507.381
1092.254, 485.417
1093.490, 636.028
1094.725, 670.583
1095.961, 806.193
1097.196, 983.755
1098.431, 1034.318
1099.666, 1186.887
1100.900, 1210.483
1102.135, 1208.059
1103.369, 1127.685
1104.603, 1106.267
1105.837, 985.852
1107.071, 968.477
1108.304, 911.068
1109.538, 931.664
1110.771, 915.261
1112.004, 943.925
1113.236, 1012.528
1114.469, 1121.135
1115.701, 1275.568
1116.933, 1518.262
1118.165, 1666.879
1119.397, 2085.571
1120.629, 2435.194
1121.860, 2950.820
1123.091, 3522.570
1124.322, 3862.366
1125.553, 4143.078
1126.783, 4071.002
1128.014, 3858.642
1129.244, 3555.619
1130.474, 3158.274
1131.704, 2910.022
1132.933, 2810.672
1134.163, 2705.196
1135.392, 3025.939
1136.621, 3179.559
1137.850, 3366.348
1139.079, 3716.630
1140.307, 3659.153
1141.535, 3687.817
1142.763, 3468.560
1143.991, 3040.228
1145.219, 2644.053
1146.446, 2215.759
1147.674, 1787.442
1148.901, 1533.628
1150.128, 1317.453
1151.354, 1094.622
1152.581, 972.908
1153.807, 744.913
1155.033, 679.781
1156.259, 633.301
1157.485, 516.067
1158.710, 530.716
1159.936, 402.479
1161.161, 429.231
1162.386, 337.125
1163.611, 303.941
1164.835, 340.444
1166.060, 253.383
1167.284, 244.105
1168.508, 253.618
1169.732, 198.505
1170.955, 229.224
1172.179, 197.267
1173.402, 144.162
1174.625, 167.432
1175.848, 184.900
1177.070, 120.005
1178.293, 176.187
1179.515, 169.215
1180.737, 171.137
1181.959, 180.055
1183.181, 127.931
1184.402, 111.776
1185.624, 95.678
1186.845, 100.565
1188.066, 147.468
1189.286, 63.382
1190.507, 92.244
1191.727, 98.078
1192.947, 49.909
1194.167, 76.910
1195.387, 75.797
1196.607, 40.385
1197.826, 36.349
1199.045, 37.307
1200.264, 60.149
1201.483, 48.124
1202.702, 59.174
1203.920, 57.247
1205.138, 63.257
1206.356, 66.269
1207.574, 61.127
1208.792, 62.018
1210.009, 52.284
1211.227, 61.112
1212.444, 32.028
1213.661, 26.922
1214.877, 50.752
1216.094, 20.728
1217.310, 63.682
1218.526, 48.697
1219.742, 19.944
1220.958, 73.828
1222.173, 20.686
1223.389, 38.547
1224.604, 33.396
1225.819, 64.466
1227.034, 30.349
1228.248, 34.571
1229.463, 35.368
1230.677, 51.417
1231.891, 36.393
1233.105, 50.301
1234.318, 2.301
1235.532, 39.210
1236.745, 5.000
1237.958, 14.903
1239.171, 6.986
1240.384, 37.761
1241.596, 9.655
1242.809, 22.428
1244.021, 26.201
1245.233, 28.767
1246.444, 19.808
1247.656, 34.574
1248.867, 15.533
1250.079, 50.297
1251.290, 43.093
1252.500, 20.062
1253.711, 57.813
1254.921, 81.562
1256.132, 62.355
1257.342, 16.115
1258.552, 74.847
1259.761, 65.682
1260.971, 15.613
1262.180, 14.386
1263.389, 49.076
1264.598, 18.057
1265.807, 73.731
1267.015, 53.401
1268.223, 8.144
1269.432, 19.227
1270.640, 19.403
1271.847, 3.998
1273.055, 51.595
1274.262, 4.839
1275.470, 37.720
1276.677, 16.258
1277.883, 64.772
1279.090, 12.723
1280.296, 20.771
1281.503, 13.740
1282.709, 11.738
1283.915, 23.779
1285.120, 43.319
1286.326, 45.122
1287.531, 26.569
1288.736, 78.986
1289.941, 8.397
1291.146, 13.201
1292.350, 44.188
1293.555, 4.414
1294.759, 12.958
1295.963, 3.678
1297.167, 5.323
1298.370, 0.357
1299.574, 7.395
1300.777, 8.281
1301.980, 11.985
1303.183, 41.722
1304.386, 11.481
1305.588, 41.746
1306.790, 29.038
1307.993, 28.212
1309.195, 6.493
1310.396, 6.680
1311.598, 51.902
1312.799, 53.954
1314.000, 14.162
1315.201, 76.419
1316.402, 2.513
1317.603, 13.594
1318.803, 33.336
1320.003, 20.292
1321.203, 14.268
1322.403, 0.739
1323.603, 6.876
1324.802, 19.016
1326.002, 21.685
1327.201, 33.645
1328.400, 42.595
1329.599, 31.807
1330.797, 37.239
1331.995, 36.384
1333.194, 34.292
1334.392, 48.190
1335.589, 56.116
1336.787, 62.992
1337.985, 20.857
1339.182, 7.290
1340.379, 2.452
1341.576, 31.372
1342.772, 33.185
1343.969, 86.986
1345.165, 28.775
1346.361, 6.552
1347.557, 37.317
1348.753, 20.072
1349.949, 19.817
1351.144, 56.612
1352.339, 48.338
1353.534, 4.056
1354.729, 68.798
1355.924, 43.497
1357.118, 48.187
1358.312, 62.868
1359.506, 27.542
1360.700, 32.284
1361.894, 20.943
1363.088, 5.596
1364.281, 48.257
1365.474, 53.895
1366.667, 52.526
1367.860, 20.826
1369.052, 15.783
1370.245, 45.390
1371.437, 26.464
1372.629, 66.125
1373.821, 17.748
1375.013, 24.156
1376.204, 36.356
1377.395, 21.746
1378.586, 37.132
1379.777, 65.008
1380.968, 15.377
1382.159, 41.789
1383.349, 78.161
1384.539, 41.498
1385.729, 70.874
1386.919, 100.200
1388.109, 2.554
1389.298, 22.830
1390.487, 91.249
1391.676, 30.472
1392.865, 84.692
1394.054, 65.845
1395.242, 28.689
1396.431, 91.612
1397.619, 74.450
1398.807, 63.561
1399.995, 69.628
1401.182, 80.503
1402.370, 39.190
1403.557, 103.212
1404.744, 19.122
1405.931, 92.896
1407.118, 19.133
1408.304, 77.781
1409.490, 98.160
1410.676, 47.673
1411.862, 92.302
1413.048, 57.209
1414.234, 99.861
1415.419, 85.382
1416.604, 80.670
1417.789, 85.965
1418.974, 83.806
1420.159, 83.143
1421.343, 76.992
1422.528, 91.697
1423.712, 59.023
1424.896, 66.278
1426.079, 49.517
1427.263, 56.950
1428.446, 76.201
1429.629, 44.838
1430.812, 78.898
1431.995, 70.101
1433.178, 55.757
1434.360, 59.541
1435.543, 46.766
1436.725, 71.354
1437.907, 90.425
1439.088, 120.460
1440.270, 111.187
1441.451, 39.510
1442.632, 91.567
1443.813, 59.369
1444.994, 47.621
1446.175, 74.129
1447.355, 85.488
1448.535, 88.721
1449.715, 27.914
1450.895, 14.484
1452.075, 93.972
1453.255, 22.907
1454.434, 83.891
1455.613, 88.968
1456.792, 4.845
1457.971, 137.239
1459.149, 102.413
1460.328, 66.447
1461.506, 133.017
1462.684, 105.528
1463.862, 89.756
1465.040, 84.793
1466.217, 72.072
1467.395, 66.424
1468.572, 65.832
1469.749, 36.353
1470.925, 101.843
1472.102, 55.256
1473.278, 93.649
1474.455, 79.994
1475.631, 72.373
1476.807, 19.668
1477.982, 52.980
1479.158, 66.247
1480.333, 96.327
1481.508, 56.729
1482.683, 36.196
1483.858, 114.447
1485.033, 51.441
1486.207, 46.658
1487.381, 56.482
1488.555, 46.016
1489.729, 49.596
1490.903, 85.250
1492.076, 12.946
1493.250, 53.669
1494.423, 63.409
1495.596, 19.176
1496.769, 133.979
1497.941, 94.543
1499.114, 38.448
1500.286, 105.419
1501.458, 11.484
1502.630, 62.694
1503.802, 60.032
1504.973, 27.807
1506.145, 52.309
1507.316, 63.453
1508.487, 31.231
1509.657, 93.791
1510.828, 70.705
1511.999, 1.629
1513.169, 113.963
1514.339, 40.581
1515.509, 36.516
1516.678, 0.000
##END=



