##NAMES=Microcline
##RRUFFID=R040154
##IDEAL CHEMISTRY=KAlSi_3_O_8_
##LOCALITY=Mitchell County, North Carolina, USA
##OWNER=RRUFF
##SOURCE=University of Arizona Mineral Museum
##DESCRIPTION=White cleavage fragment with some perthitic character
##STATUS=The identification of this mineral has been confirmed by X-ray diffraction and chemical analysis
##URL=rruff.info/R040154
##MEASURED CHEMISTRY=(K_0.90_Na_0.09_Ba_0.01_)Al_1.00_(Si_2.99_Al_0.01_)_Î£=3_O_8_
##PIN_ID=L00168
##ORIENTATION=Laser parallel to (0 1 1). Fiducial mark perpendicular to laser is parallel to -a [-1 0 0]
104.516, 0.000
105.908, 85.612
107.300, 142.633
108.691, 270.850
110.082, 111.694
111.473, 28.048
112.864, 36.196
114.254, 330.319
115.644, 651.848
117.034, 1158.229
118.424, 1568.820
119.813, 2563.267
121.203, 3123.740
122.592, 4426.979
123.981, 5383.762
125.369, 5981.263
126.758, 6632.890
128.146, 6734.203
129.534, 6824.874
130.922, 5818.652
132.309, 5275.457
133.696, 5042.008
135.083, 5611.150
136.470, 6215.578
137.857, 7772.575
139.243, 9133.434
140.630, 10905.348
142.016, 11264.578
143.401, 10780.232
144.787, 9900.375
146.172, 9785.081
147.557, 10372.414
148.942, 11731.396
150.327, 13587.069
151.711, 15368.455
153.096, 18242.590
154.480, 20814.496
155.863, 23603.201
157.247, 26295.715
158.630, 27483.068
160.013, 26636.910
161.396, 23602.301
162.779, 19627.500
164.161, 15508.217
165.544, 12178.219
166.926, 9555.761
168.308, 7690.757
169.689, 6155.984
171.070, 5697.986
172.452, 5077.961
173.833, 4761.139
175.213, 4607.904
176.594, 4287.037
177.974, 4501.189
179.354, 4446.672
180.734, 4007.078
182.114, 3561.407
183.493, 3268.730
184.872, 2724.245
186.251, 2643.893
187.630, 2188.928
189.008, 2089.926
190.387, 2145.365
191.765, 2267.753
193.143, 2576.629
194.520, 2661.517
195.898, 3254.428
197.275, 3613.369
198.652, 4026.343
200.029, 3972.354
201.405, 3465.398
202.782, 2580.479
204.158, 2124.590
205.534, 1540.728
206.909, 1068.888
208.285, 849.067
209.660, 721.262
211.035, 441.470
212.410, 266.689
213.784, 112.918
215.159, 10.152
216.533, 52.614
217.907, 85.400
219.281, 267.219
220.654, 224.072
222.027, 142.965
223.400, 212.893
224.773, 101.856
226.146, 165.610
227.518, 104.128
228.891, 148.203
230.263, 57.313
231.634, 78.459
233.006, 77.640
234.377, 19.854
235.748, 36.088
237.119, 186.616
238.490, 267.299
239.860, 263.947
241.231, 475.789
242.601, 635.546
243.970, 979.106
245.340, 1307.848
246.709, 1832.953
248.079, 2779.488
249.448, 3623.754
250.816, 5101.811
252.185, 6422.669
253.553, 8024.177
254.921, 9825.552
256.289, 11690.607
257.657, 12607.731
259.024, 12270.034
260.391, 11266.535
261.758, 10263.143
263.125, 10183.743
264.492, 10230.127
265.858, 10121.495
267.224, 9797.832
268.590, 8393.322
269.956, 7638.686
271.321, 7103.934
272.687, 6915.962
274.052, 6987.188
275.416, 8272.000
276.781, 10002.029
278.146, 12267.560
279.510, 15714.484
280.874, 19028.504
282.237, 22730.732
283.601, 25495.125
284.964, 26801.654
286.327, 27203.289
287.690, 23507.996
289.053, 19018.777
290.416, 15110.602
291.778, 11212.471
293.140, 8547.365
294.502, 6015.285
295.863, 4951.222
297.225, 3846.167
298.586, 2880.100
299.947, 2548.989
301.308, 1964.817
302.668, 1556.583
304.029, 1381.289
305.389, 1212.940
306.749, 980.539
308.108, 873.256
309.468, 782.587
310.827, 635.040
312.186, 485.448
313.545, 371.812
314.903, 415.133
316.262, 422.411
317.620, 456.648
318.978, 567.846
320.336, 588.002
321.693, 793.121
323.051, 1188.199
324.408, 1433.222
325.765, 2282.058
327.121, 2795.453
328.478, 3419.522
329.834, 4262.344
331.190, 4810.934
332.546, 4409.378
333.902, 3869.710
335.257, 2920.030
336.612, 2000.345
337.967, 1527.650
339.322, 1119.945
340.677, 829.221
342.031, 502.476
343.385, 519.704
344.739, 414.909
346.093, 339.090
347.446, 367.248
348.799, 311.377
350.153, 557.480
351.505, 650.556
352.858, 842.601
354.210, 882.620
355.563, 968.611
356.915, 907.575
358.267, 849.513
359.618, 680.424
360.969, 691.307
362.321, 543.162
363.672, 554.990
365.022, 579.805
366.373, 530.590
367.723, 554.346
369.073, 628.092
370.423, 757.807
371.773, 643.521
373.122, 814.205
374.471, 780.861
375.821, 386.490
377.169, 433.203
378.518, 84.986
379.866, 144.414
381.215, 91.787
382.563, 66.271
383.910, 115.719
385.258, 133.178
386.605, 156.643
387.952, 251.172
389.299, 75.359
390.646, 123.781
391.992, 45.070
393.339, 112.670
394.685, 143.693
396.031, 454.285
397.376, 44.211
398.722, 276.584
400.067, 227.428
401.412, 186.301
402.757, 484.141
404.101, 455.953
405.446, 260.719
406.790, 328.428
408.134, 278.188
409.478, 289.586
410.821, 280.809
412.165, 178.912
413.508, 145.523
414.851, 82.389
416.193, 14.775
417.536, 6.346
418.878, 14.504
420.220, 29.289
421.562, 16.961
422.904, 13.768
424.245, 81.432
425.586, 61.980
426.927, 49.529
428.268, 14.014
429.609, 190.645
430.949, 32.453
432.289, 204.670
433.629, 560.045
434.969, 373.305
436.309, 146.760
437.648, 443.766
438.987, 449.109
440.326, 349.383
441.665, 554.299
443.003, 834.094
444.342, 1170.529
445.680, 1686.395
447.018, 2263.164
448.355, 2800.939
449.693, 3815.387
451.030, 4695.033
452.367, 5740.275
453.704, 5946.842
455.041, 6045.133
456.377, 5384.617
457.713, 4554.059
459.049, 3872.459
460.385, 3526.814
461.721, 3459.129
463.056, 3226.400
464.391, 3522.633
465.726, 4484.820
467.061, 5251.967
468.395, 6607.070
469.730, 8443.133
471.064, 10205.156
472.398, 12756.133
473.731, 14528.072
475.065, 15714.973
476.398, 15532.828
477.731, 14218.646
479.064, 12231.422
480.397, 11085.154
481.729, 10047.848
483.062, 9406.500
484.394, 8972.109
485.725, 7973.678
487.057, 6471.207
488.389, 5023.695
489.720, 4131.150
491.051, 3673.568
492.382, 3324.949
493.712, 3219.299
495.043, 3198.611
496.373, 3329.891
497.703, 3849.135
499.032, 4656.348
500.362, 5506.523
501.691, 6933.664
503.020, 8721.771
504.349, 11640.846
505.678, 15318.881
507.007, 20046.707
508.335, 25713.641
509.663, 31853.256
510.991, 38098.156
512.319, 41789.012
513.646, 42908.879
514.973, 37683.277
516.300, 31915.035
517.627, 24624.807
518.954, 18230.475
520.280, 14227.293
521.607, 10543.336
522.933, 8438.922
524.259, 6664.232
525.584, 5575.344
526.910, 4530.221
528.235, 3929.002
529.560, 3319.080
530.885, 2816.682
532.209, 2391.768
533.534, 2373.895
534.858, 2095.299
536.182, 1748.152
537.506, 1705.658
538.829, 1437.135
540.152, 1321.680
541.476, 1298.613
542.799, 976.707
544.121, 1138.098
545.444, 1016.670
546.766, 803.240
548.088, 958.541
549.410, 818.373
550.732, 885.420
552.053, 664.881
553.375, 557.080
554.696, 689.443
556.017, 666.773
557.337, 602.721
558.658, 576.688
559.978, 528.123
561.298, 551.625
562.618, 437.098
563.938, 429.088
565.257, 466.615
566.576, 328.346
567.895, 538.803
569.214, 653.363
570.533, 487.047
571.851, 487.240
573.170, 591.199
574.488, 629.439
575.805, 743.244
577.123, 564.203
578.440, 768.449
579.758, 1168.543
581.075, 892.305
582.391, 1173.938
583.708, 1088.928
585.024, 944.039
586.341, 811.408
587.657, 853.482
588.972, 678.447
590.288, 457.316
591.603, 273.152
592.918, 294.684
594.233, 241.154
595.548, 502.539
596.863, 252.975
598.177, 262.381
599.491, 345.613
600.805, 4.953
602.119, 257.242
603.432, 324.502
604.746, 353.730
606.059, 326.926
607.372, 156.096
608.685, 410.227
609.997, 185.367
611.309, 358.475
612.621, 153.553
613.933, 564.594
615.245, 418.607
616.557, 437.590
617.868, 534.545
619.179, 680.471
620.490, 622.367
621.801, 840.238
623.111, 742.078
624.421, 1300.889
625.731, 1069.674
627.041, 1597.432
628.351, 1427.162
629.660, 1277.869
630.970, 1723.547
632.279, 1225.721
633.588, 1387.346
634.896, 1043.004
636.205, 1437.570
637.513, 1209.113
638.821, 1202.627
640.129, 1415.113
641.437, 1622.572
642.744, 1719.754
644.051, 1813.408
645.358, 2056.787
646.665, 2239.139
647.972, 2473.465
649.278, 2441.764
650.584, 2572.033
651.890, 2855.277
653.196, 2707.496
654.502, 2502.688
655.807, 1985.852
657.113, 1789.990
658.418, 1727.102
659.722, 1441.189
661.027, 1083.250
662.331, 856.285
663.636, 861.293
664.940, 311.279
666.244, 740.238
667.547, 345.174
668.851, 583.082
670.154, 310.967
671.457, 173.824
672.760, 371.654
674.062, 306.457
675.365, 81.234
676.667, 276.979
677.969, 215.354
679.271, 76.041
680.572, 3.303
681.874, 171.301
683.175, 218.875
684.476, 28.285
685.777, 153.195
687.077, 58.354
688.378, 133.016
689.678, 114.543
690.978, 47.852
692.278, 402.062
693.577, 235.260
694.877, 211.301
696.176, 192.543
697.475, 117.631
698.774, 195.098
700.072, 209.318
701.371, 13.904
702.669, 110.119
703.967, 94.623
705.265, 460.939
706.562, 292.373
707.860, 201.641
709.157, 391.705
710.454, 144.547
711.751, 336.127
713.047, 49.779
714.344, 67.568
715.640, 194.820
716.936, 170.105
718.232, 245.549
719.527, 111.953
720.823, 120.373
722.118, 5.713
723.413, 142.270
724.708, 117.529
726.002, 354.758
727.297, 106.484
728.591, 388.779
729.885, 811.959
731.179, 321.020
732.472, 261.441
733.766, 300.486
735.059, 638.527
736.352, 693.576
737.645, 748.678
738.937, 999.689
740.230, 909.883
741.522, 1283.889
742.814, 1585.500
744.106, 2265.852
745.397, 2610.887
746.689, 2835.926
747.980, 3356.660
749.271, 3367.465
750.562, 3441.025
751.853, 2650.980
753.143, 2517.549
754.433, 2114.137
755.723, 1450.023
757.013, 1596.725
758.303, 978.227
759.592, 1175.992
760.881, 749.791
762.170, 918.523
763.459, 858.521
764.748, 727.982
766.036, 1148.062
767.325, 898.756
768.613, 1045.664
769.901, 1017.316
771.188, 710.947
772.476, 822.559
773.763, 579.148
775.050, 860.719
776.337, 520.270
777.624, 392.801
778.910, 394.312
780.196, 515.301
781.482, 467.531
782.768, 304.223
784.054, 474.684
785.339, 289.098
786.625, 145.553
787.910, 393.924
789.195, 253.275
790.479, 395.607
791.764, 705.920
793.048, 389.213
794.332, 407.486
795.616, 667.744
796.900, 495.982
798.183, 368.205
799.467, 427.406
800.750, 603.592
802.033, 507.758
803.316, 1014.910
804.598, 1071.822
805.880, 1378.156
807.163, 1630.254
808.445, 1860.334
809.726, 2443.398
811.008, 3229.445
812.289, 3111.475
813.570, 3661.510
814.851, 3440.508
816.132, 2811.488
817.413, 1953.457
818.693, 1949.406
819.973, 1347.303
821.253, 899.223
822.533, 889.125
823.813, 605.012
825.092, 468.857
826.371, 590.113
827.650, 477.957
828.929, 362.754
830.208, 644.578
831.486, 70.217
832.764, 352.582
834.042, 242.354
835.320, 228.354
836.598, 250.500
837.875, 149.836
839.152, 264.217
840.429, 274.256
841.706, 220.719
842.983, 162.654
844.259, 313.498
845.536, 32.018
846.812, 105.852
848.088, 70.170
849.363, 186.963
850.639, 237.088
851.914, 236.594
853.189, 38.891
854.464, 226.074
855.739, 386.266
857.013, 280.090
858.288, 12.887
859.562, 15.359
860.836, 102.113
862.110, 196.582
863.383, 253.811
864.656, 139.244
865.930, 150.621
867.203, 70.908
868.475, 230.283
869.748, 176.422
871.020, 86.266
872.292, 139.273
873.564, 17.275
874.836, 156.951
876.108, 111.229
877.379, 171.309
878.650, 113.744
879.922, 31.984
881.192, 49.691
882.463, 43.547
883.733, 132.791
885.004, 76.969
886.274, 109.053
887.544, 208.242
888.813, 70.547
890.083, 41.635
891.352, 199.822
892.621, 11.012
893.890, 98.203
895.159, 40.605
896.427, 3.424
897.695, 188.760
898.964, 94.945
900.232, 138.133
901.499, 113.322
902.767, 202.512
904.034, 150.844
905.301, 125.912
906.568, 79.143
907.835, 131.375
909.102, 101.607
910.368, 49.852
911.634, 262.098
912.900, 41.344
914.166, 342.594
915.432, 60.846
916.697, 188.895
917.962, 163.291
919.227, 108.486
920.492, 277.229
921.757, 69.430
923.021, 264.633
924.285, 74.842
925.550, 139.057
926.813, 254.299
928.077, 42.807
929.341, 210.051
930.604, 53.299
931.867, 16.445
933.130, 199.805
934.393, 364.057
935.655, 34.684
936.918, 524.574
938.180, 8.832
939.442, 158.572
940.703, 191.834
941.965, 165.037
943.226, 223.508
944.488, 198.781
945.749, 243.855
947.009, 214.133
948.270, 263.416
949.530, 364.699
950.791, 296.988
952.051, 300.273
953.311, 314.518
954.570, 184.865
955.830, 342.170
957.089, 241.477
958.348, 329.787
959.607, 344.102
960.866, 67.424
962.124, 333.766
963.383, 278.105
964.641, 6.451
965.899, 385.838
967.156, 388.229
968.414, 312.621
969.671, 437.018
970.928, 251.414
972.185, 463.824
973.442, 278.240
974.699, 642.660
975.955, 620.127
977.211, 277.598
978.468, 607.076
979.723, 590.564
980.979, 619.059
982.234, 1039.561
983.490, 424.430
984.745, 818.961
986.000, 1105.506
987.254, 834.066
988.509, 1552.633
989.763, 1338.914
991.017, 1794.518
992.271, 2029.127
993.525, 2372.783
994.779, 2741.254
996.032, 2595.982
997.285, 2823.906
998.538, 2199.457
999.791, 2946.883
1001.044, 2537.832
1002.296, 2869.781
1003.548, 2632.836
1004.800, 2545.434
1006.052, 2542.508
1007.304, 2016.602
1008.555, 2030.941
1009.807, 1579.594
1011.058, 1460.148
1012.309, 1477.238
1013.559, 1201.391
1014.810, 1133.617
1016.060, 1090.129
1017.310, 905.500
1018.560, 829.750
1019.810, 823.160
1021.060, 894.512
1022.309, 709.629
1023.558, 1062.809
1024.807, 913.047
1026.056, 1316.816
1027.305, 881.043
1028.553, 1367.219
1029.801, 1090.387
1031.049, 1271.332
1032.297, 1368.535
1033.545, 1924.078
1034.793, 1917.820
1036.040, 2088.250
1037.287, 2243.312
1038.534, 1775.730
1039.781, 1966.535
1041.027, 1590.309
1042.274, 1541.203
1043.520, 1597.000
1044.766, 1047.680
1046.012, 1000.176
1047.257, 984.688
1048.503, 1201.352
1049.748, 777.871
1050.993, 930.727
1052.238, 983.684
1053.483, 551.074
1054.727, 604.262
1055.971, 775.766
1057.216, 453.613
1058.459, 400.934
1059.703, 567.762
1060.947, 373.578
1062.190, 247.930
1063.433, 328.070
1064.676, 367.504
1065.919, 116.504
1067.162, 544.371
1068.404, 150.129
1069.646, 22.629
1070.888, 469.453
1072.130, 303.566
1073.372, 420.574
1074.613, 403.207
1075.855, 202.996
1077.096, 6.871
1078.337, 595.590
1079.578, 236.219
1080.818, 316.793
1082.059, 385.988
1083.299, 347.570
1084.539, 128.000
1085.779, 249.203
1087.018, 223.738
1088.258, 341.785
1089.497, 493.930
1090.736, 496.625
1091.975, 386.285
1093.213, 423.223
1094.452, 469.652
1095.690, 386.148
1096.928, 682.324
1098.166, 738.707
1099.404, 937.551
1100.642, 858.363
1101.879, 873.840
1103.116, 612.395
1104.353, 586.238
1105.590, 469.301
1106.827, 558.070
1108.063, 514.211
1109.299, 535.281
1110.536, 783.160
1111.771, 633.559
1113.007, 805.219
1114.243, 940.633
1115.478, 1001.383
1116.713, 1198.051
1117.948, 1711.754
1119.183, 1450.230
1120.418, 2155.711
1121.652, 2867.984
1122.886, 3062.023
1124.120, 3361.453
1125.354, 2988.520
1126.588, 2990.961
1127.821, 2442.738
1129.055, 2625.492
1130.288, 2627.402
1131.521, 2513.684
1132.753, 2338.715
1133.986, 2329.188
1135.218, 3261.695
1136.450, 3087.551
1137.682, 3591.551
1138.914, 3338.297
1140.146, 3210.848
1141.377, 3019.934
1142.609, 2753.230
1143.840, 2380.977
1145.071, 2192.777
1146.301, 1825.469
1147.532, 1442.496
1148.762, 1314.984
1149.992, 695.543
1151.222, 898.320
1152.452, 753.980
1153.682, 469.129
1154.911, 691.426
1156.140, 224.938
1157.369, 345.797
1158.598, 401.504
1159.827, 305.508
1161.055, 174.598
1162.284, 274.344
1163.512, 320.336
1164.740, 368.598
1165.967, 338.141
1167.195, 512.738
1168.422, 250.617
1169.650, 180.426
1170.877, 180.695
1172.103, 101.113
1173.330, 69.414
1174.557, 335.539
1175.783, 220.883
1177.009, 118.059
1178.235, 170.332
1179.461, 215.121
1180.686, 6.766
1181.912, 373.332
1183.137, 482.715
1184.362, 340.656
1185.587, 256.492
1186.811, 426.355
1188.036, 175.434
1189.260, 167.074
1190.484, 144.027
1191.708, 234.180
1192.932, 128.266
1194.155, 191.984
1195.378, 242.090
1196.602, 277.789
1197.825, 199.234
1199.047, 413.266
1200.270, 80.211
1201.492, 361.109
1202.715, 59.109
1203.937, 440.695
1205.159, 328.094
1206.380, 448.457
1207.602, 497.465
1208.823, 320.379
1210.044, 367.543
1211.265, 300.254
1212.486, 163.281
1213.707, 258.832
1214.927, 218.145
1216.147, 340.996
1217.367, 378.613
1218.587, 369.332
1219.807, 153.973
1221.027, 241.570
1222.246, 55.926
1223.465, 420.684
1224.684, 455.129
1225.903, 511.180
1227.121, 68.137
1228.340, 456.473
1229.558, 553.809
1230.776, 85.367
1231.994, 108.469
1233.212, 591.539
1234.429, 346.770
1235.646, 335.641
1236.864, 440.465
1238.081, 207.402
1239.297, 378.082
1240.514, 589.664
1241.730, 237.184
1242.947, 311.641
1244.163, 498.023
1245.378, 384.293
1246.594, 586.500
1247.810, 134.242
1249.025, 442.273
1250.240, 145.238
1251.455, 315.129
1252.670, 379.934
1253.885, 288.660
1255.099, 284.227
1256.313, 0.727
1257.527, 452.113
1258.741, 385.355
1259.955, 72.496
1261.168, 352.500
1262.382, 367.418
1263.595, 354.289
1264.808, 403.066
1266.021, 67.609
1267.233, 200.844
1268.446, 251.094
1269.658, 88.477
1270.870, 231.477
1272.082, 373.254
1273.294, 48.945
1274.505, 284.430
1275.716, 238.770
1276.928, 8.051
1278.139, 435.008
1279.349, 133.930
1280.560, 303.742
1281.770, 211.457
1282.981, 178.082
1284.191, 93.613
1285.401, 259.047
1286.610, 29.387
1287.820, 327.625
1289.029, 165.230
1290.239, 400.770
1291.448, 184.664
1292.656, 26.473
1293.865, 208.180
1295.073, 185.797
1296.282, 135.691
1297.490, 71.672
1298.698, 104.930
1299.906, 200.090
1301.113, 22.848
1302.320, 280.918
1303.528, 130.762
1304.735, 128.500
1305.942, 88.094
1307.148, 275.109
1308.355, 14.422
1309.561, 364.688
1310.767, 12.148
1311.973, 239.895
1313.179, 164.156
1314.384, 192.332
1315.590, 12.582
1316.795, 131.359
1318.000, 133.910
1319.205, 275.246
1320.410, 213.418
1321.614, 97.988
1322.819, 66.531
1324.023, 42.641
1325.227, 424.832
1326.431, 174.668
1327.634, 193.680
1328.838, 60.172
1330.041, 187.000
1331.244, 404.730
1332.447, 114.035
1333.650, 186.098
1334.852, 136.105
1336.055, 40.070
1337.257, 265.004
1338.459, 49.551
1339.661, 224.281
1340.862, 303.145
1342.064, 140.090
1343.265, 425.629
1344.466, 190.000
1345.667, 181.879
1346.868, 431.910
1348.068, 389.562
1349.269, 230.816
1350.469, 517.562
1351.669, 296.754
1352.869, 285.922
1354.069, 572.531
1355.268, 115.320
1356.468, 603.816
1357.667, 822.742
1358.866, 528.086
1360.065, 486.484
1361.263, 48.336
1362.462, 499.969
1363.660, 743.156
1364.858, 445.129
1366.056, 623.809
1367.254, 399.703
1368.451, 363.445
1369.649, 268.254
1370.846, 279.121
1372.043, 413.328
1373.240, 400.234
1374.436, 336.965
1375.633, 431.152
1376.829, 425.547
1378.025, 374.812
1379.221, 461.594
1380.417, 487.781
1381.613, 401.238
1382.808, 510.047
1384.003, 479.852
1385.199, 610.410
1386.393, 624.086
1387.588, 843.258
1388.783, 503.820
1389.977, 666.051
1391.171, 272.484
1392.365, 521.227
1393.559, 692.469
1394.753, 419.562
1395.946, 662.531
1397.140, 565.961
1398.333, 624.902
1399.526, 659.609
1400.719, 765.664
1401.911, 602.930
1403.104, 489.949
1404.296, 375.285
1405.488, 893.426
1406.680, 317.219
1407.872, 311.238
1409.063, 678.230
1410.255, 106.008
1411.446, 435.121
1412.637, 203.859
1413.828, 561.973
1415.018, 444.359
1416.209, 445.402
1417.399, 276.430
1418.589, 273.719
1419.779, 298.848
1420.969, 289.863
1422.159, 329.293
1423.348, 313.824
1424.537, 424.613
1425.726, 319.191
1426.915, 369.621
1428.104, 425.109
1429.293, 270.500
1430.481, 190.633
1431.669, 544.852
1432.857, 580.988
1434.045, 328.250
1435.233, 701.961
1436.420, 667.453
1437.608, 488.609
1438.795, 295.504
1439.982, 614.344
1441.169, 632.371
1442.355, 551.285
1443.542, 621.652
1444.728, 495.270
1445.914, 515.156
1447.100, 386.672
1448.286, 588.098
1449.472, 365.723
1450.657, 871.578
1451.842, 733.148
1453.027, 694.820
1454.212, 994.441
1455.397, 335.125
1456.581, 827.512
1457.766, 768.012
1458.950, 393.707
1460.134, 750.273
1461.318, 409.223
1462.501, 388.945
1463.685, 714.262
1464.868, 167.941
1466.051, 1060.711
1467.234, 353.488
1468.417, 567.238
1469.600, 774.000
1470.782, 782.832
1471.965, 396.629
1473.147, 1063.555
1474.329, 454.602
1475.510, 461.797
1476.692, 413.184
1477.873, 704.844
1479.055, 279.863
1480.236, 904.277
1481.416, 252.145
1482.597, 450.590
1483.778, 473.660
1484.958, 340.191
1486.138, 340.156
1487.318, 299.109
1488.498, 404.641
1489.678, 435.371
1490.857, 417.996
1492.037, 707.406
1493.216, 413.000
1494.395, 386.816
1495.574, 422.008
1496.752, 120.816
1497.931, 507.602
1499.109, 100.809
1500.287, 329.004
1501.465, 10.004
1502.643, 5.992
1503.820, 263.711
1504.998, 0.000
##END=



