##NAMES=Microcline
##RRUFFID=R050054
##IDEAL CHEMISTRY=KAlSi_3_O_8_
##LOCALITY=Kenticha, Negele area, Sidamo Province, Ethiopia
##OWNER=RRUFF
##SOURCE=Rock Currier
##DESCRIPTION=Light blue single crystal
##STATUS=The identification of this mineral has been confirmed by X-ray diffraction and chemical analysis
##URL=rruff.info/R050054
##MEASURED CHEMISTRY=(K_0.96_Na_0.04_)Al_1.00_Si_3.00_O_8_
##PIN_ID=M00082
##ORIENTATION=Laser parallel to b* (0 1 0). Fiducial mark perpendicular to laser is parallel to c [0 0 1]
83.128, 0.000
84.529, 61.218
85.929, 8.144
87.329, 251.923
88.728, 550.870
90.128, 1226.259
91.527, 1954.253
92.926, 2513.787
94.324, 2583.036
95.723, 2126.319
97.121, 1792.771
98.519, 1391.655
99.917, 1396.591
101.314, 1312.575
102.712, 1263.592
104.109, 1198.945
105.505, 991.623
106.902, 996.784
108.298, 884.870
109.694, 1509.681
111.090, 1003.336
112.486, 2120.782
113.881, 487.610
115.277, 9.362
116.672, 25.227
118.066, 28.313
119.461, 396.474
120.855, 846.607
122.249, 1666.475
123.643, 2219.979
125.036, 2823.179
126.430, 2989.376
127.823, 2823.774
129.216, 2471.656
130.608, 1912.268
132.001, 1367.821
133.393, 1275.500
134.785, 1131.805
136.176, 1375.717
137.568, 1535.603
138.959, 2016.932
140.350, 2595.069
141.741, 3174.292
143.131, 4629.754
144.521, 6617.013
145.911, 9557.207
147.301, 12475.799
148.691, 14621.076
150.080, 14624.068
151.469, 13410.983
152.858, 11496.068
154.247, 9283.250
155.635, 7550.807
157.024, 6016.840
158.411, 4744.500
159.799, 3752.300
161.187, 3013.961
162.574, 2415.239
163.961, 2034.084
165.348, 1595.025
166.734, 1360.212
168.121, 1180.980
169.507, 1142.374
170.893, 1135.809
172.278, 1273.492
173.664, 1518.419
175.049, 1897.576
176.434, 2363.941
177.819, 2685.489
179.203, 2719.194
180.587, 2514.025
181.971, 2085.961
183.355, 1654.983
184.739, 1339.075
186.122, 1010.231
187.505, 925.438
188.888, 710.681
190.271, 779.950
191.653, 867.233
193.035, 1141.522
194.417, 1554.810
195.799, 2062.315
197.180, 2504.403
198.562, 2708.863
199.943, 2338.462
201.324, 1912.257
202.704, 1318.488
204.084, 851.191
205.465, 554.079
206.844, 374.437
208.224, 239.688
209.603, 109.834
210.983, 44.188
212.362, 23.815
213.740, 62.239
215.119, 76.271
216.497, 87.693
217.875, 80.897
219.253, 73.563
220.631, 77.493
222.008, 94.322
223.385, 65.331
224.762, 81.423
226.139, 62.600
227.515, 113.874
228.891, 113.292
230.267, 150.920
231.643, 141.856
233.018, 113.156
234.394, 106.460
235.769, 82.170
237.144, 65.852
238.518, 102.229
239.893, 34.446
241.267, 5.092
242.641, 26.318
244.014, 114.268
245.388, 185.992
246.761, 263.576
248.134, 381.077
249.507, 636.648
250.879, 984.219
252.252, 1587.267
253.624, 2303.263
254.996, 3089.292
256.367, 3801.312
257.739, 3991.698
259.110, 4135.641
260.481, 4141.514
261.852, 4442.640
263.222, 4824.418
264.592, 5278.031
265.962, 5445.079
267.332, 5002.306
268.702, 4304.419
270.071, 3715.258
271.440, 3021.880
272.809, 2744.183
274.178, 2519.899
275.546, 2578.183
276.915, 2779.175
278.283, 3382.005
279.650, 4343.679
281.018, 5376.784
282.385, 6720.702
283.752, 7514.340
285.119, 8156.250
286.486, 7867.934
287.852, 6872.385
289.218, 5962.599
290.584, 4851.588
291.950, 4264.363
293.316, 3790.933
294.681, 3553.310
296.046, 3374.504
297.411, 3081.524
298.775, 2779.991
300.140, 2366.067
301.504, 2074.580
302.868, 1717.922
304.231, 1308.123
305.595, 1093.188
306.958, 852.119
308.321, 704.919
309.684, 602.561
311.047, 477.989
312.409, 412.120
313.771, 383.835
315.133, 327.104
316.495, 278.949
317.856, 299.377
319.217, 359.422
320.578, 321.085
321.939, 409.329
323.299, 431.180
324.660, 569.691
326.020, 715.892
327.380, 1021.874
328.739, 1333.714
330.099, 1447.463
331.458, 1645.160
332.817, 1572.830
334.176, 1257.472
335.534, 997.086
336.892, 761.670
338.251, 614.222
339.608, 489.739
340.966, 456.217
342.323, 391.656
343.681, 420.053
345.037, 352.409
346.394, 351.721
347.751, 443.990
349.107, 466.217
350.463, 626.294
351.819, 761.991
353.174, 973.766
354.530, 1147.806
355.885, 1344.187
357.240, 1394.184
358.594, 1259.144
359.949, 1199.066
361.303, 998.941
362.657, 1006.758
364.011, 1035.518
365.365, 1136.220
366.718, 1351.864
368.071, 1974.845
369.424, 2562.560
370.777, 3111.889
372.129, 3394.755
373.481, 3162.363
374.833, 2498.025
376.185, 1865.989
377.537, 1305.592
378.888, 912.375
380.239, 670.485
381.590, 476.087
382.941, 455.209
384.291, 381.146
385.642, 277.091
386.992, 247.913
388.341, 250.784
389.691, 263.895
391.040, 272.849
392.389, 345.899
393.738, 437.653
395.087, 575.046
396.435, 926.318
397.784, 1430.088
399.132, 2283.461
400.479, 3385.942
401.827, 4386.231
403.174, 4859.878
404.521, 4183.119
405.868, 3277.540
407.215, 2424.241
408.561, 2100.046
409.908, 1947.754
411.254, 1834.489
412.599, 1660.365
413.945, 1287.202
415.290, 896.991
416.636, 563.728
417.980, 378.411
419.325, 225.042
420.670, 71.617
422.014, 63.131
423.358, 7.416
424.702, 25.973
426.045, 33.300
427.389, 31.433
428.732, 40.769
430.075, 28.912
431.417, 51.997
432.760, 60.025
434.102, 91.998
435.444, 187.917
436.786, 246.787
438.127, 334.621
439.469, 412.139
440.810, 513.458
442.151, 661.650
443.492, 842.776
444.832, 1113.386
446.172, 1504.835
447.512, 1960.091
448.852, 2789.727
450.192, 3774.390
451.531, 4899.990
452.870, 5498.666
454.209, 5895.009
455.548, 5624.376
456.887, 4931.086
458.225, 4322.984
459.563, 4031.193
460.901, 3871.371
462.238, 3844.516
463.576, 4180.631
464.913, 5056.719
466.250, 5823.775
467.587, 7541.804
468.923, 9841.651
470.259, 13080.856
471.596, 17879.615
472.931, 22657.834
474.267, 27375.762
475.603, 27993.557
476.938, 26120.898
478.273, 22217.840
479.608, 17734.957
480.942, 14412.586
482.276, 11949.906
483.611, 10627.781
484.944, 8795.758
486.278, 7194.319
487.612, 5805.503
488.945, 4725.750
490.278, 3680.004
491.611, 3256.748
492.943, 2955.487
494.276, 2800.221
495.608, 2719.951
496.940, 2889.676
498.271, 3099.157
499.603, 3538.034
500.934, 4161.404
502.265, 5111.647
503.596, 6613.634
504.927, 8562.754
506.257, 11630.604
507.587, 15858.470
508.917, 21956.732
510.247, 29145.100
511.577, 35274.160
512.906, 40093.801
514.235, 38753.496
515.564, 32843.195
516.892, 27032.900
518.221, 20342.600
519.549, 15482.305
520.877, 11602.232
522.205, 9022.114
523.533, 7233.114
524.860, 5548.348
526.187, 4710.068
527.514, 3826.920
528.841, 3245.769
530.167, 2763.704
531.493, 2285.897
532.820, 2084.504
534.145, 1771.944
535.471, 1529.871
536.796, 1397.989
538.122, 1182.283
539.447, 1127.534
540.771, 918.845
542.096, 901.708
543.420, 819.561
544.744, 694.218
546.068, 710.403
547.392, 580.596
548.715, 562.931
550.039, 443.450
551.362, 433.169
552.684, 419.338
554.007, 325.057
555.329, 365.057
556.652, 347.141
557.973, 282.306
559.295, 254.544
560.617, 272.848
561.938, 190.224
563.259, 200.656
564.580, 201.130
565.901, 201.639
567.221, 177.180
568.541, 210.742
569.861, 177.320
571.181, 172.917
572.501, 208.524
573.820, 179.144
575.139, 234.765
576.458, 206.388
577.777, 294.029
579.095, 397.264
580.414, 445.897
581.732, 508.514
583.049, 538.779
584.367, 519.286
585.685, 415.848
587.002, 365.810
588.319, 298.441
589.636, 212.151
590.952, 115.758
592.268, 61.526
593.585, 79.448
594.900, 30.790
596.216, 16.399
597.532, 26.868
598.847, 51.138
600.162, 18.418
601.477, 47.698
602.792, 19.014
604.106, 30.270
605.420, 53.551
606.734, 37.843
608.048, 6.141
609.361, 38.436
610.675, 9.738
611.988, 27.962
613.301, 2.668
614.614, 14.622
615.926, 21.911
617.238, 61.799
618.550, 49.514
619.862, 109.235
621.174, 178.961
622.485, 141.694
623.797, 246.432
625.108, 383.177
626.418, 411.927
627.729, 521.684
629.039, 546.480
630.349, 581.406
631.659, 582.235
632.969, 589.059
634.279, 595.090
635.588, 527.926
636.897, 626.935
638.206, 659.808
639.515, 682.737
640.823, 859.642
642.131, 855.678
643.439, 1038.662
644.747, 1024.829
646.055, 1149.867
647.362, 1275.824
648.669, 1427.900
649.976, 1653.971
651.283, 1732.946
652.589, 1793.926
653.896, 1720.912
655.202, 1495.904
656.508, 1438.901
657.814, 1273.909
659.119, 1075.927
660.424, 973.956
661.729, 795.998
663.034, 636.051
664.339, 488.117
665.643, 375.561
666.947, 294.379
668.251, 215.479
669.555, 185.606
670.859, 179.794
672.162, 164.089
673.465, 102.410
674.768, 22.089
676.071, 44.919
677.373, 2.864
678.676, 4.923
679.978, 23.071
681.280, 49.372
682.581, 15.538
683.883, 40.165
685.184, 39.584
686.485, 60.871
687.786, 45.266
689.087, 90.678
690.387, 86.059
691.687, 36.172
692.987, 38.295
694.287, 78.469
695.586, 10.118
696.886, 55.638
698.185, 9.221
699.484, 11.458
700.783, 12.021
702.081, 72.258
703.379, 80.207
704.677, 132.230
705.975, 152.777
707.273, 249.628
708.570, 232.117
709.868, 360.715
711.165, 395.209
712.462, 388.244
713.758, 381.641
715.055, 360.334
716.351, 252.469
717.647, 242.180
718.943, 228.997
720.238, 155.578
721.533, 170.555
722.829, 156.307
724.124, 165.725
725.418, 195.709
726.713, 189.562
728.007, 200.373
729.301, 244.655
730.595, 280.575
731.889, 367.464
733.182, 380.677
734.476, 454.910
735.769, 523.753
737.061, 651.884
738.354, 791.907
739.647, 924.821
740.939, 1170.870
742.231, 1346.710
743.523, 1722.563
744.814, 2114.359
746.106, 2641.091
747.397, 3255.739
748.688, 3369.475
749.978, 3403.149
751.269, 3154.817
752.559, 2559.494
753.849, 2166.433
755.139, 1735.510
756.429, 1372.785
757.719, 1211.999
759.008, 976.538
760.297, 849.615
761.586, 731.405
762.875, 636.893
764.163, 655.215
765.451, 560.509
766.739, 574.680
768.027, 520.136
769.315, 484.520
770.602, 393.516
771.890, 352.277
773.177, 303.684
774.463, 235.078
775.750, 219.460
777.036, 191.886
778.323, 194.187
779.609, 180.532
780.894, 133.864
782.180, 141.182
783.465, 97.489
784.750, 69.782
786.035, 96.061
787.320, 101.326
788.605, 55.578
789.889, 148.815
791.173, 70.039
792.457, 117.248
793.741, 97.443
795.024, 110.624
796.307, 79.791
797.591, 95.943
798.873, 55.081
800.156, 88.203
801.439, 118.309
802.721, 82.402
804.003, 85.479
805.285, 170.542
806.566, 118.589
807.848, 135.622
809.129, 198.641
810.410, 196.645
811.691, 287.635
812.971, 282.609
814.252, 298.569
815.532, 328.514
816.812, 187.444
818.092, 156.359
819.371, 147.258
820.651, 90.143
821.930, 115.011
823.209, 107.864
824.488, 94.702
825.766, 70.523
827.045, 65.328
828.323, 40.473
829.601, 35.494
830.878, 32.344
832.156, 29.121
833.433, 30.645
834.710, 39.035
835.987, 32.167
837.264, 34.794
838.540, 42.274
839.817, 40.741
841.093, 31.111
842.369, 29.173
843.644, 0.917
844.920, 11.788
846.195, 10.191
847.470, 9.438
848.745, 23.445
850.020, 22.755
851.294, 30.051
852.568, 19.024
853.842, 24.868
855.116, 21.771
856.390, 16.525
857.663, 36.687
858.936, 26.115
860.209, 46.955
861.482, 9.156
862.755, 6.248
864.027, 41.680
865.299, 18.655
866.571, 24.662
867.843, 13.706
869.115, 4.780
870.386, 2.121
871.657, 0.001
872.928, 3.855
874.199, 30.690
875.470, 16.490
876.740, 6.300
878.010, 24.069
879.280, 19.176
880.550, 2.452
881.820, 26.752
883.089, 25.913
884.358, 30.563
885.627, 42.801
886.896, 6.792
888.164, 69.632
889.433, 8.886
890.701, 12.387
891.969, 24.127
893.236, 10.673
894.504, 23.754
895.771, 20.169
897.038, 30.570
898.305, 43.567
899.572, 61.331
900.838, 37.693
902.105, 50.042
903.371, 48.147
904.637, 40.171
905.902, 39.017
907.168, 39.321
908.433, 13.620
909.698, 25.908
910.963, 80.191
912.228, 16.538
913.492, 104.713
914.757, 24.961
916.021, 45.203
917.285, 77.434
918.548, 105.661
919.812, 60.878
921.075, 88.085
922.338, 100.281
923.601, 69.469
924.864, 96.650
926.126, 142.821
927.388, 109.982
928.650, 105.132
929.912, 107.272
931.174, 63.402
932.435, 156.523
933.697, 151.633
934.958, 100.734
936.218, 166.795
937.479, 76.729
938.739, 153.762
940.000, 150.807
941.260, 115.649
942.520, 199.694
943.779, 176.577
945.039, 197.604
946.298, 180.588
947.557, 199.485
948.816, 235.495
950.074, 232.444
951.333, 249.211
952.591, 254.109
953.849, 254.085
955.107, 249.940
956.365, 247.798
957.622, 254.750
958.879, 236.693
960.136, 261.629
961.393, 216.557
962.650, 217.747
963.906, 195.391
965.162, 209.296
966.418, 194.194
967.674, 229.085
968.930, 310.970
970.185, 233.847
971.441, 297.718
972.696, 312.489
973.950, 292.346
975.205, 272.177
976.459, 288.945
977.714, 322.605
978.968, 352.237
980.222, 345.521
981.475, 352.651
982.729, 390.672
983.982, 454.584
985.235, 532.547
986.488, 581.808
987.740, 729.921
988.993, 846.139
990.245, 1041.595
991.497, 1224.059
992.749, 1403.369
994.000, 1451.750
995.252, 1479.591
996.503, 1458.940
997.754, 1376.918
999.005, 1278.935
1000.256, 1172.173
1001.506, 1202.753
1002.756, 1065.107
1004.006, 1009.877
1005.256, 906.566
1006.506, 830.102
1007.755, 807.969
1009.005, 702.762
1010.254, 617.054
1011.502, 615.053
1012.751, 573.415
1014.000, 563.675
1015.248, 484.035
1016.496, 562.848
1017.744, 601.297
1018.991, 561.442
1020.239, 613.142
1021.486, 574.257
1022.733, 669.259
1023.980, 785.490
1025.227, 860.316
1026.473, 964.359
1027.719, 1060.729
1028.965, 1129.523
1030.211, 1201.440
1031.457, 1094.403
1032.702, 1087.887
1033.948, 1090.723
1035.193, 1000.583
1036.438, 1074.111
1037.682, 1051.610
1038.927, 1083.495
1040.171, 1125.088
1041.415, 1082.785
1042.659, 1107.591
1043.903, 1109.264
1045.146, 1132.141
1046.390, 1287.007
1047.633, 1412.928
1048.876, 1552.909
1050.118, 1763.971
1051.361, 1840.939
1052.603, 1829.048
1053.845, 1860.990
1055.087, 1653.988
1056.329, 1404.987
1057.571, 1209.995
1058.812, 1061.880
1060.053, 887.844
1061.294, 750.949
1062.535, 666.631
1063.775, 543.747
1065.016, 459.738
1066.256, 484.821
1067.496, 382.948
1068.736, 335.081
1069.975, 372.216
1071.214, 276.358
1072.454, 358.503
1073.693, 295.653
1074.931, 347.806
1076.170, 375.963
1077.408, 317.140
1078.647, 381.319
1079.885, 351.503
1081.122, 381.697
1082.360, 457.895
1083.597, 467.097
1084.835, 435.317
1086.072, 528.542
1087.308, 493.775
1088.545, 583.012
1089.781, 549.254
1091.018, 608.553
1092.254, 711.805
1093.490, 682.062
1094.725, 791.944
1095.961, 879.209
1097.196, 866.480
1098.431, 1010.755
1099.666, 1004.035
1100.900, 1037.553
1102.135, 1188.845
1103.369, 1160.141
1104.603, 1298.443
1105.837, 1448.751
1107.071, 1512.064
1108.304, 1651.382
1109.538, 1807.706
1110.771, 2044.033
1112.004, 2402.366
1113.236, 2767.705
1114.469, 3495.048
1115.701, 3795.440
1116.933, 4536.793
1118.165, 5648.250
1119.397, 6585.614
1120.629, 7918.980
1121.860, 9248.355
1123.091, 9747.733
1124.322, 10017.116
1125.553, 9756.505
1126.783, 8655.982
1128.014, 8008.025
1129.244, 6757.434
1130.474, 6297.441
1131.704, 5909.621
1132.933, 5279.053
1134.163, 5317.606
1135.392, 5411.055
1136.621, 5430.511
1137.850, 5488.995
1139.079, 5294.466
1140.307, 4908.916
1141.535, 4712.294
1142.763, 3863.896
1143.991, 3593.423
1145.219, 3050.967
1146.446, 2516.579
1147.674, 2273.221
1148.901, 1859.170
1150.128, 1673.799
1151.354, 1473.182
1152.581, 1222.800
1153.807, 1188.611
1155.033, 1008.342
1156.259, 891.953
1157.485, 822.508
1158.710, 714.994
1159.936, 682.786
1161.161, 660.091
1162.386, 558.934
1163.611, 587.815
1164.835, 450.249
1166.060, 460.041
1167.284, 454.099
1168.508, 393.942
1169.732, 363.684
1170.955, 385.578
1172.179, 295.413
1173.402, 355.226
1174.625, 296.990
1175.848, 260.771
1177.070, 285.651
1178.293, 243.953
1179.515, 288.819
1180.737, 172.762
1181.959, 194.674
1183.181, 260.531
1184.402, 188.494
1185.624, 179.847
1186.845, 182.780
1188.066, 161.835
1189.286, 134.849
1190.507, 183.928
1191.727, 121.003
1192.947, 119.250
1194.167, 50.483
1195.387, 45.129
1196.607, 72.475
1197.826, 36.467
1199.045, 87.354
1200.264, 113.375
1201.483, 62.337
1202.702, 73.266
1203.920, 61.478
1205.138, 63.429
1206.356, 131.320
1207.574, 69.399
1208.792, 65.290
1210.009, 22.121
1211.227, 65.019
1212.444, 50.011
1213.661, 12.010
1214.877, 76.216
1216.094, 16.114
1217.310, 30.444
1218.526, 29.342
1219.742, 60.385
1220.958, 38.280
1222.173, 74.215
1223.389, 19.628
1224.604, 100.521
1225.819, 39.504
1227.034, 29.476
1228.248, 97.548
1229.463, 58.612
1230.677, 32.662
1231.891, 41.547
1233.105, 35.343
1234.318, 49.224
1235.532, 49.103
1236.745, 2.935
1237.958, 45.943
1239.171, 36.817
1240.384, 39.274
1241.596, 89.596
1242.809, 16.468
1244.021, 36.360
1245.233, 52.236
1246.444, 9.800
1247.656, 57.175
1248.867, 26.055
1250.079, 38.268
1251.290, 91.151
1252.500, 52.059
1253.711, 12.078
1254.921, 100.966
1256.132, 44.842
1257.342, 54.865
1258.552, 101.725
1259.761, 41.586
1260.971, 6.438
1262.180, 47.273
1263.389, 0.854
1264.598, 31.981
1265.807, 32.460
1267.015, 21.726
1268.223, 48.529
1269.432, 35.331
1270.640, 46.281
1271.847, 4.023
1273.055, 45.215
1274.262, 79.505
1275.470, 27.780
1276.677, 30.075
1277.883, 36.620
1279.090, 1.321
1280.296, 46.071
1281.503, 40.742
1282.709, 32.590
1283.915, 80.097
1285.120, 15.256
1286.326, 29.624
1287.531, 5.992
1288.736, 26.601
1289.941, 25.206
1291.146, 11.806
1292.350, 15.598
1293.555, 3.980
1294.759, 16.597
1295.963, 25.837
1297.167, 25.716
1298.370, 31.720
1299.574, 6.963
1300.777, 59.485
1301.980, 73.998
1303.183, 40.509
1304.386, 6.928
1305.588, 36.645
1306.790, 4.792
1307.993, 4.161
1309.195, 5.479
1310.396, 23.090
1311.598, 1.432
1312.799, 19.073
1314.000, 45.396
1315.201, 11.711
1316.402, 27.055
1317.603, 33.347
1318.803, 59.629
1320.003, 45.901
1321.203, 23.163
1322.403, 30.585
1323.603, 31.649
1324.802, 16.870
1326.002, 25.079
1327.201, 39.279
1328.400, 18.469
1329.599, 2.650
1330.797, 32.818
1331.995, 13.977
1333.194, 18.436
1334.392, 7.427
1335.589, 15.696
1336.787, 7.807
1337.985, 8.602
1339.182, 32.995
1340.379, 24.070
1341.576, 30.133
1342.772, 59.186
1343.969, 24.228
1345.165, 39.261
1346.361, 47.294
1347.557, 12.281
1348.753, 43.255
1349.949, 67.237
1351.144, 21.191
1352.339, 99.134
1353.534, 0.067
1354.729, 68.986
1355.924, 36.895
1357.118, 35.784
1358.312, 15.663
1359.506, 111.820
1360.700, 11.675
1361.894, 91.518
1363.088, 28.350
1364.281, 62.171
1365.474, 51.981
1366.667, 39.217
1367.860, 101.560
1369.052, 40.329
1370.245, 0.071
1371.437, 26.799
1372.629, 27.517
1373.821, 32.622
1375.013, 80.062
1376.204, 3.741
1377.395, 98.380
1378.586, 98.997
1379.777, 43.605
1380.968, 79.231
1382.159, 83.254
1383.349, 56.904
1384.539, 70.547
1385.729, 89.940
1386.919, 62.563
1388.109, 77.178
1389.298, 47.782
1390.487, 46.378
1391.676, 120.965
1392.865, 25.496
1394.054, 90.955
1395.242, 66.515
1396.431, 43.067
1397.619, 87.516
1398.807, 86.000
1399.995, 35.595
1401.182, 104.915
1402.370, 75.356
1403.557, 91.364
1404.744, 88.283
1405.931, 58.473
1407.118, 72.660
1408.304, 119.087
1409.490, 40.990
1410.676, 86.351
1411.862, 127.410
1413.048, 21.446
1414.234, 110.858
1415.419, 47.393
1416.604, 88.303
1417.789, 106.681
1418.974, 68.438
1420.159, 107.192
1421.343, 52.116
1422.528, 33.286
1423.712, 101.845
1424.896, 55.472
1426.079, 43.329
1427.263, 96.721
1428.446, 86.441
1429.629, 62.327
1430.812, 102.363
1431.995, 53.692
1433.178, 83.163
1434.360, 89.648
1435.543, 42.672
1436.725, 62.992
1437.907, 71.026
1439.088, 81.444
1440.270, 45.295
1441.451, 21.065
1442.632, 61.311
1443.813, 152.729
1444.994, 37.686
1446.175, 62.838
1447.355, 92.458
1448.535, 23.587
1449.715, 72.941
1450.895, 85.877
1452.075, 4.947
1453.255, 43.901
1454.434, 14.174
1455.613, 88.537
1456.792, 86.152
1457.971, 22.163
1459.149, 119.469
1460.328, 111.075
1461.506, 56.327
1462.684, 80.907
1463.862, 44.420
1465.040, 27.969
1466.217, 101.281
1467.395, 105.420
1468.572, 45.123
1469.749, 116.870
1470.925, 67.569
1472.102, 73.012
1473.278, 108.679
1474.455, 0.787
1475.631, 100.857
1476.807, 41.475
1477.982, 43.039
1479.158, 98.448
1480.333, 33.954
1481.508, 40.807
1482.683, 107.211
1483.858, 79.691
1485.033, 92.163
1486.207, 67.973
1487.381, 16.843
1488.555, 53.900
1489.729, 49.251
1490.903, 9.795
1492.076, 81.342
1493.250, 76.867
1494.423, 52.419
1495.596, 115.960
1496.769, 98.480
1497.941, 52.079
1499.114, 86.458
1500.286, 4.192
1501.458, 89.149
1502.630, 57.484
1503.802, 65.773
1504.973, 35.140
1506.145, 55.649
1507.316, 63.328
1508.487, 70.008
1509.657, 67.803
1510.828, 46.694
1511.999, 47.259
1513.169, 39.853
1514.339, 1.587
1515.509, 72.820
1516.678, 13.952
1517.848, 162.457
1519.017, 30.122
1520.187, 0.000
##END=



