##NAMES=Microcline
##RRUFFID=R050150
##IDEAL CHEMISTRY=KAlSi_3_O_8_
##LOCALITY=Crystal Peak area, Park/Teller Counties, Colorado, USA
##OWNER=RRUFF
##SOURCE=Dave Bunk Minerals
##DESCRIPTION=Pale blue prismatic crystals
##STATUS=The identification of this mineral has been confirmed by X-ray diffraction and chemical analysis
##URL=rruff.info/R050150
##MEASURED CHEMISTRY=(K_0.95_Na_0.05_)_Î£=1_Al_1.00_Si_3.00_O_8_
##PIN_ID=L01538
##ORIENTATION=Laser parallel to c* (0 0 1). Fiducial mark perpendicular to laser is parallel to a [1 0 0]
131.4130, 0.0000000E+00
132.6530, 18.99219
133.8930, 5.695313
135.1330, 511.3984
136.3730, 1414.180
137.6120, 2831.757
138.8510, 3803.825
140.0900, 4564.646
141.3290, 4269.004
142.5680, 3864.492
143.8060, 4137.957
145.0440, 4588.165
146.2820, 5610.562
147.5200, 6988.343
148.7570, 8410.517
149.9950, 10324.35
151.2320, 12351.67
152.4690, 14781.40
153.7060, 17176.95
154.9420, 19710.04
156.1790, 21295.45
157.4150, 21078.49
158.6510, 19389.67
159.8870, 16800.25
161.1220, 13790.24
162.3570, 10897.56
163.5930, 8389.322
164.8280, 6177.514
166.0620, 4721.939
167.2970, 3622.266
168.5310, 2913.069
169.7650, 2723.181
170.9990, 2853.301
172.2330, 3038.147
173.4670, 3721.087
174.7000, 4764.820
175.9330, 5571.160
177.1660, 6260.655
178.3990, 6379.198
179.6310, 5786.617
180.8640, 5264.688
182.0960, 4450.927
183.3280, 3887.098
184.5600, 3172.550
185.7910, 2755.104
187.0220, 2617.842
188.2540, 2427.326
189.4840, 2675.016
190.7150, 3007.858
191.9460, 3254.694
193.1760, 4041.468
194.4060, 4695.238
195.6360, 5559.308
196.8660, 6445.766
198.0960, 6725.322
199.3250, 6546.725
200.5540, 5619.951
201.7830, 4534.013
203.0120, 3668.917
204.2400, 2848.701
205.4690, 1745.734
206.6970, 1209.521
207.9250, 715.0879
209.1530, 609.3486
210.3800, 182.2295
211.6080, 16.68066
212.8350, 43.35938
214.0620, 184.9453
215.2880, 243.1172
216.5150, 292.9189
217.7410, 307.4004
218.9680, 370.1875
220.1940, 348.9336
221.4190, 246.0068
222.6450, 289.9062
223.8700, 229.2627
225.0960, 207.7812
226.3210, 178.3115
227.5450, 87.91797
228.7700, 61.73926
229.9940, 210.5293
231.2190, 81.96289
232.4430, 124.5488
233.6660, 190.2910
234.8900, 71.18457
236.1140, 108.0908
237.3370, 139.2754
238.5600, 160.5596
239.7830, 297.1123
241.0050, 387.4014
242.2280, 637.5801
243.4500, 747.8848
244.6720, 1134.429
245.8940, 1475.729
247.1160, 1948.713
248.3370, 2695.306
249.5580, 3428.943
250.7790, 4277.498
252.0000, 5148.328
253.2210, 6705.549
254.4410, 7718.252
255.6620, 9359.754
256.8820, 10299.75
258.1020, 10756.46
259.3210, 11051.37
260.5410, 11307.60
261.7600, 11479.19
262.9790, 12133.10
264.1980, 12175.03
265.4170, 12353.03
266.6360, 11835.48
267.8540, 11015.95
269.0720, 9939.423
270.2900, 9221.909
271.5080, 8710.404
272.7260, 8336.908
273.9430, 8667.424
275.1600, 9631.255
276.3770, 10770.87
277.5940, 12359.49
278.8100, 14285.99
280.0270, 16508.07
281.2430, 18956.34
282.4590, 21164.77
283.6750, 22353.69
284.8910, 22356.83
286.1060, 20842.98
287.3210, 18187.73
288.5360, 15896.26
289.7510, 12393.28
290.9660, 9805.751
292.1800, 7686.467
293.3950, 5856.503
294.6090, 4653.141
295.8230, 3815.377
297.0360, 3140.211
298.2500, 2642.634
299.4630, 2295.582
300.6760, 1978.964
301.8890, 1782.719
303.1020, 1595.824
304.3150, 1389.095
305.5270, 1261.945
306.7390, 1086.322
307.9510, 1009.998
309.1630, 922.1631
310.3750, 789.8525
311.5860, 674.0938
312.7970, 705.9160
314.0080, 643.3428
315.2190, 623.3984
316.4300, 598.9775
317.6400, 683.9482
318.8510, 734.3701
320.0610, 812.2617
321.2710, 954.2646
322.4800, 1028.412
323.6900, 1186.463
324.8990, 1333.553
326.1080, 1662.867
327.3170, 1977.440
328.5260, 2325.361
329.7340, 2515.624
330.9430, 2581.587
332.1510, 2485.315
333.3590, 2265.893
334.5670, 2042.389
335.7740, 1637.854
336.9820, 1561.294
338.1890, 1209.709
339.3960, 1039.096
340.6030, 996.4502
341.8100, 858.7734
343.0160, 811.0576
344.2220, 781.3027
345.4280, 751.6709
346.6340, 717.6777
347.8400, 793.8066
349.0460, 825.8994
350.2510, 899.3105
351.4560, 849.7256
352.6610, 1021.261
353.8660, 1175.941
355.0700, 1229.779
356.2750, 1202.612
357.4790, 1155.299
358.6830, 968.3672
359.8870, 929.6855
361.0910, 807.4775
362.2940, 905.2559
363.4970, 972.2354
364.7000, 952.3691
365.9030, 1040.909
367.1060, 991.9678
368.3080, 1282.316
369.5110, 1343.507
370.7130, 1589.081
371.9150, 1391.543
373.1170, 1480.729
374.3180, 1270.622
375.5200, 862.2480
376.7210, 584.0156
377.9220, 364.1826
379.1230, 148.2930
380.3230, 73.94336
381.5240, 69.99023
382.7240, 64.09375
383.9240, 150.7334
385.1240, 12.81152
386.3240, 92.51367
387.5230, 79.71680
388.7230, 165.1338
389.9220, 53.98438
391.1210, 7.436523
392.3200, 41.43945
393.5180, 247.2754
394.7170, 333.0850
395.9150, 426.8730
397.1130, 743.6533
398.3110, 880.4238
399.5080, 1150.184
400.7060, 1403.928
401.9030, 1707.659
403.1000, 1920.373
404.2970, 1925.038
405.4940, 1691.689
406.6910, 1614.273
407.8870, 1181.857
409.0830, 1329.438
410.2790, 1149.040
411.4750, 1276.671
412.6710, 1088.301
413.8660, 852.9531
415.0610, 591.6133
416.2560, 378.2998
417.4510, 249.4697
418.6460, 142.7080
419.8410, 49.44336
421.0350, 86.81348
422.2290, 177.1162
423.4230, 157.5625
424.6170, 118.1484
425.8100, 125.8672
427.0040, 76.09961
428.1970, 46.32617
429.3900, 4.855469
430.5830, 46.90234
431.7760, 63.54590
432.9680, 136.0732
434.1610, 199.4883
435.3530, 292.7930
436.5450, 495.9941
437.7360, 569.0967
438.9280, 799.1006
440.1190, 1042.012
441.3110, 1248.827
442.5020, 1787.548
443.6930, 2309.179
444.8830, 3207.720
446.0740, 4084.176
447.2640, 5070.545
448.4540, 6219.679
449.6440, 7597.194
450.8340, 9173.897
452.0240, 10346.21
453.2130, 11149.07
454.4020, 11255.31
455.5910, 10535.00
456.7800, 9429.765
457.9690, 8259.933
459.1570, 7018.227
460.3460, 6006.335
461.5340, 5376.857
462.7220, 5167.462
463.9090, 5224.438
465.0970, 5664.930
466.2840, 6376.570
467.4720, 7473.195
468.6590, 9058.343
469.8460, 10412.64
471.0320, 12239.92
472.2190, 14519.18
473.4050, 16136.42
474.5910, 17221.66
475.7770, 17445.88
476.9630, 16287.09
478.1490, 15056.30
479.3340, 13385.49
480.5190, 11903.67
481.7040, 10770.35
482.8890, 10031.35
484.0740, 9046.181
485.2580, 7834.461
486.4430, 6928.561
487.6270, 5717.559
488.8110, 4940.454
489.9950, 4154.227
491.1780, 3738.340
492.3620, 3561.610
493.5450, 3516.208
494.7280, 3336.621
495.9110, 3629.784
497.0940, 4041.643
498.2760, 4720.764
499.4590, 5579.885
500.6410, 6915.955
501.8230, 8693.422
503.0050, 10991.98
504.1860, 14303.30
505.3680, 18121.33
506.5490, 22466.94
507.7300, 27012.81
508.9110, 32906.07
510.0920, 38885.48
511.2730, 44023.02
512.4530, 47539.71
513.6330, 47110.52
514.8130, 43667.46
515.9930, 37938.51
517.1730, 31599.64
518.3520, 25442.91
519.5320, 19968.69
520.7110, 15597.76
521.8900, 12138.17
523.0690, 9689.440
524.2470, 7674.068
525.4260, 6254.072
526.6040, 5240.123
527.7820, 4559.483
528.9600, 3717.563
530.1380, 3395.297
531.3150, 2724.951
532.4930, 2388.824
533.6700, 2142.093
534.8470, 2013.832
536.0240, 1819.464
537.2000, 1536.509
538.3770, 1446.535
539.5530, 1294.497
540.7290, 1188.463
541.9050, 1016.433
543.0810, 918.2305
544.2570, 835.4648
545.4320, 702.7871
546.6080, 742.3467
547.7830, 631.5918
548.9580, 559.7920
550.1320, 565.8350
551.3070, 511.8135
552.4810, 513.2227
553.6550, 467.2275
554.8300, 572.7578
556.0030, 516.2178
557.1770, 567.9863
558.3510, 371.0625
559.5240, 394.1348
560.6970, 442.8984
561.8700, 364.3525
563.0430, 416.2119
564.2160, 596.1270
565.3880, 666.7383
566.5600, 508.7383
567.7320, 270.8545
568.9040, 363.9600
570.0760, 302.0566
571.2480, 554.2764
572.4190, 601.0332
573.5900, 488.7510
574.7610, 658.7998
575.9320, 768.1729
577.1030, 1026.948
578.2740, 1012.422
579.4440, 1286.523
580.6140, 1220.321
581.7840, 1487.453
582.9540, 1460.602
584.1240, 1402.954
585.2930, 1160.121
586.4630, 972.2998
587.6320, 874.5117
588.8010, 738.7334
589.9700, 693.9902
591.1380, 580.2607
592.3070, 128.5693
593.4750, 77.90039
594.6430, 50.25195
595.8110, 73.62500
596.9790, 98.02441
598.1460, 28.55078
599.3140, 163.8936
600.4810, 60.62305
601.6480, 2.120117
602.8150, 16.41016
603.9820, 2.035156
605.1480, 2.541992
606.3150, 79.86035
607.4810, 39.91406
608.6470, 4.649414
609.8130, 50.97656
610.9790, 81.59180
612.1440, 95.32031
613.3100, 157.0352
614.4750, 94.76367
615.6400, 131.5098
616.8050, 156.2686
617.9690, 171.0635
619.1340, 181.8809
620.2980, 382.7100
621.4620, 430.5537
622.6260, 369.4141
623.7900, 702.2949
624.9540, 477.1943
626.1170, 723.1143
627.2810, 793.0566
628.4440, 888.0225
629.6070, 1037.015
630.7690, 937.0361
631.9320, 871.0889
633.0950, 983.1729
634.2570, 875.2871
635.4190, 974.4287
636.5810, 1040.598
637.7430, 868.7803
638.9040, 911.9756
640.0660, 1133.184
641.2270, 1288.401
642.3880, 1486.635
643.5490, 1540.885
644.7100, 1651.149
645.8700, 1948.439
647.0310, 2239.752
648.1910, 2137.073
649.3510, 2426.413
650.5110, 2465.759
651.6710, 2477.109
652.8300, 2467.464
653.9900, 2373.225
655.1490, 2264.174
656.3080, 2092.545
657.4670, 1886.911
658.6250, 1672.795
659.7840, 1356.643
660.9420, 1133.016
662.1010, 997.4033
663.2590, 722.7998
664.4170, 738.2178
665.5740, 708.6562
666.7320, 567.1318
667.8890, 528.5371
669.0460, 357.1260
670.2030, 296.6572
671.3600, 191.2266
672.5170, 139.3828
673.6740, 181.4082
674.8300, 72.00879
675.9860, 32.61133
677.1420, 15.78711
678.2980, 77.79785
679.4540, 58.37793
680.6090, 54.95312
681.7650, 37.47656
682.9200, 150.9375
684.0750, 26.48340
685.2300, 171.0566
686.3840, 21.27344
687.5390, 77.40723
688.6930, 1.861328
689.8470, 77.88672
691.0010, 90.68848
692.1550, 64.45020
693.3090, 61.41699
694.4620, 3.331055
695.6160, 82.26562
696.7690, 38.25684
697.9220, 10.28418
699.0750, 118.3320
700.2280, 67.45312
701.3800, 28.38281
702.5320, 86.77148
703.6850, 89.04883
704.8370, 21.10156
705.9880, 59.95117
707.1400, 27.18555
708.2920, 7.188477
709.4430, 115.8184
710.5940, 44.76953
711.7450, 111.1221
712.8960, 98.95312
714.0470, 70.97266
715.1970, 95.99414
716.3480, 35.90039
717.4980, 271.4551
718.6480, 28.57812
719.7980, 196.0039
720.9470, 109.7988
722.0970, 52.65332
723.2460, 164.7549
724.3960, 219.7793
725.5450, 375.0293
726.6940, 291.7480
727.8420, 358.0967
728.9910, 493.7949
730.1390, 578.5586
731.2870, 629.9668
732.4350, 738.7109
733.5830, 947.5498
734.7310, 1036.273
735.8790, 1258.182
737.0260, 1420.582
738.1730, 1809.014
739.3200, 2158.063
740.4670, 2435.155
741.6140, 2984.012
742.7610, 3345.601
743.9070, 4208.125
745.0530, 4843.990
746.1990, 5417.491
747.3450, 6052.858
748.4910, 6152.162
749.6370, 6076.775
750.7820, 5620.721
751.9270, 5132.171
753.0720, 4526.555
754.2170, 3973.168
755.3620, 3442.680
756.5070, 2919.597
757.6510, 2437.167
758.7950, 2032.482
759.9400, 1722.648
761.0840, 1523.373
762.2270, 1510.842
763.3710, 1448.196
764.5140, 1231.569
765.6580, 1430.457
766.8010, 1271.441
767.9440, 1200.975
769.0870, 1152.737
770.2290, 978.2607
771.3720, 986.8428
772.5140, 888.8320
773.6560, 752.4736
774.7990, 795.8037
775.9400, 779.9082
777.0820, 721.9648
778.2240, 527.0029
779.3650, 601.0215
780.5060, 459.6064
781.6470, 541.8506
782.7880, 426.7607
783.9290, 576.9238
785.0690, 485.8398
786.2100, 490.6445
787.3500, 540.6777
788.4900, 628.6562
789.6300, 542.4873
790.7700, 686.4609
791.9090, 825.2480
793.0490, 769.0156
794.1880, 899.9268
795.3270, 746.6504
796.4660, 888.3516
797.6050, 843.0312
798.7440, 1146.912
799.8820, 1153.548
801.0200, 1246.161
802.1590, 1457.753
803.2970, 1803.321
804.4340, 2119.868
805.5720, 2710.467
806.7100, 3271.967
807.8470, 4039.444
808.9840, 4627.021
810.1210, 5343.452
811.2580, 6104.978
812.3950, 6204.363
813.5310, 6412.698
814.6680, 5769.451
815.8040, 5028.764
816.9400, 4105.053
818.0760, 3271.319
819.2120, 2649.778
820.3470, 2040.681
821.4830, 1539.556
822.6180, 1204.154
823.7530, 929.0488
824.8880, 736.9697
826.0230, 724.0303
827.1580, 706.8047
828.2920, 424.7910
829.4270, 466.8340
830.5610, 347.3320
831.6950, 240.8799
832.8290, 251.1025
833.9620, 216.6973
835.0960, 380.7598
836.2290, 188.6865
837.3620, 297.5381
838.4950, 245.0928
839.6280, 172.7012
840.7610, 182.5439
841.8940, 78.73047
843.0260, 239.4893
844.1580, 90.24609
845.2910, 83.04199
846.4230, 96.78320
847.5540, 41.36914
848.6860, 172.0674
849.8170, 77.74805
850.9490, 3.620117
852.0800, 102.0000
853.2110, 12.78906
854.3420, 6.232422
855.4730, 33.60547
856.6030, 1.902344
857.7340, 99.55371
858.8640, 48.79395
859.9940, 55.20898
861.1240, 58.39844
862.2540, 159.9287
863.3830, 60.76270
864.5130, 159.4775
865.6420, 52.29883
866.7710, 26.86230
867.9000, 99.99805
869.0290, 74.11621
870.1570, 98.21484
871.2860, 52.29395
872.4140, 34.68555
873.5430, 18.60352
874.6710, 12.60547
875.7980, 29.36426
876.9260, 48.31250
878.0540, 86.23926
879.1810, 110.1484
880.3080, 5.042969
881.4360, 27.07910
882.5630, 196.7588
883.6890, 69.41797
884.8160, 76.33789
885.9420, 64.92285
887.0690, 106.7500
888.1950, 8.407227
889.3210, 59.03906
890.4470, 57.34668
891.5730, 10.79297
892.6980, 131.7275
893.8240, 34.23047
894.9490, 25.71680
896.0740, 28.18164
897.1990, 60.62793
898.3240, 83.05566
899.4480, 73.46777
900.5730, 12.86426
901.6970, 7.238281
902.8210, 5.428711
903.9450, 25.80273
905.0690, 22.79688
906.1930, 24.54785
907.3160, 15.93359
908.4400, 27.15332
909.5630, 35.99023
910.6860, 84.11719
911.8090, 158.2295
912.9320, 109.3281
914.0550, 106.4131
915.1770, 4.484375
916.2990, 23.53516
917.4210, 38.42871
918.5440, 43.40332
919.6650, 82.51953
920.7870, 39.54004
921.9090, 41.35938
923.0300, 48.24512
924.1510, 175.1182
925.2720, 36.97852
926.3930, 104.8232
927.5140, 96.65723
928.6350, 32.47852
929.7550, 289.2861
930.8760, 70.08105
931.9960, 124.8652
933.1160, 19.36328
934.2360, 85.38379
935.3550, 297.1191
936.4750, 118.8447
937.5940, 153.5586
938.7140, 270.2607
939.8330, 41.95215
940.9520, 155.6318
942.0710, 158.3027
943.1890, 26.96094
944.3080, 156.6094
945.4260, 25.24707
946.5440, 172.8740
947.6620, 127.4893
948.7800, 107.0967
949.8980, 166.5215
951.0160, 195.2979
952.1330, 170.8828
953.2500, 205.4600
954.3680, 206.0312
955.4850, 270.6533
956.6010, 220.2686
957.7180, 248.9209
958.8350, 254.5674
959.9510, 169.2285
961.0670, 299.8887
962.1830, 330.5645
963.2990, 367.2598
964.4150, 298.9463
965.5310, 258.6455
966.6460, 333.3604
967.7620, 214.0938
968.8770, 375.8359
969.9920, 358.5811
971.1070, 523.3545
972.2210, 617.1436
973.3360, 399.9287
974.4500, 538.7334
975.5650, 335.5332
976.6790, 559.1289
977.7930, 646.9277
978.9070, 689.5850
980.0200, 992.2451
981.1340, 1042.958
982.2470, 1160.296
983.3610, 1325.148
984.4740, 1504.803
985.5870, 1701.445
986.6990, 2192.215
987.8120, 2400.321
988.9250, 2826.855
990.0370, 3290.071
991.1490, 3594.904
992.2610, 3834.665
993.3730, 4029.184
994.4850, 4163.768
995.5960, 3973.111
996.7080, 3682.973
997.8190, 3308.191
998.9300, 3041.048
1000.041, 2944.826
1001.152, 2622.975
1002.263, 2449.797
1003.373, 2332.512
1004.484, 2095.333
1005.594, 1914.959
1006.704, 1610.346
1007.814, 1437.420
1008.924, 1222.907
1010.034, 1088.558
1011.143, 977.8525
1012.253, 912.6494
1013.362, 849.5469
1014.471, 816.2324
1015.580, 712.9365
1016.689, 629.8486
1017.797, 570.9414
1018.906, 666.7119
1020.014, 659.1367
1021.122, 584.0439
1022.230, 659.0029
1023.338, 572.7480
1024.446, 539.7900
1025.554, 665.7832
1026.661, 671.7529
1027.768, 719.3857
1028.875, 708.8916
1029.983, 594.4541
1031.089, 803.2607
1032.196, 794.1660
1033.303, 1057.037
1034.409, 1034.393
1035.515, 1265.636
1036.622, 1402.314
1037.728, 1429.750
1038.833, 1150.409
1039.939, 1170.995
1041.045, 1125.158
1042.150, 1042.654
1043.255, 895.4609
1044.360, 819.4785
1045.465, 729.5273
1046.570, 653.5811
1047.675, 580.6387
1048.779, 691.1133
1049.884, 651.9121
1050.988, 567.0322
1052.092, 488.8818
1053.196, 461.9629
1054.300, 559.1416
1055.404, 432.0742
1056.507, 147.0459
1057.610, 238.1494
1058.714, 209.0957
1059.817, 264.2100
1060.920, 359.3311
1062.022, 246.2910
1063.125, 294.4238
1064.228, 282.1221
1065.330, 232.7070
1066.432, 259.6357
1067.534, 243.7939
1068.636, 226.9570
1069.738, 214.1289
1070.840, 330.3066
1071.941, 176.4932
1073.042, 307.6074
1074.144, 96.80566
1075.245, 248.0107
1076.346, 256.0996
1077.446, 216.3184
1078.547, 220.4229
1079.647, 194.6553
1080.748, 400.8945
1081.848, 421.1406
1082.948, 393.3936
1084.048, 495.6533
1085.148, 385.9209
1086.247, 532.1943
1087.347, 482.4756
1088.446, 592.7637
1089.545, 648.0586
1090.644, 926.4775
1091.743, 1010.787
1092.842, 1038.365
1093.940, 1080.688
1095.039, 1318.047
1096.137, 1562.383
1097.235, 1374.726
1098.333, 1513.652
1099.431, 1361.010
1100.529, 1501.373
1101.627, 1277.108
1102.724, 1173.492
1103.822, 1289.882
1104.919, 1256.277
1106.016, 1082.679
1107.113, 1063.086
1108.209, 1185.499
1109.306, 1125.920
1110.402, 1150.344
1111.499, 1272.238
1112.595, 1449.676
1113.691, 1587.285
1114.787, 1827.902
1115.883, 2152.359
1116.978, 2512.820
1118.074, 3028.594
1119.169, 3481.076
1120.264, 3959.994
1121.359, 4060.510
1122.454, 4254.111
1123.549, 4479.650
1124.644, 4288.709
1125.738, 4185.258
1126.832, 3953.814
1127.927, 3790.398
1129.021, 3517.986
1130.115, 3517.764
1131.208, 3547.588
1132.302, 3719.770
1133.396, 3972.703
1134.489, 4168.523
1135.582, 4385.523
1136.675, 4609.193
1137.768, 4657.869
1138.861, 4460.705
1139.954, 4358.238
1141.046, 3820.059
1142.138, 3594.777
1143.231, 3023.520
1144.323, 2584.344
1145.415, 2364.076
1146.507, 2045.818
1147.598, 1848.578
1148.690, 1640.838
1149.781, 1333.424
1150.872, 1233.221
1151.964, 1061.430
1153.054, 764.3535
1154.145, 795.8926
1155.236, 733.7324
1156.327, 872.7559
1157.417, 665.2910
1158.507, 641.0254
1159.597, 544.0449
1160.687, 451.9297
1161.777, 490.8203
1162.867, 463.7910
1163.956, 368.7168
1165.046, 414.4863
1166.135, 277.3887
1167.224, 177.3008
1168.313, 315.2227
1169.402, 250.1602
1170.491, 147.1094
1171.580, 221.0703
1172.668, 203.0430
1173.756, 256.3887
1174.845, 326.4824
1175.933, 311.1797
1177.020, 194.4590
1178.108, 288.4492
1179.196, 211.4414
1180.283, 116.4375
1181.371, 126.4355
1182.458, 27.52930
1183.545, 140.5566
1184.632, 86.58398
1185.719, 101.6270
1186.805, 8.669922
1187.892, 25.71289
1188.978, 237.7578
1190.065, 148.8047
1191.151, 81.85156
1192.237, 256.8984
1193.323, 198.9453
1194.408, 113.9941
1195.494, 62.04102
1196.579, 94.10547
1197.664, 219.1582
1198.750, 97.21484
1199.835, 15.58203
1200.919, 248.6660
1202.004, 198.7207
1203.089, 170.7754
1204.173, 91.82812
1205.258, 159.8867
1206.342, 143.9414
1207.426, 138.9980
1208.510, 81.05273
1209.594, 92.16797
1210.677, 62.16211
1211.761, 101.2148
1212.844, 41.26562
1213.927, 72.31836
1215.010, 172.3691
1216.093, 106.4199
1217.176, 22.46875
1218.259, 106.5137
1219.341, 38.56055
1220.424, 0.3945310
1221.506, 57.64648
1222.588, 6.314453
1223.670, 92.78516
1224.752, 16.83008
1225.834, 132.8711
1226.915, 147.9102
1227.997, 62.04883
1229.078, 171.3789
1230.159, 47.39844
1231.240, 6.785156
1232.321, 79.21094
1233.402, 98.20312
1234.483, 100.4023
1235.563, 65.17773
1236.644, 117.1621
1237.724, 122.1445
1238.804, 105.1289
1239.884, 49.10742
1240.964, 85.91406
1242.044, 56.01367
1243.123, 128.0625
1244.203, 2.789063
1245.282, 116.6387
1246.361, 121.4805
1247.440, 80.66406
1248.519, 58.14062
1249.598, 34.05469
1250.676, 162.7207
1251.755, 28.50781
1252.833, 115.2871
1253.911, 65.93555
1254.989, 217.8262
1256.067, 168.5566
1257.145, 318.4141
1258.223, 191.3789
1259.300, 14.09766
1260.378, 7.810547
1261.455, 95.47656
1262.532, 75.05859
1263.609, 16.77148
1264.686, 11.63281
1265.763, 82.94336
1266.840, 62.51562
1267.916, 20.11914
1268.992, 50.19141
1270.069, 32.48242
1271.145, 61.12305
1272.221, 55.15430
1273.296, 37.36719
1274.372, 73.93164
1275.448, 150.4277
1276.523, 146.0371
1277.598, 15.40625
1278.673, 45.11914
1279.749, 115.5918
1280.823, 9.058594
1281.898, 40.51562
1282.973, 92.03320
1284.047, 64.35547
1285.122, 26.73633
1286.196, 42.78125
1287.270, 197.5547
1288.344, 124.3301
1289.418, 272.2031
1290.491, 183.5176
1291.565, 48.82617
1292.638, 61.12695
1293.712, 28.58008
1294.785, 172.6797
1295.858, 67.93750
1296.931, 296.0000
1298.003, 234.2383
1299.076, 91.47266
1300.149, 118.6992
1301.221, 119.9180
1302.293, 33.87109
1303.365, 48.30273
1304.437, 144.4688
1305.509, 131.6289
1306.581, 175.7793
1307.652, 215.9258
1308.724, 174.0625
1309.795, 213.1895
1310.866, 56.31445
1311.937, 278.4297
1313.008, 264.5391
1314.079, 361.6387
1315.150, 80.73242
1316.220, 100.8203
1317.291, 155.9004
1318.361, 198.9746
1319.431, 325.0391
1320.501, 196.0996
1321.571, 215.1504
1322.641, 264.1973
1323.710, 358.2324
1324.780, 76.26172
1325.849, 182.2832
1326.918, 144.2988
1327.987, 28.30469
1329.056, 73.30469
1330.125, 202.2949
1331.194, 287.2793
1332.263, 275.2539
1333.331, 202.7305
1334.399, 124.6895
1335.467, 157.2734
1336.535, 83.58398
1337.603, 212.5039
1338.671, 174.4199
1339.739, 213.3281
1340.806, 139.2246
1341.874, 149.1133
1342.941, 257.9980
1344.008, 308.8711
1345.075, 222.7363
1346.142, 177.5938
1347.209, 207.4453
1348.275, 173.2852
1349.342, 261.0059
1350.408, 248.8281
1351.475, 73.86133
1352.541, 320.6699
1353.607, 134.4395
1354.673, 214.2324
1355.738, 160.0195
1356.804, 27.21680
1357.869, 79.98438
1358.935, 2.255859
1360.000, 306.1289
1361.065, 168.8633
1362.130, 237.5918
1363.195, 117.3125
1364.259, 309.0254
1365.324, 298.7344
1366.388, 243.2910
1367.453, 293.9844
1368.517, 306.6738
1369.581, 186.8809
1370.645, 310.5430
1371.709, 215.0352
1372.772, 110.5195
1373.836, 138.1641
1374.899, 270.2148
1375.963, 209.5566
1377.026, 99.18555
1378.089, 308.3906
1379.152, 209.6855
1380.214, 262.2246
1381.277, 167.8320
1382.340, 61.91797
1383.402, 161.5176
1384.464, 37.11133
1385.526, 24.70117
1386.588, 248.2852
1387.650, 215.6973
1388.712, 147.7988
1389.774, 184.8281
1390.835, 65.11523
1391.896, 169.5117
1392.958, 222.7305
1394.019, 243.2812
1395.080, 48.82812
1396.141, 26.21680
1397.201, 19.89258
1398.262, 24.29102
1399.323, 27.59180
1400.383, 26.27344
1401.443, 38.67578
1402.503, 145.1680
1403.563, 125.6582
1404.623, 261.1328
1405.683, 13.38477
1406.742, 417.7793
1407.802, 162.2441
1408.861, 111.2656
1409.920, 248.5703
1410.980, 102.2168
1412.039, 194.5586
1413.097, 19.73438
1414.156, 226.4062
1415.215, 249.7129
1416.273, 186.0176
1417.331, 95.31250
1418.390, 277.5996
1419.448, 136.7988
1420.506, 257.0410
1421.564, 156.4336
1422.621, 161.6895
1423.679, 22.07031
1424.736, 214.1582
1425.794, 78.38281
1426.851, 169.6016
1427.908, 262.8184
1428.965, 139.0312
1430.022, 219.8809
1431.079, 120.9863
1432.135, 263.2012
1433.192, 60.41992
1434.248, 96.64258
1435.304, 296.8770
1436.360, 200.1230
1437.416, 298.3906
1438.472, 160.7656
1439.528, 186.0957
1440.583, 240.2871
1441.639, 183.7539
1442.694, 327.2109
1443.749, 129.6523
1444.804, 216.0801
1445.859, 120.4961
1446.914, 156.8828
1447.969, 239.9375
1449.024, 276.2754
1450.078, 316.6348
1451.132, 63.97070
1452.187, 250.2949
1453.241, 88.60742
1454.295, 136.9062
1455.349, 203.1875
1456.402, 278.4570
1457.456, 250.7129
1458.509, 173.9531
1459.563, 3.894531
1460.616, 217.2988
1461.669, 216.4766
1462.722, 97.13867
1463.775, 181.0977
1464.828, 288.2500
1465.880, 136.3828
1466.933, 155.4980
1467.985, 306.5938
1469.037, 333.7344
1470.090, 108.9531
1471.142, 215.1426
1472.193, 187.3613
1473.245, 305.5820
1474.297, 105.7734
1475.348, 101.9766
1476.400, 235.6777
1477.451, 37.11523
1478.502, 79.11719
1479.553, 270.4453
1480.604, 341.7832
1481.655, 226.8711
1482.706, 169.8359
1483.756, 263.8594
1484.807, 102.1172
1485.857, 161.4609
1486.907, 75.43164
1487.957, 209.7695
1489.007, 72.15234
1490.057, 199.3965
1491.106, 147.8750
1492.156, 10.64062
1493.205, 201.8438
1494.255, 313.3535
1495.304, 119.6777
1496.353, 120.1719
1497.402, 23.66992
1498.451, 135.2012
1499.500, 186.7676
1500.548, 51.65820
1501.597, 89.92383
1502.645, 197.5078
1503.693, 79.09766
1504.741, 39.31250
1505.789, 257.2793
1506.837, 145.8730
1507.885, 284.4805
1508.932, 125.0918
1509.980, 245.7070
1511.027, 194.3301
1512.075, 110.9629
1513.122, 323.3984
1514.169, 6.966797
1515.216, 286.7168
1516.262, 299.4453
1517.309, 225.1914
1518.356, 257.9609
1519.402, 118.7500
1520.448, 204.5605
1521.495, 82.40039
1522.541, 195.1289
1523.587, 253.8457
1524.632, 291.5840
1525.678, 293.3535
1526.724, 291.5254
1527.769, 281.0078
1528.814, 228.7891
1529.860, 190.6699
1530.905, 140.4883
1531.950, 156.5605
1532.995, 150.1055
1534.039, 183.8066
1535.084, 145.2715
1536.128, 138.4941
1537.173, 80.50977
1538.217, 35.47070
1539.261, 22.36328
1540.305, 38.68555
1541.349, 36.33203
1542.393, 43.86523
1543.436, 42.26758
1544.480, 65.68945
1545.523, 47.14844
1546.567, 195.4453
1547.610, 43.54688
1548.653, 309.6133
1549.696, 316.4180
1550.739, 118.8652
1551.781, 155.0098
1552.824, 72.14844
1553.867, 175.6465
1554.909, 141.2910
1555.951, 222.1484
1556.993, 192.1309
1558.035, 107.0059
1559.077, 134.2832
1560.119, 44.17969
1561.161, 25.87500
1562.202, 171.6836
1563.243, 1.027344
1564.285, 122.4199
1565.326, 0.0000000E+00
##END=



