##NAMES=Microcline
##RRUFFID=R050193
##IDEAL CHEMISTRY=KAlSi_3_O_8_
##LOCALITY=Devil's Head, Douglas County, Colorado, USA
##OWNER=RRUFF
##SOURCE=Dave Bunk Minerals
##DESCRIPTION=White to colorless heterogeneous mixture of K and Na feldspar in a cluster of crystals. Crystal structure determined, presented below. This sample is known as an intermediate microcline in the literature.
##STATUS=The identification of this mineral has been confirmed by X-ray diffraction and chemical analysis
##URL=rruff.info/R050193
##MEASURED CHEMISTRY=(K_0.929_Na_0.071_)(Al_1.005_Si_2.994_Fe_0.001_)O_7.993_F_0.007_  ; Light Band :  (Na_0.973_K_0.007_Ca_0.020_)(Al_1.020_Si_2.980_)O_8_ ; Dark Band
##PIN_ID=L01707
##ORIENTATION=Laser parallel to (-1 0 -1). Fiducial mark perpendicular to laser is parallel to b [0 1 0]
143.7880, 0.0000000E+00
145.0190, 80.27441
146.2510, 16.53613
147.4820, 228.7217
148.7130, 275.1895
149.9440, 412.7461
151.1750, 515.2354
152.4050, 647.9268
153.6360, 566.6084
154.8660, 787.9600
156.0960, 621.0391
157.3260, 722.1152
158.5560, 584.4346
159.7850, 812.4658
161.0150, 759.8828
162.2440, 750.4795
163.4730, 732.3096
164.7020, 619.4873
165.9310, 619.3555
167.1590, 251.3887
168.3880, 237.7178
169.6160, 305.9854
170.8440, 220.6709
172.0720, 452.3271
173.3000, 400.0996
174.5280, 419.0986
175.7550, 458.4258
176.9820, 256.1582
178.2100, 405.3594
179.4370, 630.0879
180.6630, 512.4473
181.8900, 596.5078
183.1170, 475.6875
184.3430, 741.0537
185.5690, 708.9561
186.7950, 785.2529
188.0210, 786.8516
189.2470, 787.2188
190.4720, 548.5928
191.6970, 625.6719
192.9230, 580.3984
194.1480, 506.1719
195.3730, 515.9424
196.5970, 529.3467
197.8220, 658.0059
199.0460, 395.7959
200.2700, 287.7207
201.4940, 487.7012
202.7180, 423.7207
203.9420, 464.7734
205.1660, 561.9141
206.3890, 633.1094
207.6120, 592.3516
208.8350, 643.5996
210.0580, 706.8516
211.2810, 617.1123
212.5040, 521.3818
213.7260, 297.6602
214.9480, 198.1221
216.1700, 118.7578
217.3920, 52.42090
218.6140, 53.13867
219.8360, 16.90137
221.0570, 21.28711
222.2790, 70.42383
223.5000, 27.49121
224.7210, 30.45605
225.9410, 64.53320
227.1620, 80.52246
228.3820, 42.38281
229.6030, 29.74805
230.8230, 41.08984
232.0430, 245.8984
233.2630, 70.68457
234.4820, 102.5527
235.7020, 55.19141
236.9210, 76.08203
238.1400, 81.63281
239.3590, 2.655273
240.5780, 115.1201
241.7970, 53.39746
243.0150, 164.0127
244.2340, 1.564453
245.4520, 173.6826
246.6700, 296.9521
247.8880, 46.81543
249.1060, 407.4111
250.3230, 192.3330
251.5400, 185.5400
252.7580, 382.0459
253.9750, 275.0244
255.1920, 393.0908
256.4080, 450.1377
257.6250, 582.6260
258.8410, 657.5693
260.0580, 670.4658
261.2740, 606.4580
262.4900, 617.0762
263.7050, 797.0879
264.9210, 670.5742
266.1360, 719.1377
267.3520, 628.7979
268.5670, 725.7129
269.7820, 827.1162
270.9960, 841.5293
272.2110, 715.9531
273.4250, 737.3848
274.6400, 675.8232
275.8540, 784.2695
277.0680, 778.7891
278.2810, 763.3135
279.4950, 853.8428
280.7090, 999.3789
281.9220, 1154.920
283.1350, 1289.505
284.3480, 1357.184
285.5610, 1360.961
286.7730, 1438.499
287.9860, 1518.904
289.1980, 1496.477
290.4100, 1574.890
291.6220, 1652.533
292.8340, 1343.561
294.0460, 1127.688
295.2570, 1039.945
296.4690, 778.2959
297.6800, 594.7109
298.8910, 481.1680
300.1020, 387.6562
301.3120, 379.1602
302.5230, 282.6670
303.7330, 293.1670
304.9440, 151.6562
306.1540, 242.1309
307.3630, 270.5898
308.5730, 182.0303
309.7830, 230.4473
310.9920, 219.8330
312.2010, 158.1738
313.4100, 123.4639
314.6190, 199.6992
315.8280, 231.8848
317.0370, 231.0234
318.2450, 230.1182
319.4530, 149.1719
320.6610, 223.1934
321.8690, 319.1797
323.0770, 137.1357
324.2850, 301.0645
325.4920, 406.9639
326.6990, 406.8613
327.9060, 490.7227
329.1130, 375.4229
330.3200, 369.1006
331.5270, 373.6797
332.7330, 382.1855
333.9390, 325.3896
335.1450, 177.5146
336.3510, 87.57422
337.5570, 142.5332
338.7630, 207.4951
339.9680, 62.44043
341.1740, 163.3877
342.3790, 89.28809
343.5840, 206.1904
344.7890, 229.0967
345.9930, 183.0049
347.1980, 111.9170
348.4020, 232.8301
349.6060, 241.7451
350.8100, 208.6631
352.0140, 136.5811
353.2180, 263.5010
354.4210, 118.4209
355.6250, 41.34082
356.8280, 287.2588
358.0310, 201.1777
359.2340, 212.1221
360.4360, 63.06738
361.6390, 157.0186
362.8410, 22.04199
364.0430, 32.88477
365.2450, 156.2627
366.4470, 165.4219
367.6490, 137.5117
368.8510, 53.25977
370.0520, 78.06250
371.2530, 152.5537
372.4540, 148.4639
373.6550, 209.3604
374.8560, 159.8428
376.0560, 159.1396
377.2570, 40.27637
378.4570, 100.4121
379.6570, 96.30176
380.8570, 125.4141
382.0570, 9.299805
383.2560, 39.75391
384.4560, 27.49902
385.6550, 50.36426
386.8540, 154.2188
388.0530, 144.0723
389.2520, 29.54395
390.4510, 12.60547
391.6490, 15.76172
392.8470, 150.8633
394.0450, 88.70605
395.2430, 200.5527
396.4410, 201.4990
397.6390, 203.3457
398.8360, 297.1709
400.0340, 281.9893
401.2310, 291.8057
402.4280, 405.6191
403.6250, 398.4307
404.8210, 283.2422
406.0180, 409.0527
407.2140, 495.7441
408.4100, 433.5488
409.6060, 305.3516
410.8020, 223.1553
411.9980, 319.9590
413.1930, 434.7461
414.3890, 354.5498
415.5840, 365.3535
416.7790, 230.1582
417.9740, 267.1133
419.1680, 168.0732
420.3630, 65.05566
421.5570, 0.1279300
422.7510, 52.02148
423.9450, 78.17676
425.1390, 55.72852
426.3330, 69.96680
427.5270, 61.77344
428.7200, 110.4912
429.9130, 177.1641
431.1060, 148.8164
432.2990, 35.65820
433.4920, 43.69238
434.6840, 115.9248
435.8770, 52.53809
437.0690, 136.1436
438.2610, 228.7422
439.4530, 188.3320
440.6450, 163.9141
441.8360, 311.4844
443.0280, 179.0537
444.2190, 406.6074
445.4100, 388.1543
446.6010, 250.6914
447.7920, 447.3613
448.9820, 477.8770
450.1730, 711.1133
451.3630, 671.8574
452.5530, 848.4922
453.7430, 934.9727
454.9330, 909.4414
456.1230, 820.9023
457.3120, 916.5996
458.5010, 815.0410
459.6910, 856.4785
460.8800, 744.9043
462.0680, 537.3262
463.2570, 710.9883
464.4460, 571.3906
465.6340, 701.7852
466.8220, 838.2324
468.0100, 952.6094
469.1980, 1117.875
470.3860, 1271.238
471.5730, 1415.613
472.7600, 1590.455
473.9480, 1766.406
475.1350, 1960.742
476.3210, 2226.078
477.5080, 2476.686
478.6950, 2740.004
479.8810, 2413.316
481.0670, 2276.629
482.2530, 1880.936
483.4390, 1429.002
484.6250, 1314.303
485.8100, 922.4863
486.9960, 890.8750
488.1810, 770.2012
489.3660, 780.4883
490.5510, 723.9785
491.7360, 758.2559
492.9200, 652.7832
494.1050, 655.0547
495.2890, 889.3223
496.4730, 1037.586
497.6570, 986.8457
498.8400, 1380.590
500.0240, 1616.842
501.2070, 1749.033
502.3910, 2161.277
503.5740, 2582.109
504.7570, 2967.346
505.9400, 3733.953
507.1220, 3933.467
508.3050, 4189.693
509.4870, 4319.930
510.6690, 4133.188
511.8510, 4007.203
513.0330, 3812.318
514.2140, 3210.590
515.3960, 2923.854
516.5770, 2301.137
517.7580, 1873.412
518.9390, 1616.943
520.1200, 1273.121
521.3010, 1014.502
522.4810, 738.8789
523.6610, 788.5488
524.8420, 637.9297
526.0220, 559.6719
527.2010, 514.7227
528.3810, 564.0586
529.5610, 402.4629
530.7400, 529.2520
531.9190, 301.8301
533.0980, 393.4902
534.2770, 339.0605
535.4560, 212.5273
536.6340, 261.4219
537.8120, 58.30469
538.9910, 209.9570
540.1690, 191.7754
541.3460, 161.3125
542.5240, 211.1367
543.7020, 194.6797
544.8790, 85.46094
546.0560, 237.9922
547.2330, 104.3496
548.4100, 105.2969
549.5870, 167.9883
550.7630, 143.9785
551.9400, 355.6953
553.1160, 256.2949
554.2920, 315.0625
555.4680, 300.8145
556.6440, 276.0801
557.8190, 193.4082
558.9950, 56.68945
560.1700, 56.24609
561.3450, 56.22656
562.5200, 162.7852
563.6950, 185.4648
564.8690, 147.8047
566.0440, 276.6758
567.2180, 260.0371
568.3920, 222.5527
569.5660, 134.7852
570.7400, 184.9668
571.9130, 181.1621
573.0870, 37.79102
574.2600, 231.8262
575.4330, 246.7559
576.6060, 211.9473
577.7790, 160.0586
578.9520, 172.4336
580.1240, 133.3555
581.2960, 225.7949
582.4690, 127.0410
583.6410, 81.27539
584.8120, 145.8125
585.9840, 88.81641
587.1560, 237.2617
588.3270, 49.41016
589.4980, 89.55273
590.6690, 10.30273
591.8400, 25.83203
593.0110, 50.53125
594.1810, 122.6504
595.3510, 158.7656
596.5220, 121.8730
597.6920, 28.25977
598.8610, 227.3535
600.0310, 119.7891
601.2010, 151.1328
602.3700, 179.2109
603.5390, 28.28125
604.7080, 116.3438
605.8770, 140.4023
607.0460, 75.45117
608.2140, 139.6602
609.3830, 77.45703
610.5510, 130.5352
611.7190, 149.5488
612.8870, 61.57227
614.0550, 184.5879
615.2220, 127.6133
616.3900, 90.63672
617.5570, 24.64844
618.7240, 191.6543
619.8910, 65.65820
621.0580, 166.6973
622.2240, 198.7305
623.3910, 166.7617
624.5570, 285.7852
625.7230, 127.8047
626.8890, 72.81641
628.0550, 87.82227
629.2200, 205.8359
630.3860, 42.87891
631.5510, 188.9121
632.7160, 37.94141
633.8810, 203.9609
635.0460, 116.9785
636.2100, 140.9863
637.3750, 296.9863
638.5390, 185.9941
639.7030, 162.0000
640.8670, 91.99414
642.0310, 112.9531
643.1950, 26.10352
644.3580, 117.8164
645.5210, 237.7305
646.6850, 222.6543
647.8480, 234.5781
649.0100, 331.4961
650.1730, 245.8867
651.3350, 130.3066
652.4980, 163.4277
653.6600, 165.3184
654.8220, 198.2617
655.9840, 276.3652
657.1450, 147.2324
658.3070, 52.59570
659.4680, 269.5566
660.6300, 147.3965
661.7910, 179.2715
662.9510, 45.09375
664.1120, 27.98242
665.2730, 5.070313
666.4330, 161.8613
667.5930, 144.6543
668.7530, 225.4395
669.9130, 22.21289
671.0730, 34.97461
672.2320, 3.275391
673.3920, 5.537109
674.5510, 26.90625
675.7100, 33.70508
676.8690, 2.562500
678.0280, 13.88281
679.1860, 16.47070
680.3450, 82.36914
681.5030, 12.97852
682.6610, 79.57422
683.8190, 22.16016
684.9770, 80.73242
686.1340, 259.2910
687.2920, 128.8398
688.4490, 196.4941
689.6060, 38.97656
690.7630, 12.51758
691.9200, 39.99609
693.0760, 315.4668
694.2330, 59.07812
695.3890, 117.3359
696.5450, 100.7363
697.7010, 111.4277
698.8570, 44.68359
700.0130, 41.10547
701.1680, 67.05859
702.3230, 11.62305
703.4780, 10.19141
704.6330, 88.10352
705.7880, 67.40820
706.9430, 56.73828
708.0970, 101.2969
709.2520, 201.6016
710.4060, 17.71289
711.5600, 234.9883
712.7140, 192.8945
713.8670, 128.8086
715.0210, 341.3887
716.1740, 131.4277
717.3270, 90.06445
718.4800, 145.8730
719.6330, 177.2832
720.7860, 118.9336
721.9380, 121.6797
723.0910, 49.30078
724.2430, 106.8906
725.3950, 258.0254
726.5470, 265.1465
727.6980, 318.3652
728.8500, 150.0059
730.0010, 202.0801
731.1530, 7.898438
732.3040, 154.1465
733.4550, 181.1797
734.6050, 271.2520
735.7560, 76.25586
736.9060, 327.0000
738.0560, 61.97266
739.2060, 83.28906
740.3560, 172.2266
741.5060, 256.1523
742.6560, 279.8125
743.8050, 276.9199
744.9540, 298.2188
746.1030, 291.0430
747.2520, 281.4492
748.4010, 292.6602
749.5500, 321.6426
750.6980, 377.9414
751.8460, 498.9121
752.9950, 380.2949
754.1420, 425.6934
755.2900, 345.4844
756.4380, 463.9863
757.5850, 512.4121
758.7330, 658.8770
759.8800, 575.6660
761.0270, 601.7773
762.1730, 700.4785
763.3200, 625.4160
764.4670, 720.0527
765.6130, 684.3750
766.7590, 551.8516
767.9050, 439.1211
769.0510, 400.9414
770.1960, 360.5137
771.3420, 334.1562
772.4870, 386.2402
773.6320, 449.8633
774.7770, 364.3926
775.9220, 208.9102
777.0670, 448.1641
778.2110, 405.3301
779.3560, 345.0469
780.5000, 429.2910
781.6440, 334.9961
782.7880, 375.9766
783.9320, 307.5586
785.0750, 193.9102
786.2180, 287.4668
787.3620, 392.9355
788.5050, 469.2422
789.6480, 135.3164
790.7900, 203.0547
791.9330, 176.0156
793.0750, 136.2227
794.2170, 211.4121
795.3590, 70.77930
796.5010, 164.7207
797.6430, 336.8789
798.7850, 182.0234
799.9260, 334.7324
801.0670, 175.7969
802.2080, 125.7090
803.3490, 479.9355
804.4900, 320.9941
805.6310, 364.0215
806.7710, 454.0879
807.9110, 451.1152
809.0510, 488.7480
810.1910, 591.0586
811.3310, 566.2930
812.4710, 647.1445
813.6100, 651.8652
814.7490, 671.8066
815.8880, 791.4141
817.0270, 678.8574
818.1660, 470.9062
819.3050, 675.0059
820.4430, 417.8535
821.5820, 568.3496
822.7200, 274.1445
823.8580, 400.9590
824.9950, 322.7930
826.1330, 359.6152
827.2710, 355.8750
828.4080, 315.2266
829.5450, 312.7285
830.6820, 271.4629
831.8190, 219.7480
832.9560, 229.3438
834.0920, 124.5078
835.2280, 190.2930
836.3650, 340.5156
837.5010, 324.1445
838.6360, 299.4199
839.7720, 162.8496
840.9080, 252.3457
842.0430, 239.6406
843.1780, 190.8281
844.3130, 138.9473
845.4480, 321.2305
846.5830, 21.41016
847.7170, 199.4453
848.8520, 53.25977
849.9860, 42.61914
851.1200, 2.808594
852.2540, 26.98242
853.3870, 102.7520
854.5210, 58.68750
855.6540, 150.7832
856.7880, 90.85938
857.9210, 64.83594
859.0540, 89.79688
860.1860, 95.42969
861.3190, 246.2754
862.4510, 271.2324
863.5840, 140.1680
864.7160, 8.2030997E-02
865.8480, 37.96094
866.9790, 331.8164
868.1110, 119.0781
869.2420, 295.8945
870.3740, 190.6836
871.5050, 346.4551
872.6360, 229.9219
873.7660, 357.6543
874.8970, 118.0137
876.0280, 262.4395
877.1580, 286.2617
878.2880, 221.9082
879.4180, 154.5312
880.5480, 107.2793
881.6770, 140.8574
882.8070, 137.7969
883.9360, 144.3281
885.0650, 72.14258
886.1940, 29.61328
887.3230, 140.0762
888.4520, 30.54297
889.5800, 61.30078
890.7090, 200.7676
891.8370, 200.0508
892.9650, 47.43164
894.0930, 146.3320
895.2200, 187.7930
896.3480, 106.8945
897.4750, 201.0059
898.6020, 141.4062
899.7290, 271.7207
900.8560, 34.94141
901.9830, 19.69922
903.1090, 111.7012
904.2360, 90.20117
905.3620, 272.0938
906.4880, 122.9629
907.6140, 74.30664
908.7400, 180.1602
909.8650, 197.9648
910.9900, 22.16992
912.1160, 33.95898
913.2410, 1.332031
914.3660, 149.3398
915.4900, 29.02930
916.6150, 172.6934
917.7390, 60.34375
918.8640, 150.9668
919.9880, 16.95898
921.1120, 148.9570
922.2350, 165.8867
923.3590, 200.4160
924.4820, 31.03516
925.6060, 87.45312
926.7290, 39.90625
927.8520, 233.5703
928.9740, 253.1973
930.0970, 166.4590
931.2190, 253.9570
932.3420, 230.2812
933.4640, 298.4941
934.5860, 74.75391
935.7080, 158.5059
936.8290, 171.6855
937.9510, 68.63086
939.0720, 210.9941
940.1930, 226.1797
941.3140, 199.3438
942.4350, 111.4863
943.5560, 297.6055
944.6760, 372.7109
945.7960, 201.2891
946.9170, 239.3594
948.0370, 143.4844
949.1560, 88.57227
950.2760, 268.5957
951.3960, 210.6016
952.5150, 126.5859
953.6340, 48.54883
954.7530, 161.4863
955.8720, 182.3984
956.9910, 164.2930
958.1090, 195.7188
959.2280, 184.9082
960.3460, 190.8926
961.4640, 150.7148
962.5820, 188.5234
963.6990, 121.3164
964.8170, 340.0820
965.9340, 87.82617
967.0510, 233.5625
968.1690, 55.27930
969.2850, 150.6660
970.4020, 277.3066
971.5190, 234.9531
972.6350, 317.5879
973.7510, 278.2051
974.8670, 431.6699
975.9830, 374.2539
977.0990, 401.6484
978.2150, 405.8535
979.3300, 395.6289
980.4450, 378.1348
981.5600, 368.8027
982.6750, 413.2793
983.7900, 50.90430
984.9050, 290.6738
986.0190, 364.7676
987.1340, 52.36914
988.2480, 396.3359
989.3620, 310.1016
990.4750, 306.2324
991.5890, 341.0879
992.7020, 331.8145
993.8160, 230.6250
994.9290, 262.5000
996.0420, 228.6738
997.1550, 304.8906
998.2670, 414.8281
999.3800, 583.5117
1000.492, 267.9453
1001.604, 344.0879
1002.716, 401.8633
1003.828, 522.9707
1004.940, 419.0059
1006.051, 474.0723
1007.163, 441.1250
1008.274, 309.1543
1009.385, 462.8672
1010.496, 160.8809
1011.606, 263.8730
1012.717, 232.8457
1013.827, 9.589844
1014.937, 380.1074
1016.047, 105.7441
1017.157, 242.3535
1018.267, 372.2871
1019.377, 333.9961
1020.486, 15.64648
1021.595, 538.8750
1022.704, 63.07422
1023.813, 146.2227
1024.922, 269.2793
1026.030, 156.9707
1027.139, 257.9863
1028.247, 384.8164
1029.355, 196.4023
1030.463, 168.0000
1031.571, 93.60352
1032.678, 108.1367
1033.786, 126.3672
1034.893, 107.2695
1036.000, 216.6738
1037.107, 176.5996
1038.214, 182.8340
1039.321, 415.5586
1040.427, 58.38867
1041.533, 169.2988
1042.639, 313.6328
1043.745, 155.3340
1044.851, 78.70703
1045.957, 252.5586
1047.062, 242.2070
1048.168, 318.9727
1049.273, 317.6074
1050.378, 203.3848
1051.482, 270.1543
1052.587, 80.23633
1053.692, 71.49219
1054.796, 81.56250
1055.900, 244.5801
1057.004, 144.7832
1058.108, 132.2246
1059.212, 221.9180
1060.315, 18.64453
1061.418, 63.62695
1062.522, 28.02930
1063.625, 56.13281
1064.728, 146.2676
1065.830, 4.281250
1066.933, 272.6504
1068.035, 53.04102
1069.137, 272.7617
1070.239, 172.5234
1071.341, 128.8379
1072.443, 268.9453
1073.545, 230.0625
1074.646, 275.0039
1075.747, 186.4863
1076.848, 186.0938
1077.949, 47.92383
1079.050, 299.6875
1080.150, 47.51562
1081.251, 152.9258
1082.351, 331.1230
1083.451, 213.8379
1084.551, 264.5156
1085.651, 239.8828
1086.750, 372.0059
1087.850, 325.4355
1088.949, 328.3398
1090.048, 490.3848
1091.147, 444.2188
1092.246, 408.6621
1093.345, 498.1543
1094.443, 492.6660
1095.541, 541.1211
1096.639, 644.2832
1097.737, 551.8164
1098.835, 547.9727
1099.933, 672.4766
1101.030, 550.3047
1102.128, 570.5176
1103.225, 527.9785
1104.322, 326.4258
1105.419, 479.8574
1106.515, 448.6172
1107.612, 603.0215
1108.708, 394.7441
1109.804, 301.1211
1110.900, 313.6836
1111.996, 330.0332
1113.092, 289.6953
1114.187, 440.2871
1115.283, 318.6133
1116.378, 204.3887
1117.473, 312.1914
1118.568, 514.6289
1119.662, 356.6133
1120.757, 455.9121
1121.851, 492.4121
1122.946, 547.6816
1124.040, 483.9375
1125.134, 198.1875
1126.227, 358.4199
1127.321, 572.6406
1128.414, 299.8516
1129.508, 439.0449
1130.601, 134.2266
1131.693, 377.5938
1132.786, 558.7598
1133.879, 276.9824
1134.971, 169.6719
1136.064, 452.7969
1137.156, 290.9102
1138.248, 371.0098
1139.339, 346.4062
1140.431, 137.3750
1141.522, 221.5703
1142.614, 161.6992
1143.705, 354.7324
1144.796, 425.1738
1145.887, 286.0352
1146.977, 248.0332
1148.068, 173.6914
1149.158, 71.01953
1150.248, 180.0332
1151.338, 327.0625
1152.428, 236.7676
1153.518, 407.1211
1154.607, 145.7090
1155.696, 59.58594
1156.785, 440.6113
1157.874, 247.5098
1158.963, 187.5137
1160.052, 181.5508
1161.141, 4.425781
1162.229, 227.5469
1163.317, 92.19922
1164.405, 144.9023
1165.493, 170.3320
1166.581, 6.205078
1167.668, 122.0547
1168.756, 34.07227
1169.843, 84.76562
1170.930, 6.589844
1172.017, 222.0000
1173.103, 195.7715
1174.190, 60.55664
1175.276, 222.2461
1176.363, 72.70117
1177.449, 203.4629
1178.535, 41.77734
1179.620, 67.31445
1180.706, 28.02344
1181.791, 116.7168
1182.877, 0.4023440
1183.962, 153.6797
1185.047, 149.9160
1186.131, 214.2578
1187.216, 240.9141
1188.300, 117.4512
1189.385, 232.9102
1190.469, 140.5215
1191.553, 95.83008
1192.637, 73.97656
1193.720, 249.6777
1194.804, 30.71484
1195.887, 287.1797
1196.970, 26.83789
1198.053, 189.3750
1199.136, 249.4512
1200.219, 219.9707
1201.301, 205.8496
1202.383, 64.82812
1203.465, 61.32227
1204.547, 85.01758
1205.629, 102.4902
1206.711, 17.04688
1207.792, 170.3926
1208.874, 275.3340
1209.955, 141.7520
1211.036, 202.0957
1212.117, 245.4570
1213.198, 183.8555
1214.278, 188.2461
1215.359, 93.62500
1216.439, 60.51172
1217.519, 153.4785
1218.599, 13.43945
1219.678, 48.21289
1220.758, 45.11133
1221.837, 169.4121
1222.917, 207.7031
1223.996, 55.98633
1225.075, 181.7266
1226.153, 112.9922
1227.232, 199.2539
1228.310, 63.50781
1229.389, 231.7520
1230.467, 139.0410
1231.545, 305.2754
1232.622, 269.5020
1233.700, 391.7207
1234.777, 299.9336
1235.855, 18.13477
1236.932, 244.3242
1238.009, 18.55078
1239.086, 130.7266
1240.162, 48.92188
1241.239, 269.0781
1242.315, 37.22656
1243.391, 30.63672
1244.467, 93.47656
1245.543, 71.57812
1246.619, 17.32812
1247.694, 61.75000
1248.769, 15.28125
1249.844, 88.87891
1250.919, 41.39453
1251.994, 125.4375
1253.069, 200.4727
1254.144, 91.50000
1255.218, 91.52344
1256.292, 154.5391
1257.366, 199.5469
1258.440, 328.5430
1259.514, 305.9258
1260.587, 12.43750
1261.661, 275.5312
1262.734, 71.49219
1263.807, 0.4453130
1264.880, 108.3867
1265.952, 165.3242
1267.025, 126.2539
1268.097, 11.17578
1269.170, 57.91016
1270.242, 52.92578
1271.314, 26.78906
1272.385, 166.6484
1273.457, 2.500000
1274.528, 160.3438
1275.600, 92.19141
1276.671, 29.97266
1277.742, 11.34375
1278.812, 179.1445
1279.883, 129.5938
1280.954, 171.0156
1282.024, 23.80469
1283.094, 85.04297
1284.164, 298.3555
1285.234, 147.7852
1286.303, 146.5547
1287.373, 201.3320
1288.442, 166.0898
1289.511, 188.0820
1290.580, 166.4102
1291.649, 174.1523
1292.718, 167.6953
1293.786, 119.4297
1294.855, 236.3867
1295.923, 207.3867
1296.991, 162.0508
1298.059, 248.5625
1299.126, 320.0664
1300.194, 51.08203
1301.261, 405.7930
1302.328, 142.5000
1303.395, 186.9023
1304.462, 54.60547
1305.529, 154.0547
1306.596, 312.7578
1307.662, 21.18750
1308.728, 383.2305
1309.794, 229.4922
1310.860, 198.1289
1311.926, 108.8164
1312.991, 198.5156
1314.057, 47.20703
1315.122, 54.90234
1316.187, 102.5898
1317.252, 72.17188
1318.317, 265.9102
1319.381, 156.5859
1320.446, 171.1484
1321.510, 252.6211
1322.574, 36.31250
1323.638, 339.6602
1324.702, 194.3672
1325.766, 131.6992
1326.829, 53.41016
1327.892, 208.1172
1328.956, 141.8281
1330.019, 88.53125
1331.081, 133.0117
1332.144, 6.472656
1333.206, 348.0352
1334.269, 432.6680
1335.331, 386.5898
1336.393, 271.2656
1337.455, 369.9453
1338.516, 148.6172
1339.578, 96.31250
1340.639, 376.0039
1341.701, 518.6914
1342.762, 176.3828
1343.822, 26.01562
1344.883, 61.51562
1345.944, 49.95703
1347.004, 90.46875
1348.064, 44.50781
1349.124, 141.9141
1350.184, 295.5703
1351.244, 238.2344
1352.304, 7.312500
1353.363, 483.3516
1354.422, 121.0078
1355.481, 381.6641
1356.540, 185.1602
1357.599, 33.82031
1358.657, 350.4805
1359.716, 256.0586
1360.774, 252.6367
1361.832, 203.1641
1362.890, 162.6914
1363.948, 429.8828
1365.006, 33.41016
1366.063, 301.6016
1367.120, 35.13281
1368.178, 45.45703
1369.234, 225.9922
1370.291, 422.2773
1371.348, 355.6602
1372.404, 179.9961
1373.461, 264.4297
1374.517, 210.4805
1375.573, 107.8828
1376.629, 354.0938
1377.684, 56.38281
1378.740, 157.9258
1379.795, 39.45703
1380.850, 253.9883
1381.905, 142.5195
1382.960, 188.0469
1384.015, 205.5859
1385.070, 167.1250
1386.124, 273.6641
1387.178, 12.20703
1388.232, 115.5586
1389.286, 342.1055
1390.340, 482.5820
1391.393, 153.5898
1392.447, 114.1445
1393.500, 60.70312
1394.553, 42.26562
1395.606, 100.5195
1396.659, 91.74609
1397.711, 98.63672
1398.764, 161.9727
1399.816, 170.5547
1400.868, 195.7266
1401.920, 25.32422
1402.972, 280.9258
1404.023, 229.5156
1405.075, 275.7539
1406.126, 22.66406
1407.177, 132.0781
1408.228, 107.4961
1409.279, 118.7734
1410.330, 194.3281
1411.380, 205.2578
1412.431, 129.9609
1413.481, 19.84766
1414.531, 89.50000
1415.580, 57.10156
1416.630, 5.144531
1417.680, 62.57031
1418.729, 275.3008
1419.778, 166.0508
1420.827, 259.8281
1421.876, 256.6758
1422.925, 232.5586
1423.973, 251.5547
1425.022, 294.5078
1426.070, 134.4844
1427.118, 318.3867
1428.166, 133.5117
1429.214, 282.5820
1430.261, 79.69922
1431.309, 240.7891
1432.356, 148.9961
1433.403, 255.2578
1434.450, 342.2148
1435.497, 421.6211
1436.543, 497.1055
1437.590, 146.6875
1438.636, 238.3672
1439.682, 272.1758
1440.728, 119.9180
1441.774, 377.7695
1442.819, 417.6250
1443.865, 153.4883
1444.910, 98.25000
1445.955, 280.1211
1447.000, 497.9727
1448.045, 107.8555
1449.090, 162.5117
1450.134, 219.4023
1451.178, 297.3242
1452.223, 277.2461
1453.267, 309.1016
1454.310, 283.5820
1455.354, 328.9141
1456.398, 330.3359
1457.441, 292.8008
1458.484, 347.7773
1459.527, 348.2031
1460.570, 327.1875
1461.613, 327.1133
1462.655, 268.1133
1463.698, 243.1250
1464.740, 289.5234
1465.782, 300.1250
1466.824, 343.1328
1467.866, 335.1953
1468.907, 246.2969
1469.948, 154.4258
1470.990, 129.5781
1472.031, 191.4180
1473.072, 271.5664
1474.112, 323.7305
1475.153, 382.4727
1476.194, 363.6211
1477.234, 377.2070
1478.274, 344.4531
1479.314, 106.7266
1480.354, 187.0078
1481.393, 349.3711
1482.433, 171.7578
1483.472, 348.1562
1484.511, 578.5820
1485.550, 294.7695
1486.589, 172.3672
1487.628, 263.4883
1488.666, 388.6133
1489.704, 100.7266
1490.743, 51.56250
1491.781, 79.71875
1492.819, 319.8867
1493.856, 193.0625
1494.894, 395.2422
1495.931, 449.4297
1496.968, 146.6133
1498.005, 242.8086
1499.042, 122.9844
1500.079, 407.1641
1501.115, 407.2930
1502.152, 199.4336
1503.188, 178.5977
1504.224, 257.7695
1505.260, 428.9531
1506.296, 411.1484
1507.331, 228.3594
1508.367, 298.5781
1509.402, 263.8047
1510.437, 568.0820
1511.472, 347.3945
1512.507, 499.7422
1513.541, 249.0938
1514.576, 196.4609
1515.610, 219.8438
1516.644, 211.2383
1517.678, 396.6406
1518.712, 384.6406
1519.746, 440.6445
1520.779, 423.1641
1521.813, 345.6953
1522.846, 228.2344
1523.879, 313.7734
1524.912, 340.8789
1525.944, 313.3398
1526.977, 369.2539
1528.009, 398.4922
1529.041, 387.1914
1530.073, 373.1641
1531.105, 333.8516
1532.137, 305.8320
1533.168, 194.9258
1534.200, 66.14844
1535.231, 4.488281
1536.262, 50.83203
1537.293, 12.79297
1538.324, 276.5625
1539.354, 116.6211
1540.385, 287.8945
1541.415, 436.4219
1542.445, 198.2188
1543.475, 323.3242
1544.505, 269.7734
1545.534, 115.5312
1546.564, 369.6367
1547.593, 96.11719
1548.622, 347.0234
1549.651, 220.5312
1550.680, 307.0781
1551.708, 123.0781
1552.737, 469.6797
1553.765, 496.9336
1554.793, 322.9141
1555.821, 503.2773
1556.849, 223.9727
1557.877, 225.5234
1558.904, 7.703125
1559.932, 409.1094
1560.959, 440.9648
1561.986, 410.0156
1563.013, 0.0000000E+00
##END=



