##NAMES=Microcline
##RRUFFID=R050150
##IDEAL CHEMISTRY=KAlSi_3_O_8_
##LOCALITY=Crystal Peak area, Park/Teller Counties, Colorado, USA
##OWNER=RRUFF
##SOURCE=Dave Bunk Minerals
##DESCRIPTION=Pale blue prismatic crystals
##STATUS=The identification of this mineral has been confirmed by X-ray diffraction and chemical analysis
##URL=rruff.info/R050150
##MEASURED CHEMISTRY=(K_0.95_Na_0.05_)_Î£=1_Al_1.00_Si_3.00_O_8_
##PIN_ID=L00915
##ORIENTATION=Laser parallel to (1 1 0). Fiducial mark perpendicular to laser is parallel to c [0 0 1]
137.6830, 0.0000000E+00
138.9210, 123.0547
140.1580, 143.8828
141.3950, 431.1621
142.6330, 585.9062
143.8690, 730.3262
145.1060, 983.5312
146.3430, 1062.262
147.5790, 1422.807
148.8150, 1687.088
150.0510, 1966.529
151.2870, 2053.963
152.5220, 2034.566
153.7580, 2039.357
154.9930, 2155.693
156.2280, 2235.139
157.4620, 1979.328
158.6970, 1869.951
159.9310, 1623.355
161.1660, 1387.619
162.4000, 898.3379
163.6330, 720.3281
164.8670, 706.3262
166.1000, 141.2246
167.3340, 242.1660
168.5670, 396.2891
169.8000, 186.7012
171.0320, 298.5000
172.2650, 579.7656
173.4970, 542.5645
174.7290, 609.9727
175.9610, 1046.057
177.1930, 1307.854
178.4240, 1475.191
179.6550, 1581.475
180.8870, 1531.043
182.1170, 1424.119
183.3480, 1171.828
184.5790, 871.0664
185.8090, 563.8008
187.0390, 615.6504
188.2690, 580.2578
189.4990, 569.9043
190.7290, 434.9414
191.9580, 616.2852
193.1870, 623.4004
194.4160, 665.6934
195.6450, 833.1523
196.8740, 1046.756
198.1020, 1053.492
199.3310, 1392.344
200.5590, 1147.305
201.7870, 1174.371
203.0140, 803.5371
204.2420, 557.8047
205.4690, 519.1680
206.6960, 234.6289
207.9230, 65.18359
209.1500, 48.86328
210.3760, 45.80273
211.6030, 38.05273
212.8290, 124.4160
214.0550, 74.05469
215.2810, 183.8496
216.5060, 139.2598
217.7320, 152.2793
218.9570, 150.7969
220.1820, 204.0312
221.4070, 4.769531
222.6320, 126.5801
223.8560, 44.98633
225.0800, 188.4746
226.3040, 48.88867
227.5280, 211.2344
228.7520, 195.5156
229.9760, 63.26172
231.1990, 20.45312
232.4220, 82.59180
233.6450, 182.3125
234.8680, 64.75195
236.0910, 63.79102
237.3130, 17.19727
238.5350, 10.20898
239.7570, 127.2461
240.9790, 159.3066
242.2010, 230.3926
243.4220, 23.49609
244.6430, 15.64258
245.8640, 59.81055
247.0850, 118.0020
248.3060, 263.2207
249.5270, 311.4668
250.7470, 478.6934
251.9670, 770.8086
253.1870, 775.8145
254.4070, 1262.834
255.6260, 1492.734
256.8460, 1591.467
258.0650, 1814.121
259.2840, 1925.596
260.5030, 2105.785
261.7220, 2167.990
262.9400, 2522.654
264.1580, 2689.348
265.3760, 3040.064
266.5940, 3165.820
267.8120, 2939.617
269.0290, 2567.453
270.2470, 2364.326
271.4640, 2238.234
272.6810, 1890.182
273.8980, 1704.164
275.1140, 1660.186
276.3310, 1895.238
277.5470, 1927.326
278.7630, 2276.447
279.9790, 2774.799
281.1940, 3657.076
282.4100, 4286.861
283.6250, 4927.098
284.8400, 5858.902
286.0550, 5822.016
287.2700, 5818.137
288.4850, 4968.568
289.6990, 4252.451
290.9130, 3545.666
292.1270, 2729.521
293.3410, 2152.055
294.5540, 1593.730
295.7680, 1247.523
296.9810, 1094.406
298.1940, 811.4355
299.4070, 848.3555
300.6200, 564.3984
301.8320, 475.4746
303.0450, 395.5762
304.2570, 291.6992
305.4690, 261.8223
306.6800, 352.9297
307.8920, 108.0059
309.1030, 171.0430
310.3150, 213.0449
311.5260, 112.0156
312.7360, 259.9609
313.9470, 93.88672
315.1580, 111.7910
316.3680, 116.6836
317.5780, 103.5605
318.7880, 147.4316
319.9980, 22.29102
321.2070, 239.1387
322.4170, 257.0098
323.6260, 121.7617
324.8350, 447.3848
326.0430, 244.8438
327.2520, 506.2734
328.4610, 687.5176
329.6690, 569.4609
330.8770, 820.3555
332.0850, 704.2070
333.2920, 881.9961
334.5000, 824.8262
335.7070, 548.6836
336.9140, 635.5449
338.1210, 536.4297
339.3280, 287.3398
340.5350, 286.2754
341.7410, 161.2383
342.9470, 314.2246
344.1540, 223.2363
345.3590, 217.2715
346.5650, 322.3359
347.7710, 187.4238
348.9760, 304.5352
350.1810, 422.6660
351.3860, 271.8184
352.5910, 433.9961
353.7950, 332.1914
355.0000, 584.4102
356.2040, 490.6445
357.4080, 592.8965
358.6120, 494.1680
359.8150, 557.4531
361.0190, 590.7559
362.2220, 628.1895
363.4250, 561.9375
364.6280, 686.2812
365.8310, 725.0645
367.0340, 889.5488
368.2360, 1045.936
369.4380, 1524.492
370.6400, 2010.230
371.8420, 2492.611
373.0440, 2493.025
374.2450, 2751.365
375.4470, 2550.006
376.6480, 1901.801
377.8490, 1269.402
379.0490, 940.8945
380.2500, 604.4746
381.4500, 549.1094
382.6510, 376.5430
383.8510, 285.7832
385.0500, 209.3359
386.2500, 33.90430
387.4500, 101.4844
388.6490, 39.87891
389.8480, 90.64258
391.0470, 145.2578
392.2460, 46.88477
393.4440, 265.5254
394.6430, 114.1777
395.8410, 232.8418
397.0390, 409.5176
398.2370, 417.2090
399.4340, 627.9102
400.6320, 859.6250
401.8290, 1186.355
403.0260, 1127.098
404.2230, 1322.859
405.4200, 1305.633
406.6170, 887.4238
407.8130, 825.2266
409.0090, 500.0449
410.2050, 518.8789
411.4010, 392.7266
412.5970, 436.5898
413.7920, 491.4648
414.9880, 314.3652
416.1830, 188.2910
417.3780, 59.23242
418.5730, 62.81250
419.7670, 45.13867
420.9620, 75.10156
422.1560, 25.91992
423.3500, 164.9414
424.5440, 3.992188
425.7380, 48.07031
426.9310, 76.18164
428.1240, 24.31250
429.3180, 82.56250
430.5110, 151.5430
431.7030, 130.7109
432.8960, 17.06055
434.0890, 63.15625
435.2810, 3.597656
436.4730, 268.3535
437.6650, 472.1191
438.8570, 225.8906
440.0480, 397.6699
441.2390, 535.4551
442.4310, 452.2461
443.6220, 621.0430
444.8120, 1091.848
446.0030, 1398.656
447.1940, 1845.471
448.3840, 2381.975
449.5740, 2760.143
450.7640, 3533.988
451.9540, 4274.838
453.1430, 4922.693
454.3330, 5911.555
455.5220, 5496.422
456.7110, 5526.297
457.9000, 4666.176
459.0890, 3843.062
460.2770, 3458.953
461.4650, 3285.854
462.6540, 3075.760
463.8420, 3261.109
465.0290, 3539.311
466.2170, 4092.592
467.4050, 4845.918
468.5920, 5604.752
469.7790, 6674.305
470.9660, 8512.262
472.1530, 10567.59
473.3390, 12997.49
474.5250, 15535.48
475.7120, 17091.35
476.8980, 17301.51
478.0840, 15859.53
479.2690, 13854.56
480.4550, 11196.61
481.6400, 9072.670
482.8250, 7541.738
484.0100, 6276.816
485.1950, 5558.906
486.3800, 4813.008
487.5640, 3867.119
488.7480, 3198.674
489.9320, 2719.805
491.1160, 2197.947
492.3000, 1931.102
493.4840, 1746.936
494.6670, 1809.510
495.8500, 1691.693
497.0330, 1984.887
498.2160, 2132.090
499.3990, 2214.303
500.5810, 2655.523
501.7630, 3020.756
502.9460, 3949.998
504.1280, 5106.273
505.3090, 6216.600
506.4910, 7481.973
507.6720, 9659.357
508.8540, 12640.80
510.0350, 15738.27
511.2160, 19554.74
512.3960, 23575.24
513.5770, 25513.79
514.7570, 25398.36
515.9380, 23877.00
517.1180, 20054.70
518.2970, 16010.43
519.4770, 12715.17
520.6570, 9788.949
521.8360, 7560.740
523.0150, 5748.555
524.1940, 4818.398
525.3730, 3783.264
526.5510, 3150.145
527.7300, 2852.031
528.9080, 2293.924
530.0860, 2032.830
531.2640, 1884.752
532.4420, 1566.682
533.6200, 1427.623
534.7970, 1335.570
535.9740, 1088.525
537.1510, 838.4902
538.3280, 665.4629
539.5050, 821.4414
540.6810, 673.4297
541.8580, 714.4219
543.0340, 669.4258
544.2100, 718.4336
545.3860, 660.4531
546.5610, 657.4766
547.7370, 518.5078
548.9120, 608.5469
550.0870, 293.5918
551.2620, 368.6465
552.4370, 314.7070
553.6120, 252.7734
554.7860, 200.8477
555.9600, 143.4590
557.1340, 228.9023
558.3080, 65.04883
559.4820, 251.2031
560.6560, 299.2871
561.8290, 387.4648
563.0020, 210.6641
564.1750, 365.7812
565.3480, 83.99414
566.5210, 178.0234
567.6930, 323.9512
568.8660, 248.0703
570.0380, 48.49609
571.2100, 161.7480
572.3820, 190.8145
573.5530, 242.1113
574.7250, 342.3770
575.8960, 348.4414
577.0670, 344.4414
578.2380, 339.7852
579.4090, 351.1387
580.5800, 216.5000
581.7500, 664.8672
582.9210, 545.2422
584.0910, 589.6250
585.2610, 264.6660
586.4300, 294.0605
587.6000, 344.4609
588.7690, 472.4883
589.9390, 318.9023
591.1080, 349.7773
592.2770, 109.8008
593.4450, 241.2305
594.6140, 179.6660
595.7820, 147.1055
596.9500, 28.55273
598.1190, 95.00391
599.2860, 107.4590
600.4540, 154.9297
601.6220, 86.43750
602.7890, 104.9512
603.9560, 7.494141
605.1230, 112.9492
606.2900, 46.43750
607.4570, 29.94141
608.6230, 72.45508
609.7890, 33.31641
610.9560, 84.52539
612.1220, 10.95117
613.2870, 21.42383
614.4530, 21.09766
615.6180, 54.33984
616.7840, 92.79883
617.9490, 205.6992
619.1140, 129.1992
620.2790, 79.70508
621.4430, 64.21289
622.6080, 34.73047
623.7720, 216.2480
624.9360, 223.7695
626.1000, 304.2930
627.2640, 326.8223
628.4270, 28.65039
629.5910, 324.8730
630.7540, 244.3965
631.9170, 550.9219
633.0800, 1.531250
634.2430, 499.0195
635.4050, 419.5742
636.5680, 187.1621
637.7300, 544.7539
638.8920, 425.3770
640.0540, 582.0039
641.2150, 638.6348
642.3770, 702.2695
643.5380, 743.8965
644.7000, 871.5156
645.8610, 871.1953
647.0210, 735.8750
648.1820, 1151.006
649.3430, 1123.682
650.5030, 1176.404
651.6630, 1434.744
652.8230, 1492.418
653.9830, 1235.088
655.1430, 1144.756
656.3020, 1205.457
657.4620, 1088.117
658.6210, 897.7773
659.7800, 848.1816
660.9390, 761.9980
662.0970, 633.5762
663.2560, 657.3750
664.4140, 603.1875
665.5720, 520.8555
666.7300, 437.4883
667.8880, 298.2305
669.0460, 164.8516
670.2030, 105.4648
671.3600, 128.0234
672.5180, 110.6797
673.6740, 245.2812
674.8310, 256.8711
675.9880, 254.4570
677.1440, 149.0391
678.3010, 480.6211
679.4570, 332.1992
680.6130, 299.7891
681.7690, 165.3711
682.9240, 110.9492
684.0800, 195.5195
685.2350, 58.07812
686.3900, 89.63281
687.5450, 142.1797
688.7000, 296.7227
689.8540, 164.2539
691.0090, 221.9531
692.1630, 91.47266
693.3170, 185.3438
694.4710, 19.78906
695.6250, 42.31250
696.7780, 225.1914
697.9320, 90.62109
699.0850, 165.3125
700.2380, 150.7422
701.3910, 220.4414
702.5440, 162.8555
703.6970, 122.3945
704.8490, 5.160156
706.0010, 281.2578
707.1530, 74.35156
708.3050, 38.84375
709.4570, 130.2266
710.6090, 496.5781
711.7600, 644.2070
712.9110, 252.5977
714.0620, 160.0117
715.2130, 569.4297
716.3640, 88.84375
717.5150, 309.2422
718.6650, 86.62891
719.8150, 304.3711
720.9650, 327.8633
722.1150, 298.5898
723.2650, 26.92188
724.4150, 197.2344
725.5640, 192.5391
726.7130, 15.90625
727.8630, 163.3438
729.0110, 79.57812
730.1600, 200.7969
731.3090, 237.4727
732.4570, 227.1953
733.6060, 281.3711
734.7540, 286.5312
735.9020, 384.7109
737.0490, 506.8789
738.1970, 622.3047
739.3440, 682.9023
740.4920, 842.5508
741.6390, 766.8125
742.7860, 1040.066
743.9320, 1134.711
745.0790, 1332.457
746.2250, 1854.070
747.3720, 1791.855
748.5180, 1849.863
749.6640, 2267.820
750.8100, 2081.277
751.9550, 1840.273
753.1010, 1501.383
754.2460, 1251.398
755.3910, 1218.125
756.5360, 849.9766
757.6810, 890.0391
758.8250, 730.8555
759.9700, 680.6289
761.1140, 662.8086
762.2580, 421.5664
763.4020, 570.3125
764.5460, 606.0352
765.6900, 469.7383
766.8330, 706.1211
767.9760, 520.7852
769.1200, 582.4375
770.2620, 475.9727
771.4050, 667.1250
772.5480, 490.0977
773.6900, 475.6445
774.8330, 213.1992
775.9750, 261.3125
777.1170, 284.1367
778.2590, 408.0898
779.4000, 257.5781
780.5420, 28.57422
781.6830, 24.81250
782.8240, 197.1602
783.9650, 543.4844
785.1060, 104.7852
786.2470, 341.0586
787.3870, 166.4609
788.5280, 88.96094
789.6680, 263.2188
790.8080, 249.4023
791.9480, 233.5586
793.0870, 64.69922
794.2270, 297.8047
795.3660, 191.8906
796.5060, 83.95312
797.6450, 160.2383
798.7830, 203.2500
799.9220, 146.2422
801.0610, 1.203125
802.1990, 175.1133
803.3370, 271.0039
804.4750, 157.8672
805.6130, 329.8047
806.7510, 478.5352
807.8890, 566.3359
809.0260, 775.1055
810.1630, 817.0586
811.3000, 1015.590
812.4370, 969.2930
813.5740, 1007.977
814.7110, 1150.746
815.8470, 1056.383
816.9830, 1039.047
818.1190, 667.6406
819.2550, 638.2070
820.3910, 383.7539
821.5270, 568.3555
822.6620, 331.8672
823.7970, 499.3555
824.9330, 340.8203
826.0670, 332.2617
827.2020, 151.6797
828.3370, 341.0742
829.4710, 126.5859
830.6060, 125.9297
831.7400, 242.5195
832.8740, 140.3398
834.0080, 337.8281
835.1410, 17.97266
836.2750, 222.0703
837.4080, 16.75781
838.5410, 201.2617
839.6740, 156.2500
840.8070, 353.2227
841.9400, 185.8398
843.0730, 66.75781
844.2050, 71.94141
845.3370, 202.6133
846.4690, 95.55078
847.6010, 128.1875
848.7330, 16.10156
849.8640, 387.5469
850.9960, 336.1758
852.1270, 393.7773
853.2580, 196.3633
854.3890, 338.9180
855.5200, 106.4570
856.6500, 142.9688
857.7810, 104.4492
858.9110, 232.9102
860.0410, 379.6953
861.1710, 176.1094
862.3010, 114.5039
863.4310, 231.2500
864.5600, 260.5938
865.6900, 346.8672
866.8190, 289.1641
867.9480, 306.0508
869.0770, 295.5938
870.2050, 242.9414
871.3340, 202.1523
872.4620, 146.3438
873.5900, 3.511719
874.7180, 63.35938
875.8460, 18.69531
876.9740, 43.33594
878.1010, 110.6602
879.2290, 45.58594
880.3560, 34.50781
881.4830, 185.4102
882.6100, 56.30469
883.7370, 243.8164
884.8630, 214.9023
885.9900, 41.60156
887.1160, 157.2812
888.2420, 111.0625
889.3680, 328.5000
890.4940, 192.0547
891.6200, 150.6133
892.7450, 92.15234
893.8700, 149.6680
894.9960, 28.16406
896.1210, 68.63281
897.2460, 185.0781
898.3700, 283.5039
899.4950, 263.9102
900.6190, 312.3008
901.7430, 16.67188
902.8670, 152.0195
903.9910, 264.3477
905.1150, 49.33984
906.2390, 38.91016
907.3620, 58.13672
908.4850, 99.65625
909.6080, 191.4609
910.7310, 94.43750
911.8540, 60.58203
912.9770, 43.57812
914.0990, 10.55078
915.2210, 141.5000
916.3440, 152.3945
917.4660, 119.2773
918.5870, 274.0859
919.7090, 246.8789
920.8310, 140.1992
921.9520, 62.96094
923.0730, 44.66016
924.1940, 80.71484
925.3150, 137.4258
926.4360, 374.1172
927.5560, 87.79688
928.6770, 285.4219
929.7970, 125.0742
930.9170, 322.7031
932.0370, 32.57031
933.1570, 276.0781
934.2760, 160.6680
935.3960, 140.0859
936.5150, 198.4727
937.6340, 245.9844
938.7530, 373.5234
939.8720, 275.9336
940.9910, 282.4492
942.1090, 166.9492
943.2280, 326.4336
944.3460, 199.9102
945.4640, 234.3711
946.5820, 58.82031
947.6990, 167.2539
948.8170, 30.32031
949.9340, 115.0781
951.0520, 62.54297
952.1690, 133.7891
953.2860, 234.1094
954.4030, 113.4180
955.5190, 22.68359
956.6360, 95.96875
957.7520, 355.2461
958.8680, 190.5078
959.9840, 191.7617
961.1000, 215.0078
962.2160, 123.0703
963.3310, 0.2890630
964.4470, 162.1406
965.5620, 324.9727
966.6770, 124.1680
967.7920, 235.3086
968.9060, 405.5039
970.0210, 386.4180
971.1360, 4.402344
972.2500, 290.4883
973.3640, 31.65234
974.4780, 169.6719
975.5920, 2.820313
976.7050, 122.9688
977.8190, 505.1445
978.9320, 112.5000
980.0450, 99.64844
981.1580, 351.8203
982.2710, 287.7344
983.3840, 109.9062
984.4970, 402.0312
985.6090, 380.1758
986.7210, 372.3164
987.8330, 542.5234
988.9450, 687.7617
990.0570, 674.6133
991.1690, 654.7070
992.2800, 587.5508
993.3920, 874.7656
994.5030, 1093.004
995.6140, 823.2383
996.7250, 728.1992
997.8350, 546.4414
998.9460, 834.6758
1000.056, 698.9336
1001.167, 690.1875
1002.277, 570.4688
1003.387, 623.7461
1004.496, 562.0234
1005.606, 496.3008
1006.715, 383.5078
1007.825, 385.4648
1008.934, 299.2461
1010.043, 385.9531
1011.152, 580.0312
1012.260, 575.1289
1013.369, 407.5859
1014.477, 231.8477
1015.586, 412.1914
1016.694, 316.8516
1017.802, 405.5547
1018.909, 161.9297
1020.017, 426.4375
1021.124, 234.8164
1022.232, 234.9961
1023.339, 294.3789
1024.446, 307.7656
1025.553, 197.1562
1026.659, 352.3164
1027.766, 648.7148
1028.872, 516.1367
1029.979, 302.1641
1031.085, 847.5898
1032.191, 520.0234
1033.296, 578.4648
1034.402, 422.9219
1035.507, 627.2695
1036.613, 695.7383
1037.718, 683.2148
1038.823, 499.7891
1039.928, 615.6562
1041.032, 739.7734
1042.137, 403.2930
1043.241, 667.8008
1044.346, 646.7266
1045.450, 440.9297
1046.554, 356.9961
1047.657, 481.5117
1048.761, 546.6562
1049.864, 471.2188
1050.968, 382.8086
1052.071, 563.4023
1053.174, 551.0078
1054.277, 434.6172
1055.379, 609.0977
1056.482, 150.4609
1057.584, 477.0547
1058.687, 142.7031
1059.789, 540.3672
1060.891, 509.0352
1061.992, 387.7266
1063.094, 150.4180
1064.196, 185.1289
1065.297, 209.5977
1066.398, 278.3320
1067.499, 396.0742
1068.600, 109.8242
1069.701, 306.6055
1070.801, 155.0508
1071.902, 61.84375
1073.002, 275.6602
1074.102, 121.4844
1075.202, 233.3203
1076.302, 155.1602
1077.402, 246.0156
1078.501, 168.8828
1079.600, 64.76562
1080.700, 44.66016
1081.799, 393.4531
1082.898, 215.3672
1083.996, 181.2461
1085.095, 388.1875
1086.193, 158.1406
1087.292, 113.8984
1088.390, 374.9844
1089.488, 182.9492
1090.586, 429.9258
1091.683, 255.9219
1092.781, 597.9258
1093.878, 528.9414
1094.975, 435.9766
1096.073, 442.8750
1097.169, 257.9375
1098.266, 475.0195
1099.363, 682.1094
1100.459, 862.2656
1101.556, 694.4375
1102.652, 613.6328
1103.748, 628.7500
1104.844, 814.9922
1105.940, 810.2500
1107.035, 1054.523
1108.131, 948.8047
1109.226, 1434.105
1110.321, 1620.426
1111.416, 1665.770
1112.511, 1872.125
1113.605, 2073.531
1114.700, 2306.957
1115.794, 2864.461
1116.889, 3334.992
1117.983, 4092.477
1119.077, 5185.422
1120.170, 5833.941
1121.264, 6815.527
1122.357, 7247.074
1123.451, 7689.637
1124.544, 7511.219
1125.637, 7300.840
1126.730, 6534.445
1127.823, 5859.070
1128.915, 5238.707
1130.008, 4614.352
1131.100, 4235.625
1132.192, 3810.305
1133.284, 3943.598
1134.376, 4030.305
1135.467, 4044.023
1136.559, 4064.762
1137.650, 4021.332
1138.742, 3909.270
1139.833, 3764.059
1140.924, 3601.895
1142.014, 3224.746
1143.105, 2883.512
1144.195, 2361.434
1145.286, 1945.355
1146.376, 1700.297
1147.466, 1514.254
1148.556, 1037.227
1149.646, 1114.418
1150.735, 1186.488
1151.825, 961.5781
1152.914, 867.6836
1154.003, 805.8398
1155.092, 860.0156
1156.181, 468.1992
1157.270, 790.3945
1158.358, 586.6094
1159.447, 857.8359
1160.535, 462.0039
1161.623, 396.2695
1162.711, 677.5469
1163.799, 259.8359
1164.886, 381.4844
1165.974, 509.7969
1167.061, 636.1406
1168.148, 207.4883
1169.235, 451.8555
1170.322, 183.2500
1171.409, 570.6680
1172.496, 115.1016
1173.582, 108.5781
1174.669, 178.0703
1175.755, 296.6094
1176.841, 199.1641
1177.927, 355.7344
1179.012, 304.3281
1180.098, 261.9727
1181.183, 198.6406
1182.269, 12.31641
1183.354, 245.0039
1184.439, 505.7109
1185.524, 265.4297
1186.608, 406.1641
1187.693, 359.9102
1188.777, 277.6719
1189.862, 171.4453
1190.946, 130.2383
1192.030, 268.0430
1193.113, 149.8555
1194.197, 225.6914
1195.281, 447.5312
1196.364, 189.3945
1197.447, 258.2656
1198.530, 318.1523
1199.613, 249.0508
1200.696, 40.03516
1201.779, 221.8789
1202.861, 519.8008
1203.944, 127.7422
1205.026, 410.6914
1206.108, 280.6562
1207.190, 308.6406
1208.271, 405.6289
1209.353, 120.6367
1210.435, 158.6562
1211.516, 268.6914
1212.597, 140.7461
1213.678, 73.82031
1214.759, 360.9219
1215.840, 111.0391
1216.920, 195.1680
1218.001, 516.3516
1219.081, 296.5156
1220.161, 143.6875
1221.241, 182.8711
1222.321, 370.0703
1223.401, 116.2812
1224.480, 264.5078
1225.560, 279.7500
1226.639, 188.0000
1227.718, 375.2656
1228.797, 260.5469
1229.876, 280.0508
1230.955, 250.1484
1232.033, 172.4688
1233.112, 210.8047
1234.190, 19.15625
1235.268, 232.5156
1236.346, 172.8906
1237.424, 70.27734
1238.501, 436.6758
1239.579, 60.08594
1240.656, 131.5117
1241.733, 228.9492
1242.811, 172.4023
1243.888, 146.8633
1244.964, 7.343750
1246.041, 79.16797
1247.117, 177.2930
1248.194, 368.2305
1249.270, 73.07812
1250.346, 38.60938
1251.422, 102.7031
1252.498, 194.0312
1253.573, 196.3672
1254.649, 95.28516
1255.724, 221.0352
1256.800, 290.3633
1257.875, 537.7188
1258.950, 168.0898
1260.024, 86.53125
1261.099, 30.82422
1262.173, 122.8086
1263.248, 151.5117
1264.322, 475.8477
1265.396, 260.1914
1266.470, 230.5508
1267.544, 118.9219
1268.617, 262.3047
1269.691, 25.69922
1270.764, 14.10547
1271.837, 71.45703
1272.910, 229.0430
1273.983, 306.2734
1275.056, 374.6016
1276.129, 119.9414
1277.201, 230.2930
1278.273, 112.3438
1279.346, 164.9805
1280.418, 181.3164
1281.489, 271.6641
1282.561, 104.0234
1283.633, 426.3906
1284.704, 520.7734
1285.776, 64.17188
1286.847, 181.5859
1287.918, 410.0078
1288.989, 89.55859
1290.059, 65.16016
1291.130, 137.5781
1292.200, 446.0039
1293.271, 78.55859
1294.341, 345.8555
1295.411, 276.2773
1296.481, 63.71094
1297.551, 278.1602
1298.620, 312.6211
1299.690, 160.0938
1300.759, 457.5820
1301.828, 315.0820
1302.897, 176.5898
1303.966, 292.1133
1305.035, 381.6445
1306.103, 465.1953
1307.172, 468.7578
1308.240, 264.3398
1309.308, 41.92578
1310.376, 345.5352
1311.444, 403.1523
1312.512, 707.7734
1313.580, 374.4102
1314.647, 562.0469
1315.714, 437.6914
1316.781, 488.3477
1317.848, 467.0117
1318.915, 260.6836
1319.982, 432.3672
1321.049, 615.0547
1322.115, 448.7500
1323.181, 205.4609
1324.248, 80.17188
1325.314, 511.8945
1326.380, 337.6211
1327.445, 487.3594
1328.511, 521.1016
1329.576, 757.1992
1330.642, 702.9414
1331.707, 322.7344
1332.772, 667.5117
1333.837, 297.3008
1334.902, 297.0938
1335.966, 535.8945
1337.031, 560.7031
1338.095, 286.5234
1339.159, 438.3477
1340.223, 437.1836
1341.287, 638.0273
1342.351, 302.8789
1343.415, 457.7383
1344.478, 359.6055
1345.541, 614.4805
1346.605, 528.3750
1347.668, 394.2812
1348.731, 723.1953
1349.793, 417.1211
1350.856, 150.0586
1351.918, 479.0000
1352.981, 1597.961
1354.043, 503.9258
1355.105, 746.8984
1356.167, 555.8828
1357.229, 179.8750
1358.290, 489.8789
1359.352, 610.8945
1360.413, 282.9258
1361.475, 347.9609
1362.536, 798.0117
1363.597, 488.0742
1364.657, 452.1484
1365.718, 94.22656
1366.779, 343.3164
1367.839, 314.4219
1368.899, 488.5352
1369.959, 495.6641
1371.019, 258.8008
1372.079, 480.9570
1373.139, 262.0742
1374.198, 188.1914
1375.258, 362.3789
1376.317, 105.1367
1377.376, 324.3516
1378.435, 498.5234
1379.494, 548.7617
1380.553, 364.0195
1381.611, 113.2891
1382.670, 306.5391
1383.728, 180.8320
1384.786, 412.7422
1385.844, 279.0703
1386.902, 374.4102
1387.960, 512.1602
1389.017, 313.5352
1390.075, 212.3242
1391.132, 138.7344
1392.189, 324.1523
1393.246, 604.5938
1394.303, 364.0547
1395.360, 342.5273
1396.417, 178.0234
1397.473, 503.5352
1398.529, 607.8203
1399.585, 252.4961
1400.642, 579.1953
1401.697, 390.7891
1402.753, 465.4023
1403.809, 243.0430
1404.864, 546.6992
1405.920, 585.2422
1406.975, 296.9453
1408.030, 279.6680
1409.085, 48.41406
1410.140, 348.1836
1411.194, 622.9844
1412.249, 167.8047
1413.303, 456.5781
1414.358, 424.3789
1415.412, 559.2070
1416.466, 18.86328
1417.520, 352.0078
1418.573, 247.9102
1419.627, 136.7344
1420.680, 267.2305
1421.733, 442.0938
1422.787, 62.33594
1423.840, 600.2422
1424.892, 245.1641
1425.945, 318.1094
1426.998, 725.0742
1428.050, 114.0586
1429.103, 156.0664
1430.155, 362.1406
1431.207, 361.2109
1432.259, 316.2812
1433.310, 399.8203
1434.362, 443.9531
1435.414, 438.0117
1436.465, 467.2266
1437.516, 439.5664
1438.567, 426.9531
1439.618, 379.8672
1440.669, 288.3047
1441.720, 193.7578
1442.770, 234.2148
1443.820, 194.1797
1444.871, 430.1758
1445.921, 263.6719
1446.971, 337.1719
1448.021, 457.6953
1449.070, 302.2422
1450.120, 502.7930
1451.169, 546.7188
1452.219, 318.9336
1453.268, 640.5195
1454.317, 647.1172
1455.366, 419.7266
1456.414, 355.3438
1457.463, 413.9727
1458.511, 421.6172
1459.560, 306.2578
1460.608, 354.9180
1461.656, 286.5859
1462.704, 263.7422
1463.752, 383.9453
1464.799, 243.6445
1465.847, 449.3477
1466.894, 503.0625
1467.941, 470.7773
1468.988, 363.5039
1470.035, 430.6758
1471.082, 409.1914
1472.129, 454.2539
1473.175, 466.7344
1474.222, 396.6875
1475.268, 458.6406
1476.314, 282.7891
1477.360, 195.0117
1478.406, 212.3320
1479.452, 393.6680
1480.498, 287.0234
1481.543, 344.3906
1482.588, 672.7539
1483.633, 397.3281
1484.679, 669.9141
1485.723, 318.5586
1486.768, 291.2734
1487.813, 354.0039
1488.857, 325.7500
1489.902, 372.1680
1490.946, 252.7930
1491.990, 348.6641
1493.034, 285.5898
1494.078, 41.56641
1495.122, 212.5664
1496.165, 597.5898
1497.209, 35.63281
1498.252, 214.6953
1499.295, 283.7617
1500.338, 102.8242
1501.381, 279.8945
1502.424, 240.0156
1503.466, 118.1875
1504.509, 234.4062
1505.551, 330.6797
1506.593, 348.0039
1507.635, 671.3828
1508.677, 165.8242
1509.719, 75.67969
1510.761, 163.8828
1511.802, 372.5039
1512.844, 615.1914
1513.885, 25.95703
1514.926, 67.79297
1515.967, 73.70703
1517.008, 250.7109
1518.049, 328.7969
1519.089, 428.9609
1520.130, 182.1992
1521.170, 361.5273
1522.210, 321.9414
1523.250, 64.56641
1524.290, 163.0195
1525.330, 0.6875000
1526.370, 380.4414
1527.409, 387.2891
1528.448, 356.2500
1529.488, 56.30859
1530.527, 224.4688
1531.566, 87.73828
1532.605, 400.1211
1533.643, 320.6328
1534.682, 100.2852
1535.720, 476.0703
1536.759, 341.0039
1537.797, 246.2422
1538.835, 162.8086
1539.873, 89.48047
1540.910, 207.2578
1541.948, 295.1523
1542.986, 188.1641
1544.023, 436.2656
1545.060, 142.2773
1546.097, 289.1562
1547.134, 27.95312
1548.171, 134.6211
1549.208, 206.1055
1550.244, 242.3125
1551.281, 557.8320
1552.317, 264.7891
1553.353, 371.4414
1554.389, 107.9062
1555.425, 120.7930
1556.461, 330.3906
1557.497, 9.632813
1558.532, 295.9219
1559.567, 122.1328
1560.603, 117.8594
1561.638, 54.02344
1562.673, 76.15625
1563.708, 0.0000000E+00
##END=



