##NAMES=Microcline
##RRUFFID=R050150
##IDEAL CHEMISTRY=KAlSi_3_O_8_
##LOCALITY=Crystal Peak area, Park/Teller Counties, Colorado, USA
##OWNER=RRUFF
##SOURCE=Dave Bunk Minerals
##DESCRIPTION=Pale blue prismatic crystals
##STATUS=The identification of this mineral has been confirmed by X-ray diffraction and chemical analysis
##URL=rruff.info/R050150
##MEASURED CHEMISTRY=(K_0.95_Na_0.05_)_Î£=1_Al_1.00_Si_3.00_O_8_
##PIN_ID=L00945
##ORIENTATION=Laser parallel to a* (1 0 0). Fiducial mark perpendicular to laser is parallel to b [0 1 0]
137.6830, 0.0000000E+00
138.9210, 132.4688
140.1580, 295.1846
141.3950, 611.1104
142.6330, 952.5342
143.8690, 1311.519
145.1060, 1716.633
146.3430, 2345.902
147.5790, 3067.909
148.8150, 4001.560
150.0510, 4902.018
151.2870, 5440.922
152.5220, 5620.041
153.7580, 5200.203
154.9930, 4167.827
156.2280, 3146.755
157.4620, 2109.185
158.6970, 1356.664
159.9310, 756.4912
161.1660, 457.5947
162.4000, 62.96875
163.6330, 52.93555
164.8670, 55.54688
166.1000, 101.2725
167.3340, 3.143555
168.5670, 31.01953
169.8000, 234.6367
171.0320, 391.2314
172.2650, 610.0020
173.4970, 812.0781
174.7290, 862.8506
175.9610, 1296.276
177.1930, 1590.479
178.4240, 1841.554
179.6550, 2286.227
180.8870, 2517.633
182.1170, 2438.423
183.3480, 2256.754
184.5790, 1928.854
185.8090, 1670.418
187.0390, 1527.743
188.2690, 1372.919
189.4990, 1309.126
190.7290, 1283.939
191.9580, 1319.290
193.1870, 1382.127
194.4160, 1493.894
195.6450, 1673.576
196.8740, 1776.162
198.1020, 2032.642
199.3310, 2486.039
200.5590, 2539.393
201.7870, 2388.702
203.0140, 2154.904
204.2420, 1437.006
205.4690, 1069.014
206.6960, 642.9316
207.9230, 404.7676
209.1500, 316.5244
210.3760, 141.2139
211.6030, 41.91113
212.8290, 33.88281
214.0550, 18.91504
215.2810, 4.484375
216.5060, 107.9395
217.7320, 66.20312
218.9570, 1.333984
220.1820, 13.64258
221.4070, 138.2832
222.6320, 132.1279
223.8560, 54.90527
225.0800, 89.82422
226.3040, 6.559570
227.5280, 7.842773
228.7520, 23.56836
229.9760, 51.98047
231.1990, 127.8252
232.4220, 31.82324
233.6450, 0.2626950
234.8680, 163.3760
236.0910, 24.84375
237.3130, 166.8154
238.5350, 64.78516
239.7570, 94.69922
240.9790, 105.6484
242.2010, 190.5078
243.4220, 161.3438
244.6430, 186.1543
245.8640, 373.9404
247.0850, 610.6934
248.3060, 715.3672
249.5270, 947.8984
250.7470, 1247.232
251.9670, 1606.335
253.1870, 2054.258
254.4070, 2460.898
255.6260, 3021.340
256.8460, 3703.667
258.0650, 4481.854
259.2840, 5055.941
260.5030, 5462.309
261.7220, 5402.420
262.9400, 5515.452
264.1580, 5556.645
265.3760, 5825.433
266.5940, 6135.229
267.8120, 6217.031
269.0290, 6090.842
270.2470, 5258.663
271.4640, 4964.492
272.6810, 4508.331
273.8980, 4201.179
275.1140, 4115.037
276.3310, 4169.902
277.5470, 4423.779
278.7630, 4670.666
279.9790, 5470.565
281.1940, 5934.477
282.4100, 6800.777
283.6250, 7661.711
284.8400, 8412.268
286.0550, 9252.839
287.2700, 9315.723
288.4850, 8891.386
289.6990, 8124.018
290.9130, 7024.572
292.1270, 5869.949
293.3410, 4771.139
294.5540, 3995.152
295.7680, 3583.990
296.9810, 3242.650
298.1940, 3001.873
299.4070, 2644.658
300.6200, 2292.292
301.8320, 2088.799
303.0450, 1859.175
304.2570, 1425.402
305.4690, 1091.456
306.6800, 744.3193
307.8920, 525.9883
309.1030, 406.4561
310.3150, 135.4121
311.5260, 103.7217
312.7360, 64.71484
313.9470, 55.91992
315.1580, 41.90918
316.3680, 101.3555
317.5780, 47.95801
318.7880, 77.67285
319.9980, 37.45605
321.2070, 9.855469
322.4170, 56.00586
323.6260, 28.21875
324.8350, 29.87012
326.0430, 20.70410
327.2520, 147.8926
328.4610, 266.8242
329.6690, 205.5742
330.8770, 232.1367
332.0850, 325.5225
333.2920, 278.8027
334.5000, 174.0010
335.7070, 330.1201
336.9140, 332.1914
338.1210, 156.2295
339.3280, 329.2578
340.5350, 335.2764
341.7410, 407.2881
342.9470, 301.2930
344.1540, 445.2910
345.3590, 423.2832
346.5650, 323.2686
347.7710, 505.2490
348.9760, 468.2236
350.1810, 476.1914
351.3860, 630.1572
352.5910, 677.1191
353.7950, 783.5391
355.0000, 1024.604
356.2040, 1091.229
357.4080, 1371.740
358.6120, 1267.021
359.8150, 1253.460
361.0190, 1051.438
362.2220, 884.4297
363.4250, 786.1064
364.6280, 728.9160
365.8310, 682.6689
367.0340, 600.0029
368.2360, 638.8896
369.4380, 579.4609
370.6400, 742.9883
371.8420, 773.5898
373.0440, 845.6924
374.2450, 904.1279
375.4470, 803.0137
376.6480, 566.1084
377.8490, 449.6436
379.0490, 205.5459
380.2500, 126.0713
381.4500, 48.50488
382.6510, 124.1123
383.8510, 66.08203
385.0500, 17.22656
386.2500, 49.31152
387.4500, 21.40918
388.6490, 14.27148
389.8480, 142.1865
391.0470, 159.1270
392.2460, 413.5498
393.4440, 715.9746
394.6430, 1129.403
395.8410, 1411.836
397.0390, 1740.275
398.2370, 2041.719
399.4340, 2666.172
400.6320, 3384.633
401.8290, 4220.102
403.0260, 4910.580
404.2230, 5612.069
405.4200, 5672.560
406.6170, 5026.066
407.8130, 4181.572
409.0090, 3202.084
410.2050, 2522.607
411.4010, 2149.147
412.5970, 2040.707
413.7920, 1859.322
414.9880, 1576.950
416.1830, 1180.592
417.3780, 881.2656
418.5730, 638.9521
419.7670, 296.6504
420.9620, 213.3604
422.1560, 20.08301
423.3500, 71.81738
424.5440, 17.43555
425.7380, 66.32227
426.9310, 86.08984
428.1240, 45.13086
429.3180, 74.37988
430.5110, 74.67480
431.7030, 144.9854
432.8960, 177.6201
434.0890, 195.2305
435.2810, 257.8174
436.4730, 327.3809
437.6650, 545.9219
438.8570, 725.4414
440.0480, 657.9404
441.2390, 964.4199
442.4310, 1116.882
443.6220, 1666.326
444.8120, 1923.759
446.0030, 2432.174
447.1940, 3062.577
448.3840, 3621.968
449.5740, 4225.346
450.7640, 5041.713
451.9540, 5847.068
453.1430, 6662.415
454.3330, 7510.732
455.5220, 7717.812
456.7110, 7974.327
457.9000, 7759.506
459.0890, 7200.170
460.2770, 6674.916
461.4650, 6537.803
462.6540, 6996.082
463.8420, 7555.605
465.0290, 8891.003
466.2170, 10583.15
467.4050, 13187.54
468.5920, 15766.77
469.7790, 18665.10
470.9660, 21535.70
472.1530, 25203.73
473.3390, 29329.55
474.5250, 33508.48
475.7120, 36802.82
476.8980, 38162.00
478.0840, 37041.74
479.2690, 33592.17
480.4550, 28595.62
481.6400, 23235.38
482.8250, 19138.85
484.0100, 15734.33
485.1950, 13409.82
486.3800, 11728.28
487.5640, 9873.797
488.7480, 8136.328
489.9320, 6720.871
491.1160, 5582.426
492.3000, 4832.994
493.4840, 4239.576
494.6670, 3993.509
495.8500, 4032.776
497.0330, 4245.398
498.2160, 4760.037
499.3990, 5446.699
500.5810, 6372.394
501.7630, 7892.123
502.9460, 10141.90
504.1280, 13026.71
505.3090, 16170.64
506.4910, 20376.54
507.6720, 24235.52
508.8540, 29236.54
510.0350, 34647.64
511.2160, 40009.84
512.3960, 45588.07
513.5770, 49910.39
514.7570, 51244.77
515.9380, 49676.15
517.1180, 44206.60
518.2970, 37255.10
519.4770, 29144.62
520.6570, 22362.19
521.8360, 17165.80
523.0150, 13146.44
524.1940, 10782.13
525.3730, 8593.830
526.5510, 7066.409
527.7300, 5949.375
528.9080, 4986.250
530.0860, 4230.176
531.2640, 3663.702
532.4420, 3126.560
533.6200, 2698.096
534.7970, 2312.328
535.9740, 2082.237
537.1510, 1912.162
538.3280, 1744.105
539.5050, 1552.065
540.6810, 1382.041
541.8580, 1197.033
543.0340, 991.0420
544.2100, 906.0684
545.3860, 898.1094
546.5610, 705.5410
547.7370, 809.7441
548.9120, 739.6982
550.0870, 706.8184
551.2620, 552.0605
552.4370, 453.8301
553.6120, 446.5898
554.7860, 495.7520
555.9600, 437.3252
557.1340, 394.5547
558.3080, 409.4385
559.4820, 407.7002
560.6560, 332.9775
561.8290, 230.2910
563.0020, 341.6201
564.1750, 265.9912
565.3480, 350.3770
566.5210, 188.4111
567.6930, 371.8340
568.8660, 304.2725
570.0380, 331.5547
571.2100, 294.7012
572.3820, 242.8672
573.5530, 335.4053
574.7250, 308.9600
575.8960, 478.5635
577.0670, 366.1836
578.2380, 435.8232
579.4090, 417.4785
580.5800, 528.1484
581.7500, 551.8574
582.9210, 726.5830
584.0910, 678.3262
585.2610, 571.1133
586.4300, 555.9297
587.6000, 425.7686
588.7690, 468.6230
589.9390, 397.4951
591.1080, 86.38281
592.2770, 100.2871
593.4450, 86.20508
594.6140, 49.14160
595.7820, 60.09570
596.9500, 76.92871
598.1190, 17.95410
599.2860, 108.9639
600.4540, 21.04980
601.6220, 119.8691
602.7890, 33.78711
603.9560, 91.34570
605.1230, 49.48828
606.2900, 16.31152
607.4570, 57.09277
608.6230, 157.8691
609.7890, 24.34668
610.9560, 59.41211
612.1220, 15.84375
613.2870, 2.117188
614.4530, 14.36914
615.6180, 90.75586
616.7840, 59.10254
617.9490, 113.4639
619.1140, 129.8525
620.2790, 193.2627
621.4430, 116.7051
622.6080, 436.1650
623.7720, 465.6377
624.9360, 515.1260
626.1000, 388.6279
627.2640, 643.1436
628.4270, 682.6719
629.5910, 672.2129
630.7540, 938.7773
631.9170, 797.3555
633.0800, 1089.945
634.2430, 952.5469
635.4050, 1022.187
636.5680, 916.8389
637.7300, 1001.505
638.8920, 1209.188
640.0540, 1265.881
641.2150, 1450.599
642.3770, 1356.327
643.5380, 1480.086
644.7000, 1647.879
645.8610, 1797.658
647.0210, 1742.461
648.1820, 1937.273
649.3430, 1952.096
650.5030, 2134.237
651.6630, 2170.077
652.8230, 2297.635
653.9830, 2278.639
655.1430, 2253.500
656.3020, 2202.369
657.4620, 2069.246
658.6210, 1926.127
659.7800, 1670.017
660.9390, 1518.514
662.0970, 1391.413
663.2560, 1249.348
664.4140, 1029.303
665.5720, 846.2275
666.7300, 675.1582
667.8880, 592.0957
669.0460, 523.0488
670.2030, 373.0098
671.3600, 362.9756
672.5180, 174.9443
673.6740, 340.9180
674.8310, 122.8936
675.9880, 142.8740
677.1440, 135.8574
678.3010, 43.84375
679.4570, 85.34277
680.6130, 130.8232
681.7690, 94.81641
682.9240, 87.81348
684.0800, 80.81152
685.2350, 0.1894530
686.3900, 16.83789
687.5450, 10.76172
688.7000, 149.6055
689.8540, 8.584961
691.0090, 4.436523
692.1630, 25.46484
693.3170, 167.9395
694.4710, 2.373047
695.6250, 112.3291
696.7780, 80.62598
697.9320, 99.19824
699.0850, 45.13477
700.2380, 234.0566
701.3910, 76.07520
702.5440, 150.2773
703.6970, 68.16211
704.8490, 116.9570
706.0010, 242.3848
707.1530, 291.8809
708.3050, 362.7812
709.4570, 548.8271
710.6090, 484.1260
711.7600, 572.1895
712.9110, 585.1680
714.0620, 550.4092
715.2130, 559.2295
716.3640, 356.1934
717.5150, 478.0039
718.6650, 421.8096
719.8150, 284.7734
720.9650, 313.9160
722.1150, 216.4287
723.2650, 273.0234
724.4150, 444.4258
725.5640, 560.4609
726.7130, 408.5947
727.8630, 416.4863
729.0110, 393.3340
730.1600, 411.7178
731.3090, 611.9414
732.4570, 597.7539
733.6060, 602.4727
734.7540, 825.3252
735.9020, 903.4512
737.0490, 989.6855
738.1970, 1241.329
739.3440, 1554.431
740.4920, 1838.328
741.6390, 1986.519
742.7860, 2318.232
743.9320, 2635.246
745.0790, 3061.892
746.2250, 3500.571
747.3720, 3996.487
748.5180, 4001.641
749.6640, 4397.518
750.8100, 4536.393
751.9550, 4109.084
753.1010, 3831.639
754.2460, 3259.815
755.3910, 2572.348
756.5360, 2335.413
757.6810, 1715.190
758.8250, 1576.012
759.9700, 1368.494
761.1140, 1089.054
762.2580, 808.6719
763.4020, 747.3418
764.5460, 630.7734
765.6900, 651.1895
766.8330, 587.6143
767.9760, 637.2520
769.1200, 521.6279
770.2620, 528.9902
771.4050, 456.3398
772.5480, 452.4805
773.6900, 445.7998
774.8330, 199.4434
775.9750, 281.5039
777.1170, 181.7793
778.2590, 100.5605
779.4000, 157.8115
780.5420, 165.1924
781.6830, 77.40430
782.8240, 110.6006
783.9650, 256.8105
785.1060, 187.9736
786.2470, 108.1211
787.3870, 27.74707
788.5280, 142.3281
789.6680, 15.38770
790.8080, 7.414063
791.9480, 133.4033
793.0870, 110.3740
794.2270, 156.3291
795.3660, 197.2666
796.5060, 238.1875
797.6450, 44.08984
798.7830, 236.9688
799.9220, 89.83008
801.0610, 88.67480
802.1990, 122.5010
803.3370, 144.3086
804.4750, 99.09863
805.6130, 153.8721
806.7510, 133.6270
807.8890, 149.3633
809.0260, 282.0811
810.1630, 184.7812
811.3000, 219.4639
812.4370, 138.1289
813.5740, 142.7744
814.7110, 119.4023
815.8470, 104.0107
816.9830, 167.6016
818.1190, 191.1738
819.2550, 265.7266
820.3910, 124.2617
821.5270, 120.7783
822.6620, 4.904297
823.7970, 182.2441
824.9330, 49.83203
826.0670, 32.24707
827.2020, 189.5352
828.3370, 108.2930
829.4710, 44.05957
830.6060, 12.41699
831.7400, 70.35352
832.8740, 53.63086
834.0080, 101.2500
835.1410, 60.48926
836.2750, 50.29102
837.4080, 47.86719
838.5410, 70.99414
839.6740, 72.07031
840.8070, 5.117188
841.9400, 139.1309
843.0730, 26.12891
844.2050, 66.10156
845.3370, 11.05566
846.4690, 32.97949
847.6010, 86.11816
848.7330, 50.70410
849.8640, 105.4932
850.9960, 99.21875
852.1270, 10.91309
853.2580, 86.57812
854.3890, 226.2266
855.5200, 55.14258
856.6500, 35.42578
857.7810, 19.97363
858.9110, 66.50293
860.0410, 32.04883
861.1710, 5.357422
862.3010, 31.73340
863.4310, 48.34863
864.5600, 56.42773
865.6900, 64.74707
866.8190, 62.04980
867.9480, 57.50391
869.0770, 78.60254
870.2050, 42.85449
871.3340, 47.08789
872.4620, 112.3184
873.5900, 45.46680
874.7180, 18.28418
875.8460, 85.86035
876.9740, 20.98926
878.1010, 13.87402
879.2290, 79.20801
880.3560, 17.28125
881.4830, 63.33789
882.6100, 32.61328
883.7370, 11.42285
884.8630, 37.56152
885.9900, 21.41992
887.1160, 66.61816
888.2420, 179.2842
889.3680, 5.171875
890.4940, 113.0371
891.6200, 27.11035
892.7450, 7.297852
893.8700, 56.51172
894.9960, 65.22168
896.1210, 35.94141
897.2460, 21.64551
898.3700, 16.33398
899.4950, 107.0068
900.6190, 80.66504
901.7430, 89.23828
902.8670, 28.05957
903.9910, 80.53711
905.1150, 60.12012
906.2390, 92.68945
907.3620, 86.75488
908.4850, 49.73730
909.6080, 1.216797
910.7310, 8.320313
911.8540, 49.12109
912.9770, 37.45117
914.0990, 36.94238
915.2210, 64.67676
916.3440, 113.6553
917.4660, 89.94824
918.5870, 48.74414
919.7090, 57.52441
920.8310, 123.7812
921.9520, 74.02539
923.0730, 51.94727
924.1940, 76.17188
925.3150, 271.6729
926.4360, 142.7256
927.5560, 195.9189
928.6770, 57.10059
929.7970, 135.2725
930.9170, 220.4336
932.0370, 218.5879
933.1570, 258.0566
934.2760, 86.26074
935.3960, 237.3564
936.5150, 123.4365
937.6340, 39.54395
938.7530, 193.6426
939.8720, 109.7324
940.9910, 173.8135
942.1090, 73.88672
943.2280, 191.9561
944.3460, 91.01562
945.4640, 117.0684
946.5820, 209.1123
947.6990, 200.1504
948.8170, 238.1807
949.9340, 269.2041
951.0520, 260.2197
952.1690, 208.2285
953.2860, 195.2314
954.4030, 227.2256
955.5190, 129.2148
956.6360, 233.1982
957.7520, 325.8223
958.8680, 102.8008
959.9840, 136.2998
961.1000, 252.2725
962.2160, 214.2412
963.3310, 102.2070
964.4470, 192.6074
965.5620, 151.1748
966.6770, 160.0928
967.7920, 129.9219
968.9060, 121.7158
970.0210, 211.8525
971.1360, 133.7725
972.2500, 208.5908
973.3640, 291.2256
974.4780, 223.1709
975.5920, 298.5908
976.7050, 190.5977
977.8190, 262.9199
978.9320, 410.8340
980.0450, 501.6045
981.1580, 496.1289
982.2710, 307.8955
983.3840, 418.7402
984.4970, 508.3213
985.6090, 678.3164
986.7210, 902.1641
987.8330, 952.1621
988.9450, 1005.161
990.0570, 1401.043
991.1690, 1482.739
992.2800, 1766.083
993.3920, 1879.340
994.5030, 1966.783
995.6140, 1836.607
996.7250, 1709.327
997.8350, 1626.312
998.9460, 1453.338
1000.056, 1260.404
1001.167, 1205.469
1002.277, 1006.551
1003.387, 892.7510
1004.496, 795.8193
1005.606, 781.9121
1006.715, 664.1299
1007.825, 575.1943
1008.934, 597.0156
1010.043, 544.2676
1011.152, 511.9043
1012.260, 415.1807
1013.369, 445.4463
1014.477, 427.2568
1015.586, 381.5283
1016.694, 471.7031
1017.802, 486.4561
1018.909, 415.3867
1020.017, 504.4082
1021.124, 579.5859
1022.232, 679.9180
1023.339, 760.6240
1024.446, 1006.972
1025.553, 911.7822
1026.659, 1015.877
1027.766, 1173.922
1028.872, 1150.301
1029.979, 1015.598
1031.085, 1122.832
1032.191, 1151.009
1033.296, 1280.420
1034.402, 1187.840
1035.507, 1049.269
1036.613, 1147.439
1037.718, 1032.885
1038.823, 1139.340
1039.928, 1135.804
1041.032, 1190.471
1042.137, 1260.954
1043.241, 1280.130
1044.346, 1405.883
1045.450, 1570.418
1046.554, 1533.440
1047.657, 1875.988
1048.761, 1932.401
1049.864, 2201.979
1050.968, 2316.566
1052.071, 2329.137
1053.174, 2245.748
1054.277, 2093.371
1055.379, 2001.032
1056.482, 1757.725
1057.584, 1394.442
1058.687, 1298.181
1059.789, 1023.941
1060.891, 734.7129
1061.992, 696.4180
1063.094, 565.3740
1064.196, 510.1025
1065.297, 507.9238
1066.398, 335.7607
1067.499, 270.6104
1068.600, 291.4727
1069.701, 313.3496
1070.801, 289.2373
1071.902, 198.1387
1073.002, 380.0537
1074.102, 366.9824
1075.202, 386.5283
1076.302, 299.4824
1077.402, 269.4502
1078.501, 352.4307
1079.600, 255.4248
1080.700, 428.4326
1081.799, 277.4541
1082.898, 427.4893
1083.996, 470.5381
1085.095, 485.6006
1086.193, 541.6768
1087.292, 541.7676
1088.390, 574.8721
1089.488, 610.9902
1090.586, 659.1328
1091.683, 644.2891
1092.781, 637.4629
1093.878, 727.6553
1094.975, 760.8623
1096.073, 818.0234
1097.169, 821.7451
1098.266, 993.0039
1099.363, 1133.064
1100.459, 1325.353
1101.556, 1305.654
1102.652, 1363.491
1103.748, 1405.844
1104.844, 1511.476
1105.940, 1695.887
1107.035, 1815.312
1108.131, 2101.770
1109.226, 2235.241
1110.321, 2613.730
1111.416, 3077.234
1112.511, 3666.758
1113.605, 4051.311
1114.700, 4938.908
1115.794, 5939.521
1116.889, 6788.184
1117.983, 8223.861
1119.077, 9366.834
1120.170, 10601.55
1121.264, 11819.55
1122.357, 12689.31
1123.451, 13111.73
1124.544, 13091.53
1125.637, 12638.37
1126.730, 11825.49
1127.823, 10602.38
1128.915, 9530.948
1130.008, 8635.860
1131.100, 7953.791
1132.192, 7411.484
1133.284, 7153.740
1134.376, 6960.860
1135.467, 7052.316
1136.559, 6711.312
1137.650, 6786.318
1138.742, 6716.337
1139.833, 6561.203
1140.924, 6091.275
1142.014, 5543.358
1143.105, 4968.466
1144.195, 4279.594
1145.286, 3735.733
1146.376, 3154.426
1147.466, 2758.151
1148.556, 2341.781
1149.646, 2146.986
1150.735, 1908.217
1151.825, 1779.459
1152.914, 1585.736
1154.003, 1221.326
1155.092, 1178.628
1156.181, 1074.178
1157.270, 927.5137
1158.358, 927.8662
1159.447, 812.7383
1160.535, 622.6416
1161.623, 720.0469
1162.711, 606.4639
1163.799, 660.8916
1164.886, 576.3301
1165.974, 527.7783
1167.061, 516.7285
1168.148, 584.7188
1169.235, 461.2090
1170.322, 419.7100
1171.409, 421.2207
1172.496, 297.7676
1173.582, 331.0693
1174.669, 294.6387
1175.755, 324.2207
1176.841, 508.8125
1177.927, 281.4268
1179.012, 218.0498
1180.098, 417.6992
1181.183, 327.4492
1182.269, 204.1182
1183.354, 226.8105
1184.439, 296.5127
1185.524, 283.5195
1186.608, 291.2393
1187.693, 73.03906
1188.777, 100.7988
1189.862, 236.5449
1190.946, 48.29883
1192.030, 201.0615
1193.113, 216.8320
1194.197, 51.61035
1195.281, 62.41504
1196.364, 95.22656
1197.447, 132.0469
1198.530, 271.8750
1199.613, 266.7109
1200.696, 179.5537
1201.779, 228.4033
1202.861, 54.26172
1203.944, 46.12598
1205.026, 29.00391
1206.108, 97.86914
1207.190, 60.74805
1208.271, 205.6348
1209.353, 186.6768
1210.435, 244.4268
1211.516, 142.9727
1212.597, 214.2451
1213.678, 122.1631
1214.759, 149.0898
1215.840, 82.01953
1216.920, 33.95703
1218.001, 79.44043
1219.081, 39.84766
1220.161, 116.8027
1221.241, 74.52246
1222.321, 176.7285
1223.401, 27.70020
1224.480, 40.67676
1225.560, 39.65918
1226.639, 17.35547
1227.718, 59.63184
1228.797, 26.37598
1229.876, 117.6113
1230.955, 60.60449
1232.033, 18.39746
1233.112, 89.60059
1234.190, 10.26465
1235.268, 91.73633
1236.346, 31.74316
1237.424, 174.1104
1238.501, 23.12402
1239.579, 195.1416
1240.656, 197.1621
1241.733, 48.18652
1242.811, 41.92773
1243.888, 68.95801
1244.964, 43.99219
1246.041, 64.02832
1247.117, 60.06738
1248.194, 5.890625
1249.270, 57.15039
1250.346, 170.8066
1251.422, 34.14941
1252.498, 79.89160
1253.573, 261.0273
1254.649, 59.94922
1255.724, 56.12793
1256.800, 71.76855
1257.875, 109.3320
1258.950, 41.50977
1260.024, 44.54883
1261.099, 10.60645
1262.173, 116.7695
1263.248, 97.98633
1264.322, 22.25586
1265.396, 118.4619
1266.470, 118.1797
1267.544, 66.89844
1268.617, 74.38281
1269.691, 153.2930
1270.764, 19.97070
1271.837, 204.6484
1272.910, 22.32520
1273.983, 124.0020
1275.056, 67.32031
1276.129, 79.31543
1277.201, 159.9521
1278.273, 101.5869
1279.346, 149.2227
1280.418, 175.8584
1281.489, 20.49414
1282.561, 5.127930
1283.633, 52.75781
1284.704, 7.385742
1285.776, 79.00977
1286.847, 82.63281
1287.918, 359.2549
1288.989, 248.6963
1290.059, 315.4941
1291.130, 161.1123
1292.200, 182.7090
1293.271, 135.8135
1294.341, 154.9561
1295.411, 72.56543
1296.481, 22.17383
1297.551, 33.78125
1298.620, 22.38574
1299.690, 71.98926
1300.759, 120.5898
1301.828, 60.81152
1302.897, 112.7441
1303.966, 236.2979
1305.035, 86.85059
1306.103, 212.4043
1307.172, 209.9551
1308.240, 131.5049
1309.308, 22.05176
1310.376, 289.5957
1311.444, 277.1348
1312.512, 219.6719
1313.580, 81.79395
1314.647, 64.68262
1315.714, 29.85742
1316.781, 28.58496
1317.848, 286.0254
1318.915, 153.5947
1319.982, 261.0283
1321.049, 79.45801
1322.115, 69.88574
1323.181, 306.6445
1324.248, 187.0635
1325.314, 130.4785
1326.380, 193.8906
1327.445, 200.2988
1328.511, 132.7031
1329.576, 223.1035
1330.642, 102.4990
1331.707, 124.8896
1332.772, 174.2764
1333.837, 107.0537
1334.902, 138.4307
1335.966, 115.5146
1337.031, 94.17285
1338.095, 119.5361
1339.159, 63.89355
1340.223, 156.2334
1341.287, 209.5674
1342.351, 255.8809
1343.415, 170.1885
1344.478, 124.4922
1345.541, 321.7900
1346.605, 136.0811
1347.668, 204.3672
1348.731, 251.6494
1349.793, 151.9268
1350.856, 186.1914
1351.918, 222.4492
1352.981, 89.70312
1354.043, 129.9531
1355.105, 206.7744
1356.167, 185.0166
1357.229, 205.4658
1358.290, 326.7012
1359.352, 213.9307
1360.413, 77.63770
1361.475, 37.85938
1362.536, 192.8125
1363.597, 108.0273
1364.657, 8.763672
1365.718, 176.4316
1366.779, 130.6230
1367.839, 215.8096
1368.899, 104.9932
1369.959, 13.82812
1371.019, 62.33496
1372.079, 237.4932
1373.139, 380.6494
1374.198, 197.8008
1375.258, 252.9482
1376.317, 257.8174
1377.376, 86.95703
1378.435, 171.8184
1379.494, 167.9512
1380.553, 141.4346
1381.611, 272.5605
1382.670, 49.64258
1383.728, 66.98535
1384.786, 259.0615
1385.844, 44.46094
1386.902, 0.4697270
1387.960, 53.59180
1389.017, 87.90039
1390.075, 106.8477
1391.132, 112.7500
1392.189, 164.3301
1393.246, 79.38086
1394.303, 243.4297
1395.360, 113.4785
1396.417, 243.7090
1397.473, 130.7559
1398.529, 243.8027
1399.585, 237.8486
1400.642, 26.89355
1401.697, 49.93945
1402.753, 183.4463
1403.809, 40.49121
1404.864, 396.5371
1405.920, 137.5840
1406.975, 192.6299
1408.030, 79.67676
1409.085, 137.7256
1410.140, 264.4707
1411.194, 255.5205
1412.249, 233.2363
1413.303, 243.8896
1414.358, 119.4160
1415.412, 198.4180
1416.466, 202.4219
1417.520, 244.4258
1418.573, 115.4326
1419.627, 230.4414
1420.680, 101.4521
1421.733, 193.4648
1422.787, 236.4795
1423.840, 180.4971
1424.892, 209.5176
1425.945, 217.5400
1426.998, 164.6191
1428.050, 126.6895
1429.103, 126.9844
1430.155, 55.03320
1431.207, 149.0918
1432.259, 165.0859
1433.310, 242.1719
1434.362, 198.2676
1435.414, 236.3896
1436.465, 223.7119
1437.516, 230.2656
1438.567, 207.1963
1439.618, 150.1045
1440.669, 176.9102
1441.720, 186.8535
1442.770, 70.90527
1443.820, 194.9453
1444.871, 0.9570310
1445.921, 183.9385
1446.971, 269.9082
1448.021, 195.8682
1449.070, 66.18555
1450.120, 106.7539
1451.169, 184.6826
1452.219, 71.59961
1453.268, 179.5059
1454.317, 159.3398
1455.366, 225.2812
1456.414, 136.1523
1457.463, 201.0117
1458.511, 102.8594
1459.560, 244.6953
1460.608, 362.5195
1461.656, 109.3408
1462.704, 185.1543
1463.752, 370.7959
1464.799, 201.5957
1465.847, 234.4004
1466.894, 140.1406
1467.941, 149.2510
1468.988, 276.0371
1470.035, 122.6992
1471.082, 244.3477
1472.129, 54.04102
1473.175, 101.8115
1474.222, 172.5977
1475.268, 288.4072
1476.314, 127.5957
1477.360, 158.4512
1478.406, 151.4092
1479.452, 89.41992
1480.498, 98.42578
1481.543, 189.4883
1482.588, 224.5479
1483.633, 294.6035
1484.679, 265.7178
1485.723, 160.8281
1486.768, 59.93555
1487.813, 183.0430
1488.857, 40.15332
1489.902, 24.26367
1490.946, 116.3721
1491.990, 212.4775
1493.034, 309.5811
1494.078, 188.6836
1495.122, 245.7822
1496.165, 109.8779
1497.209, 32.00684
1498.252, 157.1719
1499.295, 195.3184
1500.338, 186.4600
1501.381, 278.6025
1502.424, 103.7441
1503.466, 151.0234
1504.509, 293.3340
1505.551, 238.3711
1506.593, 101.6875
1507.635, 106.5039
1508.677, 13.34180
1509.719, 123.8154
1510.761, 83.97754
1511.802, 12.14355
1512.844, 156.3174
1513.885, 43.49902
1514.926, 39.30664
1515.967, 254.9697
1517.008, 60.34375
1518.049, 127.7432
1519.089, 50.16699
1520.130, 74.61328
1521.170, 135.1260
1522.210, 133.6582
1523.250, 213.2080
1524.290, 241.7754
1525.330, 83.35645
1526.370, 116.9512
1527.409, 167.5664
1528.448, 259.1992
1529.488, 111.8535
1530.527, 91.52930
1531.566, 232.2275
1532.605, 211.9502
1533.643, 44.69922
1534.682, 153.4688
1535.720, 377.2773
1536.759, 195.1055
1537.797, 47.28125
1538.835, 195.5234
1539.873, 50.69629
1540.910, 238.5889
1541.948, 143.5098
1542.986, 289.4531
1544.023, 172.4150
1545.060, 149.3936
1546.097, 258.3887
1547.134, 35.39551
1548.171, 269.4141
1549.208, 179.4336
1550.244, 230.4512
1551.281, 0.6298830
1552.317, 82.24316
1553.353, 112.4658
1554.389, 331.8887
1555.425, 326.5732
1556.461, 8.390625
1557.497, 130.1475
1558.532, 78.33496
1559.567, 211.7939
1560.603, 97.42578
1561.638, 115.0322
1562.673, 17.44238
1563.708, 0.0000000E+00
##END=



