##NAMES=Microcline
##RRUFFID=R050150
##IDEAL CHEMISTRY=KAlSi_3_O_8_
##LOCALITY=Crystal Peak area, Park/Teller Counties, Colorado, USA
##OWNER=RRUFF
##SOURCE=Dave Bunk Minerals
##DESCRIPTION=Pale blue prismatic crystals
##STATUS=The identification of this mineral has been confirmed by X-ray diffraction and chemical analysis
##URL=rruff.info/R050150
##MEASURED CHEMISTRY=(K_0.95_Na_0.05_)_Î£=1_Al_1.00_Si_3.00_O_8_
##PIN_ID=L00915
##ORIENTATION=Laser parallel to (1 1 0). Fiducial mark perpendicular to laser is parallel to c [0 0 1]
137.6830, 0.0000000E+00
138.9210, 199.3086
140.1580, 261.0918
141.3950, 505.8438
142.6330, 383.3242
143.8690, 591.8564
145.1060, 712.3799
146.3430, 874.0693
147.5790, 1347.388
148.8150, 1817.485
150.0510, 2240.888
151.2870, 2220.528
152.5220, 2337.850
153.7580, 2429.680
154.9930, 2673.294
156.2280, 2880.115
157.4620, 2823.084
158.6970, 2776.743
159.9310, 2370.667
161.1660, 1678.760
162.4000, 1270.622
163.6330, 871.1748
164.8670, 698.7051
166.1000, 431.9951
167.3340, 212.3398
168.5670, 252.9746
169.8000, 69.10645
171.0320, 104.9062
172.2650, 259.5195
173.4970, 118.4238
174.7290, 316.6650
175.9610, 711.8809
177.1930, 1053.137
178.4240, 1185.432
179.6550, 1185.170
180.8870, 1171.241
182.1170, 1283.680
183.3480, 832.8877
184.5790, 744.0889
185.8090, 549.3086
187.0390, 462.8564
188.2690, 510.1514
189.4990, 370.8965
190.7290, 441.6279
191.9580, 337.0186
193.1870, 464.5234
194.4160, 582.1309
195.6450, 554.8291
196.8740, 880.5977
198.1020, 986.4229
199.3310, 1317.293
200.5590, 1212.194
201.7870, 892.1787
203.0140, 788.2363
204.2420, 801.3164
205.4690, 296.4180
206.6960, 220.5410
207.9230, 179.6875
209.1500, 22.02539
210.3760, 232.5283
211.6030, 25.72461
212.8290, 158.0879
214.0550, 8.936523
215.2810, 81.84180
216.5060, 3.376953
217.7320, 46.71680
218.9570, 30.82617
220.1820, 69.25977
221.4070, 80.59277
222.6320, 121.2529
223.8560, 139.9893
225.0800, 138.0703
226.3040, 37.95410
227.5280, 4.073242
228.7520, 92.45996
229.9760, 38.06152
231.1990, 12.00977
232.4220, 132.9053
233.6450, 45.21484
234.8680, 86.66016
236.0910, 83.53613
237.3130, 140.4238
238.5350, 84.32324
239.7570, 30.23438
240.9790, 18.18652
242.2010, 120.0781
243.4220, 45.13477
244.6430, 125.1865
245.8640, 109.2285
247.0850, 235.2568
248.3060, 284.2490
249.5270, 337.1963
250.7470, 481.0293
251.9670, 545.8242
253.1870, 805.4863
254.4070, 1027.951
255.6260, 1210.228
256.8460, 1683.428
258.0650, 1866.577
259.2840, 2374.615
260.5030, 2541.554
261.7220, 2528.322
262.9400, 3060.017
264.1580, 3533.715
265.3760, 4226.520
266.5940, 4543.209
267.8120, 4107.919
269.0290, 3380.650
270.2470, 2899.401
271.4640, 2572.171
272.6810, 2122.961
273.8980, 2012.771
275.1140, 1966.600
276.3310, 2057.448
277.5470, 2228.317
278.7630, 2681.049
279.9790, 3546.754
281.1940, 4555.719
282.4100, 5817.846
283.6250, 6765.643
284.8400, 8099.654
286.0550, 8516.833
287.2700, 8088.662
288.4850, 7047.736
289.6990, 5775.264
290.9130, 4612.990
292.1270, 3491.846
293.3410, 2514.790
294.5540, 1876.790
295.7680, 1616.818
296.9810, 1430.847
298.1940, 1230.857
299.4070, 1046.106
300.6200, 788.7773
301.8320, 689.6777
303.0450, 535.2148
304.2570, 432.3145
305.4690, 372.0273
306.6800, 335.6465
307.8920, 369.1660
309.1030, 330.5781
310.3150, 159.8770
311.5260, 159.0918
312.7360, 379.2109
313.9470, 58.24609
315.1580, 224.1973
316.3680, 132.0801
317.5780, 40.89453
318.7880, 91.64258
319.9980, 25.04102
321.2070, 113.8516
322.4170, 73.29883
323.6260, 97.55664
324.8350, 273.7070
326.0430, 436.6230
327.2520, 385.2207
328.4610, 560.5918
329.6690, 666.8203
330.8770, 767.9980
332.0850, 811.8652
333.2920, 870.8828
334.5000, 784.5137
335.7070, 706.0664
336.9140, 579.6270
338.1210, 544.2363
339.3280, 305.8535
340.5350, 290.4805
341.7410, 205.1191
342.9470, 185.7656
344.1540, 86.42383
345.3590, 158.0879
346.5650, 189.7617
347.7710, 193.4434
348.9760, 171.1348
350.1810, 394.8340
351.3860, 193.5430
352.5910, 603.2578
353.7950, 498.9805
355.0000, 573.6387
356.2040, 686.3750
357.4080, 589.3516
358.6120, 486.0977
359.8150, 680.2129
361.0190, 654.7852
362.2220, 681.2988
363.4250, 456.2930
364.6280, 745.1543
365.8310, 906.6289
367.0340, 973.4102
368.2360, 1398.656
369.4380, 1900.744
370.6400, 2797.967
371.8420, 3579.469
373.0440, 3958.623
374.2450, 3805.688
375.4470, 3207.098
376.6480, 2459.158
377.8490, 1616.643
379.0490, 1406.189
380.2500, 845.5898
381.4500, 485.1934
382.6510, 322.2324
383.8510, 422.8008
385.0500, 290.7734
386.2500, 224.5117
387.4500, 154.2773
388.6490, 35.87891
389.8480, 11.64844
391.0470, 77.57617
392.2460, 118.1797
393.4440, 37.94141
394.6430, 151.7070
395.8410, 129.4766
397.0390, 241.2520
398.2370, 222.0312
399.4340, 660.8184
400.6320, 725.6094
401.8290, 1142.410
403.0260, 1216.219
404.2230, 1176.037
405.4200, 1073.863
406.6170, 771.7012
407.8130, 593.5762
409.0090, 464.4629
410.2050, 454.3379
411.4010, 330.2207
412.5970, 439.1641
413.7920, 246.1191
414.9880, 322.0879
416.1830, 131.9336
417.3780, 77.02148
418.5730, 54.98633
419.7670, 56.03711
420.9620, 25.95898
422.1560, 1.005859
423.3500, 179.9961
424.5440, 54.03906
425.7380, 77.08398
426.9310, 43.19727
428.1240, 120.6621
429.3180, 107.5254
430.5110, 38.39062
431.7030, 58.74609
432.8960, 78.08594
434.0890, 126.9102
435.2810, 193.7266
436.4730, 191.5371
437.6650, 220.3398
438.8570, 314.1328
440.0480, 410.9180
441.2390, 607.6934
442.4310, 751.4609
443.6220, 1000.791
444.8120, 1200.973
446.0030, 1585.717
447.1940, 2007.455
448.3840, 2410.188
449.5740, 3430.912
450.7640, 4399.629
451.9540, 5782.344
453.1430, 6832.047
454.3330, 7902.205
455.5220, 7737.902
456.7110, 7048.648
457.9000, 5940.652
459.0890, 5120.340
460.2770, 4379.027
461.4650, 4020.330
462.6540, 3772.145
463.8420, 3832.219
465.0290, 4117.881
466.2170, 4613.336
467.4050, 5603.920
468.5920, 6849.598
469.7790, 8393.277
470.9660, 10473.96
472.1530, 13793.65
473.3390, 17759.34
474.5250, 21321.04
475.7120, 23817.89
476.8980, 23727.03
478.0840, 21178.75
479.2690, 17873.47
480.4550, 14499.47
481.6400, 11623.21
482.8250, 10038.97
484.0100, 8539.734
485.1950, 7351.504
486.3800, 6094.732
487.5640, 5195.951
488.7480, 4143.744
489.9320, 3393.547
491.1160, 2905.355
492.3000, 2445.176
493.4840, 2095.004
494.6670, 2111.836
495.8500, 2040.680
497.0330, 2142.531
498.2160, 2322.395
499.3990, 2722.270
500.5810, 3216.164
501.7630, 3766.070
502.9460, 4575.996
504.1280, 5727.961
505.3090, 7214.961
506.4910, 9070.971
507.6720, 11699.00
508.8540, 15339.08
510.0350, 20087.19
511.2160, 25921.36
512.3960, 32099.58
513.5770, 35353.86
514.7570, 35020.16
515.9380, 31766.50
517.1180, 26287.88
518.2970, 20941.29
519.4770, 16317.73
520.6570, 12538.21
521.8360, 9617.707
523.0150, 7471.242
524.1940, 5950.816
525.3730, 5075.447
526.5510, 4235.121
527.7300, 3421.818
528.9080, 2836.539
530.0860, 2474.268
531.2640, 2261.004
532.4420, 1942.750
533.6200, 1761.057
534.7970, 1630.816
535.9740, 1216.586
537.1510, 1221.363
538.3280, 1178.148
539.5050, 892.9414
540.6810, 739.7422
541.8580, 876.5488
543.0340, 753.3652
544.2100, 635.5039
545.3860, 648.3340
546.5610, 612.1719
547.7370, 412.0156
548.9120, 614.0527
550.0870, 692.9121
551.2620, 473.7793
552.4370, 455.6504
553.6120, 203.2656
554.7860, 104.1504
555.9600, 105.9453
557.1340, 127.9727
558.3080, 199.3105
559.4820, 232.4336
560.6560, 443.3672
561.8290, 226.5527
563.0020, 137.8262
564.1750, 153.6445
565.3480, 269.1328
566.5210, 208.4785
567.6930, 293.4023
568.8660, 275.4043
570.0380, 287.2461
571.2100, 218.4004
572.3820, 283.4082
573.5530, 287.5977
574.7250, 224.6191
575.8960, 307.6504
577.0670, 298.6855
578.2380, 350.7285
579.4090, 358.7793
580.5800, 482.8418
581.7500, 496.9629
582.9210, 683.0898
584.0910, 804.2578
585.2610, 607.3984
586.4300, 553.6445
587.6000, 525.8438
588.7690, 504.1699
589.9390, 197.4531
591.1080, 294.7559
592.2770, 47.01758
593.4450, 86.24805
594.6140, 96.51562
595.7820, 177.6895
596.9500, 1.101563
598.1190, 93.11133
599.2860, 16.33594
600.4540, 46.56836
601.6220, 29.79492
602.7890, 9.945313
603.9560, 19.66016
605.1230, 3.632813
606.2900, 9.060547
607.4570, 6.808594
608.6230, 14.38672
609.7890, 35.95703
610.9560, 45.35742
612.1220, 67.89648
613.2870, 113.2734
614.4530, 117.7734
615.6180, 5.720703
616.7840, 15.21484
617.9490, 216.2910
619.1140, 95.80273
620.2790, 151.6816
621.4430, 43.76758
622.6080, 258.2207
623.7720, 21.68164
624.9360, 348.1445
626.1000, 319.6191
627.2640, 192.0996
628.4270, 392.5898
629.5910, 251.0820
630.7540, 151.5801
631.9170, 277.0840
633.0800, 131.5879
634.2430, 281.1016
635.4050, 287.6133
636.5680, 488.1309
637.7300, 602.6543
638.8920, 416.1973
640.0540, 601.7422
641.2150, 619.2891
642.3770, 572.8438
643.5380, 860.3984
644.7000, 902.8184
645.8610, 948.3789
647.0210, 1191.945
648.1820, 1418.512
649.3430, 1532.080
650.5030, 1647.992
651.6630, 1556.602
652.8230, 1658.189
653.9830, 1732.385
655.1430, 1540.266
656.3020, 1556.023
657.4620, 1310.535
658.6210, 1391.115
659.7800, 1079.730
660.9390, 787.5508
662.0970, 795.1230
663.2560, 745.6934
664.4140, 579.9961
665.5720, 574.8281
666.7300, 423.3887
667.8880, 395.9473
669.0460, 380.5020
670.2030, 335.0527
671.3600, 288.5977
672.5180, 258.0215
673.6740, 219.6973
674.8310, 197.2500
675.9880, 144.7988
677.1440, 150.3418
678.3010, 74.88086
679.4570, 252.4141
680.6130, 186.9395
681.7690, 171.4609
682.9240, 1.025391
684.0800, 73.48047
685.2350, 143.9785
686.3900, 150.4707
687.5450, 112.0449
688.7000, 80.37109
689.8540, 86.83984
691.0090, 152.3066
692.1630, 183.1289
693.3170, 229.2227
694.4710, 11.40625
695.6250, 170.9219
696.7780, 177.7363
697.9320, 6.794922
699.0850, 144.6562
700.2380, 89.79297
701.3910, 94.20898
702.5440, 187.2832
703.6970, 43.90430
704.8490, 221.4980
706.0010, 254.2070
707.1530, 65.75977
708.3050, 383.8770
709.4570, 355.8438
710.6090, 490.0820
711.7600, 305.6797
712.9110, 493.9141
714.0620, 405.1387
715.2130, 172.3535
716.3640, 258.8008
717.5150, 238.9434
718.6650, 221.8398
719.8150, 242.3125
720.9650, 121.4727
722.1150, 79.66602
723.2650, 140.0742
724.4150, 80.23633
725.5640, 183.8164
726.7130, 71.91797
727.8630, 85.00781
729.0110, 83.33594
730.1600, 95.63281
731.3090, 374.8906
732.4570, 239.9258
733.6060, 350.4961
734.7540, 532.5039
735.9020, 425.5898
737.0490, 748.9160
738.1970, 583.1758
739.3440, 651.1895
740.4920, 686.1309
741.6390, 1057.195
742.7860, 1062.562
743.9320, 1434.887
745.0790, 1546.547
746.2250, 1882.748
747.3720, 2312.336
748.5180, 2509.900
749.6640, 2654.906
750.8100, 2652.572
751.9550, 2144.664
753.1010, 2070.432
754.2460, 1482.037
755.3910, 1260.348
756.5360, 1231.064
757.6810, 810.7656
758.8250, 812.1914
759.9700, 740.9199
761.1140, 619.2227
762.2580, 461.3555
763.4020, 483.1270
764.5460, 764.5527
765.6900, 477.6660
766.8330, 877.5254
767.9760, 1069.279
769.1200, 665.0547
770.2620, 608.7812
771.4050, 611.7461
772.5480, 472.2070
773.6900, 310.0840
774.8330, 308.9922
775.9750, 275.1328
777.1170, 424.6172
778.2590, 281.9844
779.4000, 198.0977
780.5420, 248.5840
781.6830, 16.60938
782.8240, 222.6426
783.9650, 248.8242
785.1060, 202.0371
786.2470, 449.2246
787.3870, 16.76758
788.5280, 106.8965
789.6680, 306.0039
790.8080, 71.29297
791.9480, 4.650391
793.0870, 142.5293
794.2270, 14.48438
795.3660, 421.4434
796.5060, 176.3496
797.6450, 127.2344
798.7830, 344.1074
799.9220, 202.9590
801.0610, 65.42188
802.1990, 124.2246
803.3370, 304.0020
804.4750, 311.7598
805.6130, 548.8691
806.7510, 513.6367
807.8890, 664.4707
809.0260, 626.1387
810.1630, 835.7871
811.3000, 850.4121
812.4370, 1155.014
813.5740, 927.7773
814.7110, 1084.338
815.8470, 970.8750
816.9830, 670.3906
818.1190, 697.8848
819.2550, 573.3555
820.3910, 380.4863
821.5270, 304.9141
822.6620, 280.3242
823.7970, 222.7070
824.9330, 203.3008
826.0670, 251.3340
827.2020, 240.6504
828.3370, 172.9453
829.4710, 243.0117
830.6060, 17.25977
831.7400, 271.4590
832.8740, 45.64453
834.0080, 158.7988
835.1410, 82.73242
836.2750, 134.8379
837.4080, 110.8887
838.5410, 111.6172
839.6740, 85.65039
840.8070, 94.21094
841.9400, 79.57617
843.0730, 107.5332
844.2050, 47.46680
845.3370, 55.95703
846.4690, 210.2422
847.6010, 91.09375
848.7330, 243.9199
849.8640, 261.7246
850.9960, 211.5078
852.1270, 119.2695
853.2580, 42.00977
854.3890, 55.71680
855.5200, 155.6055
856.6500, 278.9453
857.7810, 166.4766
858.9110, 111.9473
860.0410, 76.56836
861.1710, 11.23828
862.3010, 196.1094
863.4310, 369.3145
864.5600, 113.5469
865.6900, 77.74414
866.8190, 391.9629
867.9480, 217.1992
869.0770, 185.4121
870.2050, 203.6250
871.3340, 137.8164
872.4620, 88.98633
873.5900, 101.1328
874.7180, 156.2539
875.8460, 214.3555
876.9740, 80.56445
878.1010, 191.4297
879.2290, 17.41016
880.3560, 226.3555
881.4830, 87.28125
882.6100, 214.8164
883.7370, 45.93359
884.8630, 31.34766
885.9900, 217.6836
887.1160, 90.82617
888.2420, 162.3125
889.3680, 215.7773
890.4940, 220.2246
891.6200, 249.6328
892.7450, 253.0645
893.8700, 218.4531
894.9960, 140.8594
896.1210, 42.24609
897.2460, 53.60742
898.3700, 16.94336
899.4950, 29.71289
900.6190, 48.54102
901.7430, 77.76758
902.8670, 97.73242
903.9910, 87.23438
905.1150, 93.42773
906.2390, 48.59961
907.3620, 168.7480
908.4850, 52.88086
909.6080, 45.98828
910.7310, 32.92578
911.8540, 117.1074
912.9770, 175.1230
914.0990, 23.12109
915.2210, 99.09180
916.3440, 39.04883
917.4660, 324.1172
918.5870, 10.02930
919.7090, 236.9160
920.8310, 215.7871
921.9520, 48.35938
923.0730, 316.4004
924.1940, 338.8691
925.3150, 73.63477
926.4360, 260.7695
927.5560, 76.20508
928.6770, 283.7441
929.7970, 374.5098
930.9170, 284.1895
932.0370, 259.8184
933.1570, 258.4570
934.2760, 110.1133
935.3960, 8.755859
936.5150, 327.6445
937.6340, 177.9863
938.7530, 278.5801
939.8720, 22.15820
940.9910, 87.71875
942.1090, 65.26562
943.2280, 287.7969
944.3460, 189.7148
945.4640, 257.8164
946.5820, 155.3047
947.6990, 48.80273
948.8170, 151.2852
949.9340, 154.7793
951.0520, 144.2891
952.1690, 223.9180
953.2860, 147.1836
954.4030, 251.6250
955.5190, 232.0586
956.6360, 80.47656
957.7520, 275.8828
958.8680, 234.2754
959.9840, 219.3125
961.1000, 363.9668
962.2160, 279.2324
963.3310, 3.619141
964.4470, 243.6699
965.5620, 89.92383
966.6770, 115.2031
967.7920, 105.3848
968.9060, 184.5195
970.0210, 387.2422
971.1360, 185.2539
972.2500, 357.2051
973.3640, 228.1973
974.4780, 220.0469
975.5920, 99.94727
976.7050, 77.72461
977.8190, 286.6621
978.9320, 115.0273
980.0450, 150.5215
981.1580, 362.7246
982.2710, 371.5527
983.3840, 441.7383
984.4970, 241.9141
985.6090, 206.0801
986.7210, 289.9980
987.8330, 280.8711
988.9450, 460.6328
990.0570, 490.4688
991.1690, 720.5996
992.2800, 915.6797
993.3920, 897.5293
994.5030, 1069.330
995.6140, 986.2441
996.7250, 957.3438
997.8350, 686.4395
998.9460, 837.2773
1000.056, 614.9395
1001.167, 789.0469
1002.277, 747.1523
1003.387, 624.2520
1004.496, 575.3477
1005.606, 479.2949
1006.715, 450.1172
1007.825, 368.8262
1008.934, 333.0352
1010.043, 327.9180
1011.152, 288.6191
1012.260, 281.7285
1013.369, 328.4023
1014.477, 117.5059
1015.586, 183.2715
1016.694, 163.6328
1017.802, 321.0000
1018.909, 343.9102
1020.017, 180.1504
1021.124, 311.9434
1022.232, 282.0625
1023.339, 303.1816
1024.446, 491.3008
1025.553, 385.4375
1026.659, 496.5742
1027.766, 431.7129
1028.872, 374.7871
1029.979, 548.2676
1031.085, 446.9004
1032.191, 478.8848
1033.296, 512.1895
1034.402, 475.7910
1035.507, 539.6309
1036.613, 626.5586
1037.718, 622.4473
1038.823, 508.3672
1039.928, 500.0273
1041.032, 608.1758
1042.137, 674.8945
1043.241, 575.5625
1044.346, 550.9824
1045.450, 632.0391
1046.554, 594.1992
1047.657, 585.5996
1048.761, 539.6133
1049.864, 734.2891
1050.968, 730.4863
1052.071, 800.7363
1053.174, 732.9395
1054.277, 693.1465
1055.379, 504.9902
1056.482, 575.2148
1057.584, 391.4473
1058.687, 339.4805
1059.789, 275.7227
1060.891, 177.8164
1061.992, 296.0859
1063.094, 249.3750
1064.196, 240.6934
1065.297, 82.14648
1066.398, 334.1641
1067.499, 78.47852
1068.600, 466.1641
1069.701, 238.4922
1070.801, 125.2129
1071.902, 212.5508
1073.002, 38.51562
1074.102, 126.8125
1075.202, 255.0273
1076.302, 232.3867
1077.402, 190.7539
1078.501, 302.1230
1079.600, 145.6113
1080.700, 335.8125
1081.799, 275.4746
1082.898, 322.1230
1083.996, 289.5254
1085.095, 424.9297
1086.193, 289.3438
1087.292, 290.7617
1088.390, 288.1855
1089.488, 445.6094
1090.586, 472.0449
1091.683, 496.4883
1092.781, 678.8223
1093.878, 743.2793
1094.975, 714.1895
1096.073, 608.1328
1097.169, 762.6094
1098.266, 710.7910
1099.363, 966.2930
1100.459, 862.8066
1101.556, 898.3281
1102.652, 1052.859
1103.748, 1087.398
1104.844, 1006.947
1105.940, 1109.504
1107.035, 1167.070
1108.131, 1385.645
1109.226, 1471.230
1110.321, 1864.822
1111.416, 2100.428
1112.511, 2529.043
1113.605, 2740.666
1114.700, 3335.303
1115.794, 3994.945
1116.889, 4605.594
1117.983, 5877.506
1119.077, 6828.176
1120.170, 7701.854
1121.264, 9002.824
1122.357, 9977.578
1123.451, 10342.34
1124.544, 10229.11
1125.637, 9978.889
1126.730, 8784.625
1127.823, 7919.467
1128.915, 7013.320
1130.008, 6297.389
1131.100, 5998.701
1132.192, 5436.586
1133.284, 5246.691
1134.376, 5314.598
1135.467, 5608.512
1136.559, 5798.434
1137.650, 5530.363
1138.742, 5694.307
1139.833, 5241.258
1140.924, 5092.217
1142.014, 4582.844
1143.105, 3988.730
1144.195, 3342.750
1145.286, 3102.783
1146.376, 2459.828
1147.466, 2190.879
1148.556, 1854.008
1149.646, 1682.389
1150.735, 1581.668
1151.825, 1247.908
1152.914, 1033.381
1154.003, 945.6426
1155.092, 754.9141
1156.181, 745.6113
1157.270, 750.8984
1158.358, 752.2090
1159.447, 719.5312
1160.535, 493.8223
1161.623, 671.1465
1162.711, 490.4785
1163.799, 489.8301
1164.886, 550.1934
1165.974, 559.5645
1167.061, 596.9473
1168.148, 225.3398
1169.235, 130.7422
1170.322, 71.15234
1171.409, 365.5723
1172.496, 197.0020
1173.582, 251.4434
1174.669, 297.8926
1175.755, 279.3691
1176.841, 224.8516
1177.927, 220.3984
1179.012, 195.8535
1180.098, 162.4180
1181.183, 190.9434
1182.269, 240.4766
1183.354, 297.0234
1184.439, 127.5781
1185.524, 25.14062
1186.608, 182.0156
1187.693, 157.6152
1188.777, 348.2246
1189.862, 227.8398
1190.946, 61.46484
1192.030, 276.1016
1193.113, 492.7422
1194.197, 158.9219
1195.281, 99.42188
1196.364, 204.9883
1197.447, 197.6211
1198.530, 181.2617
1199.613, 140.9102
1200.696, 12.43359
1201.779, 368.2266
1202.861, 199.8984
1203.944, 107.5781
1205.026, 393.2656
1206.108, 70.96094
1207.190, 22.66016
1208.271, 21.37109
1209.353, 102.2109
1210.435, 44.76953
1211.516, 104.5391
1212.597, 6.886719
1213.678, 101.7695
1214.759, 267.4336
1215.840, 290.1016
1216.920, 300.2617
1218.001, 285.4727
1219.081, 275.1641
1220.161, 286.4062
1221.241, 197.5820
1222.321, 241.3008
1223.401, 151.0859
1224.480, 10.11719
1225.560, 299.6758
1226.639, 291.4883
1227.718, 35.69531
1228.797, 204.1094
1229.876, 175.9219
1230.955, 230.7461
1232.033, 318.5820
1233.112, 322.4258
1234.190, 117.2734
1235.268, 227.1328
1236.346, 264.9961
1237.424, 8.867188
1238.501, 167.7461
1239.579, 105.6367
1240.656, 278.5312
1241.733, 176.4336
1242.811, 95.37500
1243.888, 63.32422
1244.964, 25.33594
1246.041, 103.2422
1247.117, 1.789063
1248.194, 62.18750
1249.270, 28.16797
1250.346, 1.843750
1251.422, 29.14453
1252.498, 109.1445
1253.573, 315.1523
1254.649, 162.1641
1255.724, 14.81641
1256.800, 159.2031
1257.875, 269.2266
1258.950, 1.257813
1260.024, 96.70703
1261.099, 90.28906
1262.173, 19.71094
1263.248, 29.32812
1264.322, 19.33203
1265.396, 142.3398
1266.470, 118.3555
1267.544, 137.3789
1268.617, 216.4102
1269.691, 18.44922
1270.764, 63.51172
1271.837, 116.4922
1272.910, 233.4688
1273.983, 169.4414
1275.056, 126.4219
1276.129, 113.4023
1277.201, 127.3945
1278.273, 3.394531
1279.346, 14.60938
1280.418, 132.3867
1281.489, 88.61328
1282.561, 181.3477
1283.633, 38.31250
1284.704, 74.71484
1285.776, 152.2266
1286.847, 12.16797
1287.918, 309.1172
1288.989, 494.0703
1290.059, 63.03516
1291.130, 32.00391
1292.200, 82.47266
1293.271, 189.4531
1294.341, 122.6836
1295.411, 52.42969
1296.481, 158.4219
1297.551, 177.4258
1298.620, 419.4297
1299.690, 87.44531
1300.759, 206.4609
1301.828, 346.4844
1302.897, 72.51562
1303.966, 176.5469
1305.035, 108.5898
1306.103, 30.35938
1307.172, 245.6758
1308.240, 308.7188
1309.308, 229.7695
1310.376, 391.8281
1311.444, 268.8945
1312.512, 123.9688
1313.580, 182.0469
1314.647, 5.121094
1315.714, 277.2031
1316.781, 283.2852
1317.848, 197.3750
1318.915, 234.4414
1319.982, 208.5117
1321.049, 163.5820
1322.115, 89.33984
1323.181, 388.7188
1324.248, 273.9453
1325.314, 563.0195
1326.380, 374.1016
1327.445, 269.1836
1328.511, 119.2734
1329.576, 342.9766
1330.642, 169.0781
1331.707, 594.1758
1332.772, 544.2852
1333.837, 175.3945
1334.902, 413.5117
1335.966, 471.6289
1337.031, 432.7578
1338.095, 448.3789
1339.159, 428.6172
1340.223, 403.2695
1341.287, 365.6641
1342.351, 333.8125
1343.415, 299.9688
1344.478, 203.1211
1345.541, 379.2852
1346.605, 338.4492
1347.668, 485.6211
1348.731, 273.7969
1349.793, 372.9766
1350.856, 216.1680
1351.918, 179.3594
1352.981, 256.1016
1354.043, 336.2930
1355.105, 463.4961
1356.167, 494.5430
1357.229, 318.2227
1358.290, 471.4375
1359.352, 346.5820
1360.413, 77.80469
1361.475, 265.0391
1362.536, 259.2773
1363.597, 92.51953
1364.657, 341.7695
1365.718, 272.0234
1366.779, 369.3164
1367.839, 314.5820
1368.899, 419.8477
1369.959, 204.3203
1371.019, 410.6016
1372.079, 320.8945
1373.139, 371.1875
1374.198, 225.4922
1375.258, 477.5469
1376.317, 373.8555
1377.376, 206.1797
1378.435, 383.2266
1379.494, 145.5664
1380.553, 566.9062
1381.611, 496.2539
1382.670, 306.6094
1383.728, 332.0586
1384.786, 320.4297
1385.844, 342.8125
1386.902, 241.9922
1387.960, 580.9492
1389.017, 425.3555
1390.075, 19.44922
1391.132, 113.9727
1392.189, 476.3984
1393.246, 54.83984
1394.303, 449.2852
1395.360, 405.7461
1396.417, 351.2148
1397.473, 550.6914
1398.529, 286.5234
1399.585, 208.1523
1400.642, 285.6484
1401.697, 309.1602
1402.753, 327.6797
1403.809, 340.0156
1404.864, 235.7617
1405.920, 323.0703
1406.975, 283.4180
1408.030, 274.8867
1409.085, 16.14453
1410.140, 300.6328
1411.194, 335.1289
1412.249, 550.2188
1413.303, 387.7461
1414.358, 281.2617
1415.412, 240.2578
1416.466, 441.8086
1417.520, 154.3789
1418.573, 16.04688
1419.627, 291.5391
1420.680, 382.1367
1421.733, 345.7422
1422.787, 432.3594
1423.840, 434.6016
1424.892, 415.0508
1425.945, 471.3125
1426.998, 328.0039
1428.050, 367.6914
1429.103, 242.4023
1430.155, 342.1406
1431.207, 324.8984
1432.259, 203.6875
1433.310, 360.4570
1434.362, 88.36328
1435.414, 317.2617
1436.465, 193.7148
1437.516, 590.7109
1438.567, 241.4297
1439.618, 207.3945
1440.669, 262.5898
1441.720, 507.0703
1442.770, 531.5547
1443.820, 285.0469
1444.871, 373.7734
1445.921, 177.2656
1446.971, 329.7695
1448.021, 619.2812
1449.070, 343.7969
1450.120, 300.3242
1451.169, 481.8516
1452.219, 304.4141
1453.268, 152.0312
1454.317, 528.6797
1455.366, 230.3438
1456.414, 455.0117
1457.463, 326.6875
1458.511, 211.3750
1459.560, 292.0664
1460.608, 325.7695
1461.656, 205.5000
1462.704, 332.2344
1463.752, 497.9688
1464.799, 78.71875
1465.847, 430.4688
1466.894, 486.2305
1467.941, 163.9531
1468.988, 332.6484
1470.035, 446.3516
1471.082, 32.06250
1472.129, 403.7852
1473.175, 7.515625
1474.222, 382.2500
1475.268, 453.0000
1476.314, 319.7617
1477.360, 204.5977
1478.406, 176.9453
1479.452, 500.7891
1480.498, 340.6445
1481.543, 288.5078
1482.588, 354.4688
1483.633, 250.4883
1484.679, 30.48438
1485.723, 303.5508
1486.768, 99.62109
1487.813, 346.7695
1488.857, 324.9688
1489.902, 3.222656
1490.946, 457.4805
1491.990, 2.109375
1493.034, 356.1680
1494.078, 148.4531
1495.122, 130.2422
1496.165, 99.07812
1497.209, 244.4062
1498.252, 122.7500
1499.295, 357.1250
1500.338, 220.5273
1501.381, 335.9102
1502.424, 335.3047
1503.466, 319.7461
1504.509, 195.2109
1505.551, 97.81641
1506.593, 112.8125
1507.635, 105.6523
1508.677, 153.8359
1509.719, 238.5820
1510.761, 326.3633
1511.802, 445.1836
1512.844, 71.04297
1513.885, 176.9336
1514.926, 382.8789
1515.967, 629.8594
1517.008, 272.8867
1518.049, 279.9688
1519.089, 260.1055
1520.130, 326.3008
1521.170, 196.5547
1522.210, 228.9102
1523.250, 363.3359
1524.290, 535.8242
1525.330, 293.4297
1526.370, 459.9766
1527.409, 253.5820
1528.448, 121.1523
1529.488, 112.9219
1530.527, 2.691406
1531.566, 105.4180
1532.605, 82.53516
1533.643, 49.68750
1534.682, 332.8750
1535.720, 63.08203
1536.759, 494.3164
1537.797, 382.5664
1538.835, 303.8281
1539.873, 11.90625
1540.910, 44.35938
1541.948, 144.6133
1542.986, 320.8477
1544.023, 244.0312
1545.060, 332.2305
1546.097, 87.44531
1547.134, 284.5703
1548.171, 217.5273
1549.208, 397.3984
1550.244, 485.4570
1551.281, 281.7422
1552.317, 150.5469
1553.353, 143.0000
1554.389, 380.8164
1555.425, 338.1289
1556.461, 302.0820
1557.497, 134.5391
1558.532, 85.98828
1559.567, 159.9570
1560.603, 3.519531
1561.638, 543.6836
1562.673, 32.94531
1563.708, 0.0000000E+00
##END=



