##NAMES=Microcline
##RRUFFID=R050150
##IDEAL CHEMISTRY=KAlSi_3_O_8_
##LOCALITY=Crystal Peak area, Park/Teller Counties, Colorado, USA
##OWNER=RRUFF
##SOURCE=Dave Bunk Minerals
##DESCRIPTION=Pale blue prismatic crystals
##STATUS=The identification of this mineral has been confirmed by X-ray diffraction and chemical analysis
##URL=rruff.info/R050150
##MEASURED CHEMISTRY=(K_0.95_Na_0.05_)_Î£=1_Al_1.00_Si_3.00_O_8_
##PIN_ID=L00941
##ORIENTATION=Laser parallel to (-1 0 -1). Fiducial mark perpendicular to laser is parallel to -b [0 -1 0]
137.6830, 0.0000000E+00
138.9210, 35.95410
140.1580, 181.7803
141.3950, 392.7158
142.6330, 609.7871
143.8690, 939.7900
145.1060, 1510.184
146.3430, 2044.438
147.5790, 2764.011
148.8150, 3526.434
150.0510, 4641.195
151.2870, 5979.990
152.5220, 7397.211
153.7580, 8468.334
154.9930, 9396.844
156.2280, 9674.418
157.4620, 9867.520
158.6970, 9977.094
159.9310, 10909.55
161.1660, 11850.75
162.4000, 13001.64
163.6330, 13329.98
164.8670, 13545.91
166.1000, 12816.66
167.3340, 11549.01
168.5670, 10437.95
169.8000, 9090.362
171.0320, 8328.985
172.2650, 8275.317
173.4970, 8529.795
174.7290, 8804.808
175.9610, 9128.722
177.1930, 9590.878
178.4240, 10080.58
179.6550, 10278.08
180.8870, 10499.74
182.1170, 11031.72
183.3480, 11377.11
184.5790, 11402.53
185.8090, 11785.38
187.0390, 12418.66
188.2690, 12300.04
189.4990, 11753.11
190.7290, 11034.34
191.9580, 10188.51
193.1870, 8895.703
194.4160, 8019.703
195.6450, 7396.452
196.8740, 6807.731
198.1020, 7106.469
199.3310, 7185.023
200.5590, 7795.832
201.7870, 8178.094
203.0140, 8097.486
204.2420, 7784.821
205.4690, 7670.107
206.6960, 7717.352
207.9230, 7906.562
209.1500, 8176.738
210.3760, 8256.896
211.6030, 8398.440
212.8290, 8476.300
214.0550, 7536.540
215.2810, 6095.211
216.5060, 5347.311
217.7320, 4435.846
218.9570, 1970.805
220.1820, 1131.172
221.4070, 761.9229
222.6320, 570.0391
223.8560, 269.4922
225.0800, 24.75000
226.3040, 273.7246
227.5280, 375.4561
228.7520, 330.9717
229.9760, 513.2930
231.1990, 560.4404
232.4220, 478.4287
233.6450, 508.2793
234.8680, 461.0410
236.0910, 484.7812
237.3130, 409.5537
238.5350, 435.3867
239.7570, 376.2803
240.9790, 313.7920
242.2010, 196.2197
243.4220, 36.74707
244.6430, 118.6416
245.8640, 297.3066
247.0850, 449.6543
248.3060, 547.7617
249.5270, 606.1719
250.7470, 906.2148
251.9670, 977.3398
253.1870, 1260.007
254.4070, 1500.067
255.6260, 1580.678
256.8460, 1744.077
258.0650, 2093.384
259.2840, 2597.773
260.5030, 2946.661
261.7220, 2857.383
262.9400, 2514.631
264.1580, 2789.929
265.3760, 3003.781
266.5940, 2985.221
267.8120, 3009.355
269.0290, 3161.556
270.2470, 3193.818
271.4640, 3179.142
272.6810, 3135.521
273.8980, 3396.951
275.1140, 3794.424
276.3310, 4333.939
277.5470, 5101.499
278.7630, 6235.098
279.9790, 7589.740
281.1940, 9687.427
282.4100, 11855.97
283.6250, 13766.04
284.8400, 14846.44
286.0550, 15507.53
287.2700, 16452.32
288.4850, 17531.13
289.6990, 18351.30
290.9130, 19330.32
292.1270, 19845.47
293.3410, 19310.79
294.5540, 18439.63
295.7680, 15842.56
296.9810, 12910.13
298.1940, 9922.341
299.4070, 7651.560
300.6200, 5731.743
301.8320, 4492.854
303.0450, 3374.873
304.2570, 2731.784
305.4690, 2582.578
306.6800, 2036.231
307.8920, 1820.643
309.1030, 1706.715
310.3150, 1569.387
311.5260, 1595.654
312.7360, 1645.550
313.9470, 1556.105
315.1580, 1453.351
316.3680, 1538.316
317.5780, 1497.019
318.7880, 1833.471
319.9980, 1988.689
321.2070, 2262.688
322.4170, 2656.482
323.6260, 2613.082
324.8350, 2850.496
326.0430, 2889.733
327.2520, 3116.785
328.4610, 3333.078
329.6690, 3538.310
330.8770, 3573.238
332.0850, 3426.229
333.2920, 3713.676
334.5000, 2761.402
335.7070, 2090.331
336.9140, 1405.831
338.1210, 1302.284
339.3280, 1016.756
340.5350, 905.2441
341.7410, 717.7451
342.9470, 740.2549
344.1540, 720.7715
345.3590, 709.2900
346.5650, 618.8047
347.7710, 641.6289
348.9760, 484.7979
350.1810, 671.2705
351.3860, 561.7324
352.5910, 628.1787
353.7950, 514.6123
355.0000, 574.0312
356.2040, 534.4355
357.4080, 554.8242
358.6120, 417.1934
359.8150, 469.5381
361.0190, 308.8594
362.2220, 302.1416
363.4250, 413.3828
364.6280, 460.5908
365.8310, 488.3857
367.0340, 484.9082
368.2360, 580.0166
369.4380, 562.4648
370.6400, 647.3945
371.8420, 483.7217
373.0440, 534.6777
374.2450, 400.4316
375.4470, 315.7402
376.6480, 377.0811
377.8490, 36.55566
379.0490, 338.1084
380.2500, 133.6084
381.4500, 237.4121
382.6510, 98.82129
383.8510, 1.077148
385.0500, 229.3545
386.2500, 165.9590
387.4500, 266.2607
388.6490, 249.6533
389.8480, 173.9434
391.0470, 10.50195
392.2460, 185.2891
393.4440, 326.0342
394.6430, 298.7314
395.8410, 583.3535
397.0390, 863.9258
398.2370, 1047.512
399.4340, 1474.088
400.6320, 1638.643
401.8290, 2019.164
403.0260, 2041.656
404.2230, 2017.098
405.4200, 2342.401
406.6170, 2388.605
407.8130, 2599.674
409.0090, 2770.555
410.2050, 2745.387
411.4010, 2671.255
412.5970, 2319.173
413.7920, 1652.147
414.9880, 1543.156
416.1830, 1187.184
417.3780, 732.2363
418.5730, 712.2891
419.7670, 615.3672
420.9620, 492.4531
422.1560, 229.5469
423.3500, 150.6426
424.5440, 113.7402
425.7380, 139.1504
426.9310, 117.0859
428.1240, 65.13477
429.3180, 90.24023
430.5110, 26.58008
431.7030, 7.353516
432.8960, 43.92773
434.0890, 247.7109
435.2810, 114.2930
436.4730, 199.8359
437.6650, 169.3105
438.8570, 222.7148
440.0480, 103.0547
441.2390, 494.3203
442.4310, 611.5156
443.6220, 871.6406
444.8120, 1290.691
446.0030, 1342.676
447.1940, 1914.590
448.3840, 2401.434
449.5740, 2810.209
450.7640, 3177.930
451.9540, 3520.584
453.1430, 4013.172
454.3330, 4182.693
455.5220, 4209.152
456.7110, 4764.551
457.9000, 4760.887
459.0890, 4398.270
460.2770, 4137.635
461.4650, 4011.799
462.6540, 3844.930
463.8420, 3886.984
465.0290, 4284.371
466.2170, 4896.320
467.4050, 6075.219
468.5920, 7483.064
469.7790, 9574.863
470.9660, 12090.61
472.1530, 14616.31
473.3390, 16819.98
474.5250, 18517.60
475.7120, 20352.23
476.8980, 21126.77
478.0840, 23092.32
479.2690, 23887.29
480.4550, 24670.37
481.6400, 24559.87
482.8250, 22910.36
484.0100, 20319.83
485.1950, 16832.08
486.3800, 13110.41
487.5640, 10556.65
488.7480, 8197.834
489.9320, 7041.621
491.1160, 6128.488
492.3000, 6187.387
493.4840, 6197.355
494.6670, 6638.852
495.8500, 8197.619
497.0330, 9919.729
498.2160, 12770.24
499.3990, 16302.50
500.5810, 20331.91
501.7630, 23307.99
502.9460, 25812.68
504.1280, 27727.87
505.3090, 30774.93
506.4910, 33738.95
507.6720, 36851.53
508.8540, 38816.36
510.0350, 39607.13
511.2160, 38080.55
512.3960, 34590.87
513.5770, 30127.65
514.7570, 24434.86
515.9380, 20246.65
517.1180, 16299.92
518.2970, 12881.86
519.4770, 10438.95
520.6570, 8331.230
521.8360, 6807.807
523.0150, 5725.740
524.1940, 4614.750
525.3730, 4155.572
526.5510, 3560.836
527.7300, 3183.684
528.9080, 2793.547
530.0860, 2429.289
531.2640, 2484.789
532.4420, 1898.139
533.6200, 1603.016
534.7970, 1591.016
535.9740, 1732.338
537.1510, 1377.656
538.3280, 1312.971
539.5050, 1066.830
540.6810, 1060.025
541.8580, 1097.193
543.0340, 1068.490
544.2100, 773.7832
545.3860, 1010.051
546.5610, 674.3691
547.7370, 700.6523
548.9120, 836.4141
550.0870, 904.6895
551.2620, 874.5508
552.4370, 593.3340
553.6120, 817.1797
554.7860, 716.4102
555.9600, 717.1289
557.1340, 725.7812
558.3080, 755.0664
559.4820, 655.4102
560.6560, 562.2324
561.8290, 675.8926
563.0020, 661.1836
564.1750, 481.4023
565.3480, 639.5586
566.5210, 793.6680
567.6930, 860.5156
568.8660, 794.2012
570.0380, 923.8359
571.2100, 1011.654
572.3820, 969.1816
573.5530, 1160.621
574.7250, 1177.793
575.8960, 1417.068
577.0670, 1596.420
578.2380, 1544.205
579.4090, 1454.527
580.5800, 1456.717
581.7500, 1489.457
582.9210, 1433.639
584.0910, 1100.816
585.2610, 776.9980
586.4300, 718.1758
587.6000, 423.3516
588.7690, 336.5312
589.9390, 407.9297
591.1080, 386.4316
592.2770, 229.6055
593.4450, 208.8906
594.6140, 333.0859
595.7820, 184.2832
596.9500, 42.50977
598.1190, 54.71094
599.2860, 76.06836
600.4540, 48.86914
601.6220, 37.31641
602.7890, 4.503906
603.9560, 18.71875
605.1230, 20.06055
606.2900, 17.21094
607.4570, 49.52539
608.6230, 81.83594
609.7890, 93.14648
610.9560, 106.4609
612.1220, 22.77734
613.2870, 187.0938
614.4530, 69.41406
615.6180, 130.7344
616.7840, 174.0605
617.9490, 219.4082
619.1140, 369.7910
620.2790, 226.1914
621.4430, 129.5977
622.6080, 521.0410
623.7720, 362.4883
624.9360, 360.9668
626.1000, 346.4473
627.2640, 504.9355
628.4270, 693.4258
629.5910, 731.9570
630.7540, 699.4941
631.9170, 892.0371
633.0800, 954.6348
634.2430, 914.2344
635.4050, 696.8379
636.5680, 1131.449
637.7300, 883.0684
638.8920, 995.6934
640.0540, 1036.324
641.2150, 896.9629
642.3770, 960.6133
643.5380, 1079.273
644.7000, 1297.953
645.8610, 1148.656
647.0210, 1375.371
648.1820, 1326.098
649.3430, 1524.830
650.5030, 1410.570
651.6630, 1398.316
652.8230, 1139.068
653.9830, 966.8223
655.1430, 810.5840
656.3020, 778.3477
657.4620, 581.1172
658.6210, 758.8926
659.7800, 496.6680
660.9390, 527.4785
662.0970, 405.2891
663.2560, 268.1055
664.4140, 229.0098
665.5720, 56.96680
666.7300, 237.9395
667.8880, 17.98438
669.0460, 10.91797
670.2030, 164.2461
671.3600, 159.4844
672.5180, 14.76758
673.6740, 106.0547
674.8310, 197.3301
675.9880, 70.59766
677.1440, 96.85352
678.3010, 208.9004
679.4570, 101.7734
680.6130, 33.71094
681.7690, 78.32422
682.9240, 166.3477
684.0800, 33.64062
685.2350, 63.33984
686.3900, 82.31250
687.5450, 104.7266
688.7000, 91.16406
689.8540, 103.9551
691.0090, 103.1445
692.1630, 166.4062
693.3170, 187.7676
694.4710, 99.24609
695.6250, 49.79102
696.7780, 59.26367
697.9320, 62.97656
699.0850, 66.67383
700.2380, 8.619141
701.3910, 6.103516
702.5440, 95.15039
703.6970, 27.39258
704.8490, 28.37891
706.0010, 89.81641
707.1530, 10.95703
708.3050, 74.29688
709.4570, 2.544922
710.6090, 47.80469
711.7600, 21.37305
712.9110, 19.80664
714.0620, 77.83789
715.2130, 73.95117
716.3640, 114.1973
717.5150, 167.3789
718.6650, 123.8066
719.8150, 260.9199
720.9650, 343.0957
722.1150, 260.1836
723.2650, 184.5059
724.4150, 278.5684
725.5640, 208.4570
726.7130, 196.4922
727.8630, 64.51562
729.0110, 28.47852
730.1600, 187.7559
731.3090, 99.57617
732.4570, 280.9043
733.6060, 222.9902
734.7540, 123.4668
735.9020, 282.3574
737.0490, 599.6582
738.1970, 455.4180
739.3440, 625.4121
740.4920, 551.2441
741.6390, 609.7656
742.7860, 789.5586
743.9320, 1018.049
745.0790, 1116.150
746.2250, 1304.988
747.3720, 1386.727
748.5180, 1444.449
749.6640, 1536.037
750.8100, 1587.328
751.9550, 1753.520
753.1010, 1729.176
754.2460, 1791.109
755.3910, 1935.420
756.5360, 2319.396
757.6810, 2486.576
758.8250, 2836.500
759.9700, 3216.012
761.1140, 3302.547
762.2580, 3563.443
763.4020, 3865.938
764.5460, 4089.707
765.6900, 4057.164
766.8330, 3782.672
767.9760, 3409.090
769.1200, 3160.766
770.2620, 2879.102
771.4050, 2526.457
772.5480, 2299.484
773.6900, 2084.830
774.8330, 1883.842
775.9750, 1737.115
777.1170, 1742.369
778.2590, 1571.600
779.4000, 1456.811
780.5420, 1318.361
781.6830, 1172.457
782.8240, 977.0273
783.9650, 845.1504
785.1060, 685.2539
786.2470, 601.3320
787.3870, 555.3906
788.5280, 436.5508
789.6680, 535.5664
790.8080, 705.6699
791.9480, 668.6406
793.0870, 452.5879
794.2270, 574.5156
795.3660, 514.4199
796.5060, 594.3008
797.6450, 715.1602
798.7830, 765.9961
799.9220, 879.8105
801.0610, 851.6035
802.1990, 1170.371
803.3370, 1546.119
804.4750, 1651.842
805.6130, 2012.420
806.7510, 2518.477
807.8890, 3112.127
809.0260, 4059.758
810.1630, 4470.199
811.3000, 4930.777
812.4370, 5655.330
813.5740, 5781.859
814.7110, 5972.365
815.8470, 5986.295
816.9830, 5755.861
818.1190, 5357.434
819.2550, 4602.844
820.3910, 3726.230
821.5270, 2731.621
822.6620, 2237.930
823.7970, 1817.250
824.9330, 1272.059
826.0670, 1156.334
827.2020, 1013.035
828.3370, 998.7148
829.4710, 670.3496
830.6060, 608.5723
831.7400, 623.2891
832.8740, 457.0391
834.0080, 413.1367
835.1410, 561.1523
836.2750, 558.6621
837.4080, 415.3125
838.5410, 274.3066
839.6740, 407.3457
840.8070, 279.0996
841.9400, 251.7227
843.0730, 293.6934
844.2050, 150.2246
845.3370, 311.0859
846.4690, 310.2090
847.6010, 22.91211
848.7330, 374.4688
849.8640, 159.2051
850.9960, 242.9531
852.1270, 235.1758
853.2580, 44.01172
854.3890, 17.73633
855.5200, 219.4570
856.6500, 125.1602
857.7810, 224.8438
858.9110, 83.51367
860.0410, 157.1641
861.1710, 28.79688
862.3010, 214.4062
863.4310, 287.9980
864.5600, 203.3477
865.6900, 71.57812
866.8190, 12.88086
867.9480, 5.484375
869.0770, 94.97461
870.2050, 7.419922
871.3340, 141.8047
872.4620, 22.79883
873.5900, 136.5488
874.7180, 61.89258
875.8460, 174.2227
876.9740, 60.46094
878.1010, 17.79102
879.2290, 257.9844
880.3560, 234.0742
881.4830, 24.88086
882.6100, 130.1172
883.7370, 187.0996
884.8630, 215.0684
885.9900, 178.0234
887.1160, 159.6934
888.2420, 173.8867
889.3680, 50.80078
890.4940, 48.30664
891.6200, 91.46875
892.7450, 31.70703
893.8700, 33.00781
894.9960, 102.2949
896.1210, 119.3164
897.2460, 94.08398
898.3700, 218.4414
899.4950, 40.95117
900.6190, 240.4453
901.7430, 123.0742
902.8670, 138.3145
903.9910, 38.69141
905.1150, 138.9453
906.2390, 144.3164
907.3620, 225.5703
908.4850, 48.81055
909.6080, 44.05273
910.7310, 153.2812
911.8540, 284.4980
912.9770, 98.70508
914.0990, 214.9023
915.2210, 21.08594
916.3440, 266.2637
917.4660, 8.429688
918.5870, 87.57812
919.7090, 121.7148
920.8310, 357.8457
921.9520, 136.9629
923.0730, 51.07227
924.1940, 233.1699
925.3150, 51.26172
926.4360, 230.3457
927.5560, 260.4219
928.6770, 255.4844
929.7970, 321.5391
930.9170, 134.5859
932.0370, 127.6230
933.1570, 128.6504
934.2760, 141.6738
935.3960, 141.6934
936.5150, 197.7051
937.6340, 150.7109
938.7530, 143.7422
939.8720, 183.7910
940.9910, 77.83398
942.1090, 131.9727
943.2280, 175.9043
944.3460, 226.9277
945.4640, 166.9473
946.5820, 335.9590
947.6990, 175.9922
948.8170, 309.0332
949.9340, 115.0645
951.0520, 371.1484
952.1690, 419.2539
953.2860, 210.3730
954.4030, 420.4883
955.5190, 469.5977
956.6360, 280.7109
957.7520, 65.82031
958.8680, 278.9238
959.9840, 457.0508
961.1000, 249.1816
962.2160, 231.3340
963.3310, 633.5293
964.4470, 341.7617
965.5620, 577.0469
966.6770, 561.3516
967.7920, 723.6777
968.9060, 925.0176
970.0210, 730.3516
971.1360, 990.7051
972.2500, 1148.057
973.3640, 1169.410
974.4780, 1415.762
975.5920, 1766.109
976.7050, 1540.469
977.8190, 2038.828
978.9320, 1707.195
980.0450, 1815.576
981.1580, 1466.965
982.2710, 1571.035
983.3840, 1219.422
984.4970, 1103.818
985.6090, 893.2148
986.7210, 893.6328
987.8330, 817.0078
988.9450, 818.1172
990.0570, 817.5293
991.1690, 1068.898
992.2800, 938.3398
993.3920, 1074.562
994.5030, 1068.027
995.6140, 1004.654
996.7250, 946.1172
997.8350, 927.5820
998.9460, 1006.047
1000.056, 1322.254
1001.167, 1075.861
1002.277, 1233.945
1003.387, 1484.262
1004.496, 1334.174
1005.606, 1513.654
1006.715, 1794.717
1007.825, 1757.213
1008.934, 1771.426
1010.043, 1772.936
1011.152, 1667.150
1012.260, 1553.244
1013.369, 1486.676
1014.477, 1478.195
1015.586, 1493.305
1016.694, 1285.830
1017.802, 1393.359
1018.909, 1158.891
1020.017, 1089.428
1021.124, 1012.969
1022.232, 775.5137
1023.339, 1039.768
1024.446, 1130.641
1025.553, 745.8359
1026.659, 1229.814
1027.766, 1239.039
1028.872, 1336.656
1029.979, 1666.242
1031.085, 1640.449
1032.191, 1729.051
1033.296, 1717.365
1034.402, 1630.979
1035.507, 1226.527
1036.613, 1241.156
1037.718, 1031.516
1038.823, 881.1992
1039.928, 805.8496
1041.032, 688.0723
1042.137, 686.4531
1043.241, 566.2461
1044.346, 709.9336
1045.450, 687.6270
1046.554, 706.3320
1047.657, 732.0449
1048.761, 370.6113
1049.864, 417.3438
1050.968, 410.6582
1052.071, 465.4082
1053.174, 510.1660
1054.277, 277.9551
1055.379, 389.7324
1056.482, 293.3945
1057.584, 172.6836
1058.687, 360.3809
1059.789, 393.1934
1060.891, 446.0176
1061.992, 430.8516
1063.094, 261.6934
1064.196, 335.5449
1065.297, 159.4082
1066.398, 311.0723
1067.499, 123.6641
1068.600, 320.5566
1069.701, 301.9102
1070.801, 480.7324
1071.902, 634.5781
1073.002, 470.5078
1074.102, 524.4453
1075.202, 793.3945
1076.302, 665.3496
1077.402, 581.3184
1078.501, 794.2930
1079.600, 823.4316
1080.700, 993.9844
1081.799, 1084.986
1082.898, 1035.008
1083.996, 1450.031
1085.095, 1654.318
1086.193, 1821.355
1087.292, 1904.400
1088.390, 2410.457
1089.488, 2976.520
1090.586, 3399.592
1091.683, 4010.672
1092.781, 4661.461
1093.878, 5291.561
1094.975, 6033.703
1096.073, 7004.816
1097.169, 7409.939
1098.266, 7906.066
1099.363, 8172.508
1100.459, 8126.650
1101.556, 7773.801
1102.652, 7302.959
1103.748, 6953.133
1104.844, 6140.311
1105.940, 5382.498
1107.035, 4993.691
1108.131, 5103.891
1109.226, 4413.418
1110.321, 4479.408
1111.416, 4181.633
1112.511, 4240.609
1113.605, 4561.848
1114.700, 4347.098
1115.794, 4345.355
1116.889, 3863.619
1117.983, 4180.924
1119.077, 3840.234
1120.170, 3741.572
1121.264, 3600.926
1122.357, 3054.078
1123.451, 2988.445
1124.544, 2891.721
1125.637, 2484.102
1126.730, 2451.488
1127.823, 1854.883
1128.915, 1715.285
1130.008, 1630.695
1131.100, 1234.109
1132.192, 1298.555
1133.284, 1194.018
1134.376, 1170.498
1135.467, 1116.984
1136.559, 1192.486
1137.650, 1219.992
1138.742, 1341.832
1139.833, 1066.574
1140.924, 1117.117
1142.014, 1086.664
1143.105, 868.2461
1144.195, 910.8359
1145.286, 739.5078
1146.376, 747.1895
1147.466, 684.8906
1148.556, 523.5957
1149.646, 778.3086
1150.735, 608.0254
1151.825, 721.7500
1152.914, 593.4785
1154.003, 549.2148
1155.092, 405.3301
1156.181, 468.0977
1157.270, 514.9043
1158.358, 541.7324
1159.447, 283.5684
1160.535, 192.4453
1161.623, 231.3301
1162.711, 173.2500
1163.799, 203.1758
1164.886, 319.1094
1165.974, 307.0488
1167.061, 240.0293
1168.148, 303.0156
1169.235, 116.0117
1170.322, 282.0684
1171.409, 186.1328
1172.496, 81.72656
1173.582, 426.3105
1174.669, 63.35547
1175.755, 105.0625
1176.841, 358.4570
1177.927, 71.51367
1179.012, 32.42578
1180.098, 223.6328
1181.183, 338.6934
1182.269, 55.76172
1183.354, 228.8359
1184.439, 0.9121090
1185.524, 181.9941
1186.608, 246.0781
1187.693, 36.83008
1188.777, 44.24805
1189.862, 268.3340
1190.946, 143.4199
1192.030, 104.5137
1193.113, 277.6074
1194.197, 132.7070
1195.281, 132.8086
1196.364, 20.08398
1197.447, 18.02148
1198.530, 10.11523
1199.613, 11.78320
1200.696, 135.6836
1201.779, 103.6484
1202.861, 473.3359
1203.944, 89.32227
1205.026, 221.3145
1206.108, 226.3105
1207.190, 65.30859
1208.271, 85.31055
1209.353, 120.6836
1210.435, 47.11914
1211.516, 127.1855
1212.597, 3.113281
1213.678, 55.05469
1214.759, 56.99805
1215.840, 268.9199
1216.920, 125.8418
1218.001, 174.7656
1219.081, 333.6934
1220.161, 314.6230
1221.241, 255.5566
1222.321, 29.50781
1223.401, 11.41211
1224.480, 50.66602
1225.560, 16.23242
1226.639, 250.1289
1227.718, 133.0312
1228.797, 21.06445
1229.876, 162.8301
1230.955, 354.7246
1232.033, 213.6230
1233.112, 209.6855
1234.190, 296.5859
1235.268, 86.49023
1236.346, 293.3945
1237.424, 220.3027
1238.501, 0.7851560
1239.579, 73.87500
1240.656, 7.996094
1241.733, 25.13672
1242.811, 51.71875
1243.888, 139.5742
1244.964, 9.433594
1246.041, 112.2910
1247.117, 256.7734
1248.194, 116.6328
1249.270, 208.4941
1250.346, 173.3574
1251.422, 99.77930
1252.498, 134.0273
1253.573, 85.16602
1254.649, 275.5898
1255.724, 72.39258
1256.800, 261.1973
1257.875, 188.0039
1258.950, 165.8105
1260.024, 214.6191
1261.099, 160.0820
1262.173, 163.8926
1263.248, 185.6992
1264.322, 140.5195
1265.396, 151.3203
1266.470, 106.1309
1267.544, 23.06055
1268.617, 21.26953
1269.691, 309.5020
1270.764, 108.2734
1271.837, 120.0488
1272.910, 349.8223
1273.983, 114.5957
1275.056, 116.3691
1276.129, 51.14062
1277.201, 311.9141
1278.273, 62.68555
1279.346, 343.4570
1280.418, 38.22852
1281.489, 102.9980
1282.561, 156.7676
1283.633, 5.458984
1284.704, 191.3008
1285.776, 272.0586
1286.847, 363.8125
1287.918, 391.8359
1288.989, 273.7090
1290.059, 330.4590
1291.130, 201.2070
1292.200, 84.95508
1293.271, 147.6992
1294.341, 134.4414
1295.411, 165.1816
1296.481, 393.9160
1297.551, 64.65039
1298.620, 323.7793
1299.690, 226.5078
1300.759, 28.23438
1301.828, 317.1309
1302.897, 338.8496
1303.966, 199.5664
1305.035, 73.27734
1306.103, 144.9902
1307.172, 78.69727
1308.240, 227.2656
1309.308, 427.9688
1310.376, 192.6777
1311.444, 421.3848
1312.512, 232.0840
1313.580, 311.7539
1314.647, 532.4453
1315.714, 173.1348
1316.781, 234.3281
1317.848, 301.0117
1318.915, 231.8750
1319.982, 227.3770
1321.049, 267.0547
1322.115, 347.7324
1323.181, 201.4082
1324.248, 378.0840
1325.314, 389.9609
1326.380, 301.9219
1327.445, 501.5918
1328.511, 226.8066
1329.576, 391.5645
1330.642, 107.3066
1331.707, 327.9746
1332.772, 328.6406
1333.837, 142.3066
1334.902, 229.9727
1335.966, 266.6387
1337.031, 140.3066
1338.095, 390.8125
1339.159, 126.9141
1340.223, 381.5742
1341.287, 412.3223
1342.351, 430.9805
1343.415, 368.3848
1344.478, 176.0039
1345.541, 406.6211
1346.605, 152.2402
1347.668, 112.8613
1348.731, 241.4824
1349.793, 398.1016
1350.856, 249.0234
1351.918, 204.6152
1352.981, 303.1719
1354.043, 394.7656
1355.105, 291.3594
1356.167, 476.9551
1357.229, 239.2500
1358.290, 219.8477
1359.352, 308.4453
1360.413, 12.95508
1361.475, 249.6406
1362.536, 306.2363
1363.597, 322.8320
1364.657, 318.0020
1365.718, 361.7539
1366.779, 202.0332
1367.839, 275.8555
1368.899, 476.4531
1369.959, 314.2812
1371.019, 462.8555
1372.079, 151.4336
1373.139, 199.0117
1374.198, 118.4062
1375.258, 102.1426
1376.317, 232.6973
1377.376, 232.2480
1378.435, 381.8027
1379.494, 351.5684
1380.553, 289.1289
1381.611, 325.7871
1382.670, 218.4570
1383.728, 223.1289
1384.786, 315.6992
1385.844, 164.2734
1386.902, 113.8477
1387.960, 71.57227
1389.017, 74.99023
1390.075, 151.5547
1391.132, 212.0898
1392.189, 246.6230
1393.246, 262.1641
1394.303, 242.7070
1395.360, 170.0781
1396.417, 152.4766
1397.473, 96.95117
1398.529, 160.5137
1399.585, 146.0801
1400.642, 174.6523
1401.697, 206.8984
1402.753, 252.8027
1403.809, 283.3789
1404.864, 273.9629
1405.920, 352.5508
1406.975, 531.1465
1408.030, 513.7500
1409.085, 377.6211
1410.140, 138.7129
1411.194, 240.9688
1412.249, 143.3887
1413.303, 187.8086
1414.358, 110.2285
1415.412, 4.351563
1416.466, 83.07031
1417.520, 246.4902
1418.573, 499.8828
1419.627, 354.2695
1420.680, 340.6523
1421.733, 168.0332
1422.787, 401.4082
1423.840, 148.7793
1424.892, 52.87109
1425.945, 334.5742
1426.998, 383.8809
1428.050, 91.11328
1429.103, 176.4395
1430.155, 166.7656
1431.207, 373.0996
1432.259, 266.4355
1433.310, 318.7754
1434.362, 392.1758
1435.414, 404.9238
1436.465, 465.8672
1437.516, 406.3047
1438.567, 152.1445
1439.618, 294.4023
1440.669, 185.0234
1441.720, 126.6484
1442.770, 334.2773
1443.820, 326.9023
1444.871, 296.5273
1445.921, 195.1484
1446.971, 230.7852
1448.021, 382.4570
1449.070, 473.2227
1450.120, 386.9922
1451.169, 561.7539
1452.219, 246.5547
1453.268, 254.4180
1454.317, 305.2539
1455.366, 197.1211
1456.414, 311.9883
1457.463, 421.8633
1458.511, 344.7500
1459.560, 445.4492
1460.608, 446.5977
1461.656, 467.5469
1462.704, 460.5234
1463.752, 258.0312
1464.799, 323.9883
1465.847, 176.9414
1466.894, 44.07031
1467.941, 312.9688
1468.988, 97.01953
1470.035, 343.0234
1471.082, 238.9766
1472.129, 428.9453
1473.175, 615.9961
1474.222, 537.0625
1475.268, 290.0703
1476.314, 225.0859
1477.360, 250.4492
1478.406, 163.4023
1479.452, 241.3555
1480.498, 173.3398
1481.543, 164.3594
1482.588, 198.0625
1483.633, 326.4219
1484.679, 273.4648
1485.723, 287.5156
1486.768, 401.5781
1487.813, 210.6406
1488.857, 203.7344
1489.902, 4.160156
1490.946, 41.16016
1491.990, 376.4297
1493.034, 170.5703
1494.078, 176.7383
1495.122, 339.8164
1496.165, 270.9258
1497.209, 183.0586
1498.252, 101.2070
1499.295, 685.3711
1500.338, 228.5547
1501.381, 419.7266
1502.424, 418.9375
1503.466, 278.1797
1504.509, 212.4297
1505.551, 99.70703
1506.593, 193.9922
1507.635, 169.7031
1508.677, 67.61719
1509.719, 458.9492
1510.761, 424.2891
1511.802, 143.6406
1512.844, 491.0078
1513.885, 163.3789
1514.926, 281.8008
1515.967, 520.2656
1517.008, 162.5391
1518.049, 204.0391
1519.089, 252.5586
1520.130, 69.08594
1521.170, 3.285156
1522.210, 75.45312
1523.250, 303.2188
1524.290, 461.0117
1525.330, 278.8320
1526.370, 357.6797
1527.409, 464.6328
1528.448, 464.9766
1529.488, 455.2695
1530.527, 257.0000
1531.566, 287.1719
1532.605, 270.3984
1533.643, 62.67578
1534.682, 38.01172
1535.720, 263.4062
1536.759, 287.3164
1537.797, 147.8594
1538.835, 326.3086
1539.873, 187.6602
1540.910, 382.2656
1541.948, 201.7617
1542.986, 297.3672
1544.023, 287.5312
1545.060, 278.2695
1546.097, 253.7070
1547.134, 324.6758
1548.171, 132.3906
1549.208, 105.4141
1550.244, 54.53125
1551.281, 395.8125
1552.317, 378.9922
1553.353, 637.0117
1554.389, 548.5898
1555.425, 749.3164
1556.461, 470.3281
1557.497, 230.1758
1558.532, 99.26172
1559.567, 44.26953
1560.603, 4.453125
1561.638, 184.9805
1562.673, 77.10938
1563.708, 0.0000000E+00
##END=



