##NAMES=Microcline
##RRUFFID=R040154
##IDEAL CHEMISTRY=KAlSi_3_O_8_
##LOCALITY=Mitchell County, North Carolina, USA
##OWNER=RRUFF
##SOURCE=University of Arizona Mineral Museum
##DESCRIPTION=White cleavage fragment with some perthitic character
##STATUS=The identification of this mineral has been confirmed by X-ray diffraction and chemical analysis
##URL=rruff.info/R040154
##MEASURED CHEMISTRY=(K_0.90_Na_0.09_Ba_0.01_)Al_1.00_(Si_2.99_Al_0.01_)_Î£=3_O_8_
##PIN_ID=L00534
##ORIENTATION=Laser parallel to (1 1 0). Fiducial mark perpendicular to laser is parallel to c [0 0 1]
102.242, 0.000
103.636, 10.704
105.030, 1213.887
106.423, 3778.298
107.817, 6069.738
109.210, 7609.123
110.603, 8329.627
111.996, 7231.711
113.388, 5378.250
114.780, 3163.557
116.172, 1753.359
117.564, 645.603
118.956, 520.150
120.347, 625.708
121.738, 1259.700
123.129, 2229.895
124.519, 3684.698
125.910, 4882.963
127.300, 6043.858
128.690, 6536.777
130.080, 6251.439
131.469, 5712.004
132.858, 4522.373
134.248, 3490.607
135.636, 2244.853
137.025, 1612.354
138.413, 1329.033
139.801, 1253.132
141.189, 1214.913
142.577, 1534.592
143.964, 2212.353
145.352, 3098.367
146.739, 4262.806
148.125, 5695.832
149.512, 6247.592
150.898, 6808.222
152.284, 6467.832
153.670, 5876.523
155.056, 4784.662
156.441, 3853.356
157.827, 3043.137
159.212, 2581.337
160.596, 2220.049
161.981, 1843.495
163.365, 1556.129
164.749, 1307.017
166.133, 1211.680
167.517, 1206.441
168.900, 1340.229
170.283, 1720.698
171.666, 2411.966
173.049, 3310.327
174.431, 4650.486
175.813, 6041.030
177.195, 7291.477
178.577, 7961.754
179.959, 7741.859
181.340, 6931.801
182.721, 5671.585
184.102, 4351.234
185.483, 3140.762
186.863, 2360.193
188.244, 1699.683
189.624, 1379.298
191.003, 1289.078
192.383, 1229.048
193.762, 1369.214
195.141, 2019.579
196.520, 2440.139
197.899, 2830.887
199.277, 3021.812
200.656, 3002.905
202.034, 2664.153
203.411, 2085.536
204.789, 1437.041
206.166, 1090.968
207.543, 776.392
208.920, 433.819
210.297, 259.338
211.673, 154.615
213.049, 128.092
214.425, 14.000
215.801, 155.759
217.176, 274.648
218.552, 225.545
219.927, 262.469
221.302, 289.015
222.676, 282.378
224.051, 275.939
225.425, 323.369
226.799, 234.827
228.173, 230.128
229.546, 189.072
230.919, 295.048
232.292, 270.057
233.665, 267.100
235.038, 186.370
236.410, 163.446
237.782, 220.604
239.154, 144.802
240.526, 125.047
241.898, 48.344
243.269, 5.870
244.640, 213.482
246.011, 269.449
247.381, 511.631
248.752, 781.841
250.122, 1248.090
251.492, 1983.481
252.861, 2828.596
254.231, 3963.464
255.600, 5158.207
256.969, 6122.932
258.338, 6927.647
259.707, 7462.359
261.075, 8007.061
262.443, 8691.755
263.811, 9406.812
265.179, 10172.346
266.546, 10368.964
267.914, 10002.326
269.281, 8899.507
270.647, 7418.621
272.014, 6139.492
273.380, 4821.263
274.747, 4143.933
276.113, 3667.308
277.478, 3601.232
278.844, 4075.590
280.209, 4960.297
281.574, 6315.295
282.939, 7550.511
284.304, 8945.874
285.668, 9581.344
287.032, 9716.869
288.396, 8992.462
289.760, 7658.059
291.123, 6383.646
292.487, 5169.209
293.850, 4104.736
295.212, 3280.222
296.575, 2645.635
297.937, 2280.930
299.300, 1816.071
300.662, 1471.030
302.023, 1225.790
303.385, 870.353
304.746, 654.730
306.107, 528.933
307.468, 342.969
308.829, 176.846
310.189, 160.563
311.549, 45.195
312.909, 20.898
314.269, 20.739
315.629, 66.209
316.988, 66.658
318.347, 99.627
319.706, 8.104
321.065, 25.752
322.423, 36.419
323.781, 128.236
325.139, 149.503
326.497, 270.202
327.855, 340.354
329.212, 699.969
330.569, 889.161
331.926, 967.846
333.283, 906.114
334.639, 794.021
335.995, 611.648
337.351, 449.138
338.707, 226.586
340.063, 123.979
341.418, 81.303
342.773, 148.551
344.128, 45.734
345.483, 142.835
346.837, 59.871
348.192, 196.828
349.546, 193.729
350.899, 310.574
352.253, 527.371
353.606, 674.129
354.960, 820.844
356.313, 997.516
357.665, 964.144
359.018, 990.727
360.370, 757.264
361.722, 713.754
363.074, 600.196
364.426, 446.592
365.777, 412.943
367.128, 499.260
368.479, 585.548
369.830, 851.802
371.181, 1047.972
372.531, 1133.988
373.881, 1159.830
375.231, 1115.440
376.581, 830.864
377.930, 693.301
379.280, 498.135
380.629, 305.777
381.977, 256.350
383.326, 54.504
384.674, 60.809
386.023, 7.140
387.370, 43.426
388.718, 3.678
390.066, 74.538
391.413, 122.916
392.760, 193.760
394.107, 247.846
395.454, 513.398
396.800, 729.038
398.146, 1139.643
399.492, 1811.589
400.838, 2899.853
402.184, 3432.779
403.529, 3766.853
404.874, 3935.469
406.219, 3277.029
407.564, 2850.941
408.908, 2434.752
410.252, 2378.475
411.596, 2492.156
412.940, 2565.812
414.284, 2239.450
415.627, 1893.067
416.970, 1226.667
418.313, 870.250
419.656, 573.814
420.999, 297.363
422.341, 180.895
423.683, 154.407
425.025, 187.898
426.367, 71.370
427.708, 144.813
429.049, 188.229
430.390, 151.634
431.731, 245.012
433.072, 208.354
434.412, 361.652
435.752, 425.199
437.092, 628.438
438.432, 691.619
439.772, 924.988
441.111, 979.526
442.450, 1456.867
443.789, 1930.887
445.127, 2313.718
446.466, 3286.791
447.804, 4559.494
449.142, 6340.766
450.480, 9013.373
451.817, 11296.116
453.155, 13728.942
454.492, 14601.462
455.829, 14144.260
457.166, 12366.800
458.502, 10289.104
459.838, 8571.337
461.175, 7133.352
462.510, 6335.320
463.846, 6277.217
465.181, 6339.038
466.517, 7080.791
467.852, 8422.484
469.186, 10734.113
470.521, 13884.216
471.855, 18313.682
473.190, 22858.365
474.523, 26961.463
475.857, 28384.314
477.191, 28161.506
478.524, 25286.297
479.857, 21590.938
481.190, 17691.092
482.523, 14869.927
483.855, 12752.301
485.187, 10938.615
486.519, 9025.496
487.851, 7875.203
489.183, 6255.685
490.514, 5196.449
491.845, 4497.174
493.176, 4077.860
494.507, 3738.512
495.837, 3763.061
497.168, 3939.717
498.498, 4490.270
499.828, 5068.321
501.157, 6143.229
502.487, 7496.330
503.816, 9541.977
505.145, 12563.252
506.474, 16718.578
507.802, 22700.459
509.131, 29947.299
510.459, 38974.004
511.787, 47603.043
513.115, 52693.270
514.442, 52673.477
515.770, 49723.648
517.097, 41953.789
518.424, 33173.906
519.750, 25103.992
521.077, 18984.172
522.403, 14414.370
523.729, 11354.689
525.055, 8715.936
526.381, 6999.465
527.706, 6094.236
529.031, 4971.223
530.356, 4278.821
531.681, 3642.588
533.006, 3296.324
534.330, 2806.312
535.654, 2556.346
536.978, 2084.119
538.302, 2074.986
539.625, 1730.004
540.949, 1688.820
542.272, 1397.255
543.595, 1360.111
544.917, 1198.703
546.240, 1100.327
547.562, 994.872
548.884, 787.210
550.206, 893.576
551.527, 791.568
552.849, 770.939
554.170, 571.072
555.491, 611.752
556.812, 582.498
558.132, 663.288
559.453, 304.126
560.773, 535.024
562.093, 345.957
563.412, 426.928
564.732, 387.906
566.051, 358.903
567.370, 289.882
568.689, 371.063
570.008, 222.021
571.326, 422.979
572.644, 223.926
573.963, 414.854
575.280, 315.768
576.598, 456.668
577.915, 597.553
579.233, 598.421
580.550, 719.292
581.866, 743.991
583.183, 830.107
584.499, 760.585
585.815, 730.034
587.131, 660.217
588.447, 490.636
589.763, 390.876
591.078, 221.536
592.393, 122.023
593.708, 22.785
595.022, 83.529
596.337, 84.257
597.651, 24.972
598.965, 44.331
600.279, 93.646
601.593, 33.016
602.906, 117.588
604.219, 18.177
605.532, 90.189
606.845, 160.692
608.158, 79.776
609.470, 30.231
610.782, 0.670
612.094, 51.093
613.406, 8.500
614.718, 11.892
616.029, 52.268
617.340, 52.629
618.651, 142.978
619.962, 83.316
621.272, 83.643
622.582, 93.957
623.892, 204.262
625.202, 324.556
626.512, 304.840
627.821, 305.112
629.131, 435.386
630.440, 675.658
631.749, 585.953
633.057, 716.279
634.366, 636.633
635.674, 577.042
636.982, 827.473
638.290, 927.967
639.597, 1098.503
640.905, 1259.086
642.212, 1519.700
643.519, 1580.329
644.825, 1980.969
646.132, 2071.608
647.438, 2482.241
648.744, 2852.867
650.050, 3223.488
651.356, 3304.102
652.662, 3244.707
653.967, 3225.308
655.272, 2835.901
656.577, 2616.489
657.882, 2187.082
659.186, 1847.694
660.490, 1498.334
661.794, 1398.989
663.098, 1069.681
664.402, 930.388
665.705, 701.128
667.009, 621.878
668.312, 542.639
669.614, 493.400
670.917, 334.156
672.219, 224.908
673.522, 125.654
674.824, 86.394
676.125, 97.129
677.427, 57.860
678.728, 48.583
680.030, 12.181
681.331, 29.988
682.631, 69.297
683.932, 83.016
685.232, 117.672
686.532, 127.507
687.832, 66.369
689.132, 65.946
690.432, 44.609
691.731, 43.343
693.030, 126.235
694.329, 15.939
695.628, 79.924
696.926, 23.153
698.224, 3.447
699.522, 89.840
700.820, 69.912
702.118, 110.437
703.415, 10.691
704.713, 130.965
706.010, 226.108
707.307, 315.729
708.603, 246.218
709.900, 187.242
711.196, 456.451
712.492, 356.926
713.788, 527.203
715.083, 229.715
716.379, 421.669
717.674, 561.910
718.969, 194.006
720.264, 414.222
721.558, 208.970
722.853, 259.161
724.147, 92.172
725.441, 322.421
726.735, 446.221
728.028, 307.041
729.322, 377.164
730.615, 487.274
731.908, 488.297
733.201, 768.398
734.493, 678.470
735.785, 1152.813
737.078, 1122.857
738.370, 1252.891
739.661, 1892.911
740.953, 2172.920
742.244, 2483.093
743.535, 3423.086
744.826, 4303.037
746.117, 5703.008
747.407, 7012.965
748.698, 7795.021
749.988, 8384.654
751.278, 7794.530
752.567, 6925.102
753.857, 5984.706
755.146, 4876.936
756.435, 3862.420
757.724, 3101.146
759.013, 2790.984
760.301, 2340.502
761.590, 1980.309
762.878, 1851.463
764.165, 1821.203
765.453, 1560.725
766.741, 1230.086
768.028, 1289.676
769.315, 1128.902
770.602, 968.307
771.888, 947.869
773.175, 817.422
774.461, 617.115
775.747, 736.777
777.033, 436.432
778.319, 546.090
779.604, 295.732
780.889, 405.367
782.174, 314.990
783.459, 214.602
784.744, 404.201
786.028, 363.789
787.312, 355.305
788.596, 772.930
789.880, 412.484
791.164, 322.027
792.447, 561.555
793.730, 411.072
795.013, 430.576
796.296, 490.068
797.579, 299.547
798.861, 529.014
800.143, 438.467
801.425, 347.906
802.707, 707.334
803.989, 616.748
805.270, 986.150
806.551, 1125.539
807.832, 1394.914
809.113, 1884.277
810.394, 2303.629
811.674, 3012.965
812.954, 3442.291
814.234, 3571.604
815.514, 3530.904
816.794, 2580.191
818.073, 2279.463
819.352, 1758.725
820.631, 1367.973
821.910, 957.209
823.189, 746.430
824.467, 585.637
825.745, 434.832
827.023, 444.014
828.301, 343.184
829.578, 302.340
830.856, 381.484
832.133, 190.494
833.410, 219.453
834.687, 268.246
835.963, 145.842
837.240, 270.932
838.516, 185.117
839.792, 127.092
841.068, 28.414
842.343, 183.525
843.618, 58.631
844.894, 102.553
846.169, 86.146
847.443, 167.074
848.718, 65.111
849.992, 21.537
851.266, 66.928
852.540, 74.754
853.814, 213.893
855.088, 47.668
856.361, 136.373
857.634, 114.635
858.907, 56.678
860.180, 128.047
861.453, 30.500
862.725, 9.033
863.997, 122.453
865.269, 25.977
866.541, 134.393
867.812, 17.199
869.084, 8.820
870.355, 179.531
871.626, 12.127
872.897, 166.189
874.167, 55.504
875.438, 92.754
876.708, 28.998
877.978, 39.010
879.248, 42.781
880.517, 5.381
881.787, 173.529
883.056, 81.668
884.325, 0.197
885.594, 47.918
886.862, 196.025
888.130, 55.873
889.399, 102.180
890.667, 50.227
891.934, 58.268
893.202, 116.303
894.469, 14.336
895.737, 72.357
897.004, 149.629
898.270, 68.295
899.537, 56.211
900.803, 25.879
902.070, 222.008
903.336, 119.889
904.601, 2.230
905.867, 245.639
907.132, 56.500
908.398, 81.332
909.663, 79.178
910.928, 137.025
912.192, 174.867
913.457, 122.707
914.721, 140.549
915.985, 198.428
917.249, 186.301
918.512, 114.174
919.776, 32.041
921.039, 239.920
922.302, 167.797
923.565, 185.674
924.827, 83.547
926.090, 191.418
927.352, 219.287
928.614, 427.154
929.876, 105.018
931.138, 362.881
932.399, 280.740
933.660, 308.598
934.922, 316.455
936.182, 324.309
937.443, 72.168
938.704, 320.023
939.964, 127.879
941.224, 305.732
942.484, 343.586
943.744, 191.439
945.003, 159.289
946.262, 107.143
947.521, 404.996
948.780, 292.848
950.039, 280.701
951.298, 528.555
952.556, 176.410
953.814, 394.264
955.072, 502.119
956.330, 319.977
957.587, 347.834
958.845, 325.695
960.102, 263.557
961.359, 461.420
962.615, 239.285
963.872, 607.154
965.128, 225.027
966.384, 462.900
967.640, 280.779
968.896, 368.660
970.152, 516.547
971.407, 354.441
972.662, 452.340
973.917, 530.244
975.172, 568.162
976.427, 466.080
977.681, 563.992
978.935, 571.904
980.189, 769.816
981.443, 697.727
982.697, 855.635
983.950, 1053.545
985.203, 741.451
986.456, 1349.359
987.709, 1287.275
988.962, 1545.211
990.214, 2063.168
991.467, 2191.156
992.719, 2768.506
993.971, 3236.547
995.222, 3144.438
996.474, 3314.146
997.725, 2892.164
998.976, 2900.273
1000.227, 2492.654
1001.478, 2007.949
1002.728, 2306.031
1003.978, 2058.020
1005.229, 1826.184
1006.479, 1624.252
1007.728, 1342.451
1008.978, 1270.660
1010.227, 1264.031
1011.476, 922.939
1012.725, 950.992
1013.974, 838.510
1015.223, 717.848
1016.471, 765.918
1017.719, 714.182
1018.967, 700.211
1020.215, 786.793
1021.462, 665.088
1022.710, 801.527
1023.957, 699.842
1025.204, 883.627
1026.451, 1021.963
1027.697, 877.479
1028.944, 935.754
1030.190, 1000.477
1031.436, 808.180
1032.682, 836.578
1033.928, 944.988
1035.173, 902.486
1036.418, 920.904
1037.663, 869.355
1038.908, 883.531
1040.153, 882.010
1041.398, 910.502
1042.642, 1119.010
1043.886, 818.180
1045.130, 1066.547
1046.374, 905.111
1047.617, 1003.707
1048.860, 1292.287
1050.104, 1260.885
1051.347, 1357.887
1052.589, 1536.516
1053.832, 1335.893
1055.074, 1253.852
1056.316, 1012.529
1057.558, 1057.363
1058.800, 1126.080
1060.042, 654.812
1061.283, 763.570
1062.524, 792.346
1063.765, 453.324
1065.006, 622.141
1066.247, 380.979
1067.487, 599.834
1068.728, 338.717
1069.968, 360.365
1071.208, 489.291
1072.447, 558.240
1073.687, 407.215
1074.926, 556.211
1076.165, 425.232
1077.404, 594.279
1078.643, 593.352
1079.881, 492.451
1081.120, 761.576
1082.358, 480.729
1083.596, 619.910
1084.834, 769.107
1086.071, 558.980
1087.309, 908.236
1088.546, 1027.514
1089.783, 926.809
1091.020, 1016.135
1092.256, 965.494
1093.493, 1264.885
1094.729, 1604.264
1095.965, 1523.676
1097.201, 1803.123
1098.436, 1712.537
1099.672, 1771.982
1100.907, 1821.461
1102.142, 1640.973
1103.377, 1840.520
1104.612, 1630.100
1105.846, 1439.693
1107.081, 1689.318
1108.315, 1758.980
1109.549, 1558.680
1110.782, 1898.416
1112.016, 1808.199
1113.249, 2248.031
1114.483, 2567.914
1115.716, 2577.852
1116.948, 3307.854
1118.181, 3597.928
1119.413, 4468.820
1120.646, 5499.062
1121.878, 5879.416
1123.110, 6871.115
1124.341, 7429.760
1125.573, 7128.492
1126.804, 6977.236
1128.035, 5825.996
1129.266, 5594.773
1130.497, 4793.562
1131.727, 4442.371
1132.957, 4321.195
1134.188, 4310.041
1135.418, 4168.979
1136.647, 4697.961
1137.877, 4397.016
1139.106, 4846.148
1140.335, 4615.297
1141.564, 4204.488
1142.793, 3933.816
1144.022, 3293.221
1145.250, 3042.695
1146.479, 2362.229
1147.707, 2101.807
1148.934, 1761.445
1150.162, 1261.152
1151.390, 1100.922
1152.617, 1270.748
1153.844, 1110.611
1155.071, 780.510
1156.298, 770.486
1157.524, 630.492
1158.751, 520.523
1159.977, 520.645
1161.203, 120.857
1162.428, 781.123
1163.654, 161.424
1164.879, 371.789
1166.105, 292.215
1167.330, 272.676
1168.555, 333.148
1169.779, 343.658
1171.004, 134.189
1172.228, 284.736
1173.452, 45.320
1174.676, 335.941
1175.900, 316.598
1177.123, 7.291
1178.346, 278.021
1179.570, 228.775
1180.793, 9.568
1182.015, 180.396
1183.238, 211.258
1184.460, 102.156
1185.683, 243.094
1186.905, 4.066
1188.126, 65.074
1189.348, 266.119
1190.569, 32.801
1191.791, 228.312
1193.012, 0.541
1194.233, 120.633
1195.453, 171.832
1196.674, 33.043
1197.894, 25.736
1199.114, 185.564
1200.334, 33.053
1201.554, 278.420
1202.774, 9.984
1203.993, 131.639
1205.212, 363.383
1206.431, 25.223
1207.650, 367.154
1208.869, 259.176
1210.087, 68.715
1211.305, 373.486
1212.524, 135.777
1213.741, 338.162
1214.959, 250.639
1216.177, 76.789
1217.394, 185.871
1218.611, 368.633
1219.828, 181.484
1221.045, 304.439
1222.261, 277.498
1223.478, 170.666
1224.694, 503.949
1225.910, 317.348
1227.126, 160.877
1228.342, 434.535
1229.557, 178.328
1230.772, 379.879
1231.987, 16.154
1233.202, 478.021
1234.417, 630.352
1235.631, 121.746
1236.846, 346.285
1238.060, 171.006
1239.274, 425.910
1240.488, 320.373
1241.701, 315.225
1242.915, 270.244
1244.128, 470.170
1245.341, 274.799
1246.554, 299.535
1247.767, 394.369
1248.979, 189.289
1250.191, 404.275
1251.403, 444.516
1252.615, 69.504
1253.827, 504.789
1255.039, 180.035
1256.250, 156.145
1257.461, 473.057
1258.672, 431.064
1259.883, 459.596
1261.094, 329.164
1262.304, 290.207
1263.514, 602.846
1264.724, 2.604
1265.934, 524.418
1267.144, 654.654
1268.354, 0.002
1269.563, 0.000
##END=



