##NAMES=Microcline
##RRUFFID=R050054
##IDEAL CHEMISTRY=KAlSi_3_O_8_
##LOCALITY=Kenticha, Negele area, Sidamo Province, Ethiopia
##OWNER=RRUFF
##SOURCE=Rock Currier
##DESCRIPTION=Light blue single crystal
##STATUS=The identification of this mineral has been confirmed by X-ray diffraction and chemical analysis
##URL=rruff.info/R050054
##MEASURED CHEMISTRY=(K_0.96_Na_0.04_)Al_1.00_Si_3.00_O_8_
##PIN_ID=M00460
##ORIENTATION=Laser parallel to (0 1 1). Fiducial mark perpendicular to laser is parallel to -a [-1 0 0]
97.121, 0.000
98.519, 125.419
99.917, 20.489
101.314, 111.292
102.712, 532.496
104.109, 1473.451
105.505, 2835.581
106.902, 4290.277
108.298, 5995.291
109.694, 7367.997
111.090, 8006.180
112.486, 6728.737
113.881, 4826.848
115.277, 2873.163
116.672, 1474.528
118.066, 846.894
119.461, 588.735
120.855, 624.052
122.249, 1302.196
123.643, 2351.746
125.036, 3851.501
126.430, 5105.071
127.823, 6454.571
129.216, 7022.943
130.608, 6878.147
132.001, 5798.692
133.393, 4271.724
134.785, 3172.755
136.176, 2195.464
137.568, 1910.572
138.959, 1973.509
140.350, 2705.688
141.741, 3387.496
143.131, 3552.275
144.521, 3435.322
145.911, 3465.892
147.301, 4011.211
148.691, 4998.475
150.080, 6314.885
151.469, 7619.859
152.858, 7954.982
154.247, 8274.055
155.635, 8604.862
157.024, 9683.272
158.411, 10492.396
159.799, 10770.012
161.187, 9924.638
162.574, 8330.648
163.961, 6617.640
165.348, 4987.867
166.734, 4048.074
168.121, 3148.750
169.507, 2661.765
170.893, 2499.572
172.278, 2475.034
173.664, 2851.713
175.049, 3463.637
176.434, 4526.163
177.819, 5656.472
179.203, 7025.573
180.587, 7934.647
181.971, 7934.033
183.355, 6883.751
184.739, 5311.810
186.122, 4131.193
187.505, 3004.871
188.888, 2248.808
190.271, 1834.990
191.653, 1466.394
193.035, 1496.000
194.417, 1519.788
195.799, 1912.740
197.180, 2408.834
198.562, 3130.049
199.943, 3905.362
201.324, 4251.750
202.704, 4026.288
204.084, 3100.928
205.465, 2281.513
206.844, 1596.679
208.224, 1077.701
209.603, 779.378
210.983, 417.646
212.362, 304.804
213.740, 104.038
215.119, 10.425
216.497, 48.304
217.875, 150.160
219.253, 105.829
220.631, 208.391
222.008, 202.812
223.385, 185.820
224.762, 191.736
226.139, 182.891
227.515, 184.290
228.891, 201.722
230.267, 214.712
231.643, 206.402
233.018, 221.664
234.394, 192.420
235.769, 183.251
237.144, 164.223
238.518, 150.411
239.893, 103.501
241.267, 52.440
242.641, 22.598
244.014, 80.044
245.388, 222.108
246.761, 288.669
248.134, 421.590
249.507, 694.597
250.879, 1026.701
252.252, 1531.457
253.624, 2287.005
254.996, 3411.445
256.367, 4661.821
257.739, 6250.181
259.110, 7367.531
260.481, 8100.871
261.852, 8155.843
263.222, 8206.536
264.592, 9115.674
265.962, 9994.339
267.332, 10984.922
268.702, 11035.722
270.071, 10156.449
271.440, 8677.237
272.809, 7007.915
274.178, 5803.403
275.546, 4746.436
276.915, 4256.943
278.283, 4043.280
279.650, 4348.490
281.018, 5251.543
282.385, 6666.415
283.752, 8733.092
285.119, 10831.563
286.486, 12989.821
287.852, 13787.876
289.218, 13115.728
290.584, 11273.373
291.950, 8820.812
293.316, 6739.013
294.681, 5113.938
296.046, 3844.555
297.411, 3030.838
298.775, 2376.777
300.140, 2007.378
301.504, 1689.659
302.868, 1371.639
304.231, 1103.336
305.595, 957.766
306.958, 791.942
308.321, 619.873
309.684, 491.567
311.047, 407.033
312.409, 327.278
313.771, 334.308
315.133, 254.131
316.495, 251.749
317.856, 180.162
319.217, 207.307
320.578, 210.090
321.939, 247.340
323.299, 248.931
324.660, 304.788
326.020, 426.967
327.380, 593.509
328.739, 809.412
330.099, 1202.702
331.458, 1570.440
332.817, 2003.690
334.176, 2041.565
335.534, 1861.225
336.892, 1440.756
338.251, 1085.207
339.608, 741.617
340.966, 626.985
342.323, 490.310
343.681, 376.589
345.037, 319.821
346.394, 263.003
347.751, 248.132
349.107, 283.206
350.463, 266.224
351.819, 361.186
353.174, 421.281
354.530, 500.944
355.885, 642.740
357.240, 724.483
358.594, 753.310
359.949, 797.810
361.303, 741.395
362.657, 667.925
364.011, 573.399
365.365, 565.816
366.718, 541.168
368.071, 569.438
369.424, 782.616
370.777, 1047.701
372.129, 1351.269
373.481, 1749.502
374.833, 1965.363
376.185, 1755.944
377.537, 1354.810
378.888, 1021.856
380.239, 712.313
381.590, 548.468
382.941, 357.489
384.291, 278.137
385.642, 191.181
386.992, 119.329
388.341, 86.152
389.691, 46.762
391.040, 48.958
392.389, 44.310
393.738, 79.903
395.087, 149.073
396.435, 88.338
397.784, 263.497
399.132, 403.303
400.479, 725.378
401.827, 1166.396
403.174, 1737.438
404.521, 2237.761
405.868, 2385.784
407.215, 2050.918
408.561, 1607.584
409.908, 1470.090
411.254, 1458.729
412.599, 1598.786
413.945, 1912.252
415.290, 1831.790
416.636, 1558.322
417.980, 1096.847
419.325, 665.365
420.670, 398.875
422.014, 179.380
423.358, 119.875
424.702, 60.352
426.045, 18.253
427.389, 35.936
428.732, 17.697
430.075, 13.542
431.417, 11.525
432.760, 17.508
434.102, 50.406
435.444, 89.219
436.786, 181.951
438.127, 285.603
439.469, 390.179
440.810, 520.681
442.151, 667.126
443.492, 988.200
444.832, 1182.960
446.172, 1690.186
447.512, 2262.350
448.852, 3246.010
450.192, 4649.077
451.531, 6648.238
452.870, 9076.207
454.209, 11517.421
455.548, 13429.144
456.887, 13489.834
458.225, 11930.460
459.563, 9861.135
460.901, 7691.662
462.238, 6098.075
463.576, 4968.431
464.913, 4441.729
466.250, 4259.971
467.587, 4333.836
468.923, 4830.954
470.259, 5692.299
471.596, 7214.058
472.931, 9375.354
474.267, 12501.943
475.603, 15738.545
476.938, 17854.439
478.273, 18540.275
479.608, 17325.330
480.942, 14640.691
482.276, 12366.058
483.611, 10731.725
484.944, 9637.378
486.278, 8743.485
487.612, 7770.511
488.945, 6466.220
490.278, 5078.820
491.611, 4081.248
492.943, 3370.655
494.276, 3008.043
495.608, 2838.415
496.940, 2732.770
498.271, 2796.110
499.603, 3059.434
500.934, 3510.769
502.265, 4126.631
503.596, 4843.927
504.927, 6292.752
506.257, 8059.236
507.587, 10795.269
508.917, 14651.200
510.247, 19857.453
511.577, 27453.584
512.906, 35420.391
514.235, 42947.453
515.564, 45974.859
516.892, 43482.855
518.221, 37671.223
519.549, 29309.697
520.877, 22548.375
522.205, 16976.826
523.533, 13034.979
524.860, 9932.829
526.187, 7761.108
527.514, 6375.175
528.841, 5219.068
530.167, 4237.039
531.493, 3667.619
532.820, 3048.628
534.145, 2686.013
535.471, 2274.260
536.796, 2056.371
538.122, 1812.452
539.447, 1646.187
540.771, 1474.964
542.096, 1307.089
543.420, 1212.442
544.744, 1038.328
546.068, 1003.211
547.392, 926.131
548.715, 827.146
550.039, 775.067
551.362, 716.476
552.684, 621.137
554.007, 555.225
555.329, 522.805
556.652, 492.346
557.973, 448.192
559.295, 414.053
560.617, 379.720
561.938, 357.489
563.259, 319.330
564.580, 280.243
565.901, 293.198
567.221, 298.189
568.541, 280.202
569.861, 312.234
571.181, 234.276
572.501, 266.326
573.820, 261.373
575.139, 265.415
576.458, 317.467
577.777, 318.515
579.095, 396.568
580.414, 443.617
581.732, 560.958
583.049, 667.063
584.367, 788.931
585.685, 780.863
587.002, 885.435
588.319, 682.862
589.636, 582.354
590.952, 404.108
592.268, 312.907
593.585, 214.860
594.900, 137.998
596.216, 122.539
597.532, 48.533
598.847, 25.598
600.162, 15.662
601.477, 27.273
602.792, 18.215
604.106, 14.839
605.420, 11.892
606.734, 22.055
608.048, 65.008
609.361, 6.979
610.675, 37.950
611.988, 14.932
613.301, 33.917
614.614, 9.089
615.926, 10.096
617.238, 1.896
618.550, 4.112
619.862, 55.120
621.174, 66.131
622.485, 101.144
623.797, 122.159
625.108, 225.177
626.418, 238.199
627.729, 302.228
629.039, 420.268
630.349, 439.321
631.659, 552.389
632.969, 566.474
634.279, 559.577
635.588, 590.701
636.897, 563.845
638.206, 638.014
639.515, 680.206
640.823, 779.420
642.131, 972.656
643.439, 1093.913
644.747, 1262.189
646.055, 1419.481
647.362, 1675.785
648.669, 1903.098
649.976, 2137.415
651.283, 2469.738
652.589, 2658.065
653.896, 2755.397
655.202, 2841.735
656.508, 2615.078
657.814, 2375.425
659.119, 1980.783
660.424, 1775.151
661.729, 1459.533
663.034, 1254.929
664.339, 983.343
665.643, 802.775
666.947, 611.226
668.251, 530.695
669.555, 394.181
670.859, 352.683
672.162, 259.199
673.465, 192.727
674.768, 198.264
676.071, 97.810
677.373, 103.364
678.676, 72.924
679.978, 40.492
681.280, 14.069
682.581, 0.345
683.883, 3.245
685.184, 13.160
686.485, 16.307
687.786, 21.348
689.087, 50.397
690.387, 57.214
691.687, 91.311
692.987, 87.821
694.287, 104.372
695.586, 114.220
696.886, 102.568
698.185, 99.269
699.484, 77.897
700.783, 52.580
702.081, 54.871
703.379, 76.660
704.677, 0.782
705.975, 19.225
707.273, 1.922
708.570, 49.611
709.868, 115.642
711.165, 120.629
712.462, 175.455
713.758, 200.926
715.055, 194.161
716.351, 192.782
717.647, 181.870
718.943, 145.191
720.238, 140.514
721.533, 110.305
722.829, 157.670
724.124, 90.150
725.418, 187.567
726.713, 178.412
728.007, 206.231
729.301, 248.579
730.595, 228.734
731.889, 380.349
733.182, 410.742
734.476, 478.255
735.769, 628.573
737.061, 708.099
738.354, 914.541
739.647, 1157.780
740.939, 1382.859
742.231, 1720.082
743.523, 2227.580
744.814, 2818.729
746.106, 3815.363
747.397, 4821.954
748.688, 6181.911
749.978, 7273.901
751.269, 7647.070
752.559, 7409.411
753.849, 6557.878
755.139, 5473.226
756.429, 4356.607
757.719, 3441.315
759.008, 2727.088
760.297, 2206.295
761.586, 1828.256
762.875, 1544.902
764.163, 1361.881
765.451, 1258.201
766.739, 1075.088
768.027, 1061.643
769.315, 979.596
770.602, 893.514
771.890, 828.405
773.177, 659.177
774.463, 644.023
775.750, 567.915
777.036, 486.797
778.323, 474.671
779.609, 413.536
780.894, 399.392
782.180, 336.239
783.465, 333.076
784.750, 289.905
786.035, 287.724
787.320, 300.534
788.605, 273.334
789.889, 305.125
791.173, 358.906
792.457, 374.678
793.741, 429.439
795.024, 438.191
796.307, 435.932
797.591, 478.709
798.873, 515.695
800.156, 519.093
801.439, 647.792
802.721, 644.481
804.003, 753.159
805.285, 951.826
806.566, 1082.482
807.848, 1457.127
809.129, 1815.762
810.410, 2447.385
811.691, 3305.998
812.971, 4092.598
814.252, 5072.188
815.532, 5461.768
816.812, 5345.336
818.092, 4595.891
819.371, 3611.437
820.651, 2809.970
821.930, 2074.491
823.209, 1646.002
824.488, 1190.500
825.766, 944.986
827.045, 777.460
828.323, 627.922
829.601, 519.373
830.878, 490.810
832.156, 403.236
833.433, 353.650
834.710, 282.051
835.987, 292.356
837.264, 226.198
838.540, 226.149
839.817, 215.384
841.093, 187.434
842.369, 161.212
843.644, 156.541
844.920, 113.481
846.195, 100.554
847.470, 103.766
848.745, 85.028
850.020, 76.850
851.294, 79.937
852.568, 48.337
853.842, 47.854
855.116, 23.703
856.390, 57.381
857.663, 25.835
858.936, 8.181
860.209, 30.546
861.482, 3.300
862.755, 5.827
864.027, 6.936
865.299, 7.973
866.571, 23.095
867.843, 2.151
869.115, 17.187
870.386, 45.790
871.657, 30.190
872.928, 33.841
874.199, 11.092
875.470, 17.991
876.740, 3.102
878.010, 2.234
879.280, 8.613
880.550, 9.556
881.820, 25.252
883.089, 45.048
884.358, 40.164
885.627, 21.584
886.896, 22.680
888.164, 24.027
889.433, 14.723
890.701, 17.406
891.969, 27.077
893.236, 33.262
894.504, 27.365
895.771, 7.019
897.038, 32.575
898.305, 26.839
899.572, 9.285
900.838, 1.248
902.105, 16.674
903.371, 28.253
904.637, 6.267
905.902, 8.806
907.168, 15.634
908.433, 13.062
909.698, 11.479
910.963, 17.888
912.228, 18.490
913.492, 51.680
914.757, 16.063
916.021, 27.440
917.285, 3.820
918.548, 33.187
919.812, 35.552
921.075, 39.913
922.338, 36.270
923.601, 49.147
924.864, 59.963
926.126, 61.300
927.388, 74.630
928.650, 56.953
929.912, 59.269
931.174, 76.579
932.435, 65.883
933.697, 79.180
934.958, 94.471
936.218, 77.755
937.479, 115.032
938.739, 68.304
940.000, 120.570
941.260, 61.829
942.520, 105.082
943.779, 97.329
945.039, 105.570
946.298, 167.805
947.557, 131.034
948.816, 107.257
950.074, 157.474
951.333, 161.685
952.591, 182.890
953.849, 207.090
955.107, 163.284
956.365, 208.473
957.622, 192.656
958.879, 238.834
960.136, 220.007
961.393, 227.175
962.650, 236.338
963.906, 239.496
965.162, 190.650
966.418, 229.798
967.674, 231.942
968.930, 243.081
970.185, 306.215
971.441, 262.345
972.696, 287.471
973.950, 355.593
975.205, 302.710
976.459, 366.822
977.714, 393.931
978.968, 393.035
980.222, 457.135
981.475, 439.234
982.729, 570.328
983.982, 559.420
985.235, 652.507
986.488, 770.591
987.740, 878.671
988.993, 1104.751
990.245, 1383.831
991.497, 1631.914
992.749, 2117.000
994.000, 2539.091
995.252, 2957.195
996.503, 3231.312
997.754, 3225.448
999.005, 3152.605
1000.256, 2854.762
1001.506, 2590.940
1002.756, 2450.176
1004.006, 2238.317
1005.256, 2146.504
1006.506, 1997.292
1007.755, 1706.575
1009.005, 1507.615
1010.254, 1264.110
1011.502, 1108.305
1012.751, 973.274
1014.000, 828.752
1015.248, 768.299
1016.496, 654.015
1017.744, 608.094
1018.991, 580.431
1020.239, 514.377
1021.486, 505.859
1022.733, 536.105
1023.980, 485.343
1025.227, 496.115
1026.473, 489.308
1027.719, 514.378
1028.965, 592.505
1030.211, 570.196
1031.457, 596.906
1032.702, 583.087
1033.948, 554.453
1035.193, 640.352
1036.438, 669.467
1037.682, 641.455
1038.927, 766.631
1040.171, 949.594
1041.415, 1109.636
1042.659, 992.879
1043.903, 1170.281
1045.146, 990.539
1046.390, 670.533
1047.633, 555.877
1048.876, 546.737
1050.118, 527.640
1051.361, 577.175
1052.603, 560.675
1053.845, 603.995
1055.087, 579.137
1056.329, 499.176
1057.571, 394.300
1058.812, 345.367
1060.053, 286.169
1061.294, 275.605
1062.535, 206.830
1063.775, 171.283
1065.016, 138.481
1066.256, 137.219
1067.496, 164.093
1068.736, 115.516
1069.975, 122.953
1071.214, 153.413
1072.454, 90.862
1073.693, 111.338
1074.931, 117.815
1076.170, 152.322
1077.408, 184.805
1078.647, 162.299
1079.885, 223.017
1081.122, 243.541
1082.360, 221.188
1083.597, 295.702
1084.835, 266.219
1086.072, 332.749
1087.308, 379.285
1088.545, 429.073
1089.781, 369.619
1091.018, 545.167
1092.254, 574.718
1093.490, 684.273
1094.725, 799.830
1095.961, 873.391
1097.196, 1108.956
1098.431, 1240.522
1099.666, 1420.092
1100.900, 1404.664
1102.135, 1449.240
1103.369, 1370.820
1104.603, 1322.402
1105.837, 1249.050
1107.071, 1147.696
1108.304, 998.290
1109.538, 995.011
1110.771, 1006.610
1112.004, 965.232
1113.236, 1099.902
1114.469, 1200.510
1115.701, 1288.260
1116.933, 1490.875
1118.165, 1679.493
1119.397, 1982.184
1120.629, 2426.889
1121.860, 2905.639
1123.091, 3521.270
1124.322, 3781.903
1125.553, 4222.538
1126.783, 4179.178
1128.014, 3986.844
1129.244, 3610.946
1130.474, 3270.704
1131.704, 2956.457
1132.933, 2843.165
1134.163, 2744.819
1135.392, 2943.477
1136.621, 3069.229
1137.850, 3297.910
1139.079, 3636.848
1140.307, 3565.713
1141.535, 3641.466
1142.763, 3352.811
1143.991, 2963.644
1145.219, 2602.328
1146.446, 2142.229
1147.674, 1805.072
1148.901, 1520.657
1150.128, 1312.513
1151.354, 1034.370
1152.581, 935.922
1153.807, 758.728
1155.033, 697.324
1156.259, 575.139
1157.485, 503.914
1158.710, 452.524
1159.936, 395.640
1161.161, 357.425
1162.386, 338.629
1163.611, 286.254
1164.835, 293.136
1166.060, 303.221
1167.284, 208.997
1168.508, 207.386
1169.732, 165.537
1170.955, 183.753
1172.179, 178.366
1173.402, 189.247
1174.625, 182.012
1175.848, 200.783
1177.070, 117.558
1178.293, 202.335
1179.515, 126.384
1180.737, 135.168
1181.959, 123.108
1183.181, 110.958
1184.402, 133.885
1185.624, 89.867
1186.845, 80.680
1188.066, 122.507
1189.286, 58.596
1190.507, 21.489
1191.727, 74.402
1192.947, 59.174
1194.167, 75.103
1195.387, 85.081
1196.607, 67.395
1197.826, 85.084
1199.045, 40.979
1200.264, 28.892
1201.483, 16.935
1202.702, 3.076
1203.920, 42.937
1205.138, 2.136
1206.356, 19.145
1207.574, 62.072
1208.792, 23.045
1210.009, 9.006
1211.227, 1.963
1212.444, 16.692
1213.661, 30.270
1214.877, 56.313
1216.094, 33.304
1217.310, 53.206
1218.526, 66.065
1219.742, 66.982
1220.958, 50.801
1222.173, 0.776
1223.389, 18.824
1224.604, 6.011
1225.819, 10.264
1227.034, 2.780
1228.248, 5.877
1229.463, 39.260
1230.677, 93.312
1231.891, 62.480
1233.105, 66.256
1234.318, 8.877
1235.532, 69.882
1236.745, 60.753
1237.958, 37.523
1239.171, 65.474
1240.384, 53.418
1241.596, 68.525
1242.809, 63.403
1244.021, 31.171
1245.233, 35.979
1246.444, 74.812
1247.656, 43.888
1248.867, 49.739
1250.079, 67.627
1251.290, 12.500
1252.500, 14.838
1253.711, 42.596
1254.921, 0.462
1256.132, 64.213
1257.342, 25.964
1258.552, 15.792
1259.761, 55.536
1260.971, 0.344
1262.180, 81.361
1263.389, 70.092
1264.598, 17.815
1265.807, 15.605
1267.015, 6.446
1268.223, 38.260
1269.432, 65.948
1270.640, 43.607
1271.847, 42.519
1273.055, 33.129
1274.262, 7.278
1275.470, 13.294
1276.677, 15.862
1277.883, 27.570
1279.090, 49.130
1280.296, 41.698
1281.503, 20.301
1282.709, 38.837
1283.915, 1.631
1285.120, 0.891
1286.326, 24.395
1287.531, 8.110
1288.736, 7.359
1289.941, 43.857
1291.146, 1.366
1292.350, 7.829
1293.555, 10.635
1294.759, 6.810
1295.963, 7.243
1297.167, 9.332
1298.370, 21.083
1299.574, 9.509
1300.777, 20.886
1301.980, 31.354
1303.183, 28.289
1304.386, 8.038
1305.588, 33.329
1306.790, 65.397
1307.993, 8.123
1309.195, 11.892
1310.396, 78.678
1311.598, 42.504
1312.799, 19.326
1314.000, 0.825
1315.201, 0.042
1316.402, 21.923
1317.603, 27.178
1318.803, 146.267
1320.003, 202.564
1321.203, 143.972
1322.403, 155.555
1323.603, 11.510
1324.802, 71.506
1326.002, 21.511
1327.201, 46.506
1328.400, 28.528
1329.599, 18.497
1330.797, 58.454
1331.995, 55.434
1333.194, 10.368
1334.392, 40.289
1335.589, 38.196
1336.787, 20.909
1337.985, 35.964
1339.182, 23.825
1340.379, 10.670
1341.576, 53.503
1342.772, 48.323
1343.969, 46.208
1345.165, 19.008
1346.361, 28.792
1347.557, 24.125
1348.753, 9.324
1349.949, 25.073
1351.144, 44.809
1352.339, 33.535
1353.534, 36.249
1354.729, 36.830
1355.924, 4.769
1357.118, 34.135
1358.312, 21.568
1359.506, 28.226
1360.700, 48.871
1361.894, 58.506
1363.088, 44.132
1364.281, 71.104
1365.474, 29.712
1366.667, 21.279
1367.860, 11.945
1369.052, 4.449
1370.245, 5.714
1371.437, 10.892
1372.629, 7.670
1373.821, 19.638
1375.013, 24.100
1376.204, 1.882
1377.395, 46.339
1378.586, 1.208
1379.777, 46.236
1380.968, 76.669
1382.159, 31.091
1383.349, 32.505
1384.539, 18.906
1385.729, 47.232
1386.919, 81.548
1388.109, 64.778
1389.298, 59.039
1390.487, 23.228
1391.676, 55.558
1392.865, 46.705
1394.054, 50.871
1395.242, 12.165
1396.431, 92.420
1397.619, 52.023
1398.807, 120.092
1399.995, 85.337
1401.182, 61.440
1402.370, 118.088
1403.557, 64.361
1404.744, 31.343
1405.931, 106.035
1407.118, 91.823
1408.304, 63.624
1409.490, 49.405
1410.676, 55.227
1411.862, 97.201
1413.048, 100.065
1414.234, 25.197
1415.419, 80.639
1416.604, 76.574
1417.789, 73.063
1418.974, 112.624
1420.159, 29.351
1421.343, 60.211
1422.528, 99.660
1423.712, 43.051
1424.896, 72.427
1426.079, 62.597
1427.263, 81.933
1428.446, 109.275
1429.629, 103.086
1430.812, 69.460
1431.995, 130.527
1433.178, 52.511
1434.360, 66.120
1435.543, 42.219
1436.725, 70.251
1437.907, 95.553
1439.088, 144.287
1440.270, 88.466
1441.451, 94.651
1442.632, 87.251
1443.813, 39.683
1444.994, 108.885
1446.175, 78.908
1447.355, 71.253
1448.535, 99.049
1449.715, 41.757
1450.895, 82.861
1452.075, 61.682
1453.255, 103.297
1454.434, 96.092
1455.613, 73.166
1456.792, 66.048
1457.971, 75.164
1459.149, 70.327
1460.328, 72.368
1461.506, 75.796
1462.684, 84.887
1463.862, 74.401
1465.040, 104.113
1466.217, 58.497
1467.395, 39.762
1468.572, 97.072
1469.749, 28.884
1470.925, 89.841
1472.102, 79.973
1473.278, 29.085
1474.455, 52.182
1475.631, 90.091
1476.807, 77.793
1477.982, 47.707
1479.158, 36.566
1480.333, 49.345
1481.508, 69.822
1482.683, 42.832
1483.858, 44.858
1485.033, 13.986
1486.207, 31.104
1487.381, 46.250
1488.555, 25.416
1489.729, 92.598
1490.903, 59.814
1492.076, 47.084
1493.250, 49.368
1494.423, 99.431
1495.596, 6.526
1496.769, 54.848
1497.941, 20.225
1499.114, 8.340
1500.286, 93.190
1501.458, 31.105
1502.630, 46.669
1503.802, 66.062
1504.973, 0.251
1506.145, 69.510
1507.316, 72.609
1508.487, 2.473
1509.657, 48.303
1510.828, 29.516
1511.999, 57.110
1513.169, 54.868
1514.339, 37.565
1515.509, 39.883
1516.678, 0.000
##END=



