##NAMES=Microcline
##RRUFFID=R050193
##IDEAL CHEMISTRY=KAlSi_3_O_8_
##LOCALITY=Devil's Head, Douglas County, Colorado, USA
##OWNER=RRUFF
##SOURCE=Dave Bunk Minerals
##DESCRIPTION=White to colorless heterogeneous mixture of K and Na feldspar in a cluster of crystals. Crystal structure determined, presented below. This sample is known as an intermediate microcline in the literature.
##STATUS=The identification of this mineral has been confirmed by X-ray diffraction and chemical analysis
##URL=rruff.info/R050193
##MEASURED CHEMISTRY=(K_0.929_Na_0.071_)(Al_1.005_Si_2.994_Fe_0.001_)O_7.993_F_0.007_  ; Light Band :  (Na_0.973_K_0.007_Ca_0.020_)(Al_1.020_Si_2.980_)O_8_ ; Dark Band
##PIN_ID=L01707
##ORIENTATION=Laser parallel to (-1 0 -1). Fiducial mark perpendicular to laser is parallel to b [0 1 0]
122.8270, 0.0000000E+00
124.0610, 203.1055
125.2950, 15.46289
126.5290, 103.2363
127.7630, 111.1211
128.9970, 177.6602
130.2300, 190.2793
131.4640, 586.4316
132.6970, 839.4971
133.9300, 1570.600
135.1630, 2184.476
136.3950, 3036.660
137.6280, 3880.312
138.8600, 4649.822
140.0920, 5292.830
141.3240, 5792.457
142.5560, 5956.205
143.7880, 6415.273
145.0190, 6723.014
146.2510, 7648.545
147.4820, 8307.083
148.7130, 9401.189
149.9440, 10941.67
151.1750, 12116.47
152.4050, 13257.71
153.6360, 13963.15
154.8660, 14828.68
156.0960, 14755.57
157.3260, 14459.11
158.5560, 13666.54
159.7850, 12292.18
161.0150, 10986.39
162.2440, 9398.667
163.4730, 7821.680
164.7020, 6557.270
165.9310, 5399.715
167.1590, 4274.115
168.3880, 3557.803
169.6160, 2989.601
170.8440, 2802.182
172.0720, 2305.231
173.3000, 1972.256
174.5280, 1810.559
175.7550, 1757.564
176.9820, 1548.992
178.2100, 1582.507
179.4370, 1317.272
180.6630, 1344.277
181.8900, 1110.963
183.1170, 1078.760
184.3430, 1060.526
185.5690, 994.1367
186.7950, 891.7686
188.0210, 747.4209
189.2470, 772.1875
190.4720, 716.0801
191.6970, 709.9873
192.9230, 660.7559
194.1480, 601.8135
195.3730, 558.7090
196.5970, 547.6484
197.8220, 525.7607
199.0460, 560.1289
200.2700, 521.8896
201.4940, 498.0303
202.7180, 471.6602
203.9420, 328.5420
205.1660, 288.6162
206.3890, 129.8320
207.6120, 214.1758
208.8350, 153.6348
210.0580, 203.1953
211.2810, 102.1572
212.5040, 9.564453
213.7260, 3.650391
214.9480, 140.8135
216.1700, 7.071289
217.3920, 80.00586
218.6140, 85.05566
219.8360, 127.8887
221.0570, 94.27930
222.2790, 121.3496
223.5000, 196.4590
224.7210, 86.61426
225.9410, 231.8184
227.1620, 82.07422
228.3820, 69.37891
229.6030, 100.7295
230.8230, 17.12598
232.0430, 32.43359
233.2630, 18.17969
234.4820, 4.579102
235.7020, 14.99316
236.9210, 73.96875
238.1400, 40.40625
239.3590, 75.26660
240.5780, 184.5039
241.7970, 164.3984
243.0150, 249.0488
244.2340, 307.4775
245.4520, 329.6279
246.6700, 502.4805
247.8880, 497.0234
249.1060, 750.3066
250.3230, 953.3945
251.5400, 985.4307
252.7580, 1274.538
253.9750, 1558.924
255.1920, 1738.899
256.4080, 2016.636
257.6250, 2320.084
258.8410, 2753.982
260.0580, 2942.370
261.2740, 3004.913
262.4900, 3244.795
263.7050, 3781.412
264.9210, 3958.040
266.1360, 4301.678
267.3520, 4726.327
268.5670, 5099.987
269.7820, 5570.557
270.9960, 6323.226
272.2110, 6850.545
273.4250, 7609.408
274.6400, 8545.285
275.8540, 9228.882
277.0680, 9951.042
278.2810, 10578.92
279.4950, 10552.92
280.7090, 10528.03
281.9220, 10039.34
283.1350, 9541.858
284.3480, 8811.226
285.5610, 7876.631
286.7730, 6910.542
287.9860, 5909.203
289.1980, 5173.878
290.4100, 4477.338
291.6220, 3736.691
292.8340, 3232.915
294.0460, 2786.990
295.2570, 2438.889
296.4690, 2089.602
297.6800, 1863.130
298.8910, 1542.481
300.1020, 1339.666
301.3120, 1395.697
302.5230, 1285.586
303.7330, 1067.342
304.9440, 1036.974
306.1540, 861.4902
307.3630, 718.8965
308.5730, 768.1963
309.7830, 779.3838
310.9920, 720.4307
312.2010, 499.3398
313.4100, 589.9707
314.6190, 466.3672
315.8280, 607.4443
317.0370, 398.1797
318.2450, 491.5518
319.4530, 527.5020
320.6610, 566.0518
321.8690, 616.3389
323.0770, 576.4014
324.2850, 530.3369
325.4920, 552.1387
326.6990, 563.8242
327.9060, 546.4648
329.1130, 710.0801
330.3200, 647.6797
331.5270, 609.2803
332.7330, 599.8799
333.9390, 494.4795
335.1450, 590.0771
336.3510, 776.6738
337.5570, 538.2676
338.7630, 583.8594
339.9680, 527.4492
341.1740, 354.0371
342.3790, 406.5947
343.5840, 463.0713
344.7890, 400.6465
345.9930, 451.1279
347.1980, 476.5146
348.4020, 480.7920
349.6060, 336.4707
350.8100, 450.9775
352.0140, 381.0703
353.2180, 354.0303
354.4210, 484.4463
355.6250, 471.3193
356.8280, 395.5166
358.0310, 570.7461
359.2340, 509.1846
360.4360, 570.0420
361.6390, 501.2051
362.8410, 588.9268
364.0430, 673.3535
365.2450, 758.1133
366.4470, 721.0010
367.6490, 703.2100
368.8510, 682.7266
370.0520, 649.1582
371.2530, 768.4990
372.4540, 588.2598
373.6550, 670.8428
374.8560, 461.4795
376.0560, 401.3896
377.2570, 368.9268
378.4570, 238.8145
379.6570, 195.1553
380.8570, 26.29004
382.0570, 43.79102
383.2560, 76.37207
384.4560, 92.08691
385.6550, 48.60742
386.8540, 55.13867
388.0530, 8.742188
389.2520, 63.62109
390.4510, 2.919922
391.6490, 147.1436
392.8470, 228.2061
394.0450, 79.30859
395.2430, 166.4102
396.4410, 117.5127
397.6390, 85.66113
398.8360, 143.0479
400.0340, 204.9365
401.2310, 273.0576
402.4280, 362.1729
403.6250, 353.0107
404.8210, 254.4219
406.0180, 334.5537
407.2140, 266.6885
408.4100, 251.8281
409.6060, 236.9756
410.8020, 258.1260
411.9980, 204.7373
413.1930, 149.4736
414.3890, 154.6436
415.5840, 27.79395
416.7790, 80.92090
417.9740, 122.9756
419.1680, 115.9590
420.3630, 39.03027
421.5570, 134.0869
422.7510, 72.23730
423.9450, 217.4492
425.1390, 141.8037
426.3330, 48.73926
427.5270, 21.74902
428.7200, 25.28125
429.9130, 131.1436
431.1060, 168.5371
432.2990, 137.9043
433.4920, 206.2422
434.6840, 349.5518
435.8770, 550.8369
437.0690, 509.0967
438.2610, 606.3291
439.4530, 1019.537
440.6450, 1085.722
441.8360, 1328.883
443.0280, 1591.021
444.2190, 1772.137
445.4100, 2038.232
446.6010, 2556.308
447.7920, 2787.363
448.9820, 3222.398
450.1730, 3432.580
451.3630, 3903.578
452.5530, 3814.807
453.7430, 3966.771
454.9330, 3695.717
456.1230, 3774.647
457.3120, 3747.562
458.5010, 3719.820
459.6910, 3801.710
460.8800, 3909.706
462.0680, 4168.553
463.2570, 4520.413
464.4460, 4964.266
465.6340, 5530.116
466.8220, 6272.023
468.0100, 7088.865
469.1980, 7827.705
470.3860, 8707.652
471.5730, 9676.500
472.7600, 10736.33
473.9480, 11135.17
475.1350, 11390.00
476.3210, 10782.83
477.5080, 10127.65
478.6950, 9045.481
479.8810, 8087.305
481.0670, 7151.126
482.2530, 6347.518
483.4390, 5721.766
484.6250, 4995.140
485.8100, 4578.740
486.9960, 4180.556
488.1810, 3877.145
489.3660, 3630.211
490.5510, 3412.763
491.7360, 3328.573
492.9200, 3251.926
494.1050, 3263.741
495.2890, 3530.311
496.4730, 3821.780
497.6570, 4577.618
498.8400, 4776.464
500.0240, 6292.240
501.2070, 7447.160
502.3910, 9074.108
503.5740, 10977.12
504.7570, 13472.15
505.9400, 15887.23
507.1220, 18423.36
508.3050, 21048.54
509.4870, 23826.77
510.6690, 26208.06
511.8510, 26946.43
513.0330, 26280.84
514.2140, 24969.34
515.3960, 22025.89
516.5770, 18648.48
517.7580, 15442.12
518.9390, 12476.79
520.1200, 9977.469
521.3010, 7744.138
522.4810, 6524.684
523.6610, 5319.596
524.8420, 4316.705
526.0220, 3558.875
527.2010, 3206.004
528.3810, 2633.214
529.5610, 2301.345
530.7400, 2016.414
531.9190, 1701.604
533.0980, 1690.734
534.2770, 1320.291
535.4560, 1352.654
536.6340, 1216.312
537.8120, 826.9697
538.9910, 758.6191
540.1690, 886.9941
541.3460, 864.6396
542.5240, 600.4795
543.7020, 701.5410
544.8790, 568.7197
546.0560, 476.7646
547.2330, 512.9160
548.4100, 470.0605
549.5870, 377.3867
550.7630, 626.2871
551.9400, 413.5254
553.1160, 425.0078
554.2920, 476.1621
555.4680, 356.7998
556.6440, 314.8213
557.8190, 324.0830
558.9950, 350.5186
560.1700, 363.1025
561.3450, 205.3477
562.5200, 216.2666
563.6950, 216.4443
564.8690, 311.9248
566.0440, 222.1426
567.2180, 118.7383
568.3920, 176.5146
569.5660, 170.9395
570.7400, 296.4385
571.9130, 339.1465
573.0870, 401.0107
574.2600, 254.7646
575.4330, 305.6338
576.6060, 305.8652
577.7790, 257.7363
578.9520, 400.6143
580.1240, 489.4941
581.2960, 169.4473
582.4690, 471.3350
583.6410, 293.2217
584.8120, 269.1172
585.9840, 362.0293
587.1560, 101.9434
588.3270, 258.8613
589.4980, 159.8145
590.6690, 15.77051
591.8400, 239.7305
593.0110, 1.693359
594.1810, 118.6553
595.3510, 246.6191
596.5220, 65.58301
597.6920, 95.55078
598.8610, 75.48047
600.0310, 153.4609
601.2010, 35.59570
602.3700, 155.3359
603.5390, 212.2686
604.7080, 79.21191
605.8770, 166.1572
607.0460, 45.10352
608.2140, 215.0576
609.3830, 173.0215
610.5510, 34.99023
611.7190, 58.96387
612.8870, 159.9395
614.0550, 335.9150
615.2220, 65.89160
616.3900, 224.8682
617.5570, 350.8457
618.7240, 195.8232
619.8910, 293.8008
621.0580, 236.7764
622.2240, 366.7549
623.3910, 394.7422
624.5570, 357.7588
625.7230, 478.7764
626.8890, 586.7949
628.0550, 569.8125
629.2200, 581.8320
630.3860, 431.8525
631.5510, 575.8740
632.7160, 405.8984
633.8810, 448.9277
635.0460, 469.9551
636.2100, 416.9941
637.3750, 377.0352
638.5390, 191.0898
639.7030, 181.1387
640.8670, 179.1914
642.0310, 335.2520
643.1950, 216.3086
644.3580, 226.3691
645.5210, 265.4258
646.6850, 213.4785
647.8480, 252.7578
649.0100, 284.6035
650.1730, 290.6152
651.3350, 348.6543
652.4980, 386.6875
653.6600, 358.7188
654.8220, 362.7637
655.9840, 239.7598
657.1450, 278.7832
658.3070, 325.7988
659.4680, 244.8047
660.6300, 341.8320
661.7910, 85.84961
662.9510, 81.85938
664.1120, 58.19531
665.2730, 194.8672
666.4330, 51.86133
667.5930, 65.87305
668.7530, 131.8809
669.9130, 2.882813
671.0730, 152.8750
672.2320, 14.87500
673.3920, 175.8691
674.5510, 150.1289
675.7100, 11.78320
676.8690, 159.6855
678.0280, 191.4238
679.1860, 7.642578
680.3450, 44.88086
681.5030, 132.8535
682.6610, 51.57617
683.8190, 24.28711
684.9770, 46.01367
686.1340, 31.64258
687.2920, 33.30273
688.4490, 6.152344
689.6060, 5.917969
690.7630, 12.72852
691.9200, 16.57227
693.0760, 77.51562
694.2330, 21.95898
695.3890, 33.71289
696.5450, 95.59766
697.7010, 2.898438
698.8570, 0.8554690
700.0130, 83.10938
701.1680, 232.7520
702.3230, 4.849609
703.4780, 7.898438
704.6330, 22.56445
705.7880, 305.8730
706.9430, 21.71875
708.0970, 160.7715
709.2520, 81.82422
710.4060, 200.2734
711.5600, 147.1738
712.7140, 190.9082
713.8670, 131.7949
715.0210, 45.58984
716.1740, 153.0273
717.3270, 143.8281
718.4800, 223.7031
719.6330, 119.4238
720.7860, 167.3555
721.9380, 176.6973
723.0910, 292.3711
724.2430, 209.2051
725.3950, 269.6836
726.5470, 298.6758
727.6980, 257.0176
728.8500, 347.7695
730.0010, 195.6113
731.1530, 326.0000
732.3040, 421.3574
733.4550, 546.6191
734.6050, 336.8574
735.7560, 524.3340
736.9060, 499.5176
738.0560, 559.5605
739.2060, 642.1230
740.3560, 671.9277
741.5060, 619.9238
742.6560, 755.7637
743.8050, 737.3691
744.9540, 913.3105
746.1030, 847.7754
747.2520, 949.9746
748.4010, 937.6914
749.5500, 825.8223
750.6980, 853.6699
751.8460, 733.8301
752.9950, 855.7969
754.1420, 725.5879
755.2900, 893.6934
756.4380, 919.4883
757.5850, 956.2227
758.7330, 934.9336
759.8800, 940.1172
761.0270, 794.7773
762.1730, 1055.523
763.3200, 898.1641
764.4670, 1026.043
765.6130, 1020.646
766.7590, 1006.678
767.9050, 1073.344
769.0510, 1029.730
770.1960, 968.1602
771.3420, 874.2910
772.4870, 829.2461
773.6320, 788.7383
774.7770, 668.9473
775.9220, 678.6211
777.0670, 673.0723
778.2110, 500.9570
779.3560, 625.6934
780.5000, 475.2129
781.6440, 613.4922
782.7880, 415.9727
783.9320, 470.4219
785.0750, 355.6406
786.2180, 437.9043
787.3620, 325.2031
788.5050, 449.9043
789.6480, 512.2383
790.7900, 383.8496
791.9330, 473.9570
793.0750, 429.7715
794.2170, 435.3516
795.3590, 440.7363
796.5010, 426.7207
797.6430, 523.4551
798.7850, 391.3926
799.9260, 789.2852
801.0670, 792.3691
802.2080, 734.3750
803.3490, 962.2148
804.4900, 719.1738
805.6310, 960.8438
806.7710, 851.5254
807.9110, 998.4473
809.0510, 1101.750
810.1910, 1155.127
811.3310, 1119.404
812.4710, 1121.025
813.6100, 1068.529
814.7490, 1044.551
815.8880, 922.1152
817.0270, 927.1406
818.1660, 713.9648
819.3050, 601.6094
820.4430, 423.8555
821.5820, 360.4297
822.7200, 334.3809
823.8580, 275.7988
824.9950, 169.0039
826.1330, 145.8555
827.2710, 302.1074
828.4080, 85.39062
829.5450, 265.1230
830.6820, 208.6504
831.8190, 168.3066
832.9560, 14.83203
834.0920, 207.2188
835.2280, 69.29883
836.3650, 90.56641
837.5010, 52.47461
838.6360, 64.22852
839.7720, 103.0586
840.9080, 122.6348
842.0430, 46.83203
843.1780, 95.04883
844.3130, 42.46289
845.4480, 41.28711
846.5830, 182.8887
847.7170, 72.65625
848.8520, 108.3984
849.9860, 69.11328
851.1200, 87.79883
852.2540, 169.0957
853.3870, 7.728516
854.5210, 57.32227
855.6540, 90.89062
856.7880, 37.36133
857.9210, 173.8711
859.0540, 8.357422
860.1860, 27.19531
861.3190, 130.1973
862.4510, 27.56250
863.5840, 100.1035
864.7160, 53.13867
865.8480, 24.35156
866.9790, 131.5352
868.1110, 75.69141
869.2420, 153.8203
870.3740, 154.7871
871.5050, 94.00781
872.6360, 159.0605
873.7660, 71.09180
874.8970, 60.10938
876.0280, 109.1016
877.1580, 283.0723
878.2880, 1.978516
879.4180, 31.92773
880.5480, 215.8105
881.6770, 1.666016
882.8070, 9.515625
883.9360, 21.25977
885.0650, 5.005859
886.1940, 182.7168
887.3230, 105.4043
888.4520, 147.0703
889.5800, 281.7090
890.7090, 104.3262
891.8370, 172.9180
892.9650, 189.4863
894.0930, 193.0352
895.2200, 65.56055
896.3480, 6.941406
897.4750, 88.48047
898.6020, 179.8945
899.7290, 117.2480
900.8560, 177.5801
901.9830, 69.88672
903.1090, 152.1699
904.2360, 14.43164
905.3620, 11.66406
906.4880, 24.86523
907.6140, 61.03711
908.7400, 20.81250
909.8650, 142.2891
910.9900, 30.63086
912.1160, 158.4004
913.2410, 48.40820
914.3660, 17.60742
915.4900, 124.3340
916.6150, 5.251953
917.7390, 121.1406
918.8640, 123.0098
919.9880, 188.8555
921.1120, 155.1289
922.2350, 140.7852
923.3590, 38.26758
924.4820, 120.0254
925.6060, 47.82812
926.7290, 161.5391
927.8520, 174.3984
928.9740, 19.93164
930.0970, 76.70312
931.2190, 211.3105
932.3420, 76.09766
933.4640, 268.4219
934.5860, 180.9238
935.7080, 107.4062
936.8290, 95.86914
937.9510, 250.5430
939.0720, 84.97852
940.1930, 273.3945
941.3140, 75.81836
942.4350, 169.2480
943.5560, 38.33594
944.6760, 214.0332
945.7960, 58.61133
946.9170, 192.6855
948.0370, 255.0039
949.1560, 284.3086
950.2760, 110.5938
951.3960, 28.91211
952.5150, 11.78711
953.6340, 117.4980
954.7530, 230.7637
955.8720, 102.0156
956.9910, 160.2461
958.1090, 44.52344
959.2280, 137.3398
960.3460, 209.5859
961.4640, 186.4023
962.5820, 53.46680
963.6990, 118.9980
964.8170, 18.96484
965.9340, 47.06250
967.0510, 209.9336
968.1690, 266.5645
969.2850, 277.5488
970.4020, 110.9668
971.5190, 295.4590
972.6350, 167.7773
973.7510, 136.2520
974.8670, 93.88086
975.9830, 356.5781
977.0990, 242.6602
978.2150, 141.2129
979.3300, 287.5293
980.4450, 183.8262
981.5600, 131.7051
982.6750, 288.1055
983.7900, 490.6387
984.9050, 470.9980
986.0190, 453.4238
987.1340, 369.1875
988.2480, 338.5625
989.3620, 293.7617
990.4750, 281.2305
991.5890, 257.3965
992.7020, 379.1172
993.8160, 474.4844
994.9290, 449.6621
996.0420, 401.1660
997.1550, 269.1289
998.2670, 373.7129
999.3800, 411.8945
1000.492, 508.7949
1001.604, 546.3066
1002.716, 569.9102
1003.828, 425.1660
1004.940, 517.7500
1006.051, 482.0664
1007.163, 288.6445
1008.274, 519.8438
1009.385, 383.9961
1010.496, 355.3906
1011.606, 274.1016
1012.717, 329.9648
1013.827, 407.0352
1014.937, 310.7852
1016.047, 421.9199
1017.157, 275.3574
1018.267, 316.2461
1019.377, 330.5820
1020.486, 385.2754
1021.595, 268.6348
1022.704, 413.1621
1023.813, 220.8359
1024.922, 215.1680
1026.030, 492.7812
1027.139, 296.4277
1028.247, 454.0664
1029.355, 401.2129
1030.463, 356.8770
1031.571, 506.4258
1032.678, 264.0527
1033.786, 262.4121
1034.893, 262.0195
1036.000, 248.1699
1037.107, 186.6582
1038.214, 240.3926
1039.321, 202.0605
1040.427, 219.7871
1041.533, 252.0820
1042.639, 219.9590
1043.745, 292.3730
1044.851, 223.6523
1045.957, 256.7070
1047.062, 171.1367
1048.168, 254.2676
1049.273, 260.5859
1050.378, 213.4141
1051.482, 157.7109
1052.587, 166.0156
1053.692, 188.5176
1054.796, 180.9473
1055.900, 111.3145
1057.004, 385.2461
1058.108, 54.51953
1059.212, 245.4863
1060.315, 30.37305
1061.418, 164.8477
1062.522, 128.0059
1063.625, 214.0957
1064.728, 205.5547
1065.830, 169.1895
1066.933, 118.9980
1068.035, 74.44531
1069.137, 83.76953
1070.239, 12.14453
1071.341, 65.20898
1072.443, 355.6836
1073.545, 198.5371
1074.646, 223.1094
1075.747, 364.5234
1076.848, 273.0156
1077.949, 149.4199
1079.050, 214.5723
1080.150, 369.9688
1081.251, 460.4785
1082.351, 481.8633
1083.451, 448.0586
1084.551, 444.9102
1085.651, 486.9082
1086.750, 480.3496
1087.850, 568.9023
1088.949, 522.0508
1090.048, 783.8496
1091.147, 825.8594
1092.246, 635.0605
1093.345, 900.4043
1094.443, 826.7461
1095.541, 867.6875
1096.639, 913.9062
1097.737, 824.6289
1098.835, 993.5410
1099.933, 1010.869
1101.030, 900.2090
1102.128, 999.5449
1103.225, 1077.752
1104.322, 914.0879
1105.419, 1242.422
1106.515, 1268.742
1107.612, 1355.883
1108.708, 1386.213
1109.804, 1551.557
1110.900, 1653.900
1111.996, 1616.242
1113.092, 1898.586
1114.187, 1983.936
1115.283, 2100.932
1116.378, 2373.598
1117.473, 2389.270
1118.568, 2668.090
1119.662, 2882.516
1120.757, 2917.133
1121.851, 3045.465
1122.946, 3010.270
1124.040, 3128.156
1125.134, 3091.484
1126.227, 3000.189
1127.321, 2817.531
1128.414, 2928.881
1129.508, 2676.230
1130.601, 2822.193
1131.693, 2790.574
1132.786, 2568.127
1133.879, 2566.504
1134.971, 2386.766
1136.064, 2350.883
1137.156, 2297.990
1138.248, 2229.275
1139.339, 2097.197
1140.431, 2048.170
1141.522, 1976.852
1142.614, 1892.398
1143.705, 1859.805
1144.796, 1736.934
1145.887, 1707.895
1146.977, 1635.270
1148.068, 1604.812
1149.158, 1515.250
1150.248, 1257.604
1151.338, 1452.959
1152.428, 1471.525
1153.518, 1094.225
1154.607, 1151.574
1155.696, 864.9141
1156.785, 1114.252
1157.874, 904.9414
1158.963, 831.2910
1160.052, 625.2461
1161.141, 650.4238
1162.229, 592.7676
1163.317, 519.1680
1164.405, 808.0371
1165.493, 573.9883
1166.581, 643.8125
1167.668, 271.1953
1168.756, 663.5703
1169.843, 446.0039
1170.930, 245.3770
1172.017, 406.7461
1173.103, 434.1758
1174.190, 316.5469
1175.276, 408.9121
1176.363, 409.4414
1177.449, 297.8086
1178.535, 450.1719
1179.620, 314.5391
1180.706, 39.90234
1181.791, 202.2617
1182.877, 273.6152
1183.962, 221.9629
1185.047, 445.3066
1186.131, 319.6426
1187.216, 235.9746
1188.300, 291.2988
1189.385, 169.5527
1190.469, 10.61719
1191.553, 240.7852
1192.637, 388.0820
1193.720, 181.3848
1194.804, 122.6816
1195.887, 113.9727
1196.970, 47.28125
1198.053, 162.7969
1199.136, 91.09180
1200.219, 43.62305
1201.301, 142.4102
1202.383, 311.6543
1203.465, 78.10742
1204.547, 110.9219
1205.629, 241.1914
1206.711, 53.30078
1207.792, 187.4453
1208.874, 77.55078
1209.955, 137.6660
1211.036, 93.77539
1212.117, 188.8750
1213.198, 239.9688
1214.278, 179.0566
1215.359, 135.1992
1216.439, 25.27930
1217.519, 175.3535
1218.599, 162.4180
1219.678, 19.47461
1220.758, 178.5234
1221.837, 146.2773
1222.917, 234.4453
1223.996, 284.8125
1225.075, 298.7969
1226.153, 168.7305
1227.232, 224.6523
1228.310, 206.0449
1229.389, 184.3711
1230.467, 266.4355
1231.545, 157.3320
1232.622, 237.8672
1233.700, 242.5898
1234.777, 281.9238
1235.855, 246.2715
1236.932, 233.7617
1238.009, 296.2559
1239.086, 317.2109
1240.162, 272.8574
1241.239, 314.4746
1242.315, 202.5820
1243.391, 187.7109
1244.467, 210.6523
1245.543, 200.6836
1246.619, 3.392578
1247.694, 21.49023
1248.769, 112.3809
1249.844, 68.42969
1250.919, 231.2832
1251.994, 23.12305
1253.069, 12.95117
1254.144, 249.7656
1255.218, 47.57031
1256.292, 179.3633
1257.366, 250.8633
1258.440, 186.6387
1259.514, 115.5977
1260.587, 258.4531
1261.661, 76.87500
1262.734, 166.7383
1263.807, 43.33789
1264.880, 69.92773
1265.952, 196.5020
1267.025, 129.0703
1268.097, 280.6270
1269.170, 2.175781
1270.242, 164.0410
1271.314, 355.3750
1272.385, 75.18945
1273.457, 282.8594
1274.528, 142.8027
1275.600, 119.4355
1276.671, 95.68359
1277.742, 122.9004
1278.812, 241.1094
1279.883, 143.7578
1280.954, 91.21289
1282.024, 57.39062
1283.094, 241.9199
1284.164, 153.0742
1285.234, 194.2188
1286.303, 67.64844
1287.373, 169.7715
1288.442, 21.88477
1289.511, 66.01758
1290.580, 209.3223
1291.649, 312.2012
1292.718, 41.48633
1293.786, 363.4941
1294.855, 275.5566
1295.923, 253.5410
1296.991, 172.5176
1298.059, 139.6523
1299.126, 250.6094
1300.194, 424.5566
1301.261, 137.4961
1302.328, 252.6426
1303.395, 214.5625
1304.462, 115.4727
1305.529, 230.3730
1306.596, 367.2637
1307.662, 352.1465
1308.728, 226.1660
1309.794, 333.9043
1310.860, 508.8145
1311.926, 312.6719
1312.991, 153.5176
1314.057, 369.3535
1315.122, 181.1797
1316.187, 187.9961
1317.252, 404.7891
1318.317, 2.572266
1319.381, 15.89844
1320.446, 368.6484
1321.510, 228.3887
1322.574, 486.1191
1323.638, 229.8418
1324.702, 391.5352
1325.766, 97.94531
1326.829, 292.6367
1327.892, 291.2012
1328.956, 184.6562
1330.019, 281.4336
1331.081, 281.0879
1332.144, 229.3008
1333.206, 249.4297
1334.269, 217.0547
1335.331, 126.3887
1336.393, 283.9941
1337.455, 210.4062
1338.516, 366.9941
1339.578, 381.4512
1340.639, 166.0195
1341.701, 211.5801
1342.762, 118.1309
1343.822, 164.6699
1344.883, 323.7871
1345.944, 346.3066
1347.004, 359.6465
1348.064, 181.8770
1349.124, 266.3711
1350.184, 221.8418
1351.244, 52.30469
1352.304, 132.7559
1353.363, 138.1992
1354.422, 272.6328
1355.481, 126.0605
1356.540, 186.4766
1357.599, 263.8789
1358.657, 119.2715
1359.716, 91.66016
1360.774, 351.0391
1361.832, 263.4082
1362.890, 173.7578
1363.948, 213.0625
1365.006, 203.4785
1366.063, 364.7676
1367.120, 141.9902
1368.178, 95.20703
1369.234, 231.4141
1370.291, 303.6133
1371.348, 276.8027
1372.404, 100.9844
1373.461, 154.1602
1374.517, 123.9902
1375.573, 155.6621
1376.629, 75.71289
1377.684, 148.5703
1378.740, 146.1426
1379.795, 326.3555
1380.850, 215.9160
1381.905, 211.0273
1382.960, 283.7559
1384.015, 11.14648
1385.070, 193.9375
1386.124, 281.0098
1387.178, 21.49609
1388.232, 362.5566
1389.286, 214.4336
1390.340, 197.4805
1391.393, 112.1172
1392.447, 296.8555
1393.500, 324.8867
1394.553, 304.8594
1395.606, 343.3184
1396.659, 37.60938
1397.711, 253.8945
1398.764, 81.89648
1399.816, 8.263672
1400.868, 236.6035
1401.920, 267.1641
1402.972, 69.05078
1404.023, 107.8398
1405.075, 121.7422
1406.126, 4.273438
1407.177, 7.707031
1408.228, 205.4766
1409.279, 26.89258
1410.330, 76.08789
1411.380, 105.0703
1412.431, 90.94336
1413.481, 266.6875
1414.531, 328.6562
1415.580, 239.0215
1416.630, 0.8378910
1417.680, 134.8516
1418.729, 1.109375
1419.778, 272.6074
1420.827, 46.74609
1421.876, 480.7090
1422.925, 230.6816
1423.973, 21.66797
1425.022, 184.6074
1426.070, 65.62109
1427.118, 260.9668
1428.166, 8.945313
1429.214, 148.0098
1430.261, 102.0938
1431.309, 70.51172
1432.356, 201.1680
1433.403, 85.33203
1434.450, 25.50000
1435.497, 20.70703
1436.543, 47.98633
1437.590, 90.93359
1438.636, 228.2617
1439.682, 221.0566
1440.728, 354.0664
1441.774, 374.0625
1442.819, 306.2012
1443.865, 121.1484
1444.910, 177.0801
1445.955, 213.7734
1447.000, 452.6777
1448.045, 427.5957
1449.090, 352.5273
1450.134, 153.5391
1451.178, 254.5059
1452.223, 86.49805
1453.267, 270.4785
1454.310, 261.3770
1455.354, 27.33594
1456.398, 332.2812
1457.441, 257.2188
1458.484, 152.7578
1459.527, 304.6660
1460.570, 206.5469
1461.613, 421.4336
1462.655, 54.06836
1463.698, 273.9277
1464.740, 101.7734
1465.782, 84.60547
1466.824, 256.2656
1467.866, 378.0781
1468.907, 101.7480
1469.948, 509.5469
1470.990, 190.1250
1472.031, 263.9453
1473.072, 369.7656
1474.112, 438.5859
1475.153, 407.7988
1476.194, 413.6582
1477.234, 275.2109
1478.274, 354.1504
1479.314, 223.0918
1480.354, 272.0332
1481.393, 67.67383
1482.433, 219.6953
1483.472, 194.9219
1484.511, 265.1953
1485.550, 183.7930
1486.589, 130.6699
1487.628, 129.3340
1488.666, 122.3281
1489.704, 9.505859
1490.743, 243.2246
1491.781, 81.54102
1492.819, 95.50391
1493.856, 257.5820
1494.894, 245.3574
1495.931, 305.4258
1496.968, 453.0859
1498.005, 441.1406
1499.042, 332.1875
1500.079, 379.6133
1501.115, 329.5059
1502.152, 123.4863
1503.188, 103.4707
1504.224, 154.5078
1505.260, 307.5508
1506.296, 461.5938
1507.331, 339.6348
1508.367, 340.6758
1509.402, 399.7168
1510.437, 228.4883
1511.472, 196.5254
1512.507, 176.5703
1513.541, 357.6191
1514.576, 191.6719
1515.610, 144.7305
1516.644, 39.80078
1517.678, 241.8789
1518.712, 53.96680
1519.746, 492.0918
1520.779, 104.2734
1521.813, 264.4531
1522.846, 106.6465
1523.879, 85.87500
1524.912, 33.89844
1525.944, 239.3730
1526.977, 122.5410
1528.009, 252.3184
1529.041, 341.3398
1530.073, 297.4219
1531.105, 276.5684
1532.137, 149.7910
1533.168, 201.0977
1534.200, 281.4844
1535.231, 462.9570
1536.262, 483.5254
1537.293, 328.2070
1538.324, 305.0117
1539.354, 148.9453
1540.385, 87.03125
1541.415, 372.2852
1542.445, 381.7344
1543.475, 155.3828
1544.505, 13.61719
1545.534, 335.4570
1546.564, 196.5312
1547.593, 331.8164
1548.622, 377.3398
1549.651, 116.1289
1550.680, 4.210938
1551.708, 204.6172
1552.737, 339.3867
1553.765, 246.5312
1554.793, 294.1797
1555.821, 193.7969
1556.849, 397.1641
1557.877, 173.5195
1558.904, 230.4297
1559.932, 382.5273
1560.959, 1.679688
1561.986, 157.4688
1563.013, 0.0000000E+00
##END=



