##NAMES=Microcline
##RRUFFID=R040154
##IDEAL CHEMISTRY=KAlSi_3_O_8_
##LOCALITY=Mitchell County, North Carolina, USA
##OWNER=RRUFF
##SOURCE=University of Arizona Mineral Museum
##DESCRIPTION=White cleavage fragment with some perthitic character
##STATUS=The identification of this mineral has been confirmed by X-ray diffraction and chemical analysis
##URL=rruff.info/R040154
##MEASURED CHEMISTRY=(K_0.90_Na_0.09_Ba_0.01_)Al_1.00_(Si_2.99_Al_0.01_)_Î£=3_O_8_
##PIN_ID=L00534
##ORIENTATION=Laser parallel to (1 1 0). Fiducial mark perpendicular to laser is parallel to c [0 0 1]
102.242, 0.000
103.636, 5.493
105.030, 16.845
106.423, 224.077
107.817, 275.771
109.210, 372.906
110.603, 315.343
111.996, 328.132
113.388, 437.636
114.780, 562.044
116.172, 867.231
117.564, 1008.767
118.956, 1501.240
120.347, 1788.859
121.738, 2410.448
123.129, 3356.072
124.519, 4418.042
125.910, 5182.827
127.300, 5510.005
128.690, 5599.238
130.080, 5210.256
131.469, 4633.156
132.858, 4020.097
134.248, 3881.472
135.636, 4195.728
137.025, 5131.478
138.413, 6377.372
139.801, 7313.262
141.189, 7959.215
142.577, 8155.237
143.964, 7761.393
145.352, 7507.715
146.739, 7164.192
148.125, 7730.805
149.512, 8447.551
150.898, 9514.423
152.284, 11401.424
153.670, 13588.545
155.056, 15895.786
156.441, 18023.146
157.827, 19190.621
159.212, 19218.219
160.596, 17948.164
161.981, 15658.219
163.365, 12599.592
164.749, 10170.160
166.133, 7690.193
167.517, 5976.057
168.900, 4948.962
170.283, 4064.418
171.666, 3724.623
173.049, 3310.801
174.431, 3285.688
175.813, 3221.432
177.195, 3317.824
178.577, 3384.319
179.959, 3190.878
181.340, 2987.501
182.721, 2644.460
184.102, 2422.190
185.483, 2062.530
186.863, 1914.941
188.244, 1665.314
189.624, 1476.681
191.003, 1416.037
192.383, 1479.405
193.762, 1525.804
195.141, 1932.246
196.520, 2257.739
197.899, 2606.289
199.277, 2654.898
200.656, 2593.570
202.034, 2442.306
203.411, 1788.100
204.789, 1363.953
206.166, 1076.863
207.543, 837.827
208.920, 690.843
210.297, 468.908
211.673, 430.021
213.049, 378.180
214.425, 97.381
215.801, 26.619
217.176, 36.881
218.552, 116.840
219.927, 137.549
221.302, 166.249
222.676, 108.939
224.051, 211.377
225.425, 167.571
226.799, 235.196
228.173, 146.920
229.546, 181.637
230.919, 190.349
232.292, 110.056
233.665, 133.760
235.038, 53.462
236.410, 70.162
237.782, 144.861
239.154, 64.560
240.526, 33.741
241.898, 16.959
243.269, 100.570
244.640, 246.906
246.011, 365.395
247.381, 573.417
248.752, 851.422
250.122, 1222.007
251.492, 1774.176
252.861, 2629.918
254.231, 3487.619
255.600, 4495.326
256.969, 4963.046
258.338, 5200.776
259.707, 5248.855
261.075, 5151.816
262.443, 5008.373
263.811, 5087.023
265.179, 5216.035
266.546, 5296.571
267.914, 4825.952
269.281, 4538.083
270.647, 4096.238
272.014, 3822.420
273.380, 3529.814
274.747, 3868.113
276.113, 4535.275
277.478, 5602.879
278.844, 7140.855
280.209, 9329.152
281.574, 12167.733
282.939, 14786.554
284.304, 16635.582
285.668, 17174.795
287.032, 16344.159
288.396, 14153.662
289.760, 11563.285
291.123, 8903.015
292.487, 6722.838
293.850, 5092.743
295.212, 3872.727
296.575, 3152.781
297.937, 2582.882
299.300, 2083.008
300.662, 1793.144
302.023, 1503.283
303.385, 1275.426
304.746, 1119.569
306.107, 844.715
307.468, 683.861
308.829, 653.006
310.189, 430.151
311.549, 399.294
312.909, 438.433
314.269, 312.569
315.629, 169.700
316.988, 191.826
318.347, 175.945
319.706, 267.058
321.065, 267.753
322.423, 230.258
323.781, 374.344
325.139, 472.363
326.497, 632.224
327.855, 1061.919
329.212, 1404.411
330.569, 1623.746
331.926, 1692.938
333.283, 1632.048
334.639, 1311.062
335.995, 1020.049
337.351, 707.028
338.707, 519.010
340.063, 393.987
341.418, 187.960
342.773, 218.924
344.128, 93.881
345.483, 104.825
346.837, 63.755
348.192, 221.662
349.546, 103.555
350.899, 235.426
352.253, 309.279
353.606, 359.118
354.960, 366.938
356.313, 485.743
357.665, 453.531
359.018, 477.304
360.370, 460.044
361.722, 286.795
363.074, 376.514
364.426, 386.215
365.777, 362.897
367.128, 502.562
368.479, 664.203
369.830, 863.826
371.181, 1129.435
372.531, 1188.031
373.881, 1186.609
375.231, 955.167
376.581, 727.704
377.930, 509.219
379.280, 300.710
380.629, 207.199
381.977, 176.310
383.326, 27.527
384.674, 81.370
386.023, 42.713
387.370, 6.360
388.718, 46.049
390.066, 65.804
391.413, 34.455
392.760, 56.770
394.107, 92.561
395.454, 1.252
396.800, 23.920
398.146, 147.929
399.492, 233.241
400.838, 448.236
402.184, 523.711
403.529, 562.653
404.874, 615.826
406.219, 452.729
407.564, 443.573
408.908, 254.344
410.252, 211.008
411.596, 218.570
412.940, 147.040
414.284, 139.475
415.627, 69.890
416.970, 21.279
418.313, 56.365
419.656, 89.062
420.999, 25.825
422.341, 154.637
423.683, 73.555
425.025, 115.616
426.367, 114.842
427.708, 102.232
429.049, 42.793
430.390, 75.410
431.731, 13.894
433.072, 118.158
434.412, 99.406
435.752, 89.631
437.092, 253.825
438.432, 321.003
439.772, 297.162
441.111, 353.441
442.450, 659.729
443.789, 736.323
445.127, 1002.492
446.466, 1418.580
447.804, 1824.989
449.142, 2551.342
450.480, 3487.965
451.817, 4343.931
453.155, 5369.831
454.492, 5745.702
455.829, 5522.596
457.166, 4799.752
458.502, 3935.666
459.838, 3371.411
461.175, 2827.123
462.510, 2612.804
463.846, 2648.451
465.181, 2784.065
466.517, 3179.646
467.852, 3775.196
469.186, 4920.712
470.521, 6336.193
471.855, 8271.641
473.190, 10527.057
474.523, 12212.439
475.857, 12737.789
477.191, 12513.103
478.524, 11128.384
479.857, 9553.634
481.190, 8338.848
482.523, 7484.025
483.855, 6829.172
485.187, 6094.285
486.519, 5149.363
487.851, 4524.408
489.183, 3449.423
490.514, 2764.403
491.845, 2589.354
493.176, 2294.274
494.507, 2299.166
495.837, 2384.025
497.168, 2348.856
498.498, 2593.656
499.828, 3078.428
501.157, 3593.170
502.487, 4517.881
503.816, 5712.562
505.145, 7486.294
506.474, 10120.231
507.802, 13562.890
509.131, 17847.453
510.459, 23141.154
511.787, 27935.656
513.115, 30580.131
514.442, 30754.570
515.770, 27598.982
517.097, 22803.551
518.424, 17648.078
519.750, 13312.561
521.077, 9847.048
522.403, 7551.325
523.729, 6186.084
525.055, 4630.488
526.381, 3764.852
527.706, 3338.994
529.031, 2803.317
530.356, 2328.641
531.681, 2055.284
533.006, 2019.842
534.330, 1704.003
535.654, 1508.445
536.978, 1212.850
538.302, 1296.803
539.625, 1075.497
540.949, 1110.195
542.272, 888.374
543.595, 863.011
544.917, 891.344
546.240, 871.719
547.562, 788.334
548.884, 533.937
550.206, 789.120
551.527, 470.813
552.849, 599.978
554.170, 440.179
555.491, 499.703
556.812, 470.618
558.132, 424.510
559.453, 301.307
560.773, 352.237
562.093, 339.947
563.412, 376.326
564.732, 380.177
566.051, 324.563
567.370, 328.363
568.689, 403.266
570.008, 387.033
571.326, 450.965
572.644, 284.643
573.963, 548.119
575.280, 430.152
576.598, 450.797
577.915, 616.287
579.233, 559.654
580.550, 806.919
581.866, 706.031
583.183, 910.165
584.499, 821.597
585.815, 753.019
587.131, 585.182
588.447, 621.025
589.763, 294.776
591.078, 214.032
592.393, 226.447
593.708, 208.413
595.022, 200.088
596.337, 182.811
597.651, 196.699
598.965, 129.977
600.279, 123.254
601.593, 86.510
602.906, 139.741
604.219, 152.950
605.532, 96.138
606.845, 99.304
608.158, 72.445
609.470, 155.561
610.782, 178.654
612.094, 231.727
613.406, 44.780
614.718, 27.806
616.029, 130.798
617.340, 213.770
618.651, 166.720
619.962, 239.651
621.272, 342.562
622.582, 345.454
623.892, 458.326
625.202, 505.258
626.512, 574.011
627.821, 646.824
629.131, 649.617
630.440, 762.393
631.749, 755.147
633.057, 747.884
634.366, 600.601
635.674, 593.300
636.982, 625.979
638.290, 668.641
639.597, 761.282
640.905, 933.906
642.212, 976.513
643.519, 899.216
644.825, 981.785
646.132, 1224.337
647.438, 1256.871
648.744, 1419.387
650.050, 1621.885
651.356, 1744.365
652.662, 1526.828
653.967, 1699.273
655.272, 1411.701
656.577, 1384.112
657.882, 1166.506
659.186, 1028.882
660.490, 891.241
661.794, 723.584
663.098, 555.914
664.402, 538.232
665.705, 400.544
667.009, 372.839
668.312, 375.120
669.614, 227.388
670.917, 159.638
672.219, 181.873
673.522, 104.091
674.824, 106.291
676.125, 108.966
677.427, 100.641
678.728, 142.789
680.030, 54.923
681.331, 97.035
682.631, 99.305
683.932, 151.383
685.232, 93.447
686.532, 5.521
687.832, 22.459
689.132, 49.523
690.432, 102.120
691.731, 54.066
693.030, 54.423
694.329, 127.902
695.628, 57.901
696.926, 23.936
698.224, 54.250
699.522, 70.576
700.820, 88.854
702.118, 78.834
703.415, 109.507
704.713, 82.215
706.010, 41.279
707.307, 57.080
708.603, 35.467
709.900, 83.865
711.196, 139.938
712.492, 222.123
713.788, 273.702
715.083, 20.164
716.379, 31.968
717.674, 203.466
718.969, 14.025
720.264, 237.420
721.558, 50.391
722.853, 151.799
724.147, 18.972
725.441, 280.338
726.735, 102.255
728.028, 136.781
729.322, 198.101
730.615, 173.126
731.908, 74.424
733.201, 305.719
734.493, 197.036
735.785, 518.383
737.078, 429.744
738.370, 261.153
739.661, 482.589
740.953, 544.063
742.244, 635.889
743.535, 907.436
744.826, 1039.002
746.117, 1430.599
747.407, 1712.200
748.698, 1924.785
749.988, 2136.368
751.278, 1977.947
752.567, 1730.879
753.857, 1632.429
755.146, 1169.147
756.435, 1020.501
757.724, 841.666
759.013, 853.063
760.301, 744.502
761.590, 655.996
762.878, 727.088
764.165, 757.868
765.453, 739.264
766.741, 770.681
768.028, 862.434
769.315, 952.772
770.602, 792.803
771.888, 784.031
773.175, 635.385
774.461, 466.727
775.747, 518.096
777.033, 239.411
778.319, 230.715
779.604, 302.008
780.889, 213.289
782.174, 284.557
783.459, 195.815
784.744, 297.061
786.028, 358.295
787.312, 249.519
788.596, 260.732
789.880, 271.934
791.164, 253.124
792.447, 204.303
793.730, 195.472
795.013, 286.629
796.296, 227.776
797.579, 88.913
798.861, 490.038
800.143, 301.153
801.425, 322.260
802.707, 473.354
803.989, 424.438
805.270, 805.514
806.551, 736.579
807.832, 1187.636
809.113, 1288.682
810.394, 1719.718
811.674, 2360.746
812.954, 2401.764
814.234, 2772.772
815.514, 2713.771
816.794, 1864.763
818.073, 1825.746
819.352, 1216.719
820.631, 1017.684
821.910, 558.639
823.189, 529.587
824.467, 440.526
825.745, 291.457
827.023, 372.381
828.301, 403.109
829.578, 193.842
830.856, 304.580
832.133, 265.278
833.410, 96.148
834.687, 176.497
835.963, 47.165
837.240, 167.836
838.516, 148.689
839.792, 79.328
841.068, 118.927
842.343, 127.170
843.618, 7.462
844.894, 158.111
846.169, 108.441
847.443, 188.776
848.718, 20.476
849.992, 95.485
851.266, 75.407
852.540, 18.387
853.814, 136.736
855.088, 89.276
856.361, 91.110
857.634, 13.599
858.907, 115.985
860.180, 63.919
861.453, 139.451
862.725, 116.353
863.997, 39.770
865.269, 9.231
866.541, 121.322
867.812, 78.127
869.084, 10.498
870.355, 149.176
871.626, 20.326
872.897, 197.655
874.167, 31.859
875.438, 58.050
876.708, 101.483
877.978, 107.826
879.248, 11.758
880.517, 61.541
881.787, 178.783
883.056, 70.839
884.325, 29.506
885.594, 49.479
886.862, 19.823
888.130, 50.167
889.399, 120.511
890.667, 86.805
891.934, 91.197
893.202, 101.539
894.469, 8.119
895.737, 52.219
897.004, 12.559
898.270, 92.898
899.537, 83.235
900.803, 26.428
902.070, 123.899
903.336, 44.226
904.601, 35.448
905.867, 234.865
907.132, 104.814
908.398, 35.459
909.663, 4.266
910.928, 116.023
912.192, 226.314
913.457, 13.396
914.721, 56.894
915.985, 227.185
917.249, 27.479
918.512, 67.775
919.776, 11.929
921.039, 148.363
922.302, 138.664
923.565, 158.969
924.827, 69.277
926.090, 239.588
927.352, 0.100
928.614, 100.211
929.876, 20.527
931.138, 250.842
932.399, 61.160
933.660, 71.480
934.922, 141.803
936.182, 112.129
937.443, 62.457
938.704, 362.789
939.964, 93.121
941.224, 183.461
942.484, 273.801
943.744, 124.146
945.003, 84.494
946.262, 114.848
947.521, 5.203
948.780, 145.561
950.039, 145.809
951.298, 326.174
952.556, 266.777
953.814, 116.922
955.072, 217.303
956.330, 47.686
957.587, 108.074
958.845, 158.469
960.102, 78.869
961.359, 229.271
962.615, 79.682
963.872, 220.098
965.128, 130.518
966.384, 150.943
967.640, 151.375
968.896, 161.814
970.152, 181.838
971.407, 72.729
972.662, 223.201
973.917, 183.684
975.172, 204.174
976.427, 84.668
977.681, 225.170
978.935, 275.678
980.189, 336.195
981.443, 196.721
982.697, 157.254
983.950, 487.793
985.203, 238.340
986.456, 538.898
987.709, 429.291
988.962, 519.865
990.214, 800.445
991.467, 671.012
992.719, 841.615
993.971, 1172.244
995.222, 1022.244
996.474, 1252.889
997.725, 1023.545
998.976, 1244.234
1000.227, 1112.627
1001.478, 1023.355
1002.728, 1174.098
1003.978, 1172.955
1005.229, 1113.766
1006.479, 1078.580
1007.728, 977.207
1008.978, 879.061
1010.227, 753.713
1011.476, 594.654
1012.725, 515.633
1013.974, 316.635
1015.223, 505.451
1016.471, 525.902
1017.719, 466.967
1018.967, 473.514
1020.215, 494.045
1021.462, 345.203
1022.710, 415.350
1023.957, 316.545
1025.204, 496.211
1026.451, 577.434
1027.697, 382.889
1028.944, 384.143
1030.190, 594.881
1031.436, 432.971
1032.682, 674.264
1033.928, 431.848
1035.173, 713.166
1036.418, 614.498
1037.663, 745.844
1038.908, 737.201
1040.153, 908.572
1041.398, 719.951
1042.642, 971.352
1043.886, 602.760
1045.130, 753.865
1046.374, 725.992
1047.617, 527.430
1048.860, 708.877
1050.104, 660.332
1051.347, 530.803
1052.589, 822.271
1053.832, 564.115
1055.074, 514.242
1056.316, 377.385
1057.558, 493.588
1058.800, 515.121
1060.042, 219.861
1061.283, 431.424
1062.524, 383.000
1063.765, 264.244
1065.006, 455.848
1066.247, 177.467
1067.487, 289.102
1068.728, 200.750
1069.968, 172.064
1071.208, 293.742
1072.447, 405.434
1073.687, 207.143
1074.926, 348.865
1076.165, 260.604
1077.404, 402.316
1078.643, 354.086
1079.881, 355.871
1081.120, 367.672
1082.358, 339.490
1083.596, 321.322
1084.834, 385.461
1086.071, 455.037
1087.309, 476.918
1088.546, 524.496
1089.783, 551.064
1091.020, 562.998
1092.256, 534.945
1093.493, 506.912
1094.729, 858.895
1095.965, 740.895
1097.201, 792.912
1098.436, 834.951
1099.672, 787.004
1100.907, 919.074
1102.142, 711.164
1103.377, 913.270
1104.612, 785.395
1105.846, 897.539
1107.081, 949.701
1108.315, 1131.879
1109.549, 904.076
1110.782, 1146.289
1112.016, 1158.523
1113.249, 1170.773
1114.483, 1653.041
1115.716, 1435.361
1116.948, 1877.666
1118.181, 2109.988
1119.413, 2556.736
1120.646, 3169.096
1121.878, 3411.475
1123.110, 3994.078
1124.341, 4596.488
1125.573, 4158.916
1126.804, 4061.363
1128.035, 3493.828
1129.266, 3436.297
1130.497, 2958.754
1131.727, 2781.230
1132.957, 2673.723
1134.188, 2866.238
1135.418, 3108.773
1136.647, 3471.330
1137.877, 3353.904
1139.106, 3766.500
1140.335, 3619.361
1141.564, 3321.998
1142.793, 2894.658
1144.022, 2447.355
1145.250, 2240.053
1146.479, 1677.654
1147.707, 1620.396
1148.934, 1263.170
1150.162, 1016.381
1151.390, 879.195
1152.617, 972.348
1153.844, 855.217
1155.071, 608.133
1156.298, 574.002
1157.524, 476.963
1158.751, 439.977
1159.977, 562.969
1161.203, 235.953
1162.428, 548.955
1163.654, 302.000
1164.879, 285.055
1166.105, 217.275
1167.330, 240.398
1168.555, 113.545
1169.779, 217.270
1171.004, 90.463
1172.228, 303.676
1173.452, 6.803
1174.676, 219.947
1175.900, 303.121
1177.123, 3.695
1178.346, 169.418
1179.570, 292.566
1180.793, 55.709
1182.015, 288.881
1183.238, 62.154
1184.460, 124.967
1185.683, 247.725
1186.905, 211.152
1188.126, 33.828
1189.348, 377.715
1190.569, 130.277
1191.791, 282.750
1193.012, 34.777
1194.233, 7.520
1195.453, 209.561
1196.674, 51.445
1197.894, 143.156
1199.114, 234.738
1200.334, 22.139
1201.554, 241.016
1202.774, 55.764
1203.993, 157.461
1205.212, 320.713
1206.431, 86.004
1207.650, 227.309
1208.869, 200.652
1210.087, 5.975
1211.305, 307.424
1212.524, 90.857
1213.741, 204.314
1214.959, 297.803
1216.177, 121.326
1217.394, 174.877
1218.611, 298.453
1219.828, 162.059
1221.045, 215.697
1222.261, 449.367
1223.478, 83.062
1224.694, 446.791
1225.910, 280.551
1227.126, 214.342
1228.342, 438.164
1229.557, 282.016
1230.772, 445.900
1231.987, 149.814
1233.202, 263.713
1234.417, 507.639
1235.631, 8.404
1236.846, 345.582
1238.060, 279.600
1239.274, 353.652
1240.488, 347.732
1241.701, 431.850
1242.915, 335.996
1244.128, 220.174
1245.341, 184.385
1246.554, 268.566
1247.767, 352.777
1248.979, 187.016
1250.191, 291.279
1251.403, 545.535
1252.615, 169.820
1253.827, 344.133
1255.039, 188.477
1256.250, 102.721
1257.461, 406.986
1258.672, 341.271
1259.883, 275.584
1261.094, 79.852
1262.304, 364.217
1263.514, 478.611
1264.724, 56.965
1265.934, 357.498
1267.144, 441.994
1268.354, 56.531
1269.563, 239.771
1270.772, 394.420
1271.981, 219.158
1273.190, 333.215
1274.398, 174.648
1275.607, 162.387
1276.815, 277.127
1278.023, 311.756
1279.231, 146.574
1280.439, 171.438
1281.646, 246.340
1282.853, 401.283
1284.060, 216.271
1285.267, 81.297
1286.474, 306.363
1287.681, 291.469
1288.887, 146.613
1290.093, 160.910
1291.299, 43.881
1292.505, 351.367
1293.711, 346.654
1294.916, 81.980
1296.121, 307.348
1297.327, 102.754
1298.531, 188.203
1299.736, 323.695
1300.941, 0.762
1302.145, 214.828
1303.349, 530.352
1304.553, 179.855
1305.757, 305.096
1306.961, 229.572
1308.164, 194.873
1309.367, 420.281
1310.570, 93.953
1311.773, 541.863
1312.976, 257.727
1314.178, 113.627
1315.381, 558.328
1316.583, 254.170
1317.785, 373.029
1318.987, 567.725
1320.188, 219.756
1321.390, 352.086
1322.591, 446.045
1323.792, 208.578
1324.993, 321.543
1326.193, 394.301
1327.394, 65.734
1328.594, 590.980
1329.794, 208.535
1330.994, 30.195
1332.194, 520.512
1333.394, 1.000
1334.593, 294.604
1335.792, 243.223
1336.991, 82.535
1338.190, 322.365
1339.389, 222.326
1340.587, 105.131
1341.786, 44.250
1342.984, 0.000
##END=



