##NAMES=Microcline
##RRUFFID=R050150
##IDEAL CHEMISTRY=KAlSi_3_O_8_
##LOCALITY=Crystal Peak area, Park/Teller Counties, Colorado, USA
##OWNER=RRUFF
##SOURCE=Dave Bunk Minerals
##DESCRIPTION=Pale blue prismatic crystals
##STATUS=The identification of this mineral has been confirmed by X-ray diffraction and chemical analysis
##URL=rruff.info/R050150
##MEASURED CHEMISTRY=(K_0.95_Na_0.05_)_Î£=1_Al_1.00_Si_3.00_O_8_
##PIN_ID=L00915
##ORIENTATION=Laser parallel to (1 1 0). Fiducial mark perpendicular to laser is parallel to c [0 0 1]
137.6830, 0.0000000E+00
138.9210, 10.41602
140.1580, 224.0566
141.3950, 338.7559
142.6330, 698.2305
143.8690, 779.0273
145.1060, 1312.590
146.3430, 1638.064
147.5790, 2553.955
148.8150, 3417.277
150.0510, 4098.420
151.2870, 4172.332
152.5220, 4103.949
153.7580, 3563.393
154.9930, 3422.057
156.2280, 3005.770
157.4620, 2717.688
158.6970, 2643.881
159.9310, 2350.949
161.1660, 1905.336
162.4000, 1677.746
163.6330, 1348.066
164.8670, 900.7344
166.1000, 840.0625
167.3340, 571.1836
168.5670, 455.1484
169.8000, 674.0078
171.0320, 609.8086
172.2650, 902.5820
173.4970, 1401.338
174.7290, 1718.619
175.9610, 2333.576
177.1930, 3128.008
178.4240, 3983.482
179.6550, 4103.037
180.8870, 4029.332
182.1170, 3471.699
183.3480, 2818.590
184.5790, 2064.221
185.8090, 1468.566
187.0390, 1012.117
188.2690, 1071.504
189.4990, 957.5371
190.7290, 1076.861
191.9580, 738.3184
193.1870, 1031.031
194.4160, 1015.945
195.6450, 1239.039
196.8740, 1611.307
198.1020, 1884.740
199.3310, 2252.328
200.5590, 2107.117
201.7870, 1890.201
203.0140, 1466.469
204.2420, 967.8555
205.4690, 729.3555
206.6960, 193.9648
207.9230, 238.6836
209.1500, 12.50977
210.3760, 243.4453
211.6030, 40.23633
212.8290, 62.24023
214.0550, 94.05664
215.2810, 170.2227
216.5060, 121.3359
217.7320, 123.3828
218.9570, 62.35742
220.1820, 77.26172
221.4070, 80.91992
222.6320, 51.82422
223.8560, 70.92578
225.0800, 3.330078
226.3040, 68.81250
227.5280, 87.04297
228.7520, 17.80273
229.9760, 106.0176
231.1990, 30.26172
232.4220, 58.48242
233.6450, 58.35156
234.8680, 124.7559
236.0910, 5.814453
237.3130, 47.82031
238.5350, 196.7793
239.7570, 180.3047
240.9790, 97.44336
242.2010, 116.6250
243.4220, 90.14648
244.6430, 232.8418
245.8640, 202.3418
247.0850, 338.5996
248.3060, 535.8926
249.5270, 879.1992
250.7470, 763.4062
251.9670, 1368.557
253.1870, 1581.705
254.4070, 2231.875
255.6260, 2748.094
256.8460, 3489.357
258.0650, 4252.656
259.2840, 4658.973
260.5030, 4821.273
261.7220, 4254.545
262.9400, 4610.426
264.1580, 4904.945
265.3760, 5613.230
266.5940, 5881.488
267.8120, 5551.793
269.0290, 5045.146
270.2470, 4162.547
271.4640, 3528.994
272.6810, 3143.488
273.8980, 2788.025
275.1140, 2608.607
276.3310, 2385.232
277.5470, 2466.900
278.7630, 2750.613
279.9790, 3081.365
281.1940, 3601.363
282.4100, 4303.205
283.6250, 5045.668
284.8400, 5343.277
286.0550, 5683.373
287.2700, 5517.203
288.4850, 4966.387
289.6990, 4084.090
290.9130, 3521.996
292.1270, 2542.219
293.3410, 2066.705
294.5540, 1838.410
295.7680, 1510.301
296.9810, 1180.350
298.1940, 1192.529
299.4070, 900.8262
300.6200, 778.2266
301.8320, 685.7168
303.0450, 443.2910
304.2570, 459.9258
305.4690, 513.6035
306.6800, 236.3184
307.8920, 32.06836
309.1030, 292.8477
310.3150, 66.65039
311.5260, 235.4727
312.7360, 142.3145
313.9470, 107.1992
315.1580, 202.1074
316.3680, 24.06250
317.5780, 21.05273
318.7880, 72.06641
319.9980, 23.11133
321.2070, 163.1250
322.4170, 115.1172
323.6260, 146.9277
324.8350, 289.6797
326.0430, 187.4160
327.2520, 293.1523
328.4610, 431.9102
329.6690, 776.7129
330.8770, 735.5254
332.0850, 1016.340
333.2920, 1123.141
334.5000, 927.8340
335.7070, 769.5781
336.9140, 679.3086
338.1210, 412.0723
339.3280, 346.8711
340.5350, 136.7070
341.7410, 159.5723
342.9470, 203.4688
344.1540, 230.3965
345.3590, 176.3516
346.5650, 183.3379
347.7710, 91.34961
348.9760, 53.60938
350.1810, 163.4336
351.3860, 6.496094
352.5910, 100.5859
353.7950, 330.6934
355.0000, 363.8242
356.2040, 490.9805
357.4080, 518.8867
358.6120, 577.6934
359.8150, 556.2852
361.0190, 533.3203
362.2220, 420.2500
363.4250, 349.0918
364.6280, 212.8047
365.8310, 284.8496
367.0340, 518.1895
368.2360, 446.4180
369.4380, 880.7930
370.6400, 1160.125
371.8420, 1641.535
373.0440, 1631.955
374.2450, 1729.625
375.4470, 1390.066
376.6480, 1118.254
377.8490, 649.2344
379.0490, 366.7266
380.2500, 200.5664
381.4500, 210.7480
382.6510, 133.2539
383.8510, 134.4590
385.0500, 38.97070
386.2500, 3.398438
387.4500, 20.81641
388.6490, 129.7500
389.8480, 32.32422
391.0470, 84.10156
392.2460, 130.4629
393.4440, 368.0430
394.6430, 40.63672
395.8410, 417.2461
397.0390, 379.6523
398.2370, 746.5176
399.4340, 684.1777
400.6320, 715.8516
401.8290, 1211.541
403.0260, 1444.248
404.2230, 1753.969
405.4200, 1551.727
406.6170, 1250.498
407.8130, 1037.264
409.0090, 788.0332
410.2050, 771.7930
411.4010, 1227.562
412.5970, 882.3535
413.7920, 1093.156
414.9880, 913.9863
416.1830, 848.8652
417.3780, 495.7617
418.5730, 393.6777
419.7670, 78.61523
420.9620, 21.56445
422.1560, 138.5273
423.3500, 109.6074
424.5440, 37.60352
425.7380, 13.38867
426.9310, 193.3789
428.1240, 159.0195
429.3180, 76.83789
430.5110, 236.2715
431.7030, 26.51953
432.8960, 180.6719
434.0890, 269.0586
435.2810, 236.8105
436.4730, 319.5742
437.6650, 121.3555
438.8570, 138.1465
440.0480, 488.9688
441.2390, 520.8008
442.4310, 612.6484
443.6220, 899.5078
444.8120, 1205.395
446.0030, 1591.293
447.1940, 1743.199
448.3840, 2357.115
449.5740, 2960.043
450.7640, 3891.980
451.9540, 4526.684
453.1430, 5731.635
454.3330, 6683.600
455.5220, 6916.572
456.7110, 6227.773
457.9000, 5373.764
459.0890, 4558.207
460.2770, 3558.896
461.4650, 3038.162
462.6540, 2915.184
463.8420, 2803.486
465.0290, 2742.674
466.2170, 2888.719
467.4050, 3227.668
468.5920, 3929.732
469.7790, 4659.701
470.9660, 5531.883
472.1530, 6855.971
473.3390, 8336.623
474.5250, 9983.730
475.7120, 10944.20
476.8980, 11315.32
478.0840, 10537.40
479.2690, 9375.541
480.4550, 7951.689
481.6400, 6637.111
482.8250, 5684.273
484.0100, 5199.441
485.1950, 4685.621
486.3800, 4110.807
487.5640, 3555.000
488.7480, 2795.199
489.9320, 2308.408
491.1160, 1808.621
492.3000, 1562.930
493.4840, 1576.160
494.6670, 1460.988
495.8500, 1420.234
497.0330, 1609.484
498.2160, 2172.746
499.3990, 2163.008
500.5810, 2760.293
501.7630, 2742.582
502.9460, 3959.898
504.1280, 4479.266
505.3090, 5883.664
506.4910, 7124.094
507.6720, 8954.547
508.8540, 11862.02
510.0350, 14317.51
511.2160, 17781.00
512.3960, 21070.51
513.5770, 23703.02
514.7570, 23802.54
515.9380, 22291.06
517.1180, 19042.60
518.2970, 14968.13
519.4770, 11898.68
520.6570, 9143.250
521.8360, 7140.824
523.0150, 5554.426
524.1940, 4448.031
525.3730, 3617.656
526.5510, 3154.328
527.7300, 2507.129
528.9080, 2055.734
530.0860, 2084.457
531.2640, 1724.164
532.4420, 1449.879
533.6200, 1483.332
534.7970, 1252.055
535.9740, 1102.777
537.1510, 1274.508
538.3280, 465.2422
539.5050, 753.2812
540.6810, 616.0664
541.8580, 770.8125
543.0340, 532.5664
544.2100, 431.3203
545.3860, 566.0820
546.5610, 568.6289
547.7370, 549.3984
548.9120, 395.1641
550.0870, 455.9375
551.2620, 92.71094
552.4370, 388.4883
553.6120, 165.2695
554.7860, 221.0508
555.9600, 425.1289
557.1340, 198.5234
558.3080, 244.4883
559.4820, 187.4297
560.6560, 384.1055
561.8290, 307.9023
563.0020, 179.9375
564.1750, 55.98828
565.3480, 134.6055
566.5210, 98.40234
567.6930, 269.5039
568.8660, 21.44141
570.0380, 160.3711
571.2100, 366.1836
572.3820, 153.5742
573.5530, 281.2539
574.7250, 167.8984
575.8960, 47.73047
577.0670, 270.5664
578.2380, 387.4023
579.4090, 248.2500
580.5800, 225.0664
581.7500, 879.0039
582.9210, 519.1562
584.0910, 1033.816
585.2610, 296.4609
586.4300, 367.4141
587.6000, 270.3672
588.7690, 202.3164
589.9390, 191.2734
591.1080, 157.2344
592.2770, 140.1875
593.4450, 98.15234
594.6140, 169.1172
595.7820, 73.07812
596.9500, 63.95703
598.1190, 146.9922
599.2860, 83.02734
600.4540, 48.08984
601.6220, 64.82422
602.7890, 90.76172
603.9560, 177.6992
605.1230, 61.35547
606.2900, 149.5469
607.4570, 152.5508
608.6230, 66.26562
609.7890, 90.07812
610.9560, 195.8906
612.1220, 142.6992
613.2870, 34.49219
614.4530, 305.2969
615.6180, 142.9180
616.7840, 149.8164
617.9490, 56.44531
619.1140, 137.2617
620.2790, 205.9688
621.4430, 21.67969
622.6080, 175.3867
623.7720, 279.0898
624.9360, 130.8203
626.1000, 279.5508
627.2640, 576.2734
628.4270, 259.0469
629.5910, 330.8281
630.7540, 159.6133
631.9170, 112.3945
633.0800, 177.6875
634.2430, 472.1328
635.4050, 314.0117
636.5680, 542.8867
637.7300, 659.7539
638.8920, 744.6289
640.0540, 589.6094
641.2150, 865.4844
642.3770, 745.3438
643.5380, 868.1172
644.7000, 733.9727
645.8610, 1115.816
647.0210, 982.2617
648.1820, 806.0938
649.3430, 1391.918
650.5030, 1595.738
651.6630, 1269.551
652.8230, 1260.355
653.9830, 1670.156
655.1430, 1355.945
656.3020, 1410.730
657.4620, 1259.504
658.6210, 1034.270
659.7800, 815.0312
660.9390, 793.7773
662.0970, 889.5586
663.2560, 637.3359
664.4140, 618.1055
665.5720, 479.8711
666.7300, 584.6289
667.8880, 344.3945
669.0460, 479.1523
670.2030, 360.9141
671.3600, 274.6641
672.5180, 346.3984
673.6740, 174.1562
674.8310, 385.8945
675.9880, 245.6289
677.1440, 112.3594
678.3010, 47.08203
679.4570, 80.78516
680.6130, 399.4805
681.7690, 96.16406
682.9240, 197.8359
684.0800, 223.4961
685.2350, 57.84766
686.3900, 315.7461
687.5450, 362.3320
688.7000, 131.9023
689.8540, 121.4609
691.0090, 112.0117
692.1630, 104.5508
693.3170, 222.1328
694.4710, 16.35938
695.6250, 100.8789
696.7780, 6.523438
697.9320, 7.898438
699.0850, 22.23438
700.2380, 123.5859
701.3910, 54.31641
702.5440, 69.61719
703.6970, 29.79688
704.8490, 118.0625
706.0010, 200.3203
707.1530, 215.5664
708.3050, 221.7773
709.4570, 114.0938
710.6090, 264.0195
711.7600, 471.0273
712.9110, 157.3633
714.0620, 156.2383
715.2130, 419.8047
716.3640, 215.8047
717.5150, 344.3516
718.6650, 20.11719
719.8150, 241.0078
720.9650, 65.46875
722.1150, 97.09766
723.2650, 25.69141
724.4150, 243.1328
725.5640, 377.3242
726.7130, 225.4531
727.8630, 266.7188
729.0110, 451.8086
730.1600, 158.1328
731.3090, 377.0430
732.4570, 480.1094
733.6060, 619.1328
734.7540, 477.1328
735.9020, 524.3750
737.0490, 688.4375
738.1970, 739.9453
739.3440, 1108.242
740.4920, 1245.219
741.6390, 1494.109
742.7860, 1644.738
743.9320, 2004.445
745.0790, 2306.281
746.2250, 2635.203
747.3720, 3257.000
748.5180, 3690.785
749.6640, 3828.543
750.8100, 3604.289
751.9550, 3413.352
753.1010, 2798.055
754.2460, 2537.051
755.3910, 2135.719
756.5360, 1758.652
757.6810, 1520.301
758.8250, 1056.523
759.9700, 1021.844
761.1140, 857.4141
762.2580, 646.2344
763.4020, 796.8125
764.5460, 749.9648
765.6900, 733.6289
766.8330, 713.5508
767.9760, 727.8242
769.1200, 400.2539
770.2620, 730.1719
771.4050, 307.7344
772.5480, 521.1094
773.6900, 394.9102
774.8330, 385.2305
775.9750, 348.9922
777.1170, 171.5547
778.2590, 313.8555
779.4000, 299.0781
780.5420, 3.281250
781.6830, 200.4375
782.8240, 359.5664
783.9650, 47.67188
785.1060, 467.7383
786.2470, 320.7891
787.3870, 314.8086
788.5280, 262.8086
789.6680, 384.8086
790.8080, 436.7617
791.9480, 390.6914
793.0870, 270.5977
794.2270, 315.4766
795.3660, 494.3438
796.5060, 407.1836
797.6450, 514.9922
798.7830, 503.5312
799.9220, 342.2227
801.0610, 574.9609
802.1990, 756.0352
803.3370, 788.7227
804.4750, 733.3906
805.6130, 1014.035
806.7510, 1062.648
807.8890, 1599.242
809.0260, 1698.809
810.1630, 2006.367
811.3000, 2433.906
812.4370, 2560.414
813.5740, 2572.988
814.7110, 2866.668
815.8470, 2369.801
816.9830, 2203.172
818.1190, 1659.559
819.2550, 953.9180
820.3910, 785.2539
821.5270, 803.5625
822.6620, 519.0625
823.7970, 509.3516
824.9330, 459.5898
826.0670, 412.8047
827.2020, 224.9922
828.3370, 212.1562
829.4710, 195.2891
830.6060, 346.4023
831.7400, 271.7266
832.8740, 209.6641
834.0080, 278.5312
835.1410, 261.3945
836.2750, 381.5000
837.4080, 13.46875
838.5410, 356.9648
839.6740, 201.6172
840.8070, 210.6875
841.9400, 373.5430
843.0730, 342.3711
844.2050, 53.17578
845.3370, 426.9492
846.4690, 104.6992
847.6010, 38.41797
848.7330, 367.0977
849.8640, 112.7539
850.9960, 147.3789
852.1270, 98.98438
853.2580, 59.55078
854.3890, 50.90625
855.5200, 173.3906
856.6500, 141.9258
857.7810, 117.5625
858.9110, 240.5547
860.0410, 30.09766
861.1710, 163.3008
862.3010, 229.4844
863.4310, 53.64453
864.5600, 249.7734
865.6900, 126.8789
866.8190, 69.95703
867.9480, 162.0117
869.0770, 180.0391
870.2050, 253.0430
871.3340, 59.97266
872.4620, 70.04688
873.5900, 360.8008
874.7180, 22.64062
875.8460, 38.53125
876.9740, 316.2266
878.1010, 68.96484
879.2290, 237.6758
880.3560, 429.3789
881.4830, 218.0664
882.6100, 339.5430
883.7370, 154.4648
884.8630, 246.1289
885.9900, 178.7812
887.1160, 52.40625
888.2420, 154.0156
889.3680, 99.39453
890.4940, 222.1406
891.6200, 13.34375
892.7450, 554.1367
893.8700, 14.60547
894.9960, 351.0312
896.1210, 174.4453
897.2460, 79.16406
898.3700, 122.1484
899.4950, 57.43750
900.6190, 158.2969
901.7430, 15.84375
902.8670, 5.949219
903.9910, 255.0234
905.1150, 244.9219
906.2390, 90.96094
907.3620, 116.8242
908.4850, 60.67188
909.6080, 242.5000
910.7310, 7.699219
911.8540, 70.06641
912.9770, 96.70312
914.0990, 137.4258
915.2210, 122.1367
916.3440, 155.4609
917.4660, 182.3281
918.5870, 212.2344
919.7090, 180.2617
920.8310, 241.8867
921.9520, 103.4922
923.0730, 491.0898
924.1940, 79.67188
925.3150, 394.2383
926.4360, 306.7891
927.5560, 409.3242
928.6770, 462.1094
929.7970, 72.33984
930.9170, 358.8281
932.0370, 183.2969
933.1570, 134.2500
934.2760, 6.117188
935.3960, 178.4570
936.5150, 2.218750
937.6340, 109.0820
938.7530, 252.3672
939.8720, 223.6367
940.9910, 223.4844
942.1090, 323.1367
943.2280, 236.3203
944.3460, 227.2461
945.4640, 101.2891
946.5820, 137.4766
947.6990, 1.316406
948.8170, 22.83984
949.9340, 458.9727
951.0520, 366.0977
952.1690, 431.2148
953.2860, 166.3164
954.4030, 283.3984
955.5190, 247.4766
956.6360, 124.5391
957.7520, 23.61328
958.8680, 241.6719
959.9840, 43.72266
961.1000, 261.7578
962.2160, 215.7812
963.3310, 176.8008
964.4470, 344.7461
965.5620, 452.7422
966.6770, 233.7383
967.7920, 401.7539
968.9060, 380.7656
970.0210, 324.7734
971.1360, 296.7773
972.2500, 211.3594
973.3640, 193.3438
974.4780, 367.3242
975.5920, 275.2969
976.7050, 437.2617
977.8190, 357.2188
978.9320, 506.7852
980.0450, 441.7305
981.1580, 476.0391
982.2710, 199.3047
983.3840, 528.2227
984.4970, 275.6836
985.6090, 675.4258
986.7210, 817.7109
987.8330, 728.4609
988.9450, 890.2578
990.0570, 857.4570
991.1690, 1210.301
992.2800, 1541.961
993.3920, 1691.035
994.5030, 1616.449
995.6140, 1749.480
996.7250, 1808.555
997.8350, 1345.469
998.9460, 1226.535
1000.056, 1234.352
1001.167, 1190.586
1002.277, 1048.645
1003.387, 1033.727
1004.496, 1058.805
1005.606, 955.4531
1006.715, 634.4844
1007.825, 713.6211
1008.934, 558.0742
1010.043, 715.1445
1011.152, 512.2734
1012.260, 537.6523
1013.369, 600.7812
1014.477, 468.9141
1015.586, 638.0469
1016.694, 405.1758
1017.802, 212.3047
1018.909, 637.4531
1020.017, 431.6016
1021.124, 356.8516
1022.232, 339.0000
1023.339, 556.4883
1024.446, 281.6445
1025.553, 446.5703
1026.659, 418.7305
1027.766, 418.2617
1028.872, 706.4258
1029.979, 576.5898
1031.085, 574.4961
1032.191, 485.6289
1033.296, 407.1680
1034.402, 526.1836
1035.507, 521.9180
1036.613, 407.2891
1037.718, 351.4883
1038.823, 485.1836
1039.928, 519.2109
1041.032, 384.4141
1042.137, 585.1719
1043.241, 349.3984
1044.346, 731.1602
1045.450, 170.1172
1046.554, 323.3086
1047.657, 628.5703
1048.761, 487.8945
1049.864, 429.1797
1050.968, 456.4688
1052.071, 394.8984
1053.174, 629.0820
1054.277, 356.4062
1055.379, 607.4648
1056.482, 538.8008
1057.584, 790.1289
1058.687, 53.48828
1059.789, 406.8555
1060.891, 140.2266
1061.992, 210.6133
1063.094, 127.9961
1064.196, 123.4023
1065.297, 90.81641
1066.398, 19.22266
1067.499, 21.26953
1068.600, 27.01562
1069.701, 69.27344
1070.801, 69.94922
1071.902, 258.4297
1073.002, 264.9180
1074.102, 132.4180
1075.202, 145.9297
1076.302, 103.5430
1077.402, 35.01562
1078.501, 176.5312
1079.600, 1.937500
1080.700, 182.5117
1081.799, 180.8398
1082.898, 267.4062
1083.996, 392.9844
1085.095, 296.5742
1086.193, 238.1797
1087.292, 75.79688
1088.390, 416.4336
1089.488, 318.0781
1090.586, 342.7109
1091.683, 376.3867
1092.781, 237.0703
1093.878, 378.7734
1094.975, 911.4844
1096.073, 396.2148
1097.169, 760.9570
1098.266, 1368.715
1099.363, 1385.484
1100.459, 887.2734
1101.556, 1172.074
1102.652, 801.8984
1103.748, 333.7305
1104.844, 749.5898
1105.940, 655.4648
1107.035, 790.3555
1108.131, 745.3008
1109.226, 614.2227
1110.321, 658.1602
1111.416, 1038.121
1112.511, 1160.102
1113.605, 801.1055
1114.700, 1423.125
1115.794, 1490.039
1116.889, 1877.098
1117.983, 2254.168
1119.077, 2801.504
1120.170, 3071.141
1121.264, 3400.578
1122.357, 3971.801
1123.451, 3948.613
1124.544, 4131.168
1125.637, 3727.445
1126.730, 3545.738
1127.823, 3061.055
1128.915, 2776.383
1130.008, 2585.219
1131.100, 2310.094
1132.192, 2292.500
1133.284, 2176.898
1134.376, 2168.316
1135.467, 2255.746
1136.559, 2384.852
1137.650, 2650.344
1138.742, 2422.184
1139.833, 2295.734
1140.924, 1970.312
1142.014, 1839.930
1143.105, 1880.555
1144.195, 1426.199
1145.286, 1282.863
1146.376, 1302.543
1147.466, 1040.234
1148.556, 746.9492
1149.646, 613.7500
1150.735, 469.9961
1151.825, 668.2539
1152.914, 407.0391
1154.003, 327.2188
1155.092, 492.0664
1156.181, 245.9336
1157.270, 339.8320
1158.358, 274.7461
1159.447, 413.6836
1160.535, 344.6406
1161.623, 393.4844
1162.711, 268.5039
1163.799, 361.5430
1164.886, 386.6016
1165.974, 280.8555
1167.061, 237.8750
1168.148, 187.0547
1169.235, 222.2500
1170.322, 341.5352
1171.409, 182.8438
1172.496, 184.1680
1173.582, 429.5117
1174.669, 75.87109
1175.755, 403.2656
1176.841, 223.6758
1177.927, 159.1055
1179.012, 9.550781
1180.098, 133.0156
1181.183, 453.5000
1182.269, 106.0039
1183.354, 289.5234
1184.439, 386.0625
1185.524, 30.37891
1186.608, 343.1836
1187.693, 185.7617
1188.777, 306.3594
1189.862, 272.9766
1190.946, 154.6133
1192.030, 366.2695
1193.113, 91.94531
1194.197, 144.6367
1195.281, 181.3555
1196.364, 29.91406
1197.447, 148.8633
1198.530, 59.66797
1199.613, 239.4844
1200.696, 6.335938
1201.779, 332.2031
1202.861, 270.0820
1203.944, 38.98438
1205.026, 215.9062
1206.108, 413.8516
1207.190, 10.30859
1208.271, 214.0508
1209.353, 415.2891
1210.435, 204.2773
1211.516, 110.3242
1212.597, 119.3906
1213.678, 159.4805
1214.759, 195.5859
1215.840, 327.7109
1216.920, 503.8594
1218.001, 304.0234
1219.081, 368.2109
1220.161, 26.41797
1221.241, 218.6445
1222.321, 298.8945
1223.401, 516.1680
1224.480, 148.4531
1225.560, 486.7617
1226.639, 396.0938
1227.718, 67.44531
1228.797, 456.8164
1229.876, 231.2109
1230.955, 167.6172
1232.033, 234.0508
1233.112, 114.5078
1234.190, 254.9805
1235.268, 108.4805
1236.346, 129.9922
1237.424, 13.53125
1238.501, 274.0859
1239.579, 137.6641
1240.656, 137.2656
1241.733, 211.8867
1242.811, 15.52734
1243.888, 101.1836
1244.964, 229.1328
1246.041, 41.46875
1247.117, 151.0898
1248.194, 123.2656
1249.270, 259.6523
1250.346, 124.1367
1251.422, 128.3438
1252.498, 70.15234
1253.573, 42.66406
1254.649, 204.8320
1255.724, 67.34766
1256.800, 421.8789
1257.875, 27.43359
1258.950, 80.01172
1260.024, 142.6094
1261.099, 120.7656
1262.173, 166.8242
1263.248, 158.4375
1264.322, 355.0664
1265.396, 228.2734
1266.470, 236.3125
1267.544, 45.08203
1268.617, 156.5234
1269.691, 80.15625
1270.764, 134.8047
1271.837, 247.4766
1272.910, 205.1758
1273.983, 123.8867
1275.056, 141.6289
1276.129, 35.39453
1277.201, 63.17969
1278.273, 86.01562
1279.346, 214.7773
1280.418, 170.5938
1281.489, 291.4336
1282.561, 27.70312
1283.633, 199.1719
1284.704, 313.0664
1285.776, 75.98828
1286.847, 164.9297
1287.918, 354.8984
1288.989, 283.8867
1290.059, 17.09375
1291.130, 137.9336
1292.200, 340.9844
1293.271, 108.0586
1294.341, 309.1641
1295.411, 165.2891
1296.481, 219.4414
1297.551, 215.6211
1298.620, 130.8242
1299.690, 170.0469
1300.759, 432.2969
1301.828, 284.5703
1302.897, 173.8711
1303.966, 596.2031
1305.035, 364.5586
1306.103, 50.95312
1307.172, 295.3789
1308.240, 275.7656
1309.308, 220.2383
1310.376, 300.7461
1311.444, 593.2734
1312.512, 317.8359
1313.580, 455.4141
1314.647, 486.2852
1315.714, 382.8984
1316.781, 314.5273
1317.848, 336.1758
1318.915, 131.8438
1319.982, 546.5312
1321.049, 363.2344
1322.115, 409.9570
1323.181, 777.6953
1324.248, 261.4570
1325.314, 546.5000
1326.380, 208.2930
1327.445, 143.1094
1328.511, 164.9414
1329.576, 429.5859
1330.642, 506.4531
1331.707, 601.3438
1332.772, 610.2461
1333.837, 650.1719
1334.902, 624.2812
1335.966, 588.0430
1337.031, 572.0469
1338.095, 559.9219
1339.159, 432.1016
1340.223, 596.1562
1341.287, 531.2305
1342.351, 643.3320
1343.415, 670.4453
1344.478, 243.5820
1345.541, 429.7383
1346.605, 61.91406
1347.668, 490.1094
1348.731, 474.3320
1349.793, 318.5742
1350.856, 417.8438
1351.918, 425.1328
1352.981, 388.4414
1354.043, 494.7734
1355.105, 544.1328
1356.167, 447.5117
1357.229, 438.9180
1358.290, 413.0938
1359.352, 165.8008
1360.413, 333.2812
1361.475, 423.7812
1362.536, 364.3086
1363.597, 630.8594
1364.657, 498.4375
1365.718, 716.0078
1366.779, 716.6367
1367.839, 524.2891
1368.899, 263.9727
1369.959, 608.6758
1371.019, 385.3945
1372.079, 351.1562
1373.139, 106.0547
1374.198, 407.8672
1375.258, 386.6992
1376.317, 420.3164
1377.376, 601.6758
1378.435, 595.3086
1379.494, 639.0742
1380.553, 337.6602
1381.611, 551.3672
1382.670, 403.3945
1383.728, 156.4492
1384.786, 266.5391
1385.844, 316.6562
1386.902, 358.8047
1387.960, 339.9844
1389.017, 440.1719
1390.075, 340.4141
1391.132, 377.6914
1392.189, 510.1875
1393.246, 420.1289
1394.303, 343.7930
1395.360, 408.9102
1396.417, 487.3555
1397.473, 527.8398
1398.529, 392.3633
1399.585, 444.9219
1400.642, 287.5195
1401.697, 261.1602
1402.753, 238.8320
1403.809, 433.5469
1404.864, 656.3086
1405.920, 418.0234
1406.975, 475.8633
1408.030, 380.7461
1409.085, 294.6719
1410.140, 379.2539
1411.194, 706.2695
1412.249, 498.3359
1413.303, 322.4492
1414.358, 783.6094
1415.412, 322.8242
1416.466, 220.0586
1417.520, 529.4609
1418.573, 424.7930
1419.627, 387.1719
1420.680, 373.6133
1421.733, 380.4258
1422.787, 276.9844
1423.840, 233.6055
1424.892, 433.2852
1425.945, 474.0391
1426.998, 675.8594
1428.050, 519.7500
1429.103, 228.7188
1430.155, 305.7695
1431.207, 431.0703
1432.259, 249.8633
1433.310, 429.1758
1434.362, 452.5859
1435.414, 322.1172
1436.465, 297.2188
1437.516, 279.3242
1438.567, 324.2305
1439.618, 354.7930
1440.669, 376.5430
1441.720, 439.7656
1442.770, 414.3047
1443.820, 542.8633
1444.871, 496.4648
1445.921, 497.3086
1446.971, 413.7734
1448.021, 408.4805
1449.070, 386.2266
1450.120, 275.0039
1451.169, 238.8086
1452.219, 248.6523
1453.268, 492.5234
1454.317, 281.4297
1455.366, 329.3672
1456.414, 97.33984
1457.463, 487.3398
1458.511, 448.3750
1459.560, 369.4414
1460.608, 328.5430
1461.656, 379.6719
1462.704, 447.8359
1463.752, 568.0312
1464.799, 642.2578
1465.847, 472.5195
1466.894, 428.8086
1467.941, 332.1367
1468.988, 379.4922
1470.035, 413.0156
1471.082, 418.6133
1472.129, 514.4688
1473.175, 474.4297
1474.222, 206.4766
1475.268, 588.5703
1476.314, 236.7070
1477.360, 517.9219
1478.406, 302.2188
1479.452, 334.6172
1480.498, 394.1445
1481.543, 638.7305
1482.588, 151.3672
1483.633, 515.0469
1484.679, 385.7773
1485.723, 645.5781
1486.768, 63.45703
1487.813, 263.3906
1488.857, 262.3711
1489.902, 310.4102
1490.946, 166.4883
1491.990, 103.6211
1493.034, 316.7969
1494.078, 383.0039
1495.122, 197.2539
1496.165, 437.5430
1497.209, 494.8555
1498.252, 37.20312
1499.295, 35.50781
1500.338, 169.8242
1501.381, 508.1680
1502.424, 512.5312
1503.466, 477.9883
1504.509, 237.5312
1505.551, 259.1797
1506.593, 464.9180
1507.635, 408.7578
1508.677, 123.7031
1509.719, 431.7578
1510.761, 117.9180
1511.802, 115.1914
1512.844, 144.5859
1513.885, 313.0938
1514.926, 70.73438
1515.967, 52.50000
1517.008, 63.59375
1518.049, 38.55078
1519.089, 285.6250
1520.130, 277.9375
1521.170, 334.3750
1522.210, 221.9492
1523.250, 201.6641
1524.290, 446.5078
1525.330, 292.4961
1526.370, 488.6328
1527.409, 175.9141
1528.448, 446.3555
1529.488, 388.9688
1530.527, 452.7578
1531.566, 238.7344
1532.605, 164.9141
1533.643, 515.3203
1534.682, 164.9727
1535.720, 170.8750
1536.759, 423.0352
1537.797, 242.4766
1538.835, 247.2070
1539.873, 310.2500
1540.910, 248.2930
1541.948, 492.6641
1542.986, 255.2500
1544.023, 221.1758
1545.060, 360.4531
1546.097, 49.11719
1547.134, 444.1914
1548.171, 275.7070
1549.208, 228.6914
1550.244, 705.1758
1551.281, 499.1914
1552.317, 253.7578
1553.353, 247.7305
1554.389, 455.7617
1555.425, 200.3867
1556.461, 22.91016
1557.497, 605.0859
1558.532, 675.6367
1559.567, 646.8516
1560.603, 268.4492
1561.638, 245.0234
1562.673, 0.4531250
1563.708, 0.0000000E+00
##END=



