##NAMES=Microcline
##RRUFFID=R050150
##IDEAL CHEMISTRY=KAlSi_3_O_8_
##LOCALITY=Crystal Peak area, Park/Teller Counties, Colorado, USA
##OWNER=RRUFF
##SOURCE=Dave Bunk Minerals
##DESCRIPTION=Pale blue prismatic crystals
##STATUS=The identification of this mineral has been confirmed by X-ray diffraction and chemical analysis
##URL=rruff.info/R050150
##MEASURED CHEMISTRY=(K_0.95_Na_0.05_)_Î£=1_Al_1.00_Si_3.00_O_8_
##PIN_ID=L00945
##ORIENTATION=Laser parallel to a* (1 0 0). Fiducial mark perpendicular to laser is parallel to b [0 1 0]
137.6830, 0.0000000E+00
138.9210, 125.7832
140.1580, 145.9365
141.3950, 323.3145
142.6330, 420.7900
143.8690, 769.1865
145.1060, 1061.426
146.3430, 1560.463
147.5790, 2197.132
148.8150, 2548.824
150.0510, 2957.703
151.2870, 3080.430
152.5220, 2943.586
153.7580, 2358.522
154.9930, 1657.730
156.2280, 1375.625
157.4620, 666.5303
158.6970, 458.2920
159.9310, 111.8613
161.1660, 217.3223
162.4000, 62.52832
163.6330, 47.22852
164.8670, 252.1543
166.1000, 334.5723
167.3340, 723.3701
168.5670, 1175.850
169.8000, 1590.273
171.0320, 1942.869
172.2650, 2241.822
173.4970, 2737.488
174.7290, 3437.355
175.9610, 4296.516
177.1930, 5179.199
178.4240, 5683.361
179.6550, 6194.388
180.8870, 5979.178
182.1170, 5358.299
183.3480, 4413.032
184.5790, 3515.732
185.8090, 2644.938
187.0390, 2059.316
188.2690, 1722.827
189.4990, 1601.452
190.7290, 1444.635
191.9580, 1171.104
193.1870, 1388.018
194.4160, 1510.898
195.6450, 1455.732
196.8740, 1689.506
198.1020, 1843.212
199.3310, 2009.860
200.5590, 1835.507
201.7870, 1809.314
203.0140, 1404.050
204.2420, 1177.713
205.4690, 869.3057
206.6960, 553.8350
207.9230, 188.3057
209.1500, 189.7227
210.3760, 80.10156
211.6030, 101.5098
212.8290, 14.04980
214.0550, 63.78223
215.2810, 107.3164
216.5060, 20.73828
217.7320, 86.06543
218.9570, 69.74609
220.1820, 37.31543
221.4070, 153.7852
222.6320, 90.16992
223.8560, 41.49023
225.0800, 16.55957
226.3040, 81.47168
227.5280, 11.83398
228.7520, 0.5927730
229.9760, 128.3926
231.1990, 132.6934
232.4220, 53.64844
233.6450, 17.64258
234.8680, 39.37109
236.0910, 43.60156
237.3130, 129.5566
238.5350, 56.49121
239.7570, 89.40820
240.9790, 155.8818
242.2010, 199.5947
243.4220, 302.6123
244.6430, 370.4639
245.8640, 773.2910
247.0850, 854.0791
248.3060, 1149.743
249.5270, 1553.253
250.7470, 1751.577
251.9670, 2209.698
253.1870, 2742.602
254.4070, 3421.271
255.6260, 3987.828
256.8460, 4708.299
258.0650, 5487.719
259.2840, 6179.074
260.5030, 6339.009
261.7220, 6458.350
262.9400, 6632.554
264.1580, 6666.594
265.3760, 7000.266
266.5940, 7116.314
267.8120, 6920.377
269.0290, 6444.456
270.2470, 5762.551
271.4640, 5201.660
272.6810, 4535.783
273.8980, 4041.924
275.1140, 4082.079
276.3310, 4075.250
277.5470, 4214.436
278.7630, 4581.637
279.9790, 4628.852
281.1940, 5339.657
282.4100, 5881.900
283.6250, 6353.159
284.8400, 6898.266
286.0550, 6809.094
287.2700, 6774.198
288.4850, 6096.414
289.6990, 5436.660
290.9130, 4786.877
292.1270, 4118.578
293.3410, 3365.070
294.5540, 2874.027
295.7680, 2422.875
296.9810, 1978.500
298.1940, 1712.852
299.4070, 1428.586
300.6200, 1310.443
301.8320, 1068.525
303.0450, 973.4854
304.2570, 868.3037
305.4690, 610.9561
306.6800, 429.4287
307.8920, 391.7266
309.1030, 181.9648
310.3150, 89.50098
311.5260, 128.3174
312.7360, 145.0156
313.9470, 78.41406
315.1580, 140.0234
316.3680, 16.64844
317.5780, 124.4365
318.7880, 51.34082
319.9980, 49.38379
321.2070, 63.23633
322.4170, 137.6953
323.6260, 141.8516
324.8350, 207.6641
326.0430, 267.1094
327.2520, 317.2598
328.4610, 396.2715
329.6690, 617.1191
330.8770, 574.9023
332.0850, 746.5625
333.2920, 742.0625
334.5000, 601.4971
335.7070, 598.8848
336.9140, 507.2520
338.1210, 419.6152
339.3280, 360.9785
340.5350, 323.3398
341.7410, 201.6992
342.9470, 256.0576
344.1540, 279.4131
345.3590, 449.7705
346.5650, 334.1270
347.7710, 341.4814
348.9760, 495.8369
350.1810, 260.1904
351.3860, 547.5459
352.5910, 400.9014
353.7950, 681.8535
355.0000, 943.8486
356.2040, 776.3838
357.4080, 730.4766
358.6120, 781.8438
359.8150, 785.1660
361.0190, 789.1328
362.2220, 741.7607
363.4250, 716.2334
364.6280, 607.0371
365.8310, 587.6738
367.0340, 542.0625
368.2360, 397.5068
369.4380, 664.0605
370.6400, 914.2266
371.8420, 919.1221
373.0440, 938.6729
374.2450, 795.8994
375.4470, 849.9902
376.6480, 601.1602
377.8490, 422.8008
379.0490, 255.0410
380.2500, 88.87012
381.4500, 5.640625
382.6510, 5.350586
383.8510, 3.342773
385.0500, 61.87988
386.2500, 51.08008
387.4500, 85.89160
388.6490, 89.35840
389.8480, 9.105469
391.0470, 66.46289
392.2460, 349.4756
393.4440, 576.4932
394.6430, 868.5146
395.8410, 1136.542
397.0390, 1448.576
398.2370, 1783.228
399.4340, 2054.668
400.6320, 2536.729
401.8290, 2848.797
403.0260, 3330.878
404.2230, 3349.969
405.4200, 3314.065
406.6170, 2986.178
407.8130, 2538.321
409.0090, 2161.438
410.2050, 1862.562
411.4010, 1908.698
412.5970, 1737.854
413.7920, 1613.021
414.9880, 1192.205
416.1830, 916.4004
417.3780, 771.6074
418.5730, 366.8428
419.7670, 224.0908
420.9620, 121.3652
422.1560, 22.34766
423.3500, 92.94629
424.5440, 86.25293
425.7380, 43.56738
426.9310, 47.89551
428.1240, 35.76660
429.3180, 48.54980
430.5110, 71.16113
431.7030, 158.1357
432.8960, 224.4023
434.0890, 287.6514
435.2810, 396.8818
436.4730, 593.0967
437.6650, 616.2939
438.8570, 849.4736
440.0480, 1113.639
441.2390, 1440.788
442.4310, 1833.924
443.6220, 2327.046
444.8120, 2832.155
446.0030, 3679.252
447.1940, 4575.334
448.3840, 5461.410
449.5740, 6247.473
450.7640, 7383.527
451.9540, 8380.572
453.1430, 9176.024
454.3330, 9926.034
455.5220, 9875.477
456.7110, 9343.770
457.9000, 8615.433
459.0890, 7483.053
460.2770, 6676.013
461.4650, 6185.529
462.6540, 6039.961
463.8420, 6258.305
465.0290, 7010.619
466.2170, 8405.473
467.4050, 9932.206
468.5920, 11725.14
469.7790, 13518.97
470.9660, 15731.99
472.1530, 18102.02
473.3390, 20503.05
474.5250, 22418.10
475.7120, 24225.14
476.8980, 24307.20
478.0840, 22848.26
479.2690, 20285.33
480.4550, 17185.41
481.6400, 14077.50
482.8250, 11927.60
484.0100, 10005.71
485.1950, 8836.506
486.3800, 7524.547
487.5640, 6280.684
488.7480, 5534.830
489.9320, 4449.988
491.1160, 3698.152
492.3000, 3557.330
493.4840, 3228.508
494.6670, 3109.703
495.8500, 3224.910
497.0330, 3586.131
498.2160, 4060.369
499.3990, 4682.633
500.5810, 5621.953
501.7630, 7401.311
502.9460, 9203.691
504.1280, 11982.14
505.3090, 15001.61
506.4910, 18808.14
507.6720, 22057.72
508.8540, 25620.35
510.0350, 30176.06
511.2160, 34199.82
512.3960, 37997.63
513.5770, 39512.47
514.7570, 39381.34
515.9380, 36631.23
517.1180, 31543.17
518.2970, 25956.12
519.4770, 20239.11
520.6570, 15683.11
521.8360, 12085.15
523.0150, 9425.180
524.1940, 7617.764
525.3730, 6203.385
526.5510, 5146.082
527.7300, 4223.789
528.9080, 3735.844
530.0860, 3136.285
531.2640, 2623.564
532.4420, 2392.299
533.6200, 1917.514
534.7970, 2067.785
535.9740, 1798.068
537.1510, 1547.367
538.3280, 1335.676
539.5050, 1222.998
540.6810, 1041.334
541.8580, 1020.682
543.0340, 865.0430
544.2100, 857.4160
545.3860, 631.7988
546.5610, 624.1992
547.7370, 499.7734
548.9120, 604.9883
550.0870, 595.7363
551.2620, 459.1816
552.4370, 484.6387
553.6120, 516.5137
554.7860, 428.9941
555.9600, 268.0332
557.1340, 478.5371
558.3080, 342.0527
559.4820, 382.2324
560.6560, 445.7754
561.8290, 420.5156
563.0020, 413.9414
564.1750, 258.0957
565.3480, 324.6816
566.5210, 243.2793
567.6930, 178.8867
568.8660, 326.5059
570.0380, 292.2207
571.2100, 288.8867
572.3820, 103.5586
573.5530, 175.2461
574.7250, 281.9414
575.8960, 455.6484
577.0670, 347.3672
578.2380, 364.1055
579.4090, 407.8574
580.5800, 359.6191
581.7500, 395.3906
582.9210, 422.1738
584.0910, 482.9766
585.2610, 423.7988
586.4300, 297.6367
587.6000, 249.4863
588.7690, 201.4922
589.9390, 88.24609
591.1080, 111.1523
592.2770, 108.0664
593.4450, 6.994141
594.6140, 30.06641
595.7820, 111.1113
596.9500, 67.81250
598.1190, 82.21680
599.2860, 9.230469
600.4540, 149.8086
601.6220, 111.1035
602.7890, 99.00586
603.9560, 111.9082
605.1230, 178.8516
606.2900, 114.5039
607.4570, 111.7832
608.6230, 33.79688
609.7890, 129.1875
610.9560, 156.1914
612.1220, 206.2188
613.2870, 148.2559
614.4530, 31.30664
615.6180, 171.3848
616.7840, 28.47461
617.9490, 149.6016
619.1140, 134.7402
620.2790, 243.8906
621.4430, 312.0508
622.6080, 269.2227
623.7720, 358.9336
624.9360, 348.8066
626.1000, 455.8438
627.2640, 397.0820
628.4270, 483.3828
629.5910, 591.6914
630.7540, 662.0156
631.9170, 648.3516
633.0800, 680.6973
634.2430, 716.0547
635.4050, 852.4551
636.5680, 874.8945
637.7300, 1107.344
638.8920, 1019.799
640.0540, 1182.277
641.2150, 1323.773
642.3770, 1310.277
643.5380, 1407.789
644.7000, 1512.307
645.8610, 1604.834
647.0210, 1489.391
648.1820, 1788.975
649.3430, 1694.564
650.5030, 1746.160
651.6630, 1901.783
652.8230, 2205.387
653.9830, 2059.998
655.1430, 2021.609
656.3020, 1867.227
657.4620, 1653.848
658.6210, 1630.473
659.7800, 1479.100
660.9390, 1583.730
662.0970, 1409.365
663.2560, 1302.514
664.4140, 854.6465
665.5720, 953.2930
666.7300, 720.9453
667.8880, 440.6133
669.0460, 422.2812
670.2030, 514.9688
671.3600, 253.6758
672.5180, 321.3887
673.6740, 75.10156
674.8310, 262.8184
675.9880, 32.53320
677.1440, 192.2500
678.3010, 167.9648
679.4570, 132.9336
680.6130, 25.40234
681.7690, 43.12109
682.9240, 560.8398
684.0800, 357.5586
685.2350, 247.2754
686.3900, 31.00586
687.5450, 121.3086
688.7000, 5.318359
689.8540, 36.93945
691.0090, 55.56055
692.1630, 15.81836
693.3170, 34.78906
694.4710, 1.390625
695.6250, 220.9844
696.7780, 169.5801
697.9320, 51.38477
699.0850, 236.1699
700.2380, 43.27539
701.3910, 73.25000
702.5440, 56.77148
703.6970, 215.2910
704.8490, 62.81055
706.0010, 219.3262
707.1530, 323.8516
708.3050, 314.3594
709.4570, 413.5742
710.6090, 333.4062
711.7600, 512.9102
712.9110, 342.4199
714.0620, 448.9199
715.2130, 436.8086
716.3640, 196.4238
717.5150, 455.9102
718.6650, 374.3906
719.8150, 218.9473
720.9650, 496.4395
722.1150, 345.5879
723.2650, 316.1074
724.4150, 540.5723
725.5640, 381.0801
726.7130, 412.7266
727.8630, 475.1660
729.0110, 578.1309
730.1600, 521.5547
731.3090, 671.9766
732.4570, 922.4844
733.6060, 895.4883
734.7540, 941.6738
735.9020, 1287.811
737.0490, 1460.773
738.1970, 1765.340
739.3440, 2124.244
740.4920, 2188.293
741.6390, 2560.836
742.7860, 3005.783
743.9320, 3469.820
745.0790, 3917.836
746.2250, 4587.445
747.3720, 5081.699
748.5180, 5374.535
749.6640, 5506.459
750.8100, 5469.854
751.9550, 4727.947
753.1010, 4280.676
754.2460, 3696.936
755.3910, 3265.182
756.5360, 2459.799
757.6810, 2130.027
758.8250, 1926.416
759.9700, 1402.766
761.1140, 1345.963
762.2580, 1281.883
763.4020, 838.2070
764.5460, 932.7969
765.6900, 796.3457
766.8330, 836.4863
767.9760, 732.9395
769.1200, 705.0566
770.2620, 719.1543
771.4050, 563.2461
772.5480, 447.6426
773.6900, 186.7012
774.8330, 211.3242
775.9750, 176.5566
777.1170, 241.0723
778.2590, 297.2383
779.4000, 368.2363
780.5420, 439.2168
781.6830, 377.1836
782.8240, 265.4863
783.9650, 392.2988
785.1060, 209.6602
786.2470, 270.5938
787.3870, 410.4824
788.5280, 109.3594
789.6680, 222.2168
790.8080, 495.0566
791.9480, 255.8848
793.0870, 476.6953
794.2270, 532.4883
795.3660, 470.2676
796.5060, 613.0293
797.6450, 397.7754
798.7830, 468.5039
799.9220, 640.2168
801.0610, 428.9141
802.1990, 686.5938
803.3370, 841.2578
804.4750, 994.9062
805.6130, 1256.535
806.7510, 1513.148
807.8890, 1837.746
809.0260, 2166.326
810.1630, 2415.889
811.3000, 2561.434
812.4370, 2667.312
813.5740, 3009.473
814.7110, 2576.967
815.8470, 2600.443
816.9830, 2263.902
818.1190, 1747.346
819.2550, 1287.771
820.3910, 1225.180
821.5270, 880.5703
822.6620, 801.9414
823.7970, 601.1309
824.9330, 462.6777
826.0670, 405.6836
827.2020, 384.9883
828.3370, 218.2773
829.4710, 219.1426
830.6060, 403.3984
831.7400, 236.0879
832.8740, 226.3066
834.0080, 18.51172
835.1410, 191.0391
836.2750, 231.1953
837.4080, 185.1523
838.5410, 174.2773
839.6740, 198.3848
840.8070, 235.4746
841.9400, 133.5488
843.0730, 100.6074
844.2050, 125.6484
845.3370, 60.32422
846.4690, 80.63281
847.6010, 162.5742
848.7330, 99.50000
849.8640, 246.4082
850.9960, 46.29883
852.1270, 0.8300780
853.2580, 140.0039
854.3890, 109.8242
855.5200, 81.10547
856.6500, 94.41016
857.7810, 5.177734
858.9110, 1.083984
860.0410, 19.61523
861.1710, 84.28906
862.3010, 20.05273
863.4310, 129.5586
864.5600, 6.156250
865.6900, 118.7227
866.8190, 135.2734
867.9480, 71.80859
869.0770, 13.67383
870.2050, 180.8086
871.3340, 94.69922
872.4620, 53.71094
873.5900, 139.8848
874.7180, 44.57812
875.8460, 166.6680
876.9740, 18.92578
878.1010, 104.1816
879.2290, 10.55664
880.3560, 26.28516
881.4830, 18.00781
882.6100, 39.19727
883.7370, 0.4199220
884.8630, 17.38867
885.9900, 56.76367
887.1160, 13.90430
888.2420, 31.74805
889.3680, 160.0898
890.4940, 88.85352
891.6200, 29.12500
892.7450, 209.0879
893.8700, 41.03711
894.9960, 42.96875
896.1210, 243.8867
897.2460, 71.20898
898.3700, 39.63086
899.4950, 21.45508
900.6190, 178.7344
901.7430, 176.9531
902.8670, 3.371094
903.9910, 378.2773
905.1150, 0.9140630
906.2390, 119.5273
907.3620, 116.8730
908.4850, 96.35938
909.6080, 106.0840
910.7310, 35.51367
911.8540, 37.07031
912.9770, 21.69141
914.0990, 313.6543
915.2210, 133.9863
916.3440, 118.3066
917.4660, 8.619141
918.5870, 84.08398
919.7090, 61.85352
920.8310, 38.33008
921.9520, 233.5020
923.0730, 155.6641
924.1940, 110.7910
925.3150, 113.9316
926.4360, 102.0234
927.5560, 117.8535
928.6770, 140.2969
929.7970, 150.4004
930.9170, 160.4941
932.0370, 125.5781
933.1570, 247.6523
934.2760, 237.7207
935.3960, 185.7793
936.5150, 102.8281
937.6340, 129.8691
938.7530, 217.9004
939.8720, 210.9258
940.9910, 158.9395
942.1090, 204.9473
943.2280, 193.9453
944.3460, 171.9395
945.4640, 127.9199
946.5820, 246.8984
947.6990, 264.8672
948.8170, 330.8281
949.9340, 297.7852
951.0520, 232.7344
952.1690, 290.6758
953.2860, 478.6113
954.4030, 479.5371
955.5190, 367.4590
956.6360, 311.3770
957.7520, 214.2852
958.8680, 292.1992
959.9840, 268.1406
961.1000, 378.0820
962.2160, 308.0293
963.3310, 199.9707
964.4470, 165.9141
965.5620, 323.8516
966.6770, 134.7910
967.7920, 505.7227
968.9060, 171.2070
970.0210, 428.1484
971.1360, 340.0820
972.2500, 171.0312
973.3640, 434.9746
974.4780, 677.9160
975.5920, 510.8516
976.7050, 577.7832
977.8190, 540.7031
978.9320, 546.6309
980.0450, 547.6250
981.1580, 489.4531
982.2710, 848.3730
983.3840, 795.2812
984.4970, 874.1953
985.6090, 910.7148
986.7210, 1261.502
987.8330, 1473.414
988.9450, 1602.328
990.0570, 2128.176
991.1690, 2219.084
992.2800, 2446.334
993.3920, 2366.211
994.5030, 2598.137
995.6140, 2568.014
996.7250, 2602.748
997.8350, 2489.684
998.9460, 2263.090
1000.056, 1992.031
1001.167, 1957.973
1002.277, 1675.859
1003.387, 1787.146
1004.496, 1677.133
1005.606, 1623.375
1006.715, 1452.188
1007.825, 1170.641
1008.934, 1013.100
1010.043, 884.5781
1011.152, 1067.287
1012.260, 761.2930
1013.369, 772.9961
1014.477, 884.7441
1015.586, 519.0391
1016.694, 510.7676
1017.802, 721.2715
1018.909, 622.7266
1020.017, 849.7109
1021.124, 786.9941
1022.232, 867.6367
1023.339, 966.7461
1024.446, 958.8652
1025.553, 1079.652
1026.659, 1093.184
1027.766, 1257.832
1028.872, 1173.879
1029.979, 1137.070
1031.085, 1223.570
1032.191, 1341.662
1033.296, 1255.484
1034.402, 1152.348
1035.507, 946.6211
1036.613, 1086.580
1037.718, 1117.875
1038.823, 1159.199
1039.928, 1185.564
1041.032, 956.5430
1042.137, 1174.895
1043.241, 1035.248
1044.346, 1065.562
1045.450, 1200.824
1046.554, 1305.100
1047.657, 1206.555
1048.761, 1427.035
1049.864, 1666.529
1050.968, 1381.682
1052.071, 1695.324
1053.174, 1622.414
1054.277, 1545.930
1055.379, 1466.484
1056.482, 1196.055
1057.584, 1001.637
1058.687, 958.2324
1059.789, 940.8438
1060.891, 747.8164
1061.992, 590.4707
1063.094, 538.1230
1064.196, 468.8398
1065.297, 526.5195
1066.398, 388.2832
1067.499, 272.9902
1068.600, 437.7129
1069.701, 367.4473
1070.801, 322.1992
1071.902, 310.9629
1073.002, 503.7422
1074.102, 217.5352
1075.202, 238.3438
1076.302, 369.1680
1077.402, 142.0078
1078.501, 385.8613
1079.600, 405.7285
1080.700, 339.6152
1081.799, 569.5137
1082.898, 527.4258
1083.996, 575.6074
1085.095, 562.3027
1086.193, 633.2656
1087.292, 614.2637
1088.390, 631.3164
1089.488, 625.2461
1090.586, 678.2715
1091.683, 751.2012
1092.781, 859.3691
1093.878, 936.9941
1094.975, 1122.082
1096.073, 1332.188
1097.169, 1613.307
1098.266, 1562.732
1099.363, 1420.596
1100.459, 1467.764
1101.556, 1293.957
1102.652, 1242.162
1103.748, 1273.387
1104.844, 1370.629
1105.940, 1470.754
1107.035, 1638.158
1108.131, 1799.449
1109.226, 2001.756
1110.321, 2184.078
1111.416, 2418.418
1112.511, 2801.801
1113.605, 3189.197
1114.700, 3795.611
1115.794, 4282.045
1116.889, 5057.492
1117.983, 6019.961
1119.077, 6957.457
1120.170, 7832.336
1121.264, 8623.926
1122.357, 9312.875
1123.451, 9364.111
1124.544, 9250.703
1125.637, 8805.336
1126.730, 8252.990
1127.823, 7504.664
1128.915, 6617.367
1130.008, 5974.090
1131.100, 5458.746
1132.192, 5247.510
1133.284, 5136.730
1134.376, 4932.529
1135.467, 5011.352
1136.559, 4873.275
1137.650, 5137.088
1138.742, 4713.996
1139.833, 4714.965
1140.924, 4526.973
1142.014, 3895.998
1143.105, 3386.043
1144.195, 2981.105
1145.286, 2618.766
1146.376, 2267.494
1147.466, 1966.213
1148.556, 1757.199
1149.646, 1483.463
1150.735, 1396.682
1151.825, 1285.916
1152.914, 1178.312
1154.003, 849.5996
1155.092, 918.9004
1156.181, 772.9375
1157.270, 593.3027
1158.358, 714.6836
1159.447, 558.1113
1160.535, 630.5527
1161.623, 463.4648
1162.711, 385.9609
1163.799, 304.4727
1164.886, 479.0039
1165.974, 401.8203
1167.061, 261.4316
1168.148, 454.0645
1169.235, 349.0781
1170.322, 429.7480
1171.409, 285.4277
1172.496, 212.1602
1173.582, 252.9375
1174.669, 227.9434
1175.755, 197.3574
1176.841, 222.5820
1177.927, 147.8398
1179.012, 106.9316
1180.098, 95.81250
1181.183, 70.70703
1182.269, 81.93750
1183.354, 132.1465
1184.439, 132.5449
1185.524, 219.5391
1186.608, 273.5469
1187.693, 209.5664
1188.777, 213.5957
1189.862, 73.63867
1190.946, 22.30273
1192.030, 0.2402340
1193.113, 15.83594
1194.197, 4.074219
1195.281, 39.00586
1196.364, 5.863281
1197.447, 103.2578
1198.530, 75.39453
1199.613, 106.5410
1200.696, 71.70117
1201.779, 83.87109
1202.861, 97.47461
1203.944, 132.2480
1205.026, 141.4512
1206.108, 143.6699
1207.190, 193.8984
1208.271, 191.1426
1209.353, 243.3984
1210.435, 130.6660
1211.516, 30.94336
1212.597, 263.2324
1213.678, 107.5332
1214.759, 124.8418
1215.840, 88.16602
1216.920, 44.49609
1218.001, 50.30273
1219.081, 153.1953
1220.161, 23.55859
1221.241, 153.9336
1222.321, 135.3184
1223.401, 66.28711
1224.480, 64.09375
1225.560, 42.48438
1226.639, 8.886719
1227.718, 145.2988
1228.797, 130.7188
1229.876, 75.14844
1230.955, 163.5898
1232.033, 126.7500
1233.112, 122.4961
1234.190, 186.9648
1235.268, 92.44141
1236.346, 220.9297
1237.424, 162.4219
1238.501, 12.92773
1239.579, 74.44141
1240.656, 54.96094
1241.733, 111.4922
1242.811, 7.029297
1243.888, 32.57617
1244.964, 35.13281
1246.041, 87.69531
1247.117, 30.26562
1248.194, 65.85547
1249.270, 30.54883
1250.346, 43.95898
1251.422, 30.37891
1252.498, 14.26172
1253.573, 145.2598
1254.649, 118.5430
1255.724, 52.12891
1256.800, 138.7227
1257.875, 53.32422
1258.950, 23.93359
1260.024, 15.45117
1261.099, 78.16016
1262.173, 145.2188
1263.248, 148.3301
1264.322, 46.88672
1265.396, 234.4512
1266.470, 185.0215
1267.544, 260.5977
1268.617, 198.1797
1269.691, 60.76562
1270.764, 61.35742
1271.837, 63.95312
1272.910, 19.75586
1273.983, 22.83398
1275.056, 41.76172
1276.129, 75.36523
1277.201, 149.9727
1278.273, 178.4141
1279.346, 84.10742
1280.418, 26.63281
1281.489, 10.16602
1282.561, 191.7129
1283.633, 72.26172
1284.704, 153.1855
1285.776, 41.28906
1286.847, 146.7656
1287.918, 41.83984
1288.989, 163.3242
1290.059, 112.1895
1291.130, 139.2363
1292.200, 204.6660
1293.271, 45.09766
1294.341, 24.46680
1295.411, 128.9492
1296.481, 110.3711
1297.551, 26.20703
1298.620, 113.1992
1299.690, 58.60352
1300.759, 76.01367
1301.828, 217.4258
1302.897, 151.1621
1303.966, 148.1641
1305.035, 263.4922
1306.103, 24.17773
1307.172, 37.86719
1308.240, 171.4160
1309.308, 260.6992
1310.376, 228.9863
1311.444, 145.2773
1312.512, 136.5723
1313.580, 110.8652
1314.647, 122.9180
1315.714, 226.4531
1316.781, 162.7480
1317.848, 222.0430
1318.915, 186.3418
1319.982, 295.2910
1321.049, 151.5684
1322.115, 236.8691
1323.181, 185.1172
1324.248, 80.41602
1325.314, 212.6445
1326.380, 300.9453
1327.445, 451.2461
1328.511, 343.5469
1329.576, 300.8496
1330.642, 296.1484
1331.707, 159.4512
1332.772, 73.75000
1333.837, 378.0508
1334.902, 164.3477
1335.966, 187.6055
1337.031, 303.9043
1338.095, 86.20117
1339.159, 386.4980
1340.223, 347.7930
1341.287, 188.0879
1342.351, 283.3828
1343.415, 201.6758
1344.478, 422.9688
1345.541, 252.2578
1346.605, 246.5449
1347.668, 207.8301
1348.731, 192.0293
1349.793, 236.3789
1350.856, 267.6348
1351.918, 262.3379
1352.981, 349.5938
1354.043, 205.8477
1355.105, 316.0977
1356.167, 214.3477
1357.229, 228.5938
1358.290, 229.8418
1359.352, 214.0859
1360.413, 115.3320
1361.475, 240.5938
1362.536, 207.8359
1363.597, 185.0742
1364.657, 417.2656
1365.718, 302.4551
1366.779, 186.6445
1367.839, 327.8320
1368.899, 183.0195
1369.959, 453.2051
1371.019, 170.3906
1372.079, 149.5742
1373.139, 362.7578
1374.198, 297.9395
1375.258, 188.3105
1376.317, 221.4941
1377.376, 182.3125
1378.435, 335.4316
1379.494, 21.20898
1380.553, 242.7188
1381.611, 34.10156
1382.670, 232.0625
1383.728, 319.3027
1384.786, 280.4668
1385.844, 360.6309
1386.902, 196.7949
1387.960, 213.0469
1389.017, 180.1992
1390.075, 146.9082
1391.132, 41.06250
1392.189, 186.2168
1393.246, 196.3691
1394.303, 415.5234
1395.360, 486.6797
1396.417, 199.8340
1397.473, 169.9922
1398.529, 111.1523
1399.585, 56.31445
1400.642, 147.4766
1401.697, 199.0684
1402.753, 190.2363
1403.809, 247.4082
1404.864, 121.5820
1405.920, 157.6895
1406.975, 49.87500
1408.030, 43.82617
1409.085, 199.9961
1410.140, 85.15820
1411.194, 197.3223
1412.249, 167.8047
1413.303, 69.97656
1414.358, 92.84375
1415.412, 173.3145
1416.466, 154.4766
1417.520, 24.19531
1418.573, 201.3750
1419.627, 51.56445
1420.680, 277.7617
1421.733, 134.7500
1422.787, 121.9688
1423.840, 128.1953
1424.892, 253.9648
1425.945, 96.10742
1426.998, 353.2559
1428.050, 271.4160
1429.103, 239.8008
1430.155, 86.75586
1431.207, 319.9336
1432.259, 80.11523
1433.310, 200.9121
1434.362, 544.9121
1435.414, 69.13672
1436.465, 294.4980
1437.516, 86.79102
1438.567, 383.3945
1439.618, 343.4492
1440.669, 112.6562
1441.720, 287.8613
1442.770, 244.0586
1443.820, 280.2559
1444.871, 231.4473
1445.921, 346.6348
1446.971, 212.8164
1448.021, 195.9922
1449.070, 14.16016
1450.120, 135.3262
1451.169, 487.4746
1452.219, 397.6172
1453.268, 55.75195
1454.317, 433.8789
1455.366, 281.0000
1456.414, 129.1113
1457.463, 262.2188
1458.511, 236.3145
1459.560, 421.4355
1460.608, 211.5449
1461.656, 15.34961
1462.704, 386.7480
1463.752, 215.8379
1464.799, 152.9199
1465.847, 318.9941
1466.894, 184.0625
1467.941, 145.1230
1468.988, 356.1797
1470.035, 99.22852
1471.082, 101.2441
1472.129, 109.2793
1473.175, 347.6699
1474.222, 6.613281
1475.268, 436.6016
1476.314, 159.5762
1477.360, 239.5625
1478.406, 413.6426
1479.452, 400.7168
1480.498, 223.7852
1481.543, 115.8438
1482.588, 200.8926
1483.633, 234.9512
1484.679, 48.01172
1485.723, 78.13672
1486.768, 15.32812
1487.813, 111.4824
1488.857, 125.6973
1489.902, 68.95508
1490.946, 67.07812
1491.990, 73.01367
1493.034, 131.5254
1494.078, 123.7773
1495.122, 249.0430
1496.165, 355.3281
1497.209, 248.6094
1498.252, 240.0469
1499.295, 122.5117
1500.338, 43.94922
1501.381, 90.59180
1502.424, 23.12305
1503.466, 199.6621
1504.509, 336.2109
1505.551, 275.7637
1506.593, 107.3242
1507.635, 61.88867
1508.677, 9.578125
1509.719, 99.04102
1510.761, 69.63477
1511.802, 39.24023
1512.844, 101.7852
1513.885, 303.1230
1514.926, 125.7148
1515.967, 250.3223
1517.008, 180.9453
1518.049, 206.5859
1519.089, 282.2539
1520.130, 170.9961
1521.170, 365.8496
1522.210, 315.7344
1523.250, 235.6484
1524.290, 282.5977
1525.330, 144.5840
1526.370, 248.5352
1527.409, 176.7422
1528.448, 203.1641
1529.488, 192.6387
1530.527, 62.17773
1531.566, 290.7793
1532.605, 18.13477
1533.643, 40.70508
1534.682, 164.7695
1535.720, 201.2930
1536.759, 65.52734
1537.797, 160.1504
1538.835, 123.8359
1539.873, 167.7051
1540.910, 184.6699
1541.948, 222.7324
1542.986, 201.8965
1544.023, 244.1660
1545.060, 166.5469
1546.097, 201.0488
1547.134, 334.6504
1548.171, 212.3438
1549.208, 167.4277
1550.244, 361.2949
1551.281, 144.1816
1552.317, 441.0312
1553.353, 29.78516
1554.389, 425.3613
1555.425, 401.6406
1556.461, 131.4336
1557.497, 212.3809
1558.532, 275.8809
1559.567, 180.4590
1560.603, 90.25195
1561.638, 145.2500
1562.673, 1.119141
1563.708, 0.0000000E+00
##END=



