##NAMES=Microcline
##RRUFFID=R040154
##IDEAL CHEMISTRY=KAlSi_3_O_8_
##LOCALITY=Mitchell County, North Carolina, USA
##OWNER=RRUFF
##SOURCE=University of Arizona Mineral Museum
##DESCRIPTION=White cleavage fragment with some perthitic character
##STATUS=The identification of this mineral has been confirmed by X-ray diffraction and chemical analysis
##URL=rruff.info/R040154
##MEASURED CHEMISTRY=(K_0.90_Na_0.09_Ba_0.01_)Al_1.00_(Si_2.99_Al_0.01_)_Î£=3_O_8_
##PIN_ID=L00521
##ORIENTATION=Laser parallel to -c* (0 0 -1). Fiducial mark perpendicular to laser is parallel to a [1 0 0]
94.768, 0.000
96.161, 270.515
97.554, 24.843
98.947, 106.012
100.340, 91.456
101.732, 297.729
103.124, 515.188
104.516, 742.592
105.908, 1119.948
107.300, 1145.763
108.691, 1304.059
110.082, 1064.312
111.473, 974.691
112.864, 961.085
114.254, 1316.756
115.644, 1674.673
117.034, 2314.049
118.424, 2782.282
119.813, 3819.909
121.203, 4695.559
122.592, 5669.939
123.981, 6436.883
125.369, 6751.197
126.758, 6826.488
128.146, 6552.896
129.534, 6342.236
130.922, 5471.195
132.309, 5192.152
133.696, 4876.002
135.083, 5597.752
136.470, 5937.405
137.857, 6860.979
139.243, 7290.480
140.630, 7529.926
142.016, 7258.318
143.401, 7237.674
144.787, 7304.000
146.172, 7642.305
147.557, 8148.602
148.942, 9276.890
150.327, 10789.232
151.711, 12412.245
153.096, 14499.294
154.480, 15764.297
155.863, 16655.256
157.247, 16991.840
158.630, 16489.088
160.013, 15075.205
161.396, 13234.949
162.779, 10976.763
164.161, 8961.002
165.544, 7335.979
166.926, 6228.924
168.308, 5466.814
169.689, 4902.711
171.070, 5050.000
172.452, 5252.209
173.833, 5480.336
175.213, 5852.387
176.594, 5791.363
177.974, 6035.394
179.354, 5612.484
180.734, 5300.574
182.114, 4625.738
183.493, 4309.953
184.872, 3686.897
186.251, 3333.417
187.630, 2735.688
189.008, 2726.996
190.387, 2854.347
191.765, 3052.746
193.143, 3449.193
194.520, 4116.692
195.898, 4574.238
197.275, 4865.834
198.652, 4957.473
200.029, 5270.149
201.405, 3831.864
202.782, 3011.615
204.158, 2669.208
205.534, 2459.664
206.909, 1827.079
208.285, 1629.584
209.660, 1181.131
211.035, 791.693
212.410, 654.262
213.784, 344.691
215.159, 129.372
216.533, 76.912
217.907, 158.162
219.281, 57.229
220.654, 233.336
222.027, 141.305
223.400, 96.588
224.773, 9.606
226.146, 176.885
227.518, 205.169
228.891, 289.719
230.263, 225.952
231.634, 216.271
233.006, 285.600
234.377, 171.941
235.748, 158.298
237.119, 113.668
238.490, 28.522
239.860, 119.260
241.231, 217.392
242.601, 446.431
243.970, 551.231
245.340, 809.306
246.709, 1175.378
248.079, 1969.955
249.448, 2524.463
250.816, 3497.973
252.185, 4454.484
253.553, 5516.988
254.921, 6677.488
256.289, 7373.979
257.657, 7885.467
259.024, 8270.471
260.391, 8817.929
261.758, 9184.395
263.125, 9615.375
264.492, 9594.864
265.858, 9342.583
267.224, 8756.725
268.590, 7615.199
269.956, 6922.887
271.321, 6180.426
272.687, 5830.840
274.052, 5862.942
275.416, 6842.274
276.781, 8051.805
278.146, 9800.504
279.510, 13283.344
280.874, 14950.306
282.237, 17537.375
283.601, 18067.537
284.964, 16599.779
286.327, 15657.093
287.690, 13492.461
289.053, 11310.907
290.416, 9215.396
291.778, 7022.936
293.140, 6008.488
294.502, 4220.029
295.863, 3180.549
297.225, 2488.047
298.586, 2036.520
299.947, 1656.969
301.308, 1193.393
302.668, 923.793
304.029, 787.168
305.389, 731.517
306.749, 492.841
308.108, 482.140
309.468, 154.412
310.827, 264.659
312.186, 52.879
313.545, 72.068
314.903, 70.229
316.262, 101.644
317.620, 16.593
318.978, 36.403
320.336, 42.359
321.693, 270.186
323.051, 399.805
324.408, 619.341
325.765, 994.667
327.121, 1216.707
328.478, 1426.480
329.834, 1674.088
331.190, 1661.633
332.546, 1418.158
333.902, 1157.658
335.257, 685.133
336.612, 612.583
337.967, 385.006
339.322, 135.404
340.677, 145.774
342.031, 74.882
343.385, 48.393
344.739, 99.374
346.093, 143.219
347.446, 65.154
348.799, 28.844
350.153, 116.794
351.505, 214.715
352.858, 224.606
354.210, 333.470
355.563, 387.305
356.915, 279.109
358.267, 296.891
359.618, 213.645
360.969, 172.367
362.321, 359.058
363.672, 259.719
365.022, 452.351
366.373, 609.954
367.723, 704.523
369.073, 799.942
370.423, 1009.502
371.773, 884.909
373.122, 849.286
374.471, 841.646
375.821, 410.973
377.169, 478.289
378.518, 117.575
379.866, 99.880
381.215, 50.893
382.563, 5.308
383.910, 92.666
385.258, 149.014
386.605, 17.484
387.952, 123.023
389.299, 5.555
390.646, 191.476
391.992, 38.595
393.339, 75.061
394.685, 202.170
396.031, 690.045
397.376, 647.432
398.722, 1122.466
400.067, 1346.645
401.412, 1485.045
402.757, 1789.284
404.101, 1679.440
405.446, 1428.495
406.790, 1488.308
408.134, 1387.055
409.478, 1307.787
410.821, 1199.498
412.165, 1148.191
413.508, 1144.863
414.851, 852.516
416.193, 759.885
417.536, 334.754
418.878, 307.340
420.220, 161.906
421.562, 194.557
422.904, 28.168
424.245, 63.164
425.586, 26.529
426.927, 106.711
428.268, 0.920
429.609, 27.934
430.949, 80.133
432.289, 306.156
433.629, 170.148
434.969, 514.102
436.309, 404.375
437.648, 686.539
438.987, 747.986
440.326, 864.443
441.665, 1331.840
443.003, 1858.111
444.342, 2446.502
445.680, 3276.471
447.018, 4560.393
448.355, 6057.289
449.693, 7610.660
451.030, 9054.227
452.367, 10046.801
453.704, 9721.523
455.041, 9422.674
456.377, 7861.361
457.713, 6688.402
459.049, 5435.816
460.385, 4733.090
461.721, 4525.398
463.056, 4110.650
464.391, 4538.682
465.726, 5145.668
467.061, 6278.611
468.395, 7605.506
469.730, 9924.355
471.064, 11613.164
472.398, 14237.926
473.731, 15114.102
475.065, 15797.590
476.398, 14924.959
477.731, 13763.566
479.064, 12231.348
480.397, 10822.059
481.729, 9550.887
483.062, 8327.291
484.394, 7357.652
485.725, 6224.973
487.057, 5168.248
488.389, 4370.486
489.720, 3781.682
491.051, 3356.840
492.382, 3187.959
493.712, 3295.039
495.043, 3235.078
496.373, 3633.082
497.703, 4405.047
499.032, 5237.971
500.362, 6611.559
501.691, 8670.133
503.020, 11080.051
504.349, 14739.184
505.678, 19206.359
507.007, 24599.674
508.335, 29927.520
509.663, 35457.320
510.991, 39503.684
512.319, 40096.121
513.646, 38234.656
514.973, 32680.605
516.300, 26854.039
517.627, 20838.803
518.954, 15522.707
520.280, 12376.145
521.607, 9404.410
522.933, 7376.357
524.259, 5657.262
525.584, 4946.137
526.910, 4215.744
528.235, 3405.400
529.560, 2971.004
530.885, 2555.592
532.209, 2025.398
533.534, 2145.410
534.858, 1918.727
536.182, 1594.484
537.506, 1491.926
538.829, 1408.027
540.152, 1218.143
541.476, 1126.322
542.799, 930.619
544.121, 953.051
545.444, 794.072
546.766, 675.109
548.088, 715.781
549.410, 629.371
550.732, 555.186
552.053, 637.271
553.375, 477.580
554.696, 510.342
556.017, 561.213
557.337, 491.877
558.658, 455.338
559.978, 299.420
561.298, 485.361
562.618, 299.137
563.938, 293.516
565.257, 530.814
566.576, 353.252
567.895, 523.219
569.214, 480.762
570.533, 529.352
571.851, 490.301
573.170, 676.824
574.488, 739.316
575.805, 821.773
577.123, 850.199
578.440, 1052.590
579.758, 1356.418
581.075, 1258.715
582.391, 1403.402
583.708, 1321.934
585.024, 1217.602
586.341, 893.781
587.657, 929.104
588.972, 627.568
590.288, 455.207
591.603, 301.322
592.918, 306.830
594.233, 206.883
595.548, 223.898
596.863, 147.896
598.177, 136.859
599.491, 141.779
600.805, 161.666
602.119, 18.520
603.432, 39.322
604.746, 216.082
606.059, 211.809
607.372, 74.498
608.685, 270.104
609.997, 47.301
611.309, 212.217
612.621, 98.699
613.933, 198.145
615.245, 102.561
616.557, 241.936
617.868, 264.277
619.179, 244.588
620.490, 247.867
621.801, 526.113
623.111, 408.336
624.421, 672.527
625.731, 362.697
627.041, 983.840
628.351, 641.951
629.660, 758.035
630.970, 1035.088
632.279, 887.117
633.588, 869.117
634.896, 748.090
636.205, 812.590
637.513, 832.068
638.821, 994.033
640.129, 1203.980
641.437, 1350.902
642.744, 1524.172
644.051, 1706.652
645.358, 1805.486
646.665, 2055.293
647.972, 2115.070
649.278, 1993.822
650.584, 2266.543
651.890, 2476.238
653.196, 2261.904
654.502, 2245.543
655.807, 2040.154
657.113, 1534.738
658.418, 1481.297
659.722, 1164.830
661.027, 851.379
662.331, 678.912
663.636, 800.473
664.940, 107.066
666.244, 517.674
667.547, 136.271
668.851, 497.842
670.154, 251.385
671.457, 164.900
672.760, 308.387
674.062, 20.848
675.365, 147.270
676.667, 199.660
677.969, 188.023
679.271, 110.357
680.572, 97.840
681.874, 108.932
683.175, 15.170
684.476, 38.629
685.777, 6.496
687.077, 102.414
688.378, 80.568
689.678, 14.766
690.978, 180.129
692.278, 43.816
693.577, 131.146
694.877, 189.793
696.176, 128.209
697.475, 226.180
698.774, 179.057
700.072, 32.541
701.371, 48.068
702.669, 170.627
703.967, 125.256
705.265, 217.795
706.562, 160.131
707.860, 194.465
709.157, 237.311
710.454, 35.814
711.751, 306.117
713.047, 97.318
714.344, 143.482
715.640, 36.945
716.936, 253.988
718.232, 313.213
719.527, 131.357
720.823, 141.639
722.118, 100.141
723.413, 32.018
724.708, 61.703
726.002, 488.939
727.297, 186.043
728.591, 447.234
729.885, 656.514
731.179, 583.275
732.472, 521.250
733.766, 680.961
735.059, 765.648
736.352, 980.463
737.645, 1188.246
738.937, 1570.957
740.230, 1808.453
741.522, 2233.428
742.814, 2968.877
744.106, 3844.244
745.397, 4507.908
746.689, 5145.812
747.980, 5840.795
749.271, 5726.760
750.562, 5524.979
751.853, 4677.660
753.143, 4049.582
754.433, 3264.438
755.723, 2685.287
757.013, 2683.496
758.303, 2183.398
759.592, 2252.484
760.881, 2006.551
762.170, 2102.576
763.459, 1984.514
764.748, 1701.602
766.036, 1943.748
767.325, 1482.715
768.613, 1437.156
769.901, 1276.994
771.188, 925.449
772.476, 1030.426
773.763, 689.477
775.050, 821.424
776.337, 672.402
777.624, 706.420
778.910, 572.492
780.196, 771.611
781.482, 303.707
782.768, 575.719
784.054, 430.854
785.339, 613.824
786.625, 480.773
787.910, 559.402
789.195, 541.682
790.479, 680.570
791.764, 560.893
793.048, 618.742
794.332, 741.570
795.616, 751.379
796.900, 782.168
798.183, 706.934
799.467, 869.684
800.750, 995.412
802.033, 1137.303
803.316, 1424.992
804.598, 1552.664
805.880, 2397.314
807.163, 3051.947
808.445, 3587.562
809.726, 4603.158
811.008, 5584.779
812.289, 6203.334
813.570, 6145.873
814.851, 5889.396
816.132, 4693.900
817.413, 3608.383
818.693, 2998.850
819.973, 2071.576
821.253, 1554.008
822.533, 1384.820
823.813, 1110.213
825.092, 812.475
826.371, 774.357
827.650, 658.695
828.929, 675.652
830.208, 631.412
831.486, 319.371
832.764, 378.266
834.042, 262.820
835.320, 262.305
836.598, 435.822
837.875, 363.555
839.152, 268.186
840.429, 420.816
841.706, 205.410
842.983, 32.732
844.259, 461.795
845.536, 155.504
846.812, 156.715
848.088, 125.189
849.363, 93.215
850.639, 256.650
851.914, 212.629
853.189, 88.168
854.464, 155.961
855.739, 425.111
857.013, 12.568
858.288, 100.689
859.562, 4.811
860.836, 198.424
862.110, 81.652
863.383, 68.838
864.656, 74.717
865.930, 137.914
867.203, 129.744
868.475, 43.760
869.748, 114.842
871.020, 81.596
872.292, 74.180
873.564, 27.121
874.836, 2.107
876.108, 35.088
877.379, 7.020
878.650, 26.748
879.922, 50.307
881.192, 21.461
882.463, 2.244
883.733, 540.541
885.004, 52.072
886.274, 157.598
887.544, 264.123
888.813, 65.359
890.083, 178.123
891.352, 133.607
892.621, 57.914
893.890, 34.535
895.159, 78.023
896.427, 34.619
897.695, 177.768
898.964, 38.152
900.232, 11.529
901.499, 10.900
902.767, 262.262
904.034, 73.375
905.301, 222.953
906.568, 198.305
907.835, 198.654
909.102, 21.004
910.368, 49.346
911.634, 218.729
912.900, 134.117
914.166, 424.504
915.432, 2.113
916.697, 123.707
917.962, 320.652
919.227, 80.289
920.492, 404.668
921.757, 194.047
923.021, 75.432
924.285, 289.816
925.550, 209.201
926.813, 102.592
928.077, 73.070
929.341, 21.336
930.604, 315.828
931.867, 51.779
933.130, 64.588
934.393, 312.955
935.655, 43.320
936.918, 323.688
938.180, 169.055
939.442, 60.420
940.703, 327.783
941.965, 255.141
943.226, 6.500
944.488, 261.850
945.749, 464.199
947.009, 241.541
948.270, 119.885
949.530, 199.232
950.791, 266.572
952.051, 317.908
953.311, 28.256
954.570, 323.598
955.830, 328.938
957.089, 148.279
958.348, 297.621
959.607, 363.963
960.866, 267.307
962.124, 58.652
963.383, 305.996
964.641, 329.334
965.899, 477.672
967.156, 325.010
968.414, 283.346
969.671, 566.680
970.928, 448.020
972.185, 614.361
973.442, 641.703
974.699, 694.117
975.955, 848.395
977.211, 773.744
978.468, 1096.102
979.723, 977.461
980.979, 838.828
982.234, 1254.195
983.490, 810.568
984.745, 1210.939
986.000, 1280.322
987.254, 1446.707
988.509, 1909.092
989.763, 2114.490
991.017, 2594.906
992.271, 2972.338
993.525, 3315.826
994.779, 3486.602
996.032, 3225.117
997.285, 3090.451
998.538, 2382.830
999.791, 2698.086
1001.044, 2099.320
1002.296, 2166.928
1003.548, 1898.832
1004.800, 1775.576
1006.052, 1856.254
1007.304, 1525.984
1008.555, 1396.324
1009.807, 1276.941
1011.058, 1215.756
1012.309, 1138.588
1013.559, 873.990
1014.810, 723.646
1016.060, 904.508
1017.310, 807.439
1018.560, 536.373
1019.810, 768.984
1021.060, 840.344
1022.309, 515.439
1023.558, 982.934
1024.807, 609.758
1026.056, 884.045
1027.305, 793.186
1028.553, 956.314
1029.801, 1019.725
1031.049, 863.096
1032.297, 896.961
1033.545, 971.652
1034.793, 1057.285
1036.040, 1150.461
1037.287, 1244.537
1038.534, 1271.838
1039.781, 1665.914
1041.027, 1036.705
1042.274, 1144.191
1043.520, 1311.484
1044.766, 747.410
1046.012, 794.551
1047.257, 695.168
1048.503, 974.355
1049.748, 612.400
1050.993, 976.115
1052.238, 877.346
1053.483, 581.625
1054.727, 636.398
1055.971, 932.727
1057.216, 389.896
1058.459, 553.732
1059.703, 656.588
1060.947, 502.449
1062.190, 485.863
1063.433, 550.412
1064.676, 394.521
1065.919, 143.102
1067.162, 646.154
1068.404, 34.236
1069.646, 200.697
1070.888, 466.471
1072.130, 409.926
1073.372, 394.807
1074.613, 545.660
1075.855, 247.938
1077.096, 86.625
1078.337, 726.529
1079.578, 351.600
1080.818, 573.033
1082.059, 484.197
1083.299, 708.020
1084.539, 439.766
1085.779, 565.033
1087.018, 656.684
1088.258, 895.635
1089.497, 631.951
1090.736, 878.721
1091.975, 1093.373
1093.213, 1094.205
1094.452, 1450.332
1095.690, 1386.447
1096.928, 1778.785
1098.166, 1882.082
1099.404, 2038.809
1100.642, 1846.414
1101.879, 1929.266
1103.116, 1409.645
1104.353, 1444.359
1105.590, 1057.039
1106.827, 1333.352
1108.063, 957.359
1109.299, 1044.996
1110.536, 1059.109
1111.771, 1177.910
1113.007, 1269.738
1114.243, 1226.625
1115.478, 1407.023
1116.713, 1480.219
1117.948, 2051.762
1119.183, 1895.723
1120.418, 2794.227
1121.652, 3226.633
1122.886, 3613.230
1124.120, 3930.359
1125.354, 3288.219
1126.588, 3213.926
1127.821, 2813.980
1129.055, 2881.305
1130.288, 2640.121
1131.521, 2440.676
1132.753, 2533.121
1133.986, 2541.402
1135.218, 3322.328
1136.450, 2914.988
1137.682, 3756.820
1138.914, 3446.043
1140.146, 3378.207
1141.377, 3037.422
1142.609, 2493.562
1143.840, 2399.254
1145.071, 2059.066
1146.301, 1596.527
1147.532, 1434.023
1148.762, 1099.594
1149.992, 999.465
1151.222, 942.895
1152.452, 686.816
1153.682, 468.250
1154.911, 657.570
1156.140, 220.543
1157.369, 299.707
1158.598, 313.914
1159.827, 325.449
1161.055, 338.215
1162.284, 279.941
1163.512, 309.984
1164.740, 424.863
1165.967, 394.207
1167.195, 342.230
1168.422, 189.695
1169.650, 220.688
1170.877, 120.672
1172.103, 38.410
1173.330, 117.781
1174.557, 57.062
1175.783, 99.684
1177.009, 131.004
1178.235, 210.477
1179.461, 74.359
1180.686, 60.102
1181.912, 250.500
1183.137, 48.738
1184.362, 150.023
1185.587, 355.164
1186.811, 354.527
1188.036, 29.184
1189.260, 320.230
1190.484, 174.195
1191.708, 403.309
1192.932, 219.613
1194.155, 134.426
1195.378, 167.570
1196.602, 378.574
1197.825, 197.043
1199.047, 314.879
1200.270, 152.090
1201.492, 448.734
1202.715, 62.773
1203.937, 470.328
1205.159, 257.977
1206.380, 492.891
1207.602, 103.598
1208.823, 117.508
1210.044, 322.230
1211.265, 502.664
1212.486, 205.285
1213.707, 45.855
1214.927, 429.785
1216.147, 97.008
1217.367, 260.773
1218.587, 101.480
1219.807, 222.773
1221.027, 236.961
1222.246, 18.137
1223.465, 273.316
1224.684, 496.262
1225.903, 196.074
1227.121, 22.016
1228.340, 373.652
1229.558, 215.672
1230.776, 246.359
1231.994, 105.523
1233.212, 264.355
1234.429, 190.508
1235.646, 323.320
1236.864, 529.582
1238.081, 253.441
1239.297, 337.539
1240.514, 372.566
1241.730, 371.516
1242.947, 317.023
1244.163, 113.742
1245.378, 453.633
1246.594, 480.133
1247.810, 12.188
1249.025, 515.488
1250.240, 201.684
1251.455, 207.359
1252.670, 289.109
1253.885, 137.945
1255.099, 200.473
1256.313, 121.824
1257.527, 378.914
1258.741, 376.871
1259.955, 355.887
1261.168, 228.441
1262.382, 270.039
1263.595, 180.863
1264.808, 121.211
1266.021, 175.457
1267.233, 193.098
1268.446, 377.145
1269.658, 33.062
1270.870, 302.977
1272.082, 49.691
1273.294, 92.289
1274.505, 174.371
1275.716, 282.750
1276.928, 140.145
1278.139, 355.285
1279.349, 24.465
1280.560, 223.363
1281.770, 276.129
1282.981, 92.770
1284.191, 154.289
1285.401, 157.676
1286.610, 29.293
1287.820, 355.129
1289.029, 11.113
1290.239, 180.953
1291.448, 42.941
1292.656, 229.535
1293.865, 200.020
1295.073, 154.438
1296.282, 211.219
1297.490, 144.805
1298.698, 207.762
1299.906, 97.609
1301.113, 124.297
1302.320, 102.762
1303.528, 213.203
1304.735, 88.477
1305.942, 203.691
1307.148, 171.750
1308.355, 82.355
1309.561, 475.383
1310.767, 115.004
1311.973, 112.504
1313.179, 44.039
1314.384, 392.785
1315.590, 170.625
1316.795, 169.930
1318.000, 139.391
1319.205, 256.582
1320.410, 115.191
1321.614, 278.121
1322.819, 168.512
1324.023, 15.668
1325.227, 284.508
1326.431, 152.656
1327.634, 55.016
1328.838, 103.270
1330.041, 100.895
1331.244, 144.863
1332.447, 54.453
1333.650, 39.453
1334.852, 184.488
1336.055, 78.848
1337.257, 295.016
1338.459, 17.062
1339.661, 134.695
1340.862, 327.156
1342.064, 48.355
1343.265, 76.410
1344.466, 246.969
1345.667, 173.188
1346.868, 399.301
1348.068, 478.125
1349.269, 75.051
1350.469, 494.844
1351.669, 338.156
1352.869, 415.902
1354.069, 557.207
1355.268, 149.312
1356.468, 533.066
1357.667, 626.812
1358.866, 405.262
1360.065, 526.480
1361.263, 415.723
1362.462, 415.766
1363.660, 636.938
1364.858, 272.621
1366.056, 522.188
1367.254, 484.828
1368.451, 672.109
1369.649, 305.125
1370.846, 533.941
1372.043, 298.219
1373.240, 438.938
1374.436, 567.508
1375.633, 368.336
1376.829, 428.320
1378.025, 334.051
1379.221, 385.055
1380.417, 526.398
1381.613, 326.699
1382.808, 708.969
1384.003, 725.000
1385.199, 502.043
1386.393, 336.891
1387.588, 593.902
1388.783, 415.320
1389.977, 632.914
1391.171, 308.516
1392.365, 443.867
1393.559, 790.734
1394.753, 269.793
1395.946, 608.090
1397.140, 328.879
1398.333, 648.109
1399.526, 332.094
1400.719, 473.652
1401.911, 344.059
1403.104, 247.957
1404.296, 124.258
1405.488, 476.375
1406.680, 202.355
1407.872, 333.008
1409.063, 643.973
1410.255, 155.199
1411.446, 269.980
1412.637, 3.750
1413.828, 240.398
1415.018, 328.039
1416.209, 360.387
1417.399, 1.477
1418.589, 363.402
1419.779, 207.648
1420.969, 430.281
1422.159, 192.055
1423.348, 325.492
1424.537, 333.391
1425.726, 335.328
1426.915, 254.879
1428.104, 293.660
1429.293, 25.547
1430.481, 104.770
1431.669, 464.887
1432.857, 535.316
1434.045, 94.848
1435.233, 460.113
1436.420, 660.898
1437.608, 129.730
1438.795, 264.238
1439.982, 597.699
1441.169, 246.191
1442.355, 305.625
1443.542, 463.445
1444.728, 158.691
1445.914, 506.637
1447.100, 505.477
1448.286, 381.379
1449.472, 81.797
1450.657, 705.246
1451.842, 208.902
1453.027, 244.438
1454.212, 774.301
1455.397, 52.953
1456.581, 311.258
1457.766, 499.109
1458.950, 246.145
1460.134, 485.777
1461.318, 286.855
1462.501, 85.438
1463.685, 514.695
1464.868, 5.289
1466.051, 616.215
1467.234, 3.906
1468.417, 0.000
##END=



