##NAMES=Microcline
##RRUFFID=R050150
##IDEAL CHEMISTRY=KAlSi_3_O_8_
##LOCALITY=Crystal Peak area, Park/Teller Counties, Colorado, USA
##OWNER=RRUFF
##SOURCE=Dave Bunk Minerals
##DESCRIPTION=Pale blue prismatic crystals
##STATUS=The identification of this mineral has been confirmed by X-ray diffraction and chemical analysis
##URL=rruff.info/R050150
##MEASURED CHEMISTRY=(K_0.95_Na_0.05_)_Î£=1_Al_1.00_Si_3.00_O_8_
##PIN_ID=L00961
##ORIENTATION=Laser parallel to b* (0 1 0). Fiducial mark perpendicular to laser is parallel to c [0 0 1]
131.4920, 0.0000000E+00
132.7300, 34.04688
133.9690, 17.97656
135.2070, 557.8066
136.4450, 2058.492
137.6830, 3999.652
138.9210, 6163.340
140.1580, 7671.594
141.3950, 8169.410
142.6330, 8041.188
143.8690, 8379.793
145.1060, 9419.887
146.3430, 11196.19
147.5790, 12968.38
148.8150, 15178.20
150.0510, 16876.86
151.2870, 19366.44
152.5220, 21536.62
153.7580, 24092.19
154.9930, 27017.57
156.2280, 28800.85
157.4620, 28785.19
158.6970, 27280.70
159.9310, 23639.10
161.1660, 19567.76
162.4000, 15522.96
163.6330, 11696.83
164.8670, 8776.301
166.1000, 6411.172
167.3340, 4706.125
168.5670, 3496.025
169.8000, 2834.193
171.0320, 2440.096
172.2650, 2184.980
173.4970, 2348.779
174.7290, 2338.609
175.9610, 2567.535
177.1930, 2645.505
178.4240, 3044.590
179.6550, 3073.938
180.8870, 2922.289
182.1170, 2488.289
183.3480, 2462.286
184.5790, 1915.832
185.8090, 1764.336
187.0390, 1700.878
188.2690, 1656.906
189.4990, 1770.771
190.7290, 1670.879
191.9580, 1895.155
193.1870, 2088.535
194.4160, 2588.977
195.6450, 2873.619
196.8740, 3406.534
198.1020, 3935.573
199.3310, 3866.664
200.5590, 3530.750
201.7870, 3130.834
203.0140, 2172.926
204.2420, 1572.122
205.4690, 1104.954
206.6960, 435.7207
207.9230, 108.3301
209.1500, 28.25000
210.3760, 11.03320
211.6030, 227.0791
212.8290, 91.54785
214.0550, 213.4922
215.2810, 286.9658
216.5060, 337.0137
217.7320, 339.6846
218.9570, 309.0312
220.1820, 415.0986
221.4070, 306.5830
222.6320, 160.6064
223.8560, 291.2266
225.0800, 168.4131
226.3040, 238.1543
227.5280, 193.5205
228.7520, 223.9170
229.9760, 145.3887
231.1990, 181.9688
232.4220, 125.6719
233.6450, 78.50488
234.8680, 48.46094
236.0910, 110.5332
237.3130, 184.2793
238.5350, 84.38477
239.7570, 308.7656
240.9790, 444.0342
242.2010, 643.3545
243.4220, 996.4395
244.6430, 1209.061
245.8640, 1772.044
247.0850, 2247.331
248.3060, 2994.787
249.5270, 3759.418
250.7470, 4614.311
251.9670, 5908.576
253.1870, 7358.261
254.4070, 8742.396
255.6260, 10491.05
256.8460, 11489.62
258.0650, 12159.03
259.2840, 12631.37
260.5030, 11867.65
261.7220, 10757.81
262.9400, 10206.86
264.1580, 10180.68
265.3760, 10112.70
266.5940, 9974.656
267.8120, 9363.387
269.0290, 8686.158
270.2470, 8127.965
271.4640, 7754.807
272.6810, 7757.686
273.8980, 8521.969
275.1140, 9428.477
276.3310, 10993.09
277.5470, 12887.07
278.7630, 15088.18
279.9790, 17999.70
281.1940, 20860.55
282.4100, 23950.49
283.6250, 26163.68
284.8400, 27452.46
286.0550, 27007.74
287.2700, 24056.48
288.4850, 20899.39
289.6990, 16796.96
290.9130, 13405.84
292.1270, 10316.20
293.3410, 8002.480
294.5540, 6437.820
295.7680, 5346.133
296.9810, 4487.096
298.1940, 4071.680
299.4070, 3381.803
300.6200, 2966.377
301.8320, 2786.354
303.0450, 2267.707
304.2570, 2034.436
305.4690, 1753.562
306.6800, 1497.127
307.8920, 1304.178
309.1030, 1338.758
310.3150, 1074.902
311.5260, 1130.926
312.7360, 1029.996
313.9470, 1052.000
315.1580, 1070.645
316.3680, 757.6934
317.5780, 1006.867
318.7880, 1035.977
319.9980, 1271.918
321.2070, 1557.613
322.4170, 1701.094
323.6260, 1964.650
324.8350, 2287.330
326.0430, 2813.201
327.2520, 3223.355
328.4610, 3965.875
329.6690, 4357.924
330.8770, 4682.621
332.0850, 4844.137
333.2920, 4444.574
334.5000, 3843.973
335.7070, 3355.396
336.9140, 2549.824
338.1210, 1987.252
339.3280, 1739.680
340.5350, 1512.107
341.7410, 1261.531
342.9470, 1120.957
344.1540, 983.3730
345.3590, 918.0234
346.5650, 912.8750
347.7710, 963.5781
348.9760, 1013.965
350.1810, 1217.344
351.3860, 1328.113
352.5910, 1336.738
353.7950, 1265.828
355.0000, 1434.205
356.2040, 1637.824
357.4080, 1672.025
358.6120, 1514.859
359.8150, 1336.152
361.0190, 1332.941
362.2220, 1217.680
363.4250, 1261.334
364.6280, 1411.984
365.8310, 1455.045
367.0340, 1413.969
368.2360, 1822.098
369.4380, 1976.064
370.6400, 2289.764
371.8420, 2245.496
373.0440, 2265.307
374.2450, 2033.623
375.4470, 1657.908
376.6480, 1476.936
377.8490, 727.5352
379.0490, 736.1348
380.2500, 483.6621
381.4500, 137.3359
382.6510, 186.3301
383.8510, 132.1113
385.0500, 98.14844
386.2500, 18.15234
387.4500, 9.380859
388.6490, 90.37500
389.8480, 116.2500
391.0470, 21.50000
392.2460, 184.7266
393.4440, 60.94336
394.6430, 167.1484
395.8410, 188.3848
397.0390, 411.6094
398.2370, 382.8359
399.4340, 733.0625
400.6320, 908.2930
401.8290, 925.5293
403.0260, 1003.756
404.2230, 969.9492
405.4200, 863.1406
406.6170, 573.3242
407.8130, 698.5059
409.0090, 440.6816
410.2050, 542.8730
411.4010, 633.0820
412.5970, 476.2988
413.7920, 291.5586
414.9880, 265.8262
416.1830, 107.0957
417.3780, 47.38281
418.5730, 111.2734
419.7670, 114.9180
420.9620, 219.6230
422.1560, 138.4160
423.3500, 317.3438
424.5440, 133.4707
425.7380, 148.7402
426.9310, 29.16406
428.1240, 121.6953
429.3180, 61.37695
430.5110, 113.1836
431.7030, 73.12500
432.8960, 111.1992
434.0890, 212.5820
435.2810, 38.26953
436.4730, 215.8594
437.6650, 118.3613
438.8570, 359.7676
440.0480, 426.1016
441.2390, 769.3711
442.4310, 1135.557
443.6220, 1396.664
444.8120, 1688.695
446.0030, 2312.650
447.1940, 2976.533
448.3840, 3745.346
449.5740, 4529.092
450.7640, 5503.775
451.9540, 6340.398
453.1430, 7091.959
454.3330, 6978.637
455.5220, 6842.484
456.7110, 6237.586
457.9000, 5743.982
459.0890, 4773.404
460.2770, 4222.461
461.4650, 3960.514
462.6540, 3918.654
463.8420, 4277.750
465.0290, 4865.852
466.2170, 5864.043
467.4050, 6860.104
468.5920, 8138.146
469.7790, 9692.176
470.9660, 11490.17
472.1530, 13538.19
473.3390, 15711.21
474.5250, 16921.22
475.7120, 17848.23
476.8980, 17449.25
478.0840, 15972.26
479.2690, 13993.28
480.4550, 12277.29
481.6400, 11133.31
482.8250, 10234.33
484.0100, 9564.348
485.1950, 8633.363
486.3800, 7484.146
487.5640, 6218.379
488.7480, 5337.363
489.9320, 4449.350
491.1160, 3572.576
492.3000, 3499.037
493.4840, 3149.064
494.6670, 3427.102
495.8500, 3325.166
497.0330, 3903.283
498.2160, 4359.482
499.3990, 5081.762
500.5810, 6371.176
501.7630, 7904.689
502.9460, 10011.33
504.1280, 12805.13
505.3090, 15859.08
506.4910, 19743.20
507.6720, 24413.47
508.8540, 29264.93
510.0350, 34671.53
511.2160, 39887.25
512.3960, 43975.14
513.5770, 44228.12
514.7570, 41894.26
515.9380, 36828.51
517.1180, 30612.90
518.2970, 24541.39
519.4770, 18973.00
520.6570, 14566.72
521.8360, 11342.53
523.0150, 9024.184
524.1940, 7369.566
525.3730, 5996.230
526.5510, 5097.758
527.7300, 4179.098
528.9080, 3465.357
530.0860, 3007.469
531.2640, 2734.012
532.4420, 2271.695
533.6200, 2110.012
534.7970, 1886.266
535.9740, 1482.125
537.1510, 1351.801
538.3280, 1209.936
539.5050, 1130.035
540.6810, 1072.070
541.8580, 932.2988
543.0340, 933.5625
544.2100, 924.8340
545.3860, 670.4316
546.5610, 738.0059
547.7370, 699.3008
548.9120, 754.0898
550.0870, 600.4023
551.2620, 453.4141
552.4370, 471.9824
553.6120, 579.3184
554.7860, 438.9551
555.9600, 441.4062
557.1340, 522.8594
558.3080, 286.9160
559.4820, 424.9004
560.6560, 352.0996
561.8290, 392.0840
563.0020, 279.2402
564.1750, 318.0293
565.3480, 318.0977
566.5210, 130.2480
567.6930, 315.6230
568.8660, 224.5996
570.0380, 174.5488
571.2100, 217.3203
572.3820, 232.8125
573.5530, 375.1758
574.7250, 473.8555
575.8960, 552.1504
577.0670, 618.5488
578.2380, 700.8320
579.4090, 680.7441
580.5800, 654.6543
581.7500, 730.3555
582.9210, 700.0156
584.0910, 765.6973
585.2610, 777.3965
586.4300, 520.1113
587.6000, 478.8457
588.7690, 349.6113
589.9390, 476.4160
591.1080, 164.2578
592.2770, 93.12109
593.4450, 175.0039
594.6140, 56.91211
595.7820, 71.67383
596.9500, 32.15820
598.1190, 46.85156
599.2860, 102.9023
600.4540, 114.9766
601.6220, 158.2715
602.7890, 248.2285
603.9560, 125.3926
605.1230, 96.57812
606.2900, 70.21289
607.4570, 144.9941
608.6230, 76.23828
609.7890, 46.50195
610.9560, 37.21484
612.1220, 61.08398
613.2870, 82.42578
614.4530, 85.79297
615.6180, 148.1797
616.7840, 93.60938
617.9490, 317.0586
619.1140, 116.5645
620.2790, 599.0898
621.4430, 564.6348
622.6080, 600.2012
623.7720, 772.7891
624.9360, 911.4043
626.1000, 952.0410
627.2640, 1105.725
628.4270, 1152.430
629.5910, 1218.162
630.7540, 1130.939
631.9170, 1195.740
633.0800, 951.5605
634.2430, 1120.404
635.4050, 765.2656
636.5680, 935.1445
637.7300, 987.0508
638.8920, 846.9746
640.0540, 1141.943
641.2150, 1094.930
642.3770, 1209.932
643.5380, 1416.951
644.7000, 1544.020
645.8610, 1983.102
647.0210, 1884.201
648.1820, 2180.312
649.3430, 2369.436
650.5030, 2387.590
651.6630, 2594.031
652.8230, 2402.209
653.9830, 2343.396
655.1430, 2081.594
656.3020, 1933.797
657.4620, 1742.008
658.6210, 1637.227
659.7800, 1215.453
660.9390, 1228.684
662.0970, 1012.922
663.2560, 768.1641
664.4140, 836.4199
665.5720, 496.6855
666.7300, 710.9629
667.8880, 387.2734
669.0460, 288.6074
670.2030, 406.9512
671.3600, 361.3066
672.5180, 84.66992
673.6740, 23.95312
674.8310, 25.58203
675.9880, 165.2109
677.1440, 185.0879
678.3010, 225.3945
679.4570, 147.7031
680.6130, 125.0176
681.7690, 107.3320
682.9240, 39.07031
684.0800, 1.970703
685.2350, 63.71289
686.3900, 27.57617
687.5450, 1.134766
688.7000, 189.1523
689.8540, 49.56250
691.0090, 39.29883
692.1630, 131.9434
693.3170, 130.8125
694.4710, 92.36719
695.6250, 119.5488
696.7780, 48.26562
697.9320, 218.3516
699.0850, 156.2930
700.2380, 27.24805
701.3910, 190.7109
702.5440, 172.3262
703.6970, 34.63867
704.8490, 154.6289
706.0010, 22.75781
707.1530, 101.9238
708.3050, 37.10156
709.4570, 127.3105
710.6090, 26.46289
711.7600, 305.9258
712.9110, 161.3516
714.0620, 232.6309
715.2130, 69.91016
716.3640, 195.9531
717.5150, 31.23438
718.6650, 27.48047
719.8150, 58.42578
720.9650, 146.9805
722.1150, 73.10352
723.2650, 138.3203
724.4150, 156.5332
725.5640, 175.7422
726.7130, 102.8359
727.8630, 167.8828
729.0110, 121.9551
730.1600, 183.6250
731.3090, 45.81641
732.4570, 344.7344
733.6060, 232.8008
734.7540, 328.6504
735.9020, 651.4004
737.0490, 695.0000
738.1970, 792.9395
739.3440, 876.5547
740.4920, 1096.988
741.6390, 1580.906
742.7860, 1679.365
743.9320, 2069.492
745.0790, 2548.488
746.2250, 2867.959
747.3720, 3060.061
748.5180, 3171.156
749.6640, 3102.424
750.8100, 2847.018
751.9550, 2574.033
753.1010, 2247.258
754.2460, 1992.490
755.3910, 1665.184
756.5360, 1447.211
757.6810, 1182.236
758.8250, 930.2500
759.9700, 823.2559
761.1140, 1063.250
762.2580, 854.0605
763.4020, 886.0312
764.5460, 1095.191
765.6900, 1015.143
766.8330, 859.0801
767.9760, 866.6699
769.1200, 915.5840
770.2620, 873.4883
771.4050, 676.3770
772.5480, 674.2559
773.6900, 458.1250
774.8330, 433.3359
775.9750, 403.1758
777.1170, 497.5566
778.2590, 480.3691
779.4000, 474.1895
780.5420, 352.9531
781.6830, 420.7832
782.8240, 355.5391
783.9650, 265.2812
785.1060, 255.0078
786.2470, 423.7207
787.3870, 305.9102
788.5280, 56.59375
789.6680, 510.2500
790.8080, 281.8887
791.9480, 421.5117
793.0870, 207.1211
794.2270, 422.7148
795.3660, 510.2930
796.5060, 380.8535
797.6450, 612.4004
798.7830, 493.9316
799.9220, 657.4453
801.0610, 595.9453
802.1990, 873.4277
803.3370, 843.8945
804.4750, 1050.344
805.6130, 1258.781
806.7510, 1520.986
807.8890, 2001.602
809.0260, 2243.986
810.1630, 2686.355
811.3000, 3109.484
812.4370, 3337.506
813.5740, 3320.166
814.7110, 3178.473
815.8470, 2671.760
816.9830, 2209.031
818.1190, 1943.287
819.2550, 1214.527
820.3910, 1257.754
821.5270, 1034.643
822.6620, 672.5508
823.7970, 731.7285
824.9330, 448.4043
826.0670, 463.5488
827.2020, 571.9883
828.3370, 250.8633
829.4710, 145.9609
830.6060, 290.7500
831.7400, 487.8184
832.8740, 191.8691
834.0080, 5.876953
835.1410, 240.1953
836.2750, 2.103516
837.4080, 468.0410
838.5410, 66.61523
839.6740, 102.5234
840.8070, 55.12891
841.9400, 193.0078
843.0730, 124.8672
844.2050, 191.7148
845.3370, 90.55273
846.4690, 218.3750
847.6010, 54.16406
848.7330, 17.04297
849.8640, 158.7031
850.9960, 103.4355
852.1270, 28.15234
853.2580, 223.8496
854.3890, 73.53320
855.5200, 2.906250
856.6500, 45.48438
857.7810, 18.10352
858.9110, 139.6992
860.0410, 202.2793
861.1710, 96.84766
862.3010, 33.59766
863.4310, 49.09180
864.5600, 33.78320
865.6900, 29.75977
866.8190, 80.14258
867.9480, 0.4882810
869.0770, 3.146484
870.2050, 63.83789
871.3340, 5.406250
872.4620, 28.75195
873.5900, 16.90820
874.7180, 1.964844
875.8460, 50.09375
876.9740, 144.2109
878.1010, 31.31445
879.2290, 158.4004
880.3560, 163.4746
881.4830, 30.45117
882.6100, 68.57812
883.7370, 123.5977
884.8630, 3.601563
885.9900, 50.40820
887.1160, 6.525391
888.2420, 36.43750
889.3680, 56.66016
890.4940, 78.18555
891.6200, 107.9805
892.7450, 215.7734
893.8700, 173.5156
894.9960, 102.2480
896.1210, 100.9688
897.2460, 12.32227
898.3700, 312.3594
899.4950, 82.96875
900.6190, 265.6387
901.7430, 181.2344
902.8670, 60.17969
903.9910, 99.35547
905.1150, 119.8789
906.2390, 175.3926
907.3620, 144.8984
908.4850, 38.39258
909.6080, 11.12109
910.7310, 55.34180
911.8540, 79.20508
912.9770, 179.1914
914.0990, 137.5762
915.2210, 89.95508
916.3440, 121.6777
917.4660, 207.6133
918.5870, 33.51367
919.7090, 63.16992
920.8310, 35.43555
921.9520, 68.30859
923.0730, 31.90234
924.1940, 45.83008
925.3150, 46.34766
926.4360, 91.67578
927.5560, 75.39844
928.6770, 114.5703
929.7970, 87.83594
930.9170, 78.89844
932.0370, 100.0508
933.1570, 255.1953
934.2760, 182.3379
935.3960, 256.4727
936.5150, 11.60352
937.6340, 257.7246
938.7530, 304.8418
939.8720, 40.95508
940.9910, 71.06250
942.1090, 423.1816
943.2280, 360.3242
944.3460, 319.4453
945.4640, 209.5664
946.5820, 212.6855
947.6990, 216.8105
948.8170, 150.6992
949.9340, 291.1230
951.0520, 156.2734
952.1690, 222.4199
953.2860, 403.5586
954.4030, 379.6992
955.5190, 451.5137
956.6360, 465.1992
957.7520, 468.1172
958.8680, 429.2617
959.9840, 380.4062
961.1000, 344.5488
962.2160, 424.7012
963.3310, 122.8770
964.4470, 463.0488
965.5620, 274.2520
966.6770, 492.4551
967.7920, 464.6543
968.9060, 276.1172
970.0210, 243.3828
971.1360, 252.1562
972.2500, 167.4609
973.3640, 466.7754
974.4780, 539.1289
975.5920, 334.3242
976.7050, 571.6875
977.8190, 289.0527
978.9320, 313.4180
980.0450, 608.7832
981.1580, 511.1504
982.2710, 662.3711
983.3840, 865.5781
984.4970, 922.9590
985.6090, 844.3535
986.7210, 1011.990
987.8330, 1126.389
988.9450, 1519.824
990.0570, 1498.475
991.1690, 1855.758
992.2800, 2159.334
993.3920, 2311.816
994.5030, 2191.332
995.6140, 2458.852
996.7250, 2436.486
997.8350, 2653.164
998.9460, 2502.826
1000.056, 2564.998
1001.167, 2847.449
1002.277, 2499.273
1003.387, 2569.953
1004.496, 2460.848
1005.606, 2206.102
1006.715, 2022.246
1007.825, 1897.047
1008.934, 1677.176
1010.043, 1270.707
1011.152, 1473.312
1012.260, 1136.648
1013.369, 1111.316
1014.477, 1218.990
1015.586, 1188.311
1016.694, 849.0098
1017.802, 972.7168
1018.909, 788.2812
1020.017, 916.4883
1021.124, 1056.303
1022.232, 690.9082
1023.339, 955.8574
1024.446, 835.6426
1025.553, 762.2891
1026.659, 810.1660
1027.766, 863.0879
1028.872, 745.9258
1029.979, 901.9531
1031.085, 1220.840
1032.191, 1130.754
1033.296, 1262.482
1034.402, 1412.420
1035.507, 1454.365
1036.613, 1528.664
1037.718, 1580.635
1038.823, 1684.619
1039.928, 1563.613
1041.032, 1463.621
1042.137, 1238.635
1043.241, 1253.309
1044.346, 1125.352
1045.450, 882.8535
1046.554, 1011.926
1047.657, 837.0078
1048.761, 652.1074
1049.864, 890.2207
1050.968, 788.3477
1052.071, 847.4863
1053.174, 569.6406
1054.277, 869.8086
1055.379, 677.4980
1056.482, 457.6953
1057.584, 352.9160
1058.687, 532.1504
1059.789, 184.4004
1060.891, 449.6641
1061.992, 204.9473
1063.094, 363.2422
1064.196, 111.5547
1065.297, 504.8828
1066.398, 200.2266
1067.499, 155.5859
1068.600, 308.9609
1069.701, 160.3516
1070.801, 262.7578
1071.902, 338.1836
1073.002, 192.6230
1074.102, 341.2227
1075.202, 1.570313
1076.302, 284.0605
1077.402, 481.7656
1078.501, 312.2871
1079.600, 273.8242
1080.700, 189.3770
1081.799, 422.9492
1082.898, 363.5352
1083.996, 481.1387
1085.095, 413.7598
1086.193, 457.3965
1087.292, 455.1992
1088.390, 235.7188
1089.488, 434.4062
1090.586, 461.1113
1091.683, 471.8320
1092.781, 768.5703
1093.878, 798.3262
1094.975, 767.0430
1096.073, 705.8301
1097.169, 754.6367
1098.266, 854.4609
1099.363, 782.2988
1100.459, 940.1562
1101.556, 900.3438
1102.652, 1036.951
1103.748, 849.8867
1104.844, 869.8516
1105.940, 772.8359
1107.035, 869.8340
1108.131, 1073.854
1109.226, 1326.885
1110.321, 1588.934
1111.416, 1654.412
1112.511, 1638.084
1113.605, 1948.188
1114.700, 2285.305
1115.794, 2821.453
1116.889, 3100.947
1117.983, 3772.131
1119.077, 4758.332
1120.170, 4983.947
1121.264, 5255.184
1122.357, 5261.107
1123.451, 5441.662
1124.544, 5500.961
1125.637, 5198.199
1126.730, 5010.539
1127.823, 4657.896
1128.915, 4465.922
1130.008, 4289.736
1131.100, 4172.951
1132.192, 4159.430
1133.284, 4306.926
1134.376, 4761.443
1135.467, 4843.986
1136.559, 4902.572
1137.650, 5046.176
1138.742, 4871.818
1139.833, 4802.477
1140.924, 4368.156
1142.014, 3752.855
1143.105, 3441.998
1144.195, 2789.727
1145.286, 2392.473
1146.376, 2028.234
1147.466, 1865.986
1148.556, 1541.793
1149.646, 1060.617
1150.735, 1117.459
1151.825, 916.6836
1152.914, 1009.582
1154.003, 819.4961
1155.092, 734.4453
1156.181, 697.4102
1157.270, 582.8027
1158.358, 538.1406
1159.447, 440.3008
1160.535, 466.9648
1161.623, 447.0391
1162.711, 521.2344
1163.799, 500.3418
1164.886, 375.4941
1165.974, 302.6602
1167.061, 643.8379
1168.148, 210.0508
1169.235, 14.27734
1170.322, 347.5195
1171.409, 285.7754
1172.496, 200.0410
1173.582, 184.3242
1174.669, 321.6250
1175.755, 463.9414
1176.841, 191.2949
1177.927, 342.6621
1179.012, 216.0410
1180.098, 4.566406
1181.183, 367.8750
1182.269, 129.3281
1183.354, 11.79883
1184.439, 154.2793
1185.524, 217.7754
1186.608, 296.3008
1187.693, 94.92578
1188.777, 275.4805
1189.862, 163.0488
1190.946, 165.6270
1192.030, 389.2559
1193.113, 514.8965
1194.197, 244.5488
1195.281, 177.2148
1196.364, 20.89062
1197.447, 46.58008
1198.530, 183.2832
1199.613, 242.0801
1200.696, 239.1113
1201.779, 392.4707
1202.861, 238.2227
1203.944, 97.01172
1205.026, 73.27148
1206.108, 308.4395
1207.190, 9.824219
1208.271, 81.92188
1209.353, 41.67969
1210.435, 74.44922
1211.516, 131.2910
1212.597, 185.0254
1213.678, 203.8320
1214.759, 254.6504
1215.840, 222.6562
1216.920, 314.3164
1218.001, 222.1660
1219.081, 263.0273
1220.161, 143.9004
1221.241, 235.7832
1222.321, 265.6777
1223.401, 68.58398
1224.480, 66.50000
1225.560, 203.4043
1226.639, 84.31445
1227.718, 96.23633
1228.797, 200.1699
1229.876, 219.1133
1230.955, 167.0664
1232.033, 150.0293
1233.112, 245.0039
1234.190, 222.0957
1235.268, 107.0898
1236.346, 127.0938
1237.424, 211.1172
1238.501, 307.1504
1239.579, 244.1914
1240.656, 142.2422
1241.733, 99.30469
1242.811, 14.37695
1243.888, 23.45703
1244.964, 22.54688
1246.041, 63.35352
1247.117, 52.72461
1248.194, 147.8125
1249.270, 132.0898
1250.346, 264.9492
1251.422, 11.00000
1252.498, 22.94727
1253.573, 212.0996
1254.649, 121.8457
1255.724, 259.9531
1256.800, 243.9648
1257.875, 6.986328
1258.950, 54.01367
1260.024, 46.94922
1261.099, 97.06836
1262.173, 142.0938
1263.248, 190.1270
1264.322, 180.1699
1265.396, 114.2188
1266.470, 175.2734
1267.544, 153.3379
1268.617, 268.4102
1269.691, 42.49023
1270.764, 266.5742
1271.837, 187.3320
1272.910, 249.6699
1273.983, 100.6797
1275.056, 332.6973
1276.129, 27.27930
1277.201, 241.7285
1278.273, 183.7461
1279.346, 49.76953
1280.418, 102.1875
1281.489, 203.8242
1282.561, 301.8438
1283.633, 61.86719
1284.704, 78.89453
1285.776, 4.929688
1286.847, 33.03125
1287.918, 193.9883
1288.989, 52.98438
1290.059, 84.01953
1291.130, 94.97656
1292.200, 182.9844
1293.271, 180.9492
1294.341, 178.9180
1295.411, 77.89062
1296.481, 84.57422
1297.551, 115.7227
1298.620, 47.85938
1299.690, 178.8516
1300.759, 218.8516
1301.828, 149.8594
1302.897, 319.8672
1303.966, 211.8828
1305.035, 252.8984
1306.103, 131.9180
1307.172, 88.94531
1308.240, 377.9766
1309.308, 354.9414
1310.376, 648.9805
1311.444, 207.0195
1312.512, 470.0664
1313.580, 246.1172
1314.647, 477.1680
1315.714, 20.22266
1316.781, 444.2773
1317.848, 284.3398
1318.915, 462.4023
1319.982, 372.7227
1321.049, 493.7930
1322.115, 371.8672
1323.181, 505.9414
1324.248, 468.3984
1325.314, 366.1016
1326.380, 426.1875
1327.445, 489.2734
1328.511, 440.3633
1329.576, 224.4570
1330.642, 269.5508
1331.707, 340.6445
1332.772, 613.6094
1333.837, 299.8359
1334.902, 380.9453
1335.966, 198.8516
1337.031, 289.9609
1338.095, 282.0625
1339.159, 304.1602
1340.223, 419.2656
1341.287, 236.3711
1342.351, 369.4805
1343.415, 352.5859
1344.478, 360.6992
1345.541, 302.8164
1346.605, 439.9336
1347.668, 250.0469
1348.731, 375.1602
1349.793, 319.2734
1350.856, 372.3906
1351.918, 493.5078
1352.981, 329.6875
1354.043, 425.1094
1355.105, 405.9414
1356.167, 427.0703
1357.229, 389.2031
1358.290, 345.3398
1359.352, 399.4844
1360.413, 209.6250
1361.475, 33.22656
1362.536, 79.91406
1363.597, 219.0547
1364.657, 451.0312
1365.718, 224.1797
1366.779, 209.3359
1367.839, 360.5273
1368.899, 320.6914
1369.959, 313.8555
1371.019, 361.0273
1372.079, 469.2031
1373.139, 270.3828
1374.198, 167.2383
1375.258, 316.4297
1376.317, 196.6211
1377.376, 434.4258
1378.435, 46.63281
1379.494, 50.17969
1380.553, 310.0430
1381.611, 455.1875
1382.670, 17.58594
1383.728, 279.5547
1384.786, 482.7031
1385.844, 271.8320
1386.902, 664.9883
1387.960, 740.3984
1389.017, 227.5664
1390.075, 121.7383
1391.132, 162.9141
1392.189, 253.0977
1393.246, 349.2891
1394.303, 339.3047
1395.360, 548.6836
1396.417, 344.8906
1397.473, 186.1016
1398.529, 205.3203
1399.585, 358.1172
1400.642, 425.3477
1401.697, 222.5898
1402.753, 485.8086
1403.809, 250.0781
1404.864, 396.4531
1405.920, 133.6875
1406.975, 362.9336
1408.030, 390.7344
1409.085, 228.9922
1410.140, 207.2578
1411.194, 488.5312
1412.249, 265.8164
1413.303, 114.7305
1414.358, 553.6094
1415.412, 280.9258
1416.466, 34.64062
1417.520, 235.9805
1418.573, 51.23047
1419.627, 46.59375
1420.680, 183.9688
1421.733, 106.0781
1422.787, 129.7578
1423.840, 232.1094
1424.892, 310.3008
1425.945, 547.4922
1426.998, 386.6797
1428.050, 174.8711
1429.103, 85.04688
1430.155, 345.2148
1431.207, 338.3672
1432.259, 316.4961
1433.310, 101.6250
1434.362, 418.7578
1435.414, 272.9062
1436.465, 169.0938
1437.516, 316.2578
1438.567, 569.8086
1439.618, 75.66016
1440.669, 238.9688
1441.720, 157.1953
1442.770, 93.50781
1443.820, 101.7461
1444.871, 39.98438
1445.921, 130.7773
1446.971, 334.4609
1448.021, 257.6953
1449.070, 144.9336
1450.120, 499.2227
1451.169, 254.5312
1452.219, 194.8398
1453.268, 308.1445
1454.317, 356.4531
1455.366, 217.7617
1456.414, 321.0664
1457.463, 218.3750
1458.511, 134.6797
1459.560, 105.0039
1460.608, 433.3438
1461.656, 248.6836
1462.704, 227.0234
1463.752, 498.5078
1464.799, 26.80859
1465.847, 250.0820
1466.894, 487.3594
1467.941, 152.6328
1468.988, 400.9023
1470.035, 245.1914
1471.082, 370.4961
1472.129, 174.8867
1473.175, 230.2969
1474.222, 283.2812
1475.268, 270.7578
1476.314, 357.1875
1477.360, 314.7539
1478.406, 368.2773
1479.452, 357.8008
1480.498, 101.3320
1481.543, 196.8633
1482.588, 418.4727
1483.633, 148.1641
1484.679, 286.8750
1485.723, 351.6016
1486.768, 218.3164
1487.813, 186.0508
1488.857, 321.7930
1489.902, 25.42969
1490.946, 126.3984
1491.990, 207.3086
1493.034, 6.273438
1494.078, 463.2500
1495.122, 276.2383
1496.165, 184.2461
1497.209, 105.2656
1498.252, 227.3047
1499.295, 210.5469
1500.338, 190.4531
1501.381, 305.5625
1502.424, 344.6875
1503.466, 293.8359
1504.509, 51.01172
1505.551, 193.7422
1506.593, 329.6562
1507.635, 13.57812
1508.677, 213.5234
1509.719, 160.4805
1510.761, 160.4531
1511.802, 325.4492
1512.844, 97.45703
1513.885, 528.4844
1514.926, 144.6172
1515.967, 431.7734
1517.008, 296.9648
1518.049, 213.1797
1519.089, 391.4258
1520.130, 336.7656
1521.170, 524.1367
1522.210, 187.5312
1523.250, 396.9570
1524.290, 335.4141
1525.330, 139.8945
1526.370, 283.4102
1527.409, 416.7812
1528.448, 190.1641
1529.488, 14.43359
1530.527, 433.8281
1531.566, 21.77344
1532.605, 67.37109
1533.643, 188.0312
1534.682, 540.4297
1535.720, 288.4727
1536.759, 237.5781
1537.797, 226.7539
1538.835, 308.0000
1539.873, 311.3125
1540.910, 331.7031
1541.948, 431.1719
1542.986, 162.7148
1544.023, 262.3398
1545.060, 339.0508
1546.097, 113.0469
1547.134, 238.3398
1548.171, 266.4023
1549.208, 111.7227
1550.244, 47.50000
1551.281, 258.8281
1552.317, 312.5703
1553.353, 191.5234
1554.389, 281.4062
1555.425, 359.7812
1556.461, 335.1211
1557.497, 73.43750
1558.532, 125.5547
1559.567, 19.93750
1560.603, 15.16406
1561.638, 65.17969
1562.673, 0.8359380
1563.708, 0.0000000E+00
##END=



