##NAMES=Microcline
##RRUFFID=R040154
##IDEAL CHEMISTRY=KAlSi_3_O_8_
##LOCALITY=Mitchell County, North Carolina, USA
##OWNER=RRUFF
##SOURCE=University of Arizona Mineral Museum
##DESCRIPTION=White cleavage fragment with some perthitic character
##STATUS=The identification of this mineral has been confirmed by X-ray diffraction and chemical analysis
##URL=rruff.info/R040154
##MEASURED CHEMISTRY=(K_0.90_Na_0.09_Ba_0.01_)Al_1.00_(Si_2.99_Al_0.01_)_Î£=3_O_8_
##PIN_ID=L00534
##ORIENTATION=Laser parallel to (1 1 0). Fiducial mark perpendicular to laser is parallel to c [0 0 1]
102.242, 0.000
103.636, 16.215
105.030, 431.130
106.423, 1572.821
107.817, 2530.942
109.210, 3184.449
110.603, 3370.373
111.996, 2821.264
113.388, 2271.656
114.780, 1517.207
116.172, 1033.641
117.564, 632.929
118.956, 696.871
120.347, 812.658
121.738, 1064.405
123.129, 1755.433
124.519, 2607.541
125.910, 3262.861
127.300, 3870.746
128.690, 4000.709
130.080, 3912.419
131.469, 3676.506
132.858, 3017.194
134.248, 2675.279
135.636, 2548.148
137.025, 2644.652
138.413, 3101.079
139.801, 3746.012
141.189, 4499.626
142.577, 5242.063
143.964, 6283.477
145.352, 7504.024
146.739, 8833.810
148.125, 10212.916
149.512, 10871.419
150.898, 11419.390
152.284, 11456.892
153.670, 11523.976
155.056, 11060.685
156.441, 10817.424
157.827, 10454.295
159.212, 9895.828
160.596, 9142.354
161.981, 8027.277
163.365, 6621.021
164.749, 5553.129
166.133, 4411.732
167.517, 3658.660
168.900, 3281.435
170.283, 3050.701
171.666, 3366.455
173.049, 3855.595
174.431, 4720.738
175.813, 5506.193
177.195, 6341.789
178.577, 6667.440
179.959, 6363.137
181.340, 5688.873
182.721, 4744.657
184.102, 3890.819
185.483, 2997.726
186.863, 2484.950
188.244, 1992.356
189.624, 1679.893
191.003, 1697.533
192.383, 1835.300
193.762, 2083.205
195.141, 2751.255
196.520, 3309.452
197.899, 3767.796
199.277, 3856.281
200.656, 3624.903
202.034, 3373.656
203.411, 2672.528
204.789, 1901.512
206.166, 1360.594
207.543, 933.770
208.920, 694.460
210.297, 494.213
211.673, 483.021
213.049, 396.338
214.425, 96.474
215.801, 6.340
217.176, 29.125
218.552, 69.899
219.927, 193.678
221.302, 259.468
222.676, 252.270
224.051, 207.588
225.425, 271.902
226.799, 321.672
228.173, 282.008
229.546, 168.258
230.919, 269.517
232.292, 112.787
233.665, 215.066
235.038, 227.359
236.410, 240.665
237.782, 189.983
239.154, 152.318
240.526, 111.669
241.898, 36.053
243.269, 13.523
244.640, 171.686
246.011, 224.080
247.381, 563.275
248.752, 754.039
250.122, 1146.340
251.492, 1823.065
252.861, 2619.533
254.231, 3515.822
255.600, 4472.031
256.969, 5038.239
258.338, 5514.453
259.707, 5670.675
261.075, 6036.902
262.443, 6123.793
263.811, 6457.329
265.179, 7035.979
266.546, 6949.236
267.914, 6603.031
269.281, 5910.912
270.647, 5126.791
272.014, 4318.113
273.380, 3428.096
274.747, 3109.761
276.113, 3109.533
277.478, 3399.610
278.844, 4090.104
280.209, 5250.946
281.574, 6742.090
282.939, 8203.474
284.304, 9485.046
285.668, 10066.779
287.032, 10278.674
288.396, 9380.655
289.760, 7962.705
291.123, 6564.808
292.487, 5216.950
293.850, 4099.124
295.212, 3281.318
296.575, 2773.525
297.937, 2355.709
299.300, 1977.837
300.662, 1749.887
302.023, 1451.839
303.385, 1033.693
304.746, 865.455
306.107, 747.131
307.468, 504.726
308.829, 372.241
310.189, 347.685
311.549, 218.055
312.909, 171.358
314.269, 82.592
315.629, 32.744
316.988, 152.805
318.347, 99.798
319.706, 197.716
321.065, 91.570
322.423, 138.347
323.781, 413.023
325.139, 572.538
326.497, 972.688
327.855, 1272.476
329.212, 1711.825
330.569, 2000.834
331.926, 2069.555
333.283, 1947.963
334.639, 1626.072
335.995, 1283.984
337.351, 871.812
338.707, 569.630
340.063, 437.435
341.418, 325.229
342.773, 187.007
344.128, 9.764
345.483, 125.461
346.837, 171.127
348.192, 109.762
349.546, 206.355
350.899, 184.919
352.253, 326.449
353.606, 323.958
354.960, 551.441
356.313, 718.902
357.665, 686.337
359.018, 683.747
360.370, 561.131
361.722, 568.495
363.074, 715.832
364.426, 563.142
365.777, 730.425
367.128, 1057.678
368.479, 1484.900
369.830, 1932.090
371.181, 2449.251
372.531, 2846.349
373.881, 2773.389
375.231, 2540.376
376.581, 1937.284
377.930, 1544.188
379.280, 1119.378
380.629, 693.592
381.977, 485.881
383.326, 341.874
384.674, 184.200
386.023, 146.823
387.370, 171.552
388.718, 202.617
390.066, 160.547
391.413, 140.658
392.760, 136.981
394.107, 207.609
395.454, 326.771
396.800, 540.322
398.146, 833.125
399.492, 1295.070
400.838, 1849.755
402.184, 2176.412
403.529, 2185.289
404.874, 2327.875
406.219, 1931.515
407.564, 1597.679
408.908, 1503.690
410.252, 1389.660
411.596, 1345.586
412.940, 1271.487
414.284, 1147.464
415.627, 933.324
416.970, 639.165
418.313, 344.986
419.656, 140.788
420.999, 56.567
422.341, 2.316
423.683, 91.978
425.025, 106.341
426.367, 150.811
427.708, 125.461
429.049, 120.306
430.390, 145.255
431.731, 80.333
433.072, 14.482
434.412, 89.816
435.752, 54.849
437.092, 199.502
438.432, 294.977
439.772, 460.173
441.111, 376.508
442.450, 755.103
443.789, 1040.727
445.127, 1185.692
446.466, 1743.232
447.804, 2358.163
449.142, 3392.646
450.480, 4897.770
451.817, 6182.098
453.155, 7586.288
454.492, 8011.324
455.829, 7725.702
457.166, 6821.168
458.502, 5725.134
459.838, 4779.656
461.175, 3993.947
462.510, 3577.719
463.846, 3451.439
465.181, 3525.111
466.517, 3978.734
467.852, 5372.309
469.186, 6125.833
470.521, 7709.309
471.855, 10092.738
473.190, 12796.121
474.523, 14898.870
475.857, 15638.569
477.191, 15465.625
478.524, 13927.452
479.857, 12217.323
481.190, 10159.957
482.523, 8699.113
483.855, 7649.870
485.187, 6672.835
486.519, 5505.756
487.851, 4838.634
489.183, 3791.469
490.514, 3094.268
491.845, 2767.028
493.176, 2419.753
494.507, 2312.441
495.837, 2395.096
497.168, 2387.717
498.498, 2680.306
499.828, 3212.861
501.157, 3835.385
502.487, 4497.876
503.816, 5818.529
505.145, 7671.281
506.474, 10089.635
507.802, 13709.529
509.131, 17977.064
510.459, 23257.838
511.787, 28537.906
513.115, 31290.145
514.442, 31792.340
515.770, 29184.574
517.097, 24366.936
518.424, 19289.348
519.750, 14651.425
521.077, 11045.148
522.403, 8367.545
523.729, 6789.854
525.055, 5072.656
526.381, 4154.811
527.706, 3576.721
529.031, 2868.684
530.356, 2361.299
531.681, 2183.586
533.006, 1922.980
534.330, 1676.050
535.654, 1537.880
536.978, 1326.457
538.302, 1259.371
539.625, 1107.702
540.949, 1059.933
542.272, 842.638
543.595, 874.306
544.917, 754.458
546.240, 664.903
547.562, 598.232
548.884, 508.757
550.206, 618.742
551.527, 498.602
552.849, 488.856
554.170, 264.786
555.491, 426.777
556.812, 408.817
558.132, 470.890
559.453, 323.092
560.773, 495.275
562.093, 237.431
563.412, 430.349
564.732, 252.503
566.051, 235.262
567.370, 307.372
568.689, 359.774
570.008, 261.830
571.326, 403.857
572.644, 235.867
573.963, 497.847
575.280, 289.811
576.598, 581.762
577.915, 633.700
579.233, 624.970
580.550, 804.406
581.866, 691.522
583.183, 1012.669
584.499, 942.873
585.815, 750.235
587.131, 619.144
588.447, 518.333
589.763, 405.937
591.078, 297.580
592.393, 65.083
593.708, 94.908
595.022, 193.812
596.337, 35.211
597.651, 56.794
598.965, 11.651
600.279, 50.127
601.593, 11.354
602.906, 62.802
604.219, 35.776
605.532, 154.407
606.845, 116.851
608.158, 28.086
609.470, 129.291
610.782, 150.476
612.094, 21.639
613.406, 82.793
614.718, 6.076
616.029, 155.021
617.340, 46.099
618.651, 67.148
619.962, 198.177
621.272, 189.185
622.582, 230.174
623.892, 211.145
625.202, 272.096
626.512, 473.028
627.821, 503.941
629.131, 484.898
630.440, 605.776
631.749, 696.637
633.057, 527.482
634.366, 388.328
635.674, 489.187
636.982, 720.033
638.290, 550.879
639.597, 671.712
640.905, 812.547
642.212, 1013.376
643.519, 1034.188
644.825, 1284.985
646.132, 1395.765
647.438, 1566.528
648.744, 1707.277
650.050, 1988.009
651.356, 2138.726
652.662, 1909.429
653.967, 2000.113
655.272, 1780.785
656.577, 1571.439
657.882, 1282.078
659.186, 1182.705
660.490, 923.314
661.794, 793.920
663.098, 564.553
664.402, 535.190
665.705, 455.825
667.009, 296.468
668.312, 247.104
669.614, 307.737
670.917, 168.357
672.219, 128.963
673.522, 89.554
674.824, 70.129
676.125, 200.688
677.427, 18.767
678.728, 51.749
680.030, 62.249
681.331, 2.731
682.631, 83.456
683.932, 133.903
685.232, 114.885
686.532, 5.304
687.832, 35.703
689.132, 113.914
690.432, 13.111
691.731, 107.319
693.030, 102.417
694.329, 12.226
695.628, 96.709
696.926, 24.136
698.224, 5.658
699.522, 188.356
700.820, 1.602
702.118, 19.962
703.415, 49.947
704.713, 180.877
706.010, 205.994
707.307, 235.960
708.603, 75.920
709.900, 53.553
711.196, 316.458
712.492, 201.327
713.788, 341.199
715.083, 123.014
716.379, 133.353
717.674, 203.178
718.969, 13.948
720.264, 313.733
721.558, 23.775
722.853, 223.427
724.147, 63.561
725.441, 173.274
726.735, 193.100
728.028, 154.825
729.322, 224.396
730.615, 236.837
731.908, 189.953
733.201, 473.116
734.493, 362.721
735.785, 632.314
737.078, 661.903
738.370, 651.630
739.661, 913.868
740.953, 1153.533
742.244, 1323.245
743.535, 1762.997
744.826, 2356.290
746.117, 3086.131
747.407, 3745.999
748.698, 4135.772
749.988, 4555.318
751.278, 4165.184
752.567, 3675.250
753.857, 3154.471
755.146, 2524.171
756.435, 2083.357
757.724, 1671.983
759.013, 1561.209
760.301, 1257.802
761.590, 1086.942
762.878, 1146.473
764.165, 1015.301
765.453, 944.861
766.741, 864.498
768.028, 987.910
769.315, 867.234
770.602, 595.412
771.888, 755.027
773.175, 524.023
774.461, 343.188
775.747, 462.812
777.033, 262.424
778.319, 342.024
779.604, 351.615
780.889, 331.193
782.174, 310.761
783.459, 100.317
784.744, 329.863
786.028, 269.398
787.312, 258.922
788.596, 148.437
789.880, 347.940
791.164, 337.434
792.447, 256.915
793.730, 156.388
795.013, 325.849
796.296, 425.300
797.579, 164.740
798.861, 574.172
800.143, 163.593
801.425, 363.004
802.707, 552.404
803.989, 421.795
805.270, 731.176
806.551, 810.547
807.832, 1029.909
809.113, 1409.262
810.394, 1678.604
811.674, 2347.936
812.954, 2557.262
814.234, 2716.575
815.514, 2715.881
816.794, 2025.176
818.073, 1954.465
819.352, 1533.744
820.631, 1183.014
821.910, 662.273
823.189, 611.527
824.467, 550.770
825.745, 330.006
827.023, 269.172
828.301, 288.166
829.578, 187.070
830.856, 376.271
832.133, 193.785
833.410, 222.588
834.687, 201.438
835.963, 19.758
837.240, 148.682
838.516, 7.812
839.792, 96.850
841.068, 115.195
842.343, 93.832
843.618, 5.324
844.894, 33.100
846.169, 82.076
847.443, 154.268
848.718, 77.910
849.992, 5.559
851.266, 22.869
852.540, 59.193
853.814, 99.777
855.088, 22.230
856.361, 84.711
857.634, 10.227
858.907, 81.299
860.180, 117.578
861.453, 146.453
862.725, 4.953
863.997, 9.654
865.269, 81.492
866.541, 187.314
867.812, 33.881
869.084, 5.186
870.355, 113.545
871.626, 17.686
872.897, 150.318
874.167, 0.928
875.438, 117.201
876.708, 4.051
877.978, 64.369
879.248, 3.105
880.517, 38.162
881.787, 140.549
883.056, 50.742
884.325, 62.059
885.594, 63.406
886.862, 85.211
888.130, 43.830
889.399, 182.445
890.667, 1.061
891.934, 50.328
893.202, 98.256
894.469, 226.842
895.737, 55.424
897.004, 65.994
898.270, 122.555
899.537, 161.104
900.803, 10.348
902.070, 158.193
903.336, 86.736
904.601, 24.705
905.867, 153.848
907.132, 37.598
908.398, 69.053
909.663, 89.480
910.928, 38.035
912.192, 206.592
913.457, 65.164
914.721, 93.805
915.985, 122.443
917.249, 151.088
918.512, 89.730
919.776, 91.625
921.039, 96.986
922.302, 215.598
923.565, 184.217
924.827, 52.838
926.090, 231.461
927.352, 140.088
928.614, 198.717
929.876, 77.348
931.138, 355.979
932.399, 294.613
933.660, 83.248
934.922, 151.885
936.182, 290.465
937.443, 129.107
938.704, 207.754
939.964, 166.402
941.224, 295.053
942.484, 303.707
943.744, 202.365
945.003, 341.027
946.262, 129.691
947.521, 208.359
948.780, 367.031
950.039, 245.707
951.298, 534.385
952.556, 113.066
953.814, 271.752
955.072, 350.443
956.330, 259.137
957.587, 297.834
958.845, 286.537
960.102, 215.244
961.359, 453.957
962.615, 202.672
963.872, 391.396
965.128, 270.121
966.384, 378.852
967.640, 247.590
968.896, 256.330
970.152, 405.078
971.407, 183.863
972.662, 352.654
973.917, 511.449
975.172, 360.254
976.427, 349.064
977.681, 527.883
978.935, 426.705
980.189, 615.535
981.443, 584.369
982.697, 523.207
983.950, 832.055
985.203, 610.908
986.456, 1229.770
987.709, 1018.373
988.962, 1267.244
990.214, 1585.568
991.467, 1734.449
992.719, 2133.338
993.971, 2592.232
995.222, 2400.668
996.474, 2529.457
997.725, 2268.408
998.976, 2157.395
1000.227, 2011.045
1001.478, 1779.328
1002.728, 2018.242
1003.978, 1843.340
1005.229, 1742.402
1006.479, 1579.871
1007.728, 1388.963
1008.978, 1017.232
1010.227, 1041.211
1011.476, 940.346
1012.725, 859.488
1013.974, 708.070
1015.223, 727.145
1016.471, 711.355
1017.719, 750.559
1018.967, 767.816
1020.215, 676.543
1021.462, 675.779
1022.710, 583.979
1023.957, 523.240
1025.204, 752.219
1026.451, 901.506
1027.697, 790.404
1028.944, 759.717
1030.190, 928.916
1031.436, 746.209
1032.682, 985.559
1033.928, 792.391
1035.173, 958.289
1036.418, 864.133
1037.663, 923.537
1038.908, 1072.951
1040.153, 1222.379
1041.398, 881.693
1042.642, 1148.541
1043.886, 758.014
1045.130, 937.500
1046.374, 1007.002
1047.617, 793.020
1048.860, 962.553
1050.104, 902.271
1051.347, 1021.357
1052.589, 1170.938
1053.832, 984.822
1055.074, 813.361
1056.316, 753.105
1057.558, 761.074
1058.800, 797.260
1060.042, 350.949
1061.283, 710.643
1062.524, 590.355
1063.765, 495.154
1065.006, 554.900
1066.247, 334.713
1067.487, 474.496
1068.728, 424.297
1069.968, 409.439
1071.208, 519.279
1072.447, 619.143
1073.687, 399.023
1074.926, 528.924
1076.165, 388.850
1077.404, 528.795
1078.643, 458.764
1079.881, 468.752
1081.120, 538.766
1082.358, 358.801
1083.596, 518.859
1084.834, 598.938
1086.071, 579.041
1087.309, 699.170
1088.546, 669.322
1089.783, 909.502
1091.020, 889.707
1092.256, 849.939
1093.493, 910.195
1094.729, 1380.408
1095.965, 1160.646
1097.201, 1370.840
1098.436, 1371.059
1099.672, 1461.205
1100.907, 1431.375
1102.142, 1241.566
1103.377, 1401.779
1104.612, 1202.018
1105.846, 1142.275
1107.081, 1322.697
1108.315, 1443.000
1109.549, 1253.326
1110.782, 1643.672
1112.016, 1384.037
1113.249, 1634.422
1114.483, 2074.828
1115.716, 1795.260
1116.948, 2265.723
1118.181, 2726.223
1119.413, 3083.908
1120.646, 4084.479
1121.878, 4325.090
1123.110, 5145.748
1124.341, 5356.457
1125.573, 5037.227
1126.804, 5017.400
1128.035, 4057.504
1129.266, 4047.473
1130.497, 3597.285
1131.727, 3276.959
1132.957, 3356.559
1134.188, 3186.490
1135.418, 3276.445
1136.647, 3706.428
1137.877, 3586.432
1139.106, 3926.457
1140.335, 3446.504
1141.564, 3326.625
1142.793, 3136.789
1144.022, 2517.004
1145.250, 2387.250
1146.479, 1887.572
1147.707, 1917.922
1148.934, 1428.320
1150.162, 1068.777
1151.390, 999.273
1152.617, 1039.811
1153.844, 890.375
1155.071, 710.971
1156.298, 601.607
1157.524, 562.291
1158.751, 603.076
1159.977, 483.908
1161.203, 214.770
1162.428, 685.691
1163.654, 136.643
1164.879, 367.666
1166.105, 288.723
1167.330, 279.787
1168.555, 300.871
1169.779, 362.029
1171.004, 183.193
1172.228, 434.357
1173.452, 5.525
1174.676, 256.721
1175.900, 398.006
1177.123, 149.324
1178.346, 280.674
1179.570, 372.057
1180.793, 16.527
1182.015, 424.920
1183.238, 136.400
1184.460, 167.912
1185.683, 289.455
1186.905, 81.031
1188.126, 92.641
1189.348, 274.285
1190.569, 45.965
1191.791, 377.684
1193.012, 19.441
1194.233, 141.234
1195.453, 423.064
1196.674, 5.066
1197.894, 306.842
1199.114, 308.791
1200.334, 79.336
1201.554, 282.570
1202.774, 4.510
1203.993, 276.490
1205.212, 368.531
1206.431, 69.357
1207.650, 352.826
1208.869, 305.084
1210.087, 82.586
1211.305, 369.824
1212.524, 42.311
1213.741, 244.873
1214.959, 357.512
1216.177, 250.227
1217.394, 343.023
1218.611, 475.898
1219.828, 78.855
1221.045, 331.889
1222.261, 435.002
1223.478, 278.197
1224.694, 581.475
1225.910, 254.838
1227.126, 168.297
1228.342, 391.848
1229.557, 295.492
1230.772, 368.443
1231.987, 162.270
1233.202, 396.205
1234.417, 580.248
1235.631, 154.408
1236.846, 308.686
1238.060, 302.477
1239.274, 436.996
1240.488, 395.383
1241.701, 319.217
1242.915, 437.365
1244.128, 541.322
1245.341, 333.338
1246.554, 296.432
1247.767, 469.744
1248.979, 283.061
1250.191, 296.367
1251.403, 569.650
1252.615, 102.885
1253.827, 396.045
1255.039, 359.127
1256.250, 292.096
1257.461, 534.873
1258.672, 357.416
1259.883, 430.201
1261.094, 393.895
1262.304, 418.920
1263.514, 595.023
1264.724, 58.498
1265.934, 346.859
1267.144, 534.289
1268.354, 292.596
1269.563, 372.197
1270.772, 493.297
1271.981, 140.508
1273.190, 340.846
1274.398, 154.277
1275.607, 29.648
1276.815, 16.699
1278.023, 0.000
##END=



