##NAMES=Microcline
##RRUFFID=R050193
##IDEAL CHEMISTRY=KAlSi_3_O_8_
##LOCALITY=Devil's Head, Douglas County, Colorado, USA
##OWNER=RRUFF
##SOURCE=Dave Bunk Minerals
##DESCRIPTION=White to colorless heterogeneous mixture of K and Na feldspar in a cluster of crystals. Crystal structure determined, presented below. This sample is known as an intermediate microcline in the literature.
##STATUS=The identification of this mineral has been confirmed by X-ray diffraction and chemical analysis
##URL=rruff.info/R050193
##MEASURED CHEMISTRY=(K_0.929_Na_0.071_)(Al_1.005_Si_2.994_Fe_0.001_)O_7.993_F_0.007_  ; Light Band :  (Na_0.973_K_0.007_Ca_0.020_)(Al_1.020_Si_2.980_)O_8_ ; Dark Band
##PIN_ID=L00660
##ORIENTATION=Laser parallel to c* (0 0 1). Fiducial mark perpendicular to laser is parallel to a [1 0 0]
127.7630, 0.0000000E+00
128.9970, 6.160156
130.2300, 200.3730
131.4640, 23.98828
132.6970, 90.05664
133.9300, 152.3945
135.1630, 382.7109
136.3950, 665.7305
137.6280, 711.8477
138.8600, 1012.869
140.0920, 986.8750
141.3240, 1188.152
142.5560, 1423.127
143.7880, 1611.340
145.0190, 1572.424
146.2510, 1757.070
147.4820, 1879.016
148.7130, 2259.031
149.9440, 2507.912
151.1750, 2820.490
152.4050, 3161.611
153.6360, 3285.342
154.8660, 3288.963
156.0960, 3483.990
157.3260, 3417.135
158.5560, 3362.326
159.7850, 3134.496
161.0150, 2733.602
162.2440, 2524.598
163.4730, 2307.430
164.7020, 2013.041
165.9310, 1872.375
167.1590, 1681.359
168.3880, 1505.947
169.6160, 1462.109
170.8440, 1593.809
172.0720, 1349.008
173.3000, 1368.684
174.5280, 1592.906
175.7550, 1569.453
176.9820, 1666.410
178.2100, 1526.752
179.4370, 1352.469
180.6630, 1372.547
181.8900, 1272.969
183.1170, 870.8789
184.3430, 920.1445
185.5690, 845.7129
186.7950, 951.5801
188.0210, 691.8223
189.2470, 761.3281
190.4720, 842.1543
191.6970, 642.3418
192.9230, 906.9785
194.1480, 720.9902
195.3730, 887.3477
196.5970, 847.9492
197.8220, 970.7383
199.0460, 1063.725
200.2700, 1067.900
201.4940, 1098.232
202.7180, 874.6055
203.9420, 583.9668
205.1660, 545.3281
206.3890, 579.7227
207.6120, 575.1777
208.8350, 530.8594
210.0580, 466.7578
211.2810, 414.7852
212.5040, 324.8320
213.7260, 203.9629
214.9480, 253.1797
216.1700, 310.4961
217.3920, 28.90820
218.6140, 79.42578
219.8360, 0.9511720
221.0570, 245.7734
222.2790, 52.60938
223.5000, 83.55273
224.7210, 30.60742
225.9410, 198.7715
227.1620, 107.0469
228.3820, 258.4316
229.6030, 181.9277
230.8230, 213.5371
232.0430, 165.2559
233.2630, 312.0820
234.4820, 179.0195
235.7020, 269.0684
236.9210, 108.5508
238.1400, 142.4551
239.3590, 138.7344
240.5780, 224.1191
241.7970, 306.6113
243.0150, 216.2070
244.2340, 589.9199
245.4520, 345.4160
246.6700, 262.7891
247.8880, 222.7520
249.1060, 598.8145
250.3230, 429.9766
251.5400, 711.2363
252.7580, 646.0176
253.9750, 711.1973
255.1920, 952.5508
256.4080, 1167.207
257.6250, 1273.848
258.8410, 1479.285
260.0580, 1531.396
261.2740, 1377.732
262.4900, 1452.627
263.7050, 1408.504
264.9210, 1607.475
266.1360, 1603.537
267.3520, 1567.688
268.5670, 1715.924
269.7820, 1667.811
270.9960, 1566.215
272.2110, 1781.709
273.4250, 1681.361
274.6400, 2008.416
275.8540, 2095.289
277.0680, 2259.283
278.2810, 2528.215
279.4950, 2780.395
280.7090, 2842.027
281.9220, 2975.164
283.1350, 2903.564
284.3480, 2665.398
285.5610, 2629.531
286.7730, 2507.832
287.9860, 2023.359
289.1980, 1743.158
290.4100, 1612.311
291.6220, 1420.539
292.8340, 1221.969
294.0460, 1028.584
295.2570, 749.3770
296.4690, 577.3379
297.6800, 743.4590
298.8910, 468.7324
300.1020, 504.1562
301.3120, 461.7188
302.5230, 422.4199
303.7330, 267.2500
304.9440, 185.2051
306.1540, 320.2832
307.3630, 351.4785
308.5730, 185.7871
309.7830, 215.2031
310.9920, 96.72461
312.2010, 113.3555
313.4100, 32.08203
314.6190, 263.9082
315.8280, 201.8340
317.0370, 227.8516
318.2450, 107.9590
319.4530, 266.1543
320.6610, 83.43750
321.8690, 357.8066
323.0770, 196.2578
324.2850, 56.78906
325.4920, 484.4043
326.6990, 149.0938
327.9060, 375.8613
329.1130, 457.7129
330.3200, 208.6387
331.5270, 335.6367
332.7330, 66.70312
333.9390, 204.8379
335.1450, 215.0430
336.3510, 321.3125
337.5570, 97.64844
338.7630, 43.04297
339.9680, 246.5059
341.1740, 87.02539
342.3790, 104.6035
343.5840, 12.75977
344.7890, 101.0664
345.9930, 55.32812
347.1980, 54.54297
348.4020, 6.292969
349.6060, 44.18555
350.8100, 98.13281
352.0140, 143.1426
353.2180, 166.5176
354.4210, 162.3262
355.6250, 188.5039
356.8280, 50.73438
358.0310, 3.019531
359.2340, 49.35938
360.4360, 139.7520
361.6390, 20.80078
362.8410, 42.30078
364.0430, 49.75781
365.2450, 64.80078
366.4470, 11.44336
367.6490, 47.13867
368.8510, 81.79492
370.0520, 77.68164
371.2530, 95.53125
372.4540, 73.43359
373.6550, 8.384766
374.8560, 74.38281
376.0560, 117.5684
377.2570, 63.51172
378.4570, 16.36328
379.6570, 172.8086
380.8570, 83.97070
382.0570, 46.74023
383.2560, 94.51172
384.4560, 257.1855
385.6550, 259.1094
386.8540, 33.45508
388.0530, 14.15430
389.2520, 69.28125
390.4510, 27.24414
391.6490, 74.74609
392.8470, 47.79492
394.0450, 52.61328
395.2430, 48.98242
396.4410, 217.6797
397.6390, 289.3652
398.8360, 215.0898
400.0340, 252.8418
401.2310, 318.6270
402.4280, 248.4023
403.6250, 311.2148
404.8210, 443.0645
406.0180, 245.9395
407.2140, 369.8809
408.4100, 0.8652340
409.6060, 292.8926
410.8020, 77.96094
411.9980, 230.0723
413.1930, 141.2266
414.3890, 160.4355
415.5840, 101.5469
416.7790, 188.8965
417.9740, 89.89258
419.1680, 35.83008
420.3630, 89.38281
421.5570, 28.14062
422.7510, 106.7383
423.9450, 204.4023
425.1390, 0.8710940
426.3330, 94.90820
427.5270, 32.75000
428.7200, 0.6464840
429.9130, 75.58984
431.1060, 284.1738
432.2990, 179.7539
433.4920, 107.0586
434.6840, 190.9258
435.8770, 128.9648
437.0690, 153.0566
438.2610, 204.2031
439.4530, 114.4004
440.6450, 516.6523
441.8360, 337.9512
443.0280, 290.2969
444.2190, 463.6914
445.4100, 340.1387
446.6010, 488.6289
447.7920, 614.1660
448.9820, 669.3105
450.1730, 907.3809
451.3630, 913.0566
452.5530, 1056.777
453.7430, 1164.545
454.9330, 1209.605
456.1230, 980.6211
457.3120, 1248.520
458.5010, 998.3438
459.6910, 884.3281
460.8800, 943.3535
462.0680, 830.4219
463.2570, 853.9316
464.4460, 934.0840
465.6340, 1163.275
466.8220, 1327.510
468.0100, 1209.043
469.1980, 1719.357
470.3860, 1769.711
471.5730, 1945.969
472.7600, 2432.418
473.9480, 2657.891
475.1350, 2842.404
476.3210, 2718.953
477.5080, 2439.543
478.6950, 2686.170
479.8810, 2232.836
481.0670, 1780.539
482.2530, 1557.277
483.4390, 1346.117
484.6250, 1177.584
485.8100, 1229.727
486.9960, 1054.404
488.1810, 1146.301
489.3660, 1180.863
490.5510, 826.4648
491.7360, 910.5020
492.9200, 998.5762
494.1050, 1111.686
495.2890, 1152.830
496.4730, 1291.014
497.6570, 1467.166
498.8400, 1652.859
500.0240, 1958.148
501.2070, 2355.461
502.3910, 2791.650
503.5740, 3095.219
504.7570, 3764.088
505.9400, 4133.281
507.1220, 4793.217
508.3050, 5143.754
509.4870, 5659.324
510.6690, 6169.930
511.8510, 6742.570
513.0330, 6870.244
514.2140, 6728.951
515.3960, 6232.695
516.5770, 5281.469
517.7580, 4222.281
518.9390, 3584.475
520.1200, 2954.352
521.3010, 2146.588
522.4810, 1785.533
523.6610, 1611.141
524.8420, 1131.293
526.0220, 1044.338
527.2010, 1046.822
528.3810, 744.1738
529.5610, 768.3184
530.7400, 693.7422
531.9190, 497.9570
533.0980, 746.9082
534.2770, 447.5801
535.4560, 521.8906
536.6340, 422.3457
537.8120, 372.6016
538.9910, 282.0098
540.1690, 441.7969
541.3460, 273.2715
542.5240, 291.9707
543.7020, 372.5117
544.8790, 148.0840
546.0560, 141.6914
547.2330, 280.3418
548.4100, 406.7676
549.5870, 313.4824
550.7630, 157.0879
551.9400, 334.8691
553.1160, 245.6777
554.2920, 109.5215
555.4680, 181.9473
556.6440, 130.1406
557.8190, 147.7266
558.9950, 50.95508
560.1700, 9.951172
561.3450, 323.4824
562.5200, 119.0410
563.6950, 351.8750
564.8690, 196.8652
566.0440, 278.8828
567.2180, 285.8301
568.3920, 84.90430
569.5660, 117.9434
570.7400, 155.9688
571.9130, 61.58984
573.0870, 273.3457
574.2600, 52.55859
575.4330, 217.6777
576.6060, 380.7148
577.7790, 187.1934
578.9520, 359.8086
580.1240, 295.1562
581.2960, 104.2324
582.4690, 265.6484
583.6410, 278.0898
584.8120, 151.5625
585.9840, 520.0586
587.1560, 258.5801
588.3270, 183.1309
589.4980, 323.7051
590.6690, 165.3066
591.8400, 352.2500
593.0110, 77.90039
594.1810, 292.5781
595.3510, 47.28320
596.5220, 53.00781
597.6920, 346.7539
598.8610, 21.53125
600.0310, 79.34570
601.2010, 382.1641
602.3700, 90.00586
603.5390, 40.87891
604.7080, 120.7676
605.8770, 220.6797
607.0460, 142.6172
608.2140, 48.57617
609.3830, 88.55664
610.5510, 174.5605
611.7190, 2.412109
612.8870, 70.61914
614.0550, 330.6719
615.2220, 353.7461
616.3900, 195.8418
617.5570, 353.9609
618.7240, 139.1016
619.8910, 369.2656
621.0580, 320.4492
622.2240, 243.6523
623.3910, 315.5645
624.5570, 233.1367
625.7230, 266.4141
626.8890, 202.7148
628.0550, 138.0352
629.2200, 165.3926
630.3860, 117.6523
631.5510, 444.1992
632.7160, 141.6523
633.8810, 300.1250
635.0460, 428.6289
636.2100, 295.1719
637.3750, 43.73438
638.5390, 320.3125
639.7030, 117.9102
640.8670, 236.6152
642.0310, 347.5176
643.1950, 181.1719
644.3580, 201.8438
645.5210, 190.5391
646.6850, 99.25781
647.8480, 379.0273
649.0100, 402.8145
650.1730, 304.6289
651.3350, 201.4590
652.4980, 356.3848
653.6600, 78.24805
654.8220, 244.1270
655.9840, 475.0254
657.1450, 149.9375
658.3070, 178.8672
659.4680, 501.8594
660.6300, 95.86719
661.7910, 315.4062
662.9510, 290.4492
664.1120, 198.5742
665.2730, 464.7266
666.4330, 171.8984
667.5930, 54.15234
668.7530, 90.42578
669.9130, 94.71094
671.0730, 168.0273
672.2320, 183.3633
673.3920, 35.28516
674.5510, 167.1055
675.7100, 4.511719
676.8690, 61.92969
678.0280, 110.3711
679.1860, 47.82812
680.3450, 324.2930
681.5030, 59.77344
682.6610, 163.2617
683.8190, 195.7656
684.9770, 86.31250
686.1340, 405.8086
687.2920, 159.6328
688.4490, 304.0195
689.6060, 48.52734
690.7630, 169.0625
691.9200, 130.6172
693.0760, 94.20703
694.2330, 31.53125
695.3890, 236.0508
696.5450, 418.7852
697.7010, 105.6172
698.8570, 163.0898
700.0130, 80.03906
701.1680, 196.7773
702.3230, 127.7734
703.4780, 136.7227
704.6330, 155.4609
705.7880, 157.0195
706.9430, 143.5938
708.0970, 69.17578
709.2520, 144.7695
710.4060, 90.38281
711.5600, 113.7617
712.7140, 136.5469
713.8670, 77.24609
715.0210, 19.97656
716.1740, 54.70703
717.3270, 46.44922
718.4800, 119.1914
719.6330, 23.94141
720.7860, 135.1680
721.9380, 256.9258
723.0910, 113.6914
724.2430, 145.5156
725.3950, 147.9219
726.5470, 162.0781
727.6980, 115.8672
728.8500, 120.6641
730.0010, 48.25391
731.1530, 300.2656
732.3040, 87.07422
733.4550, 215.1250
734.6050, 321.6992
735.7560, 254.3672
736.9060, 633.5469
738.0560, 78.50000
739.2060, 225.3438
740.3560, 437.7031
741.5060, 322.8555
742.6560, 417.3125
743.8050, 462.8203
744.9540, 422.1797
746.1030, 481.0508
747.2520, 618.6641
748.4010, 527.5391
749.5500, 546.4180
750.6980, 633.4375
751.8460, 492.3047
752.9950, 434.1953
754.1420, 460.0898
755.2900, 494.9844
756.4380, 448.8828
757.5850, 579.8281
758.7330, 377.8164
759.8800, 486.7305
761.0270, 1108.344
762.1730, 907.4688
763.3200, 973.2539
764.4670, 713.4531
765.6130, 395.4375
766.7590, 513.0742
767.9050, 295.8906
769.0510, 481.8008
770.1960, 323.3477
771.3420, 557.3711
772.4870, 260.8320
773.6320, 214.3750
774.7770, 466.2852
775.9220, 284.8164
777.0670, 119.7305
778.2110, 80.64062
779.3560, 59.92188
780.5000, 459.8242
781.6440, 296.7422
782.7880, 459.9297
783.9320, 306.8398
785.0750, 438.4648
786.2180, 201.3945
787.3620, 102.5469
788.5050, 262.7305
789.6480, 86.65234
790.7900, 164.5703
791.9330, 242.4805
793.0750, 286.3867
794.2170, 334.2852
795.3590, 621.1836
796.5010, 506.6094
797.6430, 273.4961
798.7850, 51.37500
799.9260, 440.2461
801.0670, 234.0781
802.2080, 130.3750
803.3490, 520.2305
804.4900, 430.7969
805.6310, 322.0352
806.7710, 549.3398
807.9110, 352.9336
809.0510, 418.7578
810.1910, 792.5742
811.3310, 1013.414
812.4710, 762.2109
813.6100, 925.3828
814.7490, 654.0000
815.8880, 636.7656
817.0270, 790.1836
818.1660, 442.4141
819.3050, 486.9531
820.4430, 414.6797
821.5820, 126.9570
822.7200, 10.21094
823.8580, 418.5938
824.9950, 93.02734
826.1330, 190.8906
827.2710, 185.3906
828.4080, 252.0938
829.5450, 275.1562
830.6820, 13.03516
831.8190, 319.0508
832.9560, 110.5938
834.0920, 157.1602
835.2280, 190.4727
836.3650, 109.0391
837.5010, 57.60547
838.6360, 102.5586
839.7720, 5.089844
840.9080, 81.00781
842.0430, 108.6992
843.1780, 282.2031
844.3130, 264.6641
845.4480, 223.0742
846.5830, 151.5078
847.7170, 154.9297
848.8520, 95.33594
849.9860, 82.98828
851.1200, 206.3555
852.2540, 159.9570
853.3870, 474.1211
854.5210, 169.1641
855.6540, 209.4844
856.7880, 14.90234
857.9210, 370.3633
859.0540, 152.6172
860.1860, 102.8555
861.3190, 167.0781
862.4510, 168.2891
863.5840, 337.4805
864.7160, 388.6602
865.8480, 458.8203
866.9790, 323.6484
868.1110, 216.0625
869.2420, 83.94922
870.3740, 279.5625
871.5050, 220.0234
872.6360, 9.089844
873.7660, 420.1328
874.8970, 191.1797
876.0280, 57.18750
877.1580, 78.17969
878.2880, 126.9492
879.4180, 111.7070
880.5480, 104.1641
881.6770, 169.1602
882.8070, 215.1211
883.9360, 187.3242
885.0650, 195.1953
886.1940, 249.5039
887.3230, 192.1719
888.4520, 273.1758
889.5800, 128.2617
890.7090, 148.1836
891.8370, 141.4531
892.9650, 122.2109
894.0930, 111.5664
895.2200, 129.8281
896.3480, 51.52734
897.4750, 91.53516
898.6020, 42.18750
899.7290, 83.81250
900.8560, 116.4180
901.9830, 53.00391
903.1090, 42.56250
904.2360, 201.0938
905.3620, 28.39062
906.4880, 108.0703
907.6140, 10.89062
908.7400, 44.08984
909.8650, 191.3984
910.9900, 159.8711
912.1160, 224.0000
913.2410, 280.0781
914.3660, 87.15234
915.4900, 265.8398
916.6150, 199.3516
917.7390, 98.56250
918.8640, 200.3203
919.9880, 60.03906
921.1120, 142.7734
922.2350, 33.85547
923.3590, 108.1367
924.4820, 310.5312
925.6060, 304.5469
926.7290, 295.1602
927.8520, 198.6133
928.9740, 165.5703
930.0970, 174.1797
931.2190, 55.57812
932.3420, 205.3594
933.4640, 183.5898
934.5860, 192.2695
935.7080, 158.2812
936.8290, 25.48828
937.9510, 274.2227
939.0720, 42.88281
940.1930, 81.92188
941.3140, 96.96875
942.4350, 12.12109
943.5560, 239.3984
944.6760, 416.8203
945.7960, 122.7812
946.9170, 430.5273
948.0370, 62.81250
949.1560, 184.0781
950.2760, 179.8047
951.3960, 327.1445
952.5150, 100.3398
953.6340, 312.5117
954.7530, 249.6602
955.8720, 42.21094
956.9910, 144.8398
958.1090, 141.9297
959.2280, 11.05859
960.3460, 35.79688
961.4640, 39.22266
962.5820, 4.300781
963.6990, 51.42188
964.8170, 75.39453
965.9340, 360.5195
967.0510, 299.2969
968.1690, 320.9883
969.2850, 141.7227
970.4020, 317.4609
971.5190, 259.1445
972.6350, 455.2617
973.7510, 360.9883
974.8670, 111.3008
975.9830, 138.8242
977.0990, 182.5273
978.2150, 323.2070
979.3300, 412.8633
980.4450, 333.4961
981.5600, 279.1055
982.6750, 324.7188
983.7900, 132.2031
984.9050, 219.6641
986.0190, 195.1016
987.1340, 271.6875
988.2480, 394.2578
989.3620, 374.8320
990.4750, 565.4023
991.5890, 433.4805
992.7020, 478.7656
993.8160, 213.5664
994.9290, 440.0391
996.0420, 331.5508
997.1550, 314.0430
998.2670, 270.5078
999.3800, 206.6445
1000.492, 233.3750
1001.604, 139.7734
1002.716, 74.15625
1003.828, 105.8047
1004.940, 122.0703
1006.051, 214.8867
1007.163, 285.8125
1008.274, 201.0625
1009.385, 315.2930
1010.496, 461.9844
1011.606, 71.86328
1012.717, 289.0156
1013.827, 136.0938
1014.937, 196.1094
1016.047, 200.1953
1017.157, 140.2461
1018.267, 452.2773
1019.377, 114.2891
1020.486, 256.2656
1021.595, 478.2266
1022.704, 152.1641
1023.813, 188.0664
1024.922, 10.94922
1026.030, 241.9375
1027.139, 374.7266
1028.247, 183.4453
1029.355, 560.2109
1030.463, 142.2617
1031.571, 280.7695
1032.678, 442.5977
1033.786, 567.9883
1034.893, 565.9570
1036.000, 502.4766
1037.107, 457.7539
1038.214, 400.7773
1039.321, 233.7031
1040.427, 96.48828
1041.533, 125.6523
1042.639, 29.40234
1043.745, 182.7539
1044.851, 64.57422
1045.957, 81.35938
1047.062, 238.2578
1048.168, 78.49609
1049.273, 35.06641
1050.378, 386.4023
1051.482, 94.41797
1052.587, 107.8828
1053.692, 44.17578
1054.796, 236.3281
1055.900, 20.42969
1057.004, 130.0859
1058.108, 196.8672
1059.212, 292.8555
1060.315, 194.7148
1061.418, 263.3242
1062.522, 227.0000
1063.625, 238.0273
1064.728, 196.4961
1065.830, 120.4219
1066.933, 123.8086
1068.035, 74.71094
1069.137, 181.5742
1070.239, 10.96094
1071.341, 138.1367
1072.443, 141.2656
1073.545, 76.55078
1074.646, 104.1094
1075.747, 9.031250
1076.848, 205.1562
1077.949, 281.8164
1079.050, 405.7344
1080.150, 335.3359
1081.251, 326.6797
1082.351, 78.63281
1083.451, 166.1875
1084.551, 272.7227
1085.651, 215.7500
1086.750, 438.2383
1087.850, 364.9414
1088.949, 522.9336
1090.048, 531.2305
1091.147, 439.3477
1092.246, 217.3828
1093.345, 285.5312
1094.443, 213.6094
1095.541, 255.8516
1096.639, 524.1484
1097.737, 399.0352
1098.835, 385.3164
1099.933, 577.5742
1101.030, 304.9141
1102.128, 230.9570
1103.225, 378.3945
1104.322, 377.5664
1105.419, 568.1562
1106.515, 428.2969
1107.612, 430.8008
1108.708, 629.7773
1109.804, 471.8359
1110.900, 360.6641
1111.996, 522.7070
1113.092, 439.4062
1114.187, 503.3477
1115.283, 565.3281
1116.378, 547.3984
1117.473, 589.8008
1118.568, 634.4297
1119.662, 600.7344
1120.757, 695.9375
1121.851, 659.2227
1122.946, 649.4414
1124.040, 564.5273
1125.134, 556.4570
1126.227, 698.4805
1127.321, 569.0664
1128.414, 739.4805
1129.508, 660.1719
1130.601, 514.8867
1131.693, 595.5273
1132.786, 539.4766
1133.879, 536.7930
1134.971, 873.1406
1136.064, 603.1797
1137.156, 571.3242
1138.248, 438.8242
1139.339, 722.5156
1140.431, 543.9375
1141.522, 759.9062
1142.614, 641.3203
1143.705, 607.4375
1144.796, 655.1211
1145.887, 588.2422
1146.977, 367.6836
1148.068, 556.3516
1149.158, 654.7539
1150.248, 666.8477
1151.338, 336.0977
1152.428, 448.1250
1153.518, 382.5859
1154.607, 309.4336
1155.696, 484.1641
1156.785, 201.6992
1157.874, 372.3086
1158.963, 362.3164
1160.052, 434.6172
1161.141, 328.4648
1162.229, 277.7109
1163.317, 406.0195
1164.405, 434.6836
1165.493, 307.9805
1166.581, 385.5391
1167.668, 97.88672
1168.756, 130.7070
1169.843, 301.7188
1170.930, 147.6523
1172.017, 317.3320
1173.103, 161.8672
1174.190, 72.54297
1175.276, 143.6133
1176.363, 143.5664
1177.449, 118.1719
1178.535, 182.5234
1179.620, 217.0469
1180.706, 193.7422
1181.791, 313.7539
1182.877, 190.8008
1183.962, 136.9141
1185.047, 157.7852
1186.131, 160.3516
1187.216, 75.65625
1188.300, 72.93750
1189.385, 40.62891
1190.469, 53.08984
1191.553, 10.58984
1192.637, 125.7930
1193.720, 225.4648
1194.804, 226.8008
1195.887, 284.4062
1196.970, 122.1758
1198.053, 238.0117
1199.136, 303.1445
1200.219, 321.1641
1201.301, 147.5820
1202.383, 220.8633
1203.465, 195.5391
1204.547, 165.9062
1205.629, 273.6445
1206.711, 127.7578
1207.792, 234.0469
1208.874, 239.8594
1209.955, 291.4688
1211.036, 243.8516
1212.117, 233.7930
1213.198, 315.9570
1214.278, 343.0586
1215.359, 283.9219
1216.439, 338.2812
1217.519, 189.7422
1218.599, 219.7227
1219.678, 325.9688
1220.758, 293.1953
1221.837, 255.2383
1222.917, 442.1641
1223.996, 491.0742
1225.075, 398.0430
1226.153, 313.9336
1227.232, 169.8281
1228.310, 299.8633
1229.389, 390.7109
1230.467, 224.5352
1231.545, 300.3320
1232.622, 9.441406
1233.700, 331.3984
1234.777, 47.01953
1235.855, 270.6367
1236.932, 20.73438
1238.009, 41.14844
1239.086, 411.3789
1240.162, 66.88672
1241.239, 313.4141
1242.315, 86.86328
1243.391, 38.67969
1244.467, 288.8633
1245.543, 257.5469
1246.619, 17.12891
1247.694, 213.8555
1248.769, 150.4688
1249.844, 92.42969
1250.919, 30.42188
1251.994, 17.81641
1253.069, 128.7422
1254.144, 137.3594
1255.218, 7.824219
1256.292, 54.57812
1257.366, 81.30078
1258.440, 305.9922
1259.514, 235.6641
1260.587, 401.3086
1261.661, 4.933594
1262.734, 246.9805
1263.807, 114.5469
1264.880, 367.0938
1265.952, 384.0703
1267.025, 344.5742
1268.097, 9.050781
1269.170, 366.7031
1270.242, 116.1289
1271.314, 265.1094
1272.385, 118.4844
1273.457, 62.83594
1274.528, 204.4492
1275.600, 202.7500
1276.671, 465.1133
1277.742, 70.37109
1278.812, 352.5977
1279.883, 98.80469
1280.954, 230.9883
1282.024, 242.1445
1283.094, 248.2812
1284.164, 87.39844
1285.234, 203.4883
1286.303, 155.4922
1287.373, 262.5391
1288.442, 289.5664
1289.511, 377.5742
1290.580, 99.62891
1291.649, 74.58984
1292.718, 307.6602
1293.786, 220.8633
1294.855, 367.0547
1295.923, 511.9258
1296.991, 236.2852
1298.059, 259.0820
1299.126, 80.89062
1300.194, 140.3008
1301.261, 19.16016
1302.328, 293.5820
1303.395, 141.6172
1304.462, 278.3086
1305.529, 46.39062
1306.596, 90.73047
1307.662, 424.1133
1308.728, 172.6211
1309.794, 36.96484
1310.860, 389.5781
1311.926, 437.9023
1312.991, 673.9766
1314.057, 262.1367
1315.122, 355.2930
1316.187, 12.91797
1317.252, 227.8242
1318.317, 640.3125
1319.381, 383.9570
1320.446, 567.5234
1321.510, 5.410156
1322.574, 394.8945
1323.638, 248.1523
1324.702, 217.4453
1325.766, 359.8516
1326.829, 448.1055
1327.892, 339.3086
1328.956, 500.5000
1330.019, 304.2930
1331.081, 531.3711
1332.144, 607.7852
1333.206, 350.5977
1334.269, 513.6992
1335.331, 143.3203
1336.393, 513.3672
1337.455, 567.4102
1338.516, 256.4297
1339.578, 86.52734
1340.639, 131.3789
1341.701, 317.3125
1342.762, 267.2266
1343.822, 302.1211
1344.883, 252.0000
1345.944, 105.6211
1347.004, 348.3438
1348.064, 214.1641
1349.124, 203.9648
1350.184, 455.7500
1351.244, 526.9609
1352.304, 212.7109
1353.363, 675.4414
1354.422, 400.1602
1355.481, 186.5273
1356.540, 306.2070
1357.599, 440.8711
1358.657, 335.3789
1359.716, 143.9492
1360.774, 172.2734
1361.832, 30.81250
1362.890, 388.9180
1363.948, 266.4219
1365.006, 435.1289
1366.063, 452.7266
1367.120, 272.1875
1368.178, 199.8672
1369.234, 261.2930
1370.291, 202.0000
1371.348, 163.4258
1372.404, 124.7773
1373.461, 294.5664
1374.517, 431.2734
1375.573, 142.6172
1376.629, 315.4844
1377.684, 540.4219
1378.740, 114.2383
1379.795, 394.3203
1380.850, 514.0508
1381.905, 76.11719
1382.960, 354.0625
1384.015, 197.3984
1385.070, 537.8828
1386.124, 437.0469
1387.178, 522.1055
1388.232, 261.2031
1389.286, 56.95703
1390.340, 177.0352
1391.393, 395.5430
1392.447, 55.59375
1393.500, 192.6367
1394.553, 543.6680
1395.606, 112.4844
1396.659, 510.4883
1397.711, 21.94141
1398.764, 198.9258
1399.816, 493.3789
1400.868, 105.4141
1401.920, 249.3320
1402.972, 36.92969
1404.023, 387.9766
1405.075, 1091.531
1406.126, 372.4258
1407.177, 204.6836
1408.228, 198.4883
1409.279, 589.3359
1410.330, 204.2031
1411.380, 207.3945
1412.431, 137.0781
1413.481, 416.5586
1414.531, 359.4180
1415.580, 233.3320
1416.630, 135.1953
1417.680, 203.4492
1418.729, 118.6016
1419.778, 81.47266
1420.827, 79.24609
1421.876, 276.1250
1422.925, 130.0039
1423.973, 62.13281
1425.022, 284.7500
1426.070, 215.9648
1427.118, 126.4453
1428.166, 405.5469
1429.214, 299.5000
1430.261, 24.28516
1431.309, 424.7188
1432.356, 175.2109
1433.403, 439.8164
1434.450, 384.9102
1435.497, 201.6797
1436.543, 227.8477
1437.590, 202.7578
1438.636, 350.6445
1439.682, 271.1328
1440.728, 372.2422
1441.774, 432.8633
1442.819, 334.9258
1443.865, 532.6250
1444.910, 122.6562
1445.955, 374.5781
1447.000, 266.5664
1448.045, 89.52734
1449.090, 155.4492
1450.134, 259.3281
1451.178, 2.222656
1452.223, 318.6133
1453.267, 247.1523
1454.310, 217.8672
1455.354, 558.5625
1456.398, 608.6367
1457.441, 85.91406
1458.484, 433.7109
1459.527, 395.2305
1460.570, 172.6055
1461.613, 480.1602
1462.655, 458.2812
1463.698, 340.4648
1464.740, 113.9922
1465.782, 132.5586
1466.824, 202.0664
1467.866, 374.5703
1468.907, 589.4727
1469.948, 268.0352
1470.990, 264.5078
1472.031, 409.9688
1473.072, 592.8203
1474.112, 324.2578
1475.153, 336.2344
1476.194, 17.21875
1477.234, 489.5586
1478.274, 478.5508
1479.314, 243.8828
1480.354, 218.5625
1481.393, 305.6836
1482.433, 228.6836
1483.472, 226.9922
1484.511, 169.6094
1485.550, 336.4531
1486.589, 476.3008
1487.628, 517.1484
1488.666, 304.8867
1489.704, 251.7461
1490.743, 67.47656
1491.781, 224.1016
1492.819, 275.9297
1493.856, 241.6250
1494.894, 287.3320
1495.931, 517.9102
1496.968, 445.6680
1498.005, 0.1796880
1499.042, 515.5664
1500.079, 207.2734
1501.115, 483.0312
1502.152, 275.8047
1503.188, 329.6055
1504.224, 272.4297
1505.260, 377.1016
1506.296, 433.4688
1507.331, 670.2734
1508.367, 215.7031
1509.402, 394.6445
1510.437, 215.5977
1511.472, 312.0195
1512.507, 319.7969
1513.541, 355.5859
1514.576, 317.3008
1515.610, 244.1367
1516.644, 271.9883
1517.678, 126.8516
1518.712, 472.7344
1519.746, 357.6172
1520.779, 565.2305
1521.813, 238.0781
1522.846, 451.9375
1523.879, 383.9297
1524.912, 490.1406
1525.944, 333.3633
1526.977, 254.6055
1528.009, 340.2109
1529.041, 15.50000
1530.073, 486.0156
1531.105, 205.8672
1532.137, 418.5039
1533.168, 421.1914
1534.200, 211.9297
1535.231, 445.7305
1536.262, 243.6328
1537.293, 377.6172
1538.324, 559.1250
1539.354, 114.7617
1540.385, 383.5430
1541.415, 356.4805
1542.445, 718.6250
1543.475, 242.0078
1544.505, 542.6172
1545.534, 447.4648
1546.564, 378.7148
1547.593, 246.0469
1548.622, 226.1133
1549.651, 186.1562
1550.680, 215.3906
1551.708, 112.7695
1552.737, 202.2031
1553.765, 55.19922
1554.793, 219.8320
1555.821, 494.5781
1556.849, 15.69922
1557.877, 519.2461
1558.904, 573.7812
1559.932, 258.9922
1560.959, 30.51953
1561.986, 34.59375
1563.013, 0.0000000E+00
##END=



