##NAMES=Microcline
##RRUFFID=R040154
##IDEAL CHEMISTRY=KAlSi_3_O_8_
##LOCALITY=Mitchell County, North Carolina, USA
##OWNER=RRUFF
##SOURCE=University of Arizona Mineral Museum
##DESCRIPTION=White cleavage fragment with some perthitic character
##STATUS=The identification of this mineral has been confirmed by X-ray diffraction and chemical analysis
##URL=rruff.info/R040154
##MEASURED CHEMISTRY=(K_0.90_Na_0.09_Ba_0.01_)Al_1.00_(Si_2.99_Al_0.01_)_Î£=3_O_8_
##PIN_ID=L00336
##ORIENTATION=Laser parallel to (-1 0 -1). Fiducial mark perpendicular to laser is parallel to a [1 0 0]
94.768, 0.000
96.161, 6.729
97.554, 3.276
98.947, 94.479
100.340, 478.022
101.732, 1016.965
103.124, 1786.568
104.516, 2607.255
105.908, 3904.573
107.300, 5007.621
108.691, 5449.926
110.082, 4211.402
111.473, 2672.394
112.864, 1549.571
114.254, 1095.399
115.644, 707.253
117.034, 763.623
118.424, 806.114
119.813, 1296.406
121.203, 1572.248
122.592, 2465.447
123.981, 3271.956
125.369, 4065.744
126.758, 5019.460
128.146, 5433.961
129.534, 5370.953
130.922, 4499.215
132.309, 3598.094
133.696, 2648.210
135.083, 2246.529
136.470, 1563.028
137.857, 1371.674
139.243, 1252.445
140.630, 1311.332
142.016, 1384.326
143.401, 1603.423
144.787, 1972.619
146.172, 2488.916
147.557, 3232.307
148.942, 3795.869
150.327, 4035.828
151.711, 3799.887
153.096, 3288.788
154.480, 2558.314
155.863, 2052.669
157.247, 1703.115
158.630, 1318.012
160.013, 1116.232
161.396, 760.365
162.779, 711.979
164.161, 587.253
165.544, 596.236
166.926, 453.771
168.308, 515.254
169.689, 481.217
171.070, 734.171
172.452, 826.080
173.833, 933.943
175.213, 1170.764
176.594, 1321.547
177.974, 1779.258
179.354, 1787.812
180.734, 1637.284
182.114, 1260.727
183.493, 1087.158
184.872, 895.596
186.251, 695.051
187.630, 459.535
189.008, 490.054
190.387, 495.612
191.765, 566.213
193.143, 798.859
194.520, 800.555
195.898, 1291.296
197.275, 1532.082
198.652, 1949.913
200.029, 1935.787
201.405, 1662.703
202.782, 1144.944
204.158, 939.605
205.534, 800.519
206.909, 376.585
208.285, 430.738
209.660, 404.948
211.035, 215.195
212.410, 143.456
213.784, 1.599
215.159, 55.172
216.533, 39.874
217.907, 77.821
219.281, 5.657
220.654, 149.135
222.027, 9.246
223.400, 17.630
224.773, 17.980
226.146, 83.298
227.518, 64.586
228.891, 136.845
230.263, 121.075
231.634, 37.281
233.006, 135.460
234.377, 57.619
235.748, 48.761
237.119, 55.888
238.490, 45.001
239.860, 65.653
241.231, 47.401
242.601, 98.392
243.970, 118.180
245.340, 233.706
246.709, 285.182
248.079, 568.614
249.448, 671.034
250.816, 1080.445
252.185, 1378.875
253.553, 2028.319
254.921, 2649.778
256.289, 3356.254
257.657, 3763.742
259.024, 3414.248
260.391, 3603.946
261.758, 3501.946
263.125, 3889.341
264.492, 4227.467
265.858, 4407.148
267.224, 4381.580
268.590, 3706.455
269.956, 3386.293
271.321, 2625.405
272.687, 2327.755
274.052, 2039.311
275.416, 2102.048
276.781, 2319.945
278.146, 2776.985
279.510, 3578.150
280.874, 4510.425
282.237, 5779.793
283.601, 6655.279
284.964, 7415.840
286.327, 7643.470
287.690, 6649.166
289.053, 5541.949
290.416, 4701.781
291.778, 3572.660
293.140, 3038.567
294.502, 2490.498
295.863, 2173.439
297.225, 1856.394
298.586, 1543.355
299.947, 1363.324
301.308, 929.301
302.668, 659.285
304.029, 601.273
305.389, 497.268
306.749, 283.266
308.108, 168.268
309.468, 39.727
310.827, 26.265
312.186, 11.256
313.545, 74.756
314.903, 27.794
316.262, 175.854
317.620, 31.973
318.978, 85.123
320.336, 137.314
321.693, 95.601
323.051, 19.989
324.408, 174.457
325.765, 13.034
327.121, 51.755
328.478, 3.585
329.834, 73.523
331.190, 176.604
332.546, 18.650
333.902, 175.686
335.257, 27.714
336.612, 11.731
337.967, 36.266
339.322, 189.287
340.677, 32.624
342.031, 75.474
343.385, 21.394
344.739, 21.249
346.093, 37.906
347.446, 117.912
348.799, 230.728
350.153, 275.537
351.505, 571.344
352.858, 611.146
354.210, 1089.943
355.563, 1240.738
356.915, 1153.531
358.267, 1120.318
359.618, 824.102
360.969, 717.879
362.321, 476.650
363.672, 416.416
365.022, 394.174
366.373, 392.899
367.723, 687.608
369.073, 898.260
370.423, 1115.825
371.773, 1282.314
373.122, 1317.747
374.471, 1272.107
375.821, 879.431
377.169, 773.809
378.518, 578.009
379.866, 302.699
381.215, 245.395
382.563, 81.541
383.910, 22.447
385.258, 22.529
386.605, 264.259
387.952, 71.025
389.299, 144.979
390.646, 1.832
391.992, 138.140
393.339, 196.218
394.685, 454.176
396.031, 1004.490
397.376, 1435.444
398.722, 1967.028
400.067, 2837.162
401.412, 3800.350
402.757, 3717.083
404.101, 4326.152
405.446, 3363.265
406.790, 2527.359
408.134, 1761.457
409.478, 1660.555
410.821, 1442.654
412.165, 1150.755
413.508, 1204.857
414.851, 959.961
416.193, 567.063
417.536, 427.169
418.878, 366.273
420.220, 195.378
421.562, 183.543
422.904, 197.606
424.245, 178.746
425.586, 161.897
426.927, 235.055
428.268, 71.217
429.609, 67.377
430.949, 170.531
432.289, 322.686
433.629, 141.834
434.969, 362.051
436.309, 326.193
437.648, 463.326
438.987, 476.076
440.326, 388.213
441.665, 692.395
443.003, 1030.520
444.342, 1054.943
445.680, 1641.025
447.018, 2188.098
448.355, 2655.885
449.693, 3500.480
451.030, 4358.516
452.367, 5723.305
453.704, 5804.312
455.041, 6142.826
456.377, 5572.809
457.713, 4955.777
459.049, 4449.730
460.385, 4280.670
461.721, 4536.598
463.056, 4824.512
464.391, 5616.410
465.726, 6964.293
467.061, 8699.164
468.395, 11184.018
469.730, 14912.859
471.064, 18974.219
472.398, 24811.754
473.731, 28672.695
475.065, 31397.848
476.398, 30148.549
477.731, 26204.588
479.064, 21209.902
480.397, 17168.082
481.729, 14154.109
483.062, 11954.500
484.394, 10299.246
485.725, 8522.828
487.057, 6881.785
488.389, 5367.463
489.720, 4230.830
491.051, 3840.510
492.382, 3351.180
493.712, 3254.527
495.043, 3023.182
496.373, 3296.801
497.703, 3539.713
499.032, 4284.863
500.362, 5016.746
501.691, 6254.369
503.020, 7688.064
504.349, 10006.199
505.678, 13588.287
507.007, 18141.047
508.335, 24040.633
509.663, 31124.207
510.991, 38988.777
512.319, 44429.336
513.646, 45776.895
514.973, 40717.996
516.300, 33886.867
517.627, 25975.840
518.954, 19260.502
520.280, 14932.016
521.607, 11255.535
522.933, 8924.047
524.259, 6832.592
525.584, 5708.129
526.910, 4813.656
528.235, 3990.896
529.560, 3340.564
530.885, 2783.977
532.209, 2406.480
533.534, 2245.303
534.858, 2023.012
536.182, 1645.648
537.506, 1615.135
538.829, 1373.346
540.152, 1227.834
541.476, 1335.496
542.799, 846.607
544.121, 1056.102
545.444, 966.611
546.766, 682.107
548.088, 819.203
549.410, 642.721
550.732, 711.396
552.053, 537.990
553.375, 570.613
554.696, 488.232
556.017, 553.867
557.337, 459.504
558.658, 394.145
559.978, 370.854
561.298, 402.510
562.618, 294.170
563.938, 271.818
565.257, 324.457
566.576, 263.086
567.895, 289.064
569.214, 538.785
570.533, 222.387
571.851, 218.330
573.170, 390.912
574.488, 163.480
575.805, 342.207
577.123, 336.752
578.440, 461.287
579.758, 618.811
581.075, 565.324
582.391, 727.828
583.708, 758.326
585.024, 499.812
586.341, 575.285
587.657, 612.455
588.972, 409.545
590.288, 223.982
591.603, 113.408
592.918, 69.816
594.233, 95.213
595.548, 113.596
596.863, 34.965
598.177, 17.316
599.491, 74.643
600.805, 85.957
602.119, 91.744
603.432, 132.486
604.746, 223.703
606.059, 30.904
607.372, 94.912
608.685, 266.193
609.997, 29.287
611.309, 130.361
612.621, 42.422
613.933, 181.463
615.245, 109.494
616.557, 184.514
617.868, 224.521
619.179, 130.564
620.490, 110.545
621.801, 427.510
623.111, 116.461
624.421, 483.398
625.731, 230.322
627.041, 627.502
628.351, 419.721
629.660, 390.143
630.970, 764.027
632.279, 547.098
633.588, 633.988
634.896, 483.053
636.205, 569.465
637.513, 608.113
638.821, 820.279
640.129, 968.406
641.437, 1207.598
642.744, 1361.801
644.051, 1553.900
645.358, 1669.066
646.665, 1891.355
647.972, 1987.043
649.278, 2088.059
650.584, 2238.172
651.890, 2159.344
653.196, 2244.617
654.502, 1981.941
655.807, 1664.166
657.113, 1523.172
658.418, 1542.455
659.722, 1095.592
661.027, 818.949
662.331, 479.062
663.636, 595.650
664.940, 247.715
666.244, 483.236
667.547, 221.977
668.851, 158.934
670.154, 143.162
671.457, 52.541
672.760, 69.916
674.062, 61.848
675.365, 110.713
676.667, 192.557
677.969, 266.688
679.271, 252.402
680.572, 261.799
681.874, 169.707
683.175, 175.471
684.476, 14.285
685.777, 27.078
687.077, 86.420
688.378, 172.152
689.678, 61.291
690.978, 4.188
692.278, 424.865
693.577, 223.885
694.877, 143.318
696.176, 182.723
697.475, 55.172
698.774, 161.539
700.072, 82.715
701.371, 191.646
702.669, 283.760
703.967, 267.711
705.265, 393.631
706.562, 281.902
707.860, 175.799
709.157, 567.094
710.454, 237.947
711.751, 725.785
713.047, 549.600
714.344, 561.166
715.640, 181.939
716.936, 381.178
718.232, 504.910
719.527, 220.844
720.823, 381.533
722.118, 237.201
723.413, 120.438
724.708, 180.061
726.002, 354.664
727.297, 121.410
728.591, 325.121
729.885, 364.656
731.179, 165.170
732.472, 280.664
733.766, 429.348
735.059, 548.801
736.352, 741.578
737.645, 703.164
738.937, 1029.396
740.230, 1197.857
741.522, 1407.207
742.814, 1767.531
744.106, 2295.838
745.397, 2865.125
746.689, 3530.393
747.980, 4409.641
749.271, 4508.797
750.562, 4150.004
751.853, 3621.273
753.143, 3097.820
754.433, 2511.945
755.723, 1795.004
757.013, 1744.080
758.303, 1122.762
759.592, 1208.826
760.881, 1049.871
762.170, 1060.168
763.459, 978.625
764.748, 869.969
766.036, 1004.906
767.325, 674.855
768.613, 759.268
769.901, 690.428
771.188, 522.320
772.476, 638.193
773.763, 176.047
775.050, 535.881
776.337, 246.697
777.624, 302.494
778.910, 271.275
780.196, 382.037
781.482, 121.779
782.768, 29.504
784.054, 66.197
785.339, 286.865
786.625, 31.516
787.910, 436.137
789.195, 141.740
790.479, 134.324
791.764, 238.887
793.048, 129.432
794.332, 144.955
795.616, 133.459
796.900, 226.945
798.183, 4.410
799.467, 146.836
800.750, 117.240
802.033, 2.377
803.316, 176.965
804.598, 149.486
805.880, 60.586
807.163, 270.865
808.445, 89.125
809.726, 111.363
811.008, 164.582
812.289, 107.781
813.570, 139.818
814.851, 89.850
816.132, 146.256
817.413, 10.375
818.693, 20.488
819.973, 42.512
821.253, 26.545
822.533, 239.551
823.813, 98.537
825.092, 58.504
826.371, 271.898
827.650, 41.494
828.929, 176.965
830.208, 213.717
831.486, 6.414
832.764, 166.416
834.042, 139.770
835.320, 155.936
836.598, 217.625
837.875, 11.295
839.152, 13.221
840.429, 281.680
841.706, 185.389
842.983, 176.225
844.259, 326.217
845.536, 15.547
846.812, 53.074
848.088, 70.586
849.363, 114.133
850.639, 75.555
851.914, 9.207
853.189, 40.863
854.464, 101.051
855.739, 349.398
857.013, 91.266
858.288, 86.010
859.562, 94.721
860.836, 95.488
862.110, 208.350
863.383, 143.732
864.656, 94.805
865.930, 145.861
867.203, 37.088
868.475, 183.936
869.748, 118.119
871.020, 100.826
872.292, 16.764
873.564, 87.693
874.836, 94.621
876.108, 36.457
877.379, 230.090
878.650, 84.875
879.922, 22.762
881.192, 24.287
882.463, 149.158
883.733, 152.025
885.004, 64.719
886.274, 5.574
887.544, 89.422
888.813, 5.016
890.083, 10.098
891.352, 48.072
892.621, 27.734
893.890, 80.539
895.159, 104.338
896.427, 103.865
897.695, 90.555
898.964, 63.734
900.232, 50.531
901.499, 55.328
902.767, 110.123
904.034, 18.918
905.301, 171.709
906.568, 268.500
907.835, 113.291
909.102, 64.080
910.368, 57.139
911.634, 291.654
912.900, 187.445
914.166, 271.234
915.432, 125.025
916.697, 38.154
917.962, 382.652
919.227, 60.465
920.492, 235.275
921.757, 43.910
923.021, 255.893
924.285, 245.697
925.550, 134.502
926.813, 57.268
928.077, 24.084
929.341, 148.896
930.604, 133.709
931.867, 62.520
933.130, 65.330
934.393, 401.869
935.655, 49.352
936.918, 428.641
938.180, 95.447
939.442, 58.066
940.703, 253.875
941.965, 207.506
943.226, 281.020
944.488, 249.916
945.749, 410.498
947.009, 284.150
948.270, 414.818
949.530, 273.561
950.791, 278.057
952.051, 240.723
953.311, 47.266
954.570, 212.406
955.830, 337.211
957.089, 122.902
958.348, 193.227
959.607, 282.041
960.866, 146.496
962.124, 162.088
963.383, 271.906
964.641, 160.488
965.899, 327.211
967.156, 181.729
968.414, 172.488
969.671, 427.766
970.928, 208.578
972.185, 401.924
973.442, 324.035
974.699, 385.922
975.955, 414.521
977.211, 192.961
978.468, 494.861
979.723, 500.248
980.979, 266.162
982.234, 789.082
983.490, 97.752
984.745, 597.725
986.000, 667.098
987.254, 567.061
988.509, 1071.047
989.763, 1011.973
991.017, 1410.059
992.271, 1464.090
993.525, 1903.164
994.779, 2131.242
996.032, 1972.355
997.285, 1827.984
998.538, 1271.670
999.791, 1584.303
1001.044, 975.672
1002.296, 1127.969
1003.548, 744.646
1004.800, 740.850
1006.052, 708.297
1007.304, 655.760
1008.555, 625.988
1009.807, 463.459
1011.058, 544.566
1012.309, 565.057
1013.559, 562.139
1014.810, 287.650
1016.060, 541.172
1017.310, 554.693
1018.560, 375.469
1019.810, 582.035
1021.060, 639.221
1022.309, 350.965
1023.558, 755.221
1024.807, 554.670
1026.056, 807.186
1027.305, 919.438
1028.553, 1153.283
1029.801, 903.740
1031.049, 911.488
1032.297, 1025.865
1033.545, 1213.547
1034.793, 762.480
1036.040, 1060.795
1037.287, 1155.059
1038.534, 1076.270
1039.781, 1373.963
1041.027, 1149.717
1042.274, 1221.848
1043.520, 1113.293
1044.766, 1151.562
1046.012, 1112.037
1047.257, 1221.395
1048.503, 1509.510
1049.748, 1457.369
1050.993, 1711.600
1052.238, 1848.383
1053.483, 1415.191
1054.727, 1474.793
1055.971, 1503.229
1057.216, 1142.654
1058.459, 922.812
1059.703, 965.969
1060.947, 821.191
1062.190, 621.723
1063.433, 511.213
1064.676, 462.945
1065.919, 332.383
1067.162, 620.971
1068.404, 180.709
1069.646, 322.646
1070.888, 687.701
1072.130, 175.523
1073.372, 368.916
1074.613, 306.020
1075.855, 308.213
1077.096, 386.186
1078.337, 338.545
1079.578, 453.457
1080.818, 406.355
1082.059, 433.695
1083.299, 629.773
1084.539, 350.580
1085.779, 353.727
1087.018, 425.861
1088.258, 569.736
1089.497, 667.582
1090.736, 391.799
1091.975, 550.584
1093.213, 539.672
1094.452, 590.301
1095.690, 667.453
1096.928, 855.709
1098.166, 1101.078
1099.404, 1300.148
1100.642, 766.646
1101.879, 1200.227
1103.116, 1152.777
1104.353, 1104.801
1105.590, 1292.521
1106.827, 1457.244
1108.063, 1261.268
1109.299, 1688.062
1110.536, 1725.859
1111.771, 1952.242
1113.007, 2509.105
1114.243, 2745.395
1115.478, 3267.719
1116.713, 3887.930
1117.948, 4828.898
1119.183, 5530.031
1120.418, 6940.934
1121.652, 8211.133
1122.886, 9143.824
1124.120, 9715.742
1125.354, 9460.328
1126.588, 9095.348
1127.821, 7886.352
1129.055, 7027.125
1130.288, 6448.164
1131.521, 5619.367
1132.753, 5049.914
1133.986, 4829.434
1135.218, 5198.680
1136.450, 4658.406
1137.682, 5275.254
1138.914, 4781.473
1140.146, 4666.289
1141.377, 4230.375
1142.609, 3688.953
1143.840, 3357.457
1145.071, 2913.746
1146.301, 2361.262
1147.532, 2014.652
1148.762, 1563.242
1149.992, 1196.578
1151.222, 1064.789
1152.452, 1035.805
1153.682, 648.012
1154.911, 752.633
1156.140, 503.297
1157.369, 509.629
1158.598, 552.305
1159.827, 557.371
1161.055, 366.445
1162.284, 249.891
1163.512, 360.738
1164.740, 437.395
1165.967, 408.848
1167.195, 463.840
1168.422, 333.547
1169.650, 353.926
1170.877, 47.445
1172.103, 32.578
1173.330, 53.785
1174.557, 405.566
1175.783, 375.695
1177.009, 102.492
1178.235, 272.387
1179.461, 94.992
1180.686, 62.125
1181.912, 412.422
1183.137, 191.539
1184.362, 164.500
1185.587, 230.820
1186.811, 273.879
1188.036, 82.910
1189.260, 76.605
1190.484, 188.539
1191.708, 257.777
1192.932, 212.512
1194.155, 22.715
1195.378, 75.961
1196.602, 138.418
1197.825, 56.340
1199.047, 166.379
1200.270, 162.320
1201.492, 194.137
1202.715, 255.598
1203.937, 260.273
1205.159, 343.043
1206.380, 333.484
1207.602, 359.520
1208.823, 243.762
1210.044, 255.090
1211.265, 202.922
1212.486, 275.180
1213.707, 216.211
1214.927, 205.691
1216.147, 159.109
1217.367, 133.828
1218.587, 130.617
1219.807, 55.660
1221.027, 125.824
1222.246, 22.902
1223.465, 241.996
1224.684, 295.031
1225.903, 343.895
1227.121, 179.648
1228.340, 314.586
1229.558, 461.211
1230.776, 204.785
1231.994, 124.309
1233.212, 367.781
1234.429, 191.348
1235.646, 200.000
1236.864, 350.242
1238.081, 216.094
1239.297, 382.223
1240.514, 391.301
1241.730, 228.312
1242.947, 342.703
1244.163, 315.590
1245.378, 386.352
1246.594, 286.008
1247.810, 266.426
1249.025, 273.039
1250.240, 161.824
1251.455, 234.113
1252.670, 233.406
1253.885, 159.848
1255.099, 213.664
1256.313, 109.430
1257.527, 309.234
1258.741, 538.008
1259.955, 94.254
1261.168, 316.277
1262.382, 340.176
1263.595, 157.199
1264.808, 116.258
1266.021, 169.789
1267.233, 101.914
1268.446, 214.211
1269.658, 156.066
1270.870, 230.980
1272.082, 123.992
1273.294, 122.910
1274.505, 174.000
1275.716, 111.719
1276.928, 129.859
1278.139, 215.641
1279.349, 49.324
1280.560, 288.621
1281.770, 168.824
1282.981, 132.926
1284.191, 81.930
1285.401, 132.836
1286.610, 92.645
1287.820, 177.344
1289.029, 186.426
1290.239, 60.430
1291.448, 172.809
1292.656, 45.082
1293.865, 137.754
1295.073, 202.254
1296.282, 68.867
1297.490, 263.875
1298.698, 212.512
1299.906, 3.039
1301.113, 325.453
1302.320, 161.770
1303.528, 102.961
1304.735, 11.051
1305.942, 50.043
1307.148, 25.199
1308.355, 73.977
1309.561, 288.648
1310.767, 35.758
1311.973, 1.281
1313.179, 321.902
1314.384, 221.402
1315.590, 160.676
1316.795, 6.543
1318.000, 1.285
1319.205, 177.746
1320.410, 112.387
1321.614, 154.043
1322.819, 24.988
1324.023, 43.363
1325.227, 277.074
1326.431, 62.586
1327.634, 243.191
1328.838, 34.375
1330.041, 182.465
1331.244, 234.344
1332.447, 117.598
1333.650, 100.957
1334.852, 5.848
1336.055, 35.852
1337.257, 83.547
1338.459, 52.297
1339.661, 245.637
1340.862, 290.840
1342.064, 9.449
1343.265, 147.438
1344.466, 397.891
1345.667, 142.535
1346.868, 553.348
1348.068, 281.887
1349.269, 58.039
1350.469, 625.453
1351.669, 368.215
1352.869, 490.789
1354.069, 577.840
1355.268, 12.676
1356.468, 607.176
1357.667, 592.793
1358.866, 410.367
1360.065, 679.746
1361.263, 150.215
1362.462, 333.645
1363.660, 736.125
1364.858, 391.543
1366.056, 547.129
1367.254, 569.809
1368.451, 470.301
1369.649, 241.289
1370.846, 499.215
1372.043, 445.176
1373.240, 721.504
1374.436, 799.508
1375.633, 567.477
1376.829, 567.738
1378.025, 481.051
1379.221, 449.398
1380.417, 970.426
1381.613, 350.207
1382.808, 728.039
1384.003, 838.934
1385.199, 598.055
1386.393, 408.648
1387.588, 800.773
1388.783, 629.172
1389.977, 796.137
1391.171, 462.484
1392.365, 459.953
1393.559, 607.684
1394.753, 270.422
1395.946, 664.117
1397.140, 420.645
1398.333, 513.062
1399.526, 340.016
1400.719, 363.562
1401.911, 275.922
1403.104, 705.086
1404.296, 172.398
1405.488, 567.387
1406.680, 55.840
1407.872, 225.586
1409.063, 653.996
1410.255, 128.773
1411.446, 438.410
1412.637, 190.477
1413.828, 287.859
1415.018, 347.836
1416.209, 454.242
1417.399, 226.125
1418.589, 732.730
1419.779, 89.824
1420.969, 395.617
1422.159, 202.223
1423.348, 356.645
1424.537, 369.785
1425.726, 483.270
1426.915, 280.824
1428.104, 443.688
1429.293, 248.070
1430.481, 296.711
1431.669, 439.508
1432.857, 531.676
1434.045, 362.996
1435.233, 476.324
1436.420, 524.227
1437.608, 325.562
1438.795, 322.793
1439.982, 424.887
1441.169, 470.715
1442.355, 260.848
1443.542, 729.711
1444.728, 174.203
1445.914, 499.480
1447.100, 363.949
1448.286, 484.086
1449.472, 108.141
1450.657, 714.688
1451.842, 526.324
1453.027, 363.340
1454.212, 876.441
1455.397, 238.582
1456.581, 608.941
1457.766, 476.602
1458.950, 338.656
1460.134, 594.316
1461.318, 271.711
1462.501, 361.801
1463.685, 676.777
1464.868, 144.711
1466.051, 840.059
1467.234, 384.922
1468.417, 409.973
1469.600, 452.500
1470.782, 498.828
1471.965, 179.277
1473.147, 625.824
1474.329, 649.973
1475.510, 202.207
1476.692, 313.711
1477.873, 490.973
1479.055, 4.070
1480.236, 0.000
##END=



