##NAMES=Microcline
##RRUFFID=R050054
##IDEAL CHEMISTRY=KAlSi_3_O_8_
##LOCALITY=Kenticha, Negele area, Sidamo Province, Ethiopia
##OWNER=RRUFF
##SOURCE=Rock Currier
##DESCRIPTION=Light blue single crystal
##STATUS=The identification of this mineral has been confirmed by X-ray diffraction and chemical analysis
##URL=rruff.info/R050054
##MEASURED CHEMISTRY=(K_0.96_Na_0.04_)Al_1.00_Si_3.00_O_8_
##PIN_ID=L00301
##ORIENTATION=Laser parallel to -c* (0 0 -1). Fiducial mark perpendicular to laser is parallel to a [1 0 0]
49.365, 0.000
50.765, 4.498
52.166, 47.408
53.566, 178.321
54.966, 252.676
56.365, 385.472
57.765, 467.257
59.164, 527.472
60.563, 646.569
61.962, 695.484
63.360, 790.094
64.758, 765.017
66.157, 674.052
67.554, 650.737
68.952, 622.183
70.349, 543.710
71.747, 549.101
73.144, 396.491
74.540, 405.775
75.937, 269.790
77.333, 218.485
78.729, 173.424
80.125, 70.531
81.521, 4.214
82.916, 18.832
84.311, 0.671
85.706, 15.720
87.101, 27.015
88.496, 26.219
89.890, 17.333
91.284, 13.359
92.678, 5.265
94.071, 38.122
95.465, 69.896
96.858, 76.017
98.251, 128.347
99.644, 200.728
101.036, 252.131
102.428, 240.535
103.820, 387.927
105.212, 570.305
106.604, 885.670
107.995, 1145.022
109.387, 1386.362
110.777, 1566.688
112.168, 1674.000
113.559, 1820.299
114.949, 1740.584
116.339, 1681.893
117.729, 1612.255
119.119, 1596.624
120.508, 1644.971
121.897, 1915.296
123.286, 2345.610
124.675, 2772.969
126.063, 2812.374
127.452, 2828.803
128.840, 2799.299
130.228, 2443.860
131.615, 2243.389
133.003, 2049.983
134.390, 1937.963
135.777, 2047.183
137.164, 2273.657
138.550, 2547.154
139.937, 2811.325
141.323, 3084.991
142.709, 3358.896
144.094, 3718.836
145.480, 4016.934
146.865, 4474.952
148.250, 4973.396
149.635, 5386.651
151.019, 5893.715
152.403, 6128.576
153.788, 6569.254
155.171, 6843.792
156.555, 7046.239
157.939, 6868.626
159.322, 6509.011
160.705, 5964.380
162.088, 5307.745
163.470, 4698.102
164.853, 4071.443
166.235, 3764.769
167.617, 3416.078
168.998, 3363.373
170.380, 3320.651
171.761, 3311.914
173.142, 3568.163
174.523, 3775.396
175.904, 4311.615
177.284, 4487.819
178.664, 4838.005
180.044, 5017.191
181.424, 5143.365
182.803, 5120.194
184.183, 4863.986
185.562, 4718.846
186.940, 4379.403
188.319, 3838.399
189.698, 3532.380
191.076, 3017.344
192.454, 2949.292
193.831, 2838.224
195.209, 2906.143
196.586, 2958.236
197.963, 2939.096
199.340, 3079.080
200.717, 2881.833
202.093, 2689.448
203.470, 2673.519
204.846, 2702.720
206.221, 2751.479
207.597, 2868.304
208.972, 2863.182
210.347, 2703.802
211.722, 2337.342
213.097, 1830.861
214.472, 1403.677
215.846, 1018.055
217.220, 770.593
218.594, 503.274
219.967, 448.915
221.341, 285.323
222.714, 256.252
224.087, 188.837
225.460, 192.405
226.832, 166.316
228.204, 170.471
229.577, 116.619
230.948, 82.805
232.320, 139.156
233.692, 114.640
235.063, 165.583
236.434, 120.761
237.805, 163.614
239.175, 182.640
240.545, 241.616
241.916, 332.936
243.286, 394.863
244.655, 563.464
246.025, 699.957
247.394, 1017.440
248.763, 1306.145
250.132, 1647.207
251.501, 2025.369
252.869, 2401.946
254.237, 2670.692
255.605, 2866.111
256.973, 3074.890
258.340, 3040.284
259.708, 3090.909
261.075, 3290.069
262.442, 3519.587
263.808, 3905.978
265.175, 4068.110
266.541, 4239.251
267.907, 4092.586
269.273, 3749.524
270.639, 3278.018
272.004, 2941.344
273.369, 2631.529
274.734, 2410.691
276.099, 2463.719
277.463, 2769.514
278.828, 3237.302
280.192, 4025.080
281.556, 4927.850
282.919, 5912.612
284.283, 6832.364
285.646, 7401.108
287.009, 7852.845
288.372, 7874.571
289.734, 7546.288
291.097, 6823.996
292.459, 5889.694
293.821, 4842.382
295.183, 3747.060
296.544, 2923.727
297.905, 2138.384
299.266, 1608.027
300.627, 1244.653
301.988, 910.251
303.348, 666.818
304.709, 552.349
306.069, 463.843
307.428, 358.304
308.788, 284.731
310.147, 219.131
311.507, 156.512
312.865, 153.876
314.224, 100.222
315.583, 112.552
316.941, 97.865
318.299, 80.164
319.657, 119.446
321.015, 168.715
322.372, 336.971
323.729, 539.215
325.086, 896.448
326.443, 1236.670
327.800, 1616.880
329.156, 1708.080
330.512, 1642.267
331.868, 1446.444
333.224, 1139.609
334.579, 857.762
335.935, 615.905
337.290, 394.036
338.645, 259.156
339.999, 179.265
341.354, 82.362
342.708, 55.443
344.062, 28.510
345.416, 1.796
346.769, 46.583
348.123, 30.585
349.476, 44.566
350.829, 63.144
352.182, 26.479
353.534, 77.414
354.887, 118.335
356.239, 99.244
357.591, 54.141
358.942, 5.024
360.294, 7.889
361.645, 12.269
362.996, 47.451
364.347, 11.665
365.698, 64.097
367.048, 71.858
368.398, 151.621
369.748, 232.375
371.098, 281.109
372.448, 266.832
373.797, 244.558
375.146, 103.286
376.495, 43.011
377.844, 11.737
379.192, 80.574
380.540, 89.961
381.889, 81.438
383.236, 118.004
384.584, 87.115
385.932, 90.448
387.279, 99.169
388.626, 81.986
389.973, 63.006
391.319, 6.924
392.666, 107.599
394.012, 140.041
395.358, 251.774
396.704, 458.394
398.049, 642.218
399.394, 757.852
400.740, 880.466
402.084, 967.552
403.429, 1023.691
404.774, 1058.216
406.118, 1080.998
407.462, 1019.778
408.806, 985.561
410.150, 970.356
411.493, 946.166
412.836, 943.984
414.179, 958.815
415.522, 943.663
416.865, 842.524
418.207, 649.398
419.549, 476.281
420.891, 260.172
422.233, 176.066
423.575, 116.958
424.916, 33.848
426.257, 5.729
427.598, 36.402
428.939, 5.437
430.279, 9.263
431.619, 28.073
432.959, 64.866
434.299, 95.644
435.639, 98.406
436.978, 127.154
438.318, 197.022
439.657, 227.779
440.996, 308.637
442.334, 418.345
443.673, 650.288
445.011, 807.986
446.349, 1210.957
447.687, 1657.686
449.024, 2395.341
450.361, 3249.039
451.699, 3953.667
453.036, 4555.350
454.372, 4686.186
455.709, 4486.768
457.045, 4027.426
458.381, 3372.070
459.717, 2835.616
461.053, 2391.151
462.388, 2064.675
463.724, 1840.187
465.059, 1924.688
466.394, 2085.177
467.728, 2361.654
469.063, 2960.121
470.397, 3932.566
471.731, 5045.730
473.065, 6195.628
474.398, 7692.509
475.732, 8751.158
477.065, 9839.856
478.398, 9788.489
479.731, 9197.042
481.063, 8325.752
482.396, 7043.664
483.728, 5780.013
485.060, 4818.351
486.391, 3800.678
487.723, 3033.996
489.054, 2550.303
490.385, 2161.598
491.716, 1955.885
493.047, 1945.160
494.377, 1954.425
495.708, 2144.680
497.038, 2574.923
498.368, 3133.156
499.697, 3953.378
501.027, 5275.260
502.356, 6984.730
503.685, 9571.084
505.014, 12429.317
506.342, 14927.405
507.671, 16965.703
508.999, 18133.930
510.327, 18532.209
511.655, 18590.561
512.982, 17558.760
514.310, 15637.236
515.637, 13015.933
516.964, 10344.591
518.291, 7983.086
519.617, 6247.419
520.944, 4915.802
522.270, 3752.811
523.596, 2957.803
524.921, 2542.642
526.247, 2049.148
527.572, 1813.295
528.897, 1573.625
530.222, 1420.402
531.547, 1180.666
532.871, 1110.480
534.196, 982.147
535.520, 842.333
536.844, 802.948
538.167, 732.920
539.491, 689.417
540.814, 651.634
542.137, 541.286
543.460, 495.833
544.783, 471.542
546.105, 403.673
547.427, 380.788
548.749, 343.781
550.071, 328.264
551.393, 312.448
552.714, 304.543
554.035, 338.229
555.356, 277.342
556.677, 280.227
557.998, 286.153
559.318, 228.035
560.638, 236.937
561.958, 241.813
563.278, 252.686
564.597, 253.396
565.917, 237.417
567.236, 255.271
568.555, 297.120
569.874, 300.964
571.192, 291.801
572.511, 366.633
573.829, 412.458
575.147, 505.277
576.464, 529.098
577.782, 725.912
579.099, 726.720
580.416, 809.520
581.733, 722.249
583.050, 737.727
584.366, 632.853
585.683, 546.859
586.999, 412.102
588.315, 318.102
589.630, 249.119
590.946, 231.219
592.261, 159.469
593.576, 161.854
594.891, 122.568
596.206, 69.758
597.520, 93.490
598.834, 66.214
600.148, 98.934
601.462, 39.648
602.776, 95.352
604.089, 27.061
605.402, 81.760
606.715, 96.452
608.028, 83.135
609.341, 96.812
610.653, 80.483
611.965, 41.146
613.277, 130.804
614.589, 77.455
615.901, 78.102
617.212, 100.742
618.523, 107.374
619.834, 152.999
621.145, 174.617
622.456, 205.553
623.766, 241.665
625.076, 279.429
626.386, 313.019
627.696, 366.045
629.006, 413.178
630.315, 453.748
631.624, 455.313
632.933, 490.874
634.242, 515.431
635.551, 474.983
636.859, 424.532
638.167, 477.078
639.475, 509.619
640.783, 556.156
642.090, 617.685
643.398, 717.208
644.705, 803.723
646.012, 923.232
647.318, 957.734
648.625, 1066.229
649.931, 1042.717
651.237, 1070.199
652.543, 945.673
653.849, 876.141
655.155, 767.602
656.460, 664.056
657.765, 601.503
659.070, 548.945
660.375, 444.990
661.679, 385.818
662.984, 272.251
664.288, 232.681
665.592, 174.109
666.895, 134.533
668.199, 109.955
669.502, 92.373
670.805, 72.788
672.108, 61.106
673.411, 49.459
674.713, 42.004
676.016, 30.399
677.318, 19.790
678.620, 5.175
679.921, 8.556
681.223, 20.942
682.524, 56.674
683.825, 66.330
685.126, 32.032
686.427, 33.763
687.727, 25.525
689.028, 50.314
690.328, 32.144
691.628, 17.004
692.927, 59.885
694.227, 51.808
695.526, 53.767
696.825, 10.473
698.124, 17.765
699.423, 6.463
700.721, 15.144
702.020, 12.929
703.318, 32.985
704.616, 23.131
705.913, 18.743
707.211, 44.377
708.508, 3.492
709.805, 62.096
711.102, 34.238
712.399, 93.391
713.695, 77.542
714.992, 127.629
716.288, 81.766
717.584, 138.871
718.879, 125.188
720.175, 149.336
721.470, 153.458
722.765, 163.492
724.060, 163.574
725.355, 155.172
726.649, 167.516
727.944, 167.432
729.238, 180.601
730.532, 181.917
731.825, 186.037
733.119, 199.054
734.412, 250.571
735.705, 329.251
736.998, 390.290
738.291, 466.256
739.584, 571.205
740.876, 740.356
742.168, 952.805
743.460, 1192.751
744.752, 1510.890
746.043, 1891.353
747.334, 2151.311
748.626, 2239.544
749.916, 2114.468
751.207, 2017.394
752.498, 1746.123
753.788, 1519.995
755.078, 1419.890
756.368, 1432.773
757.658, 1556.403
758.947, 1751.136
760.237, 2076.701
761.526, 2566.489
762.815, 2818.332
764.104, 2848.114
765.392, 2524.282
766.680, 2025.041
767.969, 1665.635
769.257, 1346.458
770.544, 1062.050
771.832, 853.774
773.119, 791.577
774.406, 646.373
775.693, 625.162
776.980, 568.944
778.267, 428.719
779.553, 407.488
780.839, 339.249
782.125, 332.004
783.411, 293.753
784.697, 273.936
785.982, 276.229
787.267, 256.958
788.552, 277.680
789.837, 289.395
791.122, 290.104
792.406, 283.806
793.690, 316.501
794.974, 328.781
796.258, 353.588
797.542, 388.549
798.825, 418.218
800.108, 461.881
801.391, 508.538
802.674, 600.188
803.957, 787.832
805.239, 952.469
806.522, 1232.100
807.804, 1717.725
809.085, 2223.344
810.367, 2881.956
811.649, 3580.562
812.930, 4226.163
814.211, 4408.757
815.492, 4438.345
816.772, 3843.926
818.053, 3088.501
819.333, 2264.071
820.613, 1729.634
821.893, 1353.191
823.173, 1007.743
824.452, 782.289
825.732, 648.750
827.011, 506.156
828.290, 475.508
829.568, 379.824
830.847, 292.086
832.125, 319.298
833.403, 268.325
834.681, 199.438
835.959, 257.639
837.236, 222.921
838.514, 132.584
839.791, 159.387
841.068, 119.070
842.345, 136.260
843.621, 135.885
844.898, 124.642
846.174, 75.336
847.450, 97.338
848.726, 46.842
850.001, 3.219
851.277, 4.271
852.552, 4.588
853.827, 16.214
855.102, 35.048
856.376, 10.885
857.651, 25.273
858.925, 60.389
860.199, 40.806
861.473, 47.958
862.746, 21.283
864.020, 19.967
865.293, 15.099
866.566, 13.453
867.839, 26.760
869.112, 12.912
870.384, 18.428
871.656, 0.232
872.928, 4.103
874.200, 8.434
875.472, 56.762
876.744, 14.093
878.015, 6.580
879.286, 65.738
880.557, 1.946
881.828, 3.364
883.098, 2.330
884.369, 34.030
885.639, 15.250
886.909, 1.475
888.178, 36.796
889.448, 4.065
890.717, 19.331
891.987, 27.594
893.256, 1.145
894.524, 6.886
895.793, 29.366
897.061, 19.385
898.330, 25.148
899.598, 14.077
900.865, 38.699
902.133, 23.501
903.401, 16.701
904.668, 16.101
905.935, 22.087
907.202, 19.726
908.468, 54.449
909.735, 22.623
911.001, 49.204
912.267, 36.942
913.533, 17.093
914.799, 65.243
916.064, 61.391
917.330, 6.462
918.595, 60.680
919.860, 19.178
921.124, 40.954
922.389, 16.916
923.653, 18.206
924.918, 72.327
926.182, 14.447
927.445, 36.566
928.709, 35.685
929.972, 26.803
931.236, 24.920
932.499, 9.036
933.761, 39.151
935.024, 81.266
936.286, 60.380
937.549, 47.493
938.811, 82.605
940.073, 73.717
941.334, 125.828
942.596, 115.160
943.857, 51.049
945.118, 99.159
946.379, 79.270
947.640, 48.380
948.900, 117.491
950.161, 132.601
951.421, 94.711
952.681, 125.822
953.940, 188.931
955.200, 161.041
956.459, 229.151
957.719, 157.262
958.978, 210.373
960.236, 212.485
961.495, 194.597
962.753, 206.709
964.012, 241.822
965.270, 263.935
966.527, 363.048
967.785, 364.161
969.043, 373.276
970.300, 553.391
971.557, 606.513
972.814, 800.636
974.071, 892.759
975.327, 1107.884
976.583, 1315.008
977.840, 1404.134
979.095, 1505.261
980.351, 1299.389
981.607, 1131.519
982.862, 1006.651
984.117, 886.786
985.372, 749.925
986.627, 732.067
987.882, 776.230
989.136, 898.417
990.390, 995.627
991.644, 1106.858
992.898, 1196.451
994.152, 1237.617
995.405, 1311.642
996.659, 1256.944
997.912, 1183.269
999.165, 1101.615
1000.417, 1076.980
1001.670, 1077.096
1002.922, 1152.282
1004.174, 1107.025
1005.426, 1083.103
1006.678, 981.514
1007.930, 984.962
1009.181, 844.342
1010.432, 706.762
1011.683, 696.193
1012.934, 710.625
1014.185, 665.564
1015.435, 687.961
1016.685, 584.349
1017.935, 550.735
1019.185, 530.179
1020.435, 481.888
1021.684, 434.985
1022.934, 463.183
1024.183, 469.719
1025.432, 517.403
1026.680, 481.695
1027.929, 616.111
1029.177, 694.003
1030.425, 773.475
1031.673, 940.636
1032.921, 898.022
1034.169, 909.193
1035.416, 869.555
1036.663, 783.014
1037.911, 770.258
1039.157, 605.787
1040.404, 667.211
1041.650, 555.710
1042.897, 476.223
1044.143, 488.062
1045.389, 471.073
1046.634, 451.593
1047.880, 413.009
1049.125, 393.843
1050.371, 388.451
1051.615, 387.675
1052.860, 297.383
1054.105, 347.971
1055.349, 258.557
1056.593, 246.242
1057.837, 145.753
1059.081, 217.346
1060.325, 163.889
1061.568, 182.557
1062.812, 158.196
1064.055, 167.744
1065.298, 168.294
1066.540, 106.948
1067.783, 145.165
1069.025, 123.853
1070.267, 171.405
1071.509, 200.984
1072.751, 165.690
1073.993, 225.363
1075.234, 179.056
1076.475, 172.644
1077.716, 159.346
1078.957, 173.113
1080.198, 164.706
1081.438, 254.303
1082.679, 305.970
1083.919, 269.572
1085.159, 368.256
1086.398, 377.879
1087.638, 490.504
1088.877, 532.131
1090.116, 631.760
1091.355, 753.390
1092.594, 911.022
1093.833, 1083.870
1095.071, 1262.607
1096.309, 1501.367
1097.547, 1718.159
1098.785, 1802.819
1100.023, 1917.473
1101.260, 1754.213
1102.498, 1447.863
1103.735, 1399.565
1104.972, 1193.295
1106.208, 1116.128
1107.445, 884.909
1108.681, 882.719
1109.918, 831.396
1111.154, 818.105
1112.389, 834.903
1113.625, 795.558
1114.860, 751.214
1116.096, 816.002
1117.331, 803.852
1118.566, 881.508
1119.800, 1013.841
1121.035, 1050.499
1122.269, 1512.334
1123.503, 1605.992
1124.737, 1320.802
1125.971, 1163.460
1127.205, 1018.119
1128.438, 915.917
1129.671, 842.240
1130.904, 744.408
1132.137, 780.295
1133.370, 802.240
1134.602, 835.921
1135.834, 970.130
1137.066, 980.031
1138.298, 1068.983
1139.530, 1044.222
1140.762, 1021.021
1141.993, 924.087
1143.224, 861.867
1144.455, 719.976
1145.686, 674.800
1146.917, 540.586
1148.147, 431.722
1149.377, 482.932
1150.607, 395.572
1151.837, 457.386
1153.067, 442.554
1154.296, 323.294
1155.526, 328.034
1156.755, 259.741
1157.984, 297.518
1159.213, 96.294
1160.441, 162.923
1161.670, 176.836
1162.898, 122.789
1164.126, 182.415
1165.354, 158.247
1166.581, 74.049
1167.809, 32.662
1169.036, 21.487
1170.263, 56.062
1171.490, 5.300
1172.717, 15.446
1173.943, 27.639
1175.170, 58.175
1176.396, 28.892
1177.622, 62.628
1178.848, 37.405
1180.073, 70.474
1181.299, 103.148
1182.524, 82.693
1183.749, 56.647
1184.974, 83.617
1186.199, 21.339
1187.423, 57.009
1188.648, 62.270
1189.872, 35.854
1191.096, 13.541
1192.320, 66.562
1193.543, 61.188
1194.767, 11.700
1195.990, 18.560
1197.213, 8.958
1198.436, 54.620
1199.659, 1.481
1200.881, 21.173
1202.104, 93.926
1203.326, 1.493
1204.548, 10.163
1205.770, 25.967
1206.991, 50.444
1208.213, 52.971
1209.434, 20.513
1210.655, 59.930
1211.876, 58.366
1213.096, 17.108
1214.317, 67.529
1215.537, 11.061
1216.757, 56.903
1217.977, 39.526
1219.197, 73.557
1220.417, 22.025
1221.636, 23.486
1222.855, 58.965
1224.074, 23.329
1225.293, 8.756
1226.512, 85.596
1227.731, 62.440
1228.949, 37.309
1230.167, 88.679
1231.385, 37.484
1232.603, 85.757
1233.820, 87.183
1235.038, 65.829
1236.255, 76.309
1237.472, 70.675
1238.689, 62.087
1239.906, 10.349
1241.122, 37.699
1242.338, 33.096
1243.555, 26.341
1244.771, 58.580
1245.986, 61.181
1247.202, 41.413
1248.417, 63.783
1249.633, 51.999
1250.848, 46.201
1252.063, 22.944
1253.277, 36.306
1254.492, 30.185
1255.706, 63.170
1256.920, 56.340
1258.134, 35.570
1259.348, 86.211
1260.562, 95.355
1261.775, 40.614
1262.988, 26.688
1264.201, 75.779
1265.414, 17.076
1266.627, 96.097
1267.839, 32.208
1269.052, 95.419
1270.264, 39.413
1271.476, 95.397
1272.688, 100.526
1273.899, 43.479
1275.111, 35.617
1276.322, 112.551
1277.533, 23.475
1278.744, 16.716
1279.955, 73.617
1281.165, 60.512
1282.376, 7.672
1283.586, 17.151
1284.796, 15.049
1286.006, 93.800
1287.215, 9.429
1288.425, 52.465
1289.634, 25.792
1290.843, 37.073
1292.052, 50.621
1293.261, 8.301
1294.469, 5.969
1295.678, 95.625
1296.886, 43.269
1298.094, 7.907
1299.302, 62.523
1300.509, 62.116
1301.717, 70.673
1302.924, 53.219
1304.131, 53.139
1305.338, 92.256
1306.545, 25.719
1307.752, 22.164
1308.958, 16.406
1310.164, 38.002
1311.370, 44.395
1312.576, 101.775
1313.782, 96.900
1314.987, 44.488
1316.193, 80.818
1317.398, 53.958
1318.603, 24.236
1319.807, 33.401
1321.012, 54.658
1322.216, 49.899
1323.421, 39.125
1324.625, 12.332
1325.829, 33.478
1327.032, 43.684
1328.236, 43.828
1329.439, 17.953
1330.642, 49.061
1331.845, 60.125
1333.048, 10.812
1334.251, 78.227
1335.453, 74.687
1336.656, 11.163
1337.858, 66.270
1339.060, 103.241
1340.261, 38.105
1341.463, 88.209
1342.664, 52.025
1343.866, 20.936
1345.067, 52.648
1346.267, 33.460
1347.468, 71.319
1348.669, 45.040
1349.869, 26.752
1351.069, 88.513
1352.269, 75.350
1353.469, 79.132
1354.668, 113.808
1355.868, 115.643
1357.067, 28.383
1358.266, 94.965
1359.465, 63.630
1360.664, 19.147
1361.862, 39.779
1363.061, 8.624
1364.259, 72.967
1365.457, 31.559
1366.655, 65.876
1367.852, 156.396
1369.050, 73.787
1370.247, 16.099
1371.444, 15.582
1372.641, 14.040
1373.838, 78.417
1375.035, 6.104
1376.231, 29.556
1377.427, 58.835
1378.623, 25.007
1379.819, 42.618
1381.015, 69.213
1382.211, 57.469
1383.406, 129.744
1384.601, 70.253
1385.796, 58.671
1386.991, 109.032
1388.185, 94.185
1389.380, 28.457
1390.574, 93.693
1391.768, 60.128
1392.962, 129.188
1394.156, 142.709
1395.350, 17.878
1396.543, 54.056
1397.736, 71.391
1398.929, 27.343
1400.122, 124.375
1401.315, 80.287
1402.507, 16.588
1403.700, 81.311
1404.892, 49.711
1406.084, 93.607
1407.276, 73.508
1408.467, 57.157
1409.659, 46.891
1410.850, 59.021
1412.041, 35.717
1413.232, 88.241
1414.423, 83.735
1415.614, 41.455
1416.804, 131.722
1417.994, 36.511
1419.184, 97.971
1420.374, 90.059
1421.564, 22.260
1422.753, 146.441
1423.943, 108.836
1425.132, 97.887
1426.321, 93.605
1427.510, 101.369
1428.698, 4.304
1429.887, 162.119
1431.075, 41.229
1432.263, 133.408
1433.451, 142.943
1434.639, 122.786
1435.827, 100.309
1437.014, 105.548
1438.201, 97.833
1439.388, 112.658
1440.575, 72.806
1441.762, 73.967
1442.949, 84.153
1444.135, 91.506
1445.321, 105.524
1446.507, 119.142
1447.693, 104.690
1448.879, 125.927
1450.064, 116.829
1451.250, 89.061
1452.435, 74.531
1453.620, 122.730
1454.805, 112.365
1455.989, 157.120
1457.174, 158.695
1458.358, 156.485
1459.542, 166.204
1460.726, 129.519
1461.910, 130.358
1463.093, 77.149
1464.277, 123.370
1465.460, 115.028
1466.643, 103.473
1467.826, 67.653
1469.009, 142.379
1470.191, 72.940
1471.373, 58.032
1472.556, 98.043
1473.738, 45.063
1474.919, 104.782
1476.101, 141.221
1477.283, 19.965
1478.464, 120.796
1479.645, 11.478
1480.826, 72.052
1482.007, 182.626
1483.187, 38.332
1484.368, 56.026
1485.548, 33.968
1486.728, 92.886
1487.908, 104.767
1489.088, 145.628
1490.268, 26.507
1491.447, 134.430
1492.626, 72.370
1493.805, 22.320
1494.984, 93.271
1496.163, 85.260
1497.341, 11.262
1498.520, 112.455
1499.698, 58.875
1500.876, 51.722
1502.054, 66.373
1503.232, 43.963
1504.409, 36.526
1505.586, 46.763
1506.763, 44.145
1507.940, 50.938
1509.117, 19.943
1510.294, 48.136
1511.470, 52.904
1512.647, 14.672
1513.823, 101.525
1514.999, 81.776
1516.174, 8.576
1517.350, 0.516
1518.526, 107.885
1519.701, 0.000
##END=



