##NAMES=Microcline
##RRUFFID=R050193
##IDEAL CHEMISTRY=KAlSi_3_O_8_
##LOCALITY=Devil's Head, Douglas County, Colorado, USA
##OWNER=RRUFF
##SOURCE=Dave Bunk Minerals
##DESCRIPTION=White to colorless heterogeneous mixture of K and Na feldspar in a cluster of crystals. Crystal structure determined, presented below. This sample is known as an intermediate microcline in the literature.
##STATUS=The identification of this mineral has been confirmed by X-ray diffraction and chemical analysis
##URL=rruff.info/R050193
##MEASURED CHEMISTRY=(K_0.929_Na_0.071_)(Al_1.005_Si_2.994_Fe_0.001_)O_7.993_F_0.007_  ; Light Band :  (Na_0.973_K_0.007_Ca_0.020_)(Al_1.020_Si_2.980_)O_8_ ; Dark Band
##PIN_ID=L01042
##ORIENTATION=Laser parallel to a* (1 0 0). Fiducial mark perpendicular to laser is parallel to -b [0 -1 0]
142.5560, 0.0000000E+00
143.7880, 18.25391
145.0190, 39.28711
146.2510, 10.72656
147.4820, 299.2129
148.7130, 380.9395
149.9440, 566.9590
151.1750, 674.6445
152.4050, 893.8711
153.6360, 931.8359
154.8660, 875.9277
156.0960, 812.6738
157.3260, 647.7051
158.5560, 688.7266
159.7850, 704.5020
161.0150, 499.8359
162.2440, 568.5645
163.4730, 495.5430
164.7020, 591.6445
165.9310, 546.7598
167.1590, 565.8027
168.3880, 593.6855
169.6160, 389.3496
170.8440, 618.7227
172.0720, 476.7559
173.3000, 565.4102
174.5280, 651.6641
175.7550, 432.4746
176.9820, 730.8008
178.2100, 656.6055
179.4370, 886.8672
180.6630, 783.5586
181.8900, 729.6348
183.1170, 579.0664
184.3430, 507.8516
185.5690, 417.9121
186.7950, 540.2578
188.0210, 268.8711
189.2470, 517.7383
190.4720, 387.0410
191.6970, 345.3926
192.9230, 446.9785
194.1480, 344.7812
195.3730, 369.0859
196.5970, 491.2363
197.8220, 379.7324
199.0460, 512.3984
200.2700, 609.2422
201.4940, 515.2578
202.7180, 304.6230
203.9420, 365.1543
205.1660, 271.0879
206.3890, 293.1641
207.6120, 308.3535
208.8350, 235.6504
210.0580, 199.0547
211.2810, 260.5664
212.5040, 48.18164
213.7260, 79.01562
214.9480, 102.9727
216.1700, 90.07422
217.3920, 89.52734
218.6140, 247.4609
219.8360, 9.630859
221.0570, 176.8008
222.2790, 65.98633
223.5000, 25.19141
224.7210, 1.431641
225.9410, 163.7070
227.1620, 99.02734
228.3820, 25.38867
229.6030, 122.8008
230.8230, 53.26758
232.0430, 101.7852
233.2630, 100.3594
234.4820, 135.9883
235.7020, 235.6797
236.9210, 9.414063
238.1400, 112.3887
239.3590, 48.25391
240.5780, 118.0840
241.7970, 247.0605
243.0150, 165.0977
244.2340, 264.5137
245.4520, 166.6660
246.6700, 402.2930
247.8880, 22.50391
249.1060, 187.7793
250.3230, 422.1133
251.5400, 364.5059
252.7580, 597.9590
253.9750, 457.4707
255.1920, 848.0391
256.4080, 753.6660
257.6250, 1021.162
258.8410, 1137.891
260.0580, 1128.959
261.2740, 1045.988
262.4900, 1139.787
263.7050, 1212.539
264.9210, 1381.756
266.1360, 1286.240
267.3520, 1411.141
268.5670, 1386.955
269.7820, 1256.926
270.9960, 1304.949
272.2110, 1094.023
273.4250, 873.1660
274.6400, 1117.373
275.8540, 1258.633
277.0680, 1075.965
278.2810, 1170.357
279.4950, 1078.797
280.7090, 1450.283
281.9220, 1450.816
283.1350, 1560.010
284.3480, 1609.582
285.5610, 1416.209
286.7730, 1168.852
287.9860, 1064.529
289.1980, 904.4219
290.4100, 896.8535
291.6220, 758.5840
292.8340, 621.7402
294.0460, 724.4121
295.2570, 594.3594
296.4690, 367.5449
297.6800, 630.9414
298.8910, 468.5293
300.1020, 301.2871
301.3120, 148.2070
302.5230, 201.2734
303.7330, 370.4785
304.9440, 260.8086
306.1540, 325.2539
307.3630, 158.8145
308.5730, 258.4805
309.7830, 318.2441
310.9920, 237.1035
312.2010, 184.0508
313.4100, 254.0840
314.6190, 266.2012
315.8280, 315.3926
317.0370, 217.6602
318.2450, 323.9980
319.4530, 158.4043
320.6610, 314.8789
321.8690, 201.4160
323.0770, 339.0176
324.2850, 251.6758
325.4920, 57.39648
326.6990, 99.16992
327.9060, 270.9980
329.1130, 185.8770
330.3200, 5.185547
331.5270, 317.7949
332.7330, 298.8301
333.9390, 91.91211
335.1450, 53.05859
336.3510, 222.2598
337.5570, 23.48633
338.7630, 299.8066
339.9680, 34.14258
341.1740, 172.5176
342.3790, 156.9355
343.5840, 87.38672
344.7890, 8.119141
345.9930, 222.4082
347.1980, 214.9707
348.4020, 102.4121
349.6060, 2.777344
350.8100, 300.8887
352.0140, 365.5859
353.2180, 74.31445
354.4210, 164.0742
355.6250, 230.8633
356.8280, 250.6797
358.0310, 106.5293
359.2340, 166.4043
360.4360, 37.30859
361.6390, 123.2422
362.8410, 220.2031
364.0430, 235.1895
365.2450, 222.2051
366.4470, 145.2461
367.6490, 119.3145
368.8510, 220.4102
370.0520, 15.47461
371.2530, 87.67188
372.4540, 69.84570
373.6550, 271.0449
374.8560, 1.726563
376.0560, 121.5254
377.2570, 169.1953
378.4570, 159.0742
379.6570, 59.37305
380.8570, 64.69727
382.0570, 27.98438
383.2560, 14.55078
384.4560, 50.68945
385.6550, 51.78125
386.8540, 67.33008
388.0530, 39.86523
389.2520, 146.6094
390.4510, 181.1094
391.6490, 18.60742
392.8470, 73.87109
394.0450, 131.6582
395.2430, 97.21094
396.4410, 142.7852
397.6390, 327.3906
398.8360, 377.0156
400.0340, 387.6641
401.2310, 182.3340
402.4280, 422.7383
403.6250, 353.4473
404.8210, 193.1855
406.0180, 353.9023
407.2140, 503.2871
408.4100, 512.0410
409.6060, 442.2578
410.8020, 207.0039
411.9980, 397.7734
413.1930, 409.5508
414.3890, 157.3496
415.5840, 249.1699
416.7790, 182.0098
417.9740, 154.8711
419.1680, 176.7500
420.3630, 105.3535
421.5570, 23.54688
422.7510, 4.472656
423.9450, 3.414063
425.1390, 266.3691
426.3330, 7.658203
427.5270, 49.30273
428.7200, 90.27539
429.9130, 51.21484
431.1060, 176.7910
432.2990, 95.19336
433.4920, 106.1875
434.6840, 45.19141
435.8770, 36.81250
437.0690, 62.85156
438.2610, 72.95312
439.4530, 197.0820
440.6450, 142.2422
441.8360, 268.4434
443.0280, 111.6719
444.2190, 306.0039
445.4100, 467.3613
446.6010, 416.7441
447.7920, 792.1523
448.9820, 578.5820
450.1730, 1172.035
451.3630, 1413.514
452.5530, 1291.012
453.7430, 1473.531
454.9330, 1563.072
456.1230, 1506.633
457.3120, 1409.215
458.5010, 1140.818
459.6910, 1045.441
460.8800, 806.0840
462.0680, 813.7441
463.2570, 838.4219
464.4460, 798.3262
465.6340, 820.0391
466.8220, 952.7734
468.0100, 958.0137
469.1980, 1205.781
470.3860, 1313.564
471.5730, 1539.367
472.7600, 1635.445
473.9480, 1814.176
475.1350, 2184.025
476.3210, 2352.385
477.5080, 2075.896
478.6950, 1880.170
479.8810, 1806.256
481.0670, 1676.684
482.2530, 1410.623
483.4390, 1247.580
484.6250, 967.5469
485.8100, 901.5977
486.9960, 962.5234
488.1810, 802.3086
489.3660, 699.3320
490.5510, 706.5879
491.7360, 570.8770
492.9200, 496.8242
494.1050, 921.8984
495.2890, 692.9844
496.4730, 787.0820
497.6570, 599.1934
498.8400, 914.3145
500.0240, 1025.449
501.2070, 1290.594
502.3910, 1590.086
503.5740, 2079.254
504.7570, 2319.438
505.9400, 2837.508
507.1220, 3058.850
508.3050, 3864.078
509.4870, 4201.316
510.6690, 4788.566
511.8510, 5479.826
513.0330, 5633.453
514.2140, 5925.736
515.3960, 5470.025
516.5770, 4845.326
517.7580, 3803.408
518.9390, 2935.729
520.1200, 2428.561
521.3010, 1862.902
522.4810, 1596.275
523.6610, 1263.215
524.8420, 961.9824
526.0220, 851.0371
527.2010, 971.4648
528.3810, 629.5898
529.5610, 653.0586
530.7400, 635.6660
531.9190, 486.0879
533.0980, 265.5176
534.2770, 515.9551
535.4560, 210.0586
536.6340, 255.5859
537.8120, 116.0469
538.9910, 471.6641
540.1690, 310.1406
541.3460, 319.9043
542.5240, 149.4004
543.7020, 30.10156
544.8790, 254.3828
546.0560, 323.7148
547.2330, 223.2168
548.4100, 13.72461
549.5870, 49.23047
550.7630, 42.25391
551.9400, 403.2832
553.1160, 131.8047
554.2920, 303.3125
555.4680, 306.0684
556.6440, 182.5879
557.8190, 348.1133
558.9950, 149.6465
560.1700, 244.1855
561.3450, 239.7305
562.5200, 136.0957
563.6950, 288.3945
564.8690, 338.4941
566.0440, 326.5664
567.2180, 301.0352
568.3920, 284.7051
569.5660, 193.2930
570.7400, 18.02930
571.9130, 118.6406
573.0870, 45.24609
574.2600, 172.1660
575.4330, 111.0859
576.6060, 240.9414
577.7790, 289.5664
578.9520, 122.1289
580.1240, 140.7656
581.2960, 91.40430
582.4690, 234.4004
583.6410, 83.04883
584.8120, 263.8047
585.9840, 235.4590
587.1560, 173.1172
588.3270, 147.7754
589.4980, 159.4375
590.6690, 310.0996
591.8400, 228.1621
593.0110, 255.4238
594.1810, 160.0898
595.3510, 248.7520
596.5220, 207.4180
597.6920, 239.0820
598.8610, 106.8320
600.0310, 206.4961
601.2010, 140.2090
602.3700, 105.5801
603.5390, 120.4824
604.7080, 38.14258
605.8770, 95.80273
607.0460, 78.46094
608.2140, 26.11914
609.3830, 281.7734
610.5510, 61.42969
611.7190, 148.1074
612.8870, 3.789063
614.0550, 190.4570
615.2220, 214.1270
616.3900, 27.80078
617.5570, 54.52930
618.7240, 15.90234
619.8910, 12.29883
621.0580, 49.28125
622.2240, 177.8613
623.3910, 79.44531
624.5570, 376.0254
625.7230, 173.6055
626.8890, 168.2129
628.0550, 76.81641
629.2200, 338.4336
630.3860, 45.94727
631.5510, 197.6445
632.7160, 94.25781
633.8810, 247.8730
635.0460, 164.4941
636.2100, 264.1094
637.3750, 70.72852
638.5390, 449.3398
639.7030, 367.9473
640.8670, 188.5488
642.0310, 41.14844
643.1950, 295.7363
644.3580, 382.3594
645.5210, 371.2188
646.6850, 441.8340
647.8480, 237.2852
649.0100, 395.8887
650.1730, 187.4883
651.3350, 118.0820
652.4980, 200.6719
653.6600, 128.5762
654.8220, 151.7207
655.9840, 219.4570
657.1450, 176.0508
658.3070, 280.6387
659.4680, 314.2246
660.6300, 151.8379
661.7910, 74.44531
662.9510, 34.34961
664.1120, 11.14062
665.2730, 6.199219
666.4330, 24.25586
667.5930, 154.2598
668.7530, 131.7812
669.9130, 166.3066
671.0730, 260.8340
672.2320, 187.3496
673.3920, 101.8574
674.5510, 130.3535
675.7100, 73.97070
676.8690, 149.3574
678.0280, 16.84570
679.1860, 135.3086
680.3450, 57.76758
681.5030, 122.2266
682.6610, 110.6719
683.8190, 223.3965
684.9770, 0.8437500
686.1340, 215.1484
687.2920, 101.5820
688.4490, 135.3613
689.6060, 120.7734
690.7630, 76.81641
691.9200, 21.64844
693.0760, 101.0352
694.2330, 15.42188
695.3890, 156.7891
696.5450, 127.1484
697.7010, 279.6289
698.8570, 143.0977
700.0130, 188.7852
701.1680, 3.898438
702.3230, 37.41016
703.4780, 165.9180
704.6330, 111.1914
705.7880, 276.7812
706.9430, 156.0391
708.0970, 206.2930
709.2520, 32.56250
710.4060, 267.1250
711.5600, 210.5508
712.7140, 59.32812
713.8670, 261.5156
715.0210, 180.7148
716.1740, 155.9141
717.3270, 75.72266
718.4800, 230.3867
719.6330, 311.6836
720.7860, 18.03125
721.9380, 248.0039
723.0910, 252.6914
724.2430, 314.7578
725.3950, 116.5938
726.5470, 128.8125
727.6980, 327.6172
728.8500, 228.4102
730.0010, 246.1875
731.1530, 312.9453
732.3040, 137.6953
733.4550, 252.4219
734.6050, 237.1367
735.7560, 183.8398
736.9060, 101.5234
738.0560, 471.2500
739.2060, 366.8945
740.3560, 344.5547
741.5060, 537.1680
742.6560, 500.7695
743.8050, 707.3789
744.9540, 767.1016
746.1030, 713.8047
747.2520, 841.5508
748.4010, 868.5625
749.5500, 684.4492
750.6980, 851.5469
751.8460, 738.2344
752.9950, 740.1094
754.1420, 888.6250
755.2900, 675.6914
756.4380, 853.4688
757.5850, 712.4766
758.7330, 563.1094
759.8800, 617.6523
761.0270, 637.2578
762.1730, 391.3320
763.3200, 556.6289
764.4670, 773.4102
765.6130, 575.6758
766.7590, 314.8594
767.9050, 317.1133
769.0510, 507.5742
770.1960, 345.3828
771.3420, 467.6680
772.4870, 264.5352
773.6320, 314.8438
774.7770, 369.2695
775.9220, 456.4023
777.0670, 239.7188
778.2110, 656.8320
779.3560, 295.8750
780.5000, 308.7070
781.6440, 455.0117
782.7880, 12.49609
783.9320, 371.4414
785.0750, 78.58594
786.2180, 483.4805
787.3620, 441.2578
788.5050, 323.3984
789.6480, 326.7148
790.7900, 484.5273
791.9330, 589.3047
793.0750, 628.1328
794.2170, 366.5195
795.3590, 358.5430
796.5010, 273.3984
797.6430, 610.9883
798.7850, 304.3242
799.9260, 484.3633
801.0670, 301.8516
802.2080, 355.1055
803.3490, 300.4258
804.4900, 485.7227
805.6310, 813.3750
806.7710, 473.8633
807.9110, 426.4688
809.0510, 769.9258
810.1910, 865.3750
811.3310, 931.8789
812.4710, 1047.832
813.6100, 947.1328
814.7490, 874.6562
815.8880, 706.8398
817.0270, 617.6367
818.1660, 759.5195
819.3050, 456.7656
820.4430, 308.5156
821.5820, 376.5195
822.7200, 86.34375
823.8580, 339.4414
824.9950, 395.5703
826.1330, 444.9297
827.2710, 124.2656
828.4080, 236.9570
829.5450, 329.3477
830.6820, 446.0703
831.8190, 492.7734
832.9560, 286.7656
834.0920, 208.8438
835.2280, 208.7539
836.3650, 154.0117
837.5010, 298.9727
838.6360, 243.0977
839.7720, 188.6367
840.9080, 301.4141
842.0430, 167.5234
843.1780, 304.9023
844.3130, 284.0273
845.4480, 30.96094
846.5830, 276.2617
847.7170, 186.8633
848.8520, 120.2227
849.9860, 250.3242
851.1200, 416.8438
852.2540, 308.3320
853.3870, 202.8672
854.5210, 275.3633
855.6540, 193.7734
856.7880, 192.3320
857.9210, 256.3320
859.0540, 172.6523
860.1860, 97.84375
861.3190, 373.1133
862.4510, 131.3516
863.5840, 332.5625
864.7160, 269.7500
865.8480, 252.9102
866.9790, 512.0430
868.1110, 335.1523
869.2420, 372.2344
870.3740, 249.6016
871.5050, 292.6289
872.6360, 449.6367
873.7660, 215.5312
874.8970, 337.4883
876.0280, 225.4180
877.1580, 265.3281
878.2880, 259.2031
879.4180, 177.0547
880.5480, 194.0312
881.6770, 196.8281
882.8070, 88.07031
883.9360, 117.1094
885.0650, 70.10938
886.1940, 99.16797
887.3230, 121.0508
888.4520, 135.9141
889.5800, 1.011719
890.7090, 204.9805
891.8370, 301.5430
892.9650, 321.0195
894.0930, 132.4766
895.2200, 165.9180
896.3480, 36.32422
897.4750, 81.69922
898.6020, 276.5273
899.7290, 88.84766
900.8560, 237.8984
901.9830, 31.59766
903.1090, 56.46094
904.2360, 24.42578
905.3620, 16.19141
906.4880, 2.769531
907.6140, 10.93750
908.7400, 203.2617
909.8650, 33.17969
910.9900, 235.7031
912.1160, 186.5625
913.2410, 231.6016
914.3660, 486.4023
915.4900, 208.2539
916.6150, 118.7422
917.7390, 122.1797
918.8640, 245.7852
919.9880, 187.9141
921.1120, 243.6328
922.2350, 61.16797
923.3590, 171.6719
924.4820, 123.1406
925.6060, 315.0508
926.7290, 67.15234
927.8520, 225.1953
928.9740, 91.51172
930.0970, 167.7969
931.2190, 37.26953
932.3420, 57.91797
933.4640, 85.44531
934.5860, 138.2578
935.7080, 129.0312
936.8290, 224.3359
937.9510, 195.4180
939.0720, 267.4766
940.1930, 35.80469
941.3140, 279.8164
942.4350, 206.3438
943.5560, 445.1289
944.6760, 518.2891
945.7960, 219.3320
946.9170, 106.2539
948.0370, 265.2031
949.1560, 196.3125
950.2760, 481.1172
951.3960, 389.8945
952.5150, 28.33203
953.6340, 274.3867
954.7530, 113.0781
955.8720, 35.22266
956.9910, 122.4219
958.1090, 69.84766
959.2280, 331.6953
960.3460, 176.2656
961.4640, 174.7578
962.5820, 79.76172
963.6990, 13.73047
964.8170, 19.26172
965.9340, 44.15625
967.0510, 227.5820
968.1690, 201.9805
969.2850, 276.2188
970.4020, 145.4258
971.5190, 28.37500
972.6350, 231.6523
973.7510, 359.9180
974.8670, 267.9375
975.9830, 146.1523
977.0990, 76.01562
978.2150, 121.1758
979.3300, 177.2969
980.4450, 55.48828
981.5600, 278.5742
982.6750, 57.40234
983.7900, 436.8359
984.9050, 436.9453
986.0190, 310.9336
987.1340, 210.8906
988.2480, 386.6445
989.3620, 311.6328
990.4750, 186.4102
991.5890, 383.1562
992.7020, 536.0938
993.8160, 369.7266
994.9290, 475.1016
996.0420, 481.4062
997.1550, 271.5703
998.2670, 547.4648
999.3800, 408.3359
1000.492, 474.1875
1001.604, 250.0117
1002.716, 275.8047
1003.828, 153.5781
1004.940, 292.3281
1006.051, 350.0469
1007.163, 395.7422
1008.274, 484.3516
1009.385, 414.9961
1010.496, 246.5938
1011.606, 250.1914
1012.717, 244.8984
1013.827, 188.0742
1014.937, 337.4336
1016.047, 110.7812
1017.157, 135.5430
1018.267, 249.4961
1019.377, 62.51953
1020.486, 0.7031250
1021.595, 149.5977
1022.704, 90.57812
1023.813, 99.81250
1024.922, 194.9531
1026.030, 221.6406
1027.139, 242.8672
1028.247, 312.6328
1029.355, 358.8086
1030.463, 296.9336
1031.571, 96.51562
1032.678, 143.5156
1033.786, 84.09766
1034.893, 21.33203
1036.000, 14.75000
1037.107, 445.7148
1038.214, 70.20703
1039.321, 265.5312
1040.427, 72.33984
1041.533, 62.97656
1042.639, 233.6758
1043.745, 42.21484
1044.851, 320.5547
1045.957, 146.3555
1047.062, 217.0820
1048.168, 177.0312
1049.273, 135.2695
1050.378, 121.6719
1051.482, 132.3203
1052.587, 56.51562
1053.692, 254.3867
1054.796, 368.0078
1055.900, 561.7539
1057.004, 184.0508
1058.108, 13.83594
1059.212, 96.69141
1060.315, 266.2148
1061.418, 268.6367
1062.522, 213.6562
1063.625, 128.0469
1064.728, 76.31250
1065.830, 214.7969
1066.933, 259.5000
1068.035, 22.44141
1069.137, 126.5000
1070.239, 382.7539
1071.341, 240.0234
1072.443, 109.3008
1073.545, 281.5039
1074.646, 45.79688
1075.747, 22.12891
1076.848, 28.52734
1077.949, 141.2969
1079.050, 163.3203
1080.150, 149.8594
1081.251, 104.2461
1082.351, 260.4648
1083.451, 235.5000
1084.551, 253.3477
1085.651, 200.9609
1086.750, 411.4844
1087.850, 227.1484
1088.949, 260.3008
1090.048, 391.0039
1091.147, 291.9688
1092.246, 157.9531
1093.345, 274.9531
1094.443, 256.7891
1095.541, 280.7578
1096.639, 356.1992
1097.737, 489.4062
1098.835, 539.5273
1099.933, 698.3867
1101.030, 637.0391
1102.128, 629.6992
1103.225, 526.2070
1104.322, 513.7969
1105.419, 494.4609
1106.515, 501.2734
1107.612, 304.7539
1108.708, 456.0117
1109.804, 229.9570
1110.900, 356.0703
1111.996, 281.4062
1113.092, 312.1953
1114.187, 475.7383
1115.283, 379.4805
1116.378, 156.9844
1117.473, 544.3086
1118.568, 796.0195
1119.662, 528.3906
1120.757, 468.2617
1121.851, 540.2695
1122.946, 603.6953
1124.040, 529.2227
1125.134, 555.0078
1126.227, 664.1172
1127.321, 489.6953
1128.414, 261.7227
1129.508, 210.0195
1130.601, 217.2930
1131.693, 658.6680
1132.786, 522.9023
1133.879, 567.2227
1134.971, 460.4219
1136.064, 730.3008
1137.156, 959.4609
1138.248, 888.6055
1139.339, 311.7383
1140.431, 510.8477
1141.522, 347.9453
1142.614, 426.0234
1143.705, 430.0820
1144.796, 398.1211
1145.887, 384.9961
1146.977, 435.0000
1148.068, 304.5195
1149.158, 521.1289
1150.248, 267.0898
1151.338, 245.4102
1152.428, 77.93750
1153.518, 323.5977
1154.607, 160.0117
1155.696, 287.8711
1156.785, 73.71094
1157.874, 225.7227
1158.963, 429.6211
1160.052, 105.5078
1161.141, 67.38281
1162.229, 529.2734
1163.317, 5.363281
1164.405, 315.1523
1165.493, 48.46484
1166.581, 471.9883
1167.668, 194.8945
1168.756, 245.6953
1169.843, 238.1016
1170.930, 251.6211
1172.017, 62.87891
1173.103, 232.0898
1174.190, 315.8516
1175.276, 38.28516
1176.363, 112.0117
1177.449, 194.5430
1178.535, 120.2461
1179.620, 20.85156
1180.706, 242.2656
1181.791, 306.6797
1182.877, 445.1289
1183.962, 58.25000
1185.047, 379.8945
1186.131, 153.5234
1187.216, 431.1484
1188.300, 8.246094
1189.385, 228.8750
1190.469, 240.0664
1191.553, 322.6406
1192.637, 114.2031
1193.720, 101.7539
1194.804, 234.0742
1195.887, 291.3164
1196.970, 358.8398
1198.053, 317.5859
1199.136, 114.4375
1200.219, 258.7227
1201.301, 120.1836
1202.383, 387.6406
1203.465, 137.8125
1204.547, 142.2461
1205.629, 245.1289
1206.711, 52.71094
1207.792, 16.87891
1208.874, 240.1211
1209.955, 226.4414
1211.036, 77.69922
1212.117, 0.7539060
1213.198, 173.0742
1214.278, 39.62500
1215.359, 233.6289
1216.439, 22.89062
1217.519, 125.8633
1218.599, 282.2930
1219.678, 83.45312
1220.758, 342.6055
1221.837, 123.7695
1222.917, 53.87109
1223.996, 280.9883
1225.075, 114.9766
1226.153, 204.9375
1227.232, 117.8984
1228.310, 111.1445
1229.389, 112.7383
1230.467, 107.6094
1231.545, 209.6250
1232.622, 456.4727
1233.700, 353.2617
1234.777, 382.9883
1235.855, 272.9727
1236.932, 248.7852
1238.009, 208.5859
1239.086, 195.3789
1240.162, 171.1680
1241.239, 150.3359
1242.315, 4.718750
1243.391, 140.4805
1244.467, 174.2227
1245.543, 221.9609
1246.619, 9.585938
1247.694, 75.29297
1248.769, 273.9883
1249.844, 181.3242
1250.919, 24.75000
1251.994, 79.78906
1253.069, 93.32031
1254.144, 83.84375
1255.218, 210.3516
1256.292, 65.85547
1257.366, 10.35156
1258.440, 279.8242
1259.514, 505.2891
1260.587, 94.75000
1261.661, 457.1992
1262.734, 96.64062
1263.807, 131.0742
1264.880, 131.5000
1265.952, 350.9141
1267.025, 176.3281
1268.097, 193.5820
1269.170, 280.9805
1270.242, 506.3750
1271.314, 130.7578
1272.385, 263.1289
1273.457, 405.4961
1274.528, 255.8555
1275.600, 341.2109
1276.671, 336.5625
1277.742, 225.9062
1278.812, 262.2461
1279.883, 360.5820
1280.954, 2.046875
1282.024, 274.9258
1283.094, 264.3789
1284.164, 20.50781
1285.234, 250.8125
1286.303, 90.58203
1287.373, 237.8828
1288.442, 182.1758
1289.511, 442.6328
1290.580, 103.4648
1291.649, 508.7461
1292.718, 134.1250
1293.786, 136.3984
1294.855, 287.1484
1295.923, 357.4336
1296.991, 271.7109
1298.059, 66.98438
1299.126, 14.74219
1300.194, 164.5117
1301.261, 236.3203
1302.328, 257.5742
1303.395, 20.82812
1304.462, 428.5312
1305.529, 92.54688
1306.596, 277.7969
1307.662, 230.8477
1308.728, 576.4453
1309.794, 443.7148
1310.860, 279.9805
1311.926, 424.2461
1312.991, 244.0820
1314.057, 438.3398
1315.122, 556.5508
1316.187, 376.8047
1317.252, 308.0117
1318.317, 282.7617
1319.381, 573.5039
1320.446, 233.7422
1321.510, 312.7812
1322.574, 465.7656
1323.638, 50.99219
1324.702, 572.2188
1325.766, 26.43359
1326.829, 397.6445
1327.892, 556.6719
1328.956, 378.8828
1330.019, 209.9297
1331.081, 332.1328
1332.144, 157.2500
1333.206, 192.5000
1334.269, 415.5820
1335.331, 254.3516
1336.393, 390.8633
1337.455, 517.0586
1338.516, 286.2539
1339.578, 345.1406
1340.639, 88.99219
1341.701, 274.1875
1342.762, 131.5391
1343.822, 359.7266
1344.883, 123.3672
1345.944, 415.3203
1347.004, 65.50391
1348.064, 87.42578
1349.124, 163.6172
1350.184, 190.7109
1351.244, 329.5195
1352.304, 281.7930
1353.363, 306.8672
1354.422, 45.93359
1355.481, 612.1367
1356.540, 162.0430
1357.599, 505.1016
1358.657, 0.1523440
1359.716, 637.3555
1360.774, 461.5586
1361.832, 364.7539
1362.890, 131.9180
1363.948, 103.0625
1365.006, 177.2148
1366.063, 93.35938
1367.120, 219.5117
1368.178, 74.66016
1369.234, 129.8203
1370.291, 29.07031
1371.348, 274.0859
1372.404, 373.2539
1373.461, 250.4219
1374.517, 129.7656
1375.573, 198.7070
1376.629, 51.89062
1377.684, 274.6445
1378.740, 421.2500
1379.795, 259.2383
1380.850, 307.3008
1381.905, 252.3281
1382.960, 84.54688
1384.015, 124.5234
1385.070, 409.0352
1386.124, 58.27734
1387.178, 30.52344
1388.232, 459.6641
1389.286, 348.9258
1390.340, 266.0977
1391.393, 288.3789
1392.447, 289.6719
1393.500, 476.9727
1394.553, 33.71484
1395.606, 4.601563
1396.659, 45.92578
1397.711, 164.2656
1398.764, 161.6133
1399.816, 121.9766
1400.868, 135.3477
1401.920, 301.7344
1402.972, 221.1367
1404.023, 210.5156
1405.075, 369.9883
1406.126, 80.43750
1407.177, 8.097656
1408.228, 39.47266
1409.279, 92.55078
1410.330, 87.37500
1411.380, 63.65625
1412.431, 64.80859
1413.481, 163.8555
1414.531, 153.4336
1415.580, 53.96484
1416.630, 184.6523
1417.680, 20.27734
1418.729, 16.95703
1419.778, 274.6758
1420.827, 71.42578
1421.876, 123.2188
1422.925, 42.14844
1423.973, 222.0117
1425.022, 254.8359
1426.070, 359.0586
1427.118, 340.2773
1428.166, 200.0859
1429.214, 314.1797
1430.261, 250.5039
1431.309, 114.2188
1432.356, 234.8477
1433.403, 245.1914
1434.450, 204.2109
1435.497, 249.4297
1436.543, 238.4375
1437.590, 213.9961
1438.636, 329.7695
1439.682, 184.0898
1440.728, 257.3828
1441.774, 517.6914
1442.819, 459.0117
1443.865, 254.3320
1444.910, 76.51172
1445.955, 414.5859
1447.000, 68.91016
1448.045, 221.2500
1449.090, 323.5820
1450.134, 88.92969
1451.178, 297.2812
1452.223, 198.6445
1453.267, 323.0195
1454.310, 383.4219
1455.354, 366.8555
1456.398, 324.3828
1457.441, 386.9258
1458.484, 224.4805
1459.527, 205.2305
1460.570, 78.59375
1461.613, 134.4375
1462.655, 522.1055
1463.698, 474.9766
1464.740, 703.8594
1465.782, 238.7617
1466.824, 341.6797
1467.866, 81.31250
1468.907, 191.2617
1469.948, 218.2344
1470.990, 288.2344
1472.031, 364.4102
1473.072, 371.0625
1474.112, 294.8789
1475.153, 423.1562
1476.194, 247.4609
1477.234, 303.7930
1478.274, 295.1484
1479.314, 327.5352
1480.354, 240.6797
1481.393, 76.10547
1482.433, 485.5547
1483.472, 412.0312
1484.511, 328.5352
1485.550, 676.0664
1486.589, 394.8477
1487.628, 144.6328
1488.666, 396.9766
1489.704, 546.4297
1490.743, 190.4297
1491.781, 101.8984
1492.819, 299.3867
1493.856, 479.8945
1494.894, 513.4141
1495.931, 497.9727
1496.968, 287.5547
1498.005, 189.1445
1499.042, 620.7383
1500.079, 289.2969
1501.115, 473.8164
1502.152, 230.3438
1503.188, 173.9297
1504.224, 432.5625
1505.260, 489.2461
1506.296, 547.9844
1507.331, 391.7695
1508.367, 386.6016
1509.402, 198.4922
1510.437, 410.4375
1511.472, 244.4297
1512.507, 406.5039
1513.541, 381.6523
1514.576, 182.8555
1515.610, 268.1094
1516.644, 108.4492
1517.678, 188.8477
1518.712, 462.3008
1519.746, 275.8008
1520.779, 384.3516
1521.813, 415.9609
1522.846, 291.6562
1523.879, 573.4062
1524.912, 360.2148
1525.944, 217.2812
1526.977, 372.6680
1528.009, 381.2344
1529.041, 437.9102
1530.073, 483.7109
1531.105, 567.6445
1532.137, 327.7148
1533.168, 456.9492
1534.200, 626.3633
1535.231, 622.9492
1536.262, 364.7383
1537.293, 73.73438
1538.324, 367.9570
1539.354, 443.4219
1540.385, 517.1445
1541.415, 177.1523
1542.445, 323.4727
1543.475, 197.1406
1544.505, 415.1953
1545.534, 459.6602
1546.564, 150.5430
1547.593, 354.8945
1548.622, 175.7656
1549.651, 355.2188
1550.680, 256.3789
1551.708, 309.0391
1552.737, 253.5000
1553.765, 267.8594
1554.793, 377.2500
1555.821, 185.0898
1556.849, 315.4453
1557.877, 167.8008
1558.904, 8.949219
1559.932, 248.1211
1560.959, 637.5625
1561.986, 7.433594
1563.013, 0.0000000E+00
##END=



