##NAMES=Mimetite
##RRUFFID=R060920
##IDEAL CHEMISTRY=Pb^2+^_5_(As^5+^O_4_)_3_Cl
##LOCALITY=Tsumeb mine, Tsumeb, Otavi District, Oshikoto, Namibia
##OWNER=RRUFF
##SOURCE=Marcus Origlieri
##DESCRIPTION=Yellow to brownish hexagonal prism, monoclinic polytype
##STATUS=The identification of this mineral has been made only by X-ray diffraction.
##URL=rruff.info/R060920
##PIN_ID=L01429
##ORIENTATION=Laser parallel to a* (1 0 0). Fiducial mark perpendicular to laser is parallel to c [0 0 1]
42.24800, 0.0000000E+00
43.49300, 13.28473
44.73800, 1.824310
45.98200, 10.11716
47.22600, 16.82855
48.47100, 24.09137
49.71500, 31.42325
50.95900, 33.26459
52.20200, 23.80640
53.44600, 30.67438
54.68900, 40.98837
55.93300, 34.58853
57.17600, 53.91724
58.41900, 61.51306
59.66100, 69.91571
60.90400, 67.56293
62.14600, 45.64532
63.38900, 37.92828
64.63100, 32.40741
65.87300, 21.07635
67.11500, 13.92804
68.35600, 10.95587
69.59800, 3.315277
70.83900, 5.517456
72.08000, 6.958405
73.32100, 17.27759
74.56200, 24.44360
75.80300, 24.35980
77.04300, 11.32855
78.28300, 9.053009
79.52300, 3.635681
80.76300, 22.91815
82.00300, 78.60114
83.24300, 104.4062
84.48300, 161.3267
85.72200, 234.3562
86.96100, 368.4891
88.20000, 441.7190
89.43900, 589.0411
90.67800, 706.4528
91.91600, 811.9530
93.15500, 998.5404
94.39300, 1174.214
95.63100, 1394.972
96.86900, 1731.815
98.10600, 2042.742
99.34400, 2453.752
100.5810, 2684.845
101.8190, 2929.019
103.0560, 2988.276
104.2930, 3008.615
105.5290, 2934.034
106.7660, 2969.533
108.0020, 2880.113
109.2390, 2792.773
110.4750, 2756.511
111.7110, 2641.328
112.9460, 2609.223
114.1820, 2540.196
115.4170, 2474.247
116.6530, 2386.366
117.8880, 2311.528
119.1230, 2242.728
120.3580, 2178.965
121.5920, 2130.237
122.8270, 2080.541
124.0610, 2045.875
125.2950, 1994.237
126.5290, 1943.625
127.7630, 1881.040
128.9970, 1885.481
130.2300, 1834.945
131.4640, 1899.433
132.6970, 1912.925
133.9300, 1870.424
135.1630, 1842.955
136.3950, 1927.530
137.6280, 1945.147
138.8600, 2037.808
140.0920, 2045.515
141.3240, 1998.267
142.5560, 2061.066
143.7880, 2113.911
145.0190, 2113.803
146.2510, 2212.742
147.4820, 2189.730
148.7130, 2302.766
149.9440, 2259.850
151.1750, 2374.982
152.4050, 2396.165
153.6360, 2408.395
154.8660, 2429.674
156.0960, 2459.003
157.3260, 2494.379
158.5560, 2503.805
159.7850, 2575.280
161.0150, 2634.803
162.2440, 2654.375
163.4730, 2758.997
164.7020, 2750.665
165.9310, 2819.382
167.1590, 2858.147
168.3880, 2911.960
169.6160, 2910.185
170.8440, 2894.729
172.0720, 2879.684
173.3000, 2881.686
174.5280, 2850.736
175.7550, 2799.832
176.9820, 2735.974
178.2100, 2631.162
179.4370, 2516.395
180.6630, 2484.674
181.8900, 2517.999
183.1170, 2421.367
184.3430, 2219.780
185.5690, 2197.236
186.7950, 2008.738
188.0210, 1990.284
189.2470, 1843.877
190.4720, 1751.733
191.6970, 1686.536
192.9230, 1586.286
194.1480, 1492.063
195.3730, 1412.830
196.5970, 1329.591
197.8220, 1249.340
199.0460, 1181.072
200.2700, 1101.751
201.4940, 1048.453
202.7180, 964.1579
203.9420, 951.8301
205.1660, 880.5299
206.3890, 822.1573
207.6120, 814.7755
208.8350, 771.4330
210.0580, 711.0538
211.2810, 679.7169
212.5040, 652.4413
213.7260, 603.0794
214.9480, 617.6865
216.1700, 572.3939
217.3920, 577.9634
218.6140, 484.8615
219.8360, 482.2373
221.0570, 436.1821
222.2790, 400.8863
223.5000, 417.7982
224.7210, 397.6414
225.9410, 359.6998
227.1620, 303.0009
228.3820, 308.4120
229.6030, 293.8617
230.8230, 277.3558
232.0430, 248.8909
233.2630, 258.4647
234.4820, 212.0890
235.7020, 207.7495
236.9210, 237.4543
238.1400, 199.1949
239.3590, 188.9730
240.5780, 165.7932
241.7970, 190.6479
243.0150, 195.5405
244.2340, 153.4671
245.4520, 151.4396
246.6700, 129.4464
247.8880, 133.5002
249.1060, 123.5913
250.3230, 116.7164
251.5400, 99.88330
252.7580, 97.08405
253.9750, 95.31769
255.1920, 65.58899
256.4080, 79.97583
257.6250, 73.23822
258.8410, 91.61938
260.0580, 89.03455
261.2740, 91.48560
262.4900, 94.73468
263.7050, 91.89978
264.9210, 94.04523
266.1360, 87.62512
267.3520, 90.23376
268.5670, 85.87360
269.7820, 90.54187
270.9960, 83.24579
272.2110, 93.98315
273.4250, 124.7487
274.6400, 138.5430
275.8540, 127.3713
277.0680, 141.2269
278.2810, 124.1181
279.4950, 139.0403
280.7090, 177.9914
281.9220, 155.9718
283.1350, 215.9792
284.3480, 181.0135
285.5610, 248.0746
286.7730, 295.1621
287.9860, 363.2759
289.1980, 356.4158
290.4100, 478.5844
291.6220, 548.7795
292.8340, 662.0049
294.0460, 764.2590
295.2570, 946.5399
296.4690, 1093.850
297.6800, 1207.186
298.8910, 1440.549
300.1020, 1683.936
301.3120, 1861.350
302.5230, 2172.787
303.7330, 2313.251
304.9440, 2414.740
306.1540, 2454.251
307.3630, 2604.785
308.5730, 2694.343
309.7830, 2744.922
310.9920, 2867.525
312.2010, 3002.149
313.4100, 3065.796
314.6190, 2929.464
315.8280, 2894.155
317.0370, 2736.865
318.2450, 2454.598
319.4530, 2331.350
320.6610, 2143.124
321.8690, 2035.916
323.0770, 2033.729
324.2850, 2074.561
325.4920, 2047.413
326.6990, 2223.284
327.9060, 2286.366
329.1130, 2508.275
330.3200, 2664.211
331.5270, 2878.157
332.7330, 3005.234
333.9390, 3134.026
335.1450, 3325.242
336.3510, 3383.262
337.5570, 3456.284
338.7630, 3397.348
339.9680, 3307.789
341.1740, 3199.162
342.3790, 3053.291
343.5840, 2862.702
344.7890, 2684.103
345.9930, 2410.330
347.1980, 2275.545
348.4020, 2033.642
349.6060, 1832.729
350.8100, 1675.179
352.0140, 1495.844
353.2180, 1272.804
354.4210, 1091.152
355.6250, 1004.222
356.8280, 918.9988
358.0310, 835.6174
359.2340, 768.2690
360.4360, 687.3355
361.6390, 637.8144
362.8410, 674.3146
364.0430, 634.8403
365.2450, 636.5334
366.4470, 645.5089
367.6490, 629.1054
368.8510, 650.9036
370.0520, 653.2195
371.2530, 622.0113
372.4540, 686.4922
373.6550, 671.1906
374.8560, 660.2402
376.0560, 625.6968
377.2570, 618.9161
378.4570, 587.5154
379.6570, 598.2978
380.8570, 542.9042
382.0570, 535.7180
383.2560, 590.9500
384.4560, 610.3346
385.6550, 587.1932
386.8540, 656.7971
388.0530, 670.6869
389.2520, 660.4182
390.4510, 631.5009
391.6490, 686.6685
392.8470, 607.5809
394.0450, 713.8904
395.2430, 727.0535
396.4410, 716.5134
397.6390, 850.8006
398.8360, 936.2765
400.0340, 1002.127
401.2310, 1071.792
402.4280, 1263.557
403.6250, 1430.536
404.8210, 1514.082
406.0180, 1695.945
407.2140, 1818.931
408.4100, 1903.181
409.6060, 1916.472
410.8020, 1814.650
411.9980, 1732.394
413.1930, 1605.595
414.3890, 1461.432
415.5840, 1345.837
416.7790, 1274.053
417.9740, 1163.050
419.1680, 1067.006
420.3630, 1019.166
421.5570, 975.1792
422.7510, 956.1218
423.9450, 910.6396
425.1390, 925.2463
426.3330, 894.4358
427.5270, 862.6444
428.7200, 731.8443
429.9130, 649.0490
431.1060, 590.2583
432.2990, 552.4990
433.4920, 516.3187
434.6840, 482.7089
435.8770, 446.2391
437.0690, 418.5865
438.2610, 376.5461
439.4530, 355.7701
440.6450, 325.5048
441.8360, 277.1417
443.0280, 248.3866
444.2190, 219.2000
445.4100, 209.5370
446.6010, 174.3367
447.7920, 165.8743
448.9820, 181.1571
450.1730, 92.41602
451.3630, 121.8263
452.5530, 88.08514
453.7430, 85.47217
454.9330, 59.73273
456.1230, 54.02795
457.3120, 54.59485
458.5010, 44.85669
459.6910, 42.20966
460.8800, 35.47156
462.0680, 37.73328
463.2570, 50.99463
464.4460, 21.25549
465.6340, 34.51569
466.8220, 6.775024
468.0100, 16.09595
469.1980, 28.35315
470.3860, 10.18439
471.5730, 10.06799
472.7600, 0.3187870
473.9480, 16.56763
475.1350, 6.185486
476.3210, 25.94196
477.5080, 9.708313
478.6950, 18.52051
479.8810, 28.25311
481.0670, 4.961365
482.2530, 12.73755
483.4390, 32.53247
484.6250, 6.657715
485.8100, 9.155212
486.9960, 7.968872
488.1810, 0.7943730
489.3660, 17.39728
490.5510, 21.43652
491.7360, 38.91602
492.9200, 4.782898
494.1050, 29.40198
495.2890, 14.99323
496.4730, 10.10541
497.6570, 50.75238
498.8400, 8.420898
500.0240, 3.864380
501.2070, 3.816772
502.3910, 11.77728
503.5740, 7.392090
504.7570, 5.413940
505.9400, 4.702454
507.1220, 19.26520
508.3050, 5.272888
509.4870, 8.714539
510.6690, 35.31061
511.8510, 26.20093
513.0330, 1.754639
514.2140, 10.32806
515.3960, 10.59174
516.5770, 17.83185
517.7580, 6.956909
518.9390, 2.903198
520.1200, 45.03839
521.3010, 14.77625
522.4810, 23.41730
523.6610, 11.39606
524.8420, 1.169373
526.0220, 17.36621
527.2010, 30.38403
528.3810, 2.886780
529.5610, 21.61609
530.7400, 35.67944
531.9190, 9.991150
533.0980, 41.34186
534.2770, 4.719849
535.4560, 6.883728
536.6340, 23.52594
537.8120, 5.035583
538.9910, 9.582642
540.1690, 10.88324
541.3460, 0.3721310
542.5240, 12.62952
543.7020, 13.69128
544.8790, 0.4516600
546.0560, 8.802551
547.2330, 13.40204
548.4100, 1.358398
549.5870, 18.71368
550.7630, 18.05670
551.9400, 23.53009
553.1160, 7.848938
554.2920, 24.15112
555.4680, 9.480164
556.6440, 2.215759
557.8190, 26.02643
558.9950, 19.25677
560.1700, 3.526428
561.3450, 33.66699
562.5200, 10.15076
563.6950, 8.004150
564.8690, 18.14087
566.0440, 16.26300
567.2180, 36.36987
568.3920, 34.46552
569.5660, 39.54956
570.7400, 38.62244
571.9130, 42.68402
573.0870, 34.73419
574.2600, 13.77264
575.4330, 26.79407
576.6060, 4.802307
577.7790, 9.789490
578.9520, 23.75769
580.1240, 6.711670
581.2960, 17.64526
582.4690, 20.56250
583.6410, 54.46448
584.8120, 16.35480
585.9840, 33.22833
587.1560, 17.08923
588.3270, 24.93347
589.4980, 38.76312
590.6690, 42.58093
591.8400, 30.38696
593.0110, 46.26367
594.1810, 31.96082
595.3510, 52.72882
596.5220, 43.48517
597.6920, 24.22980
598.8610, 52.95953
600.0310, 34.67755
601.2010, 81.38281
602.3700, 45.07654
603.5390, 90.75854
604.7080, 83.42883
605.8770, 58.08746
607.0460, 49.73450
608.2140, 37.36993
609.3830, 57.99298
610.5510, 29.60449
611.7190, 65.01117
612.8870, 49.59741
614.0550, 77.16406
615.2220, 56.72729
616.3900, 70.16663
617.5570, 60.89630
618.7240, 77.20813
619.8910, 53.72577
621.0580, 89.25189
622.2240, 32.74695
623.3910, 59.87372
624.5570, 61.07941
625.7230, 42.54022
626.8890, 39.72906
628.0550, 80.93719
629.2200, 36.33124
630.3860, 52.74799
631.5510, 17.29327
632.7160, 44.85706
633.8810, 19.06873
635.0460, 16.07526
636.2100, 40.79626
637.3750, 27.14087
638.5390, 13.77509
639.7030, 6.711243
640.8670, 44.81427
642.0310, 36.89563
643.1950, 16.57355
644.3580, 39.84918
645.5210, 7.884827
646.6850, 24.36035
647.8480, 46.45068
649.0100, 25.27313
650.1730, 47.48975
651.3350, 10.51910
652.4980, 17.04089
653.6600, 25.09625
654.8220, 8.528687
655.9840, 3.367798
657.1450, 26.44678
658.3070, 53.86212
659.4680, 2.792114
660.6300, 23.80884
661.7910, 33.91968
662.9510, 6.213623
664.1120, 26.30719
665.2730, 9.009766
666.4330, 5.524231
667.5930, 19.59070
668.7530, 12.08160
669.9130, 24.96405
671.0730, 18.17432
672.2320, 1.039185
673.3920, 19.82532
674.5510, 4.872620
675.7100, 17.52832
676.8690, 2.336243
678.0280, 7.852844
679.1860, 8.547668
680.3450, 5.058899
681.5030, 10.79889
682.6610, 5.531616
683.8190, 12.23181
684.9770, 11.20605
686.1340, 8.256470
687.2920, 16.59454
688.4490, 1.434509
689.6060, 35.20435
690.7630, 9.061951
691.9200, 17.78760
693.0760, 24.07562
694.2330, 6.090088
695.3890, 18.11194
696.5450, 3.749695
697.7010, 14.58081
698.8570, 38.23328
700.0130, 6.731873
701.1680, 40.62927
702.3230, 37.67902
703.4780, 19.80231
704.6330, 56.35370
705.7880, 23.82001
706.9430, 44.70667
708.0970, 51.57721
709.2520, 26.45935
710.4060, 74.33936
711.5600, 42.21710
712.7140, 70.06604
713.8670, 64.33838
715.0210, 110.0425
716.1740, 68.84778
717.3270, 75.90302
718.4800, 67.50122
719.6330, 84.38000
720.7860, 86.74994
721.9380, 100.2194
723.0910, 104.0828
724.2430, 88.37921
725.3950, 138.1536
726.5470, 121.4666
727.6980, 151.0431
728.8500, 129.8756
730.0010, 177.7334
731.1530, 158.4409
732.3040, 191.3009
733.4550, 193.0336
734.6050, 193.8938
735.7560, 236.7511
736.9060, 224.2754
738.0560, 207.1366
739.2060, 212.9073
740.3560, 263.7695
741.5060, 301.6326
742.6560, 315.4972
743.8050, 349.6168
744.9540, 366.2302
746.1030, 388.0985
747.2520, 440.9056
748.4010, 457.7765
749.5500, 497.4421
750.6980, 576.3170
751.8460, 586.1949
752.9950, 717.0757
754.1420, 784.9617
755.2900, 880.8530
756.4380, 988.7518
757.5850, 1204.653
758.7330, 1341.558
759.8800, 1537.468
761.0270, 1716.292
762.1730, 1973.209
763.3200, 2186.135
764.4670, 2308.062
765.6130, 2460.989
766.7590, 2440.925
767.9050, 2354.842
769.0510, 2230.785
770.1960, 2162.371
771.3420, 1996.335
772.4870, 1962.051
773.6320, 1855.734
774.7770, 1772.723
775.9220, 1870.672
777.0670, 1925.418
778.2110, 2002.935
779.3560, 2084.958
780.5000, 2288.988
781.6440, 2557.884
782.7880, 2653.934
783.9320, 2933.723
785.0750, 3084.769
786.2180, 3278.848
787.3620, 3293.927
788.5050, 3315.017
789.6480, 3340.960
790.7900, 3360.053
791.9330, 3489.184
793.0750, 3683.310
794.2170, 3964.779
795.3590, 4516.939
796.5010, 5247.116
797.6430, 6212.094
798.7850, 7661.302
799.9260, 9339.516
801.0670, 11599.71
802.2080, 14386.12
803.3490, 17948.66
804.4900, 21788.91
805.6310, 25096.17
806.7710, 27713.84
807.9110, 28883.13
809.0510, 29527.44
810.1910, 30399.75
811.3310, 31243.09
812.4710, 32490.44
813.6100, 33093.79
814.7490, 33149.16
815.8880, 31646.55
817.0270, 28888.94
818.1660, 25050.34
819.3050, 21005.51
820.4430, 17158.93
821.5820, 13936.12
822.7200, 11305.36
823.8580, 9422.839
824.9950, 7801.943
826.1330, 6602.444
827.2710, 5813.953
828.4080, 5009.328
829.5450, 4481.853
830.6820, 4013.386
831.8190, 3593.849
832.9560, 3318.406
834.0920, 3081.976
835.2280, 2784.561
836.3650, 2573.154
837.5010, 2334.806
838.6360, 2270.750
839.7720, 2073.383
840.9080, 1946.127
842.0430, 1845.779
843.1780, 1670.576
844.3130, 1671.244
845.4480, 1566.920
846.5830, 1478.602
847.7170, 1416.291
848.8520, 1318.987
849.9860, 1239.691
851.1200, 1225.403
852.2540, 1112.124
853.3870, 1124.856
854.5210, 943.5996
855.6540, 927.3591
856.7880, 894.1221
857.9210, 843.9062
859.0540, 805.6875
860.1860, 735.4756
861.3190, 733.2737
862.4510, 701.0793
863.5840, 623.8943
864.7160, 631.7177
865.8480, 582.5483
866.9790, 578.3862
868.1110, 495.2319
869.2420, 522.0846
870.3740, 489.9454
871.5050, 465.8132
872.6360, 466.6881
873.7660, 445.5715
874.8970, 414.4622
876.0280, 364.3604
877.1580, 364.2656
878.2880, 346.3438
879.4180, 358.2634
880.5480, 315.3354
881.6770, 344.2690
882.8070, 294.2103
883.9360, 294.1588
885.0650, 316.1147
886.1940, 281.0789
887.3230, 275.3560
888.4520, 325.5819
889.5800, 251.3094
890.7090, 242.8553
891.8370, 192.1788
892.9650, 188.1838
894.0930, 220.1954
895.2200, 223.2137
896.3480, 202.2388
897.4750, 199.2710
898.6020, 176.3096
899.7290, 163.2159
900.8560, 152.6746
901.9830, 129.4650
903.1090, 133.5298
904.2360, 113.6012
905.3620, 114.5575
906.4880, 107.6433
907.6140, 106.9784
908.7400, 111.8165
909.8650, 80.86365
910.9900, 115.0251
912.1160, 94.14465
913.2410, 74.27393
914.3660, 32.40906
915.4900, 105.8958
916.6150, 81.04260
917.7390, 126.5448
918.8640, 139.2976
919.9880, 151.1816
921.1120, 136.3572
922.2350, 146.5381
923.3590, 117.7244
924.4820, 61.91602
925.6060, 87.38849
926.7290, 29.42676
927.8520, 21.78400
928.9740, 42.08771
930.0970, 68.31305
931.2190, 34.26001
932.3420, 60.08337
933.4640, 53.16541
934.5860, 2.410156
935.7080, 38.66461
936.8290, 12.08191
937.9510, 12.46661
939.0720, 13.20984
940.1930, 5.736328
941.3140, 12.12885
942.4350, 49.32910
943.5560, 25.42102
944.6760, 47.33289
945.7960, 19.63049
946.9170, 43.01807
948.0370, 19.31299
949.1560, 42.61121
950.2760, 19.92767
951.3960, 51.23230
952.5150, 36.66400
953.6340, 68.33679
954.7530, 31.73004
955.8720, 47.17236
956.9910, 41.79688
958.1090, 38.21722
959.2280, 31.54517
960.3460, 42.95837
961.4640, 28.29303
962.5820, 17.66364
963.6990, 46.00354
964.8170, 9.345520
965.9340, 30.68964
967.0510, 62.36304
968.1690, 11.75061
969.2850, 19.14148
970.4020, 35.49359
971.5190, 3.033264
972.6350, 13.67847
973.7510, 55.75415
974.8670, 5.873779
975.9830, 40.48077
977.0990, 7.163452
978.2150, 22.19214
979.3300, 8.548889
980.4450, 71.90674
981.5600, 2.267273
982.6750, 13.62720
983.7900, 26.98804
984.9050, 13.34985
986.0190, 15.71246
987.1340, 54.07587
988.2480, 32.44000
989.3620, 0.1952510
990.4750, 44.16992
991.5890, 0.4643550
992.7020, 14.90143
993.8160, 45.26770
994.9290, 32.63434
996.0420, 26.00122
997.1550, 45.36835
998.2670, 38.73560
999.3800, 2.103027
1000.492, 44.47046
1001.604, 33.83801
1002.716, 58.20544
1003.828, 61.63361
1004.940, 23.00085
1006.051, 14.36786
1007.163, 32.73462
1008.274, 28.10101
1009.385, 24.46716
1010.496, 5.832825
1011.606, 4.801941
1012.717, 5.643066
1013.827, 3.994629
1014.937, 34.36542
1016.047, 20.84174
1017.157, 36.20032
1018.267, 26.66711
1019.377, 8.024109
1020.486, 6.619751
1021.595, 5.267578
1022.704, 13.72455
1023.813, 10.46539
1024.922, 6.244446
1026.030, 2.085266
1027.139, 24.41364
1028.247, 36.74072
1029.355, 34.70258
1030.463, 37.94000
1031.571, 23.71411
1032.678, 26.03583
1033.786, 15.35608
1034.893, 11.67468
1036.000, 16.99176
1037.107, 25.30719
1038.214, 12.37897
1039.321, 38.92535
1040.427, 1.771973
1041.533, 8.473816
1042.639, 9.816101
1043.745, 13.89587
1044.851, 9.380737
1045.957, 4.655396
1047.062, 19.92773
1048.168, 1.802063
1049.273, 7.462585
1050.378, 33.27490
1051.482, 21.03473
1052.587, 6.810364
1053.692, 18.40515
1054.796, 16.27649
1055.900, 14.82892
1057.004, 21.03711
1058.108, 14.75720
1059.212, 7.565430
1060.315, 12.38373
1061.418, 5.785095
1062.522, 23.95013
1063.625, 20.88770
1064.728, 2.743164
1065.830, 6.606934
1066.933, 37.51990
1068.035, 11.64374
1069.137, 19.76465
1070.239, 13.28979
1071.341, 0.1862790
1072.443, 3.909668
1073.545, 6.000122
1074.646, 5.897339
1075.747, 5.028320
1076.848, 1.964539
1077.949, 14.09033
1079.050, 9.141907
1080.150, 18.18896
1081.251, 18.23285
1082.351, 14.27338
1083.451, 20.31030
1084.551, 9.343872
1085.651, 12.62726
1086.750, 11.38635
1087.850, 8.604431
1088.949, 5.391479
1090.048, 11.38092
1091.147, 37.36578
1092.246, 12.34711
1093.345, 25.32391
1094.443, 15.29712
1095.541, 29.26636
1096.639, 46.23181
1097.737, 30.19373
1098.835, 6.151794
1099.933, 16.10315
1101.030, 21.94965
1102.128, 35.97626
1103.225, 7.101379
1104.322, 26.76697
1105.419, 14.34698
1106.515, 20.24762
1107.612, 45.04517
1108.708, 44.48303
1109.804, 33.69904
1110.900, 60.59155
1111.996, 35.48059
1113.092, 25.36566
1114.187, 56.24695
1115.283, 72.12433
1116.378, 52.99786
1117.473, 65.03754
1118.568, 33.73340
1119.662, 51.59534
1120.757, 56.45337
1121.851, 49.29956
1122.946, 51.14984
1124.040, 52.98444
1125.134, 82.82684
1126.227, 73.96753
1127.321, 78.06030
1128.414, 67.33112
1129.508, 67.16248
1130.601, 48.98993
1131.693, 36.81342
1132.786, 64.63287
1133.879, 42.44922
1134.971, 19.26160
1136.064, 55.06934
1137.156, 41.87317
1138.248, 45.67310
1139.339, 86.46893
1140.431, 33.26074
1141.522, 44.04858
1142.614, 73.83240
1143.705, 18.44623
1144.796, 40.22131
1145.887, 44.84705
1146.977, 16.61871
1148.068, 65.38525
1149.158, 17.14789
1150.248, 34.90533
1151.338, 90.65881
1152.428, 76.10199
1153.518, 67.59924
1154.607, 72.59796
1155.696, 59.78101
1156.785, 68.18933
1157.874, 76.91913
1158.963, 44.64496
1160.052, 71.36694
1161.141, 61.08508
1162.229, 49.80322
1163.317, 84.51752
1164.405, 68.22803
1165.493, 65.93469
1166.581, 68.63745
1167.668, 59.30133
1168.756, 61.05255
1169.843, 53.91449
1170.930, 60.60248
1172.017, 65.04382
1173.103, 90.04584
1174.190, 73.72260
1175.276, 36.34821
1176.363, 83.01825
1177.449, 53.68219
1178.535, 66.34491
1179.620, 39.70264
1180.706, 74.37531
1181.791, 60.71008
1182.877, 77.85034
1183.962, 39.80188
1185.047, 50.44812
1186.131, 54.08887
1187.216, 67.72412
1188.300, 64.35596
1189.385, 74.70978
1190.469, 87.49982
1191.553, 56.98529
1192.637, 56.51819
1193.720, 63.13446
1194.804, 54.03088
1195.887, 34.05243
1196.970, 35.05609
1198.053, 92.66077
1199.136, 101.2573
1200.219, 66.85638
1201.301, 81.16113
1202.383, 57.27588
1203.465, 94.60889
1204.547, 41.33484
1205.629, 71.74176
1206.711, 61.51611
1207.792, 67.47156
1208.874, 64.04309
1209.955, 60.52600
1211.036, 63.45508
1212.117, 66.67810
1213.198, 68.23608
1214.278, 75.80664
1215.359, 87.25092
1216.439, 41.45483
1217.519, 54.94031
1218.599, 41.37750
1219.678, 61.63434
1220.758, 38.09717
1221.837, 43.65271
1222.917, 54.12543
1223.996, 47.67700
1225.075, 51.19312
1226.153, 92.74115
1227.232, 42.28711
1228.310, 93.83112
1229.389, 86.04657
1230.467, 63.54785
1231.545, 59.04572
1232.622, 50.62250
1233.700, 41.05426
1234.777, 31.63965
1235.855, 61.09985
1236.932, 25.62048
1238.009, 87.15771
1239.086, 50.39270
1240.162, 67.92761
1241.239, 47.51660
1242.315, 46.04846
1243.391, 50.57727
1244.467, 54.10938
1245.543, 36.63989
1246.619, 45.16895
1247.694, 31.69641
1248.769, 55.22241
1249.844, 75.74695
1250.919, 31.27002
1251.994, 63.79187
1253.069, 29.31213
1254.144, 60.83105
1255.218, 59.40698
1256.292, 66.92310
1257.366, 20.44214
1258.440, 51.01648
1259.514, 41.52881
1260.587, 82.03979
1261.661, 52.54944
1262.734, 70.24084
1263.807, 35.74805
1264.880, 46.19348
1265.952, 66.72827
1267.025, 68.23230
1268.097, 73.66406
1269.170, 57.23669
1270.242, 60.73706
1271.314, 71.24792
1272.385, 38.75574
1273.457, 41.17151
1274.528, 31.66821
1275.600, 31.16943
1276.671, 38.63245
1277.742, 36.12646
1278.812, 29.51038
1279.883, 20.00195
1280.954, 37.49243
1282.024, 40.98315
1283.094, 50.47400
1284.164, 38.96741
1285.234, 51.04333
1286.303, 48.18665
1287.373, 60.45251
1288.442, 43.94641
1289.511, 38.43933
1290.580, 27.83167
1291.649, 31.32239
1292.718, 21.83716
1293.786, 25.32581
1294.855, 12.81348
1295.923, 32.30017
1296.991, 6.854126
1298.059, 0.3386230
1299.126, 29.89502
1300.194, 22.38135
1301.261, 14.86816
1302.328, 12.35693
1303.395, 34.97705
1304.462, 25.46948
1305.529, 27.96082
1306.596, 36.45142
1307.662, 0.9414060
1308.728, 7.431763
1309.794, 3.928101
1310.860, 1.584961
1311.926, 6.605347
1312.991, 10.43884
1314.057, 10.94348
1315.122, 28.44800
1316.187, 16.95227
1317.252, 26.45642
1318.317, 15.96643
1319.381, 8.479858
1320.446, 60.99719
1321.510, 16.51526
1322.574, 36.03308
1323.638, 22.55847
1324.702, 4.913330
1325.766, 42.61768
1326.829, 33.14880
1327.892, 46.68005
1328.956, 13.21130
1330.019, 18.74841
1331.081, 34.28796
1332.144, 57.82886
1333.206, 48.99146
1334.269, 19.92554
1335.331, 40.47559
1336.393, 22.12390
1337.455, 22.76892
1338.516, 28.42773
1339.578, 22.06848
1340.639, 30.46802
1341.701, 33.19385
1342.762, 39.36975
1343.822, 38.37671
1344.883, 35.83997
1345.944, 25.39233
1347.004, 23.94995
1348.064, 13.50903
1349.124, 15.09851
1350.184, 16.70776
1351.244, 14.20068
1352.304, 27.81287
1353.363, 19.36597
1354.422, 27.91895
1355.481, 22.47217
1356.540, 19.02539
1357.599, 16.72815
1358.657, 15.12830
1359.716, 3.750610
1360.774, 11.24023
1361.832, 2.802124
1362.890, 23.85596
1363.948, 38.41821
1365.006, 46.98071
1366.063, 27.39050
1367.120, 33.15808
1368.178, 1.706787
1369.234, 41.28137
1370.291, 20.82898
1371.348, 32.19141
1372.404, 28.73792
1373.461, 55.28442
1374.517, 21.83118
1375.573, 43.38757
1376.629, 40.93433
1377.684, 26.48120
1378.740, 29.36829
1379.795, 19.57556
1380.850, 23.12280
1381.905, 2.670288
1382.960, 23.21741
1384.015, 15.80737
1385.070, 16.64197
1386.124, 54.90100
1387.178, 37.44409
1388.232, 36.98706
1389.286, 2.471802
1390.340, 24.11987
1391.393, 38.71692
1392.447, 10.31702
1393.500, 41.85510
1394.553, 66.42065
1395.606, 40.95874
1396.659, 45.49634
1397.711, 15.03418
1398.764, 15.57202
1399.816, 25.11023
1400.868, 51.63562
1401.920, 16.84595
1402.972, 26.66748
1404.023, 25.18030
1405.075, 65.69287
1406.126, 73.19275
1407.177, 66.95032
1408.228, 66.94287
1409.279, 45.68921
1410.330, 38.18677
1411.380, 26.68335
1412.431, 24.19580
1413.481, 30.76099
1414.531, 48.31189
1415.580, 23.80237
1416.630, 13.70483
1417.680, 47.77698
1418.729, 13.25610
1419.778, 24.76404
1420.827, 45.23975
1421.876, 25.71411
1422.925, 3.187622
1423.973, 49.66504
1425.022, 3.118042
1426.070, 69.58960
1427.118, 33.05750
1428.166, 59.52234
1429.214, 0.9001460
1430.261, 39.60071
1431.309, 29.06274
1432.356, 27.54944
1433.403, 70.00793
1434.450, 26.42224
1435.497, 19.00208
1436.543, 65.41895
1437.590, 23.83386
1438.636, 50.45239
1439.682, 43.42529
1440.728, 55.04102
1441.774, 64.66077
1442.819, 41.26904
1443.865, 42.89185
1444.910, 74.51599
1445.955, 59.89136
1447.000, 70.34717
1448.045, 72.49036
1449.090, 66.76978
1450.134, 59.39832
1451.178, 46.02759
1452.223, 45.95410
1453.267, 38.08533
1454.310, 43.91357
1455.354, 39.54407
1456.398, 42.17554
1457.441, 64.80811
1458.484, 22.44165
1459.527, 45.07581
1460.570, 37.71118
1461.613, 3.347778
1462.655, 3.936646
1463.698, 2.502930
1464.740, 4.828003
1465.782, 14.58887
1466.824, 33.11902
1467.866, 42.71997
1468.907, 65.31250
1469.948, 22.90564
1470.990, 25.49927
1472.031, 46.09338
1473.072, 77.68811
1474.112, 25.20312
1475.153, 17.30969
1476.194, 52.88733
1477.234, 9.203491
1478.274, 25.77771
1479.314, 51.30774
1480.354, 36.88062
1481.393, 44.43652
1482.433, 38.99524
1483.472, 36.88855
1484.511, 7.441528
1485.550, 14.00500
1486.589, 29.54944
1487.628, 6.895264
1488.666, 23.66101
1489.704, 69.21680
1490.743, 5.246948
1491.781, 54.73987
1492.819, 31.27600
1493.856, 16.69214
1494.894, 74.10461
1495.931, 12.35925
1496.968, 54.93323
1498.005, 35.46606
1499.042, 25.99988
1500.079, 21.52234
1501.115, 33.05884
1502.152, 65.59875
1503.188, 46.14050
1504.224, 45.67908
1505.260, 39.21619
1506.296, 26.07288
1507.331, 46.28296
1508.367, 14.80957
1509.402, 24.33142
1510.437, 41.84802
1511.472, 75.34595
1512.507, 36.85034
1513.541, 29.88794
1514.576, 12.88916
1515.610, 11.73035
1516.644, 11.21094
1517.678, 30.31506
1518.712, 19.81274
1519.746, 39.25452
1520.779, 46.61047
1521.813, 50.13416
1522.846, 55.65442
1523.879, 52.29370
1524.912, 53.29150
1525.944, 42.43237
1526.977, 50.85168
1528.009, 59.05530
1529.041, 51.96753
1530.073, 47.84875
1531.105, 30.19397
1532.137, 40.48718
1533.168, 36.80127
1534.200, 53.09729
1535.231, 46.37366
1536.262, 18.43652
1537.293, 5.645020
1538.324, 8.842529
1539.354, 27.77002
1540.385, 21.30054
1541.415, 22.51929
1542.445, 34.32422
1543.475, 15.34387
1544.505, 36.39075
1545.534, 40.57214
1546.564, 34.73486
1547.593, 17.06042
1548.622, 16.38208
1549.651, 60.70142
1550.680, 44.19373
1551.708, 42.88440
1552.737, 1.136841
1553.765, 16.12646
1554.793, 55.51501
1555.821, 20.52502
1556.849, 41.34033
1557.877, 40.79041
1558.904, 1.326660
1559.932, 28.00012
1560.959, 15.72400
1561.986, 0.1665040
1563.013, 0.0000000E+00
##END=



