##NAMES=Monazite-(Ce)
##RRUFFID=R040106
##IDEAL CHEMISTRY=CePO_4_
##LOCALITY=Angola
##OWNER=RRUFF
##SOURCE=University of Arizona Mineral Museum
##DESCRIPTION=Brown massive fragment
##STATUS=The identification of this mineral has been confirmed by X-ray diffraction and chemical analysis
##URL=rruff.info/R040106
##MEASURED CHEMISTRY=(Ce_0.41_La_0.17_Nd_0.17_Th_0.14_Ca_0.06_Y_0.04_)(P_0.95_Si_0.05_)O_4_
##PIN_ID=L00169
##ORIENTATION=Laser parallel to b* (0 1 0). Fiducial mark perpendicular to laser is parallel to c [0 0 1]
89.890, 0.000
91.284, 6.899
92.678, 31.414
94.071, 8.731
95.465, 2.340
96.858, 70.856
98.251, 83.010
99.644, 173.827
101.036, 279.369
102.428, 281.924
103.820, 320.927
105.212, 315.929
106.604, 462.571
107.995, 569.582
109.387, 654.726
110.777, 809.798
112.168, 945.621
113.559, 1035.030
114.949, 1030.879
116.339, 1159.043
117.729, 1057.424
119.119, 1020.927
120.508, 1082.456
121.897, 990.986
123.286, 954.517
124.675, 979.987
126.063, 865.324
127.452, 784.470
128.840, 810.374
130.228, 664.991
131.615, 769.282
133.003, 696.191
134.390, 702.664
135.777, 599.654
137.164, 577.128
138.550, 637.058
139.937, 584.418
141.323, 671.190
142.709, 631.357
144.094, 663.904
145.480, 691.202
146.865, 731.461
148.250, 865.067
149.635, 896.010
151.019, 1049.345
152.403, 1171.388
153.788, 1249.286
155.171, 1344.852
156.555, 1415.869
157.939, 1506.358
159.322, 1533.111
160.705, 1624.641
162.088, 1673.396
163.470, 1612.377
164.853, 1543.583
166.235, 1649.012
167.617, 1666.663
168.998, 1718.536
170.380, 1795.630
171.761, 1795.945
173.142, 1817.412
174.523, 1768.843
175.904, 1760.260
177.284, 1659.701
178.664, 1388.188
180.044, 1269.735
181.424, 1206.358
182.803, 964.070
184.183, 895.878
185.562, 697.791
186.940, 579.817
188.319, 471.960
189.698, 396.228
191.076, 274.622
192.454, 305.149
193.831, 212.810
195.209, 96.609
196.586, 148.547
197.963, 83.627
199.340, 164.852
200.717, 16.779
202.093, 107.737
203.470, 47.401
204.846, 90.213
206.221, 61.174
207.597, 116.285
208.972, 231.545
210.347, 297.956
211.722, 248.385
213.097, 336.390
214.472, 358.222
215.846, 498.469
217.220, 476.864
218.594, 465.901
219.967, 519.881
221.341, 500.427
222.714, 543.683
224.087, 468.927
225.460, 455.339
226.832, 443.975
228.204, 445.880
229.577, 429.998
230.948, 408.283
232.320, 342.722
233.692, 309.928
235.063, 278.653
236.434, 223.938
237.805, 222.970
239.175, 224.477
240.545, 206.057
241.916, 221.935
243.286, 137.545
244.655, 170.298
246.025, 104.196
247.394, 248.236
248.763, 127.419
250.132, 219.745
251.501, 255.212
252.869, 232.822
254.237, 218.573
255.605, 246.148
256.973, 244.115
258.340, 279.804
259.708, 304.254
261.075, 370.307
262.442, 440.762
263.808, 501.559
265.175, 617.669
266.541, 682.073
267.907, 804.753
269.273, 922.693
270.639, 993.585
272.004, 1048.304
273.369, 1164.952
274.734, 1300.817
276.099, 1406.890
277.463, 1430.162
278.828, 1680.629
280.192, 1695.283
281.556, 1790.121
282.919, 1755.135
284.283, 1880.323
285.646, 1715.680
287.009, 1781.201
288.372, 1636.884
289.734, 1642.726
291.097, 1618.720
292.459, 1414.866
293.821, 1521.159
295.183, 1407.599
296.544, 1286.182
297.905, 1303.904
299.266, 1200.767
300.627, 1117.766
301.988, 987.899
303.348, 1033.167
304.709, 878.566
306.069, 965.097
307.428, 779.756
308.788, 807.544
310.147, 702.457
311.507, 638.495
312.865, 582.658
314.224, 578.944
315.583, 489.353
316.941, 482.880
318.299, 512.522
319.657, 275.278
321.015, 298.146
322.372, 277.125
323.729, 249.216
325.086, 96.416
326.443, 173.725
327.800, 35.143
329.156, 32.669
330.512, 75.698
331.868, 61.967
333.224, 120.864
334.579, 21.220
335.935, 182.199
337.290, 224.100
338.645, 202.928
339.999, 85.679
341.354, 142.335
342.708, 110.905
344.062, 232.384
345.416, 44.791
346.769, 127.098
348.123, 9.316
349.476, 6.568
350.829, 17.442
352.182, 1.350
353.534, 202.845
354.887, 260.145
356.239, 330.549
357.591, 333.058
358.942, 493.806
360.294, 624.994
361.645, 699.812
362.996, 765.085
364.347, 871.257
365.698, 984.185
367.048, 1066.901
368.398, 1201.526
369.748, 1303.949
371.098, 1366.473
372.448, 1579.097
373.797, 1651.817
375.146, 1754.613
376.495, 1787.482
377.844, 1970.374
379.192, 2123.312
380.540, 2286.306
381.889, 2259.347
383.236, 2472.463
384.584, 2585.674
385.932, 2598.981
387.279, 2942.386
388.626, 2875.888
389.973, 3079.485
391.319, 3093.181
392.666, 3346.969
394.012, 3350.853
395.358, 3444.831
396.704, 3728.902
398.049, 3833.066
399.394, 3897.323
400.740, 4111.674
402.084, 4356.113
403.429, 4510.646
404.774, 4995.271
406.118, 5169.986
407.462, 5644.791
408.806, 6159.686
410.150, 6594.670
411.493, 7209.743
412.836, 7694.906
414.179, 8170.159
415.522, 8285.499
416.865, 8710.931
418.207, 8686.506
419.549, 8452.204
420.891, 8048.039
422.233, 7234.012
423.575, 6790.117
424.916, 6066.381
426.257, 5482.795
427.598, 4749.374
428.939, 4396.099
430.279, 4052.983
431.619, 3760.006
432.959, 3527.189
434.299, 3434.525
435.639, 3344.380
436.978, 3439.706
438.318, 3387.522
439.657, 3665.492
440.996, 3803.600
442.334, 3901.886
443.673, 4110.301
445.011, 4353.199
446.349, 4627.618
447.687, 4976.521
449.024, 5255.572
450.361, 5664.783
451.699, 6184.156
453.036, 6503.651
454.372, 7073.277
455.709, 7563.035
457.045, 8022.926
458.381, 8582.933
459.717, 8873.079
461.053, 9163.336
462.388, 9383.720
463.724, 9474.203
465.059, 9424.821
466.394, 9235.536
467.728, 8966.376
469.063, 8637.318
470.397, 8178.352
471.731, 7719.479
473.065, 7120.690
474.398, 6671.993
475.732, 6123.387
477.065, 5704.867
478.398, 5216.436
479.731, 4668.087
481.063, 4279.822
482.396, 3891.641
483.728, 3363.543
485.060, 3365.527
486.391, 2997.594
487.723, 2639.741
489.054, 2501.971
490.385, 2224.279
491.716, 2114.668
493.047, 1955.531
494.377, 1634.594
495.708, 1396.701
497.038, 1403.731
498.368, 1229.251
499.697, 995.634
501.027, 946.219
502.356, 944.977
503.685, 814.854
505.014, 720.396
506.342, 507.474
507.671, 519.017
508.999, 303.123
510.327, 253.586
511.655, 240.657
512.982, 152.145
514.310, 182.842
515.637, 30.612
516.964, 60.455
518.291, 33.629
519.617, 152.653
520.944, 80.344
522.270, 196.589
523.596, 170.517
524.921, 21.430
526.247, 80.283
527.572, 23.905
528.897, 31.163
530.222, 235.488
531.547, 329.882
532.871, 503.341
534.196, 576.867
535.520, 885.460
536.844, 790.119
538.167, 854.843
539.491, 689.633
540.814, 684.487
542.137, 421.407
543.460, 402.392
544.783, 295.440
546.105, 294.552
547.427, 366.727
548.749, 281.964
550.071, 356.264
551.393, 327.625
552.714, 356.048
554.035, 446.530
555.356, 493.074
556.677, 416.677
557.998, 623.339
559.318, 635.061
560.638, 784.840
561.958, 990.677
563.278, 1176.571
564.597, 1462.523
565.917, 1758.530
567.236, 2134.595
568.555, 2660.714
569.874, 2786.889
571.192, 3013.117
572.511, 2769.723
573.829, 2626.059
575.147, 2302.812
576.464, 1934.055
577.782, 1821.301
579.099, 1331.117
580.416, 1122.120
581.733, 1032.342
583.050, 1028.871
584.366, 901.370
585.683, 910.270
586.999, 833.259
588.315, 703.875
589.630, 736.298
590.946, 697.338
592.261, 705.911
593.576, 736.467
594.891, 753.314
596.206, 672.379
597.520, 695.199
598.834, 770.518
600.148, 853.457
601.462, 749.991
602.776, 900.628
604.089, 878.112
605.402, 960.442
606.715, 1045.289
608.028, 1204.447
609.341, 1195.115
610.653, 1320.914
611.965, 1376.219
613.277, 1641.802
614.589, 1957.078
615.901, 2040.586
617.212, 2147.893
618.523, 2489.393
619.834, 2334.577
621.145, 2543.997
622.456, 2380.933
623.766, 2311.357
625.076, 2384.544
626.386, 2055.682
627.696, 2073.980
629.006, 1852.398
630.315, 1640.122
631.624, 1668.133
632.933, 1459.856
634.242, 1614.683
635.551, 1454.562
636.859, 1455.255
638.167, 1415.955
639.475, 1422.662
640.783, 1381.376
642.090, 1288.095
643.398, 1308.819
644.705, 1224.548
646.012, 1353.281
647.318, 1329.018
648.625, 1357.759
649.931, 1233.512
651.237, 1366.275
652.543, 1111.058
653.849, 1283.846
655.155, 1156.659
656.460, 1171.506
657.765, 1272.383
659.070, 1119.271
660.375, 1184.178
661.679, 1276.100
662.984, 1130.055
664.288, 1237.014
665.592, 1231.989
666.895, 1266.964
668.199, 1314.938
669.502, 1261.912
670.805, 1330.885
672.108, 1266.854
673.411, 1522.819
674.713, 1287.780
676.016, 1438.601
677.318, 1509.080
678.620, 1415.027
679.921, 1408.618
681.223, 1447.276
682.524, 1462.405
683.825, 1559.540
685.126, 1474.464
686.427, 1488.382
687.727, 1524.294
689.028, 1604.200
690.328, 1530.100
691.628, 1536.993
692.927, 1534.879
694.227, 1562.757
695.526, 1580.628
696.825, 1516.491
698.124, 1468.345
699.423, 1526.191
700.721, 1396.028
702.020, 1428.856
703.318, 1394.676
704.616, 1301.484
705.913, 1196.284
707.211, 1115.073
708.508, 1062.118
709.805, 1016.473
711.102, 968.376
712.399, 971.122
713.695, 904.855
714.992, 878.577
716.288, 708.287
717.584, 763.984
718.879, 552.670
720.175, 582.343
721.470, 448.002
722.765, 405.648
724.060, 351.281
725.355, 289.899
726.649, 399.504
727.944, 141.095
729.238, 203.667
730.532, 140.224
731.825, 0.761
733.119, 117.237
734.412, 30.688
735.705, 8.093
736.998, 24.438
738.291, 84.268
739.584, 65.774
740.876, 122.985
742.168, 53.015
743.460, 119.134
744.752, 27.375
746.043, 122.693
747.334, 97.135
748.626, 164.688
749.916, 186.386
751.207, 53.238
752.498, 117.179
753.788, 57.241
755.078, 221.394
756.368, 26.718
757.658, 165.118
758.947, 162.660
760.237, 177.344
761.526, 118.176
762.815, 175.126
764.104, 167.223
765.392, 33.460
766.680, 59.774
767.969, 65.175
769.257, 60.667
770.544, 31.245
771.832, 96.895
773.119, 1.353
774.406, 62.455
775.693, 55.653
776.980, 94.272
778.267, 18.704
779.553, 32.364
780.839, 1.502
782.125, 105.318
783.411, 97.113
784.697, 156.887
785.982, 121.645
787.267, 75.386
788.552, 138.103
789.837, 130.805
791.122, 167.492
792.406, 177.166
793.690, 213.829
794.974, 274.479
796.258, 351.119
797.542, 382.003
798.825, 408.282
800.108, 473.972
801.391, 436.568
802.674, 497.153
803.957, 540.730
805.239, 550.296
806.522, 614.884
807.804, 572.400
809.085, 708.938
810.367, 697.466
811.649, 730.985
812.930, 801.496
814.211, 685.998
815.492, 786.490
816.772, 964.975
818.053, 948.450
819.333, 865.917
820.613, 1005.376
821.893, 1059.826
823.173, 1113.269
824.452, 1166.704
825.732, 1208.701
827.011, 1173.551
828.290, 1256.964
829.568, 1239.370
830.847, 1189.775
832.125, 1273.200
833.403, 1291.618
834.681, 1373.062
835.959, 1364.529
837.236, 1449.996
838.514, 1446.471
839.791, 1485.268
841.068, 1483.404
842.345, 1547.864
843.621, 1556.318
844.898, 1585.769
846.174, 1638.216
847.450, 1561.659
848.726, 1707.098
850.001, 1635.534
851.277, 1640.966
852.552, 1730.396
853.827, 1727.823
855.102, 1706.247
856.376, 1675.669
857.651, 1599.089
858.925, 1607.145
860.199, 1744.924
861.473, 1632.339
862.746, 1702.753
864.020, 1806.167
865.293, 1725.579
866.566, 1709.992
867.839, 1636.404
869.112, 1615.816
870.384, 1686.229
871.656, 1497.641
872.928, 1589.054
874.200, 1395.469
875.472, 1451.885
876.744, 1422.302
878.015, 1319.721
879.286, 1365.141
880.557, 1159.564
881.828, 1326.666
883.098, 1089.095
884.369, 1226.164
885.639, 1070.799
886.909, 1009.487
888.178, 1033.660
889.448, 912.709
890.717, 907.593
891.987, 904.229
893.256, 839.968
894.524, 781.368
895.793, 677.899
897.061, 671.579
898.330, 613.662
899.598, 578.185
900.865, 560.227
902.133, 454.354
903.401, 566.271
904.668, 517.040
905.935, 398.110
907.202, 401.754
908.468, 488.842
909.735, 276.391
911.001, 410.898
912.267, 382.625
913.533, 333.574
914.799, 456.070
916.064, 301.335
917.330, 254.167
918.595, 403.922
919.860, 339.246
921.124, 490.366
922.389, 368.861
923.653, 422.198
924.918, 551.802
926.182, 623.283
927.445, 665.146
928.709, 742.826
929.972, 876.058
931.236, 955.875
932.499, 1047.990
933.761, 1324.234
935.024, 1473.375
936.286, 1691.470
937.549, 1981.309
938.811, 2204.916
940.073, 2575.882
941.334, 2780.805
942.596, 3075.723
943.857, 3400.897
945.118, 3886.109
946.379, 4451.380
947.640, 4786.694
948.900, 5522.051
950.161, 5887.467
951.421, 6732.924
952.681, 7388.418
953.940, 8183.970
955.200, 8879.563
956.459, 10015.208
957.719, 11070.905
958.978, 12116.646
960.236, 13382.442
961.495, 15068.284
962.753, 16374.155
964.012, 18530.072
965.270, 20296.035
966.527, 22882.031
967.785, 25478.068
969.043, 27264.148
970.300, 30540.264
971.557, 31996.416
972.814, 33612.617
974.071, 33788.852
975.327, 33235.133
976.583, 32001.445
977.840, 29277.799
979.095, 26874.189
980.351, 23640.617
981.607, 20927.092
982.862, 18093.598
984.117, 16210.146
985.372, 14036.732
986.627, 12473.353
987.882, 11110.012
989.136, 9856.706
990.390, 8983.437
991.644, 8120.207
992.898, 7457.012
994.152, 6893.854
995.405, 6260.735
996.659, 6057.651
997.912, 5434.607
999.165, 5291.597
1000.417, 5018.625
1001.670, 4685.690
1002.922, 4452.790
1004.174, 4219.935
1005.426, 3987.116
1006.678, 3764.333
1007.930, 3605.189
1009.181, 3568.883
1010.432, 3366.210
1011.683, 3373.573
1012.934, 3380.973
1014.185, 3158.409
1015.435, 3065.880
1016.685, 3083.387
1017.935, 3050.928
1019.185, 3088.504
1020.435, 2956.115
1021.684, 3013.762
1022.934, 2981.443
1024.183, 2979.159
1025.432, 3046.910
1026.680, 3024.693
1027.929, 3132.514
1029.177, 3110.367
1030.425, 3168.252
1031.673, 3186.174
1032.921, 3234.345
1034.169, 3292.336
1035.416, 3290.408
1036.663, 3288.691
1037.911, 3486.921
1039.157, 3456.399
1040.404, 3774.666
1041.650, 3953.763
1042.897, 3986.437
1044.143, 4176.297
1045.389, 4440.244
1046.634, 4570.619
1047.880, 5132.523
1049.125, 5242.040
1050.371, 5541.110
1051.615, 6003.426
1052.860, 6309.244
1054.105, 6811.843
1055.349, 7192.897
1056.593, 7646.581
1057.837, 8018.774
1059.081, 8519.569
1060.325, 8821.474
1061.568, 9074.888
1062.812, 8988.986
1064.055, 9131.596
1065.298, 8859.251
1066.540, 8725.119
1067.783, 8417.039
1069.025, 8082.893
1070.267, 7909.327
1071.509, 7364.502
1072.751, 6900.806
1073.993, 6485.367
1075.234, 6091.446
1076.475, 5636.398
1077.716, 5278.385
1078.957, 4853.970
1080.198, 4601.229
1081.438, 4235.354
1082.679, 3834.371
1083.919, 3608.144
1085.159, 3331.242
1086.398, 3149.862
1087.638, 2939.912
1088.877, 2627.706
1090.116, 2492.140
1091.355, 2214.888
1092.594, 2207.388
1093.833, 2032.507
1095.071, 1722.592
1096.309, 1719.884
1097.547, 1570.549
1098.785, 1400.728
1100.023, 1331.650
1101.260, 1202.503
1102.498, 1213.926
1103.735, 1105.402
1104.972, 1003.154
1106.208, 1088.704
1107.445, 920.857
1108.681, 919.693
1109.918, 852.537
1111.154, 774.710
1112.389, 782.038
1113.625, 721.597
1114.860, 622.625
1116.096, 719.432
1117.331, 552.939
1118.566, 557.467
1119.800, 568.681
1121.035, 486.007
1122.269, 522.237
1123.503, 602.494
1124.737, 524.615
1125.971, 457.332
1127.205, 437.369
1128.438, 362.025
1129.671, 415.170
1130.904, 284.259
1132.137, 448.167
1133.370, 404.286
1134.602, 273.321
1135.834, 325.495
1137.066, 274.416
1138.298, 256.581
1139.530, 318.122
1140.762, 220.835
1141.993, 285.254
1143.224, 294.564
1144.455, 135.608
1145.686, 274.054
1146.917, 225.862
1148.147, 159.835
1149.377, 192.157
1150.607, 204.967
1151.837, 309.859
1153.067, 190.652
1154.296, 131.529
1155.526, 272.602
1156.755, 159.101
1157.984, 245.824
1159.213, 181.806
1160.441, 186.490
1161.670, 187.645
1162.898, 228.335
1164.126, 134.969
1165.354, 225.551
1166.581, 74.302
1167.809, 195.983
1169.036, 129.677
1170.263, 154.202
1171.490, 105.960
1172.717, 118.334
1173.943, 57.700
1175.170, 131.486
1176.396, 22.658
1177.622, 53.934
1178.848, 83.728
1180.073, 7.975
1181.299, 42.377
1182.524, 16.175
1183.749, 2.444
1184.974, 11.067
1186.199, 37.775
1187.423, 37.208
1188.648, 21.492
1189.872, 85.509
1191.096, 34.448
1192.320, 99.284
1193.543, 38.508
1194.767, 60.450
1195.990, 11.494
1197.213, 24.138
1198.436, 57.655
1199.659, 110.083
1200.881, 55.340
1202.104, 27.850
1203.326, 66.588
1204.548, 40.044
1205.770, 13.612
1206.991, 29.283
1208.213, 50.026
1209.434, 57.813
1210.655, 30.797
1211.876, 108.291
1213.096, 76.668
1214.317, 10.750
1215.537, 70.930
1216.757, 77.605
1217.977, 54.975
1219.197, 70.512
1220.417, 40.416
1221.636, 62.050
1222.855, 41.992
1224.074, 7.798
1225.293, 47.786
1226.512, 72.078
1227.731, 20.252
1228.949, 96.030
1230.167, 10.603
1231.385, 61.954
1232.603, 11.746
1233.820, 5.797
1235.038, 68.258
1236.255, 13.180
1237.472, 51.601
1238.689, 75.083
1239.906, 127.517
1241.122, 33.928
1242.338, 12.660
1243.555, 27.029
1244.771, 31.602
1245.986, 58.936
1247.202, 67.050
1248.417, 31.766
1249.633, 111.206
1250.848, 2.878
1252.063, 14.452
1253.277, 58.917
1254.492, 16.857
1255.706, 85.021
1256.920, 169.677
1258.134, 30.396
1259.348, 120.846
1260.562, 78.231
1261.775, 97.728
1262.988, 132.990
1264.201, 132.194
1265.414, 73.590
1266.627, 159.668
1267.839, 40.703
1269.052, 188.701
1270.264, 202.579
1271.476, 118.507
1272.688, 224.312
1273.899, 128.006
1275.111, 88.733
1276.322, 213.440
1277.533, 107.940
1278.744, 206.499
1279.955, 226.871
1281.165, 193.375
1282.376, 253.706
1283.586, 194.881
1284.796, 148.017
1286.006, 301.058
1287.215, 163.035
1288.425, 176.415
1289.634, 219.253
1290.843, 160.022
1292.052, 272.941
1293.261, 231.576
1294.469, 174.141
1295.678, 266.636
1296.886, 73.063
1298.094, 266.613
1299.302, 243.949
1300.509, 106.163
1301.717, 332.477
1302.924, 272.553
1304.131, 208.562
1305.338, 275.586
1306.545, 185.460
1307.752, 267.392
1308.958, 277.307
1310.164, 285.979
1311.370, 241.584
1312.576, 254.128
1313.782, 246.611
1314.987, 283.342
1316.193, 222.692
1317.398, 309.976
1318.603, 307.423
1319.807, 210.583
1321.012, 364.681
1322.216, 313.717
1323.421, 202.693
1324.625, 297.604
1325.829, 278.625
1327.032, 194.412
1328.236, 260.231
1329.439, 222.695
1330.642, 300.184
1331.845, 331.412
1333.048, 248.845
1334.251, 315.435
1335.453, 278.538
1336.656, 242.385
1337.858, 311.171
1339.060, 230.537
1340.261, 237.395
1341.463, 304.642
1342.664, 186.360
1343.866, 291.856
1345.067, 221.878
1346.267, 263.158
1347.468, 302.990
1348.669, 213.250
1349.869, 221.970
1351.069, 301.139
1352.269, 181.195
1353.469, 222.781
1354.668, 246.714
1355.868, 150.167
1357.067, 288.592
1358.266, 189.843
1359.465, 197.044
1360.664, 288.311
1361.862, 185.255
1363.061, 199.219
1364.259, 258.059
1365.457, 169.640
1366.655, 214.718
1367.852, 253.912
1369.050, 119.080
1370.247, 230.631
1371.444, 172.474
1372.641, 97.474
1373.838, 208.587
1375.035, 133.938
1376.231, 108.947
1377.427, 257.283
1378.623, 66.125
1379.819, 168.148
1381.015, 215.494
1382.211, 86.624
1383.406, 242.645
1384.601, 198.785
1385.796, 163.561
1386.991, 190.965
1388.185, 170.325
1389.380, 102.951
1390.574, 238.398
1391.768, 24.074
1392.962, 179.591
1394.156, 205.268
1395.350, 62.326
1396.543, 222.221
1397.736, 141.590
1398.929, 112.294
1400.122, 148.636
1401.315, 118.732
1402.507, 166.646
1403.700, 174.472
1404.892, 125.398
1406.084, 182.833
1407.276, 166.818
1408.467, 102.734
1409.659, 237.400
1410.850, 153.080
1412.041, 144.103
1413.232, 231.753
1414.423, 127.293
1415.614, 139.430
1416.804, 192.014
1417.994, 125.352
1419.184, 112.385
1420.374, 158.291
1421.564, 113.690
1422.753, 174.524
1423.943, 91.923
1425.132, 115.634
1426.321, 280.278
1427.510, 125.349
1428.698, 182.659
1429.887, 220.969
1431.075, 33.018
1432.263, 220.515
1433.451, 157.880
1434.639, 64.603
1435.827, 141.740
1437.014, 129.019
1438.201, 116.468
1439.388, 155.987
1440.575, 56.104
1441.762, 88.279
1442.949, 165.218
1444.135, 56.235
1445.321, 162.872
1446.507, 124.290
1447.693, 71.318
1448.879, 205.440
1450.064, 55.432
1451.250, 40.458
1452.435, 329.028
1453.620, 398.846
1454.805, 86.594
1455.989, 126.550
1457.174, 12.029
1458.358, 143.757
1459.542, 141.560
1460.726, 18.308
1461.910, 151.484
1463.093, 117.864
1464.277, 66.263
1465.460, 168.007
1466.643, 85.059
1467.826, 2.485
1469.009, 223.853
1470.191, 24.293
1471.373, 132.167
1472.556, 168.313
1473.738, 54.209
1474.919, 132.396
1476.101, 166.770
1477.283, 17.233
1478.464, 203.231
1479.645, 56.012
1480.826, 86.541
1482.007, 139.430
1483.187, 48.861
1484.368, 100.895
1485.548, 38.289
1486.728, 39.557
1487.908, 134.661
1489.088, 197.506
1490.268, 27.993
1491.447, 190.876
1492.626, 137.739
1493.805, 82.638
1494.984, 205.557
1496.163, 30.466
1497.341, 137.603
1498.520, 127.545
1499.698, 86.549
1500.876, 154.705
1502.054, 126.521
1503.232, 3.612
1504.409, 171.259
1505.586, 208.234
1506.763, 86.963
1507.940, 152.055
1509.117, 96.176
1510.294, 139.421
1511.470, 223.827
1512.647, 8.880
1513.823, 127.750
1514.999, 126.142
1516.174, 178.893
1517.350, 174.108
1518.526, 199.906
1519.701, 81.821
1520.876, 188.956
1522.051, 0.000
##END=



