##NAMES=Monazite-(Ce)
##RRUFFID=R040106
##IDEAL CHEMISTRY=CePO_4_
##LOCALITY=Angola
##OWNER=RRUFF
##SOURCE=University of Arizona Mineral Museum
##DESCRIPTION=Brown massive fragment
##STATUS=The identification of this mineral has been confirmed by X-ray diffraction and chemical analysis
##URL=rruff.info/R040106
##MEASURED CHEMISTRY=(Ce_0.41_La_0.17_Nd_0.17_Th_0.14_Ca_0.06_Y_0.04_)(P_0.95_Si_0.05_)O_4_
##PIN_ID=M00299
##ORIENTATION=Laser parallel to c* (0 0 1). Fiducial mark perpendicular to laser is parallel to a [1 0 0]
87.649, 0.000
89.047, 47.885
90.446, 11.760
91.844, 175.515
93.242, 219.437
94.639, 260.847
96.037, 328.219
97.434, 426.588
98.831, 417.554
100.227, 487.955
101.624, 502.095
103.020, 433.952
104.416, 517.146
105.812, 592.678
107.207, 498.386
108.603, 464.607
109.998, 501.987
111.393, 625.333
112.787, 714.020
114.182, 634.612
115.576, 714.297
116.970, 758.932
118.363, 791.500
119.757, 675.775
121.150, 647.746
122.543, 621.497
123.936, 618.025
125.328, 596.632
126.720, 572.972
128.112, 575.237
129.504, 536.641
130.896, 526.379
132.287, 372.635
133.678, 338.568
135.069, 224.314
136.460, 164.995
137.850, 158.710
139.240, 127.973
140.630, 74.110
142.020, 129.670
143.410, 154.878
144.799, 262.815
146.188, 272.303
147.577, 411.035
148.965, 412.514
150.354, 628.876
151.742, 676.711
153.130, 713.158
154.517, 667.577
155.905, 800.859
157.292, 519.574
158.679, 619.509
160.066, 511.493
161.452, 598.509
162.839, 590.591
164.225, 627.372
165.611, 718.451
166.996, 769.226
168.381, 817.710
169.767, 954.897
171.152, 1023.174
172.536, 1136.681
173.921, 1168.422
175.305, 1202.387
176.689, 1191.563
178.073, 1142.901
179.456, 1097.505
180.839, 951.244
182.222, 914.144
183.605, 732.194
184.988, 731.381
186.370, 522.694
187.752, 458.120
189.134, 358.647
190.516, 240.267
191.898, 276.969
193.279, 64.750
194.660, 107.602
196.041, 9.520
197.421, 48.506
198.801, 84.493
200.182, 125.799
201.561, 142.682
202.941, 140.366
204.321, 162.321
205.700, 125.277
207.079, 134.234
208.457, 162.187
209.836, 140.557
211.214, 87.068
212.592, 132.991
213.970, 122.900
215.348, 115.792
216.725, 43.334
218.102, 20.480
219.479, 55.647
220.856, 40.837
222.232, 129.048
223.608, 77.252
224.984, 95.399
226.360, 45.381
227.736, 201.120
229.111, 181.628
230.486, 192.930
231.861, 179.028
233.236, 160.951
234.610, 224.696
235.984, 82.413
237.358, 115.159
238.732, 29.959
240.105, 196.815
241.479, 79.738
242.852, 97.734
244.224, 237.803
245.597, 212.946
246.969, 283.158
248.342, 230.445
249.713, 269.807
251.085, 423.243
252.457, 401.756
253.828, 428.870
255.199, 530.323
256.570, 565.943
257.940, 609.648
259.310, 671.391
260.681, 706.187
262.050, 746.873
263.420, 793.570
264.790, 812.219
266.159, 856.903
267.528, 1039.348
268.896, 1002.808
270.265, 1072.182
271.633, 1211.467
273.001, 1145.660
274.369, 1246.764
275.737, 1427.784
277.104, 1455.723
278.471, 1502.583
279.838, 1573.346
281.205, 1585.000
282.572, 1672.522
283.938, 1653.898
285.304, 1642.140
286.670, 1707.252
288.035, 1611.241
289.401, 1718.120
290.766, 1702.906
292.131, 1643.610
293.495, 1651.241
294.860, 1551.807
296.224, 1611.316
297.588, 1576.776
298.952, 1630.191
300.315, 1503.567
301.679, 1497.894
303.042, 1384.150
304.405, 1351.225
305.767, 1356.637
307.130, 1357.269
308.492, 1339.387
309.854, 1266.458
311.216, 1264.208
312.578, 1200.111
313.939, 1210.872
315.300, 1173.040
316.661, 1144.981
318.021, 1184.909
319.382, 1077.846
320.742, 1003.821
322.102, 1062.481
323.462, 1032.540
324.821, 998.365
326.181, 871.527
327.540, 915.741
328.899, 881.003
330.257, 826.317
331.616, 836.683
332.974, 842.102
334.332, 766.573
335.690, 917.097
337.047, 843.673
338.405, 794.299
339.762, 842.977
341.119, 805.703
342.475, 907.479
343.832, 929.303
345.188, 1008.176
346.544, 884.096
347.900, 1052.063
349.255, 1045.076
350.610, 1170.136
351.965, 1176.243
353.320, 1330.382
354.675, 1341.835
356.029, 1508.715
357.384, 1588.809
358.738, 1709.477
360.091, 1814.383
361.445, 1945.896
362.798, 2055.632
364.151, 2086.748
365.504, 2249.827
366.857, 2349.093
368.209, 2367.633
369.561, 2554.106
370.913, 2647.700
372.265, 2828.678
373.617, 2926.457
374.968, 3007.818
376.319, 3286.918
377.670, 3416.485
379.021, 3666.724
380.371, 3816.605
381.721, 4015.730
383.071, 4216.388
384.421, 4466.794
385.770, 4768.902
387.120, 5160.505
388.469, 5362.505
389.818, 5973.820
391.166, 6116.358
392.515, 6438.952
393.863, 6741.604
395.211, 6994.315
396.559, 7197.086
397.906, 7079.917
399.254, 7252.790
400.601, 7175.744
401.948, 6848.428
403.294, 6841.503
404.641, 6714.641
405.987, 6727.841
407.333, 6801.101
408.679, 6824.423
410.025, 6977.806
411.370, 7081.250
412.715, 7334.767
414.060, 7608.346
415.405, 8041.989
416.749, 8195.705
418.093, 8079.469
419.437, 8103.285
420.781, 7657.163
422.125, 7191.076
423.468, 6765.059
424.811, 5979.113
426.154, 5593.242
427.497, 4847.453
428.839, 4461.739
430.182, 3876.108
431.524, 3540.530
432.866, 3225.046
434.207, 2919.643
435.549, 2724.312
436.890, 2569.072
438.231, 2463.904
439.572, 2468.841
440.912, 2290.843
442.252, 2376.918
443.593, 2394.087
444.932, 2429.344
446.272, 2484.667
447.611, 2370.062
448.951, 2585.532
450.290, 2711.070
451.628, 2696.676
452.967, 2942.367
454.305, 3028.129
455.644, 3283.943
456.981, 3259.850
458.319, 3575.810
459.657, 3701.820
460.994, 3807.880
462.331, 3814.002
463.668, 4030.192
465.004, 4106.434
466.341, 4122.738
467.677, 4029.099
469.013, 4085.514
470.348, 3821.986
471.684, 3688.515
473.019, 3545.104
474.354, 3341.752
475.689, 3048.464
477.024, 2905.235
478.358, 2672.071
479.692, 2548.967
481.026, 2355.926
482.360, 2133.948
483.694, 2158.033
485.027, 1956.181
486.360, 1582.391
487.693, 1723.664
489.026, 1550.998
490.358, 1400.394
491.691, 1426.852
493.023, 1163.371
494.354, 1108.952
495.686, 1069.594
497.017, 880.298
498.349, 924.062
499.680, 889.887
501.010, 845.773
502.341, 612.719
503.671, 712.727
505.001, 559.794
506.331, 516.922
507.661, 532.110
508.990, 350.358
510.319, 298.666
511.648, 331.034
512.977, 308.462
514.306, 251.950
515.634, 231.238
516.962, 181.773
518.290, 132.803
519.618, 80.563
520.945, 40.413
522.273, 26.636
523.600, 147.422
524.927, 63.398
526.253, 143.102
527.580, 0.292
528.906, 135.188
530.232, 67.573
531.558, 147.848
532.883, 34.976
534.208, 72.917
535.534, 37.036
536.858, 70.120
538.183, 103.388
539.508, 75.765
540.832, 179.209
542.156, 103.725
543.480, 92.305
544.803, 222.951
546.127, 176.655
547.450, 55.418
548.773, 33.241
550.096, 211.125
551.418, 157.065
552.741, 216.061
554.063, 76.111
555.385, 150.218
556.706, 296.379
558.028, 309.595
559.349, 346.866
560.670, 475.191
561.991, 470.574
563.312, 404.009
564.632, 466.499
565.952, 675.042
567.272, 673.639
568.592, 833.289
569.911, 1016.991
571.231, 1106.438
572.550, 1037.251
573.869, 1110.587
575.187, 986.965
576.506, 981.256
577.824, 869.355
579.142, 769.989
580.460, 682.103
581.778, 673.601
583.095, 672.399
584.412, 526.813
585.729, 666.303
587.046, 588.583
588.363, 817.009
589.679, 730.846
590.995, 867.786
592.311, 1136.875
593.627, 716.680
594.942, 812.681
596.258, 866.540
597.573, 945.820
598.888, 919.726
600.202, 854.482
601.517, 1037.543
602.831, 1139.434
604.145, 1055.133
605.459, 1214.194
606.772, 1234.097
608.086, 1465.295
609.399, 1480.517
610.712, 1755.819
612.024, 1906.188
613.337, 2049.730
614.649, 2502.681
615.961, 2738.693
617.273, 2921.971
618.585, 3285.283
619.896, 3321.147
621.208, 3647.769
622.519, 3491.181
623.829, 3587.138
625.140, 3280.615
626.450, 2884.125
627.761, 2827.750
629.071, 2465.324
630.380, 2412.931
631.690, 2234.567
632.999, 1994.237
634.308, 1856.938
635.617, 1623.668
636.926, 1528.969
638.235, 1512.224
639.543, 1335.047
640.851, 1393.900
642.159, 1281.785
643.466, 1252.697
644.774, 1339.641
646.081, 1173.614
647.388, 1179.617
648.695, 1180.648
650.002, 1206.708
651.308, 1155.797
652.614, 1018.916
653.920, 1182.062
655.226, 869.236
656.531, 1199.439
657.837, 957.669
659.142, 899.928
660.447, 1080.214
661.752, 1015.527
663.056, 916.867
664.360, 1047.235
665.664, 886.629
666.968, 1053.050
668.272, 946.498
669.575, 943.972
670.879, 1052.472
672.182, 935.998
673.484, 1079.550
674.787, 903.128
676.089, 1128.731
677.392, 1014.360
678.694, 960.013
679.995, 1138.437
681.297, 1038.140
682.598, 1054.070
683.899, 1051.208
685.200, 979.944
686.501, 1100.323
687.802, 1061.266
689.102, 1099.322
690.402, 1107.619
691.702, 1012.067
693.002, 1064.578
694.301, 1027.503
695.600, 956.449
696.899, 980.415
698.198, 961.401
699.497, 971.406
700.795, 793.431
702.093, 994.476
703.391, 760.539
704.689, 784.621
705.987, 874.722
707.284, 709.630
708.581, 718.980
709.878, 562.137
711.175, 556.312
712.472, 509.505
713.768, 488.716
715.064, 443.945
716.360, 349.192
717.656, 360.457
718.951, 297.739
720.247, 389.039
721.542, 152.355
722.837, 218.690
724.131, 67.041
725.426, 173.409
726.720, 12.206
728.014, 61.168
729.308, 38.559
730.601, 117.042
731.895, 16.298
733.188, 17.360
734.481, 81.033
735.774, 88.251
737.067, 94.448
738.359, 117.197
739.651, 109.006
740.943, 145.872
742.235, 122.812
743.526, 142.816
744.818, 20.893
746.109, 183.987
747.400, 134.174
748.691, 91.430
749.981, 165.735
751.271, 91.123
752.562, 220.560
753.851, 54.108
755.141, 87.687
756.431, 164.312
757.720, 144.019
759.009, 48.798
760.298, 73.605
761.587, 70.451
762.875, 57.333
764.163, 39.246
765.451, 114.180
766.739, 60.169
768.027, 38.811
769.314, 144.196
770.601, 23.728
771.888, 59.661
773.175, 290.612
774.462, 14.417
775.748, 28.454
777.034, 71.497
778.320, 16.534
779.606, 63.430
780.892, 55.414
782.177, 40.417
783.462, 121.438
784.747, 100.479
786.032, 148.540
787.317, 267.622
788.601, 152.724
789.885, 253.848
791.169, 154.992
792.453, 147.157
793.736, 303.343
795.019, 114.551
796.303, 288.780
797.585, 227.031
798.868, 417.303
800.151, 337.597
801.433, 195.912
802.715, 474.249
803.997, 420.608
805.279, 426.989
806.560, 601.394
807.841, 464.819
809.122, 551.268
810.403, 594.738
811.684, 572.230
812.964, 723.747
814.245, 586.285
815.525, 808.846
816.804, 725.431
818.084, 762.038
819.363, 854.668
820.643, 888.322
821.922, 782.998
823.201, 1000.698
824.479, 922.421
825.758, 1034.168
827.036, 1015.938
828.314, 1069.732
829.592, 1125.550
830.869, 1050.392
832.147, 1188.257
833.424, 1175.146
834.701, 1145.062
835.977, 1316.001
837.254, 1367.969
838.530, 1356.974
839.807, 1362.003
841.082, 1345.068
842.358, 1465.163
843.634, 1332.295
844.909, 1496.452
846.184, 1539.635
847.459, 1486.843
848.734, 1463.078
850.008, 1533.337
851.283, 1527.622
852.557, 1488.932
853.831, 1557.268
855.105, 1607.628
856.378, 1627.015
857.651, 1563.427
858.925, 1686.864
860.197, 1601.328
861.470, 1785.817
862.743, 1754.333
864.015, 1544.874
865.287, 1741.442
866.559, 1682.036
867.831, 1687.656
869.102, 1584.304
870.373, 1630.977
871.645, 1710.686
872.915, 1698.421
874.186, 1674.628
875.457, 1606.974
876.727, 1493.803
877.997, 1527.661
879.267, 1314.563
880.536, 1292.804
881.806, 1494.779
883.075, 1160.313
884.344, 1288.887
885.613, 1188.651
886.882, 1143.695
888.150, 1071.299
889.419, 923.521
890.687, 952.443
891.954, 1028.171
893.222, 843.376
894.490, 1007.588
895.757, 666.112
897.024, 735.577
898.291, 643.718
899.557, 631.864
900.824, 572.958
902.090, 512.453
903.356, 583.853
904.622, 451.490
905.888, 495.821
907.153, 496.635
908.418, 325.686
909.683, 387.539
910.948, 421.651
912.213, 305.065
913.477, 320.216
914.741, 383.613
916.005, 124.833
917.269, 318.147
918.533, 221.468
919.796, 215.836
921.060, 298.128
922.323, 286.118
923.585, 395.143
924.848, 233.001
926.111, 573.926
927.373, 483.389
928.635, 523.193
929.897, 671.303
931.158, 734.948
932.420, 908.165
933.681, 1057.449
934.942, 1123.698
936.203, 1485.090
937.463, 1558.530
938.724, 1701.025
939.984, 1991.579
941.244, 2295.179
942.504, 2632.836
943.764, 2794.556
945.023, 3206.323
946.282, 3707.143
947.541, 3976.009
948.800, 4624.926
950.059, 5063.896
951.317, 5602.913
952.575, 6381.977
953.833, 7001.089
955.091, 7800.246
956.349, 8679.452
957.606, 9368.700
958.864, 10817.995
960.121, 11717.335
961.377, 13106.721
962.634, 14886.148
963.891, 16155.625
965.147, 17925.139
966.403, 20304.703
967.659, 21924.305
968.914, 24663.951
970.170, 27003.639
971.425, 28603.371
972.680, 31093.145
973.935, 31192.961
975.190, 31392.820
976.444, 29892.717
977.698, 27462.660
978.952, 25872.643
980.206, 22682.668
981.460, 20172.727
982.713, 17592.832
983.967, 15322.969
985.220, 13433.148
986.473, 11843.368
987.725, 9983.623
988.978, 9053.916
990.230, 7914.248
991.482, 7064.618
992.734, 6515.025
993.986, 5835.469
995.237, 5405.949
996.488, 4756.466
997.739, 4387.018
998.990, 4227.606
1000.241, 3768.229
1001.492, 3584.887
1002.742, 3441.579
1003.992, 3261.306
1005.242, 3086.066
1006.492, 2681.861
1007.741, 2774.689
1008.990, 2806.550
1010.239, 2458.446
1011.488, 2562.373
1012.737, 2296.333
1013.986, 2259.325
1015.234, 2343.427
1016.482, 2187.483
1017.730, 2272.572
1018.978, 2238.692
1020.225, 2183.844
1021.473, 2406.538
1022.720, 2095.837
1023.967, 2287.080
1025.213, 2337.718
1026.460, 2233.259
1027.706, 2511.804
1028.953, 2343.386
1030.198, 2365.992
1031.444, 2401.902
1032.690, 2437.960
1033.935, 2683.896
1035.180, 2613.837
1036.425, 2647.314
1037.670, 2805.856
1038.915, 2673.481
1040.159, 3017.232
1041.403, 3079.257
1042.647, 3237.863
1043.891, 3453.607
1045.135, 3504.491
1046.378, 3747.029
1047.621, 3882.732
1048.864, 4089.923
1050.107, 4669.920
1051.350, 4740.619
1052.592, 5207.919
1053.835, 5654.229
1055.077, 5715.114
1056.318, 6333.961
1057.560, 6718.916
1058.802, 7057.959
1060.043, 7362.891
1061.284, 7562.867
1062.525, 8040.721
1063.765, 8295.425
1065.006, 8077.880
1066.246, 8399.983
1067.486, 8405.120
1068.726, 8026.269
1069.966, 8274.062
1071.205, 7804.139
1072.445, 7941.262
1073.684, 7569.798
1074.923, 7218.229
1076.161, 7154.688
1077.400, 6912.881
1078.638, 6480.623
1079.876, 6424.780
1081.114, 5791.933
1082.352, 5700.582
1083.590, 5265.188
1084.827, 4838.005
1086.064, 4798.529
1087.301, 4362.545
1088.538, 4072.176
1089.775, 3898.768
1091.011, 3342.147
1092.247, 3396.004
1093.483, 3119.080
1094.719, 2821.014
1095.955, 2732.247
1097.190, 2389.297
1098.425, 2350.140
1099.660, 2222.886
1100.895, 1957.206
1102.130, 1884.628
1103.364, 1792.053
1104.598, 1545.415
1105.833, 1641.687
1107.066, 1314.054
1108.300, 1436.152
1109.534, 1279.092
1110.767, 1104.098
1112.000, 1198.052
1113.233, 967.575
1114.466, 979.712
1115.698, 905.970
1116.930, 769.770
1118.163, 821.299
1119.394, 698.038
1120.626, 725.450
1121.858, 655.632
1123.089, 537.993
1124.320, 596.681
1125.551, 587.694
1126.782, 424.783
1128.013, 419.263
1129.243, 465.493
1130.473, 366.821
1131.703, 449.969
1132.933, 258.914
1134.163, 281.073
1135.392, 298.218
1136.621, 229.092
1137.850, 236.213
1139.079, 265.239
1140.308, 220.198
1141.536, 293.069
1142.765, 113.839
1143.993, 166.676
1145.221, 201.469
1146.448, 116.001
1147.676, 201.753
1148.903, 121.366
1150.130, 119.821
1151.357, 125.433
1152.584, 46.835
1153.810, 131.210
1155.037, 155.656
1156.263, 105.776
1157.489, 85.426
1158.715, 38.691
1159.940, 97.926
1161.166, 77.373
1162.391, 16.549
1163.616, 82.699
1164.841, 49.989
1166.065, 53.114
1167.290, 69.227
1168.514, 35.714
1169.738, 46.300
1170.962, 83.235
1172.185, 8.138
1173.409, 40.996
1174.632, 37.141
1175.855, 69.087
1177.078, 46.610
1178.301, 69.731
1179.523, 6.853
1180.746, 29.394
1181.968, 79.049
1183.190, 21.635
1184.412, 36.278
1185.633, 50.987
1186.855, 0.772
1188.076, 84.607
1189.297, 27.536
1190.518, 19.476
1191.738, 58.569
1192.959, 2.698
1194.179, 2.694
1195.399, 87.940
1196.619, 34.292
1197.838, 106.695
1199.058, 50.244
1200.277, 31.882
1201.496, 102.492
1202.715, 67.330
1203.934, 3.271
1205.152, 66.274
1206.371, 1.612
1207.589, 76.435
1208.807, 40.732
1210.024, 13.000
1211.242, 110.139
1212.459, 102.730
1213.677, 10.818
1214.894, 83.750
1216.110, 28.666
1217.327, 63.665
1218.543, 14.674
1219.760, 35.877
1220.976, 32.993
1222.192, 0.398
1223.407, 26.664
1224.623, 18.126
1225.838, 92.199
1227.053, 6.379
1228.268, 29.203
1229.483, 65.858
1230.697, 2.019
1231.912, 76.058
1233.126, 18.961
1234.340, 8.124
1235.554, 76.965
1236.767, 14.940
1237.981, 8.994
1239.194, 128.443
1240.407, 28.084
1241.620, 114.349
1242.832, 60.541
1244.045, 33.742
1245.257, 80.051
1246.469, 113.056
1247.681, 106.265
1248.893, 107.209
1250.104, 113.424
1251.315, 121.755
1252.527, 115.048
1253.738, 140.830
1254.948, 160.419
1256.159, 152.948
1257.369, 159.906
1258.579, 216.420
1259.789, 138.877
1260.999, 129.346
1262.209, 179.651
1263.418, 212.047
1264.628, 187.122
1265.837, 236.185
1267.046, 137.428
1268.254, 245.421
1269.463, 192.252
1270.671, 153.232
1271.879, 304.021
1273.087, 215.594
1274.295, 265.244
1275.502, 238.688
1276.710, 279.303
1277.917, 324.854
1279.124, 270.141
1280.331, 270.614
1281.537, 331.847
1282.744, 269.047
1283.950, 288.127
1285.156, 300.054
1286.362, 316.969
1287.568, 337.302
1288.773, 317.036
1289.978, 322.890
1291.184, 393.492
1292.389, 323.031
1293.593, 351.617
1294.798, 397.197
1296.002, 341.544
1297.206, 447.918
1298.410, 417.165
1299.614, 364.445
1300.818, 406.778
1302.021, 351.810
1303.225, 427.068
1304.428, 398.105
1305.631, 333.954
1306.833, 458.147
1308.036, 391.819
1309.238, 351.488
1310.440, 384.198
1311.642, 379.739
1312.844, 385.262
1314.045, 384.626
1315.247, 404.903
1316.448, 411.593
1317.649, 416.638
1318.850, 316.584
1320.051, 435.634
1321.251, 427.473
1322.451, 398.258
1323.651, 481.257
1324.851, 421.539
1326.051, 375.912
1327.251, 412.620
1328.450, 387.441
1329.649, 473.243
1330.848, 446.965
1332.047, 396.448
1333.245, 461.231
1334.444, 369.861
1335.642, 396.356
1336.840, 460.213
1338.038, 320.927
1339.236, 401.642
1340.433, 365.855
1341.630, 350.125
1342.828, 425.697
1344.025, 375.661
1345.221, 315.643
1346.418, 398.372
1347.614, 331.825
1348.810, 325.159
1350.006, 355.496
1351.202, 286.844
1352.398, 346.156
1353.593, 279.675
1354.789, 231.226
1355.984, 314.006
1357.179, 226.205
1358.373, 235.268
1359.568, 294.305
1360.762, 274.663
1361.956, 243.699
1363.150, 275.882
1364.344, 219.417
1365.538, 327.003
1366.731, 203.683
1367.924, 222.429
1369.117, 246.591
1370.310, 207.293
1371.503, 240.962
1372.695, 240.089
1373.888, 197.082
1375.080, 201.805
1376.272, 216.741
1377.464, 132.109
1378.655, 184.774
1379.847, 134.407
1381.038, 102.179
1382.229, 211.412
1383.420, 145.381
1384.610, 246.741
1385.801, 229.180
1386.991, 191.291
1388.181, 146.452
1389.371, 201.655
1390.561, 135.854
1391.750, 182.419
1392.940, 94.303
1394.129, 161.016
1395.318, 203.686
1396.507, 154.362
1397.696, 183.409
1398.884, 180.068
1400.072, 81.788
1401.260, 151.316
1402.448, 149.172
1403.636, 129.570
1404.824, 152.110
1406.011, 113.440
1407.198, 173.950
1408.385, 160.244
1409.572, 100.721
1410.758, 143.225
1411.945, 165.553
1413.131, 112.872
1414.317, 141.000
1415.503, 176.212
1416.689, 139.996
1417.874, 178.738
1419.060, 113.462
1420.245, 111.104
1421.430, 156.754
1422.615, 93.852
1423.799, 133.325
1424.984, 123.740
1426.168, 133.994
1427.352, 195.297
1428.536, 137.564
1429.720, 43.797
1430.903, 144.989
1432.087, 97.867
1433.270, 155.004
1434.453, 155.147
1435.635, 108.208
1436.818, 92.522
1438.001, 159.849
1439.183, 106.998
1440.365, 119.678
1441.547, 94.761
1442.728, 64.987
1443.910, 148.480
1445.091, 49.908
1446.272, 86.345
1447.453, 123.012
1448.634, 31.607
1449.815, 107.289
1450.995, 123.929
1452.176, 83.856
1453.356, 128.093
1454.535, 95.582
1455.715, 18.738
1456.895, 150.198
1458.074, 24.670
1459.253, 59.480
1460.432, 111.172
1461.611, 63.635
1462.790, 132.205
1463.968, 150.306
1465.146, 3.208
1466.324, 101.157
1467.502, 132.832
1468.680, 20.001
1469.858, 83.606
1471.035, 66.908
1472.212, 63.936
1473.389, 172.834
1474.566, 2.659
1475.742, 107.287
1476.919, 78.737
1478.095, 1.272
1479.271, 103.745
1480.447, 35.987
1481.623, 34.040
1482.798, 115.258
1483.974, 77.629
1485.149, 77.199
1486.324, 65.290
1487.499, 5.212
1488.674, 126.272
1489.848, 76.594
1491.022, 39.146
1492.196, 102.119
1493.370, 94.766
1494.544, 37.031
1495.718, 154.681
1496.891, 127.170
1498.064, 37.847
1499.237, 126.495
1500.410, 79.224
1501.583, 103.107
1502.755, 115.839
1503.928, 26.634
1505.100, 97.883
1506.272, 71.647
1507.443, 18.852
1508.615, 106.172
1509.786, 87.311
1510.958, 70.385
1512.129, 64.410
1513.300, 75.573
1514.470, 43.013
1515.641, 40.640
1516.811, 30.691
1517.981, 25.921
1519.151, 18.210
1520.321, 9.120
1521.491, 12.069
1522.660, 37.197
1523.829, 0.000
##END=



