##NAMES=Monazite-(Ce)
##RRUFFID=R040106
##IDEAL CHEMISTRY=CePO_4_
##LOCALITY=Angola
##OWNER=RRUFF
##SOURCE=University of Arizona Mineral Museum
##DESCRIPTION=Brown massive fragment
##STATUS=The identification of this mineral has been confirmed by X-ray diffraction and chemical analysis
##URL=rruff.info/R040106
##MEASURED CHEMISTRY=(Ce_0.41_La_0.17_Nd_0.17_Th_0.14_Ca_0.06_Y_0.04_)(P_0.95_Si_0.05_)O_4_
##PIN_ID=L00169
##ORIENTATION=Laser parallel to b* (0 1 0). Fiducial mark perpendicular to laser is parallel to c [0 0 1]
85.706, 0.000
87.101, 49.048
88.496, 97.634
89.890, 14.095
91.284, 69.210
92.678, 82.974
94.071, 84.349
95.465, 109.195
96.858, 195.652
98.251, 168.924
99.644, 321.357
101.036, 306.445
102.428, 372.048
103.820, 430.231
105.212, 542.656
106.604, 585.903
107.995, 845.659
109.387, 974.688
110.777, 1258.812
112.168, 1493.889
113.559, 1750.811
114.949, 1636.494
116.339, 1756.993
117.729, 1666.450
119.119, 1812.015
120.508, 1699.688
121.897, 1675.203
123.286, 1645.850
124.675, 1607.507
126.063, 1422.202
127.452, 1351.971
128.840, 1340.828
130.228, 1228.776
131.615, 1334.823
133.003, 1243.979
134.390, 1153.254
135.777, 1081.657
137.164, 1016.199
138.550, 1015.886
139.937, 1063.726
141.323, 1011.727
142.709, 1011.894
144.094, 909.233
145.480, 900.749
146.865, 1019.782
148.250, 947.501
149.635, 969.226
151.019, 1138.780
152.403, 1204.009
153.788, 1343.076
155.171, 1352.199
156.555, 1441.751
157.939, 1598.490
159.322, 1724.523
160.705, 1805.213
162.088, 2074.899
163.470, 2357.873
164.853, 2455.130
166.235, 2829.669
167.617, 3204.489
168.998, 3584.533
170.380, 3804.649
171.761, 4194.823
173.142, 4255.101
174.523, 4455.500
175.904, 4336.033
177.284, 4116.707
178.664, 3937.528
180.044, 3578.505
181.424, 3359.640
182.803, 2834.936
184.183, 2546.396
185.562, 2260.022
186.940, 1868.816
188.319, 1579.778
189.698, 1367.908
191.076, 1058.208
192.454, 1025.676
193.831, 773.315
195.209, 697.125
196.586, 511.105
197.963, 414.257
199.340, 352.581
200.717, 220.074
202.093, 156.733
203.470, 81.553
204.846, 83.532
206.221, 1.329
207.597, 36.030
208.972, 86.570
210.347, 101.625
211.722, 93.164
213.097, 94.215
214.472, 115.103
215.846, 89.826
217.220, 117.384
218.594, 154.776
219.967, 85.002
221.341, 173.062
222.714, 186.954
224.087, 91.679
225.460, 63.221
226.832, 48.491
228.204, 13.483
229.577, 10.064
230.948, 45.772
232.320, 46.834
233.692, 21.557
235.063, 3.612
236.434, 36.303
237.805, 90.278
239.175, 64.378
240.545, 151.633
241.916, 228.042
243.286, 139.616
244.655, 367.356
246.025, 295.264
247.394, 428.339
248.763, 423.580
250.132, 569.986
251.501, 543.943
252.869, 607.937
254.237, 657.878
255.605, 626.701
256.973, 738.455
258.340, 782.551
259.708, 860.955
261.075, 853.646
262.442, 933.602
263.808, 1206.805
265.175, 1099.241
266.541, 1266.898
267.907, 1403.767
269.273, 1442.835
270.639, 1473.092
272.004, 1579.531
273.369, 1807.146
274.734, 1894.932
276.099, 1962.884
277.463, 2180.999
278.828, 2249.273
280.192, 2247.705
281.556, 2226.292
282.919, 2305.024
284.283, 2423.894
285.646, 2212.893
287.009, 2242.017
288.372, 2161.266
289.734, 2230.643
291.097, 2120.146
292.459, 1959.775
293.821, 1929.533
295.183, 1819.420
296.544, 1769.434
297.905, 1619.578
299.266, 1649.850
300.627, 1460.250
301.988, 1360.778
303.348, 1381.437
304.709, 1342.223
306.069, 1313.137
307.428, 1144.179
308.788, 1185.350
310.147, 1026.648
311.507, 998.049
312.865, 949.497
314.224, 910.995
315.583, 892.541
316.941, 964.110
318.299, 845.712
319.657, 652.345
321.015, 737.073
322.372, 699.931
323.729, 512.908
325.086, 599.016
326.443, 608.255
327.800, 517.627
329.156, 449.130
330.512, 414.762
331.868, 366.635
333.224, 400.414
334.579, 356.434
335.935, 340.582
337.290, 423.859
338.645, 396.266
339.999, 431.800
341.354, 481.463
342.708, 454.255
344.062, 411.174
345.416, 582.221
346.769, 596.396
348.123, 680.697
349.476, 815.125
350.829, 869.680
352.182, 924.359
353.534, 1069.166
354.887, 1198.846
356.239, 1399.152
357.591, 1544.332
358.942, 1739.638
360.294, 1915.065
361.645, 2098.938
362.996, 2273.927
364.347, 2460.704
365.698, 2629.470
367.048, 2822.555
368.398, 3024.489
369.748, 3207.506
371.098, 3333.184
372.448, 3532.262
373.797, 3756.068
375.146, 3805.976
376.495, 4019.513
377.844, 4224.815
379.192, 4368.814
380.540, 4604.615
381.889, 4736.357
383.236, 4991.309
384.584, 5272.595
385.932, 5263.700
387.279, 5708.508
388.626, 5814.478
389.973, 5981.076
391.319, 6128.833
392.666, 6364.209
394.012, 6694.166
395.358, 6932.646
396.704, 7221.238
398.049, 7629.806
399.394, 7788.617
400.740, 8287.543
402.084, 8686.577
403.429, 9175.722
404.774, 9894.978
406.118, 10614.344
407.462, 11463.815
408.806, 12303.399
410.150, 13433.090
411.493, 14542.887
412.836, 15722.794
414.179, 16772.832
415.522, 17183.006
416.865, 17773.312
418.207, 17593.770
419.549, 17164.361
420.891, 16375.099
422.233, 14596.027
423.575, 13507.115
424.916, 11928.370
426.257, 10699.813
427.598, 9181.443
428.939, 8293.243
430.279, 7635.227
431.619, 6717.373
432.959, 6189.723
434.299, 5912.264
435.639, 5704.990
436.978, 5387.928
438.318, 5261.056
439.657, 5464.376
440.996, 5457.901
442.334, 5421.632
443.673, 5695.572
445.011, 5639.693
446.349, 6114.018
447.687, 6548.539
449.024, 6833.229
450.361, 7268.102
451.699, 7673.149
453.036, 7988.334
454.372, 8683.712
455.709, 9089.249
457.045, 9704.938
458.381, 10330.797
459.717, 10556.782
461.053, 11002.893
462.388, 11109.148
463.724, 11275.529
465.059, 11252.047
466.394, 11098.680
467.728, 10955.428
469.063, 10372.297
470.397, 10039.272
471.731, 9596.357
473.065, 8783.549
474.398, 8460.851
475.732, 7778.257
477.065, 7305.770
478.398, 6833.390
479.731, 6251.116
481.063, 5818.950
482.396, 5336.890
483.728, 4744.936
485.060, 4723.088
486.391, 4271.346
487.723, 3759.706
489.054, 3678.171
490.385, 3406.740
491.716, 3065.410
493.047, 2904.186
494.377, 2593.061
495.708, 2312.038
497.038, 2331.116
498.368, 2200.295
499.697, 1839.573
501.027, 1808.951
502.356, 1648.428
503.685, 1528.003
505.014, 1407.676
506.342, 1217.445
507.671, 1057.312
508.999, 827.276
510.327, 757.335
511.655, 707.489
512.982, 547.738
514.310, 498.081
515.637, 318.518
516.964, 289.047
518.291, 69.669
519.617, 50.384
520.944, 111.189
522.270, 87.913
523.596, 206.952
524.921, 45.970
526.247, 194.912
527.572, 163.829
528.897, 192.712
530.222, 21.567
531.547, 160.339
532.871, 29.061
534.196, 177.689
535.520, 113.722
536.844, 74.765
538.167, 96.827
539.491, 81.480
540.814, 180.286
542.137, 7.839
543.460, 154.127
544.783, 3.796
546.105, 48.388
547.427, 130.667
548.749, 123.038
550.071, 175.496
551.393, 216.848
552.714, 230.659
554.035, 253.366
555.356, 256.153
556.677, 333.278
557.998, 561.964
559.318, 464.986
560.638, 618.086
561.958, 631.262
563.278, 644.515
564.597, 887.843
565.917, 1081.246
567.236, 1274.726
568.555, 1628.277
569.874, 1681.904
571.192, 1975.604
572.511, 1829.379
573.829, 1883.225
575.147, 1697.143
576.464, 1484.235
577.782, 1328.295
579.099, 1222.656
580.416, 1094.422
581.733, 1054.962
583.050, 1107.780
584.366, 997.152
585.683, 1084.764
586.999, 929.268
588.315, 937.985
589.630, 1030.671
590.946, 1074.077
592.261, 1184.614
593.576, 1173.867
594.891, 1229.219
596.206, 1290.537
597.520, 1291.574
598.834, 1356.607
600.148, 1531.188
601.462, 1557.225
602.776, 1606.340
604.089, 1562.039
605.402, 1894.778
606.715, 2022.390
608.028, 2051.790
609.341, 2341.280
610.653, 2560.376
611.965, 2603.915
613.277, 3069.463
614.589, 3502.879
615.901, 3721.721
617.212, 4008.873
618.523, 4327.355
619.834, 4400.622
621.145, 4578.141
622.456, 4419.366
623.766, 4015.810
625.076, 3992.890
626.386, 3640.315
627.696, 3546.119
629.006, 3251.949
630.315, 2977.804
631.624, 2953.683
632.933, 2689.585
634.242, 2665.512
635.551, 2531.462
636.859, 2387.436
638.167, 2358.582
639.475, 2349.451
640.783, 2305.491
642.090, 2331.554
643.398, 2437.637
644.705, 2293.740
646.012, 2399.866
647.318, 2326.011
648.625, 2332.175
649.931, 2300.270
651.237, 2274.562
652.543, 2150.784
653.849, 2177.024
655.155, 2033.284
656.460, 1979.561
657.765, 1995.854
659.070, 1992.164
660.375, 1938.492
661.679, 2004.836
662.984, 1881.198
664.288, 1947.574
665.592, 1923.966
666.895, 1970.373
668.199, 2006.796
669.502, 1853.233
670.805, 2079.685
672.108, 1966.150
673.411, 2202.631
674.713, 2119.125
676.016, 1985.632
677.318, 2122.152
678.620, 2268.686
679.921, 2182.548
681.223, 2221.617
682.524, 2166.901
683.825, 2163.350
685.126, 2257.264
686.427, 2186.867
687.727, 2302.872
689.028, 2383.803
690.328, 2259.603
691.628, 2239.785
692.927, 2166.461
694.227, 2180.748
695.526, 2217.449
696.825, 2291.475
698.124, 2098.201
699.423, 2104.613
700.721, 2041.363
702.020, 2117.883
703.318, 1974.656
704.616, 1851.440
705.913, 1708.235
707.211, 1615.042
708.508, 1535.099
709.805, 1453.355
711.102, 1425.522
712.399, 1352.369
713.695, 1319.227
714.992, 1306.094
716.288, 872.969
717.584, 1039.855
718.879, 856.749
720.175, 803.653
721.470, 770.565
722.765, 747.487
724.060, 641.638
725.355, 411.355
726.649, 427.304
727.944, 343.260
729.238, 227.225
730.532, 244.197
731.825, 56.178
733.119, 285.136
734.412, 32.101
735.705, 138.966
736.998, 11.148
738.291, 49.385
739.584, 160.691
740.876, 130.125
742.168, 76.668
743.460, 148.295
744.752, 45.041
746.043, 227.854
747.334, 178.822
748.626, 156.922
749.916, 261.143
751.207, 192.533
752.498, 188.061
753.788, 256.721
755.078, 249.546
756.368, 275.049
757.658, 157.693
758.947, 270.968
760.237, 221.411
761.526, 134.997
762.815, 166.684
764.104, 169.485
765.392, 6.600
766.680, 241.343
767.969, 106.432
769.257, 71.601
770.544, 165.830
771.832, 48.835
773.119, 8.497
774.406, 75.858
775.693, 27.729
776.980, 44.688
778.267, 75.854
779.553, 38.407
780.839, 20.961
782.125, 139.512
783.411, 276.081
784.697, 267.669
785.982, 164.276
787.267, 287.903
788.552, 333.551
789.837, 330.218
791.122, 405.906
792.406, 455.616
793.690, 505.347
794.974, 534.100
796.258, 612.874
797.542, 602.671
798.825, 598.491
800.108, 755.334
801.391, 772.200
802.674, 862.090
803.957, 895.004
805.239, 944.942
806.522, 973.905
807.804, 1087.893
809.085, 1171.906
810.367, 1105.945
811.649, 1250.011
812.930, 1404.102
814.211, 1198.220
815.492, 1442.363
816.772, 1606.535
818.053, 1680.734
819.333, 1524.962
820.613, 1689.217
821.893, 1753.501
823.173, 1917.813
824.452, 1912.155
825.732, 2016.526
827.011, 2020.928
828.290, 2185.358
829.568, 2049.820
830.847, 2124.313
832.125, 2148.836
833.403, 2303.391
834.681, 2427.991
835.959, 2372.657
837.236, 2457.363
838.514, 2422.133
839.791, 2676.964
841.068, 2561.859
842.345, 2676.792
843.621, 2671.785
844.898, 2586.818
846.174, 2771.915
847.450, 2757.047
848.726, 2822.227
850.001, 2797.441
851.277, 2882.705
852.552, 2838.004
853.827, 2963.343
855.102, 2868.719
856.376, 2894.133
857.651, 3019.584
858.925, 3135.074
860.199, 3070.600
861.473, 2826.164
862.746, 3071.768
864.020, 3147.408
865.293, 2883.088
866.566, 2928.807
867.839, 2924.564
869.112, 2810.363
870.384, 2866.200
871.656, 2612.079
872.928, 2757.997
874.200, 2513.957
875.472, 2629.960
876.744, 2406.005
878.015, 2182.096
879.286, 2408.230
880.557, 1944.417
881.828, 2090.658
883.098, 1896.977
884.369, 1953.358
885.639, 1836.705
886.909, 1703.239
888.178, 1565.834
889.448, 1548.740
890.717, 1469.239
891.987, 1427.593
893.256, 1329.551
894.524, 1186.420
895.793, 1143.540
897.061, 995.604
898.330, 1061.836
899.598, 1083.506
900.865, 933.193
902.133, 897.323
903.401, 977.509
904.668, 784.893
905.935, 723.706
907.202, 619.663
908.468, 651.224
909.735, 625.471
911.001, 676.776
912.267, 602.640
913.533, 554.616
914.799, 665.861
916.064, 625.456
917.330, 522.118
918.595, 796.306
919.860, 670.197
921.124, 892.219
922.389, 879.515
923.653, 915.524
924.918, 1219.359
926.182, 1196.000
927.445, 1347.990
928.709, 1705.868
929.972, 1860.181
931.236, 2059.396
932.499, 2258.089
933.761, 2576.579
935.024, 2916.817
936.286, 3367.143
937.549, 3782.349
938.811, 4238.059
940.073, 4758.647
941.334, 5159.334
942.596, 5710.104
943.857, 6360.963
945.118, 7111.914
946.379, 7992.947
947.640, 8754.073
948.900, 9815.283
950.161, 10526.579
951.421, 11907.956
952.681, 12739.414
953.940, 14380.960
955.200, 15652.583
956.459, 17614.291
957.719, 18916.072
958.978, 21037.938
960.236, 23179.893
961.495, 25701.920
962.753, 27814.025
964.012, 31596.219
965.270, 34528.480
966.527, 38500.836
967.785, 42893.254
969.043, 45385.762
970.300, 50328.344
971.557, 52941.016
972.814, 55133.746
974.071, 55256.574
975.327, 54179.457
976.583, 52272.426
977.840, 47245.469
979.095, 43058.605
980.351, 37911.793
981.607, 33565.062
982.862, 28818.406
984.117, 25671.828
985.372, 22145.318
986.627, 19408.891
987.882, 17182.527
989.136, 15386.243
990.390, 14080.031
991.644, 12683.889
992.898, 11727.819
994.152, 10591.819
995.405, 9795.893
996.659, 9390.034
997.912, 8564.247
999.165, 8488.524
1000.417, 7892.874
1001.670, 7537.293
1002.922, 7171.779
1004.174, 6876.334
1005.426, 6640.958
1006.678, 6485.649
1007.930, 6130.407
1009.181, 6115.230
1010.432, 5970.121
1011.683, 5705.077
1012.934, 5820.099
1014.185, 5485.186
1015.435, 5550.338
1016.685, 5485.554
1017.935, 5500.837
1019.185, 5466.183
1020.435, 5460.894
1021.684, 5537.067
1022.934, 5512.605
1024.183, 5518.344
1025.432, 5654.008
1026.680, 5639.991
1027.929, 5776.319
1029.177, 5792.439
1030.425, 5880.060
1031.673, 6038.228
1032.921, 6201.700
1034.169, 6181.828
1035.416, 6413.256
1036.663, 6528.283
1037.911, 6770.765
1039.157, 7086.521
1040.404, 7390.056
1041.650, 7670.357
1042.897, 8087.543
1044.143, 8472.370
1045.389, 8916.207
1046.634, 9323.887
1047.880, 10215.446
1049.125, 10623.090
1050.371, 11588.795
1051.615, 12336.890
1052.860, 13034.415
1054.105, 13994.554
1055.349, 14970.744
1056.593, 16105.567
1057.837, 16612.527
1059.081, 17768.205
1060.325, 18333.004
1061.568, 18938.654
1062.812, 18737.238
1064.055, 18873.570
1065.298, 18558.854
1066.540, 17929.025
1067.783, 17503.484
1069.025, 16791.484
1070.267, 16298.057
1071.509, 15245.495
1072.751, 14282.233
1073.993, 13208.683
1075.234, 12694.969
1076.475, 11640.974
1077.716, 10917.749
1078.957, 10226.682
1080.198, 9279.864
1081.438, 8671.835
1082.679, 8020.649
1083.919, 7405.460
1085.159, 6947.581
1086.398, 6334.622
1087.638, 6012.375
1088.877, 5344.198
1090.116, 4958.746
1091.355, 4670.037
1092.594, 4282.872
1093.833, 3966.062
1095.071, 3693.804
1096.309, 3354.126
1097.547, 3158.946
1098.785, 2912.321
1100.023, 2632.695
1101.260, 2463.776
1102.498, 2291.402
1103.735, 2174.156
1104.972, 2087.248
1106.208, 2008.638
1107.445, 1710.250
1108.681, 1643.856
1109.918, 1539.614
1111.154, 1480.393
1112.389, 1359.515
1113.625, 1313.511
1114.860, 1272.274
1116.096, 1145.238
1117.331, 1038.143
1118.566, 985.687
1119.800, 954.515
1121.035, 829.839
1122.269, 1029.540
1123.503, 963.121
1124.737, 817.466
1125.971, 665.724
1127.205, 704.658
1128.438, 599.489
1129.671, 593.014
1130.904, 497.875
1132.137, 453.433
1133.370, 396.384
1134.602, 432.322
1135.834, 312.496
1137.066, 444.437
1138.298, 287.294
1139.530, 320.268
1140.762, 262.986
1141.993, 290.758
1143.224, 379.606
1144.455, 156.123
1145.686, 242.765
1146.917, 231.082
1148.147, 54.708
1149.377, 197.190
1150.607, 193.685
1151.837, 225.306
1153.067, 221.838
1154.296, 197.378
1155.526, 168.602
1156.755, 141.729
1157.984, 119.904
1159.213, 115.019
1160.441, 197.260
1161.670, 139.381
1162.898, 182.557
1164.126, 106.735
1165.354, 164.842
1166.581, 52.973
1167.809, 68.985
1169.036, 91.025
1170.263, 61.021
1171.490, 0.085
1172.717, 68.852
1173.943, 0.539
1175.170, 9.707
1176.396, 8.010
1177.622, 39.558
1178.848, 47.090
1180.073, 129.588
1181.299, 72.133
1182.524, 88.736
1183.749, 141.754
1184.974, 94.665
1186.199, 147.587
1187.423, 104.761
1188.648, 48.822
1189.872, 154.059
1191.096, 111.623
1192.320, 91.173
1193.543, 147.946
1194.767, 45.828
1195.990, 138.555
1197.213, 102.829
1198.436, 136.319
1199.659, 122.786
1200.881, 159.698
1202.104, 92.354
1203.326, 66.239
1204.548, 95.590
1205.770, 70.845
1206.991, 52.230
1208.213, 61.755
1209.434, 104.238
1210.655, 64.171
1211.876, 43.697
1213.096, 117.735
1214.317, 22.984
1215.537, 76.444
1216.757, 49.715
1217.977, 60.223
1219.197, 45.952
1220.417, 37.913
1221.636, 32.773
1222.855, 25.644
1224.074, 34.974
1225.293, 66.924
1226.512, 30.384
1227.731, 64.750
1228.949, 57.814
1230.167, 8.233
1231.385, 71.115
1232.603, 57.169
1233.820, 78.616
1235.038, 96.285
1236.255, 23.955
1237.472, 142.120
1238.689, 67.452
1239.906, 60.614
1241.122, 131.506
1242.338, 87.417
1243.555, 123.046
1244.771, 97.635
1245.986, 163.412
1247.202, 191.881
1248.417, 150.393
1249.633, 238.751
1250.848, 201.791
1252.063, 179.015
1253.277, 265.908
1254.492, 167.814
1255.706, 254.764
1256.920, 255.250
1258.134, 217.054
1259.348, 234.735
1260.562, 265.087
1261.775, 243.505
1262.988, 252.850
1264.201, 297.937
1265.414, 266.034
1266.627, 327.839
1267.839, 284.479
1269.052, 300.316
1270.264, 329.762
1271.476, 341.235
1272.688, 414.726
1273.899, 438.881
1275.111, 312.085
1276.322, 430.148
1277.533, 309.004
1278.744, 406.046
1279.955, 407.697
1281.165, 355.359
1282.376, 402.862
1283.586, 420.379
1284.796, 389.752
1286.006, 447.914
1287.215, 431.947
1288.425, 409.998
1289.634, 485.894
1290.843, 451.620
1292.052, 525.325
1293.261, 446.895
1294.469, 476.324
1295.678, 468.966
1296.886, 433.203
1298.094, 449.447
1299.302, 472.615
1300.509, 480.548
1301.717, 528.869
1302.924, 510.605
1304.131, 518.916
1305.338, 482.410
1306.545, 503.924
1307.752, 483.365
1308.958, 475.898
1310.164, 484.697
1311.370, 471.237
1312.576, 491.244
1313.782, 476.119
1314.987, 478.087
1316.193, 494.143
1317.398, 473.765
1318.603, 524.529
1319.807, 497.671
1321.012, 494.430
1322.216, 551.513
1323.421, 526.910
1324.625, 500.723
1325.829, 478.436
1327.032, 468.221
1328.236, 539.670
1329.439, 475.500
1330.642, 447.997
1331.845, 466.891
1333.048, 406.185
1334.251, 423.890
1335.453, 459.572
1336.656, 418.633
1337.858, 437.751
1339.060, 418.035
1340.261, 353.391
1341.463, 438.696
1342.664, 450.954
1343.866, 398.838
1345.067, 465.318
1346.267, 347.319
1347.468, 361.211
1348.669, 454.615
1349.869, 370.811
1351.069, 363.459
1352.269, 360.967
1353.469, 312.583
1354.668, 373.298
1355.868, 242.327
1357.067, 321.396
1358.266, 320.646
1359.465, 336.665
1360.664, 246.993
1361.862, 262.787
1363.061, 272.712
1364.259, 287.324
1365.457, 223.371
1366.655, 192.398
1367.852, 257.671
1369.050, 157.163
1370.247, 255.450
1371.444, 213.305
1372.641, 174.482
1373.838, 215.767
1375.035, 220.010
1376.231, 159.898
1377.427, 268.053
1378.623, 187.682
1379.819, 162.488
1381.015, 246.471
1382.211, 180.997
1383.406, 192.667
1384.601, 228.602
1385.796, 197.891
1386.991, 240.051
1388.185, 225.910
1389.380, 156.404
1390.574, 205.298
1391.768, 171.468
1392.962, 183.562
1394.156, 235.302
1395.350, 167.347
1396.543, 222.535
1397.736, 195.585
1398.929, 161.216
1400.122, 282.407
1401.315, 148.255
1402.507, 153.449
1403.700, 207.095
1404.892, 166.785
1406.084, 159.588
1407.276, 196.238
1408.467, 169.076
1409.659, 213.407
1410.850, 229.395
1412.041, 154.254
1413.232, 247.350
1414.423, 189.332
1415.614, 158.847
1416.804, 232.983
1417.994, 173.868
1419.184, 179.588
1420.374, 232.100
1421.564, 128.533
1422.753, 238.714
1423.943, 163.215
1425.132, 172.063
1426.321, 140.114
1427.510, 145.778
1428.698, 167.298
1429.887, 191.964
1431.075, 136.650
1432.263, 144.988
1433.451, 206.327
1434.639, 135.795
1435.827, 140.630
1437.014, 149.368
1438.201, 69.778
1439.388, 140.172
1440.575, 110.922
1441.762, 102.713
1442.949, 163.710
1444.135, 35.379
1445.321, 141.182
1446.507, 88.027
1447.693, 30.826
1448.879, 103.091
1450.064, 95.448
1451.250, 48.537
1452.435, 99.305
1453.620, 96.864
1454.805, 99.919
1455.989, 116.300
1457.174, 59.708
1458.358, 27.002
1459.542, 58.697
1460.726, 35.495
1461.910, 105.162
1463.093, 140.731
1464.277, 54.968
1465.460, 126.995
1466.643, 107.283
1467.826, 27.595
1469.009, 95.273
1470.191, 79.595
1471.373, 124.836
1472.556, 98.955
1473.738, 71.569
1474.919, 106.852
1476.101, 25.372
1477.283, 16.956
1478.464, 57.922
1479.645, 45.654
1480.826, 43.748
1482.007, 128.490
1483.187, 50.180
1484.368, 54.596
1485.548, 83.419
1486.728, 100.925
1487.908, 30.676
1489.088, 72.345
1490.268, 21.572
1491.447, 58.145
1492.626, 13.822
1493.805, 30.031
1494.984, 78.993
1496.163, 113.707
1497.341, 37.666
1498.520, 94.639
1499.698, 29.559
1500.876, 8.620
1502.054, 80.197
1503.232, 43.432
1504.409, 72.908
1505.586, 64.748
1506.763, 6.224
1507.940, 42.479
1509.117, 62.252
1510.294, 66.347
1511.470, 49.878
1512.647, 7.952
1513.823, 91.724
1514.999, 111.005
1516.174, 39.686
1517.350, 79.538
1518.526, 72.013
1519.701, 34.759
1520.876, 16.893
1522.051, 0.000
##END=



