##NAMES=Montebrasite
##RRUFFID=R040060
##IDEAL CHEMISTRY=LiAlPO_4_(OH)
##LOCALITY=Oxford County, Maine, USA
##OWNER=RRUFF
##SOURCE=University of Arizona Mineral Museum
##DESCRIPTION=White massive
##STATUS=The identification of this mineral has been confirmed by X-ray diffraction and chemical analysis
##URL=rruff.info/R040060
##MEASURED CHEMISTRY=LiAl(PO_4_)((OH)_0.79_F_0.21_)
##PIN_ID=L00218
##ORIENTATION=Laser parallel to -c* (0 0 -1). Fiducial mark perpendicular to laser is parallel to a [1 0 0]
105.812, 0.000
107.207, 6.984
108.603, 46.695
109.998, 38.761
111.393, 158.281
112.787, 685.610
114.182, 1452.678
115.576, 2032.896
116.970, 2278.755
118.363, 2605.972
119.757, 1977.461
121.150, 1433.373
122.543, 968.057
123.936, 834.288
125.328, 923.395
126.720, 1004.984
128.112, 1320.450
129.504, 1806.348
130.896, 2441.359
132.287, 3064.241
133.678, 3765.815
135.069, 4189.945
136.460, 4392.524
137.850, 4435.514
139.240, 3848.892
140.630, 3246.702
142.020, 2504.944
143.410, 1727.602
144.799, 1186.503
146.188, 777.705
147.577, 579.237
148.965, 406.165
150.354, 290.546
151.742, 190.439
153.130, 253.897
154.517, 227.966
155.905, 313.687
157.292, 402.095
158.679, 563.223
160.066, 659.097
161.452, 953.742
162.839, 1123.177
164.225, 1425.423
165.611, 1718.494
166.996, 1968.469
168.381, 2180.737
169.767, 2386.210
171.152, 2452.727
172.536, 2223.143
173.921, 2183.226
175.305, 1873.091
176.689, 1687.560
178.073, 1643.308
179.456, 1548.952
180.839, 1425.993
182.222, 1407.346
183.605, 1492.072
184.988, 1484.068
186.370, 1558.073
187.752, 1644.085
189.134, 1709.095
190.516, 1747.093
191.898, 1916.123
193.279, 1977.208
194.660, 2002.359
196.041, 1975.583
197.421, 1874.885
198.801, 1622.266
200.182, 1431.724
201.561, 1188.259
202.941, 896.869
204.321, 644.552
205.700, 402.304
207.079, 284.123
208.457, 110.004
209.836, 88.943
211.214, 25.935
212.592, 33.976
213.970, 72.063
215.348, 118.193
216.725, 158.362
218.102, 250.570
219.479, 289.811
220.856, 318.085
222.232, 379.389
223.608, 408.718
224.984, 391.064
226.360, 413.764
227.736, 458.270
229.111, 441.173
230.486, 384.404
231.861, 382.341
233.236, 218.282
234.610, 227.420
235.984, 163.184
237.358, 72.928
238.732, 83.509
240.105, 67.552
241.479, 4.538
242.852, 86.435
244.224, 74.260
245.597, 134.056
246.969, 174.845
248.342, 182.635
249.713, 154.428
251.085, 185.229
252.457, 171.037
253.828, 173.855
255.199, 125.682
256.570, 146.562
257.940, 47.531
259.310, 3.663
260.681, 102.993
262.050, 187.443
263.420, 280.706
264.790, 415.833
266.159, 696.943
267.528, 932.062
268.896, 1322.191
270.265, 1894.329
271.633, 2551.758
273.001, 3150.550
274.369, 3906.219
275.737, 4429.338
277.104, 4712.802
278.471, 4686.542
279.838, 4190.503
281.205, 3644.649
282.572, 3260.945
283.938, 2935.368
285.304, 2677.896
286.670, 2764.512
288.035, 3144.202
289.401, 3791.955
290.766, 4896.756
292.131, 6611.595
293.495, 9096.460
294.860, 11961.349
296.224, 14796.249
297.588, 17331.162
298.952, 18516.086
300.315, 18471.012
301.679, 17025.941
303.042, 14770.864
304.405, 12465.792
305.767, 10420.708
307.130, 8935.601
308.492, 7760.452
309.854, 7035.255
311.216, 6470.018
312.578, 5954.739
313.939, 5419.423
315.300, 4844.072
316.661, 4468.686
318.021, 4003.268
319.382, 4017.819
320.742, 3782.341
322.102, 3596.836
323.462, 3401.303
324.821, 3015.744
326.181, 2746.159
327.540, 2179.550
328.899, 1888.917
330.257, 1504.261
331.616, 1256.582
332.974, 925.878
334.332, 826.148
335.690, 613.392
337.047, 486.610
338.405, 437.740
339.762, 370.733
341.119, 239.501
342.475, 192.037
343.832, 131.335
345.188, 102.438
346.544, 48.410
347.900, 14.362
349.255, 24.301
350.610, 73.772
351.965, 19.884
353.320, 23.982
354.675, 0.165
356.029, 21.331
357.384, 28.531
358.738, 33.702
360.091, 17.283
361.445, 64.706
362.798, 117.823
364.151, 19.565
365.504, 116.359
366.857, 42.940
368.209, 74.989
369.561, 185.268
370.913, 228.148
372.265, 213.510
373.617, 247.659
374.968, 356.534
376.319, 354.064
377.670, 420.855
379.021, 496.469
380.371, 487.796
381.721, 508.211
383.071, 616.688
384.421, 673.727
385.770, 708.151
387.120, 710.122
388.469, 793.812
389.818, 888.636
391.166, 885.309
392.515, 945.925
393.863, 970.902
395.211, 999.058
396.559, 1016.570
397.906, 1030.054
399.254, 1066.514
400.601, 1129.105
401.948, 1086.566
403.294, 1038.159
404.641, 1052.090
405.987, 1119.917
407.333, 1131.003
408.679, 1220.783
410.025, 1224.983
411.370, 1365.677
412.715, 1419.122
414.060, 1614.623
415.405, 1598.994
416.749, 1746.181
418.093, 2164.392
419.437, 2725.269
420.781, 3794.371
422.125, 5286.018
423.468, 7688.471
424.811, 10350.921
426.154, 12583.363
427.497, 13235.801
428.839, 12468.242
430.182, 10430.678
431.524, 8003.128
432.866, 5865.582
434.207, 4228.036
435.549, 3010.490
436.890, 2190.936
438.231, 1689.371
439.572, 1298.792
440.912, 1045.199
442.252, 990.588
443.593, 846.959
444.932, 737.311
446.272, 661.641
447.611, 575.949
448.951, 524.234
450.290, 554.496
451.628, 448.734
452.967, 509.948
454.305, 404.136
455.644, 449.299
456.981, 391.436
458.319, 381.547
459.657, 488.630
460.994, 506.686
462.331, 574.714
463.668, 543.713
465.004, 670.683
466.341, 749.625
467.677, 869.633
469.013, 929.421
470.348, 1202.275
471.684, 1365.101
473.019, 1584.896
474.354, 1966.664
475.689, 2379.402
477.024, 3016.110
478.358, 3397.789
479.692, 3879.439
481.026, 4391.061
482.360, 4682.651
483.694, 4974.212
485.027, 4985.743
486.360, 4797.245
487.693, 4838.717
489.026, 4610.158
490.358, 4411.569
491.691, 4402.950
493.023, 4184.300
494.354, 4005.621
495.686, 3966.910
497.017, 3648.169
498.349, 3459.397
499.680, 3120.594
501.010, 2701.760
502.341, 2542.898
503.671, 2098.008
505.001, 1861.025
506.331, 1613.886
507.661, 1401.037
508.990, 1074.832
510.319, 951.063
511.648, 729.307
512.977, 533.896
514.306, 503.998
515.634, 379.750
516.962, 216.138
518.290, 139.313
519.618, 173.731
520.945, 171.288
522.273, 139.907
523.600, 22.942
524.927, 16.874
526.253, 30.956
527.580, 0.113
528.906, 42.353
530.232, 8.566
531.558, 9.934
532.883, 40.354
534.208, 67.875
535.534, 13.869
536.858, 114.366
538.183, 35.232
539.508, 55.435
540.832, 73.452
542.156, 62.031
543.480, 164.900
544.803, 72.888
546.127, 188.577
547.450, 276.844
548.773, 227.260
550.096, 339.303
551.418, 343.495
552.741, 364.525
554.063, 348.980
555.385, 329.862
556.706, 290.744
558.028, 300.294
559.349, 254.435
560.670, 302.943
561.991, 143.123
563.312, 206.121
564.632, 288.585
565.952, 167.038
567.272, 306.262
568.592, 323.285
569.911, 396.375
571.231, 410.262
572.550, 404.103
573.869, 464.631
575.187, 455.386
576.506, 499.671
577.824, 509.105
579.142, 566.534
580.460, 608.901
581.778, 670.798
583.095, 729.171
584.412, 751.469
585.729, 839.516
587.046, 856.149
588.363, 1076.804
589.679, 1168.787
590.995, 1432.515
592.311, 1671.100
593.627, 1925.963
594.942, 2346.378
596.258, 2936.566
597.573, 3826.762
598.888, 4886.715
600.202, 5726.572
601.517, 6286.284
602.831, 6295.857
604.145, 5835.329
605.459, 5004.615
606.772, 4193.760
608.086, 3612.808
609.399, 3062.086
610.712, 2603.268
612.024, 2129.909
613.337, 2048.975
614.649, 1917.814
615.961, 1996.609
617.273, 1945.081
618.585, 2153.506
619.896, 2511.885
621.208, 2690.217
622.519, 3308.504
623.829, 3946.743
625.140, 4864.937
626.450, 5753.084
627.761, 6581.184
629.071, 7079.236
630.380, 7187.244
631.690, 6945.202
632.999, 6383.115
634.308, 5930.980
635.617, 5528.801
636.926, 5666.573
638.235, 6094.297
639.543, 7211.974
640.851, 9179.604
642.159, 11817.187
643.466, 15014.721
644.774, 18232.209
646.081, 19859.648
647.388, 19307.041
648.695, 17064.391
650.002, 13971.683
651.308, 10958.932
652.614, 8246.133
653.920, 6243.287
655.226, 4780.393
656.531, 3627.448
657.837, 2854.458
659.142, 2341.418
660.447, 1958.333
661.752, 1625.198
663.056, 1332.016
664.360, 1168.785
665.664, 1019.512
666.968, 882.200
668.272, 772.330
669.575, 677.483
670.879, 592.090
672.182, 548.654
673.484, 487.187
674.787, 448.637
676.089, 346.726
677.392, 359.916
678.694, 239.075
679.995, 233.053
681.297, 283.347
682.598, 177.530
683.899, 181.866
685.200, 230.742
686.501, 252.262
687.802, 117.120
689.102, 101.436
690.402, 104.316
691.702, 51.405
693.002, 82.725
694.301, 4.367
695.600, 80.361
696.899, 35.626
698.198, 13.155
699.497, 37.056
700.795, 31.526
702.093, 39.846
703.391, 1.799
704.689, 15.881
705.987, 29.956
707.284, 1.001
708.581, 44.177
709.878, 50.723
711.175, 84.970
712.472, 7.825
713.768, 126.604
715.064, 59.523
716.360, 48.836
717.656, 65.888
718.951, 30.984
720.247, 65.031
721.542, 48.196
722.837, 21.887
724.131, 28.415
725.426, 27.561
726.720, 35.320
728.014, 4.890
729.308, 48.764
730.601, 15.650
731.895, 47.376
733.188, 142.009
734.481, 59.662
735.774, 143.551
737.067, 65.707
738.359, 49.906
739.651, 141.248
740.943, 61.189
742.235, 38.620
743.526, 12.458
744.818, 10.502
746.109, 10.971
747.400, 35.324
748.691, 62.322
749.981, 82.780
751.271, 99.791
752.562, 92.130
753.851, 115.028
755.141, 128.072
756.431, 150.241
757.720, 174.582
759.009, 186.223
760.298, 218.230
761.587, 241.104
762.875, 254.354
764.163, 186.211
765.451, 212.086
766.739, 300.654
768.027, 203.614
769.314, 245.657
770.601, 251.776
771.888, 333.330
773.175, 364.838
774.462, 386.318
775.748, 467.733
777.034, 429.102
778.320, 550.425
779.606, 521.702
780.892, 672.933
782.177, 774.119
783.462, 895.260
784.747, 1076.356
786.032, 1147.407
787.317, 1398.414
788.601, 1679.377
789.885, 1830.295
791.169, 2181.171
792.453, 2562.002
793.736, 2852.790
795.019, 3283.535
796.303, 3684.238
797.585, 4044.897
798.868, 4345.515
800.151, 4386.088
801.433, 4536.621
802.715, 4467.113
803.997, 4337.562
805.279, 4027.973
806.560, 3638.340
807.841, 3558.667
809.122, 3178.954
810.403, 2899.199
811.684, 2739.406
812.964, 2459.573
814.245, 2189.701
815.525, 2179.789
816.804, 1809.840
818.084, 1659.850
819.363, 1589.822
820.643, 1309.757
821.922, 1219.654
823.201, 1029.513
824.479, 939.335
825.758, 829.119
827.036, 708.865
828.314, 568.576
829.592, 514.961
830.869, 547.802
832.147, 407.375
833.424, 396.405
834.701, 355.378
835.977, 194.531
837.254, 203.213
838.530, 171.899
839.807, 210.765
841.082, 239.712
842.358, 188.012
843.634, 76.161
844.909, 74.333
846.184, 81.891
847.459, 99.879
848.734, 95.675
850.008, 136.669
851.283, 55.972
852.557, 80.609
853.831, 2.165
855.105, 4.873
856.378, 98.141
857.651, 26.230
858.925, 60.178
860.197, 113.896
861.470, 70.594
862.743, 71.998
864.015, 50.896
865.287, 46.632
866.559, 42.259
867.831, 99.920
869.102, 8.773
870.373, 42.059
871.645, 4.915
872.915, 41.030
874.186, 21.625
875.457, 8.202
876.727, 26.031
877.997, 20.090
879.267, 34.225
880.536, 18.172
881.806, 95.911
883.075, 72.304
884.344, 14.295
885.613, 87.083
886.882, 24.536
888.150, 15.147
889.419, 52.593
890.687, 50.649
891.954, 34.293
893.222, 26.922
894.490, 40.357
895.757, 5.560
897.024, 9.596
898.291, 66.133
899.557, 88.521
900.824, 105.733
902.090, 170.662
903.356, 22.546
904.622, 34.418
905.888, 8.675
907.153, 41.577
908.418, 35.560
909.683, 57.209
910.948, 60.103
912.213, 77.466
913.477, 35.035
914.741, 47.448
916.005, 40.180
917.269, 18.214
918.533, 23.879
919.796, 47.196
921.060, 19.790
922.323, 122.209
923.585, 45.347
924.848, 23.180
926.111, 1.014
927.373, 148.845
928.635, 126.675
929.897, 44.505
931.158, 72.336
932.420, 120.167
933.681, 87.999
934.942, 165.832
936.203, 133.667
937.463, 211.503
938.724, 139.342
939.984, 137.183
941.244, 225.027
942.504, 192.875
943.764, 200.726
945.023, 98.581
946.282, 206.440
947.541, 284.303
948.800, 282.171
950.059, 200.042
951.317, 397.921
952.575, 155.805
953.833, 323.695
955.091, 361.592
956.349, 409.494
957.606, 557.404
958.864, 415.323
960.121, 633.248
961.377, 771.184
962.634, 969.128
963.891, 1477.080
965.147, 1975.043
966.403, 2033.014
967.659, 1690.995
968.914, 1428.986
970.170, 1266.986
971.425, 1225.018
972.680, 1183.060
973.935, 1211.113
975.190, 1189.200
976.444, 1397.296
977.698, 1555.405
978.952, 1613.547
980.206, 1941.703
981.460, 1859.877
982.713, 2038.064
983.967, 2216.267
985.220, 2074.486
986.473, 2402.723
987.725, 2420.977
988.978, 2809.249
990.230, 3247.477
991.482, 3395.787
992.734, 3984.154
993.986, 4412.541
995.237, 4990.567
996.488, 5698.617
997.739, 6686.740
998.990, 7714.975
1000.241, 8733.249
1001.492, 10301.801
1002.742, 12015.680
1003.992, 13974.098
1005.242, 16401.391
1006.492, 18979.100
1007.741, 21697.797
1008.990, 24524.119
1010.239, 27062.773
1011.488, 28651.748
1012.737, 29325.820
1013.986, 28264.760
1015.234, 26100.361
1016.482, 23409.334
1017.730, 20538.328
1018.978, 17731.213
1020.225, 15269.423
1021.473, 13156.031
1022.720, 11644.966
1023.967, 10284.235
1025.213, 9373.531
1026.460, 8602.823
1027.706, 8090.776
1028.953, 7779.078
1030.198, 7706.799
1031.444, 7615.354
1032.690, 7995.119
1033.935, 8304.914
1035.180, 9024.006
1036.425, 9703.987
1037.670, 10693.993
1038.915, 12234.083
1040.159, 13884.203
1041.403, 15852.246
1042.647, 18301.129
1043.891, 20180.385
1045.135, 22339.121
1046.378, 23089.439
1047.621, 22789.531
1048.864, 22357.369
1050.107, 20837.816
1051.350, 20173.816
1052.592, 20044.332
1053.835, 20324.252
1055.077, 21534.824
1056.318, 23405.256
1057.560, 25264.678
1058.802, 27575.361
1060.043, 28114.266
1061.284, 27585.006
1062.525, 25405.789
1063.765, 22245.684
1065.006, 18965.170
1066.246, 15696.028
1067.486, 13056.542
1068.726, 10772.226
1069.966, 8506.617
1071.205, 7277.186
1072.445, 5993.656
1073.684, 5054.666
1074.923, 4465.699
1076.161, 3936.736
1077.400, 3460.528
1078.638, 3248.920
1079.876, 2900.049
1081.114, 2791.200
1082.352, 2712.379
1083.590, 2343.610
1084.827, 2194.863
1086.064, 1986.153
1087.301, 2137.465
1088.538, 1688.800
1089.775, 1750.157
1091.011, 1871.540
1092.247, 1672.943
1093.483, 1784.371
1094.719, 1725.820
1095.955, 1817.290
1097.190, 1978.782
1098.425, 1940.295
1099.660, 2391.836
1100.895, 2583.397
1102.130, 2965.027
1103.364, 3626.808
1104.598, 4118.434
1105.833, 5200.080
1107.066, 6022.104
1108.300, 6623.797
1109.534, 6975.912
1110.767, 6957.971
1112.000, 6299.728
1113.233, 5881.838
1114.466, 5393.633
1115.698, 4905.707
1116.930, 4377.547
1118.163, 4029.406
1119.394, 3746.069
1120.626, 3537.967
1121.858, 3230.246
1123.089, 3037.427
1124.320, 3098.827
1125.551, 2530.882
1126.782, 2397.975
1128.013, 1950.089
1129.243, 1693.418
1130.473, 1785.996
1131.703, 1348.260
1132.933, 1400.840
1134.163, 1023.524
1135.392, 1046.147
1136.621, 1028.928
1137.850, 631.677
1139.079, 724.238
1140.308, 545.907
1141.536, 498.340
1142.765, 569.481
1143.993, 371.828
1145.221, 414.803
1146.448, 208.125
1147.676, 391.967
1148.903, 257.756
1150.130, 260.535
1151.357, 325.859
1152.584, 461.299
1153.810, 324.072
1155.037, 256.742
1156.263, 203.014
1157.489, 216.047
1158.715, 344.365
1159.940, 247.807
1161.166, 191.143
1162.391, 406.035
1163.616, 219.467
1164.841, 391.881
1166.065, 295.633
1167.290, 328.486
1168.514, 411.523
1169.738, 355.242
1170.962, 418.658
1172.185, 525.062
1173.409, 399.293
1174.632, 652.418
1175.855, 656.479
1177.078, 614.031
1178.301, 987.428
1179.523, 896.561
1180.746, 1029.666
1181.968, 1329.674
1183.190, 1365.486
1184.412, 1649.084
1185.633, 1997.676
1186.855, 2271.373
1188.076, 2484.516
1189.297, 2661.100
1190.518, 2504.615
1191.738, 2628.361
1192.959, 2428.625
1194.179, 2391.449
1195.399, 2284.740
1196.619, 1917.754
1197.838, 1840.172
1199.058, 1913.215
1200.277, 1655.881
1201.496, 1650.334
1202.715, 1309.008
1203.934, 1251.559
1205.152, 1174.707
1206.371, 1008.244
1207.589, 970.688
1208.807, 797.906
1210.024, 600.967
1211.242, 673.277
1212.459, 566.221
1213.677, 588.676
1214.894, 480.949
1216.110, 314.141
1217.327, 396.385
1218.543, 369.262
1219.760, 241.918
1220.976, 354.402
1222.192, 206.930
1223.407, 139.580
1224.623, 332.189
1225.838, 334.943
1227.053, 217.465
1228.268, 170.859
1229.483, 120.184
1230.697, 202.371
1231.912, 147.838
1233.126, 140.188
1234.340, 232.410
1235.554, 169.066
1236.767, 217.727
1237.981, 149.832
1239.194, 152.539
1240.407, 174.506
1241.620, 126.469
1242.832, 148.975
1244.045, 132.068
1245.257, 102.943
1246.469, 106.229
1247.681, 88.156
1248.893, 60.758
1250.104, 142.670
1251.315, 134.648
1252.527, 27.602
1253.738, 119.439
1254.948, 21.555
1256.159, 44.342
1257.369, 136.105
1258.579, 48.223
1259.789, 139.951
1260.999, 71.615
1262.209, 144.168
1263.418, 275.914
1264.628, 72.436
1265.837, 149.611
1267.046, 61.068
1268.254, 67.561
1269.463, 153.746
1270.671, 134.998
1271.879, 69.451
1273.087, 141.660
1274.295, 6.809
1275.502, 44.236
1276.710, 125.227
1277.917, 56.180
1279.124, 37.418
1280.331, 58.174
1281.537, 29.934
1282.744, 40.494
1283.950, 90.980
1285.156, 128.426
1286.362, 131.912
1287.568, 117.830
1288.773, 162.438
1289.978, 32.582
1291.184, 12.680
1292.389, 2.693
1293.593, 27.348
1294.798, 82.529
1296.002, 17.633
1297.206, 177.852
1298.410, 101.834
1299.614, 131.479
1300.818, 28.916
1302.021, 60.969
1303.225, 59.531
1304.428, 29.891
1305.631, 39.209
1306.833, 161.547
1308.036, 37.598
1309.238, 376.689
1310.440, 25.732
1311.642, 135.016
1312.844, 93.943
1314.045, 32.822
1315.247, 51.641
1316.448, 19.602
1317.649, 19.082
1318.850, 87.699
1320.051, 26.256
1321.251, 35.256
1322.451, 63.154
1323.651, 218.500
1324.851, 99.719
1326.051, 72.168
1327.251, 164.148
1328.450, 53.760
1329.649, 48.398
1330.848, 49.352
1332.047, 97.045
1333.245, 15.322
1334.444, 62.242
1335.642, 49.750
1336.840, 72.799
1338.038, 164.568
1339.236, 81.883
1340.433, 119.139
1341.630, 266.338
1342.828, 113.480
1344.025, 200.570
1345.221, 27.607
1346.418, 45.422
1347.614, 221.473
1348.810, 98.311
1350.006, 65.096
1351.202, 241.828
1352.398, 21.492
1353.593, 105.119
1354.789, 271.682
1355.984, 118.199
1357.179, 224.674
1358.373, 351.102
1359.568, 87.490
1360.762, 373.832
1361.956, 120.139
1363.150, 166.402
1364.344, 202.629
1365.538, 188.824
1366.731, 154.988
1367.924, 161.123
1369.117, 127.232
1370.310, 173.322
1371.503, 70.652
1372.695, 53.289
1373.888, 242.738
1375.080, 8.773
1376.272, 194.555
1377.464, 220.195
1378.655, 155.752
1379.847, 105.824
1381.038, 245.850
1382.229, 125.830
1383.420, 385.764
1384.610, 405.643
1385.801, 155.238
1386.991, 395.016
1388.181, 84.359
1389.371, 313.242
1390.561, 312.484
1391.750, 151.754
1392.940, 361.244
1394.129, 275.309
1395.318, 108.920
1396.507, 428.053
1397.696, 221.209
1398.884, 118.123
1400.072, 396.270
1401.260, 213.871
1402.448, 411.199
1403.636, 417.959
1404.824, 115.293
1406.011, 252.631
1407.198, 267.652
1408.385, 160.834
1409.572, 258.375
1410.758, 295.281
1411.945, 427.131
1413.131, 345.613
1414.317, 14.715
1415.503, 321.289
1416.689, 146.232
1417.874, 270.941
1419.060, 331.289
1420.245, 254.918
1421.430, 162.350
1422.615, 523.719
1423.799, 48.215
1424.984, 252.998
1426.168, 337.852
1427.352, 146.236
1428.536, 228.166
1429.720, 250.811
1430.903, 153.756
1432.087, 257.896
1433.270, 359.215
1434.453, 303.521
1435.635, 364.980
1436.818, 371.164
1438.001, 338.180
1439.183, 297.223
1440.365, 299.799
1441.547, 352.768
1442.728, 375.539
1443.910, 67.986
1445.091, 449.811
1446.272, 460.287
1447.453, 209.537
1448.634, 415.359
1449.815, 226.939
1450.995, 337.643
1452.176, 378.557
1453.356, 49.527
1454.535, 418.295
1455.715, 429.777
1456.895, 199.426
1458.074, 477.656
1459.253, 337.631
1460.432, 175.709
1461.611, 514.924
1462.790, 122.695
1463.968, 371.928
1465.146, 460.229
1466.324, 240.018
1467.502, 438.123
1468.680, 536.424
1469.858, 215.742
1471.035, 423.957
1472.212, 280.494
1473.389, 250.650
1474.566, 510.367
1475.742, 310.453
1476.919, 250.652
1478.095, 320.980
1479.271, 201.367
1480.447, 261.584
1481.623, 481.625
1482.798, 220.191
1483.974, 450.131
1485.149, 330.365
1486.324, 150.531
1487.499, 599.381
1488.674, 139.434
1489.848, 229.555
1491.022, 279.766
1492.196, 210.107
1493.370, 290.562
1494.544, 331.660
1495.718, 192.961
1496.891, 254.592
1498.064, 426.381
1499.237, 98.322
1500.410, 240.420
1501.583, 202.787
1502.755, 75.482
1503.928, 278.549
1505.100, 172.090
1506.272, 196.139
1507.443, 430.762
1508.615, 25.977
1509.786, 291.865
1510.958, 378.594
1512.129, 13.660
1513.300, 285.314
1514.470, 335.779
1515.641, 88.160
1516.811, 272.896
1517.981, 60.801
1519.151, 0.000
##END=



