##NAMES=Montebrasite
##RRUFFID=R040060
##IDEAL CHEMISTRY=LiAlPO_4_(OH)
##LOCALITY=Oxford County, Maine, USA
##OWNER=RRUFF
##SOURCE=University of Arizona Mineral Museum
##DESCRIPTION=White massive
##STATUS=The identification of this mineral has been confirmed by X-ray diffraction and chemical analysis
##URL=rruff.info/R040060
##MEASURED CHEMISTRY=LiAl(PO_4_)((OH)_0.79_F_0.21_)
##PIN_ID=L00181
##ORIENTATION=Laser parallel to a* (1 0 0). Fiducial mark perpendicular to laser is parallel to -b [0 -1 0]
111.393, 0.000
112.787, 340.227
114.182, 884.326
115.576, 1443.990
116.970, 1854.589
118.363, 2348.936
119.757, 1690.398
121.150, 1005.509
122.543, 636.337
123.936, 467.955
125.328, 361.704
126.720, 340.986
128.112, 703.229
129.504, 1045.513
130.896, 1429.431
132.287, 1932.257
133.678, 2322.400
135.069, 2813.229
136.460, 2815.320
137.850, 2959.625
139.240, 2474.686
140.630, 2039.665
142.020, 1430.434
143.410, 822.184
144.799, 434.338
146.188, 251.567
147.577, 97.448
148.965, 17.090
150.354, 78.025
151.742, 62.034
153.130, 65.031
154.517, 34.927
155.905, 81.369
157.292, 111.283
158.679, 177.855
160.066, 262.196
161.452, 365.446
162.839, 533.448
164.225, 715.964
165.611, 820.688
166.996, 842.828
168.381, 891.701
169.767, 955.100
171.152, 1008.181
172.536, 968.615
173.921, 817.548
175.305, 656.179
176.689, 672.332
178.073, 511.362
179.456, 528.366
180.839, 571.560
182.222, 581.443
183.605, 652.907
184.988, 770.207
186.370, 820.266
187.752, 882.198
189.134, 962.838
190.516, 1051.871
191.898, 1128.817
193.279, 1147.676
194.660, 1177.462
196.041, 1170.253
197.421, 1042.095
198.801, 976.004
200.182, 810.984
201.561, 760.035
202.941, 473.160
204.321, 309.353
205.700, 196.610
207.079, 138.920
208.457, 29.278
209.836, 41.327
211.214, 59.101
212.592, 15.554
213.970, 43.987
215.348, 0.554
216.725, 7.871
218.102, 0.299
219.479, 87.729
220.856, 17.151
222.232, 149.559
223.608, 66.951
224.984, 151.323
226.360, 93.428
227.736, 114.716
229.111, 116.449
230.486, 158.320
231.861, 189.551
233.236, 117.717
234.610, 97.912
235.984, 59.875
237.358, 54.709
238.732, 42.003
240.105, 50.729
241.479, 19.307
242.852, 45.420
244.224, 33.519
245.597, 65.564
246.969, 36.466
248.342, 73.111
249.713, 112.847
251.085, 92.654
252.457, 116.729
253.828, 37.840
255.199, 131.980
256.570, 68.158
257.940, 82.379
259.310, 21.720
260.681, 71.175
262.050, 47.239
263.420, 25.473
264.790, 163.500
266.159, 289.340
267.528, 521.981
268.896, 643.465
270.265, 942.854
271.633, 1299.189
273.001, 1610.484
274.369, 2073.736
275.737, 2206.947
277.104, 2261.860
278.471, 2168.008
279.838, 1974.830
281.205, 1802.077
282.572, 1599.607
283.938, 1547.329
285.304, 1515.185
286.670, 1553.125
288.035, 1821.104
289.401, 2339.145
290.766, 3235.191
292.131, 4345.149
293.495, 5823.476
294.860, 7611.426
296.224, 9599.628
297.588, 10947.702
298.952, 11515.594
300.315, 11143.365
301.679, 9990.918
303.042, 8478.751
304.405, 7116.189
305.767, 6013.549
307.130, 5120.844
308.492, 4518.070
309.854, 4315.225
311.216, 3862.294
312.578, 3679.270
313.939, 3225.955
315.300, 3041.160
316.661, 2756.676
318.021, 2661.992
319.382, 2657.936
320.742, 2574.348
322.102, 2430.680
323.462, 2316.931
324.821, 2023.094
326.181, 1809.111
327.540, 1464.969
328.899, 1210.700
330.257, 966.335
331.616, 771.890
332.974, 620.381
334.332, 464.810
335.690, 534.178
337.047, 455.485
338.405, 359.721
339.762, 324.879
341.119, 263.855
342.475, 224.691
343.832, 205.305
345.188, 136.733
346.544, 163.883
347.900, 124.815
349.255, 76.546
350.610, 38.110
351.965, 7.279
353.320, 30.370
354.675, 58.361
356.029, 43.238
357.384, 65.376
358.738, 38.778
360.091, 40.232
361.445, 62.528
362.798, 49.062
364.151, 44.788
365.504, 57.914
366.857, 36.428
368.209, 87.339
369.561, 115.150
370.913, 160.399
372.265, 142.104
373.617, 191.610
374.968, 204.101
376.319, 289.881
377.670, 279.853
379.021, 370.749
380.371, 375.988
381.721, 367.803
383.071, 323.519
384.421, 446.348
385.770, 460.399
387.120, 533.316
388.469, 561.408
389.818, 550.519
391.166, 573.485
392.515, 556.397
393.863, 519.637
395.211, 602.980
396.559, 565.978
397.906, 628.656
399.254, 511.254
400.601, 634.085
401.948, 595.768
403.294, 562.612
404.641, 651.472
405.987, 648.307
407.333, 750.291
408.679, 715.817
410.025, 863.008
411.370, 877.875
412.715, 880.005
414.060, 1013.752
415.405, 1055.704
416.749, 1242.333
418.093, 1372.228
419.437, 1916.306
420.781, 2609.170
422.125, 3765.729
423.468, 5439.140
424.811, 7219.129
426.154, 8748.292
427.497, 9138.875
428.839, 8549.667
430.182, 6910.428
431.524, 5341.154
432.866, 3861.844
434.207, 2872.498
435.549, 2043.117
436.890, 1523.701
438.231, 1164.259
439.572, 1124.771
440.912, 855.233
442.252, 685.636
443.593, 725.987
444.932, 516.279
446.272, 556.514
447.611, 476.690
448.951, 446.808
450.290, 436.867
451.628, 446.865
452.967, 456.802
454.305, 366.677
455.644, 486.488
456.981, 366.237
458.319, 365.921
459.657, 395.537
460.994, 415.089
462.331, 584.575
463.668, 374.000
465.004, 453.357
466.341, 562.650
467.677, 461.879
469.013, 651.041
470.348, 810.138
471.684, 959.169
473.019, 968.133
474.354, 1237.031
475.689, 1415.866
477.024, 1804.643
478.358, 2013.359
479.692, 2212.016
481.026, 2550.611
482.360, 2719.141
483.694, 2757.604
485.027, 2766.005
486.360, 2704.338
487.693, 2652.609
489.026, 2490.815
490.358, 2478.957
491.691, 2557.036
493.023, 2305.052
494.354, 2363.002
495.686, 2260.890
497.017, 2028.715
498.349, 1936.475
499.680, 1753.987
501.010, 1581.278
502.341, 1408.238
503.671, 1204.959
505.001, 1070.567
506.331, 908.880
507.661, 766.530
508.990, 638.482
510.319, 543.293
511.648, 436.853
512.977, 408.113
514.306, 311.444
515.634, 325.528
516.962, 249.516
518.290, 173.792
519.618, 147.686
520.945, 171.314
522.273, 105.882
523.600, 180.136
524.927, 50.073
526.253, 95.901
527.580, 29.505
528.906, 75.531
530.232, 0.719
531.558, 53.270
532.883, 67.582
534.208, 11.941
535.534, 4.646
536.858, 10.794
538.183, 132.885
539.508, 35.527
540.832, 90.783
542.156, 17.448
543.480, 78.062
544.803, 67.128
546.127, 254.345
547.450, 180.893
548.773, 73.245
550.096, 260.017
551.418, 256.657
552.741, 177.534
554.063, 134.087
555.385, 172.127
556.706, 214.057
558.028, 169.691
559.349, 96.434
560.670, 252.454
561.991, 130.329
563.312, 112.154
564.632, 188.431
565.952, 74.079
567.272, 170.047
568.592, 196.518
569.911, 196.094
571.231, 241.705
572.550, 149.075
573.869, 204.342
575.187, 261.591
576.506, 293.095
577.824, 392.596
579.142, 458.620
580.460, 594.086
581.778, 699.784
583.095, 705.007
584.412, 839.631
585.729, 845.755
587.046, 1011.052
588.363, 1016.830
589.679, 1071.904
590.995, 1246.934
592.311, 1511.741
593.627, 1596.789
594.942, 1741.639
596.258, 2198.121
597.573, 2532.521
598.888, 3045.994
600.202, 3489.180
601.517, 3653.655
602.831, 3617.666
604.145, 3241.710
605.459, 2786.081
606.772, 2379.990
608.086, 2014.479
609.399, 1718.001
610.712, 1451.639
612.024, 1365.316
613.337, 1128.588
614.649, 1092.200
615.961, 1285.120
617.273, 1217.110
618.585, 1290.137
619.896, 1382.652
621.208, 1725.326
622.519, 2057.739
623.829, 2500.059
625.140, 3032.011
626.450, 3714.127
627.761, 4235.881
629.071, 4567.565
630.380, 4539.182
631.690, 4180.728
632.999, 3892.205
634.308, 3503.613
635.617, 3424.951
636.926, 3536.221
638.235, 4077.420
639.543, 4988.551
640.851, 6399.613
642.159, 8300.607
643.466, 10481.529
644.774, 12752.382
646.081, 13513.165
647.388, 12963.874
648.695, 11064.521
650.002, 8795.094
651.308, 6785.598
652.614, 5106.031
653.920, 3976.396
655.226, 2956.688
656.531, 2276.913
657.837, 1797.068
659.142, 1497.154
660.447, 1237.174
661.752, 1127.127
663.056, 827.019
664.360, 696.846
665.664, 706.608
666.968, 546.308
668.272, 605.949
669.575, 445.406
670.879, 414.715
672.182, 453.574
673.484, 342.439
674.787, 421.567
676.089, 289.690
677.392, 347.652
678.694, 275.901
679.995, 233.962
681.297, 72.502
682.598, 170.712
683.899, 228.692
685.200, 226.706
686.501, 39.367
687.802, 136.473
689.102, 140.531
690.402, 223.172
691.702, 39.621
693.002, 166.920
694.301, 103.835
695.600, 2.842
696.899, 127.217
698.198, 70.456
699.497, 235.447
700.795, 23.428
702.093, 13.796
703.391, 101.693
704.689, 79.572
705.987, 47.387
707.284, 55.050
708.581, 54.936
709.878, 51.151
711.175, 12.118
712.472, 75.240
713.768, 191.420
715.064, 16.109
716.360, 82.159
717.656, 10.995
718.951, 74.715
720.247, 31.388
721.542, 117.693
722.837, 52.872
724.131, 10.925
725.426, 41.402
726.720, 84.086
728.014, 4.598
729.308, 160.822
730.601, 3.932
731.895, 34.775
733.188, 200.783
734.481, 26.451
735.774, 82.611
737.067, 48.975
738.359, 133.004
739.651, 178.926
740.943, 34.738
742.235, 81.738
743.526, 27.064
744.818, 92.957
746.109, 88.893
747.400, 123.588
748.691, 69.131
749.981, 84.141
751.271, 0.627
752.562, 154.564
753.851, 99.165
755.141, 151.110
756.431, 91.814
757.720, 186.861
759.009, 161.553
760.298, 76.012
761.587, 161.732
762.875, 45.719
764.163, 209.807
765.451, 173.953
766.739, 147.658
768.027, 159.107
769.314, 142.471
770.601, 207.182
771.888, 230.158
773.175, 174.162
774.462, 297.236
775.748, 280.236
777.034, 243.166
778.320, 326.775
779.606, 399.988
780.892, 342.850
782.177, 525.504
783.462, 468.092
784.747, 740.783
786.032, 663.238
787.317, 945.631
788.601, 868.320
789.885, 1190.580
791.169, 1273.033
792.453, 1335.166
793.736, 1737.717
795.019, 1849.756
796.303, 2141.695
797.585, 2313.570
798.868, 2435.381
800.151, 2567.127
801.433, 2538.811
802.715, 2470.432
803.997, 2521.988
805.279, 2273.480
806.560, 2094.912
807.841, 1886.283
809.122, 1707.590
810.403, 1558.832
811.684, 1510.016
812.964, 1371.135
814.245, 1352.195
815.525, 1123.195
816.804, 1014.133
818.084, 845.008
819.363, 885.824
820.643, 746.578
821.922, 627.275
823.201, 667.910
824.479, 608.404
825.758, 438.711
827.036, 459.123
828.314, 209.018
829.592, 459.182
830.869, 428.742
832.147, 298.496
833.424, 257.893
834.701, 207.061
835.977, 95.391
837.254, 224.180
838.530, 63.158
839.807, 142.070
841.082, 139.963
842.358, 108.439
843.634, 216.906
844.909, 125.707
846.184, 43.508
847.459, 141.979
848.734, 40.137
850.008, 197.449
851.283, 54.311
852.557, 28.305
853.831, 43.154
855.105, 52.203
856.378, 89.334
857.651, 2.895
858.925, 38.738
860.197, 66.064
861.470, 26.600
862.743, 54.997
864.015, 83.545
865.287, 59.109
866.559, 110.664
867.831, 121.605
869.102, 84.875
870.373, 41.957
871.645, 27.068
872.915, 8.148
874.186, 14.674
875.457, 111.732
876.727, 31.619
877.997, 25.572
879.267, 117.266
880.536, 86.016
881.806, 38.846
883.075, 115.729
884.344, 49.441
885.613, 126.549
886.882, 133.434
888.150, 59.238
889.419, 5.525
890.687, 128.516
891.954, 67.807
893.222, 74.275
894.490, 20.168
895.757, 145.756
897.024, 1.090
898.291, 2.986
899.557, 232.869
900.824, 8.838
902.090, 114.457
903.356, 40.166
904.622, 24.129
905.888, 220.068
907.153, 63.174
908.418, 143.746
909.683, 0.729
910.948, 45.150
912.213, 80.889
913.477, 23.807
914.741, 151.844
916.005, 106.812
917.269, 72.598
918.533, 158.199
919.796, 126.338
921.060, 319.088
922.323, 15.584
923.585, 259.971
924.848, 46.350
926.111, 99.245
927.373, 75.369
928.635, 203.303
929.897, 8.871
931.158, 84.756
932.420, 150.922
933.681, 296.822
934.942, 282.982
936.203, 139.111
937.463, 305.211
938.724, 191.281
939.984, 87.320
941.244, 233.328
942.504, 109.309
943.764, 335.258
945.023, 51.178
946.282, 157.066
947.541, 392.930
948.800, 418.764
950.059, 354.570
951.317, 420.352
952.575, 376.105
953.833, 581.836
955.091, 517.539
956.349, 573.219
957.606, 758.873
958.864, 754.502
960.121, 1100.109
961.377, 1725.689
962.634, 2931.246
963.891, 4886.779
965.147, 6652.289
966.403, 7407.775
967.659, 5733.238
968.914, 3878.680
970.170, 2884.100
971.425, 1809.494
972.680, 1604.867
973.935, 1360.223
975.190, 1115.555
976.444, 1370.863
977.698, 1336.168
978.952, 1391.449
980.206, 1686.082
981.460, 1491.328
982.713, 1626.559
983.967, 1621.531
985.220, 1486.326
986.473, 1870.900
987.725, 1705.004
988.978, 2119.641
990.230, 2213.596
991.482, 2357.881
992.734, 2872.158
993.986, 2866.297
995.237, 3220.887
996.488, 3665.551
997.739, 4099.406
998.990, 4703.666
1000.241, 5317.488
1001.492, 6341.977
1002.742, 7801.332
1003.992, 8695.121
1005.242, 10525.348
1006.492, 12029.449
1007.741, 13963.535
1008.990, 15786.385
1010.239, 16998.109
1011.488, 18042.143
1012.737, 18203.969
1013.986, 17319.387
1015.234, 16053.529
1016.482, 13957.584
1017.730, 12081.898
1018.978, 10500.934
1020.225, 8675.150
1021.473, 7479.191
1022.720, 6485.855
1023.967, 5689.824
1025.213, 5223.828
1026.460, 4743.609
1027.706, 4645.621
1028.953, 4398.039
1030.198, 4342.527
1031.444, 4441.303
1032.690, 4675.492
1033.935, 4910.008
1035.180, 5455.128
1036.425, 5935.801
1037.670, 6850.428
1038.915, 7664.758
1040.159, 8668.873
1041.403, 10265.242
1042.647, 11949.633
1043.891, 12904.064
1045.135, 13977.230
1046.378, 14431.988
1047.621, 14196.102
1048.864, 13500.092
1050.107, 12695.250
1051.350, 12699.484
1052.592, 12584.176
1053.835, 12848.572
1055.077, 13562.926
1056.318, 14608.111
1057.560, 15849.004
1058.802, 16813.891
1060.043, 16848.109
1061.284, 16532.607
1062.525, 14777.277
1063.765, 12420.607
1065.006, 10645.602
1066.246, 8370.428
1067.486, 7005.125
1068.726, 5530.199
1069.966, 4647.094
1071.205, 3972.375
1072.445, 3306.238
1073.684, 2841.531
1074.923, 2416.213
1076.161, 2131.525
1077.400, 2106.848
1078.638, 1652.176
1079.876, 1686.693
1081.114, 1771.535
1082.352, 1586.693
1083.590, 1601.947
1084.827, 1397.205
1086.064, 1172.275
1087.301, 1257.461
1088.538, 1042.654
1089.775, 827.492
1091.011, 1032.699
1092.247, 837.656
1093.483, 1032.881
1094.719, 967.623
1095.955, 862.828
1097.190, 978.076
1098.425, 953.332
1099.660, 1368.596
1100.895, 1333.871
1102.130, 1549.154
1103.364, 2064.447
1104.598, 2119.750
1105.833, 2755.062
1107.066, 3600.387
1108.300, 3405.719
1109.534, 3890.902
1110.767, 3636.086
1112.000, 3281.275
1113.233, 3156.475
1114.466, 2691.676
1115.698, 2426.883
1116.930, 2272.098
1118.163, 1897.324
1119.394, 1782.562
1120.626, 1827.811
1121.858, 1403.070
1123.089, 1598.340
1124.320, 1103.621
1125.551, 1211.395
1126.782, 1296.695
1128.013, 642.006
1129.243, 887.342
1130.473, 752.697
1131.703, 518.076
1132.933, 683.486
1134.163, 328.924
1135.392, 484.396
1136.621, 409.754
1137.850, 165.135
1139.079, 411.914
1140.308, 207.334
1141.536, 132.762
1142.765, 318.590
1143.993, 16.195
1145.221, 358.777
1146.448, 83.473
1147.676, 308.699
1148.903, 193.963
1150.130, 39.291
1151.357, 254.660
1152.584, 130.029
1153.810, 4.604
1155.037, 140.787
1156.263, 116.197
1157.489, 148.320
1158.715, 257.172
1159.940, 7.316
1161.166, 11.824
1162.391, 253.717
1163.616, 99.342
1164.841, 235.004
1166.065, 69.297
1167.290, 216.432
1168.514, 162.270
1169.738, 61.859
1170.962, 204.047
1172.185, 239.990
1173.409, 104.039
1174.632, 541.961
1175.855, 208.008
1177.078, 184.102
1178.301, 530.230
1179.523, 326.404
1180.746, 612.604
1181.968, 758.824
1183.190, 595.061
1184.412, 1231.330
1185.633, 1197.623
1186.855, 1103.941
1188.076, 1510.289
1189.297, 1376.664
1190.518, 1233.066
1191.738, 1459.496
1192.959, 1275.959
1194.179, 1322.455
1195.399, 1158.980
1196.619, 1025.533
1197.838, 952.117
1199.058, 1008.730
1200.277, 925.371
1201.496, 1002.049
1202.715, 438.766
1203.934, 805.514
1205.152, 622.305
1206.371, 419.133
1207.589, 646.000
1208.807, 372.910
1210.024, 289.820
1211.242, 406.773
1212.459, 273.770
1213.677, 400.801
1214.894, 347.883
1216.110, 145.008
1217.327, 422.137
1218.543, 148.414
1219.760, 135.648
1220.976, 372.949
1222.192, 160.320
1223.407, 327.375
1224.623, 394.863
1225.838, 65.301
1227.053, 251.242
1228.268, 58.586
1229.483, 218.988
1230.697, 376.305
1231.912, 77.223
1233.126, 411.281
1234.340, 208.324
1235.554, 65.398
1236.767, 482.504
1237.981, 249.633
1239.194, 406.785
1240.407, 303.965
1241.620, 71.164
1242.832, 278.391
1244.045, 335.633
1245.257, 82.895
1246.469, 520.168
1247.681, 137.453
1248.893, 264.742
1250.104, 362.039
1251.315, 269.336
1252.527, 266.625
1253.738, 423.910
1254.948, 73.414
1256.159, 269.410
1257.369, 445.285
1258.579, 51.031
1259.789, 517.316
1260.999, 83.551
1262.209, 690.070
1263.418, 867.230
1264.628, 64.352
1265.837, 501.430
1267.046, 318.441
1268.254, 95.375
1269.463, 362.211
1270.671, 31.074
1271.879, 315.500
1273.087, 251.906
1274.295, 230.816
1275.502, 330.039
1276.710, 239.695
1277.917, 139.746
1279.124, 320.195
1280.331, 101.172
1281.537, 238.031
1282.744, 406.215
1283.950, 6.016
1285.156, 280.598
1286.362, 264.805
1287.568, 34.836
1288.773, 229.789
1289.978, 20.820
1291.184, 0.000
##END=



