##NAMES=Montebrasite
##RRUFFID=R040062
##IDEAL CHEMISTRY=LiAlPO_4_(OH)
##LOCALITY=Hebron, Maine, USA
##OWNER=RRUFF
##SOURCE=University of Arizona Mineral Museum
##DESCRIPTION=White massive
##STATUS=The identification of this mineral has been confirmed by X-ray diffraction and chemical analysis
##URL=rruff.info/R040062
##MEASURED CHEMISTRY=LiAl(PO_4_)((OH)_0.62_F_0.38_)
##PIN_ID=M00438
##ORIENTATION=Laser parallel to a* (1 0 0). Fiducial mark perpendicular to laser is parallel to b [0 1 0]
123.079, 0.000
124.475, 171.551
125.870, 371.184
127.265, 769.963
128.660, 1261.053
130.055, 1675.229
131.449, 2040.926
132.843, 2483.638
134.237, 2499.485
135.631, 2278.398
137.024, 1909.259
138.417, 1481.821
139.810, 1212.648
141.203, 844.623
142.596, 717.070
143.988, 592.850
145.380, 373.623
146.771, 243.938
148.163, 223.486
149.554, 252.399
150.945, 130.824
152.336, 158.953
153.726, 3.000
155.117, 25.689
156.507, 125.105
157.896, 5.908
159.286, 42.815
160.675, 82.139
162.064, 100.054
163.453, 225.758
164.842, 131.731
166.230, 180.022
167.618, 296.579
169.006, 349.722
170.393, 272.901
171.781, 186.123
173.168, 249.387
174.555, 212.694
175.941, 286.045
177.328, 299.437
178.714, 304.195
180.100, 337.646
181.485, 385.540
182.871, 449.154
184.256, 331.238
185.641, 398.066
187.025, 361.359
188.410, 409.791
189.794, 394.892
191.178, 330.443
192.562, 160.997
193.945, 203.980
195.328, 47.021
196.711, 40.114
198.094, 23.252
199.476, 56.432
200.859, 49.648
202.241, 2.901
203.623, 43.811
205.004, 100.490
206.385, 37.149
207.766, 123.784
209.147, 80.361
210.528, 46.866
211.908, 66.701
213.288, 40.339
214.668, 44.044
216.048, 97.810
217.427, 131.633
218.806, 205.510
220.185, 129.438
221.564, 233.409
222.942, 107.396
224.320, 211.394
225.698, 25.431
227.076, 209.499
228.453, 73.589
229.830, 177.695
231.207, 171.819
232.584, 5.958
233.960, 120.113
235.337, 84.628
236.713, 48.805
238.088, 15.992
239.464, 39.734
240.839, 78.446
242.214, 63.166
243.589, 48.262
244.964, 36.688
246.338, 47.851
247.712, 67.627
249.086, 46.517
250.459, 49.430
251.833, 4.686
253.206, 11.079
254.579, 76.969
255.951, 42.757
257.324, 51.458
258.696, 15.728
260.068, 180.021
261.439, 204.331
262.811, 138.715
264.182, 243.112
265.553, 307.520
266.924, 341.916
268.294, 366.273
269.665, 530.591
271.035, 814.885
272.404, 759.102
273.774, 903.306
275.143, 957.508
276.512, 921.713
277.881, 905.914
279.250, 830.114
280.618, 844.310
281.986, 788.502
283.354, 842.689
284.721, 786.873
286.089, 991.052
287.456, 965.226
288.823, 1418.545
290.190, 1662.827
291.556, 2127.624
292.922, 2822.742
294.288, 3568.069
295.654, 4923.693
297.019, 5939.324
298.385, 6724.947
299.750, 7360.613
301.114, 7446.304
302.479, 6942.013
303.843, 5867.726
305.207, 5133.275
306.571, 4278.835
307.935, 3524.398
309.298, 3079.955
310.661, 2755.480
312.024, 2340.976
313.387, 2126.444
314.749, 2011.890
316.111, 1967.314
317.473, 1772.717
318.835, 1868.061
320.196, 1713.419
321.558, 1624.815
322.919, 1460.052
324.279, 1205.332
325.640, 1050.582
327.000, 805.810
328.360, 700.294
329.720, 595.867
331.080, 540.560
332.439, 445.189
333.798, 449.821
335.157, 434.450
336.516, 299.077
337.874, 323.704
339.232, 328.328
340.590, 262.951
341.948, 247.571
343.305, 212.181
344.662, 126.786
346.019, 41.368
347.376, 195.945
348.733, 120.478
350.089, 24.949
351.445, 89.367
352.801, 13.756
354.156, 98.040
355.512, 222.470
356.867, 23.067
358.222, 71.585
359.576, 46.479
360.931, 98.802
362.285, 175.729
363.639, 49.943
364.992, 39.104
366.346, 97.152
367.699, 68.327
369.052, 76.712
370.405, 58.528
371.757, 66.009
373.110, 119.361
374.462, 84.545
375.814, 109.580
377.165, 102.405
378.516, 137.132
379.868, 95.285
381.218, 219.777
382.569, 135.854
383.920, 230.701
385.270, 217.534
386.620, 123.008
387.969, 157.742
389.319, 200.955
390.668, 215.201
392.017, 190.235
393.366, 204.938
394.714, 211.512
396.063, 216.435
397.411, 320.860
398.759, 388.967
400.106, 459.232
401.454, 221.807
402.801, 226.559
404.148, 391.657
405.495, 286.189
406.841, 490.847
408.187, 472.289
409.533, 526.673
410.879, 496.068
412.224, 600.544
413.570, 591.523
414.915, 835.490
416.260, 899.044
417.604, 1247.684
418.949, 1828.336
420.293, 2642.982
421.637, 3966.866
422.980, 5631.230
424.324, 7405.233
425.667, 8809.580
427.010, 8883.573
428.353, 8207.548
429.695, 6481.523
431.037, 4775.474
432.379, 3449.408
433.721, 2473.329
435.063, 1697.235
436.404, 1311.127
437.745, 975.000
439.086, 858.880
440.427, 512.741
441.767, 686.588
443.108, 570.419
444.448, 424.236
445.787, 578.041
447.127, 431.828
448.466, 395.600
449.805, 479.355
451.144, 263.098
452.482, 396.822
453.821, 290.529
455.159, 244.216
456.497, 167.881
457.834, 189.358
459.172, 445.132
460.509, 288.720
461.846, 302.307
463.183, 395.867
464.519, 229.404
465.856, 502.914
467.192, 376.404
468.527, 449.865
469.863, 573.301
471.198, 646.713
472.534, 780.097
473.868, 1003.452
475.203, 906.779
476.538, 1150.076
477.872, 1313.348
479.206, 1666.589
480.540, 1829.803
481.873, 1942.985
483.206, 2086.156
484.539, 2039.305
485.872, 1912.418
487.205, 2255.506
488.537, 2038.561
489.869, 1911.590
491.201, 2044.590
492.533, 1767.562
493.864, 1770.508
495.196, 1803.426
496.527, 1516.318
497.857, 1629.180
499.188, 1422.016
500.518, 1314.822
501.848, 1067.602
503.178, 840.352
504.508, 843.072
505.837, 645.766
507.166, 628.195
508.495, 540.830
509.824, 613.436
511.153, 465.357
512.481, 347.855
513.809, 379.311
515.137, 221.775
516.464, 214.240
517.792, 163.426
519.119, 105.670
520.446, 148.055
521.772, 122.371
523.099, 354.730
524.425, 43.242
525.751, 40.762
527.077, 141.652
528.402, 44.156
529.728, 96.359
531.053, 1.225
532.377, 28.543
533.702, 35.795
535.027, 76.312
536.351, 100.924
537.675, 131.018
538.998, 26.395
540.322, 186.062
541.645, 9.965
542.968, 102.008
544.291, 5.012
545.613, 37.094
546.936, 132.039
548.258, 105.904
549.580, 246.451
550.902, 80.381
552.223, 147.619
553.544, 4.441
554.865, 56.172
556.186, 218.006
557.507, 20.516
558.827, 52.016
560.147, 310.289
561.467, 141.379
562.786, 84.117
564.106, 185.910
565.425, 152.617
566.744, 190.004
568.063, 219.018
569.381, 220.865
570.700, 192.281
572.018, 131.492
573.335, 182.920
574.653, 108.289
575.970, 295.205
577.288, 385.840
578.604, 185.160
579.921, 415.885
581.238, 247.426
582.554, 502.518
583.870, 253.549
585.186, 334.475
586.501, 438.469
587.817, 340.840
589.132, 381.820
590.447, 502.564
591.761, 453.162
593.076, 584.070
594.390, 594.873
595.704, 855.193
597.018, 1020.076
598.331, 1220.391
599.645, 1321.141
600.958, 1404.887
602.271, 1410.369
603.583, 1453.561
604.896, 1344.008
606.208, 1264.432
607.520, 1284.834
608.832, 1124.836
610.143, 1124.816
611.455, 945.578
612.766, 1005.729
614.077, 965.938
615.387, 1015.811
616.698, 1075.164
618.008, 1105.139
619.318, 1300.650
620.628, 1560.328
621.937, 1740.361
623.247, 1900.053
624.556, 2180.520
625.865, 2639.750
627.173, 3309.418
628.482, 3649.414
629.790, 4168.430
631.098, 4297.396
632.405, 4356.322
633.713, 4105.207
635.020, 3944.047
636.327, 4262.846
637.634, 4421.600
638.941, 5260.311
640.247, 6528.980
641.553, 8367.605
642.859, 10396.188
644.165, 12524.730
645.471, 13493.223
646.776, 13281.678
648.081, 12090.088
649.386, 9978.457
650.691, 7686.781
651.995, 5755.064
653.299, 4633.303
654.603, 3351.500
655.907, 2819.652
657.210, 2037.764
658.514, 1815.832
659.817, 1513.857
661.120, 1381.840
662.422, 1193.709
663.725, 967.676
665.027, 955.531
666.329, 793.344
667.630, 751.242
668.932, 539.041
670.233, 506.730
671.534, 434.498
672.835, 452.100
674.136, 429.480
675.436, 393.576
676.737, 283.744
678.036, 351.309
679.336, 338.557
680.636, 346.457
681.935, 169.850
683.234, 252.662
684.533, 199.486
685.832, 289.307
687.130, 216.316
688.428, 161.424
689.726, 174.621
691.024, 287.500
692.322, 143.840
693.619, 292.139
694.916, 152.461
696.213, 135.783
697.510, 22.531
698.806, 253.559
700.102, 69.570
701.398, 214.068
702.694, 0.656
703.990, 205.635
705.285, 104.324
706.580, 10.756
707.875, 43.766
709.170, 38.031
710.464, 206.000
711.758, 171.896
713.052, 247.725
714.346, 69.936
715.640, 49.912
716.933, 285.840
718.226, 21.080
719.519, 95.895
720.812, 48.787
722.105, 246.287
723.397, 28.525
724.689, 66.689
725.981, 141.865
727.272, 93.123
728.564, 121.492
729.855, 33.723
731.146, 59.436
732.437, 285.613
733.727, 99.248
735.017, 245.156
736.308, 60.148
737.597, 35.271
738.887, 139.596
740.176, 154.064
741.466, 21.166
742.755, 3.555
744.043, 108.207
745.332, 152.832
746.620, 177.416
747.908, 91.961
749.196, 106.467
750.484, 210.932
751.771, 44.639
753.059, 189.713
754.346, 74.027
755.633, 78.303
756.919, 42.537
758.206, 35.459
759.492, 100.879
760.778, 94.990
762.063, 89.064
763.349, 173.100
764.634, 167.100
765.919, 11.377
767.204, 107.043
768.489, 80.924
769.773, 114.770
771.057, 308.582
772.341, 102.359
773.625, 73.896
774.909, 149.961
776.192, 53.582
777.475, 131.119
778.758, 4.670
780.041, 218.449
781.323, 101.924
782.605, 25.365
783.887, 268.768
785.169, 392.141
786.451, 255.482
787.732, 258.795
789.013, 422.080
790.294, 305.332
791.575, 488.557
792.856, 381.754
794.136, 464.920
795.416, 518.059
796.696, 281.168
797.976, 704.250
799.255, 457.305
800.534, 530.332
801.813, 813.328
803.092, 656.299
804.371, 859.244
805.649, 662.160
806.927, 685.049
808.205, 707.912
809.483, 410.752
810.760, 683.562
812.037, 446.348
813.315, 369.107
814.591, 661.842
815.868, 234.551
817.144, 517.236
818.421, 749.896
819.697, 492.529
820.972, 155.141
822.248, 167.725
823.523, 380.283
824.798, 152.822
826.073, 145.332
827.348, 207.820
828.623, 140.287
829.897, 147.963
831.171, 34.867
832.445, 87.266
833.718, 49.588
834.992, 8.082
836.265, 93.516
837.538, 155.473
838.811, 62.809
840.083, 39.227
841.356, 80.936
842.628, 112.408
843.900, 63.949
845.171, 105.973
846.443, 237.383
847.714, 70.537
848.985, 40.895
850.256, 82.264
851.527, 107.723
852.797, 174.064
854.067, 14.865
855.337, 176.471
856.607, 55.135
857.876, 23.316
859.146, 107.836
860.415, 207.367
861.684, 243.533
862.953, 60.066
864.221, 18.371
865.489, 253.031
866.757, 54.744
868.025, 109.367
869.293, 320.111
870.560, 212.029
871.828, 272.250
873.095, 283.408
874.361, 339.598
875.628, 290.656
876.894, 389.008
878.160, 239.998
879.426, 271.430
880.692, 385.016
881.958, 266.354
883.223, 93.707
884.488, 339.469
885.753, 441.490
887.018, 244.793
888.282, 226.643
889.546, 107.633
890.810, 275.023
892.074, 426.430
893.338, 317.898
894.601, 266.252
895.864, 196.180
897.127, 297.461
898.390, 548.926
899.652, 330.496
900.915, 521.711
902.177, 352.988
903.439, 204.703
904.700, 581.811
905.962, 143.445
907.223, 184.600
908.484, 215.775
909.745, 146.734
911.006, 205.180
912.266, 98.926
913.526, 250.191
914.786, 111.436
916.046, 123.035
917.306, 15.389
918.565, 64.645
919.824, 106.664
921.083, 267.865
922.342, 99.211
923.600, 61.119
924.859, 242.424
926.117, 11.852
927.375, 49.656
928.632, 119.234
929.890, 232.152
931.147, 17.277
932.404, 154.480
933.661, 95.758
934.918, 266.656
936.174, 68.506
937.430, 250.350
938.686, 12.193
939.942, 104.037
941.198, 155.877
942.453, 207.713
943.708, 159.549
944.963, 121.379
946.218, 43.207
947.472, 405.035
948.727, 276.865
949.981, 538.699
951.235, 469.895
952.488, 302.375
953.742, 264.217
954.995, 316.062
956.248, 127.910
957.501, 319.762
958.754, 271.619
960.006, 453.480
961.258, 475.348
962.510, 907.219
963.762, 699.094
965.014, 990.977
966.265, 622.865
967.516, 764.758
968.767, 706.660
970.018, 288.564
971.269, 600.479
972.519, 462.273
973.769, 414.133
975.019, 526.068
976.269, 637.898
977.518, 539.711
978.767, 801.676
980.017, 603.502
981.265, 715.377
982.514, 1106.795
983.762, 838.453
985.011, 1339.969
986.259, 1281.014
987.507, 1402.750
988.754, 1684.766
990.002, 1673.084
991.249, 2124.648
992.496, 2656.408
993.743, 2818.320
994.989, 3360.162
996.236, 3652.086
997.482, 4234.227
998.728, 4662.398
999.974, 5194.109
1001.219, 6090.625
1002.464, 7146.629
1003.710, 8038.844
1004.954, 9050.543
1006.199, 9812.785
1007.444, 10734.723
1008.688, 11595.754
1009.932, 11657.949
1011.176, 11880.279
1012.420, 11122.645
1013.663, 10694.805
1014.906, 9746.490
1016.149, 8638.977
1017.392, 7581.752
1018.635, 6984.719
1019.877, 5927.348
1021.120, 5369.887
1022.362, 4682.893
1023.603, 4435.477
1024.845, 4354.977
1026.086, 3847.641
1027.328, 3700.320
1028.569, 3981.652
1029.809, 3854.375
1031.050, 4407.150
1032.290, 4540.180
1033.530, 5153.018
1034.770, 5435.900
1036.010, 5728.805
1037.250, 6451.766
1038.489, 7224.766
1039.728, 7837.773
1040.967, 8750.820
1042.206, 9003.895
1043.444, 9696.992
1044.683, 10000.127
1045.921, 9883.293
1047.159, 10306.486
1048.396, 9809.639
1049.634, 9322.818
1050.871, 9416.023
1052.108, 9109.252
1053.345, 8992.508
1054.582, 9146.141
1055.818, 9259.461
1057.054, 10072.797
1058.290, 9546.957
1059.526, 10360.164
1060.762, 9613.078
1061.997, 8686.625
1063.232, 7809.389
1064.467, 6482.547
1065.702, 5635.303
1066.937, 5097.738
1068.171, 3849.051
1069.405, 3351.789
1070.639, 2924.514
1071.873, 2427.723
1073.107, 2210.408
1074.340, 1803.068
1075.573, 1845.510
1076.806, 1668.080
1078.039, 1246.676
1079.272, 1579.180
1080.504, 1061.383
1081.736, 1263.824
1082.968, 1276.250
1084.200, 980.293
1085.431, 1232.637
1086.663, 1174.959
1087.894, 977.422
1089.125, 909.711
1090.355, 761.754
1091.586, 643.676
1092.816, 689.895
1094.046, 747.125
1095.276, 750.371
1096.506, 833.645
1097.735, 756.945
1098.965, 990.266
1100.194, 633.613
1101.423, 976.984
1102.651, 690.387
1103.880, 1023.820
1105.108, 1307.277
1106.336, 1470.766
1107.564, 1214.277
1108.792, 1407.824
1110.019, 1331.402
1111.246, 1565.012
1112.473, 1708.656
1113.700, 1032.344
1114.927, 1496.078
1116.153, 1029.863
1117.380, 1223.711
1118.606, 1447.598
1119.831, 1071.520
1121.057, 1185.523
1122.283, 1239.559
1123.508, 923.660
1124.733, 967.809
1125.958, 512.012
1127.182, 916.250
1128.407, 440.539
1129.631, 584.867
1130.855, 719.223
1132.079, 363.559
1133.302, 397.773
1134.526, 681.926
1135.749, 145.996
1136.972, 780.105
1138.195, 384.234
1139.417, 318.387
1140.640, 312.566
1141.862, 76.770
1143.084, 470.996
1144.305, 185.242
1145.527, 449.516
1146.748, 443.809
1147.970, 61.883
1149.191, 282.453
1150.411, 436.793
1151.632, 171.164
1152.852, 265.559
1154.072, 190.000
1155.292, 124.504
1156.512, 159.051
1157.732, 283.637
1158.951, 192.305
1160.170, 206.387
1161.389, 87.883
1162.608, 132.766
1163.826, 37.707
1165.045, 52.723
1166.263, 127.828
1167.481, 233.027
1168.699, 131.703
1169.916, 403.629
1171.134, 230.973
1172.351, 164.488
1173.568, 200.012
1174.784, 94.398
1176.001, 371.266
1177.217, 416.992
1178.433, 132.785
1179.649, 388.648
1180.865, 444.582
1182.081, 330.574
1183.296, 326.641
1184.511, 202.766
1185.726, 318.961
1186.941, 373.453
1188.155, 382.266
1189.370, 608.008
1190.584, 454.539
1191.798, 510.824
1193.011, 477.555
1194.225, 349.703
1195.438, 396.250
1196.651, 722.891
1197.864, 259.578
1199.077, 476.426
1200.290, 173.387
1201.502, 519.402
1202.714, 382.477
1203.926, 139.141
1205.138, 692.547
1206.349, 384.793
1207.561, 28.762
1208.772, 419.859
1209.983, 59.418
1211.194, 449.547
1212.404, 609.008
1213.614, 67.863
1214.825, 245.930
1216.034, 383.070
1217.244, 39.520
1218.454, 365.168
1219.663, 249.387
1220.872, 199.348
1222.081, 573.316
1223.290, 396.941
1224.498, 197.547
1225.707, 370.414
1226.915, 132.914
1228.123, 447.945
1229.331, 14.590
1230.538, 359.012
1231.746, 594.109
1232.953, 40.012
1234.160, 176.578
1235.366, 168.656
1236.573, 199.438
1237.779, 84.840
1238.986, 0.000
##END=



