##NAMES=Muscovite
##RRUFFID=R050188
##IDEAL CHEMISTRY=KAl_2_(Si_3_Al)O_10_(OH)_2_
##LOCALITY=Sapinero, near Blue Mesa Reservoir, Gunnison County, Colorado, USA
##OWNER=RRUFF
##SOURCE=Dave Bunk Minerals
##DESCRIPTION=Black pseudohexagonal crystal, polytype 2M1, associated with quartz
##STATUS=The identification of this mineral has been confirmed by X-ray diffraction and chemical analysis
##URL=rruff.info/R050188
##MEASURED CHEMISTRY=(K_0.91_Na_0.09_)(Al_0.86_Fe^3+^_0.06_Fe^2+^_0.04_Mg_0.03_Ti_0.01_)_2_(Si_0.78_Al_0.22_)_4_O_10_(OH)_2_
##PIN_ID=L00384
##ORIENTATION=Laser parallel to b* (0 1 0). Fiducial mark perpendicular to laser is parallel to c [0 0 1]
124.675, 0.000
126.063, 157.423
127.452, 72.160
128.840, 0.642
130.228, 10.174
131.615, 33.921
133.003, 20.409
134.390, 57.224
135.777, 39.569
137.164, 233.640
138.550, 324.637
139.937, 582.923
141.323, 655.990
142.709, 816.417
144.094, 891.851
145.480, 968.988
146.865, 1270.563
148.250, 1328.333
149.635, 1424.082
151.019, 1733.631
152.403, 1868.972
153.788, 2056.621
155.171, 2418.840
156.555, 2729.420
157.939, 3195.275
159.322, 2856.322
160.705, 2882.481
162.088, 3233.682
163.470, 3266.852
164.853, 3356.932
166.235, 3323.858
167.617, 3281.555
168.998, 2993.941
170.380, 2848.961
171.761, 2586.561
173.142, 2451.706
174.523, 2382.363
175.904, 2078.540
177.284, 2105.308
178.664, 1922.686
180.044, 2016.588
181.424, 2028.025
182.803, 2105.002
184.183, 2129.514
185.562, 2334.537
186.940, 2590.043
188.319, 2822.998
189.698, 2987.373
191.076, 3109.138
192.454, 3457.268
193.831, 3556.740
195.209, 3613.532
196.586, 3571.621
197.963, 3593.988
199.340, 3502.619
200.717, 3507.494
202.093, 3411.598
203.470, 3229.916
204.846, 3209.433
206.221, 3508.139
207.597, 3643.959
208.972, 3469.693
210.347, 3262.334
211.722, 3149.941
213.097, 3091.548
214.472, 3219.176
215.846, 3209.844
217.220, 2976.563
218.594, 2954.355
219.967, 2738.236
221.341, 2390.219
222.714, 1877.314
224.087, 1559.585
225.460, 1157.128
226.832, 882.999
228.204, 647.842
229.577, 522.461
230.948, 375.224
232.320, 375.055
233.692, 376.327
235.063, 553.055
236.434, 735.297
237.805, 979.981
239.175, 1319.065
240.545, 1995.505
241.916, 2430.220
243.286, 3299.088
244.655, 4262.042
246.025, 5616.033
247.394, 7138.035
248.763, 8993.014
250.132, 11662.959
251.501, 14455.869
252.869, 17887.744
254.237, 21793.588
255.605, 25518.395
256.973, 29657.168
258.340, 32253.914
259.708, 34737.625
261.075, 35808.285
262.442, 35817.938
263.808, 34038.535
265.175, 31965.105
266.541, 28706.637
267.907, 24977.129
269.273, 21783.586
270.639, 17979.004
272.004, 15378.376
273.369, 12849.711
274.734, 10572.003
276.099, 8705.252
277.463, 7425.459
278.828, 6079.622
280.192, 5049.738
281.556, 4176.810
282.919, 3405.832
284.283, 2977.809
285.646, 2910.738
287.009, 1924.618
288.372, 1818.447
289.734, 1515.948
291.097, 1184.045
292.459, 1058.736
293.821, 858.988
295.183, 722.636
296.544, 580.109
297.905, 548.744
299.266, 487.946
300.627, 483.460
301.988, 430.258
303.348, 347.316
304.709, 300.615
306.069, 380.134
307.428, 364.856
308.788, 252.768
310.147, 431.364
311.507, 252.912
312.865, 234.026
314.224, 204.779
315.583, 229.497
316.941, 154.282
318.299, 120.432
319.657, 142.123
321.015, 87.554
322.372, 74.859
323.729, 101.589
325.086, 51.809
326.443, 67.313
327.800, 23.015
329.156, 82.169
330.512, 14.728
331.868, 38.859
333.224, 29.799
334.579, 105.370
335.935, 32.903
337.290, 0.685
338.645, 46.184
339.999, 166.308
341.354, 168.538
342.708, 374.091
344.062, 495.002
345.416, 406.167
346.769, 472.675
348.123, 661.673
349.476, 778.987
350.829, 903.795
352.182, 1115.922
353.534, 1257.438
354.887, 1530.229
356.239, 1697.323
357.591, 1907.916
358.942, 2071.260
360.294, 2243.435
361.645, 2402.016
362.996, 2656.417
364.347, 2976.863
365.698, 3138.767
367.048, 3574.889
368.398, 3625.400
369.748, 3886.539
371.098, 4229.004
372.448, 4407.088
373.797, 4585.156
375.146, 4860.207
376.495, 5323.237
377.844, 5245.251
379.192, 5584.244
380.540, 5567.219
381.889, 5699.177
383.236, 6044.111
384.584, 6120.029
385.932, 6232.926
387.279, 6568.799
388.626, 6785.648
389.973, 6934.467
391.319, 7189.249
392.666, 7560.996
394.012, 7986.697
395.358, 8479.364
396.704, 9001.989
398.049, 9477.149
399.394, 9961.375
400.740, 10480.626
402.084, 10897.080
403.429, 11371.486
404.774, 11822.842
406.118, 11976.148
407.462, 12046.399
408.806, 12229.601
410.150, 12123.749
411.493, 12081.843
412.836, 11901.885
414.179, 11469.765
415.522, 10966.810
416.865, 10401.692
418.207, 9739.521
419.549, 9095.297
420.891, 8523.019
422.233, 7957.975
423.575, 7218.299
424.916, 6914.858
426.257, 6420.365
427.598, 5904.815
428.939, 5747.214
430.279, 5042.555
431.619, 4566.844
432.959, 4311.076
434.299, 4148.254
435.639, 3562.379
436.978, 3310.448
438.318, 3029.463
439.657, 2814.422
440.996, 2416.326
442.334, 2098.175
443.673, 1883.969
445.011, 1769.708
446.349, 1542.392
447.687, 1320.021
449.024, 1185.594
450.361, 966.112
451.699, 812.606
453.036, 773.077
454.372, 764.527
455.709, 570.958
457.045, 524.361
458.381, 428.735
459.717, 487.077
461.053, 439.386
462.388, 507.657
463.724, 400.892
465.059, 419.087
466.394, 442.240
467.728, 410.354
469.063, 450.423
470.397, 234.448
471.731, 289.425
473.065, 200.352
474.398, 319.224
475.732, 169.046
477.065, 179.810
478.398, 157.513
479.731, 228.155
481.063, 59.739
482.396, 42.239
483.728, 14.353
485.060, 12.932
486.391, 22.108
487.723, 95.462
489.054, 100.562
490.385, 124.706
491.716, 113.277
493.047, 146.234
494.377, 118.318
495.708, 213.693
497.038, 176.221
498.368, 200.734
499.697, 139.418
501.027, 203.301
502.356, 111.410
503.685, 147.706
505.014, 230.208
506.342, 154.962
507.671, 145.927
508.999, 166.099
510.327, 125.490
511.655, 114.078
512.982, 103.904
514.310, 123.826
515.637, 53.990
516.964, 35.317
518.291, 29.207
519.617, 32.612
520.944, 68.870
522.270, 105.086
523.596, 103.182
524.921, 175.188
526.247, 161.116
527.572, 200.965
528.897, 430.740
530.222, 347.461
531.547, 496.145
532.871, 448.793
534.196, 500.401
535.520, 623.012
536.844, 598.577
538.167, 665.125
539.491, 669.654
540.814, 628.157
542.137, 617.651
543.460, 666.059
544.783, 741.547
546.105, 805.932
547.427, 746.256
548.749, 866.521
550.071, 868.728
551.393, 854.876
552.714, 936.966
554.035, 955.997
555.356, 988.969
556.677, 954.883
557.998, 1010.679
559.318, 995.915
560.638, 1094.279
561.958, 1048.962
563.278, 1097.763
564.597, 1248.159
565.917, 1202.673
567.236, 1233.129
568.555, 1306.530
569.874, 1220.874
571.192, 1270.164
572.511, 1220.398
573.829, 1176.576
575.147, 1337.701
576.464, 1211.770
577.782, 1225.785
579.099, 1262.746
580.416, 1363.653
581.733, 1400.507
583.050, 1417.617
584.366, 1429.056
585.683, 1467.751
586.999, 1469.395
588.315, 1583.985
589.630, 1652.525
590.946, 1777.014
592.261, 1797.450
593.576, 1887.172
594.891, 1895.172
596.206, 2013.458
597.520, 2078.693
598.834, 2131.880
600.148, 2233.017
601.462, 2339.726
602.776, 2486.145
604.089, 2605.136
605.402, 2740.079
606.715, 2896.974
608.028, 3018.703
609.341, 3163.204
610.653, 3292.379
611.965, 3455.087
613.277, 3608.749
614.589, 3793.364
615.901, 3926.933
617.212, 4308.457
618.523, 4542.934
619.834, 4708.367
621.145, 4992.753
622.456, 5115.097
623.766, 5468.394
625.076, 5528.648
626.386, 5827.858
627.696, 5812.023
629.006, 5719.636
630.315, 5398.422
631.624, 5484.750
632.933, 5600.541
634.242, 5143.459
635.551, 5272.395
636.859, 4967.044
638.167, 5161.222
639.475, 4886.723
640.783, 5010.409
642.090, 4980.724
643.398, 4902.596
644.705, 4698.854
646.012, 4639.695
647.318, 4598.086
648.625, 4294.884
649.931, 4155.281
651.237, 4034.511
652.543, 3855.858
653.849, 3763.723
655.155, 3512.854
656.460, 3585.537
657.765, 3085.792
659.070, 3106.625
660.375, 3180.469
661.679, 2881.961
662.984, 2820.204
664.288, 2815.107
665.592, 2803.520
666.895, 2599.613
668.199, 2816.212
669.502, 2745.485
670.805, 3069.361
672.108, 3036.956
673.411, 3265.909
674.713, 3561.012
676.016, 3542.022
677.318, 3951.188
678.620, 4327.936
679.921, 4620.846
681.223, 5105.694
682.524, 5582.069
683.825, 6521.209
685.126, 7438.941
686.427, 8288.134
687.727, 9252.406
689.028, 10300.760
690.328, 11895.141
691.628, 13790.220
692.927, 15599.439
694.227, 17057.045
695.526, 19856.195
696.825, 21618.883
698.124, 23224.209
699.423, 24764.168
700.721, 25388.496
702.020, 25407.072
703.318, 24753.158
704.616, 22937.246
705.913, 21577.330
707.211, 20011.418
708.508, 17436.506
709.805, 15003.594
711.102, 13241.685
712.399, 11371.780
713.695, 10145.876
714.992, 8637.978
716.288, 7663.080
717.584, 6839.188
718.879, 5850.303
720.175, 5793.422
721.470, 5109.549
722.765, 4725.679
724.060, 4434.818
725.355, 4065.964
726.649, 3845.118
727.944, 3921.280
729.238, 3350.451
730.532, 3769.631
731.825, 3732.821
733.119, 3578.021
734.412, 3596.231
735.705, 3843.453
736.998, 3915.686
738.291, 4142.930
739.584, 4277.188
740.876, 4482.458
742.168, 4427.740
743.460, 4628.037
744.752, 4789.348
746.043, 5012.673
747.334, 4795.014
748.626, 4773.370
749.916, 4812.742
751.207, 4526.131
752.498, 4670.537
753.788, 4278.959
755.078, 4411.398
756.368, 4256.857
757.658, 3509.334
758.947, 3423.830
760.237, 2889.345
761.526, 2779.881
762.815, 2389.436
764.104, 2299.011
765.392, 1952.609
766.680, 1690.228
767.969, 1628.868
769.257, 1207.531
770.544, 1217.217
771.832, 898.926
773.119, 843.657
774.406, 857.412
775.693, 592.191
776.980, 514.995
778.267, 457.824
779.553, 535.678
780.839, 332.557
782.125, 483.461
783.411, 385.541
784.697, 260.354
785.982, 271.341
787.267, 251.359
788.552, 154.407
789.837, 287.488
791.122, 236.602
792.406, 198.748
793.690, 202.928
794.974, 194.153
796.258, 312.427
797.542, 204.765
798.825, 195.162
800.108, 57.613
801.391, 207.154
802.674, 85.784
803.957, 34.510
805.239, 139.330
806.522, 67.747
807.804, 60.248
809.085, 38.364
810.367, 85.407
811.649, 27.909
812.930, 48.670
814.211, 113.854
815.492, 67.474
816.772, 208.202
818.053, 314.060
819.333, 291.025
820.613, 583.100
821.893, 713.288
823.173, 708.579
824.452, 847.970
825.732, 794.459
827.011, 772.050
828.290, 669.728
829.568, 676.485
830.847, 587.307
832.125, 549.190
833.403, 285.130
834.681, 316.120
835.959, 205.162
837.236, 11.246
838.514, 99.375
839.791, 32.454
841.068, 136.262
842.345, 130.081
843.621, 108.914
844.898, 300.752
846.174, 82.678
847.450, 216.598
848.726, 207.565
850.001, 178.578
851.277, 250.625
852.552, 143.732
853.827, 171.848
855.102, 42.989
856.376, 87.905
857.651, 261.862
858.925, 220.883
860.199, 303.966
861.473, 339.123
862.746, 263.346
864.020, 171.617
865.293, 209.945
866.566, 191.328
867.839, 136.769
869.112, 116.268
870.384, 170.846
871.656, 130.477
872.928, 121.149
874.200, 131.864
875.472, 104.619
876.744, 262.427
878.015, 123.292
879.286, 401.201
880.557, 268.153
881.828, 293.149
883.098, 330.196
884.369, 378.287
885.639, 404.436
886.909, 581.634
888.178, 615.874
889.448, 822.160
890.717, 787.490
891.987, 867.860
893.256, 1086.287
894.524, 1242.769
895.793, 1421.297
897.061, 1526.868
898.330, 1746.135
899.598, 1864.205
900.865, 2123.961
902.133, 2267.760
903.401, 2383.617
904.668, 2620.510
905.935, 2595.448
907.202, 2770.008
908.468, 3018.469
909.735, 2960.560
911.001, 2956.699
912.267, 2978.885
913.533, 2909.129
914.799, 2714.418
916.064, 2757.751
917.330, 2526.130
918.595, 2300.548
919.860, 2263.002
921.124, 1947.491
922.389, 1836.020
923.653, 1651.582
924.918, 1596.184
926.182, 1400.822
927.445, 1324.498
928.709, 1267.211
929.972, 1065.960
931.236, 1029.743
932.499, 980.563
933.761, 899.416
935.024, 831.302
936.286, 984.221
937.549, 746.173
938.811, 888.158
940.073, 906.175
941.334, 832.222
942.596, 1049.302
943.857, 986.412
945.118, 942.553
946.379, 945.725
947.640, 1255.928
948.900, 1225.160
950.161, 1399.422
951.421, 1511.715
952.681, 1506.034
953.940, 1568.384
955.200, 1461.761
956.459, 1569.166
957.719, 1494.598
958.978, 1509.591
960.236, 1438.075
961.495, 1318.585
962.753, 1273.184
964.012, 1172.493
965.270, 1089.402
966.527, 1011.010
967.785, 898.640
969.043, 856.293
970.300, 717.968
971.557, 649.663
972.814, 597.379
974.071, 630.116
975.327, 575.872
976.583, 632.646
977.840, 471.440
979.095, 476.252
980.351, 579.080
981.607, 556.926
982.862, 409.788
984.117, 718.667
985.372, 411.562
986.627, 643.471
987.882, 585.395
989.136, 584.334
990.390, 634.287
991.644, 595.150
992.898, 575.599
994.152, 675.342
995.405, 708.069
996.659, 814.113
997.912, 950.031
999.165, 1042.574
1000.417, 1181.589
1001.670, 1601.078
1002.922, 1474.204
1004.174, 1444.730
1005.426, 1064.080
1006.678, 1018.462
1007.930, 999.519
1009.181, 969.753
1010.432, 979.451
1011.683, 1008.075
1012.934, 1016.228
1014.185, 1086.443
1015.435, 1105.668
1016.685, 1127.151
1017.935, 1194.659
1019.185, 1233.358
1020.435, 1313.215
1021.684, 1363.879
1022.934, 1416.729
1024.183, 1368.487
1025.432, 1388.987
1026.680, 1247.374
1027.929, 1231.610
1029.177, 1029.502
1030.425, 1001.051
1031.673, 906.931
1032.921, 852.240
1034.169, 788.275
1035.416, 751.051
1036.663, 676.680
1037.911, 645.888
1039.157, 654.311
1040.404, 592.367
1041.650, 706.078
1042.897, 715.596
1044.143, 633.766
1045.389, 821.419
1046.634, 735.274
1047.880, 890.705
1049.125, 878.656
1050.371, 1024.891
1051.615, 986.985
1052.860, 1254.793
1054.105, 1219.897
1055.349, 1230.005
1056.593, 1383.477
1057.837, 1411.879
1059.081, 1501.648
1060.325, 1601.761
1061.568, 1587.438
1062.812, 1652.131
1064.055, 1685.569
1065.298, 1703.114
1066.540, 1762.633
1067.783, 1744.141
1069.025, 1972.733
1070.267, 1855.273
1071.509, 1761.464
1072.751, 2052.957
1073.993, 1946.214
1075.234, 2027.279
1076.475, 2032.366
1077.716, 2018.337
1078.957, 2174.275
1080.198, 2242.721
1081.438, 2169.680
1082.679, 2106.062
1083.919, 2191.203
1085.159, 2212.485
1086.398, 2184.822
1087.638, 2180.098
1088.877, 2151.184
1090.116, 2127.254
1091.355, 2045.314
1092.594, 2091.355
1093.833, 2016.381
1095.071, 2129.389
1096.309, 2248.383
1097.547, 2170.358
1098.785, 2356.317
1100.023, 2465.261
1101.260, 2592.187
1102.498, 2619.094
1103.735, 2794.984
1104.972, 2891.856
1106.208, 3007.710
1107.445, 2861.545
1108.681, 3264.373
1109.918, 3070.184
1111.154, 3334.973
1112.389, 3346.760
1113.625, 3361.525
1114.860, 3373.281
1116.096, 3367.015
1117.331, 3250.729
1118.566, 3244.422
1119.800, 2952.094
1121.035, 2973.743
1122.269, 3143.372
1123.503, 3148.979
1124.737, 2843.564
1125.971, 2675.128
1127.205, 2348.667
1128.438, 2203.185
1129.671, 1926.677
1130.904, 1861.146
1132.137, 1675.594
1133.370, 1565.016
1134.602, 1342.413
1135.834, 1230.788
1137.066, 1156.137
1138.298, 920.461
1139.530, 898.762
1140.762, 617.043
1141.993, 616.323
1143.224, 464.603
1144.455, 352.877
1145.686, 350.186
1146.917, 182.484
1148.147, 153.799
1149.377, 125.126
1150.607, 65.461
1151.837, 15.184
1153.067, 35.149
1154.296, 36.516
1155.526, 70.236
1156.755, 72.037
1157.984, 68.919
1159.213, 110.880
1160.441, 74.496
1161.670, 20.096
1162.898, 35.304
1164.126, 38.576
1165.354, 46.915
1166.581, 47.557
1167.809, 121.812
1169.036, 22.409
1170.263, 7.933
1171.490, 69.229
1172.717, 21.492
1173.943, 15.288
1175.170, 44.125
1176.396, 11.963
1177.622, 25.006
1178.848, 14.372
1180.073, 11.038
1181.299, 11.858
1182.524, 33.291
1183.749, 14.513
1184.974, 51.206
1186.199, 5.884
1187.423, 15.512
1188.648, 118.092
1189.872, 42.227
1191.096, 20.274
1192.320, 4.315
1193.543, 26.763
1194.767, 102.918
1195.990, 24.482
1197.213, 67.286
1198.436, 20.785
1199.659, 28.046
1200.881, 74.888
1202.104, 21.783
1203.326, 50.629
1204.548, 52.567
1205.770, 10.423
1206.991, 0.232
1208.213, 7.829
1209.434, 40.628
1210.655, 13.835
1211.876, 11.247
1213.096, 12.051
1214.317, 51.380
1215.537, 155.643
1216.757, 167.040
1217.977, 72.233
1219.197, 175.433
1220.417, 66.611
1221.636, 81.748
1222.855, 79.791
1224.074, 88.793
1225.293, 91.781
1226.512, 175.712
1227.731, 88.607
1228.949, 186.482
1230.167, 242.335
1231.385, 205.127
1232.603, 189.884
1233.820, 201.608
1235.038, 250.300
1236.255, 372.958
1237.472, 244.585
1238.689, 437.178
1239.906, 301.739
1241.122, 310.266
1242.338, 325.760
1243.555, 347.222
1244.771, 370.680
1245.986, 363.599
1247.202, 394.408
1248.417, 361.737
1249.633, 295.032
1250.848, 319.293
1252.063, 312.522
1253.277, 363.715
1254.492, 402.875
1255.706, 420.083
1256.920, 419.511
1258.134, 285.229
1259.348, 373.250
1260.562, 332.317
1261.775, 284.268
1262.988, 442.183
1264.201, 391.063
1265.414, 452.100
1266.627, 443.909
1267.839, 511.680
1269.052, 566.553
1270.264, 582.253
1271.476, 537.917
1272.688, 585.544
1273.899, 534.140
1275.111, 570.698
1276.322, 561.222
1277.533, 568.711
1278.744, 515.166
1279.955, 515.588
1281.165, 421.978
1282.376, 416.333
1283.586, 410.657
1284.796, 409.947
1286.006, 421.205
1287.215, 319.431
1288.425, 344.625
1289.634, 352.782
1290.843, 317.907
1292.052, 461.999
1293.261, 548.058
1294.469, 495.087
1295.678, 609.085
1296.886, 591.789
1298.094, 399.441
1299.302, 491.896
1300.509, 473.042
1301.717, 503.990
1302.924, 397.744
1304.131, 436.615
1305.338, 451.776
1306.545, 410.149
1307.752, 452.863
1308.958, 624.552
1310.164, 546.968
1311.370, 629.792
1312.576, 559.510
1313.782, 516.503
1314.987, 398.672
1316.193, 648.638
1317.398, 531.680
1318.603, 643.960
1319.807, 444.339
1321.012, 567.848
1322.216, 601.685
1323.421, 462.845
1324.625, 448.655
1325.829, 411.017
1327.032, 434.635
1328.236, 350.494
1329.439, 332.480
1330.642, 253.871
1331.845, 256.028
1333.048, 233.534
1334.251, 128.368
1335.453, 48.376
1336.656, 107.717
1337.858, 126.556
1339.060, 145.175
1340.261, 91.202
1341.463, 118.690
1342.664, 128.878
1343.866, 92.189
1345.067, 129.771
1346.267, 127.037
1347.468, 135.284
1348.669, 166.150
1349.869, 22.070
1351.069, 115.604
1352.269, 219.781
1353.469, 182.375
1354.668, 409.938
1355.868, 587.741
1357.067, 5.423
1358.266, 94.116
1359.465, 164.805
1360.664, 57.396
1361.862, 125.027
1363.061, 84.996
1364.259, 84.254
1365.457, 83.133
1366.655, 143.233
1367.852, 128.262
1369.050, 88.400
1370.247, 172.622
1371.444, 128.332
1372.641, 88.463
1373.838, 85.170
1375.035, 186.080
1376.231, 113.771
1377.427, 217.394
1378.623, 141.271
1379.819, 120.971
1381.015, 226.646
1382.211, 209.270
1383.406, 194.984
1384.601, 209.027
1385.796, 214.689
1386.991, 280.300
1388.185, 194.856
1389.380, 276.360
1390.574, 295.811
1391.768, 221.206
1392.962, 162.549
1394.156, 120.837
1395.350, 181.072
1396.543, 92.253
1397.736, 201.377
1398.929, 53.446
1400.122, 113.462
1401.315, 112.423
1402.507, 93.330
1403.700, 48.182
1404.892, 90.979
1406.084, 77.720
1407.276, 184.406
1408.467, 15.037
1409.659, 108.611
1410.850, 98.131
1412.041, 23.593
1413.232, 110.016
1414.423, 79.423
1415.614, 79.896
1416.804, 48.466
1417.994, 60.864
1419.184, 71.822
1420.374, 81.587
1421.564, 133.467
1422.753, 138.352
1423.943, 107.231
1425.132, 173.164
1426.321, 186.094
1427.510, 134.047
1428.698, 190.053
1429.887, 214.070
1431.075, 312.896
1432.263, 217.971
1433.451, 346.906
1434.639, 338.676
1435.827, 377.699
1437.014, 564.058
1438.201, 664.433
1439.388, 710.215
1440.575, 843.746
1441.762, 805.374
1442.949, 977.259
1444.135, 1071.662
1445.321, 1080.273
1446.507, 1116.757
1447.693, 1293.447
1448.879, 1220.100
1450.064, 1310.754
1451.250, 1307.381
1452.435, 1469.057
1453.620, 1538.723
1454.805, 1403.382
1455.989, 1589.039
1457.174, 1419.695
1458.358, 1477.351
1459.542, 1524.010
1460.726, 1395.675
1461.910, 1312.352
1463.093, 1185.863
1464.277, 1144.575
1465.460, 1081.129
1466.643, 964.899
1467.826, 983.243
1469.009, 863.092
1470.191, 774.652
1471.373, 764.607
1472.556, 770.609
1473.738, 600.677
1474.919, 664.797
1476.101, 566.968
1477.283, 540.192
1478.464, 584.473
1479.645, 504.827
1480.826, 413.260
1482.007, 659.760
1483.187, 563.321
1484.368, 573.938
1485.548, 500.628
1486.728, 518.375
1487.908, 409.180
1489.088, 464.046
1490.268, 384.979
1491.447, 214.983
1492.626, 182.068
1493.805, 223.243
1494.984, 233.519
1496.163, 156.906
1497.341, 171.421
1498.520, 112.075
1499.698, 175.865
1500.876, 65.791
1502.054, 113.860
1503.232, 57.082
1504.409, 55.464
1505.586, 25.984
1506.763, 116.750
1507.940, 41.688
1509.117, 88.849
1510.294, 69.255
1511.470, 8.068
1512.647, 50.902
1513.823, 82.191
1514.999, 115.831
1516.174, 45.309
1517.350, 150.137
1518.526, 88.065
1519.701, 2.761
1520.876, 96.509
1522.051, 41.290
1523.226, 17.263
1524.400, 0.178
1525.574, 0.000
##END=



