##NAMES=Muscovite
##RRUFFID=R050188
##IDEAL CHEMISTRY=KAl_2_(Si_3_Al)O_10_(OH)_2_
##LOCALITY=Sapinero, near Blue Mesa Reservoir, Gunnison County, Colorado, USA
##OWNER=RRUFF
##SOURCE=Dave Bunk Minerals
##DESCRIPTION=Black pseudohexagonal crystal, polytype 2M1, associated with quartz
##STATUS=The identification of this mineral has been confirmed by X-ray diffraction and chemical analysis
##URL=rruff.info/R050188
##MEASURED CHEMISTRY=(K_0.91_Na_0.09_)(Al_0.86_Fe^3+^_0.06_Fe^2+^_0.04_Mg_0.03_Ti_0.01_)_2_(Si_0.78_Al_0.22_)_4_O_10_(OH)_2_
##PIN_ID=L00088
##ORIENTATION=Laser parallel to c* (0 0 1). Fiducial mark perpendicular to laser is parallel to -a [-1 0 0]
96.858, 0.000
98.251, 188.995
99.644, 192.000
101.036, 302.937
102.428, 198.087
103.820, 141.466
105.212, 26.140
106.604, 127.407
107.995, 0.832
109.387, 74.968
110.777, 138.673
112.168, 151.470
113.559, 155.193
114.949, 474.657
116.339, 664.699
117.729, 808.175
119.119, 643.960
120.508, 455.933
121.897, 527.983
123.286, 347.014
124.675, 256.942
126.063, 267.693
127.452, 165.211
128.840, 200.501
130.228, 186.516
131.615, 262.205
133.003, 256.528
134.390, 477.448
135.777, 572.929
137.164, 745.937
138.550, 818.438
139.937, 1131.393
141.323, 1172.758
142.709, 1390.492
144.094, 1495.568
145.480, 1729.962
146.865, 1915.653
148.250, 1992.625
149.635, 2148.863
151.019, 2338.353
152.403, 2355.082
153.788, 2478.038
155.171, 2830.214
156.555, 2737.624
157.939, 2930.588
159.322, 3226.207
160.705, 3411.035
162.088, 3475.051
163.470, 3532.267
164.853, 3713.690
166.235, 3603.322
167.617, 3513.158
168.998, 3256.191
170.380, 3146.412
171.761, 2908.809
173.142, 2831.190
174.523, 2732.083
175.904, 2678.942
177.284, 2662.934
178.664, 2573.049
180.044, 2750.248
181.424, 2944.434
182.803, 2993.607
184.183, 3349.768
185.562, 3700.924
186.940, 3829.033
188.319, 4255.165
189.698, 4376.330
191.076, 4540.529
192.454, 4768.773
193.831, 4924.061
195.209, 4920.397
196.586, 4758.783
197.963, 4669.222
199.340, 4475.714
200.717, 4448.261
202.093, 4105.862
203.470, 3964.516
204.846, 3883.227
206.221, 3964.989
207.597, 4024.807
208.972, 3638.676
210.347, 3368.601
211.722, 3181.579
213.097, 3048.616
214.472, 3100.718
215.846, 3073.435
217.220, 2943.356
218.594, 2776.083
219.967, 2411.891
221.341, 2215.179
222.714, 1696.071
224.087, 1475.276
225.460, 1169.791
226.832, 817.592
228.204, 628.675
229.577, 431.984
230.948, 245.516
232.320, 250.205
233.692, 276.036
235.063, 251.948
236.434, 338.905
237.805, 532.958
239.175, 614.043
240.545, 899.137
241.916, 1233.226
243.286, 1701.301
244.655, 2266.354
246.025, 2958.380
247.394, 3930.377
248.763, 4863.340
250.132, 6408.265
251.501, 7980.156
252.869, 10008.011
254.237, 12242.824
255.605, 14708.604
256.973, 17077.348
258.340, 18810.053
259.708, 20799.711
261.075, 21383.336
262.442, 21473.604
263.808, 20378.955
265.175, 19046.359
266.541, 16997.721
267.907, 14706.181
269.273, 12772.439
270.639, 10366.600
272.004, 8979.250
273.369, 7462.961
274.734, 6121.329
276.099, 5104.449
277.463, 4403.703
278.828, 3690.081
280.192, 3005.576
281.556, 2666.178
282.919, 2135.881
284.283, 1885.678
285.646, 1518.563
287.009, 1353.531
288.372, 1285.578
289.734, 942.697
291.097, 879.885
292.459, 838.139
293.821, 740.455
295.183, 693.827
296.544, 613.254
297.905, 626.732
299.266, 596.257
300.627, 637.828
301.988, 634.439
303.348, 782.091
304.709, 584.780
306.069, 647.504
307.428, 734.261
308.788, 650.049
310.147, 784.867
311.507, 658.712
312.865, 674.583
314.224, 657.479
315.583, 565.399
316.941, 492.340
318.299, 430.302
319.657, 544.282
321.015, 412.376
322.372, 390.416
323.729, 330.441
325.086, 258.876
326.443, 205.629
327.800, 125.828
329.156, 86.414
330.512, 17.352
331.868, 0.234
333.224, 64.241
334.579, 150.867
335.935, 82.157
337.290, 147.576
338.645, 138.415
339.999, 208.396
341.354, 88.490
342.708, 68.120
344.062, 47.677
345.416, 28.894
346.769, 47.048
348.123, 146.051
349.476, 235.909
350.829, 351.955
352.182, 466.643
353.534, 609.491
354.887, 635.672
356.239, 881.933
357.591, 1002.347
358.942, 1203.586
360.294, 1268.093
361.645, 1367.175
362.996, 1632.461
364.347, 1768.059
365.698, 2040.706
367.048, 2137.226
368.398, 2455.820
369.748, 2902.265
371.098, 2632.257
372.448, 3042.681
373.797, 3028.945
375.146, 3245.618
376.495, 3549.497
377.844, 3441.729
379.192, 3754.597
380.540, 3719.059
381.889, 3920.306
383.236, 4202.863
384.584, 4336.020
385.932, 4506.277
387.279, 4836.172
388.626, 5309.857
389.973, 5410.425
391.319, 5942.120
392.666, 6098.178
394.012, 6625.568
395.358, 7166.549
396.704, 7790.492
398.049, 8535.397
399.394, 8806.257
400.740, 9561.075
402.084, 10100.854
403.429, 10599.590
404.774, 11237.284
406.118, 11701.936
407.462, 11798.544
408.806, 12265.112
410.150, 12226.635
411.493, 12529.117
412.836, 12334.555
414.179, 11897.948
415.522, 11884.302
416.865, 11216.610
418.207, 10490.875
419.549, 10136.099
420.891, 9656.277
422.233, 9075.414
423.575, 8084.506
424.916, 7881.572
426.257, 7363.610
427.598, 6805.622
428.939, 6663.604
430.279, 5960.557
431.619, 5477.483
432.959, 5191.382
434.299, 5001.249
435.639, 4425.086
436.978, 4209.906
438.318, 3766.693
439.657, 3565.446
440.996, 3172.163
442.334, 2944.846
443.673, 2680.492
445.011, 2442.737
446.349, 2311.672
447.687, 2025.205
449.024, 1870.699
450.361, 1617.152
451.699, 1474.567
453.036, 1395.940
454.372, 1318.272
455.709, 1113.563
457.045, 1158.812
458.381, 998.019
459.717, 977.182
461.053, 904.302
462.388, 960.379
463.724, 907.411
465.059, 846.398
466.394, 841.341
467.728, 829.239
469.063, 762.091
470.397, 764.897
471.731, 711.657
473.065, 683.279
474.398, 683.037
475.732, 602.657
477.065, 609.229
478.398, 526.754
479.731, 493.230
481.063, 401.659
482.396, 420.039
483.728, 473.368
485.060, 334.649
486.391, 368.878
487.723, 293.055
489.054, 310.177
490.385, 229.244
491.716, 174.254
493.047, 81.165
494.377, 67.968
495.708, 54.731
497.038, 57.883
498.368, 46.469
499.697, 18.333
501.027, 15.298
502.356, 121.212
503.685, 43.314
505.014, 173.043
506.342, 118.178
507.671, 141.472
508.999, 38.930
510.327, 115.511
511.655, 189.256
512.982, 64.206
514.310, 101.293
515.637, 102.540
516.964, 120.946
518.291, 54.517
519.617, 58.944
520.944, 116.051
522.270, 8.037
523.596, 45.130
524.921, 14.333
526.247, 12.629
527.572, 46.033
528.897, 79.446
530.222, 30.859
531.547, 78.204
532.871, 83.472
534.196, 49.310
535.520, 98.786
536.844, 46.811
538.167, 161.773
539.491, 113.685
540.814, 121.536
542.137, 170.321
543.460, 212.045
544.783, 195.712
546.105, 255.320
547.427, 296.873
548.749, 315.372
550.071, 275.819
551.393, 422.211
552.714, 328.555
554.035, 463.846
555.356, 416.090
556.677, 429.285
557.998, 584.432
559.318, 540.531
560.638, 688.583
561.958, 539.586
563.278, 664.542
564.597, 633.452
565.917, 666.313
567.236, 698.129
568.555, 665.897
569.874, 750.620
571.192, 803.295
572.511, 829.925
573.829, 776.509
575.147, 831.047
576.464, 780.540
577.782, 850.986
579.099, 785.388
580.416, 977.745
581.733, 967.058
583.050, 939.325
584.366, 1069.549
585.683, 1041.728
586.999, 1095.862
588.315, 1218.953
589.630, 1219.000
590.946, 1395.002
592.261, 1420.962
593.576, 1376.878
594.891, 1519.750
596.206, 1744.579
597.520, 1686.366
598.834, 1883.109
600.148, 1878.810
601.462, 2120.468
602.776, 2039.084
604.089, 2135.657
605.402, 2285.190
606.715, 2447.679
608.028, 2543.128
609.341, 2681.535
610.653, 2694.902
611.965, 2797.227
613.277, 2974.511
614.589, 2981.756
615.901, 3110.959
617.212, 3276.123
618.523, 3411.248
619.834, 3441.332
621.145, 3587.378
622.456, 3531.385
623.766, 3827.353
625.076, 3824.283
626.386, 3939.175
627.696, 3855.027
629.006, 4105.844
630.315, 3919.622
631.624, 4194.364
632.933, 4233.067
634.242, 4105.736
635.551, 4342.368
636.859, 4108.962
638.167, 4339.521
639.475, 4076.952
640.783, 4194.416
642.090, 4098.871
643.398, 4003.891
644.705, 3917.012
646.012, 3886.775
647.318, 3829.567
648.625, 3679.980
649.931, 3669.888
651.237, 3602.188
652.543, 3555.076
653.849, 3618.598
655.155, 3468.219
656.460, 3537.226
657.765, 3445.433
659.070, 3228.331
660.375, 3297.284
661.679, 3164.147
662.984, 3069.477
664.288, 3122.426
665.592, 2965.945
666.895, 2893.751
668.199, 2903.863
669.502, 2867.018
670.805, 2915.252
672.108, 2969.580
673.411, 3053.068
674.713, 3167.241
676.016, 3266.244
677.318, 3444.376
678.620, 3586.688
679.921, 3784.667
681.223, 4140.867
682.524, 4410.094
683.825, 5026.110
685.126, 5609.698
686.427, 6051.658
687.727, 6858.916
689.028, 7544.866
690.328, 8556.438
691.628, 9917.780
692.927, 10951.178
694.227, 11904.243
695.526, 13984.915
696.825, 15261.338
698.124, 16226.140
699.423, 17293.537
700.721, 17837.291
702.020, 17269.900
703.318, 16855.834
704.616, 15299.947
705.913, 14310.134
707.211, 13012.153
708.508, 11314.768
709.805, 9585.011
711.102, 8519.618
712.399, 7213.221
713.695, 6371.820
714.992, 5376.417
716.288, 4654.011
717.584, 4206.602
718.879, 3659.194
720.175, 3548.782
721.470, 3130.371
722.765, 2884.959
724.060, 2679.546
725.355, 2468.135
726.649, 2372.723
727.944, 2411.312
729.238, 2139.904
730.532, 2459.496
731.825, 2444.091
733.119, 2530.688
734.412, 2565.287
735.705, 2732.891
736.998, 2942.497
738.291, 3220.107
739.584, 3354.723
740.876, 3710.342
742.168, 3677.966
743.460, 3915.596
744.752, 4255.232
746.043, 4481.873
747.334, 4457.522
748.626, 4368.177
749.916, 4560.839
751.207, 4501.508
752.498, 4648.186
753.788, 4222.871
755.078, 4321.564
756.368, 3993.268
757.658, 3798.980
758.947, 3556.702
760.237, 3276.434
761.526, 3098.176
762.815, 2821.929
764.104, 2564.108
765.392, 2411.468
766.680, 2002.255
767.969, 1944.054
769.257, 1634.864
770.544, 1488.688
771.832, 1243.524
773.119, 1163.374
774.406, 1026.236
775.693, 814.113
776.980, 807.004
778.267, 770.910
779.553, 664.830
780.839, 598.764
782.125, 626.714
783.411, 440.679
784.697, 460.660
785.982, 513.656
787.267, 473.669
788.552, 385.699
789.837, 484.745
791.122, 463.808
792.406, 375.889
793.690, 485.987
794.974, 349.103
796.258, 452.238
797.542, 285.391
798.825, 336.564
800.108, 256.757
801.391, 265.972
802.674, 170.208
803.957, 90.468
805.239, 232.753
806.522, 117.072
807.804, 164.426
809.085, 68.817
810.367, 25.245
811.649, 2.266
812.930, 89.736
814.211, 103.196
815.492, 35.616
816.772, 50.990
818.053, 32.194
819.333, 81.520
820.613, 1.696
821.893, 7.815
823.173, 33.140
824.452, 11.195
825.732, 39.315
827.011, 23.512
828.290, 21.213
829.568, 21.865
830.847, 29.122
832.125, 72.882
833.403, 20.485
834.681, 104.926
835.959, 107.341
837.236, 30.742
838.514, 72.099
839.791, 54.417
841.068, 118.719
842.345, 41.979
843.621, 132.286
844.898, 48.564
846.174, 27.205
847.450, 123.990
848.726, 64.190
850.001, 50.382
851.277, 45.443
852.552, 16.881
853.827, 198.200
855.102, 22.126
856.376, 77.084
857.651, 178.086
858.925, 150.137
860.199, 112.220
861.473, 271.353
862.746, 217.527
864.020, 186.738
865.293, 382.003
866.566, 326.297
867.839, 331.623
869.112, 357.977
870.384, 381.385
871.656, 412.627
872.928, 480.331
874.200, 500.854
875.472, 518.408
876.744, 588.004
878.015, 581.108
879.286, 542.319
880.557, 595.024
881.828, 572.780
883.098, 571.572
884.369, 748.406
885.639, 690.284
886.909, 793.198
888.178, 767.148
889.448, 986.140
890.717, 908.169
891.987, 1064.237
893.256, 1188.346
894.524, 1265.494
895.793, 1380.679
897.061, 1509.875
898.330, 1618.096
899.598, 1774.462
900.865, 1863.793
902.133, 1984.162
903.401, 2096.571
904.668, 2252.011
905.935, 2301.489
907.202, 2402.002
908.468, 2534.575
909.735, 2610.182
911.001, 2527.826
912.267, 2480.500
913.533, 2470.203
914.799, 2297.942
916.064, 2409.710
917.330, 2155.509
918.595, 1976.352
919.860, 1966.237
921.124, 1868.149
922.389, 1621.093
923.653, 1582.063
924.918, 1525.060
926.182, 1424.083
927.445, 1183.135
928.709, 1099.214
929.972, 924.318
931.236, 830.615
932.499, 908.600
933.761, 734.779
935.024, 773.982
936.286, 857.208
937.549, 757.459
938.811, 773.733
940.073, 747.031
941.334, 801.352
942.596, 761.697
943.857, 890.065
945.118, 890.455
946.379, 875.867
947.640, 1060.301
948.900, 1033.756
950.161, 990.235
951.421, 1158.733
952.681, 1156.254
953.940, 1113.796
955.200, 1117.358
956.459, 1234.942
957.719, 1161.546
958.978, 1123.170
960.236, 1020.815
961.495, 951.480
962.753, 840.165
964.012, 789.721
965.270, 784.803
966.527, 628.294
967.785, 688.785
969.043, 674.668
970.300, 562.334
971.557, 578.931
972.814, 553.642
974.071, 539.211
975.327, 504.080
976.583, 587.964
977.840, 473.866
979.095, 542.783
980.351, 518.015
981.607, 482.240
982.862, 446.216
984.117, 568.425
985.372, 361.744
986.627, 493.512
987.882, 511.188
989.136, 451.184
990.390, 420.516
991.644, 507.604
992.898, 491.830
994.152, 474.914
995.405, 408.513
996.659, 547.917
997.912, 572.040
999.165, 594.120
1000.417, 525.946
1001.670, 686.439
1002.922, 651.951
1004.174, 783.182
1005.426, 611.698
1006.678, 694.220
1007.930, 773.811
1009.181, 729.195
1010.432, 811.267
1011.683, 798.543
1012.934, 781.294
1014.185, 846.341
1015.435, 898.554
1016.685, 924.408
1017.935, 999.984
1019.185, 1023.966
1020.435, 927.847
1021.684, 1055.029
1022.934, 1049.946
1024.183, 950.989
1025.432, 1015.160
1026.680, 1019.406
1027.929, 926.224
1029.177, 891.783
1030.425, 1037.250
1031.673, 926.920
1032.921, 730.025
1034.169, 840.842
1035.416, 747.307
1036.663, 670.100
1037.911, 738.542
1039.157, 728.265
1040.404, 695.398
1041.650, 808.587
1042.897, 739.277
1044.143, 813.583
1045.389, 932.474
1046.634, 888.724
1047.880, 959.779
1049.125, 1005.371
1050.371, 1246.566
1051.615, 1105.435
1052.860, 1278.235
1054.105, 1366.494
1055.349, 1402.989
1056.593, 1498.438
1057.837, 1656.613
1059.081, 1653.917
1060.325, 1823.889
1061.568, 1822.348
1062.812, 1926.474
1064.055, 2039.032
1065.298, 2076.362
1066.540, 2124.997
1067.783, 2102.797
1069.025, 2228.862
1070.267, 2141.934
1071.509, 2151.548
1072.751, 2265.292
1073.993, 2362.254
1075.234, 2393.790
1076.475, 2443.252
1077.716, 2490.510
1078.957, 2491.231
1080.198, 2499.985
1081.438, 2466.664
1082.679, 2458.905
1083.919, 2393.195
1085.159, 2337.668
1086.398, 2287.820
1087.638, 2236.981
1088.877, 2238.281
1090.116, 2232.538
1091.355, 2097.896
1092.594, 2121.944
1093.833, 2078.959
1095.071, 2060.959
1096.309, 2126.944
1097.547, 1946.977
1098.785, 2008.934
1100.023, 2074.876
1101.260, 2173.803
1102.498, 2054.713
1103.735, 2173.608
1104.972, 2187.488
1106.208, 2290.354
1107.445, 2188.207
1108.681, 2292.044
1109.918, 2297.865
1111.154, 2365.668
1112.389, 2436.455
1113.625, 2373.224
1114.860, 2383.993
1116.096, 2296.763
1117.331, 2297.521
1118.566, 2339.271
1119.800, 2218.006
1121.035, 2195.738
1122.269, 2320.453
1123.503, 2310.149
1124.737, 2047.828
1125.971, 1868.485
1127.205, 1562.122
1128.438, 1445.739
1129.671, 1366.340
1130.904, 1211.924
1132.137, 1081.493
1133.370, 1010.053
1134.602, 841.596
1135.834, 742.136
1137.066, 729.675
1138.298, 563.197
1139.530, 514.710
1140.762, 408.210
1141.993, 337.710
1143.224, 292.188
1144.455, 273.666
1145.686, 175.130
1146.917, 220.572
1148.147, 121.012
1149.377, 106.440
1150.607, 48.853
1151.837, 1.237
1153.067, 57.586
1154.296, 60.909
1155.526, 33.795
1156.755, 61.555
1157.984, 12.616
1159.213, 58.248
1160.441, 33.180
1161.670, 11.169
1162.898, 79.204
1164.126, 26.680
1165.354, 4.532
1166.581, 29.345
1167.809, 78.875
1169.036, 51.177
1170.263, 1.451
1171.490, 0.038
1172.717, 26.581
1173.943, 33.910
1175.170, 42.463
1176.396, 13.918
1177.622, 18.261
1178.848, 63.434
1180.073, 4.207
1181.299, 24.028
1182.524, 33.908
1183.749, 6.852
1184.974, 0.845
1186.199, 20.885
1187.423, 11.105
1188.648, 11.622
1189.872, 19.282
1191.096, 12.821
1192.320, 5.919
1193.543, 27.288
1194.767, 9.281
1195.990, 24.806
1197.213, 9.708
1198.436, 4.277
1199.659, 18.897
1200.881, 43.269
1202.104, 13.670
1203.326, 3.224
1204.548, 87.885
1205.770, 6.198
1206.991, 4.766
1208.213, 34.219
1209.434, 53.114
1210.655, 2.073
1211.876, 40.933
1213.096, 26.755
1214.317, 33.464
1215.537, 21.751
1216.757, 56.900
1217.977, 27.517
1219.197, 88.092
1220.417, 64.635
1221.636, 126.142
1222.855, 33.619
1224.074, 64.056
1225.293, 197.459
1226.512, 146.835
1227.731, 123.182
1228.949, 103.499
1230.167, 168.784
1231.385, 154.999
1232.603, 164.171
1233.820, 191.464
1235.038, 155.720
1236.255, 162.860
1237.472, 135.971
1238.689, 207.051
1239.906, 225.103
1241.122, 292.126
1242.338, 266.120
1243.555, 198.085
1244.771, 257.324
1245.986, 220.232
1247.202, 334.110
1248.417, 279.959
1249.633, 360.851
1250.848, 387.844
1252.063, 403.008
1253.277, 335.368
1254.492, 410.613
1255.706, 355.283
1256.920, 426.921
1258.134, 324.530
1259.348, 464.108
1260.562, 440.656
1261.775, 376.172
1262.988, 492.657
1264.201, 475.111
1265.414, 520.533
1266.627, 465.923
1267.839, 573.282
1269.052, 494.608
1270.264, 546.902
1271.476, 441.165
1272.688, 512.396
1273.899, 523.596
1275.111, 519.764
1276.322, 591.902
1277.533, 584.009
1278.744, 576.085
1279.955, 563.131
1281.165, 588.146
1282.376, 567.132
1283.586, 583.087
1284.796, 603.145
1286.006, 673.911
1287.215, 673.779
1288.425, 700.619
1289.634, 786.430
1290.843, 732.212
1292.052, 881.968
1293.261, 888.694
1294.469, 966.375
1295.678, 1042.959
1296.886, 1173.266
1298.094, 1228.838
1299.302, 1384.110
1300.509, 1388.362
1301.717, 1442.532
1302.924, 1565.894
1304.131, 1560.554
1305.338, 1537.994
1306.545, 1471.945
1307.752, 1553.216
1308.958, 1315.155
1310.164, 1269.845
1311.370, 1310.907
1312.576, 1100.548
1313.782, 1087.271
1314.987, 980.677
1316.193, 996.330
1317.398, 879.834
1318.603, 802.181
1319.807, 777.435
1321.012, 706.101
1322.216, 662.008
1323.421, 553.990
1324.625, 580.190
1325.829, 462.061
1327.032, 493.641
1328.236, 469.556
1329.439, 363.126
1330.642, 356.031
1331.845, 272.636
1333.048, 299.815
1334.251, 249.922
1335.453, 266.511
1336.656, 239.468
1337.858, 295.822
1339.060, 201.802
1340.261, 177.959
1341.463, 215.563
1342.664, 213.548
1343.866, 142.842
1345.067, 131.189
1346.267, 221.061
1347.468, 187.679
1348.669, 291.329
1349.869, 117.237
1351.069, 128.002
1352.269, 185.083
1353.469, 199.665
1354.668, 112.564
1355.868, 254.019
1357.067, 125.689
1358.266, 164.042
1359.465, 186.220
1360.664, 132.167
1361.862, 216.051
1363.061, 189.382
1364.259, 203.575
1365.457, 240.543
1366.655, 140.931
1367.852, 197.388
1369.050, 298.349
1370.247, 207.654
1371.444, 156.150
1372.641, 201.560
1373.838, 104.902
1375.035, 131.534
1376.231, 203.059
1377.427, 132.763
1378.623, 32.439
1379.819, 85.925
1381.015, 116.410
1382.211, 137.675
1383.406, 140.850
1384.601, 77.677
1385.796, 103.136
1386.991, 47.550
1388.185, 7.083
1389.380, 45.228
1390.574, 47.483
1391.768, 65.692
1392.962, 22.854
1394.156, 3.031
1395.350, 12.971
1396.543, 19.943
1397.736, 17.971
1398.929, 33.955
1400.122, 111.833
1401.315, 130.663
1402.507, 101.445
1403.700, 110.180
1404.892, 392.866
1406.084, 319.273
1407.276, 319.784
1408.467, 380.633
1409.659, 196.123
1410.850, 211.568
1412.041, 216.981
1413.232, 311.370
1414.423, 260.792
1415.614, 308.251
1416.804, 368.748
1417.994, 406.254
1419.184, 389.772
1420.374, 744.355
1421.564, 670.159
1422.753, 659.816
1423.943, 789.196
1425.132, 556.890
1426.321, 686.635
1427.510, 825.419
1428.698, 854.249
1429.887, 929.128
1431.075, 1154.059
1432.263, 1333.046
1433.451, 1551.056
1434.639, 1857.125
1435.827, 1950.230
1437.014, 2356.426
1438.201, 2554.708
1439.388, 2599.019
1440.575, 2705.363
1441.762, 2766.757
1442.949, 2689.237
1444.135, 2664.738
1445.321, 2654.248
1446.507, 2444.776
1447.693, 2381.291
1448.879, 2296.805
1450.064, 2159.312
1451.250, 2025.640
1452.435, 2156.127
1453.620, 2067.613
1454.805, 2011.098
1455.989, 2059.941
1457.174, 1883.416
1458.358, 1874.737
1459.542, 1857.868
1460.726, 1688.670
1461.910, 1618.112
1463.093, 1474.578
1464.277, 1356.069
1465.460, 1399.593
1466.643, 1181.157
1467.826, 1175.767
1469.009, 1005.426
1470.191, 965.138
1471.373, 790.903
1472.556, 703.720
1473.738, 536.591
1474.919, 589.517
1476.101, 532.497
1477.283, 436.527
1478.464, 451.607
1479.645, 379.736
1480.826, 367.910
1482.007, 330.126
1483.187, 278.381
1484.368, 273.673
1485.548, 265.003
1486.728, 216.377
1487.908, 135.805
1489.088, 261.288
1490.268, 122.858
1491.447, 23.535
1492.626, 46.440
1493.805, 200.450
1494.984, 15.570
1496.163, 75.808
1497.341, 78.168
1498.520, 9.658
1499.698, 120.284
1500.876, 33.057
1502.054, 4.011
1503.232, 4.097
1504.409, 48.403
1505.586, 10.859
1506.763, 94.726
1507.940, 42.794
1509.117, 180.152
1510.294, 340.836
1511.470, 11.114
1512.647, 68.702
1513.823, 60.783
1514.999, 109.952
1516.174, 52.929
1517.350, 126.574
1518.526, 0.610
1519.701, 85.923
1520.876, 10.150
1522.051, 0.000
##END=



