##NAMES=Muscovite
##RRUFFID=R050188
##IDEAL CHEMISTRY=KAl_2_(Si_3_Al)O_10_(OH)_2_
##LOCALITY=Sapinero, near Blue Mesa Reservoir, Gunnison County, Colorado, USA
##OWNER=RRUFF
##SOURCE=Dave Bunk Minerals
##DESCRIPTION=Black pseudohexagonal crystal, polytype 2M1, associated with quartz
##STATUS=The identification of this mineral has been confirmed by X-ray diffraction and chemical analysis
##URL=rruff.info/R050188
##MEASURED CHEMISTRY=(K_0.91_Na_0.09_)(Al_0.86_Fe^3+^_0.06_Fe^2+^_0.04_Mg_0.03_Ti_0.01_)_2_(Si_0.78_Al_0.22_)_4_O_10_(OH)_2_
##PIN_ID=L00510
##ORIENTATION=Laser parallel to a* (1 0 0). Fiducial mark perpendicular to laser is parallel to -b [0 -1 0]
116.339, 0.000
117.729, 51.563
119.119, 54.408
120.508, 44.979
121.897, 85.127
123.286, 60.447
124.675, 62.318
126.063, 113.203
127.452, 37.549
128.840, 34.367
130.228, 26.548
131.615, 34.001
133.003, 42.362
134.390, 15.635
135.777, 18.905
137.164, 24.743
138.550, 18.848
139.937, 38.083
141.323, 38.454
142.709, 72.056
144.094, 122.286
145.480, 158.159
146.865, 217.623
148.250, 248.628
149.635, 295.975
151.019, 315.092
152.403, 385.479
153.788, 419.261
155.171, 470.413
156.555, 577.911
157.939, 634.733
159.322, 788.854
160.705, 856.247
162.088, 1072.887
163.470, 1184.751
164.853, 1438.824
166.235, 1693.093
167.617, 1966.547
168.998, 2325.178
170.380, 2817.286
171.761, 3414.328
173.142, 4106.243
174.523, 4993.533
175.904, 5978.950
177.284, 7154.494
178.664, 8497.166
180.044, 10290.951
181.424, 12005.854
182.803, 13636.864
184.183, 15745.981
185.562, 17526.197
186.940, 19361.520
188.319, 20538.936
189.698, 21314.439
191.076, 22021.037
192.454, 22086.730
193.831, 21833.502
195.209, 21256.359
196.586, 19554.293
197.963, 18322.312
199.340, 16671.385
200.717, 15273.484
202.093, 13665.591
203.470, 12497.697
204.846, 11301.792
206.221, 10682.880
207.597, 10077.957
208.972, 9293.004
210.347, 8949.076
211.722, 8829.174
213.097, 8356.312
214.472, 8192.487
215.846, 7841.704
217.220, 7432.964
218.594, 7023.269
219.967, 6543.619
221.341, 6060.016
222.714, 5626.958
224.087, 5371.461
225.460, 5019.724
226.832, 4844.449
228.204, 4733.234
229.577, 4677.975
230.948, 4711.953
232.320, 4792.154
233.692, 5001.542
235.063, 5146.068
236.434, 5580.677
237.805, 6112.323
239.175, 6586.994
240.545, 7602.690
241.916, 8457.414
243.286, 9617.161
244.655, 10958.933
246.025, 12782.730
247.394, 15093.558
248.763, 17549.406
250.132, 21106.281
251.501, 25023.182
252.869, 29714.107
254.237, 34311.055
255.605, 39384.023
256.973, 44130.031
258.340, 46731.059
259.708, 48813.133
261.075, 48236.234
262.442, 46523.367
263.808, 42722.516
265.175, 38245.695
266.541, 33497.887
267.907, 28306.092
269.273, 24185.322
270.639, 19866.572
272.004, 16769.838
273.369, 14045.116
274.734, 13375.415
276.099, 11988.729
277.463, 8873.060
278.828, 7712.410
280.192, 6540.775
281.556, 5394.216
282.919, 4435.494
284.283, 3983.587
285.646, 3439.450
287.009, 2967.199
288.372, 2698.834
289.734, 2324.988
291.097, 2045.425
292.459, 1978.342
293.821, 1673.693
295.183, 1594.299
296.544, 1357.187
297.905, 1314.143
299.266, 1201.294
300.627, 1085.721
301.988, 992.040
303.348, 868.438
304.709, 848.912
306.069, 776.460
307.428, 620.077
308.788, 540.760
310.147, 553.508
311.507, 443.315
312.865, 438.181
314.224, 338.102
315.583, 289.075
316.941, 243.100
318.299, 172.174
319.657, 138.295
321.015, 85.461
322.372, 62.672
323.729, 21.924
325.086, 12.218
326.443, 44.448
327.800, 86.082
329.156, 69.689
330.512, 131.214
331.868, 103.299
333.224, 82.013
334.579, 140.667
335.935, 53.267
337.290, 79.005
338.645, 32.690
339.999, 33.904
341.354, 29.268
342.708, 104.347
344.062, 168.753
345.416, 205.622
346.769, 285.143
348.123, 305.555
349.476, 407.303
350.829, 511.572
352.182, 655.557
353.534, 750.767
354.887, 842.879
356.239, 918.036
357.591, 980.211
358.942, 1026.009
360.294, 1039.822
361.645, 1079.649
362.996, 1199.490
364.347, 1213.345
365.698, 1335.215
367.048, 1313.099
368.398, 1358.997
369.748, 1409.909
371.098, 1455.835
372.448, 1478.777
373.797, 1490.733
375.146, 1592.704
376.495, 1620.689
377.844, 1591.689
379.192, 1728.702
380.540, 1701.730
381.889, 1758.772
383.236, 1819.828
384.584, 1809.897
385.932, 1941.953
387.279, 1987.976
388.626, 2113.970
389.973, 2181.931
391.319, 2433.878
392.666, 2540.838
394.012, 2759.196
395.358, 2967.191
396.704, 3188.466
398.049, 3472.671
399.394, 3749.819
400.740, 4063.876
402.084, 4351.902
403.429, 4644.011
404.774, 4943.117
406.118, 5245.342
407.462, 5272.597
408.806, 5519.663
410.150, 5639.736
411.493, 5707.817
412.836, 5612.905
414.179, 5545.792
415.522, 5332.104
416.865, 5190.211
418.207, 4957.538
419.549, 4526.450
420.891, 4428.578
422.233, 4112.713
423.575, 3812.854
424.916, 3651.000
426.257, 3330.154
427.598, 3201.311
428.939, 3057.475
430.279, 2757.644
431.619, 2524.819
432.959, 2384.998
434.299, 2306.183
435.639, 2003.374
436.978, 1877.569
438.318, 1688.769
439.657, 1582.974
440.996, 1467.183
442.334, 1251.397
443.673, 1113.622
445.011, 985.858
446.349, 909.105
447.687, 793.121
449.024, 763.639
450.361, 643.926
451.699, 530.228
453.036, 529.545
454.372, 450.878
455.709, 428.226
457.045, 403.587
458.381, 380.961
459.717, 359.360
461.053, 306.774
462.388, 317.203
463.724, 284.642
465.059, 266.090
466.394, 265.266
467.728, 353.014
469.063, 251.488
470.397, 261.971
471.731, 252.462
473.065, 181.960
474.398, 253.465
475.732, 224.977
477.065, 229.496
478.398, 200.021
479.731, 184.704
481.063, 177.089
482.396, 149.632
483.728, 131.180
485.060, 121.733
486.391, 63.291
487.723, 80.859
489.054, 67.857
490.385, 37.521
491.716, 18.619
493.047, 9.474
494.377, 77.423
495.708, 65.374
497.038, 127.394
498.368, 97.684
499.697, 102.249
501.027, 97.987
502.356, 124.783
503.685, 97.650
505.014, 104.574
506.342, 114.559
507.671, 80.610
508.999, 69.711
510.327, 45.854
511.655, 57.027
512.982, 10.237
514.310, 4.460
515.637, 100.308
516.964, 36.078
518.291, 129.852
519.617, 154.629
520.944, 165.408
522.270, 205.191
523.596, 264.977
524.921, 277.767
526.247, 328.568
527.572, 332.373
528.897, 417.189
530.222, 393.018
531.547, 465.862
532.871, 401.729
534.196, 408.619
535.520, 422.536
536.844, 347.473
538.167, 356.429
539.491, 297.406
540.814, 242.410
542.137, 212.433
543.460, 249.479
544.783, 150.548
546.105, 169.636
547.427, 130.736
548.749, 77.853
550.071, 63.991
551.393, 36.560
552.714, 10.702
554.035, 21.453
555.356, 9.616
556.677, 31.789
557.998, 7.977
559.318, 4.830
560.638, 31.360
561.958, 5.441
563.278, 17.750
564.597, 12.942
565.917, 12.133
567.236, 89.322
568.555, 99.513
569.874, 121.706
571.192, 123.901
572.511, 122.099
573.829, 134.298
575.147, 109.499
576.464, 179.702
577.782, 151.908
579.099, 182.115
580.416, 217.324
581.733, 280.535
583.050, 255.746
584.366, 371.959
585.683, 393.174
586.999, 406.391
588.315, 515.609
589.630, 516.828
590.946, 614.048
592.261, 645.269
593.576, 688.491
594.891, 747.713
596.206, 801.936
597.520, 899.159
598.834, 899.383
600.148, 994.608
601.462, 1074.833
602.776, 1107.059
604.089, 1147.285
605.402, 1178.510
606.715, 1240.840
608.028, 1324.600
609.341, 1381.188
610.653, 1476.414
611.965, 1573.639
613.277, 1632.353
614.589, 1727.473
615.901, 1784.312
617.212, 1885.536
618.523, 1999.758
619.834, 2071.980
621.145, 2206.200
622.456, 2217.420
623.766, 2436.639
625.076, 2557.856
626.386, 2676.073
627.696, 2677.288
629.006, 2944.501
630.315, 2870.713
631.624, 3016.924
632.933, 3174.134
634.242, 3082.341
635.551, 3207.547
636.859, 3196.751
638.167, 3350.954
639.475, 3192.155
640.783, 3191.353
642.090, 3316.550
643.398, 3237.745
644.705, 3200.939
646.012, 3156.135
647.318, 3106.435
648.625, 3159.501
649.931, 3067.253
651.237, 3078.667
652.543, 3153.052
653.849, 3089.411
655.155, 3011.932
656.460, 3157.427
657.765, 3037.666
659.070, 3045.160
660.375, 3150.962
661.679, 3086.459
662.984, 3075.517
664.288, 3236.945
665.592, 3258.503
666.895, 3326.748
668.199, 3470.491
669.502, 3573.540
670.805, 3808.385
672.108, 3846.562
673.411, 4048.888
674.713, 4469.217
676.016, 4575.551
677.318, 4927.886
678.620, 5282.222
679.921, 5666.693
681.223, 6150.266
682.524, 6624.114
683.825, 7358.847
685.126, 8052.755
686.427, 8803.416
687.727, 9847.457
689.028, 10734.256
690.328, 12125.626
691.628, 13587.438
692.927, 14975.690
694.227, 16360.760
695.526, 18762.600
696.825, 20051.449
698.124, 21462.619
699.423, 22644.994
700.721, 22971.953
702.020, 22352.105
703.318, 21517.652
704.616, 19451.283
705.913, 17989.877
707.211, 16278.798
708.508, 14146.989
709.805, 11986.887
711.102, 10661.491
712.399, 9155.545
713.695, 8105.661
714.992, 7032.395
716.288, 6234.525
717.584, 5579.033
718.879, 4884.776
720.175, 4693.349
721.470, 4292.604
722.765, 4046.784
724.060, 3872.212
725.355, 3711.778
726.649, 3542.180
727.944, 3649.534
729.238, 3447.049
730.532, 3683.448
731.825, 3708.932
733.119, 3803.510
734.412, 3936.924
735.705, 4162.271
736.998, 4333.565
738.291, 4625.915
739.584, 4797.411
740.876, 5120.760
742.168, 5166.260
743.460, 5399.654
744.752, 5636.915
746.043, 5875.277
747.334, 5790.568
748.626, 5680.827
749.916, 5850.112
751.207, 5662.353
752.498, 5587.589
753.788, 5304.821
755.078, 5187.092
756.368, 4809.317
757.658, 4576.538
758.947, 4373.753
760.237, 4006.966
761.526, 3692.174
762.815, 3299.377
764.104, 3082.576
765.392, 2798.772
766.680, 2503.963
767.969, 2329.150
769.257, 2061.333
770.544, 1939.511
771.832, 1656.685
773.119, 1566.855
774.406, 1434.021
775.693, 1354.182
776.980, 1280.414
778.267, 1223.491
779.553, 1179.638
780.839, 1118.782
782.125, 1113.921
783.411, 1061.055
784.697, 1037.186
785.982, 1011.311
787.267, 1027.433
788.552, 973.550
789.837, 1013.662
791.122, 970.770
792.406, 914.873
793.690, 942.972
794.974, 887.066
796.258, 865.920
797.542, 831.241
798.825, 806.321
800.108, 778.343
801.391, 710.468
802.674, 715.535
803.957, 674.598
805.239, 627.667
806.522, 516.742
807.804, 498.838
809.085, 460.952
810.367, 391.099
811.649, 417.272
812.930, 295.470
814.211, 276.694
815.492, 271.950
816.772, 255.231
818.053, 236.985
819.333, 243.877
820.613, 201.235
821.893, 186.611
823.173, 176.998
824.452, 183.399
825.732, 175.803
827.011, 142.208
828.290, 159.606
829.568, 120.000
830.847, 123.386
832.125, 85.767
833.403, 24.142
834.681, 13.510
835.959, 15.131
837.236, 4.207
838.514, 15.467
839.791, 27.161
841.068, 32.885
842.345, 60.639
843.621, 69.439
844.898, 76.289
846.174, 51.194
847.450, 48.141
848.726, 60.127
850.001, 76.160
851.277, 49.247
852.552, 68.375
853.827, 61.554
855.102, 48.780
856.376, 23.047
857.651, 40.341
858.925, 55.671
860.199, 13.045
861.473, 17.442
862.746, 18.863
864.020, 8.301
865.293, 35.758
866.566, 32.247
867.839, 15.767
869.112, 17.308
870.384, 6.867
871.656, 4.556
872.928, 14.972
874.200, 42.380
875.472, 53.782
876.744, 41.180
878.015, 19.570
879.286, 45.951
880.557, 56.324
881.828, 24.691
883.098, 44.052
884.369, 27.406
885.639, 16.756
886.909, 38.098
888.178, 53.432
889.448, 65.759
890.717, 51.082
891.987, 23.399
893.256, 49.710
894.524, 22.017
895.793, 37.317
897.061, 71.614
898.330, 42.906
899.598, 59.194
900.865, 66.480
902.133, 58.759
903.401, 97.032
904.668, 73.301
905.935, 74.564
907.202, 58.821
908.468, 89.072
909.735, 121.317
911.001, 91.555
912.267, 88.787
913.533, 158.019
914.799, 111.245
916.064, 88.469
917.330, 120.686
918.595, 83.900
919.860, 142.107
921.124, 144.309
922.389, 155.507
923.653, 153.700
924.918, 167.893
926.182, 168.538
927.445, 152.260
928.709, 175.438
929.972, 187.610
931.236, 195.778
932.499, 173.939
933.761, 184.103
935.024, 163.262
936.286, 218.415
937.549, 192.562
938.811, 235.710
940.073, 188.852
941.334, 207.988
942.596, 236.118
943.857, 251.242
945.118, 260.361
946.379, 275.170
947.640, 281.609
948.900, 282.684
950.161, 295.788
951.421, 280.886
952.681, 289.979
953.940, 319.065
955.200, 339.146
956.459, 351.378
957.719, 370.289
958.978, 376.353
960.236, 388.411
961.495, 396.739
962.753, 413.322
964.012, 422.550
965.270, 455.590
966.527, 467.624
967.785, 502.651
969.043, 547.676
970.300, 525.694
971.557, 555.705
972.814, 564.708
974.071, 637.703
975.327, 639.691
976.583, 648.671
977.840, 737.643
979.095, 681.607
980.351, 766.563
981.607, 808.512
982.862, 807.452
984.117, 897.386
985.372, 842.184
986.627, 866.873
987.882, 917.283
989.136, 944.801
990.390, 994.139
991.644, 1029.719
992.898, 1023.916
994.152, 1099.348
995.405, 1082.206
996.659, 1152.614
997.912, 1161.582
999.165, 1237.726
1000.417, 1266.105
1001.670, 1366.462
1002.922, 1340.496
1004.174, 1334.317
1005.426, 1447.559
1006.678, 1429.595
1007.930, 1559.238
1009.181, 1588.787
1010.432, 1693.368
1011.683, 1685.620
1012.934, 1783.590
1014.185, 1786.466
1015.435, 1861.002
1016.685, 1876.812
1017.935, 1938.372
1019.185, 2048.913
1020.435, 2069.896
1021.684, 2138.543
1022.934, 2214.874
1024.183, 2179.410
1025.432, 2242.160
1026.680, 2241.958
1027.929, 2290.640
1029.177, 2408.163
1030.425, 2462.846
1031.673, 2484.695
1032.921, 2568.773
1034.169, 2649.529
1035.416, 2776.794
1036.663, 2925.750
1037.911, 3104.758
1039.157, 3297.292
1040.404, 3520.522
1041.650, 3755.339
1042.897, 4042.527
1044.143, 4383.812
1045.389, 4691.807
1046.634, 5008.230
1047.880, 5412.561
1049.125, 5762.632
1050.371, 6225.544
1051.615, 6555.373
1052.860, 6966.151
1054.105, 7211.263
1055.349, 7347.200
1056.593, 7516.081
1057.837, 7885.801
1059.081, 7928.629
1060.325, 8095.378
1061.568, 8125.166
1062.812, 8212.367
1064.055, 8072.168
1065.298, 8019.746
1066.540, 7969.459
1067.783, 7739.792
1069.025, 7757.533
1070.267, 7410.288
1071.509, 7257.791
1072.751, 7198.664
1073.993, 7006.739
1075.234, 6708.475
1076.475, 6750.150
1077.716, 6396.835
1078.957, 6159.573
1080.198, 6118.705
1081.438, 5777.420
1082.679, 5634.947
1083.919, 5342.132
1085.159, 5195.789
1086.398, 4944.576
1087.638, 4648.825
1088.877, 4528.611
1090.116, 4333.305
1091.355, 4123.023
1092.594, 3820.828
1093.833, 3626.622
1095.071, 3320.337
1096.309, 3180.249
1097.547, 2899.010
1098.785, 2679.517
1100.023, 2444.161
1101.260, 2346.062
1102.498, 2130.673
1103.735, 1988.386
1104.972, 1806.120
1106.208, 1722.732
1107.445, 1565.925
1108.681, 1452.534
1109.918, 1313.204
1111.154, 1218.911
1112.389, 1161.992
1113.625, 1054.113
1114.860, 998.727
1116.096, 932.496
1117.331, 848.389
1118.566, 813.045
1119.800, 776.693
1121.035, 724.362
1122.269, 754.020
1123.503, 714.673
1124.737, 653.222
1125.971, 567.872
1127.205, 465.468
1128.438, 458.094
1129.671, 454.747
1130.904, 376.340
1132.137, 396.240
1133.370, 342.863
1134.602, 311.409
1135.834, 297.956
1137.066, 272.506
1138.298, 253.106
1139.530, 242.105
1140.762, 209.363
1141.993, 219.970
1143.224, 188.636
1144.455, 175.267
1145.686, 141.815
1146.917, 162.061
1148.147, 158.320
1149.377, 120.006
1150.607, 123.789
1151.837, 72.587
1153.067, 43.040
1154.296, 62.212
1155.526, 37.940
1156.755, 62.675
1157.984, 74.421
1159.213, 21.296
1160.441, 58.104
1161.670, 60.874
1162.898, 30.651
1164.126, 67.469
1165.354, 28.272
1166.581, 14.070
1167.809, 12.934
1169.036, 10.748
1170.263, 11.696
1171.490, 5.505
1172.717, 2.323
1173.943, 2.126
1175.170, 16.924
1176.396, 27.719
1177.622, 31.511
1178.848, 1.444
1180.073, 11.660
1181.299, 1.162
1182.524, 21.066
1183.749, 12.790
1184.974, 13.553
1186.199, 2.695
1187.423, 9.924
1188.648, 1.186
1189.872, 12.426
1191.096, 11.551
1192.320, 9.121
1193.543, 14.274
1194.767, 10.577
1195.990, 7.852
1197.213, 20.172
1198.436, 1.494
1199.659, 5.154
1200.881, 6.169
1202.104, 2.522
1203.326, 0.853
1204.548, 17.756
1205.770, 1.387
1206.991, 20.013
1208.213, 10.635
1209.434, 22.748
1210.655, 6.852
1211.876, 12.553
1213.096, 27.030
1214.317, 8.391
1215.537, 19.177
1216.757, 15.741
1217.977, 10.699
1219.197, 0.152
1220.417, 19.610
1221.636, 18.917
1222.855, 35.441
1224.074, 13.040
1225.293, 16.466
1226.512, 4.033
1227.731, 21.460
1228.949, 26.052
1230.167, 4.585
1231.385, 35.874
1232.603, 3.328
1233.820, 21.224
1235.038, 3.207
1236.255, 22.631
1237.472, 16.050
1238.689, 2.464
1239.906, 2.872
1241.122, 15.274
1242.338, 0.671
1243.555, 5.054
1244.771, 24.569
1245.986, 29.797
1247.202, 1.158
1248.417, 45.512
1249.633, 11.862
1250.848, 7.198
1252.063, 34.529
1253.277, 3.151
1254.492, 34.162
1255.706, 18.470
1256.920, 36.774
1258.134, 2.927
1259.348, 17.635
1260.562, 29.644
1261.775, 4.918
1262.988, 13.813
1264.201, 17.445
1265.414, 18.698
1266.627, 12.941
1267.839, 15.172
1269.052, 15.440
1270.264, 41.615
1271.476, 14.824
1272.688, 27.028
1273.899, 19.227
1275.111, 12.421
1276.322, 25.609
1277.533, 2.792
1278.744, 16.968
1279.955, 35.139
1281.165, 34.305
1282.376, 34.465
1283.586, 22.620
1284.796, 22.768
1286.006, 13.911
1287.215, 26.047
1288.425, 16.179
1289.634, 29.304
1290.843, 5.576
1292.052, 0.465
1293.261, 0.363
1294.469, 31.731
1295.678, 14.819
1296.886, 14.901
1298.094, 2.024
1299.302, 3.043
1300.509, 47.101
1301.717, 49.154
1302.924, 43.200
1304.131, 16.240
1305.338, 32.274
1306.545, 43.302
1307.752, 47.323
1308.958, 33.338
1310.164, 39.346
1311.370, 49.349
1312.576, 28.330
1313.782, 41.298
1314.987, 14.249
1316.193, 61.196
1317.398, 40.109
1318.603, 43.002
1319.807, 58.886
1321.012, 60.824
1322.216, 69.771
1323.421, 9.712
1324.625, 62.521
1325.829, 31.929
1327.032, 73.762
1328.236, 18.555
1329.439, 40.424
1330.642, 50.288
1331.845, 36.017
1333.048, 62.425
1334.251, 35.178
1335.453, 50.403
1336.656, 70.689
1337.858, 39.572
1339.060, 81.628
1340.261, 30.900
1341.463, 65.318
1342.664, 60.954
1343.866, 68.706
1345.067, 33.459
1346.267, 50.916
1347.468, 62.538
1348.669, 75.212
1349.869, 72.996
1351.069, 76.707
1352.269, 57.490
1353.469, 78.229
1354.668, 73.547
1355.868, 91.261
1357.067, 101.053
1358.266, 101.980
1359.465, 119.143
1360.664, 89.891
1361.862, 83.608
1363.061, 93.571
1364.259, 78.156
1365.457, 72.251
1366.655, 51.964
1367.852, 50.728
1369.050, 55.737
1370.247, 53.182
1371.444, 73.474
1372.641, 111.178
1373.838, 111.064
1375.035, 114.286
1376.231, 114.988
1377.427, 94.546
1378.623, 88.891
1379.819, 62.164
1381.015, 76.769
1382.211, 70.336
1383.406, 96.804
1384.601, 79.277
1385.796, 58.868
1386.991, 73.763
1388.185, 83.365
1389.380, 94.170
1390.574, 57.924
1391.768, 62.174
1392.962, 46.960
1394.156, 74.519
1395.350, 94.105
1396.543, 75.388
1397.736, 72.974
1398.929, 97.538
1400.122, 61.197
1401.315, 88.804
1402.507, 48.353
1403.700, 61.551
1404.892, 59.219
1406.084, 55.812
1407.276, 56.430
1408.467, 50.771
1409.659, 51.236
1410.850, 45.760
1412.041, 44.107
1413.232, 41.285
1414.423, 40.293
1415.614, 45.863
1416.804, 47.219
1417.994, 63.763
1419.184, 68.224
1420.374, 70.832
1421.564, 76.970
1422.753, 68.444
1423.943, 64.923
1425.132, 52.391
1426.321, 52.483
1427.510, 35.863
1428.698, 61.159
1429.887, 43.558
1431.075, 29.948
1432.263, 55.381
1433.451, 62.802
1434.639, 74.180
1435.827, 75.623
1437.014, 62.024
1438.201, 68.454
1439.388, 80.875
1440.575, 68.284
1441.762, 73.246
1442.949, 101.124
1444.135, 57.543
1445.321, 54.958
1446.507, 27.375
1447.693, 51.786
1448.879, 44.202
1450.064, 94.614
1451.250, 62.049
1452.435, 72.480
1453.620, 96.929
1454.805, 41.373
1455.989, 54.814
1457.174, 65.264
1458.358, 75.722
1459.542, 67.172
1460.726, 63.633
1461.910, 91.121
1463.093, 60.616
1464.277, 73.804
1465.460, 44.590
1466.643, 67.073
1467.826, 35.552
1469.009, 14.068
1470.191, 40.610
1471.373, 17.175
1472.556, 29.742
1473.738, 22.312
1474.919, 32.889
1476.101, 48.470
1477.283, 28.065
1478.464, 5.671
1479.645, 6.714
1480.826, 53.909
1482.007, 52.542
1483.187, 23.184
1484.368, 21.838
1485.548, 9.502
1486.728, 29.180
1487.908, 29.871
1489.088, 36.578
1490.268, 58.299
1491.447, 61.037
1492.626, 63.792
1493.805, 35.566
1494.984, 71.359
1496.163, 56.172
1497.341, 69.009
1498.520, 26.870
1499.698, 21.753
1500.876, 39.662
1502.054, 40.597
1503.232, 13.408
1504.409, 60.232
1505.586, 24.070
1506.763, 8.139
1507.940, 54.722
1509.117, 17.594
1510.294, 33.472
1511.470, 11.353
1512.647, 38.229
1513.823, 58.087
1514.999, 45.083
1516.174, 60.050
1517.350, 31.123
1518.526, 41.732
1519.701, 19.586
1520.876, 1.789
1522.051, 26.875
1523.226, 4.770
1524.400, 5.778
1525.574, 0.000
##END=



