##NAMES=Natrolite
##RRUFFID=R040102
##IDEAL CHEMISTRY=Na_2_(Si_3_Al_2_)O_10_&#183;2H_2_O
##LOCALITY=Ross' Quarry, Northland, New Zealand
##OWNER=RRUFF
##SOURCE=University of Arizona Mineral Museum
##DESCRIPTION=Mass of colorless acicular crystals
##STATUS=The identification of this mineral has been confirmed by X-ray diffraction and chemical analysis
##URL=rruff.info/R040102
##MEASURED CHEMISTRY=(Na_0.92_Ca_0.02_)_2_(Si_3.03_Al_1.99_)O_10_Â·2H_2_O
##PIN_ID=S00341
##ORIENTATION=Laser parallel to -c* (0 0 -1). Fiducial mark perpendicular to laser is parallel to a [1 0 0]
130.228, 0.000
131.615, 99.829
133.003, 6.473
134.390, 4.371
135.777, 130.911
137.164, 289.784
138.550, 505.766
139.937, 676.990
141.323, 877.084
142.709, 1157.004
144.094, 1098.009
145.480, 1207.305
146.865, 1103.997
148.250, 1061.968
149.635, 1027.572
151.019, 1065.699
152.403, 1329.441
153.788, 1394.239
155.171, 1746.122
156.555, 2048.804
157.939, 2526.141
159.322, 3026.973
160.705, 3539.238
162.088, 4084.735
163.470, 4092.107
164.853, 3860.439
166.235, 3527.401
167.617, 2963.540
168.998, 2670.096
170.380, 2184.083
171.761, 1837.486
173.142, 1456.652
174.523, 1295.370
175.904, 1146.978
177.284, 897.927
178.664, 885.958
180.044, 824.433
181.424, 813.952
182.803, 804.524
184.183, 818.497
185.562, 756.564
186.940, 711.947
188.319, 651.700
189.698, 613.431
191.076, 479.930
192.454, 580.518
193.831, 542.468
195.209, 684.168
196.586, 683.482
197.963, 788.116
199.340, 877.308
200.717, 1043.091
202.093, 1164.524
203.470, 1285.108
204.846, 1475.577
206.221, 1422.428
207.597, 1530.750
208.972, 1297.030
210.347, 1277.263
211.722, 1043.769
213.097, 769.121
214.472, 708.493
215.846, 545.811
217.220, 523.351
218.594, 368.006
219.967, 304.771
221.341, 175.812
222.714, 103.811
224.087, 127.877
225.460, 153.309
226.832, 101.933
228.204, 64.903
229.577, 103.918
230.948, 49.271
232.320, 131.382
233.692, 176.914
235.063, 209.686
236.434, 333.945
237.805, 503.189
239.175, 467.164
240.545, 640.040
241.916, 600.022
243.286, 453.802
244.655, 345.566
246.025, 271.302
247.394, 79.001
248.763, 77.340
250.132, 49.597
251.501, 60.782
252.869, 57.268
254.237, 132.325
255.605, 111.393
256.973, 80.013
258.340, 33.310
259.708, 2.905
261.075, 84.372
262.442, 75.886
263.808, 59.767
265.175, 51.532
266.541, 41.782
267.907, 165.849
269.273, 250.728
270.639, 148.813
272.004, 109.905
273.369, 221.383
274.734, 110.829
276.099, 97.824
277.463, 50.709
278.828, 13.427
280.192, 62.330
281.556, 8.326
282.919, 33.362
284.283, 74.447
285.646, 77.580
287.009, 64.833
288.372, 8.224
289.734, 29.749
291.097, 3.558
292.459, 13.250
293.821, 28.147
295.183, 59.680
296.544, 98.986
297.905, 115.541
299.266, 241.422
300.627, 333.450
301.988, 452.567
303.348, 529.737
304.709, 533.197
306.069, 579.119
307.428, 460.291
308.788, 380.434
310.147, 258.528
311.507, 173.563
312.865, 68.525
314.224, 47.403
315.583, 50.193
316.941, 63.887
318.299, 70.189
319.657, 37.969
321.015, 82.344
322.372, 104.612
323.729, 56.777
325.086, 64.828
326.443, 114.756
327.800, 116.568
329.156, 122.252
330.512, 171.803
331.868, 158.225
333.224, 148.521
334.579, 259.681
335.935, 141.722
337.290, 213.636
338.645, 78.457
339.999, 261.148
341.354, 87.696
342.708, 186.103
344.062, 245.375
345.416, 310.502
346.769, 319.519
348.123, 448.444
349.476, 397.283
350.829, 381.040
352.182, 543.711
353.534, 572.177
354.887, 658.454
356.239, 649.433
357.591, 658.123
358.942, 678.638
360.294, 639.137
361.645, 647.967
362.996, 573.952
364.347, 464.880
365.698, 437.746
367.048, 426.548
368.398, 360.194
369.748, 373.688
371.098, 271.017
372.448, 248.164
373.797, 221.193
375.146, 158.124
376.495, 212.965
377.844, 255.759
379.192, 277.519
380.540, 218.248
381.889, 212.946
383.236, 234.433
384.584, 127.342
385.932, 191.542
387.279, 184.948
388.626, 176.502
389.973, 148.517
391.319, 135.821
392.666, 165.760
394.012, 181.562
395.358, 157.683
396.704, 122.081
398.049, 177.675
399.394, 239.625
400.740, 210.639
402.084, 222.806
403.429, 257.962
404.774, 307.067
406.118, 403.036
407.462, 344.888
408.806, 301.586
410.150, 272.918
411.493, 336.014
412.836, 317.785
414.179, 366.985
415.522, 294.997
416.865, 317.261
418.207, 292.975
419.549, 320.221
420.891, 388.727
422.233, 518.981
423.575, 468.509
424.916, 479.965
426.257, 839.443
427.598, 801.429
428.939, 1272.579
430.279, 1373.045
431.619, 1699.840
432.959, 1936.206
434.299, 2242.248
435.639, 2648.873
436.978, 2664.890
438.318, 2740.786
439.657, 3060.896
440.996, 2983.369
442.334, 3132.799
443.673, 3245.647
445.011, 3526.950
446.349, 3625.704
447.687, 3614.297
449.024, 3143.717
450.361, 2896.721
451.699, 2408.408
453.036, 1932.218
454.372, 1465.031
455.709, 1186.937
457.045, 1052.574
458.381, 863.355
459.717, 734.419
461.053, 640.790
462.388, 527.731
463.724, 580.527
465.059, 472.599
466.394, 566.733
467.728, 641.015
469.063, 610.376
470.397, 587.240
471.731, 748.578
473.065, 627.865
474.398, 869.165
475.732, 934.994
477.065, 1170.239
478.398, 1135.509
479.731, 1240.765
481.063, 1365.209
482.396, 1570.463
483.728, 1706.488
485.060, 1971.526
486.391, 1987.556
487.723, 2057.295
489.054, 2104.948
490.385, 2070.294
491.716, 2095.965
493.047, 2052.489
494.377, 1947.919
495.708, 1925.657
497.038, 1870.967
498.368, 1752.956
499.697, 1597.716
501.027, 1514.137
502.356, 1498.996
503.685, 1438.031
505.014, 1333.421
506.342, 1219.027
507.671, 1154.535
508.999, 1140.226
510.327, 1005.951
511.655, 1051.474
512.982, 1007.332
514.310, 1003.969
515.637, 1089.943
516.964, 1115.161
518.291, 1080.922
519.617, 1226.431
520.944, 1512.148
522.270, 1537.107
523.596, 1942.327
524.921, 2407.229
526.247, 2832.104
527.572, 3716.951
528.897, 4671.539
530.222, 5436.156
531.547, 6150.320
532.871, 6164.367
534.196, 5738.273
535.520, 5081.896
536.844, 3955.725
538.167, 3349.713
539.491, 2543.767
540.814, 1897.552
542.137, 1521.291
543.460, 1315.098
544.783, 1008.381
546.105, 751.972
547.427, 885.517
548.749, 609.008
550.071, 562.365
551.393, 465.661
552.714, 359.065
554.035, 362.529
555.356, 385.878
556.677, 169.019
557.998, 242.411
559.318, 186.039
560.638, 139.525
561.958, 133.040
563.278, 136.681
564.597, 160.503
565.917, 174.678
567.236, 128.618
568.555, 152.356
569.874, 45.965
571.192, 129.880
572.511, 23.713
573.829, 117.790
575.147, 121.606
576.464, 85.792
577.782, 249.768
579.099, 103.986
580.416, 139.045
581.733, 43.636
583.050, 188.486
584.366, 208.096
585.683, 222.883
586.999, 167.649
588.315, 276.080
589.630, 220.937
590.946, 250.869
592.261, 325.594
593.576, 330.798
594.891, 415.892
596.206, 340.963
597.520, 435.886
598.834, 600.770
600.148, 595.618
601.462, 460.682
602.776, 415.693
604.089, 510.745
605.402, 438.191
606.715, 482.633
608.028, 427.833
609.341, 283.075
610.653, 277.568
611.965, 192.342
613.277, 229.809
614.589, 154.486
615.901, 209.694
617.212, 154.880
618.523, 249.413
619.834, 144.512
621.145, 179.498
622.456, 105.154
623.766, 79.923
625.076, 34.788
626.386, 30.574
627.696, 113.563
629.006, 127.891
630.315, 42.243
631.624, 86.305
632.933, 19.725
634.242, 4.334
635.551, 34.651
636.859, 42.441
638.167, 86.331
639.475, 50.282
640.783, 15.328
642.090, 1.514
643.398, 27.547
644.705, 83.357
646.012, 50.087
647.318, 33.978
648.625, 17.593
649.931, 28.820
651.237, 74.726
652.543, 41.757
653.849, 21.713
655.155, 114.846
656.460, 1.491
657.765, 18.164
659.070, 4.876
660.375, 71.616
661.679, 51.580
662.984, 54.747
664.288, 77.881
665.592, 115.396
666.895, 84.262
668.199, 107.431
669.502, 50.452
670.805, 16.216
672.108, 7.171
673.411, 180.530
674.713, 43.662
676.016, 96.855
677.318, 40.068
678.620, 242.882
679.921, 146.263
681.223, 299.413
682.524, 222.711
683.825, 295.822
685.126, 239.334
686.427, 271.990
687.727, 375.298
689.028, 428.130
690.328, 310.903
691.628, 443.872
692.927, 386.909
694.227, 519.681
695.526, 472.437
696.825, 585.220
698.124, 627.613
699.423, 759.982
700.721, 722.326
702.020, 934.647
703.318, 1126.946
704.616, 1129.224
705.913, 1061.478
707.211, 1123.708
708.508, 1315.918
709.805, 1148.103
711.102, 1130.262
712.399, 852.397
713.695, 784.432
714.992, 766.520
716.288, 438.979
717.584, 590.787
718.879, 372.963
720.175, 444.711
721.470, 437.438
722.765, 459.374
724.060, 411.982
725.355, 284.178
726.649, 465.420
727.944, 317.997
729.238, 309.867
730.532, 382.451
731.825, 184.536
733.119, 226.625
734.412, 209.413
735.705, 32.700
736.998, 145.340
738.291, 86.768
739.584, 71.021
740.876, 112.309
742.168, 129.588
743.460, 48.427
744.752, 106.229
746.043, 71.229
747.334, 130.462
748.626, 12.930
749.916, 34.998
751.207, 36.253
752.498, 68.029
753.788, 79.911
755.078, 95.322
756.368, 47.039
757.658, 58.567
758.947, 50.075
760.237, 28.732
761.526, 202.965
762.815, 23.890
764.104, 14.918
765.392, 201.186
766.680, 132.676
767.969, 25.443
769.257, 155.777
770.544, 29.183
771.832, 30.612
773.119, 181.623
774.406, 43.635
775.693, 64.769
776.980, 5.649
778.267, 107.482
779.553, 78.105
780.839, 130.820
782.125, 240.047
783.411, 192.389
784.697, 184.643
785.982, 262.272
787.267, 313.027
788.552, 252.506
789.837, 262.113
791.122, 234.538
792.406, 344.974
793.690, 264.951
794.974, 154.466
796.258, 292.872
797.542, 241.479
798.825, 180.268
800.108, 305.036
801.391, 301.920
802.674, 410.549
803.957, 439.172
805.239, 526.505
806.522, 585.187
807.804, 581.752
809.085, 830.135
810.367, 862.089
811.649, 920.256
812.930, 957.811
814.211, 735.820
815.492, 640.283
816.772, 618.559
818.053, 516.807
819.333, 325.112
820.613, 223.536
821.893, 241.793
823.173, 270.105
824.452, 188.141
825.732, 165.320
827.011, 164.177
828.290, 211.719
829.568, 189.896
830.847, 177.925
832.125, 266.435
833.403, 124.881
834.681, 173.023
835.959, 131.418
837.236, 169.797
838.514, 68.140
839.791, 266.440
841.068, 104.704
842.345, 212.933
843.621, 221.126
844.898, 169.280
846.174, 147.399
847.450, 205.476
848.726, 203.515
850.001, 191.517
851.277, 289.481
852.552, 377.409
853.827, 425.298
855.102, 353.154
856.376, 371.465
857.651, 379.766
858.925, 507.975
860.199, 445.840
861.473, 333.904
862.746, 491.547
864.020, 609.154
865.293, 306.723
866.566, 274.294
867.839, 441.789
869.112, 179.248
870.384, 296.665
871.656, 184.050
872.928, 381.392
874.200, 68.701
875.472, 265.965
876.744, 53.188
878.015, 170.368
879.286, 327.508
880.557, 44.612
881.828, 101.672
883.098, 18.691
884.369, 135.664
885.639, 92.397
886.909, 19.266
888.178, 3.985
889.448, 11.970
890.717, 178.350
891.987, 124.449
893.256, 4.233
894.524, 68.127
895.793, 117.949
897.061, 29.695
898.330, 6.161
899.598, 156.884
900.865, 2.752
902.133, 48.080
903.401, 233.457
904.668, 98.803
905.935, 64.238
907.202, 50.322
908.468, 85.096
909.735, 120.270
911.001, 115.447
912.267, 180.552
913.533, 43.236
914.799, 218.898
916.064, 183.772
917.330, 71.444
918.595, 54.028
919.860, 0.827
921.124, 91.570
922.389, 33.287
923.653, 21.258
924.918, 65.764
926.182, 9.143
927.445, 5.318
928.709, 89.821
929.972, 16.405
931.236, 28.180
932.499, 37.400
933.761, 27.168
935.024, 27.841
936.286, 26.295
937.549, 118.489
938.811, 3.671
940.073, 21.174
941.334, 115.866
942.596, 39.439
943.857, 4.933
945.118, 79.730
946.379, 144.274
947.640, 248.319
948.900, 352.891
950.161, 7.291
951.421, 181.447
952.681, 156.481
953.940, 321.867
955.200, 256.805
956.459, 351.191
957.719, 295.550
958.978, 350.939
960.236, 475.245
961.495, 500.119
962.753, 564.905
964.012, 889.145
965.270, 714.081
966.527, 808.259
967.785, 972.484
969.043, 826.615
970.300, 800.777
971.557, 764.883
972.814, 569.703
974.071, 483.604
975.327, 397.676
976.583, 421.289
977.840, 255.705
979.095, 270.082
980.351, 204.166
981.607, 398.588
982.862, 102.930
984.117, 447.498
985.372, 426.826
986.627, 351.398
987.882, 441.305
989.136, 415.506
990.390, 409.424
991.644, 533.305
992.898, 468.166
994.152, 552.723
995.405, 486.484
996.659, 600.992
997.912, 443.883
999.165, 518.031
1000.417, 512.223
1001.670, 546.166
1002.922, 439.775
1004.174, 423.104
1005.426, 327.787
1006.678, 181.812
1007.930, 175.555
1009.181, 190.020
1010.432, 263.576
1011.683, 207.941
1012.934, 361.143
1014.185, 555.039
1015.435, 398.107
1016.685, 291.461
1017.935, 534.750
1019.185, 658.926
1020.435, 771.289
1021.684, 1085.199
1022.934, 1337.785
1024.183, 1501.350
1025.432, 1513.482
1026.680, 1296.203
1027.929, 1578.557
1029.177, 1111.418
1030.425, 1133.980
1031.673, 906.137
1032.921, 828.336
1034.169, 800.273
1035.416, 833.008
1036.663, 585.285
1037.911, 737.820
1039.157, 589.805
1040.404, 752.246
1041.650, 625.576
1042.897, 638.506
1044.143, 689.824
1045.389, 557.553
1046.634, 629.217
1047.880, 588.906
1049.125, 511.330
1050.371, 662.982
1051.615, 695.402
1052.860, 377.262
1054.105, 510.299
1055.349, 572.295
1056.593, 663.791
1057.837, 687.488
1059.081, 644.664
1060.325, 706.461
1061.568, 659.139
1062.812, 661.361
1064.055, 703.467
1065.298, 865.801
1066.540, 847.246
1067.783, 724.559
1069.025, 646.086
1070.267, 806.449
1071.509, 577.830
1072.751, 777.365
1073.993, 528.416
1075.234, 639.721
1076.475, 489.570
1077.716, 470.014
1078.957, 482.305
1080.198, 541.936
1081.438, 422.973
1082.679, 471.166
1083.919, 411.623
1085.159, 570.285
1086.398, 559.012
1087.638, 602.215
1088.877, 623.041
1090.116, 543.168
1091.355, 623.727
1092.594, 601.846
1093.833, 641.568
1095.071, 422.445
1096.309, 403.199
1097.547, 304.164
1098.785, 295.373
1100.023, 285.182
1101.260, 175.676
1102.498, 86.441
1103.735, 187.258
1104.972, 379.443
1106.208, 400.168
1107.445, 60.848
1108.681, 322.756
1109.918, 173.340
1111.154, 193.871
1112.389, 484.725
1113.625, 145.166
1114.860, 355.816
1116.096, 306.162
1117.331, 357.076
1118.566, 307.330
1119.800, 313.939
1121.035, 88.033
1122.269, 318.717
1123.503, 298.777
1124.737, 319.096
1125.971, 99.779
1127.205, 99.580
1128.438, 210.549
1129.671, 100.029
1130.904, 99.785
1132.137, 134.674
1133.370, 95.412
1134.602, 24.863
1135.834, 104.836
1137.066, 94.939
1138.298, 58.428
1139.530, 258.801
1140.762, 21.471
1141.993, 30.225
1143.224, 220.166
1144.455, 1.484
1145.686, 341.922
1146.917, 90.857
1148.147, 71.066
1149.377, 111.670
1150.607, 271.385
1151.837, 331.250
1153.067, 10.600
1154.296, 151.607
1155.526, 211.609
1156.755, 29.553
1157.984, 239.059
1159.213, 38.457
1160.441, 307.436
1161.670, 139.090
1162.898, 327.248
1164.126, 261.949
1165.354, 261.039
1166.581, 49.400
1167.809, 388.771
1169.036, 97.059
1170.263, 306.242
1171.490, 165.713
1172.717, 283.572
1173.943, 333.029
1175.170, 204.934
1176.396, 192.758
1177.622, 371.486
1178.848, 221.379
1180.073, 259.371
1181.299, 245.408
1182.524, 163.418
1183.749, 222.172
1184.974, 103.557
1186.199, 40.854
1187.423, 82.902
1188.648, 59.561
1189.872, 87.521
1191.096, 186.932
1192.320, 86.350
1193.543, 373.121
1194.767, 215.166
1195.990, 65.508
1197.213, 432.580
1198.436, 72.047
1199.659, 269.010
1200.881, 167.896
1202.104, 276.150
1203.326, 353.195
1204.548, 131.039
1205.770, 227.736
1206.991, 314.252
1208.213, 112.830
1209.434, 278.857
1210.655, 164.824
1211.876, 285.959
1213.096, 491.688
1214.317, 185.119
1215.537, 300.965
1216.757, 656.633
1217.977, 365.201
1219.197, 220.809
1220.417, 356.119
1221.636, 332.664
1222.855, 587.686
1224.074, 467.410
1225.293, 116.738
1226.512, 423.074
1227.731, 346.680
1228.949, 462.963
1230.167, 468.637
1231.385, 485.721
1232.603, 670.590
1233.820, 415.715
1235.038, 424.881
1236.255, 349.617
1237.472, 636.766
1238.689, 411.580
1239.906, 605.861
1241.122, 350.434
1242.338, 434.611
1243.555, 478.740
1244.771, 443.076
1245.986, 497.039
1247.202, 570.986
1248.417, 395.723
1249.633, 748.650
1250.848, 141.938
1252.063, 585.881
1253.277, 549.574
1254.492, 192.572
1255.706, 556.119
1256.920, 549.010
1258.134, 411.924
1259.348, 635.271
1260.562, 437.818
1261.775, 711.520
1262.988, 354.604
1264.201, 517.834
1265.414, 690.773
1266.627, 423.670
1267.839, 365.545
1269.052, 538.311
1270.264, 430.910
1271.476, 333.494
1272.688, 555.090
1273.899, 226.613
1275.111, 528.520
1276.322, 549.893
1277.533, 28.820
1278.744, 442.484
1279.955, 328.283
1281.165, 310.324
1282.376, 405.273
1283.586, 4.043
1284.796, 236.785
1286.006, 377.953
1287.215, 47.301
1288.425, 297.213
1289.634, 67.828
1290.843, 157.359
1292.052, 528.297
1293.261, 178.021
1294.469, 117.588
1295.678, 267.207
1296.886, 217.359
1298.094, 327.658
1299.302, 56.498
1300.509, 95.881
1301.717, 515.361
1302.924, 143.928
1304.131, 203.273
1305.338, 231.680
1306.545, 11.088
1307.752, 489.670
1308.958, 41.043
1310.164, 227.848
1311.370, 396.648
1312.576, 154.484
1313.782, 383.568
1314.987, 161.418
1316.193, 120.051
1317.398, 438.008
1318.603, 106.371
1319.807, 5.158
1321.012, 402.664
1322.216, 170.346
1323.421, 48.686
1324.625, 316.297
1325.829, 76.027
1327.032, 281.439
1328.236, 128.471
1329.439, 164.369
1330.642, 402.100
1331.845, 188.113
1333.048, 4.307
1334.251, 190.266
1335.453, 36.279
1336.656, 32.609
1337.858, 428.418
1339.060, 24.654
1340.261, 1.494
1341.463, 306.871
1342.664, 146.309
1343.866, 298.822
1345.067, 34.758
1346.267, 70.178
1347.468, 225.965
1348.669, 91.992
1349.869, 277.012
1351.069, 302.357
1352.269, 142.012
1353.469, 382.609
1354.668, 377.857
1355.868, 27.441
1357.067, 397.664
1358.266, 66.586
1359.465, 337.912
1360.664, 362.840
1361.862, 8.381
1363.061, 343.441
1364.259, 397.844
1365.457, 122.764
1366.655, 707.535
1367.852, 16.891
1369.050, 11.662
1370.247, 112.389
1371.444, 81.869
1372.641, 102.641
1373.838, 177.525
1375.035, 32.080
1376.231, 336.344
1377.427, 265.615
1378.623, 15.822
1379.819, 343.143
1381.015, 21.742
1382.211, 300.543
1383.406, 799.344
1384.601, 337.832
1385.796, 715.049
1386.991, 613.791
1388.185, 351.055
1389.380, 549.213
1390.574, 397.393
1391.768, 125.084
1392.962, 723.363
1394.156, 670.525
1395.350, 368.273
1396.543, 905.455
1397.736, 312.018
1398.929, 542.801
1400.122, 709.344
1401.315, 425.605
1402.507, 566.834
1403.700, 500.602
1404.892, 284.150
1406.084, 839.650
1407.276, 362.918
1408.467, 647.334
1409.659, 690.312
1410.850, 404.682
1412.041, 607.867
1413.232, 768.551
1414.423, 496.199
1415.614, 710.672
1416.804, 604.471
1417.994, 516.402
1419.184, 869.742
1420.374, 379.131
1421.564, 549.570
1422.753, 721.439
1423.943, 93.473
1425.132, 816.840
1426.321, 504.594
1427.510, 243.766
1428.698, 524.246
1429.887, 434.262
1431.075, 436.664
1432.263, 1035.602
1433.451, 544.801
1434.639, 744.668
1435.827, 1005.781
1437.014, 668.543
1438.201, 872.113
1439.388, 980.531
1440.575, 717.182
1441.762, 1369.238
1442.949, 1039.490
1444.135, 744.779
1445.321, 1627.184
1446.507, 1044.127
1447.693, 1140.316
1448.879, 1631.020
1450.064, 1095.756
1451.250, 1225.502
1452.435, 1265.279
1453.620, 904.881
1454.805, 1354.607
1455.989, 1061.047
1457.174, 729.805
1458.358, 1227.678
1459.542, 1006.344
1460.726, 1034.742
1461.910, 1241.695
1463.093, 849.184
1464.277, 986.803
1465.460, 984.143
1466.643, 651.334
1467.826, 868.268
1469.009, 944.912
1470.191, 461.346
1471.373, 1113.566
1472.556, 550.148
1473.738, 495.283
1474.919, 1002.016
1476.101, 338.850
1477.283, 365.785
1478.464, 902.832
1479.645, 100.213
1480.826, 667.404
1482.007, 515.193
1483.187, 313.299
1484.368, 651.764
1485.548, 300.215
1486.728, 528.566
1487.908, 526.951
1489.088, 485.330
1490.268, 413.725
1491.447, 722.195
1492.626, 250.754
1493.805, 489.459
1494.984, 278.484
1496.163, 207.912
1497.341, 627.670
1498.520, 237.746
1499.698, 168.154
1500.876, 318.893
1502.054, 39.930
1503.232, 121.324
1504.409, 263.176
1505.586, 55.582
1506.763, 198.645
1507.940, 192.410
1509.117, 3.031
1510.294, 532.387
1511.470, 1.039
1512.647, 3.156
1513.823, 596.691
1514.999, 175.664
1516.174, 67.520
1517.350, 0.000
##END=



