##NAMES=Natrolite
##RRUFFID=R040112
##IDEAL CHEMISTRY=Na_2_(Si_3_Al_2_)O_10_&#183;2H_2_O
##LOCALITY=Ice River Alkaline Complex, Moose Creek Valley, Yoho National Park, British Columbia, Canada
##OWNER=RRUFF
##SOURCE=National Museums of Canada
##DESCRIPTION=Colorless pseudohexagonal prism
##STATUS=The identification of this mineral has been confirmed by X-ray diffraction and chemical analysis
##URL=rruff.info/R040112
##MEASURED CHEMISTRY=Na_2.00_(Si_3.00_Al_2.00_)O_10_Â·2H_2_O
##PIN_ID=L00277
##ORIENTATION=Laser parallel to -a* (-1 0 0). Fiducial mark perpendicular to laser is parallel to b [0 1 0]
92.678, 0.000
94.071, 68.274
95.465, 227.484
96.858, 23.146
98.251, 7.104
99.644, 2.528
101.036, 173.716
102.428, 294.494
103.820, 540.783
105.212, 1349.816
106.604, 1959.332
107.995, 3237.473
109.387, 3142.756
110.777, 2284.122
112.168, 1420.971
113.559, 1232.663
114.949, 1569.189
116.339, 1729.928
117.729, 2914.088
119.119, 3751.066
120.508, 5590.379
121.897, 8261.669
123.286, 11824.636
124.675, 14839.051
126.063, 14664.708
127.452, 11641.555
128.840, 7931.922
130.228, 5553.712
131.615, 4906.102
133.003, 5239.840
134.390, 6917.908
135.777, 8229.536
137.164, 9172.563
138.550, 8255.229
139.937, 8157.372
141.323, 9639.037
142.709, 11610.292
144.094, 13711.169
145.480, 14231.673
146.865, 13701.840
148.250, 10301.693
149.635, 7031.536
151.019, 5331.176
152.403, 4620.532
153.788, 5129.760
155.171, 6388.942
156.555, 8727.930
157.939, 11836.659
159.322, 16125.132
160.705, 21243.363
162.088, 24796.891
163.470, 26968.971
164.853, 24299.568
166.235, 20630.330
167.617, 15099.310
168.998, 11178.825
170.380, 8188.922
171.761, 5849.121
173.142, 4530.186
174.523, 3382.974
175.904, 2676.967
177.284, 2194.771
178.664, 1674.258
180.044, 1588.796
181.424, 1093.474
182.803, 1166.688
184.183, 1129.883
185.562, 973.071
186.940, 1016.262
188.319, 549.460
189.698, 562.669
191.076, 416.563
192.454, 349.823
193.831, 323.597
195.209, 516.823
196.586, 630.055
197.963, 733.284
199.340, 1156.509
200.717, 1429.721
202.093, 1982.917
203.470, 2596.093
204.846, 3637.345
206.221, 4544.545
207.597, 4998.543
208.972, 4921.441
210.347, 3974.309
211.722, 3277.319
213.097, 2161.930
214.472, 1721.482
215.846, 1697.998
217.220, 1583.805
218.594, 1947.478
219.967, 1999.703
221.341, 2481.838
222.714, 2063.880
224.087, 1635.833
225.460, 1187.698
226.832, 559.473
228.204, 321.160
229.577, 22.756
230.948, 45.737
232.320, 153.674
233.692, 255.627
235.063, 245.254
236.434, 54.818
237.805, 14.550
239.175, 458.548
240.545, 752.451
241.916, 874.499
243.286, 973.773
244.655, 782.570
246.025, 367.604
247.394, 326.857
248.763, 70.227
250.132, 71.150
251.501, 181.439
252.869, 94.563
254.237, 197.774
255.605, 261.227
256.973, 134.999
258.340, 270.796
259.708, 214.569
261.075, 237.053
262.442, 148.813
263.808, 79.521
265.175, 119.604
266.541, 69.189
267.907, 58.364
269.273, 172.802
270.639, 654.301
272.004, 826.055
273.369, 1528.025
274.734, 2110.176
276.099, 2622.478
277.463, 2854.900
278.828, 2067.422
280.192, 1520.018
281.556, 922.670
282.919, 645.359
284.283, 278.073
285.646, 220.800
287.009, 163.530
288.372, 166.254
289.734, 298.964
291.097, 231.654
292.459, 374.318
293.821, 176.940
295.183, 389.512
296.544, 392.030
297.905, 404.493
299.266, 436.876
300.627, 329.163
301.988, 651.346
303.348, 863.428
304.709, 1385.409
306.069, 2097.291
307.428, 2229.076
308.788, 2350.764
310.147, 1422.358
311.507, 833.857
312.865, 535.265
314.224, 106.578
315.583, 147.782
316.941, 128.885
318.299, 419.883
319.657, 280.789
321.015, 411.601
322.372, 692.321
323.729, 822.952
325.086, 1283.508
326.443, 973.943
327.800, 714.091
329.156, 454.000
330.512, 313.802
331.868, 373.506
333.224, 153.110
334.579, 272.600
335.935, 301.983
337.290, 251.071
338.645, 319.773
339.999, 288.130
341.354, 396.121
342.708, 463.872
344.062, 641.404
345.416, 708.811
346.769, 696.146
348.123, 863.412
349.476, 820.607
350.829, 1127.731
352.182, 1164.844
353.534, 1671.884
354.887, 1938.893
356.239, 2385.854
357.591, 2812.739
358.942, 3069.564
360.294, 3936.314
361.645, 3412.990
362.996, 2719.602
364.347, 2466.140
365.698, 1742.617
367.048, 1389.020
368.398, 805.307
369.748, 531.498
371.098, 387.605
372.448, 213.631
373.797, 199.560
375.146, 15.391
376.495, 68.917
377.844, 86.593
379.192, 28.031
380.540, 27.189
381.889, 147.724
383.236, 42.807
384.584, 51.965
385.932, 113.385
387.279, 128.898
388.626, 64.578
389.973, 539.591
391.319, 93.682
392.666, 92.416
394.012, 99.141
395.358, 54.090
396.704, 87.266
398.049, 21.180
399.394, 129.096
400.740, 80.632
402.084, 123.185
403.429, 415.491
404.774, 357.541
406.118, 619.471
407.462, 811.205
408.806, 1052.761
410.150, 1394.163
411.493, 1395.438
412.836, 1836.639
414.179, 1904.984
415.522, 1778.924
416.865, 1796.014
418.207, 1589.014
419.549, 1540.176
420.891, 1292.680
422.233, 1109.308
423.575, 1093.413
424.916, 883.948
426.257, 1027.619
427.598, 1138.576
428.939, 1373.095
430.279, 1337.471
431.619, 1614.136
432.959, 2124.438
434.299, 2815.158
435.639, 3815.773
436.978, 5045.846
438.318, 7665.836
439.657, 11045.748
440.996, 14835.577
442.334, 18215.404
443.673, 17155.096
445.011, 14894.705
446.349, 10804.253
447.687, 7483.953
449.024, 5353.160
450.361, 3702.260
451.699, 2931.770
453.036, 2251.005
454.372, 1950.337
455.709, 1479.051
457.045, 1368.018
458.381, 1437.839
459.717, 1026.907
461.053, 1345.661
462.388, 1154.332
463.724, 1153.004
465.059, 1301.524
466.394, 1109.981
467.728, 1238.357
469.063, 1456.654
470.397, 1704.890
471.731, 1803.043
473.065, 1821.116
474.398, 2299.111
475.732, 2773.725
477.065, 3329.387
478.398, 3764.868
479.731, 4212.573
481.063, 4969.568
482.396, 5587.252
483.728, 5834.730
485.060, 5765.072
486.391, 5652.415
487.723, 5379.682
489.054, 4606.875
490.385, 4603.865
491.716, 3790.107
493.047, 3436.551
494.377, 3259.971
495.708, 2835.419
497.038, 2881.054
498.368, 2525.911
499.697, 2511.454
501.027, 2806.547
502.356, 2492.445
503.685, 2838.557
505.014, 2675.257
506.342, 2851.553
507.671, 3028.350
508.999, 3144.744
510.327, 3621.218
511.655, 3821.324
512.982, 4167.416
514.310, 4623.838
515.637, 4745.600
516.964, 5221.777
518.291, 5250.459
519.617, 5746.135
520.944, 6102.051
522.270, 6379.948
523.596, 7395.435
524.921, 7924.695
526.247, 10190.057
527.572, 12595.586
528.897, 16711.031
530.222, 22545.660
531.547, 28999.320
532.871, 36490.062
534.196, 39420.320
535.520, 38473.352
536.844, 33931.000
538.167, 25947.217
539.491, 20367.191
540.814, 14470.416
542.137, 10902.660
543.460, 8391.383
544.783, 6325.520
546.105, 5419.607
547.427, 4742.625
548.749, 3529.584
550.071, 2673.146
551.393, 2388.605
552.714, 2033.551
554.035, 1529.131
555.356, 1696.732
556.677, 1302.402
557.998, 1052.926
559.318, 1030.418
560.638, 806.209
561.958, 823.422
563.278, 865.957
564.597, 457.850
565.917, 601.418
567.236, 475.375
568.555, 569.303
569.874, 403.191
571.192, 797.047
572.511, 450.869
573.829, 214.713
575.147, 358.557
576.464, 342.430
577.782, 186.350
579.099, 200.275
580.416, 54.252
581.733, 358.254
583.050, 42.297
584.366, 1246.352
585.683, 580.404
586.999, 104.471
588.315, 338.533
589.630, 87.404
590.946, 247.008
592.261, 120.951
593.576, 124.877
594.891, 338.752
596.206, 232.600
597.520, 246.416
598.834, 230.205
600.148, 204.277
601.462, 523.396
602.776, 287.100
604.089, 535.178
605.402, 171.934
606.715, 355.555
608.028, 349.434
609.341, 155.543
610.653, 205.217
611.965, 171.904
613.277, 618.383
614.589, 311.957
615.901, 25.398
617.212, 166.787
618.523, 240.166
619.834, 233.521
621.145, 199.766
622.456, 293.072
623.766, 400.408
625.076, 923.668
626.386, 1057.273
627.696, 964.449
629.006, 397.641
630.315, 390.809
631.624, 233.957
632.933, 269.850
634.242, 192.971
635.551, 56.609
636.859, 189.893
638.167, 272.971
639.475, 126.037
640.783, 252.229
642.090, 24.748
643.398, 362.521
644.705, 365.482
646.012, 258.424
647.318, 473.764
648.625, 366.672
649.931, 709.566
651.237, 122.447
652.543, 345.324
653.849, 428.195
655.155, 261.055
656.460, 323.910
657.765, 236.756
659.070, 139.592
660.375, 132.418
661.679, 65.230
662.984, 198.027
664.288, 10.811
665.592, 83.574
666.895, 46.326
668.199, 210.939
669.502, 101.664
670.805, 155.744
672.108, 83.256
673.411, 31.814
674.713, 35.773
676.016, 196.598
677.318, 38.959
678.620, 28.689
679.921, 133.629
681.223, 54.062
682.524, 218.205
683.825, 40.463
685.126, 42.711
686.427, 264.953
687.727, 87.189
689.028, 609.428
690.328, 371.678
691.628, 543.945
692.927, 726.262
694.227, 568.646
695.526, 901.066
696.825, 763.547
698.124, 1116.074
699.423, 1028.697
700.721, 971.385
702.020, 1484.117
703.318, 1356.934
704.616, 1429.846
705.913, 1402.830
707.211, 1165.816
708.508, 1418.842
709.805, 1041.951
711.102, 1095.100
712.399, 1428.320
713.695, 961.578
714.992, 1084.898
716.288, 1038.248
717.584, 1421.637
718.879, 1425.057
720.175, 1458.484
721.470, 1811.926
722.765, 1675.371
724.060, 1828.820
725.355, 2212.271
726.649, 1955.725
727.944, 2529.186
729.238, 2202.648
730.532, 1785.859
731.825, 1789.332
733.119, 1242.807
734.412, 1325.947
735.705, 639.162
736.998, 781.674
738.291, 605.166
739.584, 277.627
740.876, 371.125
742.168, 274.631
743.460, 227.537
744.752, 161.051
746.043, 11.725
747.334, 261.795
748.626, 4.822
749.916, 117.883
751.207, 131.414
752.498, 54.953
753.788, 168.496
755.078, 7.951
756.368, 114.477
757.658, 29.037
758.947, 97.441
760.237, 73.953
761.526, 69.293
762.815, 7.232
764.104, 63.754
765.392, 130.559
766.680, 77.213
767.969, 74.029
769.257, 0.650
770.544, 192.734
771.832, 164.811
773.119, 58.291
774.406, 281.635
775.693, 75.012
776.980, 108.254
778.267, 98.398
779.553, 114.926
780.839, 11.740
782.125, 98.400
783.411, 154.916
784.697, 18.246
785.982, 181.586
787.267, 75.061
788.552, 148.277
789.837, 18.396
791.122, 5.621
792.406, 67.732
793.690, 71.113
794.974, 85.750
796.258, 247.631
797.542, 111.914
798.825, 271.455
800.108, 164.838
801.391, 71.766
802.674, 231.625
803.957, 135.029
805.239, 8.449
806.522, 71.682
807.804, 35.131
809.085, 248.596
810.367, 142.074
811.649, 215.570
812.930, 209.082
814.211, 262.555
815.492, 436.027
816.772, 329.246
818.053, 412.824
819.333, 345.854
820.613, 219.238
821.893, 302.496
823.173, 232.078
824.452, 105.627
825.732, 418.801
827.011, 93.406
828.290, 619.910
829.568, 310.678
830.847, 74.408
832.125, 377.855
833.403, 709.281
834.681, 293.092
835.959, 443.088
837.236, 176.941
838.514, 400.621
839.791, 74.348
841.068, 558.301
842.345, 372.277
843.621, 386.277
844.898, 630.316
846.174, 394.383
847.450, 408.512
848.726, 632.664
850.001, 286.840
851.277, 611.066
852.552, 565.318
853.827, 539.594
855.102, 813.914
856.376, 388.252
857.651, 672.615
858.925, 927.004
860.199, 721.414
861.473, 1075.846
862.746, 840.316
864.020, 754.809
865.293, 899.357
866.566, 673.924
867.839, 748.545
869.112, 723.195
870.384, 577.869
871.656, 682.588
872.928, 517.322
874.200, 652.080
875.472, 146.867
876.744, 761.676
878.015, 426.514
879.286, 281.424
880.557, 586.354
881.828, 501.312
883.098, 166.295
884.369, 411.297
885.639, 496.328
886.909, 451.383
888.178, 266.461
889.448, 331.566
890.717, 416.693
891.987, 251.842
893.256, 407.021
894.524, 362.219
895.793, 127.443
897.061, 662.691
898.330, 413.777
899.598, 726.648
900.865, 903.502
902.133, 951.248
903.401, 483.139
904.668, 681.209
905.935, 612.334
907.202, 532.537
908.468, 824.115
909.735, 425.752
911.001, 711.797
912.267, 722.416
913.533, 858.400
914.799, 728.889
916.064, 682.076
917.330, 674.391
918.595, 283.973
919.860, 506.541
921.124, 339.309
922.389, 354.988
923.653, 600.799
924.918, 358.654
926.182, 434.514
927.445, 510.395
928.709, 273.383
929.972, 919.342
931.236, 351.264
932.499, 547.266
933.761, 722.918
935.024, 294.998
936.286, 671.064
937.549, 297.148
938.811, 753.258
940.073, 786.617
941.334, 632.766
942.596, 658.406
943.857, 514.414
945.118, 600.623
946.379, 496.854
947.640, 559.955
948.900, 606.221
950.161, 698.232
951.421, 564.553
952.681, 790.893
953.940, 564.832
955.200, 671.207
956.459, 897.607
957.719, 604.023
958.978, 770.459
960.236, 736.912
961.495, 1023.381
962.753, 959.867
964.012, 1106.367
965.270, 1142.881
966.527, 1069.412
967.785, 995.959
969.043, 1352.518
970.300, 989.102
971.557, 1275.816
972.814, 1642.430
974.071, 1549.057
975.327, 2785.754
976.583, 2292.459
977.840, 2419.217
979.095, 2743.383
980.351, 1660.223
981.607, 1697.105
982.862, 1444.016
984.117, 1110.957
985.372, 1462.184
986.627, 819.191
987.882, 1106.246
989.136, 1260.455
990.390, 1028.018
991.644, 1445.832
992.898, 1143.113
994.152, 1450.303
995.405, 1522.139
996.659, 1489.562
997.912, 1716.729
999.165, 1714.242
1000.417, 1901.803
1001.670, 2456.307
1002.922, 2593.920
1004.174, 2952.211
1005.426, 2344.688
1006.678, 2052.139
1007.930, 2610.227
1009.181, 2318.914
1010.432, 2656.436
1011.683, 2594.576
1012.934, 2096.162
1014.185, 2173.852
1015.435, 1970.164
1016.685, 1767.809
1017.935, 2162.578
1019.185, 1883.125
1020.435, 1900.998
1021.684, 2074.398
1022.934, 1852.162
1024.183, 2150.254
1025.432, 2060.516
1026.680, 2318.350
1027.929, 2407.791
1029.177, 2538.486
1030.425, 2856.389
1031.673, 3236.355
1032.921, 4184.641
1034.169, 5622.611
1035.416, 6402.959
1036.663, 9221.000
1037.911, 12709.676
1039.157, 15278.062
1040.404, 17966.150
1041.650, 16134.418
1042.897, 13243.305
1044.143, 10161.467
1045.389, 7230.402
1046.634, 5438.688
1047.880, 4433.002
1049.125, 3451.719
1050.371, 3180.191
1051.615, 2580.479
1052.860, 2428.838
1054.105, 2207.496
1055.349, 1878.262
1056.593, 1636.646
1057.837, 1535.057
1059.081, 1693.527
1060.325, 1611.936
1061.568, 1631.105
1062.812, 1529.721
1064.055, 1528.100
1065.298, 1526.406
1066.540, 1604.670
1067.783, 1072.959
1069.025, 1281.359
1070.267, 1409.660
1071.509, 1338.139
1072.751, 1406.842
1073.993, 1344.973
1075.234, 1313.078
1076.475, 1831.152
1077.716, 1499.213
1078.957, 1734.346
1080.198, 2042.219
1081.438, 2000.307
1082.679, 2418.145
1083.919, 2205.973
1085.159, 2273.793
1086.398, 2111.738
1087.638, 1799.418
1088.877, 1717.061
1090.116, 1714.658
1091.355, 1192.176
1092.594, 1429.660
1093.833, 1037.105
1095.071, 724.488
1096.309, 1001.830
1097.547, 599.146
1098.785, 1146.414
1100.023, 553.639
1101.260, 680.820
1102.498, 777.957
1103.735, 164.867
1104.972, 713.602
1106.208, 810.396
1107.445, 317.127
1108.681, 514.461
1109.918, 461.078
1111.154, 647.637
1112.389, 484.156
1113.625, 320.586
1114.860, 557.141
1116.096, 323.340
1117.331, 229.477
1118.566, 688.039
1119.800, 84.088
1121.035, 559.916
1122.269, 915.664
1123.503, 690.803
1124.737, 645.594
1125.971, 799.850
1127.205, 319.453
1128.438, 219.113
1129.671, 178.820
1130.904, 258.525
1132.137, 338.244
1133.370, 72.039
1134.602, 527.717
1135.834, 357.471
1137.066, 112.832
1138.298, 56.867
1139.530, 16.566
1140.762, 146.244
1141.993, 455.949
1143.224, 64.318
1144.455, 145.404
1145.686, 144.924
1146.917, 144.691
1148.147, 144.293
1149.377, 96.107
1150.607, 153.494
1151.837, 33.041
1153.067, 57.461
1154.296, 472.045
1155.526, 81.549
1156.755, 21.066
1157.984, 340.607
1159.213, 100.158
1160.441, 30.277
1161.670, 229.236
1162.898, 101.248
1164.126, 318.271
1165.354, 72.223
1166.581, 2.701
1167.809, 236.832
1169.036, 43.625
1170.263, 295.936
1171.490, 215.514
1172.717, 15.113
1173.943, 484.723
1175.170, 54.359
1176.396, 146.016
1177.622, 413.592
1178.848, 43.230
1180.073, 242.902
1181.299, 442.611
1182.524, 42.369
1183.749, 332.174
1184.974, 192.027
1186.199, 271.945
1187.423, 821.922
1188.648, 321.971
1189.872, 192.068
1191.096, 502.248
1192.320, 202.514
1193.543, 362.881
1194.767, 6.645
1195.990, 283.928
1197.213, 354.389
1198.436, 115.217
1199.659, 406.229
1200.881, 347.314
1202.104, 108.430
1203.326, 810.586
1204.548, 471.598
1205.770, 396.006
1206.991, 564.984
1208.213, 245.209
1209.434, 342.383
1210.655, 411.396
1211.876, 443.619
1213.096, 578.662
1214.317, 586.482
1215.537, 392.729
1216.757, 609.822
1217.977, 335.104
1219.197, 253.861
1220.417, 633.107
1221.636, 374.205
1222.855, 602.910
1224.074, 564.586
1225.293, 49.053
1226.512, 528.223
1227.731, 284.854
1228.949, 616.404
1230.167, 468.598
1231.385, 578.188
1232.603, 307.646
1233.820, 635.855
1235.038, 433.516
1236.255, 414.762
1237.472, 551.754
1238.689, 608.816
1239.906, 864.996
1241.122, 696.408
1242.338, 662.240
1243.555, 448.002
1244.771, 402.527
1245.986, 653.596
1247.202, 318.928
1248.417, 354.006
1249.633, 713.725
1250.848, 15.586
1252.063, 547.914
1253.277, 238.773
1254.492, 100.799
1255.706, 652.982
1256.920, 414.609
1258.134, 215.609
1259.348, 245.949
1260.562, 165.348
1261.775, 452.400
1262.988, 482.678
1264.201, 9.826
1265.414, 156.041
1266.627, 235.156
1267.839, 190.541
1269.052, 150.328
1270.264, 25.383
1271.476, 0.000
##END=



