##NAMES=Natrolite
##RRUFFID=R060561
##IDEAL CHEMISTRY=Na_2_(Si_3_Al_2_)O_10_&#183;2H_2_O
##LOCALITY=California, USA
##OWNER=RRUFF
##SOURCE=Gemological Institute of America
##DESCRIPTION=White fragment
##STATUS=The identification of this mineral has been confirmed by X-ray diffraction and chemical analysis
##URL=rruff.info/R060561
##MEASURED CHEMISTRY=Na_2.00_(Si_3.00_Al_2.00_)O_10_Â·2H_2_O
##PIN_ID=L00681
##ORIENTATION=Laser parallel to a* (1 0 0). Fiducial mark perpendicular to laser is parallel to -b [0 -1 0]
90.94300, 0.0000000E+00
92.17800, 65.17395
93.41300, 176.9485
94.64800, 239.9431
95.88300, 324.3020
97.11800, 409.6633
98.35200, 255.0016
99.58700, 90.96985
100.8210, 1.959595
102.0550, 86.67578
103.2890, 118.0222
104.5220, 64.80762
105.7560, 151.2258
106.9890, 368.4172
108.2230, 692.1826
109.4560, 1111.467
110.6890, 1508.449
111.9210, 2125.081
113.1540, 2656.526
114.3870, 3265.434
115.6190, 3752.491
116.8510, 4203.413
118.0830, 4809.950
119.3150, 5837.876
120.5470, 7010.994
121.7780, 8129.126
123.0100, 8492.111
124.2410, 8276.808
125.4720, 7789.087
126.7030, 7418.833
127.9340, 7357.949
129.1640, 7475.319
130.3950, 7873.795
131.6250, 8422.251
132.8550, 8932.591
134.0850, 9708.724
135.3150, 10579.54
136.5450, 11438.96
137.7750, 12096.91
139.0040, 12918.31
140.2330, 13906.12
141.4620, 15114.27
142.6910, 16323.72
143.9200, 17420.43
145.1490, 18190.37
146.3770, 18216.50
147.6060, 17606.78
148.8340, 16774.20
150.0620, 15837.71
151.2900, 15293.30
152.5170, 14850.95
153.7450, 15142.64
154.9720, 15458.34
156.2000, 16464.03
157.4270, 17565.71
158.6540, 19197.33
159.8810, 21231.91
161.1070, 23151.42
162.3340, 25905.84
163.5600, 27606.32
164.7860, 28590.86
166.0120, 28424.75
167.2380, 26641.11
168.4640, 24536.97
169.6890, 22413.26
170.9150, 20343.95
172.1400, 18881.26
173.3650, 18101.32
174.5900, 17169.89
175.8150, 16237.89
177.0400, 15183.22
178.2640, 14295.91
179.4880, 13363.97
180.7130, 13008.41
181.9370, 12663.25
183.1600, 12714.50
184.3840, 13056.17
185.6080, 13402.27
186.8310, 13414.81
188.0540, 13363.80
189.2770, 12863.23
190.5000, 12237.12
191.7230, 11445.46
192.9460, 10975.26
194.1680, 10520.52
195.3910, 10479.25
196.6130, 10406.44
197.8350, 10691.10
199.0570, 11069.22
200.2780, 11320.81
201.5000, 11987.86
202.7210, 12594.37
203.9420, 13019.35
205.1640, 13436.78
206.3840, 13982.67
207.6050, 14475.02
208.8260, 14735.82
210.0460, 14109.10
211.2670, 13547.86
212.4870, 12792.08
213.7070, 11470.75
214.9270, 10563.88
216.1460, 9597.448
217.3660, 8904.476
218.5850, 8279.948
219.8050, 7963.868
221.0240, 7172.234
222.2430, 6883.049
223.4610, 6528.308
224.6800, 6017.008
225.8980, 5786.151
227.1170, 5595.732
228.3350, 5473.752
229.5530, 5377.207
230.7710, 5455.097
231.9880, 5572.416
233.2060, 5708.166
234.4230, 6124.299
235.6400, 6175.059
236.8570, 6356.059
238.0740, 6861.580
239.2910, 7350.032
240.5080, 7735.939
241.7240, 8042.830
242.9400, 7732.164
244.1570, 7564.500
245.3730, 6507.848
246.5880, 5944.266
247.8040, 5279.244
249.0190, 4593.107
250.2350, 4228.393
251.4500, 4045.554
252.6650, 3664.642
253.8800, 3873.685
255.0950, 3765.948
256.3090, 3541.819
257.5240, 3724.292
258.7380, 3617.059
259.9520, 3756.803
261.1660, 3940.310
262.3800, 3940.428
263.5930, 4091.092
264.8070, 4232.312
266.0200, 4404.068
267.2330, 4528.430
268.4460, 4673.291
269.6590, 4794.428
270.8720, 4818.203
272.0850, 4790.281
273.2970, 4762.161
274.5090, 4597.322
275.7210, 4341.926
276.9330, 4206.964
278.1450, 3648.424
279.3570, 3723.301
280.5680, 3126.586
281.7790, 2960.271
282.9910, 2861.350
284.2020, 2664.818
285.4120, 2635.217
286.6230, 2821.891
287.8340, 2643.486
289.0440, 2689.445
290.2540, 2865.766
291.4640, 2715.465
292.6740, 2703.516
293.8840, 2898.914
295.0940, 3168.654
296.3030, 3287.744
297.5120, 3707.170
298.7210, 3978.930
299.9300, 4554.014
301.1390, 4930.328
302.3480, 5449.771
303.5560, 5852.172
304.7650, 6280.512
305.9730, 6775.154
307.1810, 6653.094
308.3890, 6506.334
309.5970, 5650.871
310.8040, 4467.691
312.0120, 3754.799
313.2190, 2743.193
314.4260, 2413.871
315.6330, 1960.830
316.8400, 1783.074
318.0460, 1595.365
319.2530, 1632.395
320.4590, 1486.469
321.6650, 1556.816
322.8710, 1683.438
324.0770, 1651.354
325.2830, 1575.541
326.4880, 1817.385
327.6940, 1781.158
328.8990, 1917.740
330.1040, 1975.916
331.3090, 1901.559
332.5140, 1874.533
333.7180, 2001.779
334.9230, 1773.350
336.1270, 1705.229
337.3310, 1238.434
338.5350, 1189.914
339.7390, 1168.664
340.9430, 1120.711
342.1460, 915.0176
343.3500, 919.6016
344.5530, 1088.453
345.7560, 941.5762
346.9590, 1262.027
348.1620, 1065.742
349.3640, 1268.770
350.5670, 1214.055
351.7690, 1553.611
352.9710, 1854.418
354.1730, 1884.484
355.3750, 1972.848
356.5760, 2324.465
357.7780, 2666.350
358.9790, 2254.473
360.1800, 2750.869
361.3810, 2648.561
362.5820, 2810.492
363.7830, 2621.479
364.9830, 1848.092
366.1840, 2027.779
367.3840, 1134.697
368.5840, 808.8535
369.7840, 452.2461
370.9840, 252.8535
372.1830, 218.6758
373.3830, 33.71875
374.5820, 128.0078
375.7810, 47.46094
376.9800, 180.8594
378.1790, 208.9922
379.3780, 167.9668
380.5760, 212.8145
381.7750, 134.5410
382.9730, 278.0020
384.1710, 179.2480
385.3690, 332.2500
386.5660, 507.0547
387.7640, 359.7109
388.9610, 323.1758
390.1590, 416.4355
391.3560, 293.5234
392.5530, 315.3984
393.7500, 465.0645
394.9460, 425.5762
396.1430, 420.9395
397.3390, 472.1699
398.5350, 382.2852
399.7310, 188.2598
400.9270, 93.03320
402.1230, 172.5840
403.3180, 18.93555
404.5140, 33.94727
405.7090, 22.07422
406.9040, 192.4434
408.0990, 259.0215
409.2930, 443.8984
410.4880, 482.9844
411.6820, 665.3047
412.8770, 737.8535
414.0710, 712.6367
415.2650, 1056.645
416.4590, 840.8828
417.6520, 1060.342
418.8460, 1210.025
420.0390, 1466.930
421.2320, 1816.049
422.4250, 2273.387
423.6180, 2822.941
424.8110, 3493.705
426.0030, 4374.686
427.1960, 5355.873
428.3880, 6489.270
429.5800, 7588.875
430.7720, 9059.684
431.9640, 10477.70
433.1550, 12082.91
434.3470, 13238.83
435.5380, 14442.44
436.7290, 15175.07
437.9200, 15565.07
439.1110, 15738.22
440.3020, 15871.87
441.4920, 16133.18
442.6820, 16224.95
443.8730, 17075.16
445.0630, 17714.31
446.2530, 17891.64
447.4420, 17597.16
448.6320, 17054.85
449.8210, 15172.73
451.0100, 12775.79
452.2000, 10487.42
453.3880, 7980.836
454.5770, 6231.430
455.7660, 4392.193
456.9540, 3314.133
458.1430, 2627.246
459.3310, 2337.529
460.5190, 1164.980
461.7070, 899.6016
462.8940, 798.3887
464.0820, 604.3457
465.2690, 512.4883
466.4560, 309.6602
467.6430, 120.1172
468.8300, 26.55859
470.0170, 167.1777
471.2040, 23.03906
472.3900, 48.63477
473.5760, 453.7344
474.7620, 295.9609
475.9480, 323.8809
477.1340, 314.1777
478.3200, 611.1680
479.5050, 768.6914
480.6900, 864.1484
481.8750, 965.0020
483.0600, 1266.312
484.2450, 1635.406
485.4300, 1836.521
486.6140, 2111.160
487.7990, 2524.594
488.9830, 2683.502
490.1670, 3097.051
491.3510, 3539.049
492.5350, 3924.076
493.7180, 3890.926
494.9020, 3861.680
496.0850, 3861.154
497.2680, 3710.090
498.4510, 3569.914
499.6340, 3368.521
500.8160, 3246.342
501.9990, 3051.117
503.1810, 3042.934
504.3630, 3032.285
505.5450, 3097.523
506.7270, 2773.211
507.9090, 2891.072
509.0900, 3104.564
510.2720, 3080.576
511.4530, 3402.375
512.6340, 3735.812
513.8150, 3842.441
514.9950, 3951.484
516.1760, 4484.086
517.3560, 4701.027
518.5370, 5576.363
519.7170, 6139.580
520.8970, 7159.514
522.0770, 8236.082
523.2560, 9814.109
524.4360, 11660.76
525.6150, 13752.22
526.7940, 16276.34
527.9730, 18918.14
529.1520, 21971.57
530.3310, 25604.69
531.5090, 28693.85
532.6870, 30818.68
533.8660, 31795.99
535.0440, 30391.91
536.2210, 27379.70
537.3990, 23338.08
538.5770, 18850.64
539.7540, 15172.10
540.9310, 11655.15
542.1080, 9401.383
543.2850, 7299.768
544.4620, 6042.600
545.6390, 4834.168
546.8150, 3834.656
547.9920, 3086.713
549.1680, 2926.828
550.3440, 2125.533
551.5190, 1983.309
552.6950, 2044.150
553.8710, 1605.059
555.0460, 1307.031
556.2210, 1554.066
557.3960, 1077.254
558.5710, 905.3203
559.7460, 723.5410
560.9200, 400.8223
562.0950, 534.1562
563.2690, 448.5508
564.4430, 331.0000
565.6170, 537.5020
566.7910, 259.0547
567.9640, 226.6582
569.1380, 319.3145
570.3110, 321.0156
571.4840, 162.7676
572.6570, 190.5625
573.8300, 171.4043
575.0030, 34.71094
576.1750, 310.1621
577.3470, 93.07812
578.5200, 259.0254
579.6920, 23.01367
580.8630, 135.0098
582.0350, 61.03516
583.2070, 190.0840
584.3780, 143.1680
585.5490, 197.2793
586.7200, 458.4238
587.8910, 260.5938
589.0620, 458.8027
590.2330, 515.0410
591.4030, 350.3086
592.5730, 149.6055
593.7430, 319.9219
594.9130, 389.2656
596.0830, 534.6289
597.2530, 591.0137
598.4220, 427.4219
599.5920, 642.8496
600.7610, 667.3066
601.9300, 574.7812
603.0990, 273.2715
604.2670, 385.7773
605.4360, 218.3027
606.6040, 13.87500
607.7720, 232.4746
608.9400, 74.01367
610.1080, 159.0742
611.2760, 105.9395
612.4440, 182.8789
613.6110, 126.5137
614.7780, 179.6543
615.9450, 95.39258
617.1120, 154.4473
618.2790, 89.59570
619.4460, 187.4707
620.6120, 73.09375
621.7780, 67.81250
622.9450, 61.75391
624.1110, 107.0859
625.2760, 24.64062
626.4420, 40.72266
627.6080, 26.07422
628.7730, 212.9355
629.9380, 32.02344
631.1030, 155.5938
632.2680, 55.24805
633.4330, 3.591797
634.5970, 119.5215
635.7620, 38.04492
636.9260, 122.7949
638.0900, 53.66406
639.2540, 13.30469
640.4180, 155.5645
641.5810, 43.21680
642.7450, 142.9629
643.9080, 113.4180
645.0710, 222.6172
646.2340, 114.1250
647.3970, 47.03711
648.5590, 135.1699
649.7220, 55.75391
650.8840, 94.84570
652.0460, 273.0879
653.2080, 268.5566
654.3700, 187.1035
655.5320, 61.09375
656.6930, 283.1074
657.8550, 193.1836
659.0160, 233.8711
660.1770, 374.6758
661.3380, 325.9004
662.4990, 367.0098
663.6590, 130.1133
664.8200, 334.6230
665.9800, 578.0918
667.1400, 377.7773
668.3000, 253.5840
669.4600, 341.1406
670.6190, 541.9102
671.7790, 366.1445
672.9380, 505.1543
674.0970, 343.4062
675.2560, 762.1367
676.4150, 430.9453
677.5740, 666.6426
678.7320, 694.2949
679.8900, 610.4199
681.0490, 648.8867
682.2070, 667.6191
683.3640, 715.7656
684.5220, 785.5410
685.6800, 832.4531
686.8370, 1040.082
687.9940, 1224.299
689.1510, 1352.736
690.3080, 1307.404
691.4650, 1577.816
692.6220, 1592.100
693.7780, 1788.381
694.9340, 1948.691
696.0900, 2175.816
697.2460, 2378.080
698.4020, 2624.170
699.5580, 2778.955
700.7130, 2987.861
701.8680, 3099.977
703.0240, 3339.422
704.1790, 3411.160
705.3330, 3355.840
706.4880, 3467.520
707.6430, 3422.250
708.7970, 3141.041
709.9510, 3212.770
711.1050, 2775.156
712.2590, 2589.566
713.4130, 2590.834
714.5660, 2298.543
715.7200, 2347.652
716.8730, 2304.918
718.0260, 2364.941
719.1790, 2421.562
720.3320, 2330.141
721.4840, 2497.301
722.6370, 2657.639
723.7890, 2526.102
724.9410, 2743.803
726.0930, 2396.389
727.2450, 2484.885
728.3960, 2661.059
729.5480, 2453.990
730.6990, 2245.004
731.8500, 2005.160
733.0010, 1819.461
734.1520, 1647.592
735.3030, 1334.027
736.4530, 1239.258
737.6040, 1126.738
738.7540, 814.2793
739.9040, 843.9551
741.0540, 842.6855
742.2030, 701.3457
743.3530, 616.3320
744.5020, 418.9902
745.6520, 327.5566
746.8010, 633.9160
747.9490, 595.3848
749.0980, 481.7578
750.2470, 406.9766
751.3950, 409.3691
752.5440, 351.9824
753.6920, 405.0664
754.8400, 617.5312
755.9870, 301.7031
757.1350, 471.2773
758.2820, 380.8613
759.4300, 198.2266
760.5770, 285.1309
761.7240, 320.5840
762.8710, 129.4141
764.0170, 288.5879
765.1640, 259.4961
766.3100, 388.3750
767.4560, 354.9121
768.6020, 208.2715
769.7480, 225.9902
770.8940, 77.40234
772.0400, 156.0801
773.1850, 150.4355
774.3300, 103.9375
775.4750, 200.1387
776.6200, 24.58203
777.7650, 353.6328
778.9090, 1.601563
780.0540, 100.4785
781.1980, 2.679688
782.3420, 229.6562
783.4860, 130.1484
784.6300, 55.10938
785.7740, 77.94141
786.9170, 141.9785
788.0600, 170.7070
789.2030, 262.6660
790.3460, 140.1660
791.4890, 228.0801
792.6320, 5.166016
793.7740, 277.6035
794.9170, 146.8359
796.0590, 176.6074
797.2010, 299.9785
798.3430, 122.6836
799.4850, 24.95508
800.6260, 41.42383
801.7670, 391.2227
802.9090, 3.349609
804.0500, 302.6191
805.1910, 74.87109
806.3310, 339.6816
807.4720, 289.4199
808.6120, 53.44531
809.7530, 64.21094
810.8930, 7.080078
812.0330, 78.44141
813.1720, 138.1465
814.3120, 152.7852
815.4510, 395.3574
816.5910, 117.8730
817.7300, 97.31836
818.8690, 318.6934
820.0080, 5.011719
821.1460, 72.24023
822.2850, 248.3945
823.4230, 303.4883
824.5610, 177.5254
825.6990, 500.5020
826.8370, 254.4238
827.9750, 301.2871
829.1120, 627.0938
830.2500, 304.8457
831.3870, 283.5430
832.5240, 370.1855
833.6610, 298.7754
834.7980, 259.3086
835.9340, 153.7852
837.0700, 308.1992
838.2070, 196.5625
839.3430, 191.8711
840.4790, 390.1211
841.6140, 405.3203
842.7500, 282.4688
843.8850, 254.5625
845.0210, 224.6055
846.1560, 222.6602
847.2910, 331.5234
848.4260, 266.4062
849.5600, 302.2383
850.6950, 280.0234
851.8290, 124.7812
852.9630, 349.4766
854.0970, 289.1328
855.2310, 163.7383
856.3650, 426.3047
857.4980, 109.8281
858.6310, 157.3008
859.7650, 278.7188
860.8980, 248.0938
862.0310, 284.4219
863.1630, 107.7031
864.2960, 132.9258
865.4280, 153.0977
866.5600, 134.2188
867.6920, 180.6133
868.8240, 218.3164
869.9560, 244.2930
871.0880, 166.2344
872.2190, 181.1367
873.3500, 142.0000
874.4810, 32.80469
875.6120, 99.56250
876.7430, 251.2656
877.8740, 238.9219
879.0040, 34.53906
880.1340, 322.1016
881.2650, 313.5898
882.3950, 534.0000
883.5240, 536.4648
884.6540, 260.9336
885.7830, 206.9375
886.9130, 84.28516
888.0420, 123.6094
889.1710, 254.4414
890.3000, 212.9805
891.4280, 226.3633
892.5570, 176.9531
893.6850, 58.81641
894.8130, 51.14453
895.9420, 330.3125
897.0690, 48.95703
898.1970, 160.2734
899.3250, 61.26562
900.4520, 87.58984
901.5790, 119.5156
902.7060, 178.9297
903.8330, 235.6562
904.9600, 86.88672
906.0870, 124.5547
907.2130, 167.8320
908.3390, 9.085938
909.4650, 46.86719
910.5910, 97.05859
911.7170, 276.5898
912.8430, 65.62109
913.9680, 294.7344
915.0930, 64.46094
916.2180, 137.0586
917.3430, 101.4414
918.4680, 153.9531
919.5930, 10.65234
920.7170, 122.7227
921.8420, 43.94531
922.9660, 17.13281
924.0900, 79.89453
925.2140, 206.8867
926.3370, 6.199219
927.4610, 27.64453
928.5840, 227.4062
929.7070, 93.35938
930.8310, 109.2031
931.9530, 92.37891
933.0760, 358.4023
934.1990, 140.9766
935.3210, 169.6367
936.4430, 148.2891
937.5650, 69.52344
938.6870, 214.6758
939.8090, 18.63281
940.9310, 38.46094
942.0520, 197.5547
943.1730, 84.42969
944.2940, 219.8359
945.4150, 349.4648
946.5360, 288.8438
947.6570, 300.7305
948.7770, 443.5547
949.8970, 153.4961
951.0180, 327.5039
952.1370, 431.0508
953.2570, 427.2578
954.3770, 743.1719
955.4960, 690.6211
956.6160, 903.4180
957.7350, 1006.023
958.8540, 1442.852
959.9730, 1462.035
961.0910, 1940.941
962.2100, 2116.555
963.3280, 2778.359
964.4460, 3121.234
965.5640, 3649.055
966.6820, 3877.781
967.8000, 4175.633
968.9180, 4153.426
970.0350, 3860.055
971.1520, 3516.062
972.2690, 2894.887
973.3860, 2199.254
974.5030, 1743.602
975.6190, 1775.410
976.7360, 1135.211
977.8520, 1068.949
978.9680, 680.5703
980.0840, 944.0703
981.2000, 988.5664
982.3160, 945.3438
983.4310, 839.0391
984.5460, 874.8047
985.6610, 748.5625
986.7760, 953.3633
987.8910, 1160.133
989.0060, 1128.902
990.1200, 1298.133
991.2350, 1452.898
992.3490, 1268.605
993.4630, 1495.828
994.5760, 1741.621
995.6900, 1703.352
996.8040, 1915.137
997.9170, 1820.426
999.0300, 1822.012
1000.143, 1543.258
1001.256, 1639.355
1002.369, 1367.859
1003.481, 1079.543
1004.594, 1005.285
1005.706, 911.7656
1006.818, 951.3203
1007.930, 1088.562
1009.042, 1148.680
1010.153, 1334.594
1011.264, 1031.395
1012.376, 991.1953
1013.487, 1138.445
1014.598, 1530.660
1015.708, 1827.480
1016.819, 1885.305
1017.929, 2092.141
1019.040, 2833.977
1020.150, 3647.824
1021.260, 4212.844
1022.370, 5219.223
1023.479, 6406.098
1024.589, 7537.977
1025.698, 8627.859
1026.807, 8645.734
1027.916, 9877.156
1029.025, 7483.555
1030.133, 6344.426
1031.242, 4961.430
1032.350, 3948.352
1033.458, 3312.984
1034.566, 2499.438
1035.674, 2695.195
1036.782, 2243.191
1037.890, 2220.199
1038.997, 1959.773
1040.104, 1834.699
1041.211, 1801.906
1042.318, 1775.984
1043.425, 1847.207
1044.531, 1952.727
1045.638, 2230.980
1046.744, 2445.754
1047.850, 2401.598
1048.956, 2703.734
1050.061, 2632.836
1051.167, 2738.336
1052.272, 2806.766
1053.378, 2763.332
1054.483, 2497.789
1055.588, 2405.699
1056.692, 2040.984
1057.797, 2160.641
1058.901, 2054.953
1060.006, 2101.875
1061.110, 1887.367
1062.214, 1742.941
1063.318, 1776.520
1064.421, 1901.113
1065.525, 1998.711
1066.628, 2355.320
1067.731, 2374.938
1068.834, 2565.539
1069.937, 2602.227
1071.040, 2793.848
1072.142, 2827.555
1073.244, 2613.230
1074.347, 2698.961
1075.449, 2335.703
1076.550, 2203.453
1077.652, 2435.215
1078.754, 2136.996
1079.855, 2133.801
1080.956, 2449.625
1082.057, 2362.453
1083.158, 2125.270
1084.259, 2381.117
1085.359, 2504.977
1086.460, 2931.855
1087.560, 2954.730
1088.660, 3270.672
1089.760, 3018.637
1090.860, 3232.602
1091.959, 3356.582
1093.059, 2981.586
1094.158, 2871.594
1095.257, 2705.613
1096.356, 2232.641
1097.455, 2044.672
1098.553, 1677.715
1099.652, 1433.453
1100.750, 1139.504
1101.848, 1162.562
1102.946, 1096.629
1104.044, 898.7109
1105.141, 799.7891
1106.239, 802.8828
1107.336, 774.9805
1108.433, 633.0898
1109.530, 590.2031
1110.627, 542.3594
1111.724, 337.4492
1112.820, 443.5859
1113.917, 363.7305
1115.013, 258.8789
1116.109, 429.0352
1117.205, 467.1953
1118.300, 655.3672
1119.396, 398.5430
1120.491, 536.7344
1121.586, 618.9414
1122.681, 515.1484
1123.776, 732.3516
1124.871, 433.8203
1125.965, 388.0508
1127.060, 433.2852
1128.154, 535.5273
1129.248, 283.7734
1130.342, 276.0352
1131.436, 128.3047
1132.529, 373.5781
1133.623, 222.0781
1134.716, 318.3711
1135.809, 34.33203
1136.902, 85.03516
1137.995, 91.24219
1139.087, 162.5195
1140.180, 177.8125
1141.272, 306.1094
1142.364, 209.5625
1143.456, 133.9062
1144.548, 337.2578
1145.639, 14.38672
1146.731, 32.97656
1147.822, 294.3438
1148.913, 14.38281
1150.004, 127.7578
1151.095, 298.1406
1152.186, 327.5312
1153.276, 57.92578
1154.366, 227.3320
1155.457, 105.7422
1156.546, 70.16016
1157.636, 31.57812
1158.726, 247.0000
1159.815, 66.55469
1160.905, 186.1133
1161.994, 140.2539
1163.083, 124.6328
1164.172, 208.0234
1165.261, 119.4336
1166.349, 117.8438
1167.437, 80.27734
1168.526, 95.12891
1169.614, 111.5742
1170.702, 44.30469
1171.789, 76.66797
1172.877, 13.64062
1173.964, 78.73828
1175.051, 9.792969
1176.138, 54.40234
1177.225, 49.94141
1178.312, 62.50000
1179.399, 223.9062
1180.485, 96.68359
1181.571, 36.32422
1182.657, 325.0195
1183.743, 83.35547
1184.829, 22.70312
1185.915, 34.19531
1187.000, 44.58594
1188.085, 22.50391
1189.171, 45.73047
1190.255, 170.6406
1191.340, 160.0156
1192.425, 267.3984
1193.509, 391.7773
1194.594, 355.2109
1195.678, 74.54297
1196.762, 259.9219
1197.846, 190.3008
1198.929, 27.32031
1200.013, 291.0391
1201.096, 115.3984
1202.179, 105.7695
1203.262, 314.1406
1204.345, 241.5078
1205.428, 457.9922
1206.510, 287.3555
1207.593, 193.7227
1208.675, 217.0820
1209.757, 137.4453
1210.839, 64.80469
1211.920, 158.1641
1213.002, 22.47656
1214.083, 133.8594
1215.164, 122.1914
1216.245, 377.5273
1217.326, 405.8594
1218.407, 434.9375
1219.488, 242.3828
1220.568, 467.7031
1221.648, 342.4062
1222.728, 442.5586
1223.808, 389.8789
1224.888, 300.4180
1225.967, 204.7266
1227.047, 335.0312
1228.126, 185.3359
1229.205, 12.63672
1230.284, 395.9219
1231.363, 403.2070
1232.441, 464.4844
1233.520, 78.76562
1234.598, 143.2109
1235.676, 104.1602
1236.754, 109.5742
1237.832, 80.83984
1238.910, 350.0938
1239.987, 213.3477
1241.064, 224.6016
1242.141, 391.8477
1243.218, 243.0859
1244.295, 341.3242
1245.372, 173.5547
1246.448, 281.7852
1247.525, 429.0078
1248.601, 19.76953
1249.677, 232.4180
1250.753, 65.60156
1251.828, 506.7930
1252.904, 289.9766
1253.979, 69.83984
1255.054, 261.2812
1256.129, 370.3984
1257.204, 368.5117
1258.279, 164.6211
1259.353, 377.7188
1260.428, 151.8164
1261.502, 425.9062
1262.576, 40.99609
1263.650, 386.0703
1264.724, 388.1406
1265.797, 106.2539
1266.871, 182.2500
1267.944, 251.3047
1269.017, 560.3555
1270.090, 321.4023
1271.162, 57.32422
1272.235, 425.3594
1273.307, 359.3867
1274.380, 167.4062
1275.452, 154.0156
1276.524, 314.0195
1277.595, 31.02344
1278.667, 474.0156
1279.738, 402.0000
1280.810, 285.9805
1281.881, 504.9492
1282.952, 354.9180
1284.022, 519.8789
1285.093, 362.8281
1286.164, 323.7773
1287.234, 239.7148
1288.304, 174.6523
1289.374, 386.9609
1290.444, 149.6016
1291.513, 212.5195
1292.583, 306.4336
1293.652, 242.3359
1294.721, 200.2305
1295.790, 170.4102
1296.859, 38.30469
1297.928, 381.1797
1298.996, 17.96875
1300.064, 62.81641
1301.133, 128.6641
1302.201, 201.0625
1303.268, 259.6406
1304.336, 153.2227
1305.404, 449.4141
1306.471, 715.2734
1307.538, 460.3750
1308.605, 454.9258
1309.672, 191.7852
1310.739, 233.2695
1311.805, 176.8438
1312.872, 253.4141
1313.938, 46.97656
1315.004, 197.5391
1316.070, 77.44531
1317.135, 274.9961
1318.201, 325.7734
1319.266, 272.3125
1320.332, 405.9883
1321.397, 215.3750
1322.462, 474.8984
1323.526, 416.4062
1324.591, 347.9180
1325.655, 421.4219
1326.720, 249.9180
1327.784, 308.4648
1328.848, 333.9531
1329.911, 320.4414
1330.975, 233.9180
1332.038, 198.3945
1333.102, 53.86328
1334.165, 96.33203
1335.228, 108.9375
1336.290, 265.1562
1337.353, 167.5391
1338.415, 286.9219
1339.478, 166.2891
1340.540, 104.6602
1341.602, 285.1719
1342.664, 380.5312
1343.725, 192.8828
1344.787, 293.2305
1345.848, 122.4336
1346.909, 18.86328
1347.970, 294.1523
1349.031, 229.4336
1350.092, 42.28906
1351.152, 147.9609
1352.212, 35.21484
1353.273, 153.4570
1354.333, 195.6953
1355.392, 333.9258
1356.452, 415.1484
1357.512, 410.6797
1358.571, 516.8945
1359.630, 524.1094
1360.689, 310.3164
1361.748, 339.4844
1362.807, 226.6445
1363.865, 480.8047
1364.924, 184.9531
1365.982, 400.1016
1367.040, 439.2422
1368.098, 174.3828
1369.155, 515.5156
1370.213, 375.6406
1371.270, 578.7539
1372.328, 463.8594
1373.385, 305.9336
1374.442, 395.0039
1375.498, 271.0508
1376.555, 427.1055
1377.611, 407.1445
1378.668, 570.1719
1379.724, 443.2031
1380.780, 295.2305
1381.835, 428.0117
1382.891, 346.0234
1383.946, 519.0312
1385.002, 368.0352
1386.057, 383.0391
1387.112, 278.0352
1388.166, 247.0312
1389.221, 392.0195
1390.275, 635.7891
1391.330, 419.1953
1392.384, 864.7539
1393.438, 147.7344
1394.492, 307.7227
1395.545, 333.7109
1396.599, 200.6953
1397.652, 75.32422
1398.705, 408.5234
1399.758, 281.4766
1400.811, 200.4258
1401.863, 437.3711
1402.916, 201.3242
1403.968, 414.2695
1405.020, 231.5547
1406.072, 206.4961
1407.124, 233.4375
1408.176, 372.3789
1409.227, 301.5430
1410.279, 410.2656
1411.330, 270.2070
1412.381, 319.1484
1413.432, 347.0898
1414.482, 259.9922
1415.533, 226.8906
1416.583, 10.19531
1417.633, 154.7578
1418.684, 394.7070
1419.733, 305.6641
1420.783, 184.6211
1421.833, 36.41797
1422.882, 72.52734
1423.931, 110.0703
1424.980, 14.97266
1426.029, 190.7031
1427.078, 281.5273
1428.126, 515.4922
1429.175, 181.5508
1430.223, 351.5352
1431.271, 222.6172
1432.319, 240.6328
1433.367, 131.6719
1434.414, 282.7383
1435.462, 97.40234
1436.509, 283.8203
1437.556, 299.9727
1438.603, 207.1445
1439.650, 86.43359
1440.696, 11.50391
1441.743, 243.7344
1442.789, 98.94141
1443.835, 446.0195
1444.881, 383.9258
1445.927, 115.7383
1446.972, 193.4531
1448.018, 435.0391
1449.063, 283.5391
1450.108, 313.7969
1451.153, 334.0547
1452.198, 266.8320
1453.243, 258.7148
1454.287, 206.7109
1455.331, 190.9531
1456.376, 131.1953
1457.420, 154.4297
1458.463, 114.6719
1459.507, 210.9180
1460.550, 84.96875
1461.594, 287.4297
1462.637, 367.8281
1463.680, 113.6523
1464.723, 382.7305
1465.765, 373.7930
1466.808, 10.86328
1467.850, 187.9297
1468.892, 362.9922
1469.934, 234.0469
1470.976, 170.0977
1472.018, 61.14453
1473.060, 451.1875
1474.101, 169.2266
1475.142, 559.2578
1476.183, 477.3281
1477.224, 334.3555
1478.265, 328.4219
1479.305, 291.5156
1480.346, 372.6094
1481.386, 51.70703
1482.426, 343.8047
1483.466, 363.9023
1484.505, 400.0000
1485.545, 99.10156
1486.584, 433.7773
1487.624, 102.7734
1488.663, 366.7773
1489.702, 187.7773
1490.740, 98.77734
1491.779, 327.7773
1492.817, 92.77344
1493.856, 252.7695
1494.894, 118.7578
1495.932, 603.0742
1496.969, 162.0195
1498.007, 257.5547
1499.044, 588.4062
1500.082, 272.0273
1501.119, 144.8594
1502.156, 307.9062
1503.192, 56.87109
1504.229, 386.3477
1505.265, 231.5547
1506.302, 578.7031
1507.338, 478.9648
1508.374, 78.07812
1509.410, 251.1797
1510.445, 328.2773
1511.481, 432.3828
1512.516, 491.4883
1513.551, 539.0938
1514.586, 310.6680
1515.621, 542.7383
1516.655, 420.8008
1517.690, 277.0469
1518.724, 464.4062
1519.758, 685.7656
1520.792, 408.8203
1521.826, 260.1836
1522.860, 390.5469
1523.893, 580.9180
1524.927, 386.2969
1525.960, 141.6797
1526.993, 382.0664
1528.026, 514.4648
1529.058, 196.8594
1530.091, 285.3672
1531.123, 112.9922
1532.155, 187.6367
1533.187, 396.3086
1534.219, 410.0039
1535.251, 242.8086
1536.282, 382.8125
1537.314, 358.9688
1538.345, 392.4648
1539.376, 485.3906
1540.407, 461.4375
1541.438, 512.1953
1542.468, 424.5938
1543.499, 590.7695
1544.529, 471.0156
1545.559, 587.5234
1546.589, 258.6875
1547.618, 644.1367
1548.648, 307.6445
1549.677, 444.2305
1550.707, 651.9023
1551.736, 528.6602
1552.765, 391.5156
1553.793, 173.4648
1554.822, 425.4961
1555.850, 204.9336
1556.879, 366.8750
1557.907, 234.0156
1558.935, 6.390625
1559.962, 27.02344
1560.990, 30.88672
1562.017, 145.2422
1563.045, 65.95312
1564.072, 166.1797
1565.099, 325.9727
1566.125, 289.6016
1567.152, 26.00391
1568.179, 56.50000
1569.205, 140.1641
1570.231, 8.941406
1571.257, 20.50781
1572.283, 0.0000000E+00
##END=



