##NAMES=Natrolite
##RRUFFID=R040112
##IDEAL CHEMISTRY=Na_2_(Si_3_Al_2_)O_10_&#183;2H_2_O
##LOCALITY=Ice River Alkaline Complex, Moose Creek Valley, Yoho National Park, British Columbia, Canada
##OWNER=RRUFF
##SOURCE=National Museums of Canada
##DESCRIPTION=Colorless pseudohexagonal prism
##STATUS=The identification of this mineral has been confirmed by X-ray diffraction and chemical analysis
##URL=rruff.info/R040112
##MEASURED CHEMISTRY=Na_2.00_(Si_3.00_Al_2.00_)O_10_Â·2H_2_O
##PIN_ID=L00109
##ORIENTATION=Laser parallel to -c* (0 0 -1). Fiducial mark perpendicular to laser is parallel to a [1 0 0]
102.712, 0.000
104.109, 353.917
105.505, 997.757
106.902, 2068.823
108.298, 2889.048
109.694, 1875.246
111.090, 951.516
112.486, 117.319
113.881, 226.190
115.277, 459.491
116.672, 354.758
118.066, 997.095
119.461, 1043.848
120.855, 479.456
122.249, 47.541
123.643, 41.463
125.036, 173.884
126.430, 68.104
127.823, 122.158
129.216, 282.042
130.608, 687.577
132.001, 838.733
133.393, 1558.547
134.785, 2154.861
136.176, 3371.483
137.568, 4835.264
138.959, 7185.152
140.350, 10713.100
141.741, 14302.001
143.131, 19251.742
144.521, 22062.229
145.911, 24063.352
147.301, 22915.037
148.691, 20147.238
150.080, 16179.889
151.469, 11682.944
152.858, 8956.374
154.247, 6580.146
155.635, 5994.234
157.024, 5868.618
158.411, 6613.898
159.799, 8730.300
161.187, 10618.271
162.574, 13337.666
163.961, 14417.363
165.348, 14737.016
166.734, 13056.593
168.121, 9966.109
169.507, 8075.572
170.893, 5725.071
172.278, 4736.799
173.664, 3449.307
175.049, 2715.519
176.434, 2082.904
177.819, 1451.490
179.203, 1369.977
180.587, 867.312
181.971, 1059.502
183.355, 817.557
184.739, 899.483
186.122, 934.251
187.505, 737.804
188.888, 967.203
190.271, 804.484
191.653, 1247.668
193.035, 1312.770
194.417, 1766.810
195.799, 2371.792
197.180, 2748.691
198.562, 3719.531
199.943, 4267.355
201.324, 5957.171
202.704, 7786.983
204.084, 10306.796
205.465, 13546.614
206.844, 15576.440
208.224, 17706.275
209.603, 15736.116
210.983, 13705.973
212.362, 10478.865
213.740, 7669.472
215.119, 5712.570
216.497, 3900.193
217.875, 3206.566
219.253, 2151.970
220.631, 1839.005
222.008, 1351.215
223.385, 1074.142
224.762, 1133.785
226.139, 654.707
227.515, 929.668
228.891, 614.668
230.267, 929.705
231.643, 1099.776
233.018, 1335.882
234.394, 2241.020
235.769, 2986.188
237.144, 4800.388
238.518, 6722.454
239.893, 9533.729
241.267, 11282.374
242.641, 10734.559
244.014, 8695.722
245.388, 5434.177
246.761, 3886.665
248.134, 2431.820
249.507, 1559.702
250.879, 1233.134
252.252, 711.191
253.624, 801.959
254.996, 424.113
256.367, 573.278
257.739, 549.452
259.110, 515.631
260.481, 954.814
261.852, 844.002
263.222, 1451.193
264.592, 1702.389
265.962, 2473.587
267.332, 3382.791
268.702, 3827.387
270.071, 4985.243
271.440, 4596.876
272.809, 4586.063
274.178, 3337.646
275.546, 2292.557
276.915, 1787.770
278.283, 880.179
279.650, 889.540
281.018, 281.166
282.385, 464.028
283.752, 223.103
285.119, 142.368
286.486, 478.807
287.852, 113.400
289.218, 513.138
290.584, 310.127
291.950, 489.114
293.316, 752.211
294.681, 711.408
296.046, 1357.698
297.411, 1498.074
298.775, 2556.526
300.140, 3636.049
301.504, 5324.636
302.868, 8053.282
304.231, 10742.995
305.595, 14012.751
306.958, 14002.555
308.321, 12092.399
309.684, 8382.277
311.047, 5117.209
312.409, 3655.170
313.771, 1886.159
315.133, 1475.174
316.495, 808.213
317.856, 366.298
319.217, 446.403
320.578, 118.473
321.939, 221.630
323.299, 208.254
324.660, 46.828
326.020, 119.091
327.380, 225.056
328.739, 88.904
330.099, 296.142
331.458, 47.766
332.817, 226.336
334.176, 107.513
335.534, 14.736
336.892, 232.984
338.251, 111.687
339.608, 246.657
340.966, 114.908
342.323, 25.456
343.681, 31.980
345.037, 370.482
346.394, 126.969
347.751, 670.442
349.107, 538.902
350.463, 799.349
351.819, 1089.784
353.174, 1001.208
354.530, 1589.621
355.885, 1345.024
357.240, 1956.417
358.594, 2073.801
359.949, 2033.175
361.303, 2326.541
362.657, 1634.897
364.011, 1761.245
365.365, 1009.584
366.718, 845.915
368.071, 653.237
369.424, 199.550
370.777, 445.854
372.129, 45.851
373.481, 217.404
374.833, 23.651
376.185, 82.185
377.537, 121.838
378.888, 267.210
380.239, 197.546
381.590, 189.833
382.941, 4.441
384.291, 72.804
385.642, 182.066
386.992, 250.985
388.341, 202.974
389.691, 166.993
391.040, 54.958
392.389, 59.085
393.738, 205.833
395.087, 97.249
396.435, 330.622
397.784, 10.490
399.132, 140.339
400.479, 388.185
401.827, 96.992
403.174, 521.778
404.521, 256.513
405.868, 526.142
407.215, 566.665
408.561, 519.104
409.908, 967.461
411.254, 656.810
412.599, 1220.122
413.945, 1126.385
415.290, 1391.630
416.636, 1855.875
417.980, 1748.123
419.325, 2647.373
420.670, 2599.625
422.014, 3513.880
423.358, 4296.138
424.702, 5106.401
426.045, 7022.664
427.389, 8509.930
428.732, 11707.199
430.075, 14924.471
431.417, 19451.766
432.760, 25099.078
434.102, 29506.404
435.444, 33913.738
436.786, 32831.082
438.127, 31318.424
439.469, 27905.781
440.810, 23133.135
442.151, 21750.496
443.492, 19247.863
444.832, 19295.223
446.172, 19742.629
447.512, 19580.041
448.852, 18611.197
450.192, 17504.902
451.531, 15492.355
452.870, 11679.874
454.209, 8537.389
455.548, 6754.896
456.887, 4429.432
458.225, 3810.960
459.563, 2725.526
460.901, 2257.087
462.238, 1963.641
463.576, 1289.223
464.913, 1659.128
466.250, 905.724
467.587, 1132.311
468.923, 922.890
470.259, 669.503
471.596, 973.665
472.931, 421.271
474.267, 848.868
475.603, 548.456
476.938, 476.099
478.273, 774.551
479.608, 286.185
480.942, 778.808
482.276, 402.759
483.611, 583.389
484.944, 764.204
486.278, 385.511
487.612, 888.128
488.945, 471.331
490.278, 825.958
491.611, 882.427
492.943, 566.591
494.276, 1117.397
495.608, 673.295
496.940, 1139.578
498.271, 970.838
499.603, 953.440
500.934, 1322.592
502.265, 942.180
503.596, 1493.265
504.927, 1307.550
506.257, 1451.122
507.587, 1840.693
508.917, 1486.259
510.247, 2285.820
511.577, 2149.377
512.906, 2712.926
514.235, 3382.486
515.564, 3451.040
516.892, 4569.587
518.221, 4959.130
519.549, 6292.665
520.877, 7010.207
522.205, 7367.743
523.533, 9075.272
524.860, 9212.797
526.187, 11270.316
527.514, 13177.832
528.841, 16725.338
530.167, 21752.840
531.493, 25610.334
532.820, 29941.367
534.145, 30008.852
535.471, 26093.754
536.796, 22012.467
538.122, 15579.894
539.447, 12646.895
540.771, 8994.364
542.096, 7076.145
543.420, 5839.311
544.744, 4117.762
546.068, 4072.958
547.392, 2937.425
548.715, 2744.274
550.039, 2498.745
551.362, 1797.596
552.684, 2190.436
554.007, 1435.911
555.329, 1487.332
556.652, 1491.812
557.973, 919.769
559.295, 1449.248
560.617, 828.736
561.938, 993.657
563.259, 884.151
564.580, 573.659
565.901, 1031.171
567.221, 374.686
568.541, 819.206
569.861, 586.730
571.181, 374.266
572.501, 750.807
573.820, 159.352
575.139, 627.917
576.458, 305.487
577.777, 263.062
579.095, 621.643
580.414, 14.229
581.732, 520.831
583.049, 217.438
584.367, 374.050
585.685, 568.667
587.002, 147.288
588.319, 702.914
589.636, 253.545
590.952, 471.320
592.268, 758.960
593.585, 366.604
594.900, 1113.254
596.216, 687.909
597.532, 1229.908
598.847, 1552.570
600.162, 1218.236
601.477, 2096.313
602.792, 1564.988
604.106, 1949.019
605.420, 1712.713
606.734, 1116.412
608.048, 1463.916
609.361, 776.619
610.675, 909.480
611.988, 739.225
613.301, 332.971
614.614, 707.587
615.926, 87.334
617.238, 559.334
618.550, 326.103
619.862, 90.872
621.174, 576.731
622.485, 60.500
623.797, 509.585
625.108, 202.328
626.418, 59.072
627.729, 613.661
629.039, 74.594
630.349, 477.418
631.659, 81.126
632.969, 92.833
634.279, 571.655
635.588, 87.640
636.897, 515.141
638.206, 165.796
639.515, 78.450
640.823, 522.251
642.131, 76.062
643.439, 482.645
644.747, 99.350
646.055, 142.094
647.362, 567.646
648.669, 176.548
649.976, 579.246
651.283, 190.082
652.589, 220.941
653.896, 567.180
655.202, 6.088
656.508, 583.063
657.814, 244.034
659.119, 308.079
660.424, 715.463
661.729, 220.508
663.034, 807.557
664.339, 478.588
665.643, 671.628
666.947, 993.069
668.251, 458.101
669.555, 1101.129
670.859, 651.319
672.162, 839.338
673.465, 1085.354
674.768, 493.365
676.071, 1169.371
677.373, 612.660
678.676, 811.658
679.978, 1142.650
681.280, 629.639
682.581, 1309.622
683.883, 884.839
685.184, 1050.814
686.485, 1485.783
687.786, 1066.748
689.087, 1863.708
690.387, 1604.979
691.687, 1832.959
692.987, 2423.948
694.287, 2007.104
695.586, 3070.125
696.886, 2858.521
698.185, 3335.620
699.484, 4162.783
700.783, 4019.962
702.081, 5419.142
703.379, 5247.386
704.677, 5755.623
705.975, 6143.929
707.273, 5272.253
708.570, 5460.557
709.868, 4402.891
711.165, 3761.220
712.462, 3515.589
713.758, 2488.100
715.055, 2806.476
716.351, 2164.847
717.647, 2055.213
718.943, 2394.576
720.238, 1635.989
721.533, 2492.343
722.829, 1961.689
724.124, 2123.030
725.418, 2715.364
726.713, 1989.836
728.007, 2706.158
729.301, 2208.476
730.595, 1868.838
731.889, 2085.142
733.182, 1050.569
734.476, 1428.860
735.769, 946.145
737.061, 709.892
738.354, 1044.162
739.647, 242.425
740.939, 768.682
742.231, 382.932
743.523, 270.402
744.814, 735.637
746.106, 4.866
747.397, 621.074
748.688, 310.274
749.978, 174.850
751.269, 653.036
752.559, 32.215
753.849, 473.430
755.139, 251.590
756.429, 30.030
757.719, 567.171
759.008, 138.697
760.297, 403.273
761.586, 268.300
762.875, 143.681
764.163, 608.236
765.451, 148.856
766.739, 330.655
768.027, 310.450
769.315, 75.764
770.602, 531.951
771.890, 129.342
773.177, 340.384
774.463, 311.983
775.750, 92.426
777.036, 562.174
778.323, 65.656
779.609, 218.779
780.894, 388.206
782.180, 121.377
783.465, 549.782
784.750, 2.462
786.035, 269.819
787.320, 538.092
788.605, 206.644
789.889, 599.028
791.173, 1.674
792.457, 194.412
793.741, 425.490
795.024, 65.439
796.307, 600.567
797.591, 113.298
798.873, 173.287
800.156, 555.269
801.439, 141.759
802.721, 510.111
804.003, 210.108
805.285, 89.961
806.566, 643.805
807.848, 93.360
809.129, 530.400
810.410, 313.062
811.691, 111.805
812.971, 737.538
814.252, 29.262
815.532, 560.974
816.812, 467.675
818.092, 6.368
819.371, 734.039
820.651, 21.701
821.930, 423.348
823.209, 576.986
824.488, 29.384
825.766, 754.207
827.045, 166.788
828.323, 377.360
829.601, 554.923
830.878, 16.523
832.156, 713.000
833.433, 208.514
834.710, 314.019
835.987, 724.516
837.264, 43.003
838.540, 774.481
839.817, 264.951
841.093, 214.413
842.369, 746.866
843.644, 31.311
844.920, 580.752
846.195, 402.186
847.470, 67.611
848.745, 805.028
850.020, 29.436
851.294, 570.833
852.568, 526.222
853.842, 116.602
855.116, 818.990
856.390, 144.371
857.663, 540.742
858.936, 651.104
860.209, 92.458
861.482, 859.803
862.755, 248.140
864.027, 370.467
865.299, 782.790
866.571, 62.105
867.843, 758.410
869.115, 298.707
870.386, 332.995
871.657, 822.276
872.928, 21.450
874.199, 749.794
875.470, 369.034
876.740, 190.267
878.010, 828.492
879.280, 8.290
880.550, 511.908
881.820, 480.099
883.089, 39.717
884.358, 758.432
885.627, 63.577
886.896, 403.715
888.164, 567.846
889.433, 32.029
890.701, 777.064
891.969, 174.154
893.236, 288.237
894.504, 732.314
895.771, 38.406
897.038, 702.490
898.305, 357.568
899.572, 110.505
900.838, 752.574
902.105, 5.644
903.371, 572.703
904.637, 405.759
905.902, 78.475
907.168, 685.525
908.433, 20.569
909.698, 337.201
910.963, 545.231
912.228, 50.088
913.492, 707.908
914.757, 83.881
916.021, 220.043
917.285, 618.962
918.548, 153.284
919.812, 631.582
921.075, 174.422
922.338, 99.386
923.601, 692.213
924.864, 89.215
926.126, 487.579
927.388, 420.368
928.650, 11.058
929.912, 851.836
931.174, 28.283
932.435, 459.068
933.697, 545.850
934.958, 31.216
936.218, 762.559
937.479, 190.047
938.739, 305.838
940.000, 811.629
941.260, 26.698
942.520, 738.089
943.779, 292.778
945.039, 205.590
946.298, 829.404
947.557, 112.109
948.816, 795.926
950.074, 766.766
951.333, 362.608
952.591, 1278.454
953.849, 582.560
955.107, 1045.411
956.365, 1450.313
957.622, 915.179
958.879, 2118.091
960.136, 2063.663
961.393, 2269.582
962.650, 3704.508
963.906, 3774.437
965.162, 6111.372
966.418, 8056.968
967.674, 9202.911
968.930, 9257.900
970.185, 9003.829
971.441, 7449.792
972.696, 5685.354
973.950, 3430.328
975.205, 3289.309
976.459, 1942.130
977.714, 1547.125
978.968, 1756.127
980.222, 767.138
981.475, 1355.155
982.729, 954.894
983.982, 558.927
985.235, 1311.969
986.488, 546.019
987.740, 1060.078
988.993, 1287.124
990.245, 743.201
991.497, 1925.286
992.749, 1887.385
994.000, 2502.493
995.252, 3559.123
996.503, 2916.257
997.754, 3428.403
999.005, 2630.541
1000.256, 1741.716
1001.506, 2040.614
1002.756, 868.817
1004.006, 1149.037
1005.256, 1042.178
1006.506, 333.429
1007.755, 1178.696
1009.005, 347.012
1010.254, 434.314
1011.502, 1025.610
1012.751, 116.950
1014.000, 953.309
1015.248, 664.632
1016.496, 541.031
1017.744, 1488.303
1018.991, 703.850
1020.239, 1506.314
1021.486, 1922.140
1022.733, 1920.650
1023.980, 3546.132
1025.227, 3738.524
1026.473, 4412.113
1027.719, 4908.727
1028.965, 3058.369
1030.211, 3041.863
1031.457, 2175.806
1032.702, 1254.500
1033.948, 1783.174
1035.193, 698.889
1036.438, 1096.460
1037.682, 1155.192
1038.927, 459.956
1040.171, 1252.256
1041.415, 670.368
1042.659, 617.199
1043.903, 1277.054
1045.146, 400.670
1046.390, 1108.334
1047.633, 915.319
1048.876, 438.461
1050.118, 1434.405
1051.361, 592.506
1052.603, 869.141
1053.845, 1486.179
1055.087, 772.717
1056.329, 1659.411
1057.571, 1514.117
1058.812, 1436.792
1060.053, 2472.986
1061.294, 1769.678
1062.535, 2773.431
1063.775, 3257.069
1065.016, 2690.139
1066.256, 4034.450
1067.496, 3269.594
1068.736, 3232.805
1069.975, 3728.818
1071.214, 2291.040
1072.454, 2868.433
1073.693, 2506.864
1074.931, 1717.495
1076.170, 2414.058
1077.408, 1449.103
1078.647, 1435.843
1079.885, 1807.612
1081.122, 822.458
1082.360, 1690.321
1083.597, 1168.257
1084.835, 1102.265
1086.072, 1846.292
1087.308, 1055.418
1088.545, 1749.564
1089.781, 1917.736
1091.018, 1331.932
1092.254, 2245.165
1093.490, 1433.428
1094.725, 1424.735
1095.961, 1868.085
1097.196, 726.462
1098.431, 1301.896
1099.666, 1144.356
1100.900, 363.845
1102.135, 1509.362
1103.369, 586.908
1104.603, 758.464
1105.837, 1261.050
1107.071, 327.668
1108.304, 1208.317
1109.538, 770.946
1110.771, 469.604
1112.004, 1232.292
1113.236, 393.008
1114.469, 869.740
1115.701, 1146.503
1116.933, 438.291
1118.165, 1396.121
1119.397, 926.984
1120.629, 842.875
1121.860, 1629.813
1123.091, 624.802
1124.322, 1200.831
1125.553, 1174.891
1126.783, 407.019
1128.014, 1355.176
1129.244, 571.291
1130.474, 439.433
1131.704, 1207.591
1132.933, 138.775
1134.163, 782.964
1135.392, 772.189
1136.621, 35.445
1137.850, 1019.829
1139.079, 195.392
1140.307, 353.113
1141.535, 1036.998
1142.763, 56.034
1143.991, 852.038
1145.219, 547.206
1146.446, 85.456
1147.674, 1015.789
1148.901, 157.205
1150.128, 386.703
1151.354, 941.285
1152.581, 95.045
1153.807, 827.714
1155.033, 569.563
1156.259, 134.505
1157.485, 1046.544
1158.710, 216.684
1159.936, 457.928
1161.161, 814.284
1162.386, 13.244
1163.611, 916.352
1164.835, 426.077
1166.060, 152.938
1167.284, 1020.941
1168.508, 108.093
1169.732, 471.400
1170.955, 925.876
1172.179, 9.534
1173.402, 921.389
1174.625, 535.575
1175.848, 239.824
1177.070, 1030.489
1178.293, 165.869
1179.515, 688.938
1180.737, 906.709
1181.959, 13.835
1183.181, 1051.174
1184.402, 525.506
1185.624, 355.161
1186.845, 1152.185
1188.066, 198.846
1189.286, 584.900
1190.507, 777.290
1191.727, 49.389
1192.947, 870.922
1194.167, 299.440
1195.387, 276.516
1196.607, 1042.899
1197.826, 104.012
1199.045, 741.312
1200.264, 1042.511
1201.483, 24.380
1202.702, 1056.679
1203.920, 549.807
1205.138, 235.778
1206.356, 1069.456
1207.574, 0.772
1208.792, 393.784
1210.009, 0.000
##END=



