##NAMES=Natrolite
##RRUFFID=R040112
##IDEAL CHEMISTRY=Na_2_(Si_3_Al_2_)O_10_&#183;2H_2_O
##LOCALITY=Ice River Alkaline Complex, Moose Creek Valley, Yoho National Park, British Columbia, Canada
##OWNER=RRUFF
##SOURCE=National Museums of Canada
##DESCRIPTION=Colorless pseudohexagonal prism
##STATUS=The identification of this mineral has been confirmed by X-ray diffraction and chemical analysis
##URL=rruff.info/R040112
##MEASURED CHEMISTRY=Na_2.00_(Si_3.00_Al_2.00_)O_10_Â·2H_2_O
##PIN_ID=L00277
##ORIENTATION=Laser parallel to -a* (-1 0 0). Fiducial mark perpendicular to laser is parallel to b [0 1 0]
114.949, 0.000
116.339, 10.354
117.729, 1126.698
119.119, 1487.979
120.508, 888.477
121.897, 465.773
123.286, 542.402
124.675, 1073.434
126.063, 1436.220
127.452, 1138.666
128.840, 698.775
130.228, 334.928
131.615, 185.840
133.003, 240.608
134.390, 469.845
135.777, 694.311
137.164, 1182.711
138.550, 1753.885
139.937, 2336.999
141.323, 2911.484
142.709, 3066.964
144.094, 3133.138
145.480, 2509.770
146.865, 2456.645
148.250, 2193.613
149.635, 2460.801
151.019, 3369.683
152.403, 4616.109
153.788, 6423.148
155.171, 8983.928
156.555, 12992.589
157.939, 17788.896
159.322, 24133.020
160.705, 30475.119
162.088, 34545.395
163.470, 35234.004
164.853, 30351.115
166.235, 24747.068
167.617, 18082.096
168.998, 13556.306
170.380, 9889.635
171.761, 7382.036
173.142, 5783.506
174.523, 4364.340
175.904, 3624.172
177.284, 2803.152
178.664, 2261.412
180.044, 1918.987
181.424, 1425.928
182.803, 1347.046
184.183, 1212.800
185.562, 1057.150
186.940, 1060.163
188.319, 1046.811
189.698, 1146.183
191.076, 1200.604
192.454, 1353.798
193.831, 1532.425
195.209, 1542.713
196.586, 1694.676
197.963, 1849.261
199.340, 2309.021
200.717, 2950.053
202.093, 3900.805
203.470, 4910.959
204.846, 6661.033
206.221, 7851.758
207.597, 8252.243
208.972, 7822.936
210.347, 6463.828
211.722, 5244.907
213.097, 3486.165
214.472, 2567.667
215.846, 2032.130
217.220, 1671.687
218.594, 1277.172
219.967, 1005.395
221.341, 984.082
222.714, 771.385
224.087, 545.756
225.460, 702.691
226.832, 535.959
228.204, 507.927
229.577, 450.737
230.948, 482.868
232.320, 274.983
233.692, 357.140
235.063, 289.321
236.434, 571.492
237.805, 483.632
239.175, 635.733
240.545, 1007.802
241.916, 939.837
243.286, 901.839
244.655, 903.810
246.025, 565.751
247.394, 567.863
248.763, 120.241
250.132, 264.249
251.501, 496.649
252.869, 389.437
254.237, 71.151
255.605, 27.164
256.973, 74.489
258.340, 33.887
259.708, 252.275
261.075, 400.711
262.442, 489.175
263.808, 367.666
265.175, 586.208
266.541, 574.776
267.907, 603.455
269.273, 262.280
270.639, 281.530
272.004, 211.412
273.369, 47.992
274.734, 6.728
276.099, 115.079
277.463, 303.301
278.828, 71.507
280.192, 223.456
281.556, 206.689
282.919, 281.122
284.283, 146.284
285.646, 241.981
287.009, 178.092
288.372, 244.519
289.734, 281.193
291.097, 248.061
292.459, 315.075
293.821, 292.203
295.183, 239.410
296.544, 446.674
297.905, 313.982
299.266, 331.309
300.627, 338.629
301.988, 475.924
303.348, 473.179
304.709, 790.387
306.069, 1017.540
307.428, 934.634
308.788, 941.662
310.147, 648.625
311.507, 375.520
312.865, 342.342
314.224, 229.094
315.583, 185.766
316.941, 62.320
318.299, 338.691
319.657, 184.889
321.015, 200.914
322.372, 166.777
323.729, 138.055
325.086, 142.963
326.443, 153.459
327.800, 158.742
329.156, 183.896
330.512, 248.930
331.868, 231.672
333.224, 148.664
334.579, 233.361
335.935, 287.955
337.290, 302.455
338.645, 406.857
339.999, 471.172
341.354, 555.402
342.708, 289.553
344.062, 553.621
345.416, 407.615
346.769, 541.510
348.123, 655.344
349.476, 668.975
350.829, 882.406
352.182, 795.285
353.534, 1117.479
354.887, 1448.922
356.239, 1579.738
357.591, 2210.146
358.942, 2310.453
360.294, 2760.746
361.645, 2811.023
362.996, 2541.299
364.347, 2361.584
365.698, 1731.877
367.048, 1352.166
368.398, 1022.471
369.748, 812.797
371.098, 833.117
372.448, 543.436
373.797, 613.742
375.146, 424.045
376.495, 434.338
377.844, 364.621
379.192, 304.879
380.540, 485.088
381.889, 195.270
383.236, 285.404
384.584, 395.492
385.932, 275.543
387.279, 335.568
388.626, 255.557
389.973, 525.529
391.319, 415.484
392.666, 475.426
394.012, 465.355
395.358, 465.182
396.704, 478.434
398.049, 424.947
399.394, 454.826
400.740, 424.332
402.084, 374.545
403.429, 474.387
404.774, 464.217
406.118, 624.035
407.462, 733.840
408.806, 613.633
410.150, 663.414
411.493, 631.336
412.836, 611.490
414.179, 690.691
415.522, 570.408
416.865, 706.570
418.207, 607.260
419.549, 823.609
420.891, 903.938
422.233, 890.596
423.575, 867.969
424.916, 849.826
426.257, 1099.344
427.598, 1125.180
428.939, 1401.770
430.279, 1306.602
431.619, 2114.014
432.959, 2229.146
434.299, 3198.754
435.639, 4394.412
436.978, 5997.922
438.318, 9336.240
439.657, 12935.891
440.996, 17503.027
442.334, 21132.848
443.673, 19692.271
445.011, 16611.938
446.349, 11890.922
447.687, 8430.770
449.024, 5989.990
450.361, 4149.488
451.699, 3339.105
453.036, 2598.537
454.372, 2588.639
455.709, 1718.197
457.045, 1667.512
458.381, 1748.100
459.717, 1457.639
461.053, 1627.150
462.388, 1546.633
463.724, 1536.090
465.059, 1795.520
466.394, 1644.955
467.728, 2044.365
469.063, 2183.748
470.397, 2723.123
471.731, 2862.473
473.065, 3051.840
474.398, 3831.129
475.732, 4359.826
477.065, 5257.990
478.398, 6162.516
479.731, 7231.660
481.063, 8349.615
482.396, 9197.781
483.728, 9815.324
485.060, 9582.133
486.391, 9189.035
487.723, 8756.133
489.054, 7353.301
490.385, 6870.953
491.716, 5799.402
493.047, 4977.656
494.377, 4584.391
495.708, 3492.588
497.038, 3821.234
498.368, 2949.918
499.697, 2899.016
501.027, 2758.109
502.356, 2527.186
503.685, 2585.695
505.014, 2174.742
506.342, 2553.730
507.671, 2414.934
508.999, 2443.939
510.327, 2642.936
511.655, 2580.277
512.982, 2829.250
514.310, 3137.205
515.637, 3318.238
516.964, 3637.240
518.291, 3676.242
519.617, 4415.244
520.944, 4506.559
522.270, 5075.562
523.596, 6158.104
524.921, 6720.633
526.247, 9259.637
527.572, 11612.777
528.897, 15967.789
530.222, 21546.801
531.547, 27895.814
532.871, 34984.836
534.196, 37563.832
535.520, 36892.852
536.844, 31811.863
538.167, 24680.713
539.491, 19519.322
540.814, 14018.330
542.137, 10896.031
543.460, 8284.570
544.783, 6483.578
546.105, 5402.090
547.427, 3950.855
548.749, 3599.248
550.071, 2818.266
551.393, 2327.277
552.714, 2126.295
554.035, 1495.314
555.356, 1824.332
556.677, 1453.355
557.998, 1282.379
559.318, 1291.402
560.638, 840.428
561.958, 1079.438
563.278, 868.465
564.597, 647.496
565.917, 596.527
567.236, 585.562
568.555, 754.600
569.874, 453.635
571.192, 442.684
572.511, 511.734
573.829, 250.789
575.147, 459.844
576.464, 218.918
577.782, 378.037
579.099, 177.174
580.416, 126.355
581.733, 375.641
583.050, 125.064
584.366, 314.652
585.683, 84.371
586.999, 64.279
588.315, 134.375
589.630, 65.338
590.946, 265.041
592.261, 65.529
593.576, 66.105
594.891, 246.703
596.206, 117.334
597.520, 68.029
598.834, 58.668
600.148, 25.820
601.462, 274.834
602.776, 145.490
604.089, 204.117
605.402, 25.221
606.715, 192.145
608.028, 202.811
609.341, 73.477
610.653, 64.145
611.965, 35.188
613.277, 111.541
614.589, 176.787
615.901, 52.547
617.212, 94.816
618.523, 85.475
619.834, 206.133
621.145, 117.400
622.456, 218.061
623.766, 266.691
625.076, 327.354
626.386, 328.016
627.696, 533.525
629.006, 334.189
630.315, 474.736
631.624, 135.400
632.933, 269.689
634.242, 70.359
635.551, 4.678
636.859, 255.373
638.167, 86.070
639.475, 234.223
640.783, 107.998
642.090, 108.713
643.398, 233.141
644.705, 288.299
646.012, 399.047
647.318, 327.979
648.625, 298.740
649.931, 570.906
651.237, 321.674
652.543, 392.453
653.849, 383.238
655.155, 204.023
656.460, 374.885
657.765, 275.672
659.070, 76.457
660.375, 327.242
661.679, 48.029
662.984, 148.814
664.288, 40.398
665.592, 150.365
666.895, 41.133
668.199, 138.105
669.502, 302.584
670.805, 306.727
672.108, 36.201
673.411, 203.930
674.713, 34.436
676.016, 294.939
677.318, 34.557
678.620, 225.920
679.921, 53.600
681.223, 53.154
682.524, 327.256
683.825, 62.336
685.126, 91.963
686.427, 400.344
687.727, 90.656
689.028, 470.973
690.328, 131.287
691.628, 431.600
692.927, 501.916
694.227, 302.229
695.526, 742.545
696.825, 592.859
698.124, 853.176
699.423, 763.496
700.721, 693.820
702.020, 1134.145
703.318, 934.469
704.616, 1094.797
705.913, 945.131
707.211, 915.461
708.508, 1235.793
709.805, 806.125
711.102, 916.457
712.399, 1176.787
713.695, 897.119
714.992, 1067.453
716.288, 1127.787
717.584, 1498.121
718.879, 1508.459
720.175, 1628.795
721.470, 2009.135
722.765, 1869.549
724.060, 2439.887
725.355, 2710.227
726.649, 2680.566
727.944, 3350.914
729.238, 2731.258
730.532, 2411.602
731.825, 2401.949
733.119, 1732.295
734.412, 1932.645
735.705, 1012.996
736.998, 1123.348
738.291, 913.697
739.584, 574.051
740.876, 644.398
742.168, 264.750
743.460, 695.098
744.752, 145.445
746.043, 164.660
747.334, 414.998
748.626, 95.330
749.916, 205.660
751.207, 285.984
752.498, 26.303
753.788, 156.617
755.078, 63.072
756.368, 216.879
757.658, 117.135
758.947, 112.615
760.237, 117.561
761.526, 92.588
762.815, 187.518
764.104, 47.619
765.392, 67.715
766.680, 77.809
767.969, 82.635
769.257, 58.975
770.544, 287.377
771.832, 93.697
773.119, 146.217
774.406, 256.125
775.693, 6.031
776.980, 185.926
778.267, 114.186
779.553, 185.631
780.839, 65.441
782.125, 64.752
783.411, 215.006
784.697, 145.238
785.982, 304.424
787.267, 45.914
788.552, 133.709
789.837, 46.672
791.122, 72.898
792.406, 332.477
793.690, 107.947
794.974, 38.445
796.258, 271.027
797.542, 119.506
798.825, 289.887
800.108, 179.273
801.391, 121.342
802.674, 187.965
803.957, 12.732
805.239, 226.557
806.522, 165.840
807.804, 75.117
809.085, 184.393
810.367, 13.664
811.649, 132.930
812.930, 372.191
814.211, 91.451
815.492, 390.709
816.772, 129.963
818.053, 459.213
819.333, 366.275
820.613, 215.521
821.893, 444.764
823.173, 175.643
824.452, 14.879
825.732, 645.123
827.011, 167.719
828.290, 631.428
829.568, 430.574
830.847, 299.721
832.125, 296.555
833.403, 155.701
834.681, 251.338
835.959, 346.986
837.236, 36.160
838.514, 371.205
839.791, 55.625
841.068, 403.535
842.345, 512.697
843.621, 311.859
844.898, 481.078
846.174, 360.295
847.450, 319.564
848.726, 498.834
850.001, 178.105
851.277, 567.402
852.552, 336.705
853.827, 276.008
855.102, 555.346
856.376, 214.686
857.651, 654.031
858.925, 763.379
860.199, 482.730
861.473, 952.086
862.746, 561.443
864.020, 720.805
865.293, 620.199
866.566, 559.598
867.839, 739.039
869.112, 468.482
870.384, 537.932
871.656, 557.414
872.928, 716.902
874.200, 676.395
875.472, 4.104
876.744, 685.398
878.015, 374.928
879.286, 154.508
880.557, 444.096
881.828, 363.686
883.098, 133.281
884.369, 212.881
885.639, 127.668
886.909, 492.141
888.178, 161.781
889.448, 401.430
890.717, 521.082
891.987, 230.742
893.256, 300.410
894.524, 340.082
895.793, 279.760
897.061, 699.445
898.330, 509.141
899.598, 438.846
900.865, 698.559
902.133, 558.307
903.401, 518.061
904.668, 517.820
905.935, 427.535
907.202, 467.316
908.468, 272.246
909.735, 432.041
911.001, 501.842
912.267, 293.682
913.533, 683.496
914.799, 426.615
916.064, 346.447
917.330, 556.285
918.595, 106.133
919.860, 665.982
921.124, 109.781
922.389, 405.068
923.653, 514.943
924.918, 298.127
926.182, 568.023
927.445, 467.924
928.709, 207.225
929.972, 967.141
931.236, 199.090
932.499, 859.016
933.761, 518.951
935.024, 314.041
936.286, 833.990
937.549, 214.062
938.811, 774.021
940.073, 530.361
941.334, 660.332
942.596, 776.664
943.857, 406.650
945.118, 656.641
946.379, 509.189
947.640, 486.121
948.900, 666.133
950.161, 528.027
951.421, 528.051
952.681, 868.084
953.940, 509.947
955.200, 779.994
956.459, 768.648
957.719, 388.707
958.978, 578.775
960.236, 498.850
961.495, 818.928
962.753, 688.943
964.012, 889.035
965.270, 919.137
966.527, 1059.242
967.785, 709.357
969.043, 1459.668
970.300, 869.805
971.557, 1919.959
972.814, 1920.117
974.071, 2000.275
975.327, 3430.486
976.583, 3140.717
977.840, 3251.043
979.095, 3271.771
980.351, 2002.145
981.607, 2132.537
982.862, 1552.947
984.117, 963.389
985.372, 1570.373
986.627, 890.867
987.882, 1521.395
989.136, 932.475
990.390, 773.059
991.644, 1261.695
992.898, 672.344
994.152, 1233.010
995.405, 1325.703
996.659, 1286.406
997.912, 1848.314
999.165, 1599.053
1000.417, 1859.809
1001.670, 2265.836
1002.922, 1476.629
1004.174, 1967.697
1005.426, 1165.393
1006.678, 1126.236
1007.930, 1287.998
1009.181, 948.873
1010.432, 1289.766
1011.683, 1531.082
1012.934, 1132.008
1014.185, 1402.953
1015.435, 1300.707
1016.685, 1551.688
1017.935, 1701.820
1019.185, 1792.836
1020.435, 1813.867
1021.684, 1832.531
1022.934, 1883.598
1024.183, 2294.684
1025.432, 1977.090
1026.680, 2658.137
1027.929, 2633.926
1029.177, 3026.547
1030.425, 3587.723
1031.673, 4029.242
1032.921, 4950.453
1034.169, 6851.680
1035.416, 7788.250
1036.663, 11709.520
1037.911, 15521.895
1039.157, 19043.211
1040.404, 21914.539
1041.650, 19186.734
1042.897, 16078.109
1044.143, 11959.500
1045.389, 8561.398
1046.634, 6852.840
1047.880, 5365.242
1049.125, 4056.922
1050.371, 3808.434
1051.615, 2936.793
1052.860, 3068.348
1054.105, 2339.926
1055.349, 2033.000
1056.593, 1994.559
1057.837, 1506.141
1059.081, 1657.773
1060.325, 1529.301
1061.568, 1411.168
1062.812, 1432.598
1064.055, 1004.047
1065.298, 1395.465
1066.540, 1446.887
1067.783, 808.320
1069.025, 1169.773
1070.267, 1151.156
1071.509, 1122.465
1072.751, 1513.711
1073.993, 934.961
1075.234, 1366.230
1076.475, 1807.285
1077.716, 1478.332
1078.957, 1779.574
1080.198, 2010.535
1081.438, 2101.508
1082.679, 2332.461
1083.919, 2113.398
1085.159, 2094.332
1086.398, 2125.230
1087.638, 1746.023
1088.877, 1726.789
1090.116, 1767.504
1091.355, 1268.188
1092.594, 1498.836
1093.833, 849.457
1095.071, 850.035
1096.309, 1130.609
1097.547, 571.156
1098.785, 1231.664
1100.023, 252.176
1101.260, 933.402
1102.498, 1323.844
1103.735, 274.281
1104.972, 935.062
1106.208, 675.453
1107.445, 435.816
1108.681, 536.184
1109.918, 586.512
1111.154, 666.820
1112.389, 567.074
1113.625, 227.320
1114.860, 467.672
1116.096, 538.059
1117.331, 68.258
1118.566, 780.680
1119.800, 150.848
1121.035, 380.465
1122.269, 748.969
1123.503, 341.672
1124.737, 764.418
1125.971, 647.289
1127.205, 190.199
1128.438, 453.121
1129.671, 716.055
1130.904, 699.023
1132.137, 412.055
1133.370, 104.934
1134.602, 828.008
1135.834, 250.938
1137.066, 33.848
1138.298, 406.758
1139.530, 169.668
1140.762, 312.609
1141.993, 535.582
1143.224, 181.449
1144.455, 481.480
1145.686, 165.609
1146.917, 397.262
1148.147, 260.152
1149.377, 66.957
1150.607, 695.824
1151.837, 138.621
1153.067, 88.578
1154.296, 584.215
1155.526, 37.023
1156.755, 359.852
1157.984, 452.703
1159.213, 125.566
1160.441, 418.449
1161.670, 321.277
1162.898, 75.883
1164.126, 806.973
1165.354, 110.156
1166.581, 382.746
1167.809, 645.672
1169.036, 81.375
1170.263, 461.605
1171.490, 364.621
1172.717, 47.672
1173.943, 790.762
1175.170, 26.109
1176.396, 132.926
1177.622, 600.305
1178.848, 203.590
1180.073, 586.930
1181.299, 400.336
1182.524, 26.188
1183.749, 837.355
1184.974, 100.977
1186.199, 354.668
1187.423, 878.441
1188.648, 142.305
1189.872, 646.254
1191.096, 450.309
1192.320, 214.473
1193.543, 788.371
1194.767, 152.715
1195.990, 297.199
1197.213, 521.770
1198.436, 23.621
1199.659, 751.035
1200.881, 445.734
1202.104, 116.164
1203.326, 1059.500
1204.548, 384.047
1205.770, 748.633
1206.991, 584.844
1208.213, 231.938
1209.434, 742.562
1210.655, 375.219
1211.876, 590.859
1213.096, 971.395
1214.317, 523.148
1215.537, 575.922
1216.757, 709.566
1217.977, 615.523
1219.197, 604.594
1220.417, 755.461
1221.636, 412.133
1222.855, 711.234
1224.074, 429.031
1225.293, 207.562
1226.512, 567.359
1227.731, 570.758
1228.949, 854.379
1230.167, 380.500
1231.385, 794.172
1232.603, 394.395
1233.820, 839.699
1235.038, 431.773
1236.255, 686.523
1237.472, 556.855
1238.689, 615.625
1239.906, 586.441
1241.122, 316.984
1242.338, 606.418
1243.555, 236.121
1244.771, 406.422
1245.986, 587.184
1247.202, 17.148
1248.417, 218.746
1249.633, 589.930
1250.848, 60.723
1252.063, 733.355
1253.277, 386.645
1254.492, 140.465
1255.706, 594.836
1256.920, 480.023
1258.134, 475.469
1259.348, 291.273
1260.562, 121.270
1261.775, 115.852
1262.988, 503.875
1264.201, 6.797
1265.414, 360.578
1266.627, 50.539
1267.839, 0.000
##END=



