##NAMES=Nepheline
##RRUFFID=R040025
##IDEAL CHEMISTRY=Na_3_K(Al_4_Si_4_O_16_)
##LOCALITY=Bancroft, Ontario, Canada
##OWNER=RRUFF
##SOURCE=University of Arizona Mineral Museum
##DESCRIPTION=White massive
##STATUS=The identification of this mineral has been confirmed by X-ray diffraction and chemical analysis
##URL=rruff.info/R040025
##MEASURED CHEMISTRY=(Na_0.77_K_0.23_)_Î£=1_Al_1.00_Si_1.00_O_4_
##PIN_ID=L00445
##ORIENTATION=Laser parallel to -a* (-1 0 0). Fiducial mark perpendicular to laser is parallel to -c [0 0 -1]
121.150, 0.000
122.543, 5.091
123.936, 57.716
125.328, 9.281
126.720, 16.381
128.112, 2.058
129.504, 59.705
130.896, 70.604
132.287, 60.329
133.678, 111.837
135.069, 66.436
136.460, 46.560
137.850, 179.705
139.240, 200.443
140.630, 153.419
142.020, 298.334
143.410, 434.943
144.799, 703.072
146.188, 802.799
147.577, 994.106
148.965, 1316.776
150.354, 1490.602
151.742, 1885.418
153.130, 2321.093
154.517, 2637.518
155.905, 2644.605
157.292, 2532.280
158.679, 2760.480
160.066, 2869.157
161.452, 2928.266
162.839, 2947.766
164.225, 3287.617
165.611, 3287.781
166.996, 3168.332
168.381, 3030.053
169.767, 2953.674
171.152, 2728.666
172.536, 2584.314
173.921, 2419.994
175.305, 2305.552
176.689, 2411.004
178.073, 2476.368
179.456, 2481.660
180.839, 2446.890
182.222, 2562.072
183.605, 2627.214
184.988, 2812.325
186.370, 3127.412
187.752, 3332.482
189.134, 3627.541
190.516, 3872.593
191.898, 4347.643
193.279, 4672.699
194.660, 5517.766
196.041, 6042.850
197.421, 6487.953
198.801, 7053.076
200.182, 7338.225
201.561, 7983.400
202.941, 7808.604
204.321, 7943.805
205.700, 7608.908
207.079, 7253.952
208.457, 6458.965
209.836, 5833.967
211.214, 5108.977
212.592, 4530.201
213.970, 3937.422
215.348, 3439.826
216.725, 3009.220
218.102, 2763.661
219.479, 2504.366
220.856, 2287.486
222.232, 2283.789
223.608, 2042.557
224.984, 2068.183
226.360, 2011.502
227.736, 1964.914
229.111, 1808.415
230.486, 1782.003
231.861, 1705.677
233.236, 1489.430
234.610, 1443.262
235.984, 1207.171
237.358, 1161.153
238.732, 1085.208
240.105, 1059.332
241.479, 903.521
242.852, 737.776
244.224, 772.095
245.597, 656.474
246.969, 740.913
248.342, 595.410
249.713, 699.960
251.085, 674.562
252.457, 759.211
253.828, 993.903
255.199, 1068.635
256.570, 1223.408
257.940, 1378.223
259.310, 1813.152
260.681, 2008.122
262.050, 2203.146
263.420, 2288.257
264.790, 2613.425
266.159, 2828.722
267.528, 2144.052
268.896, 1959.433
270.265, 1764.882
271.633, 1560.354
273.001, 1145.856
274.369, 1081.389
275.737, 1006.978
277.104, 992.623
278.471, 598.309
279.838, 544.053
281.205, 419.903
282.572, 405.812
283.938, 341.779
285.304, 367.769
286.670, 389.922
288.035, 242.558
289.401, 455.713
290.766, 489.322
292.131, 622.970
293.495, 627.283
294.860, 581.866
296.224, 476.692
297.588, 421.729
298.952, 346.955
300.315, 132.355
301.679, 67.933
303.042, 66.356
304.405, 120.531
305.767, 4.622
307.130, 178.604
308.492, 122.533
309.854, 266.403
311.216, 110.253
312.578, 154.057
313.939, 67.832
315.300, 161.565
316.661, 135.280
318.021, 168.925
319.382, 42.562
320.742, 56.150
322.102, 79.706
323.462, 23.243
324.821, 16.754
326.181, 39.767
327.540, 13.679
328.899, 72.900
330.257, 89.511
331.616, 136.149
332.974, 252.811
334.332, 339.483
335.690, 466.170
337.047, 532.857
338.405, 589.556
339.762, 786.257
341.119, 1002.962
342.475, 1359.672
343.832, 1496.383
345.188, 1753.097
346.544, 1899.815
347.900, 2216.535
349.255, 2093.261
350.610, 2629.986
351.965, 2706.717
353.320, 1753.451
354.675, 1530.188
356.029, 1406.925
357.384, 1233.662
358.738, 1100.403
360.091, 937.144
361.445, 973.883
362.798, 1210.622
364.151, 977.363
365.504, 1184.103
366.857, 1080.841
368.209, 1347.578
369.561, 1414.315
370.913, 1501.150
372.265, 1657.887
373.617, 1804.622
374.968, 2021.356
376.319, 2208.062
377.670, 2354.802
379.021, 2681.326
380.371, 3067.775
381.721, 3334.057
383.071, 3930.492
384.421, 4246.918
385.770, 4753.240
387.120, 5309.490
388.469, 5865.641
389.818, 6782.880
391.166, 7358.893
392.515, 8135.285
393.863, 9218.480
395.211, 10196.195
396.559, 10962.320
397.906, 11858.563
399.254, 12495.010
400.601, 12865.788
401.948, 12792.437
403.294, 12943.370
404.641, 13340.250
405.987, 13496.532
407.333, 13572.423
408.679, 13610.020
410.025, 13896.312
411.370, 13672.849
412.715, 13218.995
414.060, 12790.697
415.405, 12018.749
416.749, 11135.382
418.093, 10041.437
419.437, 9107.817
420.781, 7974.786
422.125, 7141.016
423.468, 6378.539
424.811, 5534.740
426.154, 5012.695
427.497, 4443.212
428.839, 4001.299
430.182, 3327.730
431.524, 3345.080
432.866, 3004.233
434.207, 2740.279
435.549, 2542.863
436.890, 2264.041
438.231, 2244.447
439.572, 2060.840
440.912, 2072.816
442.252, 1981.024
443.593, 2008.038
444.932, 1825.000
446.272, 1901.185
447.611, 1928.712
448.951, 2007.216
450.290, 2303.538
451.628, 2340.326
452.967, 2567.246
454.305, 3005.862
455.644, 3671.613
456.981, 4498.604
458.319, 5504.813
459.657, 7121.720
460.994, 8929.258
462.331, 10821.624
463.668, 12287.303
465.004, 12930.985
466.341, 12250.893
467.677, 10738.357
469.013, 8775.019
470.348, 7324.568
471.684, 5886.836
473.019, 4716.803
474.354, 3724.154
475.689, 3026.344
477.024, 2583.754
478.358, 2144.303
479.692, 1911.442
481.026, 1618.313
482.360, 1492.437
483.694, 1313.659
485.027, 1147.685
486.360, 933.173
487.693, 1009.261
489.026, 833.907
490.358, 830.451
491.691, 816.405
493.023, 682.207
494.354, 727.943
495.686, 644.992
497.017, 660.467
498.349, 487.695
499.680, 663.334
501.010, 568.906
502.341, 484.791
503.671, 539.934
505.001, 475.258
506.331, 430.639
507.661, 455.832
508.990, 391.205
510.319, 506.174
511.648, 331.641
512.977, 316.949
514.306, 201.777
515.634, 226.740
516.962, 171.506
518.290, 166.246
519.618, 260.953
520.945, 315.627
522.273, 270.268
523.600, 414.879
524.927, 179.459
526.253, 224.006
527.580, 228.520
528.906, 283.018
530.232, 127.480
531.558, 161.932
532.883, 216.348
534.208, 190.730
535.534, 245.076
536.858, 139.393
538.183, 313.670
539.508, 148.027
540.832, 312.250
542.156, 106.465
543.480, 90.646
544.803, 105.043
546.127, 119.414
547.450, 143.631
548.773, 37.682
550.096, 281.686
551.418, 96.154
552.741, 69.447
554.063, 24.906
555.385, 168.715
556.706, 142.516
558.028, 96.250
559.349, 29.463
560.670, 74.549
561.991, 31.469
563.312, 62.695
564.632, 146.148
565.952, 109.832
567.272, 33.914
568.592, 147.381
569.911, 90.594
571.231, 183.764
572.550, 42.523
573.869, 20.570
575.187, 83.557
576.506, 206.502
577.824, 129.408
579.142, 62.746
580.460, 165.561
581.778, 38.336
583.095, 171.059
584.412, 23.740
585.729, 23.633
587.046, 19.672
588.363, 112.516
589.679, 44.959
590.995, 2.227
592.311, 200.369
593.627, 57.109
594.942, 34.932
596.258, 22.842
597.573, 109.717
598.888, 48.318
600.202, 13.920
601.517, 60.834
602.831, 62.590
604.145, 154.291
605.459, 36.340
606.772, 8.139
608.086, 119.723
609.399, 71.207
610.712, 63.100
612.024, 5.293
613.337, 256.723
614.649, 58.080
615.961, 139.865
617.273, 61.031
618.585, 32.537
619.896, 56.375
621.208, 254.801
622.519, 50.131
623.829, 151.170
625.140, 12.205
626.450, 153.453
627.761, 174.582
629.071, 65.586
630.380, 196.697
631.690, 247.518
632.999, 148.256
634.308, 113.625
635.617, 145.596
636.926, 85.506
638.235, 13.137
639.543, 27.361
640.851, 168.564
642.159, 150.084
643.466, 42.365
644.774, 102.711
646.081, 93.570
647.388, 69.898
648.695, 120.191
650.002, 150.332
651.308, 160.984
652.614, 41.021
653.920, 211.686
655.226, 34.766
656.531, 165.488
657.837, 175.717
659.142, 105.957
660.447, 265.959
661.752, 215.609
663.056, 196.020
664.360, 237.543
665.664, 187.047
666.968, 276.695
668.272, 161.473
669.575, 191.145
670.879, 350.705
672.182, 260.574
673.484, 340.164
674.787, 539.688
676.089, 619.432
677.392, 638.500
678.694, 617.902
679.995, 987.318
681.297, 856.748
682.598, 766.031
683.899, 844.871
685.200, 757.799
686.501, 626.836
687.802, 570.264
689.102, 439.082
690.402, 477.688
691.702, 416.250
693.002, 415.639
694.301, 384.387
695.600, 284.566
696.899, 413.367
698.198, 348.729
699.497, 336.912
700.795, 254.807
702.093, 253.660
703.391, 281.562
704.689, 421.391
705.987, 458.842
707.284, 197.270
708.581, 205.092
709.878, 185.822
711.175, 396.557
712.472, 304.271
713.768, 381.822
715.064, 169.674
716.360, 212.898
717.656, 209.908
718.951, 142.584
720.247, 459.266
721.542, 156.562
722.837, 184.186
724.131, 243.197
725.426, 350.275
726.720, 327.100
728.014, 154.416
729.308, 275.939
730.601, 291.066
731.895, 358.049
733.188, 415.072
734.481, 171.729
735.774, 467.740
737.067, 304.633
738.359, 310.369
739.651, 387.195
740.943, 392.027
742.235, 94.240
743.526, 188.832
744.818, 315.449
746.109, 170.676
747.400, 204.043
748.691, 210.463
749.981, 290.295
751.271, 261.477
752.562, 123.531
753.851, 299.393
755.141, 159.619
756.431, 46.443
757.720, 328.705
759.009, 283.760
760.298, 149.537
761.587, 193.957
762.875, 227.324
764.163, 322.836
765.451, 127.838
766.739, 42.668
768.027, 205.750
769.314, 211.656
770.601, 96.273
771.888, 231.619
773.175, 136.221
774.462, 220.141
775.748, 169.176
777.034, 45.148
778.320, 178.998
779.606, 174.115
780.892, 107.096
782.177, 132.148
783.462, 157.250
784.747, 131.529
786.032, 196.646
787.317, 221.941
788.601, 53.213
789.885, 191.395
791.169, 74.195
792.453, 8.477
793.736, 279.520
795.019, 12.545
796.303, 2.805
797.585, 18.279
798.868, 184.992
800.151, 49.191
801.433, 86.717
802.715, 156.885
803.997, 181.021
805.279, 45.252
806.560, 179.492
807.841, 12.359
809.122, 43.256
810.403, 0.697
811.684, 73.385
812.964, 57.477
814.245, 101.195
815.525, 235.602
816.804, 0.234
818.084, 26.188
819.363, 207.982
820.643, 121.914
821.922, 83.809
823.201, 89.895
824.479, 103.691
825.758, 17.912
827.036, 71.938
828.314, 76.100
829.592, 10.240
830.869, 244.352
832.147, 68.459
833.424, 52.537
834.701, 36.590
835.977, 60.621
837.254, 264.625
838.530, 71.391
839.807, 82.572
841.082, 83.490
842.358, 110.385
843.634, 164.234
844.909, 208.066
846.184, 8.125
847.459, 55.656
848.734, 30.557
850.008, 23.090
851.283, 123.186
852.557, 100.477
853.831, 154.119
855.105, 12.508
856.378, 250.832
857.651, 35.730
858.925, 2.184
860.197, 31.344
861.470, 74.357
862.743, 167.389
864.015, 89.623
865.287, 193.832
866.559, 197.242
867.831, 0.670
869.102, 53.490
870.373, 166.512
871.645, 179.512
872.915, 202.256
874.186, 105.662
875.457, 108.449
876.727, 68.551
877.997, 264.652
879.267, 108.061
880.536, 71.457
881.806, 134.262
883.075, 167.607
884.344, 1.000
885.613, 224.381
886.882, 237.752
888.150, 330.641
889.419, 63.996
890.687, 17.340
891.954, 60.676
893.222, 134.002
894.490, 247.326
895.757, 159.896
897.024, 2.877
898.291, 146.199
899.557, 209.092
900.824, 122.141
902.090, 275.209
903.356, 168.543
904.622, 61.891
905.888, 234.703
907.153, 118.059
908.418, 161.062
909.683, 69.330
910.948, 132.703
912.213, 426.070
913.477, 79.047
914.741, 202.213
916.005, 185.533
917.269, 198.898
918.533, 91.799
919.796, 114.346
921.060, 317.590
922.323, 140.854
923.585, 313.637
924.848, 176.982
926.111, 219.934
927.373, 223.244
928.635, 206.385
929.897, 165.326
931.158, 428.514
932.420, 271.682
933.681, 294.582
934.942, 327.586
936.203, 260.695
937.463, 353.703
938.724, 386.982
939.984, 310.324
941.244, 239.002
942.504, 432.256
943.764, 415.117
945.023, 287.709
946.282, 391.109
947.541, 293.760
948.800, 486.062
950.059, 497.561
951.317, 710.945
952.575, 373.889
953.833, 1021.197
955.091, 694.479
956.349, 908.094
957.606, 990.918
958.864, 1134.305
960.121, 1417.006
961.377, 1717.240
962.634, 2299.773
963.891, 2592.750
965.147, 3075.662
966.403, 3608.762
967.659, 3502.166
968.914, 3704.758
970.170, 3766.674
971.425, 3520.076
972.680, 3543.281
973.935, 3291.311
975.190, 3154.391
976.444, 3087.535
977.698, 2810.326
978.952, 2903.346
980.206, 3298.307
981.460, 3641.080
982.713, 4318.758
983.967, 5402.039
985.220, 6395.293
986.473, 7629.801
987.725, 7262.832
988.978, 7166.723
990.230, 6415.355
991.482, 5678.504
992.734, 5337.598
993.986, 4820.877
995.237, 4534.955
996.488, 4129.027
997.739, 3661.629
998.990, 3301.590
1000.241, 2423.303
1001.492, 2316.605
1002.742, 2077.355
1003.992, 1820.752
1005.242, 1734.887
1006.492, 1277.936
1007.741, 1111.523
1008.990, 1213.613
1010.239, 907.148
1011.488, 1050.580
1012.737, 965.111
1013.986, 778.840
1015.234, 1018.043
1016.482, 712.393
1017.730, 716.781
1018.978, 611.100
1020.225, 584.949
1021.473, 549.242
1022.720, 394.281
1023.967, 478.824
1025.213, 623.252
1026.460, 574.779
1027.706, 635.402
1028.953, 480.262
1030.198, 474.916
1031.444, 468.590
1032.690, 443.270
1033.935, 627.316
1035.180, 851.516
1036.425, 616.443
1037.670, 940.611
1038.915, 665.785
1040.159, 769.598
1041.403, 643.256
1042.647, 807.979
1043.891, 802.008
1045.135, 546.188
1046.378, 651.375
1047.621, 644.906
1048.864, 529.082
1050.107, 793.420
1051.350, 717.793
1052.592, 632.246
1053.835, 1046.275
1055.077, 730.359
1056.318, 835.803
1057.560, 779.783
1058.802, 784.219
1060.043, 668.617
1061.284, 672.588
1062.525, 528.031
1063.765, 691.934
1065.006, 536.029
1066.246, 640.412
1067.486, 734.322
1068.726, 618.238
1069.966, 642.148
1071.205, 586.025
1072.445, 650.221
1073.684, 564.078
1074.923, 297.916
1076.161, 521.889
1077.400, 635.695
1078.638, 400.094
1079.876, 474.041
1081.114, 458.111
1082.352, 421.951
1083.590, 635.773
1084.827, 519.869
1086.064, 544.715
1087.301, 488.484
1088.538, 362.246
1089.775, 655.984
1091.011, 489.727
1092.247, 584.230
1093.483, 367.936
1094.719, 402.389
1095.955, 496.250
1097.190, 249.898
1098.425, 294.090
1099.660, 577.709
1100.895, 151.301
1102.130, 335.732
1103.364, 239.307
1104.598, 133.459
1105.833, 557.477
1107.066, 450.980
1108.300, 204.988
1109.534, 478.453
1110.767, 231.920
1112.000, 225.803
1113.233, 489.209
1114.466, 253.121
1115.698, 367.406
1116.930, 270.736
1118.163, 94.256
1119.394, 248.527
1120.626, 271.957
1121.858, 346.254
1123.089, 250.023
1124.320, 243.449
1125.551, 288.000
1126.782, 341.660
1128.013, 34.180
1129.243, 249.875
1130.473, 86.746
1131.703, 180.125
1132.933, 173.055
1134.163, 22.375
1135.392, 285.160
1136.621, 138.531
1137.850, 167.227
1139.079, 368.844
1140.308, 142.336
1141.536, 477.508
1142.765, 111.664
1143.993, 115.305
1145.221, 405.059
1146.448, 121.281
1147.676, 531.727
1148.903, 212.152
1150.130, 74.066
1151.357, 333.566
1152.584, 168.488
1153.810, 201.391
1155.037, 438.945
1156.263, 223.008
1157.489, 176.465
1158.715, 265.957
1159.940, 47.863
1161.166, 302.277
1162.391, 297.074
1163.616, 159.590
1164.841, 173.957
1166.065, 92.586
1167.290, 265.004
1168.514, 243.363
1169.738, 65.867
1170.962, 190.125
1172.185, 222.590
1173.409, 95.180
1174.632, 397.973
1175.855, 141.930
1177.078, 184.684
1178.301, 447.574
1179.523, 209.492
1180.746, 361.766
1181.968, 237.566
1183.190, 180.457
1184.412, 363.121
1185.633, 126.219
1186.855, 407.914
1188.076, 400.723
1189.297, 194.191
1190.518, 405.871
1191.738, 406.480
1192.959, 167.066
1194.179, 549.234
1195.399, 411.957
1196.619, 372.102
1197.838, 383.281
1199.058, 363.797
1200.277, 464.117
1201.496, 437.234
1202.715, 147.426
1203.934, 777.797
1205.152, 389.426
1206.371, 378.922
1207.589, 629.098
1208.807, 149.711
1210.024, 529.254
1211.242, 469.906
1212.459, 399.859
1213.677, 689.750
1214.894, 511.004
1216.110, 510.141
1217.327, 579.879
1218.543, 441.055
1219.760, 519.773
1220.976, 529.570
1222.192, 488.516
1223.407, 818.027
1224.623, 392.277
1225.838, 501.160
1227.053, 471.633
1228.268, 592.484
1229.483, 750.637
1230.697, 479.191
1231.912, 299.145
1233.126, 697.078
1234.340, 597.688
1235.554, 635.512
1236.767, 634.164
1237.981, 373.531
1239.194, 771.176
1240.407, 379.742
1241.620, 518.156
1242.832, 835.645
1244.045, 433.078
1245.257, 611.496
1246.469, 758.820
1247.681, 366.750
1248.893, 573.961
1250.104, 431.117
1251.315, 459.105
1252.527, 656.137
1253.738, 453.238
1254.948, 652.152
1256.159, 579.051
1257.369, 476.512
1258.579, 743.191
1259.789, 459.809
1260.999, 367.664
1262.209, 854.117
1263.418, 540.469
1264.628, 356.633
1265.837, 552.805
1267.046, 339.031
1268.254, 465.473
1269.463, 541.301
1270.671, 267.855
1271.879, 474.164
1273.087, 349.652
1274.295, 364.289
1275.502, 519.492
1276.710, 40.262
1277.917, 656.090
1279.124, 200.664
1280.331, 23.781
1281.537, 468.633
1282.744, 252.594
1283.950, 47.582
1285.156, 391.855
1286.362, 85.363
1287.568, 220.312
1288.773, 333.480
1289.978, 23.500
1291.184, 309.938
1292.389, 436.438
1293.593, 40.297
1294.798, 232.543
1296.002, 158.695
1297.206, 64.723
1298.410, 406.945
1299.614, 0.805
1300.818, 141.766
1302.021, 243.871
1303.225, 34.363
1304.428, 707.508
1305.631, 78.375
1306.833, 50.184
1308.036, 411.844
1309.238, 117.191
1310.440, 186.367
1311.642, 393.891
1312.844, 25.242
1314.045, 345.379
1315.247, 55.152
1316.448, 94.680
1317.649, 365.418
1318.850, 138.320
1320.051, 48.883
1321.251, 178.281
1322.451, 112.262
1323.651, 347.918
1324.851, 247.164
1326.051, 163.078
1327.251, 115.922
1328.450, 134.574
1329.649, 73.867
1330.848, 302.047
1332.047, 91.297
1333.245, 30.410
1334.444, 258.527
1335.642, 252.566
1336.840, 486.477
1338.038, 124.035
1339.236, 52.711
1340.433, 541.070
1341.630, 110.828
1342.828, 417.145
1344.025, 444.941
1345.221, 146.930
1346.418, 440.898
1347.614, 377.422
1348.810, 105.324
1350.006, 572.684
1351.202, 369.922
1352.398, 247.590
1353.593, 484.270
1354.789, 201.805
1355.984, 349.109
1357.179, 346.062
1358.373, 73.406
1359.568, 490.676
1360.762, 328.020
1361.956, 55.211
1363.150, 542.035
1364.344, 259.898
1365.538, 446.992
1366.731, 293.891
1367.924, 39.070
1369.117, 407.359
1370.310, 74.363
1371.503, 148.863
1372.695, 538.090
1373.888, 415.102
1375.080, 101.887
1376.272, 658.016
1377.464, 20.043
1378.655, 523.012
1379.847, 315.199
1381.038, 136.484
1382.229, 537.461
1383.420, 298.727
1384.610, 320.469
1385.801, 661.203
1386.991, 671.566
1388.181, 282.410
1389.371, 833.676
1390.561, 344.363
1391.750, 643.828
1392.940, 634.535
1394.129, 264.074
1395.318, 822.965
1396.507, 501.715
1397.696, 100.371
1398.884, 519.180
1400.072, 364.883
1401.260, 527.484
1402.448, 875.066
1403.636, 209.906
1404.824, 554.699
1406.011, 574.070
1407.198, 431.324
1408.385, 698.691
1409.572, 444.859
1410.758, 365.848
1411.945, 720.199
1413.131, 289.020
1414.317, 320.188
1415.503, 720.551
1416.689, 154.449
1417.874, 801.484
1419.060, 509.691
1420.245, 163.027
1421.430, 783.965
1422.615, 462.605
1423.799, 315.582
1424.984, 596.125
1426.168, 427.195
1427.352, 375.430
1428.536, 688.297
1429.720, 110.348
1430.903, 451.633
1432.087, 628.133
1433.270, 360.773
1434.453, 753.480
1435.635, 444.652
1436.818, 535.727
1438.001, 787.160
1439.183, 188.531
1440.365, 388.273
1441.547, 976.344
1442.728, 377.992
1443.910, 739.062
1445.091, 510.621
1446.272, 465.480
1447.453, 747.137
1448.634, 535.727
1449.815, 342.359
1450.995, 1028.918
1452.176, 578.273
1453.356, 717.395
1454.535, 1035.742
1455.715, 584.195
1456.895, 783.953
1458.074, 760.785
1459.253, 364.801
1460.432, 1031.539
1461.611, 889.766
1462.790, 354.438
1463.968, 1031.168
1465.146, 598.293
1466.324, 574.566
1467.502, 1018.023
1468.680, 372.316
1469.858, 780.250
1471.035, 894.914
1472.212, 462.121
1473.389, 1040.398
1474.566, 658.797
1475.742, 664.262
1476.919, 1043.508
1478.095, 72.871
1479.271, 642.125
1480.447, 1179.414
1481.623, 368.484
1482.798, 567.574
1483.974, 757.570
1485.149, 357.637
1486.324, 637.906
1487.499, 718.262
1488.674, 318.742
1489.848, 929.500
1491.022, 470.617
1492.196, 372.156
1493.370, 994.105
1494.544, 26.758
1495.718, 410.027
1496.891, 1083.934
1498.064, 288.496
1499.237, 591.055
1500.410, 686.879
1501.583, 153.590
1502.755, 651.195
1503.928, 699.809
1505.100, 29.629
1506.272, 1070.840
1507.443, 267.309
1508.615, 411.262
1509.786, 957.312
1510.958, 253.805
1512.129, 334.949
1513.300, 733.156
1514.470, 409.688
1515.641, 896.672
1516.811, 694.398
1517.981, 4.234
1519.151, 0.000
##END=



