##NAMES=Nepheline
##RRUFFID=R040025
##IDEAL CHEMISTRY=Na_3_K(Al_4_Si_4_O_16_)
##LOCALITY=Bancroft, Ontario, Canada
##OWNER=RRUFF
##SOURCE=University of Arizona Mineral Museum
##DESCRIPTION=White massive
##STATUS=The identification of this mineral has been confirmed by X-ray diffraction and chemical analysis
##URL=rruff.info/R040025
##MEASURED CHEMISTRY=(Na_0.77_K_0.23_)_Î£=1_Al_1.00_Si_1.00_O_4_
##PIN_ID=L00106
##ORIENTATION=Laser parallel to c* (0 0 1). Fiducial mark perpendicular to laser is parallel to b [0 1 0]
137.2800, 0.0000000E+00
138.6690, 1.949219
140.0590, 60.48242
141.4480, 52.82422
142.8370, 145.1318
144.2250, 198.5020
145.6140, 446.2930
147.0020, 543.4629
148.3900, 780.4951
149.7780, 922.5762
151.1660, 943.9199
152.5530, 1071.359
153.9400, 1059.820
155.3270, 970.1338
156.7140, 778.1221
158.1000, 572.7354
159.4860, 369.4307
160.8720, 177.4072
162.2580, 160.2451
163.6440, 25.55176
165.0290, 26.69727
166.4140, 53.79736
167.7990, 98.46387
169.1840, 60.07764
170.5680, 74.97705
171.9520, 202.1211
173.3360, 117.9097
174.7200, 422.4775
176.1040, 454.7969
177.4870, 563.9531
178.8700, 587.9443
180.2530, 685.9707
181.6360, 812.7925
183.0180, 995.3975
184.4000, 1146.195
185.7820, 1289.482
187.1640, 1500.988
188.5460, 1682.702
189.9270, 1804.761
191.3080, 2293.297
192.6890, 2370.297
194.0700, 2970.586
195.4500, 3180.484
196.8300, 3553.839
198.2100, 3983.858
199.5900, 4312.903
200.9700, 4691.028
202.3490, 4798.288
203.7280, 4904.727
205.1070, 4770.390
206.4860, 4595.316
207.8640, 4374.636
209.2430, 4080.491
210.6210, 3815.406
211.9980, 3458.656
213.3760, 3364.756
214.7530, 3226.448
216.1300, 3263.234
217.5070, 3302.692
218.8840, 3589.110
220.2610, 3754.704
221.6370, 4115.169
223.0130, 4452.589
224.3890, 4845.251
225.7640, 4899.310
227.1400, 5066.983
228.5150, 5037.160
229.8900, 4858.649
231.2640, 4623.265
232.6390, 4080.985
234.0130, 3902.025
235.3870, 3262.308
236.7610, 3068.071
238.1350, 2496.389
239.5080, 2211.761
240.8810, 1907.181
242.2540, 1648.637
243.6270, 1528.120
244.9990, 1316.621
246.3720, 1135.128
247.7440, 953.6333
249.1160, 890.1299
250.4870, 776.6108
251.8590, 715.0781
253.2300, 851.5278
254.6010, 904.9575
255.9720, 1133.367
257.3420, 1271.749
258.7120, 1549.084
260.0830, 1855.366
261.4520, 2194.584
262.8220, 2562.726
264.1920, 2816.780
265.5610, 3053.745
266.9300, 3103.620
268.2990, 2908.405
269.6670, 2573.103
271.0360, 2154.711
272.4040, 1868.233
273.7720, 1512.668
275.1390, 1254.008
276.5070, 945.2402
277.8740, 689.3433
279.2410, 541.3271
280.6080, 426.2046
281.9740, 259.9771
283.3410, 231.6455
284.7070, 102.2153
286.0730, 118.6948
287.4390, 80.09082
288.8040, 33.59473
290.1700, 107.6294
291.5350, 63.74072
292.8990, 94.70166
294.2640, 136.4570
295.6290, 124.9614
296.9930, 32.22070
298.3570, 19.73242
299.7200, 35.89111
301.0840, 43.32275
302.4470, 104.7505
303.8110, 135.6753
305.1730, 149.6274
306.5360, 159.8237
307.8990, 119.2861
309.2610, 159.0225
310.6230, 183.0728
311.9850, 136.4321
313.3460, 66.06641
314.7080, 24.95264
316.0690, 50.22607
317.4300, 44.07080
318.7900, 47.12158
320.1510, 116.9639
321.5110, 162.6548
322.8710, 210.1953
324.2310, 335.5771
325.5910, 427.7373
326.9500, 544.6221
328.3100, 640.4878
329.6690, 733.3921
331.0270, 834.5054
332.3860, 911.3052
333.7440, 1019.648
335.1020, 1107.906
336.4600, 1251.561
337.8180, 1452.678
339.1750, 1641.407
340.5330, 2095.988
341.8900, 2505.413
343.2470, 2782.680
344.6030, 3346.769
345.9600, 3836.672
347.3160, 4328.380
348.6720, 4654.910
350.0280, 4929.261
351.3830, 4918.437
352.7380, 4718.438
354.0940, 4438.278
355.4480, 4059.960
356.8030, 3849.479
358.1580, 3465.825
359.5120, 3333.997
360.8660, 3130.022
362.2200, 3094.066
363.5730, 3126.169
364.9270, 3287.245
366.2800, 3380.204
367.6330, 3506.090
368.9860, 3780.867
370.3380, 4055.462
371.6900, 4305.365
373.0430, 4785.916
374.3940, 5176.453
375.7460, 5713.284
377.0980, 6119.816
378.4490, 6856.088
379.8000, 7632.248
381.1510, 8438.146
382.5010, 9503.744
383.8520, 10458.96
385.2020, 11593.87
386.5520, 13218.47
387.9010, 14782.74
389.2510, 16316.93
390.6000, 18070.91
391.9490, 20035.01
393.2980, 21798.97
394.6470, 23522.69
395.9950, 25266.59
397.3440, 26120.22
398.6920, 26653.90
400.0390, 26707.58
401.3870, 26431.18
402.7340, 25914.67
404.0820, 24388.29
405.4290, 23121.68
406.7750, 21475.11
408.1220, 20128.32
409.4680, 19021.20
410.8140, 18113.80
412.1600, 17625.93
413.5060, 17153.45
414.8510, 16977.67
416.1970, 17058.36
417.5420, 17169.22
418.8860, 17780.85
420.2310, 18012.44
421.5750, 18443.97
422.9200, 18245.45
424.2640, 17656.87
425.6070, 17098.25
426.9510, 16029.57
428.2940, 14810.99
429.6370, 13522.81
430.9800, 12174.46
432.3230, 11076.36
433.6660, 9988.444
435.0080, 9100.496
436.3500, 8352.381
437.6920, 7644.417
439.0330, 7136.004
440.3750, 6606.460
441.7160, 6246.717
443.0570, 5795.426
444.3980, 5643.102
445.7380, 5459.337
447.0790, 5303.062
448.4190, 5086.753
449.7590, 4881.360
451.0990, 4758.512
452.4380, 4449.768
453.7770, 4272.868
455.1160, 4380.818
456.4550, 4640.665
457.7940, 5072.266
459.1320, 5903.329
460.4710, 6851.557
461.8090, 7549.568
463.1470, 8026.809
464.4840, 7920.637
465.8220, 7422.299
467.1590, 6562.752
468.4960, 5652.597
469.8320, 4854.730
471.1690, 4106.655
472.5050, 3447.625
473.8420, 2918.584
475.1770, 2456.970
476.5130, 2116.732
477.8490, 1932.864
479.1840, 1614.223
480.5190, 1616.342
481.8540, 1360.383
483.1890, 1332.713
484.5230, 1328.126
485.8570, 1286.797
487.1910, 1350.297
488.5250, 1517.246
489.8590, 1797.074
491.1920, 2203.784
492.5250, 2946.650
493.8580, 4015.048
495.1910, 5236.173
496.5240, 6315.194
497.8560, 6505.272
499.1880, 5874.153
500.5200, 4804.370
501.8520, 3668.266
503.1830, 2819.143
504.5140, 2213.869
505.8460, 1849.883
507.1760, 1526.471
508.5070, 1350.634
509.8380, 1198.558
511.1680, 961.9209
512.4980, 925.2803
513.8280, 828.9082
515.1570, 797.9595
516.4870, 677.1255
517.8160, 591.2158
519.1450, 587.2148
520.4740, 546.1074
521.8020, 487.9922
523.1310, 439.4614
524.4590, 411.8027
525.7870, 405.8784
527.1140, 390.8970
528.4420, 384.9600
529.7690, 396.8667
531.0960, 287.7217
532.4230, 329.5171
533.7500, 281.3286
535.0760, 390.0161
536.4030, 387.7080
537.7290, 391.2944
539.0550, 363.8301
540.3800, 370.3203
541.7060, 366.7607
543.0310, 373.1567
544.3560, 350.3232
545.6810, 327.5942
547.0050, 305.0967
548.3300, 243.3320
549.6540, 227.5229
550.9780, 151.6704
552.3020, 144.7720
553.6250, 170.8281
554.9490, 104.8403
556.2720, 143.8081
557.5950, 116.7344
558.9170, 100.6177
560.2400, 105.4561
561.5620, 115.2505
562.8840, 68.00049
564.2060, 106.7056
565.5280, 82.36670
566.8490, 117.9834
568.1710, 182.5571
569.4920, 82.09082
570.8130, 115.5835
572.1330, 286.0381
573.4540, 213.4619
574.7740, 375.8550
576.0940, 410.2354
577.4140, 460.5723
578.7330, 594.8770
580.0530, 667.4570
581.3720, 688.7085
582.6910, 643.5420
584.0100, 526.5181
585.3280, 440.6660
586.6470, 308.7822
587.9650, 197.8672
589.2830, 220.9155
590.6010, 146.9297
591.9180, 85.90723
593.2350, 79.84473
594.5530, 103.7446
595.8690, 52.60693
597.1860, 8.430176
598.5030, 10.21484
599.8190, 20.91357
601.1350, 22.99463
602.4510, 25.01855
603.7670, 114.8931
605.0820, 159.7788
606.3970, 250.5625
607.7130, 283.2109
609.0270, 330.8477
610.3420, 383.1152
611.6570, 369.8159
612.9710, 429.9116
614.2850, 382.6055
615.5990, 277.4351
616.9120, 259.3848
618.2260, 243.0972
619.5390, 53.99365
620.8520, 128.8013
622.1650, 0.6142580
623.4770, 24.60059
624.7900, 77.55664
626.1020, 44.46582
627.4140, 79.60059
628.7260, 37.38965
630.0370, 68.81543
631.3490, 30.93115
632.6600, 34.80078
633.9710, 32.60156
635.2810, 23.06201
636.5920, 6.809082
637.9020, 69.47412
639.2120, 33.08789
640.5220, 46.74658
641.8320, 8.468262
643.1420, 25.83057
644.4510, 34.87598
645.7600, 25.70117
647.0690, 10.24707
648.3780, 47.12842
649.6860, 21.78223
650.9940, 30.44873
652.3030, 59.87207
653.6100, 27.43066
654.9180, 32.10498
656.2260, 33.90869
657.5330, 36.29834
658.8400, 3.168945
660.1470, 51.78711
661.4530, 13.03906
662.7600, 36.21582
664.0660, 14.38281
665.3720, 61.90527
666.6780, 57.39990
667.9840, 24.24316
669.2890, 16.96240
670.5940, 7.187500
671.8990, 65.56104
673.2040, 23.40283
674.5090, 25.84473
675.8130, 34.42725
677.1170, 45.01611
678.4210, 33.14209
679.7250, 117.3623
681.0290, 132.5991
682.3320, 238.4604
683.6350, 440.2935
684.9380, 153.6636
686.2410, 390.4028
687.5440, 729.9854
688.8460, 280.3193
690.1480, 156.4087
691.4500, 255.7051
692.7520, 156.0806
694.0540, 171.8184
695.3550, 208.5698
696.6560, 273.4468
697.9570, 187.1074
699.2580, 281.4341
700.5590, 220.1060
701.8590, 283.3174
703.1590, 261.8174
704.4590, 177.2021
705.7590, 188.3276
707.0580, 273.3872
708.3580, 346.1284
709.6570, 254.8413
710.9560, 329.6626
712.2540, 239.5137
713.5530, 302.6470
714.8510, 407.6123
716.1490, 448.1421
717.4470, 503.6919
718.7450, 576.2837
720.0430, 512.6787
721.3400, 544.2373
722.6370, 595.6953
723.9340, 489.3032
725.2310, 301.1831
726.5270, 359.6450
727.8230, 326.2480
729.1200, 171.5669
730.4150, 219.5840
731.7110, 124.2803
733.0070, 204.9634
734.3020, 131.6343
735.5970, 50.29297
736.8920, 119.9365
738.1870, 49.56738
739.4810, 90.18457
740.7750, 186.7881
742.0700, 162.3804
743.3630, 164.8164
744.6570, 235.7910
745.9510, 244.8662
747.2440, 289.6343
748.5370, 286.2793
749.8300, 271.3740
751.1230, 244.2437
752.4150, 201.6313
753.7070, 139.8384
754.9990, 73.05713
756.2910, 58.91162
757.5830, 30.36426
758.8740, 40.68945
760.1660, 42.35645
761.4570, 65.21387
762.7480, 125.4541
764.0380, 8.835938
765.3290, 88.22461
766.6190, 88.60400
767.9090, 47.02686
769.1990, 93.30322
770.4890, 56.62305
771.7780, 26.93213
773.0670, 85.18750
774.3570, 45.37793
775.6450, 70.77832
776.9340, 74.31201
778.2230, 40.65576
779.5110, 57.93750
780.7990, 81.44092
782.0870, 38.80762
783.3740, 100.3198
784.6620, 40.44141
785.9490, 79.90625
787.2360, 50.21094
788.5230, 21.40820
789.8100, 17.71338
791.0960, 8.537598
792.3830, 11.15771
793.6690, 23.59570
794.9550, 41.79541
796.2400, 69.43262
797.5260, 26.60400
798.8110, 38.84521
800.0960, 58.93896
801.3810, 10.63330
802.6660, 13.23926
803.9500, 63.53857
805.2340, 17.05127
806.5180, 2.274414
807.8020, 9.142578
809.0860, 16.08105
810.3700, 27.60693
811.6530, 42.43311
812.9360, 0.3159180
814.2190, 30.68848
815.5020, 30.24268
816.7840, 77.25146
818.0660, 7.100098
819.3480, 30.90186
820.6300, 27.74170
821.9120, 13.22412
823.1940, 71.21826
824.4750, 1.705566
825.7560, 54.70703
827.0370, 0.3754880
828.3180, 50.27783
829.5980, 15.80957
830.8780, 4.125000
832.1580, 7.897949
833.4380, 17.02051
834.7180, 2.292480
835.9980, 65.62793
837.2770, 41.11426
838.5560, 5.299316
839.8350, 35.12549
841.1140, 9.354980
842.3920, 16.15283
843.6710, 25.34131
844.9490, 24.08105
846.2270, 6.432617
847.5040, 105.9883
848.7820, 18.46240
850.0590, 19.06689
851.3370, 74.38867
852.6130, 8.159180
853.8900, 15.28271
855.1670, 27.27100
856.4430, 52.84277
857.7190, 31.55713
858.9950, 16.95459
860.2710, 66.35156
861.5470, 22.74854
862.8220, 72.14648
864.0970, 45.54541
865.3720, 2.055176
866.6470, 4.658203
867.9220, 3.715820
869.1960, 40.12598
870.4700, 22.51953
871.7440, 83.91504
873.0180, 85.31299
874.2920, 35.71240
875.5650, 100.1157
876.8380, 35.52246
878.1110, 56.93164
879.3840, 131.3477
880.6570, 45.77246
881.9290, 49.20801
883.2010, 48.65527
884.4730, 125.1069
885.7450, 88.54150
887.0170, 68.98877
888.2880, 135.4341
889.5590, 97.57666
890.8310, 128.0146
892.1010, 148.1631
893.3720, 177.4849
894.6430, 104.9287
895.9130, 174.3691
897.1830, 183.8091
898.4530, 125.2515
899.7220, 158.6963
900.9920, 219.1426
902.2610, 79.59766
903.5300, 199.0615
904.7990, 161.5283
906.0680, 190.9980
907.3360, 245.4722
908.6050, 97.82129
909.8730, 201.1245
911.1410, 119.3169
912.4080, 197.5669
913.6760, 203.8330
914.9430, 162.2007
916.2110, 212.7051
917.4770, 173.6636
918.7440, 170.1436
920.0110, 246.6294
921.2770, 163.7275
922.5430, 120.2314
923.8090, 216.5981
925.0750, 121.8457
926.3410, 207.3413
927.6060, 134.6763
928.8710, 156.1255
930.1360, 233.6104
931.4010, 156.9648
932.6660, 151.4009
933.9300, 232.9390
935.1940, 80.31006
936.4580, 171.8564
937.7220, 166.2603
938.9860, 136.8198
940.2490, 212.2822
941.5120, 228.6411
942.7760, 180.9678
944.0380, 238.0396
945.3010, 203.2041
946.5640, 253.6084
947.8260, 290.1055
949.0880, 369.7217
950.3500, 355.1885
951.6110, 358.7139
952.8730, 397.3418
954.1340, 367.6704
955.3950, 498.0601
956.6560, 633.7178
957.9170, 552.2104
959.1780, 676.2358
960.4380, 724.6050
961.6980, 871.7896
962.9580, 889.3965
964.2180, 962.2036
965.4770, 1022.306
966.7370, 1104.069
967.9960, 1278.501
969.2550, 1310.251
970.5140, 1519.120
971.7720, 1652.854
973.0310, 1883.762
974.2890, 1933.500
975.5470, 2403.142
976.8050, 2625.631
978.0620, 3115.202
979.3200, 3757.661
980.5770, 4420.503
981.8340, 5402.186
983.0910, 6254.845
984.3480, 7496.960
985.6040, 8599.812
986.8610, 9862.438
988.1170, 10755.33
989.3730, 11398.23
990.6280, 11070.54
991.8840, 10953.46
993.1390, 9885.646
994.3940, 8938.570
995.6490, 8289.914
996.9040, 7332.887
998.1580, 6435.209
999.4130, 5398.630
1000.667, 4821.720
1001.921, 4103.445
1003.175, 3446.415
1004.428, 2958.711
1005.682, 2613.446
1006.935, 2154.828
1008.188, 2024.830
1009.441, 1794.985
1010.693, 1644.018
1011.946, 1518.354
1013.198, 1457.404
1014.450, 1376.463
1015.702, 1289.527
1016.954, 1126.298
1018.205, 1158.963
1019.457, 1125.690
1020.708, 989.0039
1021.959, 1012.193
1023.209, 872.3906
1024.460, 970.5269
1025.710, 866.0405
1026.960, 970.2588
1028.210, 1126.623
1029.460, 937.3354
1030.710, 1220.735
1031.959, 1296.046
1033.208, 1310.018
1034.457, 1347.106
1035.706, 1300.555
1036.955, 1119.836
1038.203, 1114.043
1039.451, 893.8057
1040.699, 1077.021
1041.947, 738.5811
1043.195, 698.0181
1044.442, 730.2627
1045.690, 464.5117
1046.937, 521.7637
1048.184, 564.3721
1049.430, 481.1021
1050.677, 625.3862
1051.923, 490.1108
1053.169, 430.5327
1054.415, 572.9282
1055.661, 506.2271
1056.907, 650.6699
1058.152, 528.9736
1059.397, 581.3477
1060.642, 668.6567
1061.887, 625.0967
1063.132, 743.7070
1064.376, 786.0269
1065.620, 849.8560
1066.864, 883.1797
1068.108, 900.7334
1069.352, 1036.167
1070.595, 1151.500
1071.839, 1120.168
1073.082, 1260.595
1074.325, 1369.947
1075.567, 1334.511
1076.810, 1465.866
1078.052, 1491.222
1079.294, 1541.995
1080.536, 1667.389
1081.778, 1604.902
1083.020, 1610.348
1084.261, 1692.747
1085.502, 1374.152
1086.743, 1445.556
1087.984, 1368.962
1089.225, 1238.611
1090.465, 1150.050
1091.706, 1037.295
1092.946, 913.7471
1094.186, 822.5986
1095.425, 714.1689
1096.665, 630.6113
1097.904, 634.0977
1099.143, 601.8164
1100.382, 520.2578
1101.621, 445.7168
1102.859, 403.1572
1104.098, 377.6006
1105.336, 396.0635
1106.574, 481.5068
1107.812, 280.9492
1109.049, 430.6074
1110.287, 311.0527
1111.524, 189.5000
1112.761, 355.3027
1113.998, 263.7676
1115.235, 225.2344
1116.471, 295.7100
1117.707, 220.3203
1118.944, 364.7930
1120.180, 213.2666
1121.415, 133.7373
1122.651, 374.2148
1123.886, 332.6943
1125.121, 339.1855
1126.356, 186.6768
1127.591, 163.1826
1128.826, 120.6855
1130.060, 205.2354
1131.294, 59.73047
1132.528, 67.91602
1133.762, 137.5127
1134.996, 26.99805
1136.229, 138.7539
1137.463, 138.2305
1138.696, 78.47461
1139.929, 49.05078
1141.162, 1.597656
1142.394, 53.89746
1143.626, 40.56738
1144.859, 12.36719
1146.091, 107.8467
1147.322, 15.70996
1148.554, 1.502930
1149.785, 85.30762
1151.017, 26.86621
1152.248, 163.8936
1153.479, 39.47656
1154.709, 23.26270
1155.940, 161.8838
1157.170, 8.354492
1158.400, 119.1621
1159.630, 5.685547
1160.860, 69.84668
1162.089, 49.16016
1163.319, 61.90527
1164.548, 73.04004
1165.777, 99.32812
1167.006, 72.57324
1168.234, 3.936523
1169.463, 41.23828
1170.691, 42.16895
1171.919, 69.16113
1173.147, 5.174805
1174.375, 45.88281
1175.602, 13.49121
1176.830, 26.20312
1178.057, 20.39844
1179.284, 35.22852
1180.511, 45.35059
1181.737, 12.92871
1182.963, 12.16797
1184.190, 54.43164
1185.416, 132.1807
1186.642, 22.71191
1187.867, 143.6650
1189.093, 3.737305
1190.318, 34.86328
1191.543, 83.58594
1192.768, 99.57910
1193.993, 140.5381
1195.217, 10.55859
1196.442, 0.8916020
1197.666, 139.3799
1198.890, 15.33008
1200.114, 10.13477
1201.337, 72.95312
1202.561, 117.2520
1203.784, 65.06445
1205.007, 111.4629
1206.230, 85.52246
1207.452, 110.2881
1208.675, 73.50879
1209.897, 34.58398
1211.119, 145.3008
1212.341, 5.386719
1213.563, 117.0674
1214.785, 55.17676
1216.006, 84.82324
1217.227, 188.6807
1218.448, 35.56445
1219.669, 94.51562
1220.890, 312.0977
1222.110, 64.81055
1223.330, 187.3564
1224.551, 222.8877
1225.771, 35.73242
1226.990, 244.7344
1228.210, 99.96680
1229.429, 117.7305
1230.648, 143.1416
1231.867, 177.5488
1233.086, 308.0986
1234.305, 142.6748
1235.523, 89.93848
1236.741, 228.2637
1237.960, 221.5781
1239.177, 87.87988
1240.395, 238.1699
1241.613, 114.7080
1242.830, 191.9736
1244.047, 136.2266
1245.264, 81.94922
1246.481, 173.3096
1247.697, 145.5234
1248.914, 214.7266
1250.130, 321.9160
1251.346, 148.0938
1252.562, 212.6572
1253.778, 251.8096
1254.993, 103.9502
1256.209, 229.2031
1257.424, 250.2969
1258.639, 75.37695
1259.853, 178.4395
1261.068, 176.4746
1262.282, 225.1289
1263.497, 129.1279
1264.711, 239.3857
1265.924, 200.5859
1267.138, 182.5254
1268.352, 212.1045
1269.565, 191.4805
1270.778, 193.3184
1271.991, 199.1348
1273.204, 166.9219
1274.416, 26.67871
1275.629, 156.4336
1276.841, 188.1172
1278.053, 9.222656
1279.265, 146.4072
1280.476, 173.0117
1281.688, 107.6572
1282.899, 178.2031
1284.110, 9.281250
1285.321, 149.1836
1286.532, 155.6240
1287.743, 39.97363
1288.953, 125.4600
1290.163, 94.79004
1291.373, 32.06250
1292.583, 220.3672
1293.793, 46.15137
1295.002, 87.25000
1296.211, 147.5850
1297.421, 58.76660
1298.629, 128.9238
1299.838, 96.30371
1301.047, 78.61914
1302.255, 162.4395
1303.463, 80.27832
1304.671, 10.21484
1305.879, 141.9385
1307.087, 38.81152
1308.294, 87.58984
1309.502, 10.34473
1310.709, 7.125977
1311.916, 56.14453
1313.122, 25.80176
1314.329, 9.781250
1315.535, 61.01172
1316.741, 55.49902
1317.948, 91.02637
1319.153, 50.15234
1320.359, 98.54980
1321.564, 167.7725
1322.770, 46.61914
1323.975, 120.7510
1325.180, 136.2246
1326.385, 17.26562
1327.589, 186.1035
1328.794, 136.1113
1329.998, 10.23926
1331.202, 167.4141
1332.406, 96.01855
1333.609, 13.86230
1334.813, 148.8887
1336.016, 49.13574
1337.219, 33.15234
1338.422, 196.1504
1339.625, 29.89062
1340.827, 17.68457
1342.030, 62.11328
1343.232, 84.96094
1344.434, 100.3457
1345.636, 119.0107
1346.838, 72.67188
1348.039, 238.4023
1349.240, 58.96484
1350.442, 110.6436
1351.643, 197.2285
1352.843, 72.85156
1354.044, 95.32129
1355.244, 205.5986
1356.445, 84.14551
1357.645, 244.1602
1358.845, 75.64648
1360.044, 192.8838
1361.244, 123.3662
1362.443, 112.7812
1363.642, 91.85449
1364.841, 251.2764
1366.040, 140.6250
1367.239, 269.7432
1368.437, 269.2598
1369.635, 106.4482
1370.833, 174.3320
1372.031, 43.46484
1373.229, 92.43848
1374.427, 211.4219
1375.624, 30.40625
1376.821, 129.4551
1378.018, 118.6035
1379.215, 92.87402
1380.412, 187.7744
1381.608, 198.3730
1382.804, 269.0459
1384.000, 299.7754
1385.196, 110.2285
1386.392, 290.9199
1387.588, 261.5830
1388.783, 72.23340
1389.978, 142.6211
1391.173, 242.8330
1392.368, 213.3896
1393.563, 323.7598
1394.757, 214.2461
1395.952, 84.70215
1397.146, 305.1260
1398.340, 195.5166
1399.534, 144.6484
1400.727, 301.8018
1401.921, 251.9424
1403.114, 221.8496
1404.307, 348.5596
1405.500, 57.56543
1406.692, 356.9717
1407.885, 105.7480
1409.077, 114.3135
1410.270, 223.3486
1411.462, 132.5742
1412.653, 192.9629
1413.845, 229.8652
1415.036, 168.1104
1416.228, 174.8496
1417.419, 330.8799
1418.610, 144.5410
1419.801, 242.1367
1420.991, 159.8809
1422.182, 198.6465
1423.372, 336.4170
1424.562, 130.6797
1425.752, 339.7480
1426.941, 286.4590
1428.131, 200.5576
1429.320, 268.4209
1430.509, 235.9785
1431.698, 106.4141
1432.887, 373.8330
1434.076, 281.8682
1435.264, 130.0254
1436.452, 287.4590
1437.641, 175.5195
1438.828, 103.7607
1440.016, 291.8877
1441.204, 169.8721
1442.391, 347.7168
1443.578, 265.7646
1444.765, 214.1504
1445.952, 296.0967
1447.139, 192.9971
1448.325, 90.70117
1449.512, 306.6670
1450.698, 128.5586
1451.884, 156.4590
1453.070, 214.2607
1454.255, 21.40723
1455.441, 277.9502
1456.626, 305.1123
1457.811, 32.44238
1458.996, 428.7441
1460.181, 165.8066
1461.365, 112.4775
1462.549, 289.3604
1463.734, 174.6201
1464.918, 240.6143
1466.102, 336.5820
1467.285, 22.70117
1468.469, 269.2920
1469.652, 275.8662
1470.835, 72.37500
1472.018, 378.9434
1473.201, 235.2412
1474.383, 71.73242
1475.566, 328.2656
1476.748, 124.4229
1477.930, 1.018555
1479.112, 397.4473
1480.294, 63.41992
1481.475, 239.7217
1482.657, 255.9189
1483.838, 142.2383
1485.019, 178.3262
1486.200, 95.06445
1487.381, 122.0020
1488.561, 347.2314
1489.741, 142.8389
1490.922, 99.62500
1492.101, 266.4004
1493.281, 113.2490
1494.461, 218.6963
1495.640, 105.5752
1496.820, 62.33398
1497.999, 239.2178
1499.178, 196.1885
1500.356, 60.47852
1501.535, 257.3291
1502.713, 15.66992
1503.892, 91.40527
1505.070, 248.5479
1506.247, 15.87695
1507.425, 113.2656
1508.603, 160.8506
1509.780, 8.549805
1510.957, 146.5254
1512.134, 106.5820
1513.311, 42.44434
1514.488, 194.8359
1515.664, 72.71191
1516.840, 84.30664
1518.017, 6.075195
1519.192, 0.3466800
1520.368, 0.0000000E+00
##END=



