##NAMES=Nepheline
##RRUFFID=R040025
##IDEAL CHEMISTRY=Na_3_K(Al_4_Si_4_O_16_)
##LOCALITY=Bancroft, Ontario, Canada
##OWNER=RRUFF
##SOURCE=University of Arizona Mineral Museum
##DESCRIPTION=White massive
##STATUS=The identification of this mineral has been confirmed by X-ray diffraction and chemical analysis
##URL=rruff.info/R040025
##MEASURED CHEMISTRY=(Na_0.77_K_0.23_)_Î£=1_Al_1.00_Si_1.00_O_4_
##PIN_ID=L00106
##ORIENTATION=Laser parallel to c* (0 0 1). Fiducial mark perpendicular to laser is parallel to b [0 1 0]
136.460, 0.000
137.850, 22.383
139.240, 58.711
140.630, 81.862
142.020, 54.854
143.410, 295.460
144.799, 381.115
146.188, 479.561
147.577, 580.354
148.965, 683.338
150.354, 770.599
151.742, 645.984
153.130, 702.727
154.517, 510.484
155.905, 429.150
157.292, 328.812
158.679, 269.756
160.066, 42.098
161.452, 35.469
162.839, 60.517
164.225, 23.866
165.611, 108.416
166.996, 92.989
168.381, 117.482
169.767, 141.821
171.152, 181.990
172.536, 289.917
173.921, 334.454
175.305, 390.491
176.689, 556.979
178.073, 684.652
179.456, 575.255
180.839, 727.844
182.222, 731.430
183.605, 804.416
184.988, 1156.279
186.370, 1186.999
187.752, 1426.671
189.134, 1585.382
190.516, 1743.210
191.898, 2150.226
193.279, 2226.488
194.660, 2542.051
196.041, 2846.968
197.421, 3091.279
198.801, 3355.028
200.182, 3548.248
201.561, 3625.209
202.941, 3643.219
204.321, 3605.024
205.700, 3506.410
207.079, 3297.802
208.457, 2981.979
209.836, 2819.520
211.214, 2776.238
212.592, 2707.928
213.970, 2651.684
215.348, 2686.756
216.725, 2669.170
218.102, 2826.643
219.479, 3033.635
220.856, 3169.062
222.232, 3522.392
223.608, 3756.099
224.984, 3673.041
226.360, 3683.635
227.736, 3899.375
229.111, 3560.328
230.486, 3455.466
231.861, 2958.701
233.236, 2720.398
234.610, 2601.635
235.984, 2042.943
237.358, 1814.315
238.732, 1545.747
240.105, 1347.231
241.479, 1188.762
242.852, 910.331
244.224, 821.932
245.597, 693.558
246.969, 825.207
248.342, 636.872
249.713, 628.551
251.085, 610.238
252.457, 591.936
253.828, 613.645
255.199, 785.367
256.570, 967.090
257.940, 1248.798
259.310, 1390.491
260.681, 1662.166
262.050, 1963.818
263.420, 2045.436
264.790, 2167.017
266.159, 2128.549
267.528, 2130.053
268.896, 1731.529
270.265, 1672.969
271.633, 1374.374
273.001, 1015.742
274.369, 877.065
275.737, 738.346
277.104, 479.587
278.471, 400.771
279.838, 271.897
281.205, 232.966
282.572, 173.981
283.938, 14.951
285.304, 4.126
286.670, 66.755
288.035, 82.402
289.401, 118.402
290.766, 79.153
292.131, 149.834
293.495, 100.385
294.860, 0.776
296.224, 1.026
297.588, 61.183
298.952, 8.805
300.315, 98.920
301.679, 34.535
303.042, 179.819
304.405, 114.950
305.767, 120.009
307.130, 255.045
308.492, 150.127
309.854, 75.254
311.216, 9.583
312.578, 15.610
313.939, 120.849
315.300, 96.225
316.661, 38.319
318.021, 37.170
319.382, 107.273
320.742, 141.677
322.102, 266.025
323.462, 320.328
324.821, 386.549
326.181, 448.762
327.540, 491.800
328.899, 585.854
330.257, 599.840
331.616, 663.768
332.974, 787.632
334.332, 851.426
335.690, 1055.155
337.047, 1258.816
338.405, 1442.424
339.762, 1755.963
341.119, 1979.426
342.475, 2292.801
343.832, 2646.087
345.188, 3149.264
346.544, 3452.329
347.900, 3815.280
349.255, 3758.126
350.610, 3740.874
351.965, 3653.553
353.320, 3336.156
354.675, 3008.684
356.029, 2921.125
357.384, 2733.546
358.738, 2585.819
360.091, 2525.758
361.445, 2410.129
362.798, 2432.164
364.151, 2504.125
365.504, 2536.535
366.857, 2778.636
368.209, 3050.683
369.561, 3133.050
370.913, 3365.575
372.265, 3647.405
373.617, 4059.115
374.968, 4550.575
376.319, 4962.641
377.670, 5482.738
379.021, 6013.713
380.371, 6644.707
381.721, 7355.785
383.071, 8356.617
384.421, 9247.033
385.770, 10427.636
387.120, 11477.961
388.469, 12757.412
389.818, 14437.708
391.166, 15677.072
392.515, 16906.381
393.863, 18146.082
395.211, 19605.887
396.559, 20286.998
397.906, 20667.088
399.254, 20896.236
400.601, 20376.475
401.948, 19685.891
403.294, 18685.938
404.641, 17685.543
405.987, 16774.889
407.333, 15834.783
408.679, 14923.636
410.025, 14142.728
411.370, 13641.973
412.715, 13340.914
414.060, 13310.717
415.405, 13259.046
416.749, 13417.489
418.093, 13575.742
419.437, 13853.961
420.781, 13842.146
422.125, 13620.297
423.468, 13288.418
424.811, 12756.508
426.154, 12034.732
427.497, 10923.152
428.839, 10192.282
430.182, 9020.552
431.524, 8389.104
432.866, 7477.559
434.207, 6866.254
435.549, 6255.062
436.890, 5633.773
438.231, 5372.477
439.572, 4970.992
440.912, 4748.957
442.252, 4666.221
443.593, 4363.150
444.932, 4199.219
446.272, 4182.119
447.611, 3833.694
448.951, 3608.119
450.290, 3634.007
451.628, 3538.812
452.967, 3532.873
454.305, 3568.103
455.644, 3752.530
456.981, 4013.562
458.319, 4524.645
459.657, 5328.414
460.994, 5709.872
462.331, 6075.180
463.668, 6114.453
465.004, 5808.795
466.341, 5413.094
467.677, 4726.809
469.013, 3922.373
470.348, 3234.344
471.684, 2921.100
473.019, 2382.473
474.354, 2022.607
475.689, 1536.266
477.024, 1471.113
478.358, 1317.854
479.692, 1167.613
481.026, 1085.471
482.360, 990.441
483.694, 1058.938
485.027, 1105.186
486.360, 1056.348
487.693, 1312.912
489.026, 1349.596
490.358, 1846.613
491.691, 2336.930
493.023, 3175.172
494.354, 4112.176
495.686, 4649.939
497.017, 4686.707
498.349, 4027.801
499.680, 3416.832
501.010, 2664.434
502.341, 2210.789
503.671, 1659.918
505.001, 1486.320
506.331, 1202.867
507.661, 998.729
508.990, 905.117
510.319, 822.184
511.648, 704.738
512.977, 665.398
514.306, 624.574
515.634, 540.584
516.962, 376.496
518.290, 421.930
519.618, 387.182
520.945, 572.348
522.273, 507.734
523.600, 432.814
524.927, 258.395
526.253, 313.707
527.580, 308.674
528.906, 214.141
530.232, 159.340
531.558, 304.158
532.883, 308.936
534.208, 323.684
535.534, 368.445
536.858, 333.414
538.183, 337.760
539.508, 292.367
540.832, 236.914
542.156, 241.445
543.480, 265.930
544.803, 140.371
546.127, 144.771
547.450, 319.129
548.773, 73.447
550.096, 247.723
551.418, 241.959
552.741, 136.166
554.063, 100.330
555.385, 5.545
556.706, 48.520
558.028, 232.541
559.349, 26.523
560.670, 150.459
561.991, 34.354
563.312, 88.201
564.632, 142.008
565.952, 35.770
567.272, 239.486
568.592, 173.186
569.911, 126.844
571.231, 190.461
572.550, 24.039
573.869, 317.570
575.187, 281.068
576.506, 524.535
577.824, 357.969
579.142, 521.391
580.460, 594.754
581.778, 428.471
583.095, 492.105
584.412, 265.367
585.729, 208.594
587.046, 41.812
588.363, 224.957
589.679, 148.068
590.995, 161.139
592.311, 94.170
593.627, 57.162
594.942, 70.109
596.258, 62.168
597.573, 55.881
598.888, 98.707
600.202, 121.494
601.517, 114.375
602.831, 187.094
604.145, 50.654
605.459, 93.785
606.772, 136.449
608.086, 269.090
609.399, 321.744
610.712, 294.379
612.024, 256.996
613.337, 299.588
614.649, 292.295
615.961, 255.162
617.273, 208.105
618.585, 26.330
619.896, 139.584
621.208, 142.127
622.519, 55.330
623.829, 87.211
625.140, 129.773
626.450, 32.355
627.761, 54.994
629.071, 17.867
630.380, 163.969
631.690, 66.840
632.999, 19.494
634.308, 82.420
635.617, 54.846
636.926, 11.914
638.235, 47.457
639.543, 15.203
640.851, 32.002
642.159, 40.477
643.466, 67.078
644.774, 68.457
646.081, 70.789
647.388, 53.408
648.695, 42.553
650.002, 10.340
651.308, 23.068
652.614, 2.613
653.920, 60.742
655.226, 56.361
656.531, 24.389
657.837, 2.512
659.142, 109.445
660.447, 28.676
661.752, 73.059
663.056, 24.756
664.360, 176.414
665.664, 38.043
666.968, 0.365
668.272, 88.764
669.575, 59.508
670.879, 36.664
672.182, 65.711
673.484, 76.994
674.787, 178.176
676.089, 209.396
677.392, 220.576
678.694, 151.738
679.995, 212.867
681.297, 86.750
682.598, 137.297
683.899, 242.629
685.200, 83.344
686.501, 133.639
687.802, 223.678
689.102, 255.531
690.402, 380.533
691.702, 204.551
693.002, 345.895
694.301, 326.559
695.600, 207.225
696.899, 387.680
698.198, 303.732
699.497, 363.934
700.795, 364.217
702.093, 234.836
703.391, 334.572
704.689, 285.021
705.987, 274.357
707.284, 314.469
708.581, 336.641
709.878, 346.879
711.175, 365.867
712.472, 383.949
713.768, 389.176
715.064, 423.236
716.360, 432.025
717.656, 581.586
718.951, 630.457
720.247, 609.723
721.542, 539.195
722.837, 388.053
724.131, 292.297
725.426, 361.852
726.720, 261.199
728.014, 250.795
729.308, 379.473
730.601, 249.570
731.895, 240.795
733.188, 240.855
734.481, 170.898
735.774, 320.916
737.067, 80.912
738.359, 90.883
739.651, 200.828
740.943, 220.584
742.235, 160.086
743.526, 288.826
744.818, 418.371
746.109, 267.578
747.400, 346.828
748.691, 255.787
749.981, 294.574
751.271, 263.406
752.562, 262.189
753.851, 200.936
755.141, 269.850
756.431, 118.848
757.720, 277.803
759.009, 17.051
760.298, 35.707
761.587, 234.529
762.875, 153.518
764.163, 153.051
765.451, 202.588
766.739, 272.109
768.027, 201.559
769.314, 101.043
770.601, 60.508
771.888, 39.916
773.175, 70.889
774.462, 17.449
775.748, 206.258
777.034, 135.066
778.320, 209.600
779.606, 198.156
780.892, 236.881
782.177, 175.186
783.462, 63.570
784.747, 38.227
786.032, 60.549
787.317, 278.906
788.601, 47.039
789.885, 95.432
791.169, 29.752
792.453, 13.246
793.736, 71.445
795.019, 29.465
796.303, 95.096
797.585, 223.217
798.868, 43.377
800.151, 114.799
801.433, 12.975
802.715, 18.936
803.997, 65.779
805.279, 11.082
806.560, 29.596
807.841, 12.529
809.122, 4.537
810.403, 49.064
811.684, 134.668
812.964, 21.641
814.245, 29.799
815.525, 195.121
816.804, 83.111
818.084, 140.896
819.363, 79.311
820.643, 157.141
821.922, 24.238
823.201, 65.787
824.479, 0.830
825.758, 6.076
827.036, 211.910
828.314, 39.877
829.592, 108.266
830.869, 96.787
832.147, 35.342
833.424, 83.623
834.701, 57.838
835.977, 90.133
837.254, 91.682
838.530, 16.777
839.807, 44.695
841.082, 72.824
842.358, 28.701
843.634, 90.242
844.909, 71.828
846.184, 13.477
847.459, 154.902
848.734, 13.305
850.008, 131.688
851.283, 119.916
852.557, 98.424
853.831, 96.760
855.105, 24.900
856.378, 143.432
857.651, 121.766
858.925, 50.098
860.197, 118.430
861.470, 53.236
862.743, 185.080
864.015, 6.602
865.287, 161.721
866.559, 240.053
867.831, 11.613
869.102, 76.721
870.373, 65.062
871.645, 133.402
872.915, 161.752
874.186, 290.107
875.457, 88.467
876.727, 103.150
877.997, 155.195
879.267, 103.545
880.536, 61.904
881.806, 180.264
883.075, 218.631
884.344, 43.000
885.613, 195.361
886.882, 133.727
888.150, 102.070
889.419, 270.438
890.687, 208.424
891.954, 116.461
893.222, 194.842
894.490, 253.223
895.757, 201.584
897.024, 229.984
898.291, 318.391
899.557, 316.805
900.824, 75.225
902.090, 183.654
903.356, 422.092
904.622, 200.539
905.888, 278.996
907.153, 327.461
908.418, 235.939
909.683, 104.295
910.948, 312.791
912.213, 450.424
913.477, 148.480
914.741, 377.006
916.005, 265.541
917.269, 344.080
918.533, 212.627
919.796, 131.180
921.060, 329.742
922.323, 198.170
923.585, 286.443
924.848, 304.645
926.111, 327.551
927.373, 295.428
928.635, 214.041
929.897, 172.666
931.158, 411.318
932.420, 359.982
933.681, 248.658
934.942, 377.344
936.203, 275.832
937.463, 303.475
938.724, 359.629
939.984, 348.363
941.244, 336.861
942.504, 395.578
943.764, 424.072
945.023, 399.377
946.282, 438.436
947.541, 368.387
948.800, 467.264
950.059, 486.158
951.317, 511.916
952.575, 390.857
953.833, 649.486
955.091, 536.672
956.349, 725.646
957.606, 573.389
958.864, 740.203
960.121, 727.951
961.377, 826.133
962.634, 995.199
963.891, 1164.324
965.147, 973.348
966.403, 1222.422
967.659, 1221.613
968.914, 1500.816
970.170, 1410.037
971.425, 1569.270
972.680, 1798.518
973.935, 2027.732
975.190, 2197.045
976.444, 2566.133
977.698, 2995.457
978.952, 3444.857
980.206, 4394.273
981.460, 4763.707
982.713, 6004.250
983.967, 6923.715
985.220, 7343.195
986.473, 8800.195
987.725, 8819.758
988.978, 9164.766
990.230, 8916.641
991.482, 8086.258
992.734, 7749.342
993.986, 6767.775
995.237, 6063.078
996.488, 5462.055
997.739, 4721.348
998.990, 4245.959
1000.241, 3356.086
1001.492, 3085.945
1002.742, 2739.969
1003.992, 2219.865
1005.242, 2209.779
1006.492, 1799.652
1007.741, 1739.605
1008.990, 1389.574
1010.239, 1259.613
1011.488, 1319.627
1012.737, 1298.383
1013.986, 1088.723
1015.234, 1278.686
1016.482, 1129.221
1017.730, 1029.369
1018.978, 969.314
1020.225, 859.543
1021.473, 1029.803
1022.720, 770.746
1023.967, 1041.125
1025.213, 831.893
1026.460, 795.484
1027.706, 991.467
1028.953, 1132.422
1030.198, 1073.396
1031.444, 1153.836
1032.690, 1154.352
1033.935, 1154.816
1035.180, 1134.148
1036.425, 1204.799
1037.670, 1075.420
1038.915, 806.225
1040.159, 726.965
1041.403, 807.678
1042.647, 688.428
1043.891, 669.191
1045.135, 610.029
1046.378, 711.824
1047.621, 472.689
1048.864, 653.650
1050.107, 634.586
1051.350, 805.490
1052.592, 586.400
1053.835, 697.318
1055.077, 798.258
1056.318, 609.635
1057.560, 690.588
1058.802, 711.998
1060.043, 903.018
1061.284, 814.043
1062.525, 855.598
1063.765, 956.645
1065.006, 897.693
1066.246, 878.750
1067.486, 1059.809
1068.726, 860.877
1069.966, 1191.947
1071.205, 1153.023
1072.445, 1154.346
1073.684, 1225.430
1074.923, 1276.521
1076.161, 1299.441
1077.400, 1628.768
1078.638, 1449.902
1079.876, 1411.041
1081.114, 1662.182
1082.352, 1503.328
1083.590, 1604.477
1084.827, 1325.625
1086.064, 1306.779
1087.301, 1317.953
1088.538, 1219.127
1089.775, 1270.305
1091.011, 1061.480
1092.247, 932.660
1093.483, 843.842
1094.719, 785.033
1095.955, 636.223
1097.190, 557.414
1098.425, 578.768
1099.660, 840.137
1100.895, 371.336
1102.130, 362.584
1103.364, 633.783
1104.598, 314.992
1105.833, 506.195
1107.066, 417.404
1108.300, 218.834
1109.534, 500.051
1110.767, 261.270
1112.000, 402.795
1113.233, 474.004
1114.466, 325.205
1115.698, 236.943
1116.930, 318.137
1118.163, 69.324
1119.394, 480.682
1120.626, 211.928
1121.858, 323.938
1123.089, 385.250
1124.320, 236.992
1125.551, 429.590
1126.782, 310.730
1128.013, 62.678
1129.243, 234.764
1130.473, 44.119
1131.703, 268.727
1132.933, 219.812
1134.163, 8.279
1135.392, 256.236
1136.621, 288.385
1137.850, 70.273
1139.079, 143.336
1140.308, 95.285
1141.536, 258.863
1142.765, 381.799
1143.993, 75.719
1145.221, 266.908
1146.448, 111.057
1147.676, 31.477
1148.903, 225.016
1150.130, 176.816
1151.357, 249.514
1152.584, 142.557
1153.810, 16.020
1155.037, 337.023
1156.263, 149.129
1157.489, 110.732
1158.715, 195.826
1159.940, 13.193
1161.166, 74.436
1162.391, 144.316
1163.616, 55.605
1164.841, 317.432
1166.065, 141.848
1167.290, 153.570
1168.514, 198.469
1169.738, 20.420
1170.962, 162.008
1172.185, 92.461
1173.409, 56.080
1174.632, 375.641
1175.855, 69.006
1177.078, 71.621
1178.301, 334.340
1179.523, 195.783
1180.746, 346.939
1181.968, 217.141
1183.190, 218.848
1184.412, 468.000
1185.633, 210.637
1186.855, 230.949
1188.076, 523.336
1189.297, 319.902
1190.518, 380.543
1191.738, 376.188
1192.959, 66.234
1194.179, 438.977
1195.399, 280.398
1196.619, 290.594
1197.838, 392.105
1199.058, 382.539
1200.277, 402.133
1201.496, 395.246
1202.715, 215.285
1203.934, 574.754
1205.152, 236.418
1206.371, 396.227
1207.589, 405.863
1208.807, 216.527
1210.024, 485.785
1211.242, 415.152
1212.459, 374.719
1213.677, 483.848
1214.894, 483.945
1216.110, 382.992
1217.327, 662.109
1218.543, 301.352
1219.760, 570.266
1220.976, 459.832
1222.192, 479.309
1223.407, 608.098
1224.623, 498.344
1225.838, 457.051
1227.053, 656.414
1228.268, 386.105
1229.483, 594.680
1230.697, 473.211
1231.912, 392.906
1233.126, 771.348
1234.340, 520.590
1235.554, 529.414
1236.767, 767.711
1237.981, 466.859
1239.194, 565.105
1240.407, 423.320
1241.620, 462.137
1242.832, 680.297
1244.045, 368.426
1245.257, 367.031
1246.469, 615.102
1247.681, 403.996
1248.893, 452.180
1250.104, 510.156
1251.315, 458.098
1252.527, 626.008
1253.738, 373.879
1254.948, 531.727
1256.159, 589.520
1257.369, 357.270
1258.579, 664.984
1259.789, 602.590
1260.999, 310.148
1262.209, 607.648
1263.418, 595.098
1264.628, 402.391
1265.837, 429.625
1267.046, 246.809
1268.254, 414.898
1269.463, 311.961
1270.671, 139.055
1271.879, 465.969
1273.087, 262.785
1274.295, 231.059
1275.502, 527.672
1276.710, 113.121
1277.917, 530.527
1279.124, 266.887
1280.331, 127.113
1281.537, 209.055
1282.744, 405.043
1283.950, 68.633
1285.156, 384.359
1286.362, 46.539
1287.568, 102.004
1288.773, 147.379
1289.978, 259.953
1291.184, 206.176
1292.389, 126.445
1293.593, 61.074
1294.798, 235.922
1296.002, 110.699
1297.206, 85.414
1298.410, 320.055
1299.614, 83.812
1300.818, 168.328
1302.021, 262.770
1303.225, 17.082
1304.428, 401.367
1305.631, 25.254
1306.833, 61.406
1308.036, 312.582
1309.238, 186.117
1310.440, 29.992
1311.642, 193.707
1312.844, 142.617
1314.045, 160.969
1315.247, 203.809
1316.448, 72.840
1317.649, 220.059
1318.850, 170.070
1320.051, 53.238
1321.251, 85.766
1322.451, 78.211
1323.651, 191.129
1324.851, 243.895
1326.051, 233.348
1327.251, 149.180
1328.450, 58.387
1329.649, 73.992
1330.848, 406.129
1332.047, 111.734
1333.245, 19.625
1334.444, 302.395
1335.642, 165.652
1336.840, 426.156
1338.038, 56.953
1339.236, 138.633
1340.433, 360.160
1341.630, 121.664
1342.828, 283.145
1344.025, 574.559
1345.221, 35.918
1346.418, 347.203
1347.614, 578.000
1348.810, 110.836
1350.006, 369.824
1351.202, 400.820
1352.398, 171.762
1353.593, 782.125
1354.789, 432.957
1355.984, 373.738
1357.179, 474.473
1358.373, 225.160
1359.568, 575.801
1360.762, 436.395
1361.956, 396.957
1363.150, 527.234
1364.344, 299.598
1365.538, 310.047
1366.731, 560.465
1367.924, 150.859
1369.117, 471.230
1370.310, 292.152
1371.503, 203.176
1372.695, 533.355
1373.888, 473.512
1375.080, 183.637
1376.272, 493.539
1377.464, 254.910
1378.655, 344.637
1379.847, 692.688
1381.038, 247.199
1382.229, 741.637
1383.420, 626.000
1384.610, 309.934
1385.801, 644.102
1386.991, 698.238
1388.181, 342.309
1389.371, 806.070
1390.561, 259.656
1391.750, 423.508
1392.940, 766.688
1394.129, 550.188
1395.318, 752.785
1396.507, 725.484
1397.696, 467.285
1398.884, 658.598
1400.072, 559.832
1401.260, 612.039
1402.448, 947.879
1403.636, 477.344
1404.824, 595.879
1406.011, 704.332
1407.198, 478.762
1408.385, 635.660
1409.572, 734.305
1410.758, 202.789
1411.945, 650.145
1413.131, 405.207
1414.317, 507.422
1415.503, 885.824
1416.689, 110.391
1417.874, 660.422
1419.060, 677.832
1420.245, 153.227
1421.430, 887.676
1422.615, 581.395
1423.799, 888.680
1424.984, 977.336
1426.168, 339.980
1427.352, 560.543
1428.536, 628.703
1429.720, 293.199
1430.903, 424.734
1432.087, 439.652
1433.270, 66.832
1434.453, 728.559
1435.635, 436.594
1436.818, 363.230
1438.001, 648.648
1439.183, 445.320
1440.365, 421.055
1441.547, 708.211
1442.728, 314.973
1443.910, 639.672
1445.091, 683.867
1446.272, 479.355
1447.453, 493.957
1448.634, 638.102
1449.815, 542.750
1450.995, 817.977
1452.176, 622.102
1453.356, 416.383
1454.535, 1111.633
1455.715, 605.473
1456.895, 767.785
1458.074, 1011.977
1459.253, 465.828
1460.432, 859.340
1461.611, 702.555
1462.790, 445.754
1463.968, 1108.727
1465.146, 721.988
1466.324, 492.562
1467.502, 945.102
1468.680, 647.949
1469.858, 646.730
1471.035, 1007.047
1472.212, 500.074
1473.389, 893.285
1474.566, 797.250
1475.742, 551.785
1476.919, 986.680
1478.095, 248.328
1479.271, 503.594
1480.447, 1008.801
1481.623, 663.934
1482.798, 638.977
1483.974, 1014.031
1485.149, 349.090
1486.324, 594.164
1487.499, 729.266
1488.674, 214.383
1489.848, 919.633
1491.022, 564.980
1492.196, 410.477
1493.370, 816.160
1494.544, 332.176
1495.718, 318.566
1496.891, 805.492
1498.064, 232.750
1499.237, 430.277
1500.410, 688.230
1501.583, 206.465
1502.755, 495.051
1503.928, 654.055
1505.100, 36.441
1506.272, 673.648
1507.443, 664.426
1508.615, 185.973
1509.786, 848.328
1510.958, 31.605
1512.129, 25.941
1513.300, 557.020
1514.470, 327.871
1515.641, 317.703
1516.811, 421.652
1517.981, 1.723
1519.151, 589.223
1520.321, 0.000
##END=



