##NAMES=Nepheline
##RRUFFID=R040025
##IDEAL CHEMISTRY=Na_3_K(Al_4_Si_4_O_16_)
##LOCALITY=Bancroft, Ontario, Canada
##OWNER=RRUFF
##SOURCE=University of Arizona Mineral Museum
##DESCRIPTION=White massive
##STATUS=The identification of this mineral has been confirmed by X-ray diffraction and chemical analysis
##URL=rruff.info/R040025
##MEASURED CHEMISTRY=(Na_0.77_K_0.23_)_Î£=1_Al_1.00_Si_1.00_O_4_
##PIN_ID=L00106
##ORIENTATION=Laser parallel to c* (0 0 1). Fiducial mark perpendicular to laser is parallel to b [0 1 0]
136.460, 0.000
137.850, 2.462
139.240, 52.582
140.630, 68.468
142.020, 111.525
143.410, 169.826
144.799, 362.062
146.188, 467.174
147.577, 534.592
148.965, 594.104
150.354, 786.304
151.742, 729.002
153.130, 802.797
154.517, 527.392
155.905, 542.706
157.292, 238.833
158.679, 236.067
160.066, 184.562
161.452, 143.985
162.839, 6.031
164.225, 5.758
165.611, 34.644
166.996, 45.001
168.381, 105.218
169.767, 135.224
171.152, 124.968
172.536, 334.548
173.921, 344.761
175.305, 365.988
176.689, 437.724
178.073, 610.894
179.456, 596.472
180.839, 694.068
182.222, 842.769
183.605, 891.047
184.988, 1078.246
186.370, 1224.292
187.752, 1409.263
189.134, 1633.251
190.516, 1916.333
191.898, 2188.581
193.279, 2270.699
194.660, 2721.441
196.041, 2971.518
197.421, 3250.976
198.801, 3559.852
200.182, 3788.182
201.561, 3875.999
202.941, 3963.332
204.321, 3760.209
205.700, 3486.652
207.079, 3453.704
208.457, 3064.201
209.836, 2954.721
211.214, 2855.562
212.592, 2704.094
213.970, 2553.410
215.348, 2520.758
216.725, 2830.744
218.102, 2968.827
219.479, 3103.642
220.856, 3311.936
222.232, 3561.349
223.608, 3751.776
224.984, 3921.592
226.360, 3755.923
227.736, 3918.465
229.111, 3633.963
230.486, 3486.194
231.861, 3205.284
233.236, 2862.816
234.610, 2538.953
235.984, 2135.154
237.358, 1941.418
238.732, 1657.734
240.105, 1364.100
241.479, 1230.508
242.852, 996.951
244.224, 903.422
245.597, 659.914
246.969, 706.425
248.342, 602.950
249.713, 519.485
251.085, 656.023
252.457, 672.565
253.828, 869.111
255.199, 875.657
256.570, 922.195
257.940, 1228.721
259.310, 1545.229
260.681, 1801.716
262.050, 1858.179
263.420, 2054.610
264.790, 2231.008
266.159, 2217.356
267.528, 2083.667
268.896, 1929.938
270.265, 1646.170
271.633, 1332.369
273.001, 1138.522
274.369, 954.634
275.737, 620.695
277.104, 466.703
278.471, 402.651
279.838, 258.540
281.205, 184.370
282.572, 30.141
283.938, 105.864
285.304, 41.539
286.670, 117.188
288.035, 37.205
289.401, 38.358
290.766, 93.863
292.131, 49.277
293.495, 104.580
294.860, 19.748
296.224, 64.771
297.588, 80.317
298.952, 15.530
300.315, 80.928
301.679, 0.957
303.042, 101.640
304.405, 181.817
305.767, 91.977
307.130, 132.125
308.492, 112.273
309.854, 132.460
311.216, 102.699
312.578, 63.004
313.939, 93.370
315.300, 33.822
316.661, 84.351
318.021, 34.970
319.382, 104.339
320.742, 183.584
322.102, 232.766
323.462, 231.878
324.821, 380.916
326.181, 399.888
327.540, 448.763
328.899, 557.587
330.257, 646.381
331.616, 795.099
332.974, 763.742
334.332, 1012.311
335.690, 970.814
337.047, 1229.266
338.405, 1547.658
339.762, 1715.976
341.119, 2114.221
342.475, 2492.374
343.832, 2840.425
345.188, 3078.364
346.544, 3466.195
347.900, 3853.912
349.255, 3821.545
350.610, 3839.069
351.965, 3656.503
353.320, 3413.839
354.675, 3121.080
356.029, 2998.232
357.384, 2815.295
358.738, 2702.686
360.091, 2499.608
361.445, 2486.426
362.798, 2583.174
364.151, 2499.848
365.504, 2626.733
366.857, 2933.263
368.209, 2990.118
369.561, 3176.731
370.913, 3523.352
372.265, 3869.961
373.617, 4216.229
374.968, 4452.397
376.319, 5008.199
377.670, 5474.234
379.021, 6069.939
380.371, 6756.054
381.721, 7711.370
383.071, 8386.945
384.421, 9402.269
385.770, 10677.707
387.120, 11892.841
388.469, 13077.547
389.818, 14872.773
391.166, 16137.267
392.515, 17571.098
393.863, 18735.662
395.211, 20190.146
396.559, 21015.174
397.906, 21239.590
399.254, 21573.762
400.601, 21318.156
401.948, 20252.697
403.294, 19337.455
404.641, 18431.789
405.987, 17275.465
407.333, 16319.655
408.679, 15333.893
410.025, 14627.890
411.370, 13941.770
412.715, 13704.639
414.060, 13498.243
415.405, 13701.478
416.749, 14054.432
418.093, 13987.354
419.437, 14150.247
420.781, 14273.102
422.125, 14195.927
423.468, 14498.716
424.811, 13301.474
426.154, 12384.195
427.497, 11367.508
428.839, 10590.914
430.182, 9313.662
431.524, 8697.253
432.866, 7952.170
434.207, 7185.363
435.549, 6388.691
436.890, 5832.155
438.231, 5645.420
439.572, 5158.086
440.912, 4900.664
442.252, 4762.230
443.593, 4563.193
444.932, 4301.643
446.272, 4291.512
447.611, 4189.742
448.951, 3939.297
450.290, 3802.813
451.628, 3660.455
452.967, 3589.320
454.305, 3557.323
455.644, 3806.326
456.981, 4263.219
458.319, 4551.456
459.657, 5452.561
460.994, 6008.111
462.331, 6349.307
463.668, 6365.212
465.004, 5875.340
466.341, 5510.168
467.677, 4751.044
469.013, 4045.646
470.348, 3425.306
471.684, 2975.029
473.019, 2504.790
474.354, 2127.182
475.689, 1687.185
477.024, 1510.442
478.358, 1381.091
479.692, 1336.782
481.026, 1155.338
482.360, 1025.127
483.694, 1104.814
485.027, 1014.607
486.360, 976.484
487.693, 1261.690
489.026, 1458.473
490.358, 1741.427
491.691, 2433.133
493.023, 3204.507
494.354, 4096.007
495.686, 4819.627
497.017, 4655.888
498.349, 4340.934
499.680, 3733.615
501.010, 2807.069
502.341, 2138.090
503.671, 1819.247
505.001, 1480.113
506.331, 1192.248
507.661, 1103.247
508.990, 869.473
510.319, 859.985
511.648, 782.584
512.977, 563.046
514.306, 553.303
515.634, 494.108
516.962, 554.545
518.290, 294.969
519.618, 385.272
520.945, 405.540
522.273, 427.558
523.600, 487.758
524.927, 317.474
526.253, 397.511
527.580, 287.166
528.906, 326.777
530.232, 306.382
531.558, 285.903
532.883, 335.379
534.208, 324.809
535.534, 414.196
536.858, 283.604
538.183, 333.106
539.508, 202.680
540.832, 341.922
542.156, 231.270
543.480, 220.428
544.803, 129.544
546.127, 138.615
547.450, 187.643
548.773, 46.666
550.096, 145.643
551.418, 284.579
552.741, 93.480
554.063, 102.339
555.385, 21.164
556.706, 99.941
558.028, 148.679
559.349, 87.375
560.670, 56.029
561.991, 24.641
563.312, 73.206
564.632, 221.730
565.952, 90.217
567.272, 68.662
568.592, 117.087
569.911, 135.471
571.231, 313.816
572.550, 182.129
573.869, 260.404
575.187, 368.645
576.506, 537.104
577.824, 485.298
579.142, 413.595
580.460, 531.726
581.778, 439.901
583.095, 408.102
584.412, 346.134
585.729, 154.135
587.046, 122.098
588.363, 270.022
589.679, 57.914
590.995, 14.236
592.311, 133.560
593.627, 91.316
594.942, 49.036
596.258, 86.716
597.573, 114.354
598.888, 61.957
600.202, 119.559
601.517, 107.096
602.831, 34.675
604.145, 112.162
605.459, 169.626
606.772, 217.583
608.086, 395.008
609.399, 302.437
610.712, 279.910
612.024, 247.463
613.337, 264.938
614.649, 272.305
615.961, 289.664
617.273, 177.010
618.585, 85.025
619.896, 142.426
621.208, 199.791
622.519, 57.318
623.829, 104.799
625.140, 2.504
626.450, 100.074
627.761, 2.684
629.071, 25.172
630.380, 22.236
631.690, 0.340
632.999, 67.086
634.308, 164.598
635.617, 12.219
636.926, 29.709
638.235, 109.104
639.543, 36.521
640.851, 143.912
642.159, 101.277
643.466, 11.332
644.774, 64.037
646.081, 86.809
647.388, 19.506
648.695, 9.920
650.002, 76.977
651.308, 34.000
652.614, 29.012
653.920, 71.932
655.226, 51.309
656.531, 14.521
657.837, 27.732
659.142, 78.951
660.447, 37.754
661.752, 94.369
663.056, 9.047
664.360, 37.490
665.664, 76.004
666.968, 132.385
668.272, 15.582
669.575, 130.762
670.879, 167.104
672.182, 23.480
673.484, 99.803
674.787, 101.822
676.089, 117.602
677.392, 113.732
678.694, 10.137
679.995, 105.947
681.297, 243.096
682.598, 135.727
683.899, 251.723
685.200, 277.859
686.501, 203.580
687.802, 279.197
689.102, 234.709
690.402, 340.410
691.702, 276.049
693.002, 193.680
694.301, 159.111
695.600, 139.316
696.899, 304.369
698.198, 169.990
699.497, 345.127
700.795, 330.203
702.093, 244.881
703.391, 279.582
704.689, 322.670
705.987, 256.818
707.284, 251.498
708.581, 286.742
709.878, 311.172
711.175, 347.219
712.472, 351.068
713.768, 455.479
715.064, 350.072
716.360, 314.396
717.656, 698.523
718.951, 532.377
720.247, 556.598
721.542, 541.426
722.837, 475.688
724.131, 334.615
725.426, 308.961
726.720, 273.369
728.014, 228.512
729.308, 353.090
730.601, 267.982
731.895, 127.656
733.188, 382.750
734.481, 147.824
735.774, 292.875
737.067, 157.906
738.359, 142.918
739.651, 277.904
740.943, 172.875
742.235, 207.199
743.526, 261.379
744.818, 286.164
746.109, 210.049
747.400, 332.559
748.691, 306.738
749.981, 430.730
751.271, 314.533
752.562, 268.484
753.851, 172.543
755.141, 146.369
756.431, 180.428
757.720, 134.424
759.009, 178.105
760.298, 202.102
761.587, 36.330
762.875, 150.744
764.163, 175.379
765.451, 129.996
766.739, 104.596
768.027, 119.096
769.314, 193.656
770.601, 178.207
771.888, 142.738
773.175, 26.908
774.462, 120.674
775.748, 164.670
777.034, 88.898
778.320, 102.516
779.606, 56.326
780.892, 259.637
782.177, 156.619
783.462, 89.705
784.747, 171.371
786.032, 134.779
787.317, 257.963
788.601, 91.539
789.885, 65.512
791.169, 18.834
792.453, 0.127
793.736, 163.811
795.019, 117.182
796.303, 150.988
797.585, 84.611
798.868, 96.941
800.151, 145.953
801.433, 43.521
802.715, 24.695
803.997, 118.467
805.279, 181.900
806.560, 85.150
807.841, 36.217
809.122, 55.420
810.403, 94.080
811.684, 45.889
812.964, 56.863
814.245, 29.787
815.525, 123.357
816.804, 126.736
818.084, 128.787
819.363, 181.920
820.643, 30.232
821.922, 96.734
823.201, 134.596
824.479, 28.010
825.758, 11.572
827.036, 14.533
828.314, 102.189
829.592, 161.021
830.869, 34.299
832.147, 57.561
833.424, 109.018
834.701, 17.754
835.977, 124.100
837.254, 159.152
838.530, 7.266
839.807, 46.318
841.082, 59.861
842.358, 23.436
843.634, 97.006
844.909, 30.572
846.184, 35.855
847.459, 157.639
848.734, 89.008
850.008, 34.207
851.283, 17.709
852.557, 141.061
853.831, 44.557
855.105, 8.053
856.378, 141.549
857.651, 154.957
858.925, 48.467
860.197, 131.895
861.470, 85.326
862.743, 158.756
864.015, 37.809
865.287, 115.615
866.559, 29.043
867.831, 12.477
869.102, 205.924
870.373, 99.377
871.645, 12.832
872.915, 96.297
874.186, 229.766
875.457, 123.238
876.727, 103.279
877.997, 110.164
879.267, 223.615
880.536, 87.070
881.806, 200.529
883.075, 174.008
884.344, 102.510
885.613, 260.701
886.882, 174.150
888.150, 187.467
889.419, 290.920
890.687, 244.299
891.954, 247.625
893.222, 81.090
894.490, 274.555
895.757, 128.031
897.024, 191.514
898.291, 255.002
899.557, 198.498
900.824, 152.008
902.090, 145.527
903.356, 159.055
904.622, 92.594
905.888, 356.139
907.153, 159.695
908.418, 323.227
909.683, 86.803
910.948, 370.314
912.213, 313.910
913.477, 37.516
914.741, 410.619
916.005, 184.240
917.269, 267.867
918.533, 341.447
919.796, 234.934
921.060, 348.496
922.323, 172.148
923.585, 225.809
924.848, 239.479
926.111, 252.494
927.373, 346.133
928.635, 219.830
929.897, 113.369
931.158, 436.977
932.420, 420.408
933.681, 474.150
934.942, 357.928
936.203, 241.613
937.463, 325.428
938.724, 309.254
939.984, 253.096
941.244, 236.875
942.504, 430.561
943.764, 363.820
945.023, 236.344
946.282, 290.248
947.541, 344.170
948.800, 438.102
950.059, 541.992
951.317, 535.955
952.575, 389.945
953.833, 683.816
955.091, 485.535
956.349, 569.600
957.606, 683.678
958.864, 707.768
960.121, 821.730
961.377, 722.109
962.634, 1006.289
963.891, 1190.434
965.147, 1354.656
966.403, 1346.740
967.659, 1380.990
968.914, 1415.254
970.170, 1609.537
971.425, 1523.840
972.680, 1846.215
973.935, 1984.932
975.190, 2179.311
976.444, 2593.676
977.698, 3047.996
978.952, 3562.344
980.206, 4280.986
981.460, 4855.441
982.713, 5990.098
983.967, 7114.592
985.220, 7609.113
986.473, 8792.559
987.725, 8930.223
988.978, 9114.795
990.230, 9151.371
991.482, 8446.004
992.734, 7900.648
993.986, 6905.309
995.237, 6609.986
996.488, 5616.535
997.739, 4849.477
998.990, 4304.422
1000.241, 3384.619
1001.492, 2969.486
1002.742, 2734.305
1003.992, 2319.146
1005.242, 2174.012
1006.492, 1838.887
1007.741, 1673.781
1008.990, 1540.512
1010.239, 1405.715
1011.488, 1330.730
1012.737, 1326.270
1013.986, 1231.586
1015.234, 1235.529
1016.482, 1040.689
1017.730, 1125.863
1018.978, 953.803
1020.225, 909.152
1021.473, 1074.438
1022.720, 810.303
1023.967, 925.619
1025.213, 951.029
1026.460, 807.217
1027.706, 1097.863
1028.953, 1084.031
1030.198, 1069.734
1031.444, 1105.262
1032.690, 1074.277
1033.935, 1159.826
1035.180, 1220.934
1036.425, 956.941
1037.670, 992.650
1038.915, 908.375
1040.159, 754.336
1041.403, 740.088
1042.647, 775.924
1043.891, 731.713
1045.135, 567.826
1046.378, 603.672
1047.621, 649.529
1048.864, 765.512
1050.107, 621.395
1051.350, 637.285
1052.592, 433.467
1053.835, 759.379
1055.077, 515.303
1056.318, 541.684
1057.560, 727.625
1058.802, 564.051
1060.043, 790.350
1061.284, 766.326
1062.525, 642.744
1063.765, 808.740
1065.006, 874.943
1066.246, 880.959
1067.486, 1026.977
1068.726, 933.006
1069.966, 969.037
1071.205, 1055.074
1072.445, 1371.461
1073.684, 1277.510
1074.923, 1103.566
1076.161, 1280.113
1077.400, 1516.188
1078.638, 1432.266
1079.876, 1458.350
1081.114, 1634.438
1082.352, 1390.531
1083.590, 1546.629
1084.827, 1372.729
1086.064, 1238.988
1087.301, 1265.096
1088.538, 1001.213
1089.775, 1047.330
1091.011, 1003.449
1092.247, 839.582
1093.483, 765.721
1094.719, 611.863
1095.955, 728.473
1097.190, 674.613
1098.425, 580.758
1099.660, 727.010
1100.895, 383.154
1102.130, 389.438
1103.364, 515.580
1104.598, 331.730
1105.833, 617.961
1107.066, 474.109
1108.300, 220.367
1109.534, 436.512
1110.767, 292.672
1112.000, 258.828
1113.233, 214.986
1114.466, 141.141
1115.698, 327.924
1116.930, 234.080
1118.163, 270.234
1119.394, 257.857
1120.626, 314.002
1121.858, 171.512
1123.089, 287.678
1124.320, 214.098
1125.551, 251.049
1126.782, 397.197
1128.013, 64.092
1129.243, 281.127
1130.473, 12.721
1131.703, 126.654
1132.933, 113.613
1134.163, 91.035
1135.392, 108.197
1136.621, 175.197
1137.850, 87.984
1139.079, 215.598
1140.308, 32.078
1141.536, 209.270
1142.765, 206.777
1143.993, 66.826
1145.221, 390.865
1146.448, 7.643
1147.676, 54.324
1148.903, 42.939
1150.130, 129.150
1151.357, 267.494
1152.584, 236.068
1153.810, 212.395
1155.037, 299.779
1156.263, 160.949
1157.489, 17.555
1158.715, 107.537
1159.940, 6.596
1161.166, 47.752
1162.391, 8.980
1163.616, 105.803
1164.841, 320.215
1166.065, 62.846
1167.290, 114.334
1168.514, 216.363
1169.738, 12.762
1170.962, 159.479
1172.185, 159.787
1173.409, 3.670
1174.632, 402.807
1175.855, 23.305
1177.078, 139.795
1178.301, 338.213
1179.523, 55.676
1180.746, 370.049
1181.968, 270.402
1183.190, 149.283
1184.412, 366.645
1185.633, 343.578
1186.855, 179.939
1188.076, 446.451
1189.297, 224.242
1190.518, 260.895
1191.738, 185.043
1192.959, 300.373
1194.179, 276.805
1195.399, 233.430
1196.619, 298.596
1197.838, 494.557
1199.058, 200.297
1200.277, 385.465
1201.496, 411.811
1202.715, 167.135
1203.934, 482.303
1205.152, 171.064
1206.371, 205.768
1207.589, 400.434
1208.807, 186.762
1210.024, 321.346
1211.242, 246.510
1212.459, 311.816
1213.677, 416.547
1214.894, 441.545
1216.110, 325.936
1217.327, 500.375
1218.543, 225.330
1219.760, 419.604
1220.976, 394.539
1222.192, 200.354
1223.407, 554.732
1224.623, 489.416
1225.838, 423.484
1227.053, 537.566
1228.268, 442.818
1229.483, 577.010
1230.697, 510.918
1231.912, 295.713
1233.126, 619.535
1234.340, 474.994
1235.554, 419.090
1236.767, 602.793
1237.981, 409.402
1239.194, 603.023
1240.407, 376.600
1241.620, 240.184
1242.832, 573.709
1244.045, 497.205
1245.257, 331.266
1246.469, 644.707
1247.681, 328.125
1248.893, 501.514
1250.104, 384.875
1251.315, 348.322
1252.527, 541.627
1253.738, 344.896
1254.948, 398.129
1256.159, 521.328
1257.369, 494.619
1258.579, 478.555
1259.789, 501.639
1260.999, 234.678
1262.209, 467.947
1263.418, 500.877
1264.628, 93.941
1265.837, 456.725
1267.046, 109.469
1268.254, 442.158
1269.463, 334.787
1270.671, 207.373
1271.879, 529.936
1273.087, 222.336
1274.295, 194.807
1275.502, 436.994
1276.710, 28.885
1277.917, 212.150
1279.124, 134.000
1280.331, 165.867
1281.537, 207.520
1282.744, 249.105
1283.950, 42.057
1285.156, 319.246
1286.362, 160.457
1287.568, 122.010
1288.773, 333.027
1289.978, 107.871
1291.184, 233.059
1292.389, 253.662
1293.593, 54.383
1294.798, 364.979
1296.002, 65.553
1297.206, 56.057
1298.410, 326.494
1299.614, 126.871
1300.818, 2.812
1302.021, 257.422
1303.225, 142.664
1304.428, 447.383
1305.631, 53.139
1306.833, 3.492
1308.036, 185.885
1309.238, 54.408
1310.440, 94.775
1311.642, 132.021
1312.844, 18.635
1314.045, 250.723
1315.247, 179.447
1316.448, 151.326
1317.649, 197.754
1318.850, 206.000
1320.051, 155.033
1321.251, 193.129
1322.451, 51.691
1323.651, 270.365
1324.851, 345.494
1326.051, 315.969
1327.251, 32.396
1328.450, 90.357
1329.649, 118.559
1330.848, 176.686
1332.047, 154.510
1333.245, 62.484
1334.444, 130.322
1335.642, 61.838
1336.840, 365.619
1338.038, 143.297
1339.236, 120.912
1340.433, 378.354
1341.630, 185.848
1342.828, 223.281
1344.025, 350.461
1345.221, 127.775
1346.418, 295.027
1347.614, 321.771
1348.810, 18.906
1350.006, 425.508
1351.202, 412.191
1352.398, 109.146
1353.593, 455.611
1354.789, 262.453
1355.984, 219.043
1357.179, 345.777
1358.373, 272.461
1359.568, 549.098
1360.762, 385.688
1361.956, 252.232
1363.150, 478.389
1364.344, 235.133
1365.538, 111.541
1366.731, 347.426
1367.924, 263.752
1369.117, 410.039
1370.310, 386.342
1371.503, 142.600
1372.695, 338.789
1373.888, 404.953
1375.080, 181.076
1376.272, 417.027
1377.464, 103.967
1378.655, 310.025
1379.847, 566.074
1381.038, 42.463
1382.229, 398.213
1383.420, 453.328
1384.610, 382.863
1385.801, 542.795
1386.991, 632.551
1388.181, 252.207
1389.371, 711.854
1390.561, 441.400
1391.750, 550.996
1392.940, 570.516
1394.129, 369.291
1395.318, 658.664
1396.507, 546.346
1397.696, 404.055
1398.884, 672.002
1400.072, 370.207
1401.260, 208.188
1402.448, 582.410
1403.636, 418.480
1404.824, 335.359
1406.011, 644.641
1407.198, 350.059
1408.385, 503.887
1409.572, 560.328
1410.758, 384.949
1411.945, 716.742
1413.131, 482.312
1414.317, 362.535
1415.503, 922.055
1416.689, 301.371
1417.874, 515.859
1419.060, 586.016
1420.245, 83.273
1421.430, 628.371
1422.615, 282.117
1423.799, 306.109
1424.984, 446.973
1426.168, 336.602
1427.352, 233.898
1428.536, 385.070
1429.720, 134.375
1430.903, 353.496
1432.087, 485.703
1433.270, 197.508
1434.453, 639.074
1435.635, 430.555
1436.818, 373.285
1438.001, 590.816
1439.183, 311.902
1440.365, 374.648
1441.547, 706.523
1442.728, 299.105
1443.910, 381.285
1445.091, 823.375
1446.272, 293.273
1447.453, 555.301
1448.634, 475.809
1449.815, 278.145
1450.995, 719.051
1452.176, 497.641
1453.356, 384.148
1454.535, 956.250
1455.715, 518.055
1456.895, 458.410
1458.074, 519.684
1459.253, 450.652
1460.432, 651.051
1461.611, 661.418
1462.790, 331.203
1463.968, 989.121
1465.146, 577.984
1466.324, 386.898
1467.502, 706.219
1468.680, 495.316
1469.858, 334.105
1471.035, 792.836
1472.212, 422.371
1473.389, 638.719
1474.566, 538.570
1475.742, 89.156
1476.919, 770.121
1478.095, 340.086
1479.271, 501.152
1480.447, 702.430
1481.623, 333.715
1482.798, 505.031
1483.974, 756.277
1485.149, 47.453
1486.324, 308.625
1487.499, 549.777
1488.674, 110.945
1489.848, 652.289
1491.022, 393.613
1492.196, 174.941
1493.370, 626.320
1494.544, 167.836
1495.718, 219.566
1496.891, 531.500
1498.064, 163.691
1499.237, 196.203
1500.410, 579.012
1501.583, 222.016
1502.755, 205.219
1503.928, 468.602
1505.100, 8.414
1506.272, 705.414
1507.443, 459.547
1508.615, 124.039
1509.786, 668.953
1510.958, 34.324
1512.129, 40.203
1513.300, 346.598
1514.470, 193.582
1515.641, 396.742
1516.811, 334.660
1517.981, 7.746
1519.151, 510.504
1520.321, 240.570
1521.491, 1.027
1522.660, 466.891
1523.829, 0.000
##END=



