##NAMES=Orthoclase
##RRUFFID=R040055
##IDEAL CHEMISTRY=KAlSi_3_O_8_
##LOCALITY=Madagascar
##OWNER=RRUFF
##SOURCE=Bob Downs
##DESCRIPTION=Pale yellow fragments
##STATUS=The identification of this mineral has been confirmed by X-ray diffraction and chemical analysis
##URL=rruff.info/R040055
##MEASURED CHEMISTRY=K_0.96_(Al_0.96_Si_0.03_Fe_0.02_)Si_3.00_O_8_; = light material. (K_0.90_Na_0.02_)(Al_0.91_Si_0.08_Fe_0.02_)Si_3.00_O_8_ = dark
##PIN_ID=M00468
##ORIENTATION=Laser parallel to (1 0 1). Fiducial mark perpendicular to laser is parallel to b [0 1 0]
51.562, 0.000
52.970, 116.623
54.377, 0.952
55.785, 84.679
57.192, 45.708
58.599, 57.883
60.005, 62.429
61.412, 51.727
62.818, 64.494
64.224, 59.967
65.629, 68.052
67.035, 66.227
68.440, 53.628
69.845, 26.937
71.250, 59.695
72.654, 106.891
74.059, 200.486
75.463, 173.279
76.866, 137.015
78.270, 130.239
79.673, 17.022
81.076, 41.980
82.479, 5.794
83.882, 9.439
85.284, 12.064
86.686, 103.734
88.088, 318.635
89.489, 512.806
90.891, 725.323
92.292, 987.080
93.693, 1151.988
95.093, 1381.016
96.494, 1470.142
97.894, 1762.350
99.294, 1662.628
100.694, 1694.963
102.093, 1833.346
103.492, 1707.768
104.891, 2011.223
106.290, 2037.705
107.689, 2374.210
109.087, 2484.733
110.485, 3003.271
111.883, 3524.820
113.280, 4303.376
114.678, 5966.941
116.075, 7118.506
117.472, 7050.077
118.868, 6311.728
120.264, 6024.594
121.661, 5382.070
123.057, 4444.170
124.452, 3895.604
125.848, 2977.246
127.243, 2722.867
128.638, 2133.338
130.032, 2003.644
131.427, 1751.653
132.821, 1361.238
134.215, 1285.486
135.609, 1136.585
137.002, 1135.604
138.396, 916.548
139.789, 944.428
141.182, 851.247
142.574, 894.010
143.966, 1064.719
145.359, 1049.378
146.750, 1452.988
148.142, 1664.555
149.534, 2247.079
150.925, 2631.541
152.316, 2742.963
153.706, 2773.349
155.097, 2280.703
156.487, 2209.025
157.877, 1726.316
159.267, 1581.577
160.656, 1433.809
162.045, 1116.010
163.434, 1064.185
164.823, 695.332
166.212, 786.452
167.600, 573.547
168.988, 588.616
170.376, 554.660
171.764, 439.679
173.151, 515.675
174.538, 310.644
175.925, 364.590
177.312, 295.510
178.698, 248.406
180.085, 203.277
181.471, 104.124
182.856, 190.208
184.242, 52.792
185.627, 166.974
187.012, 105.722
188.397, 117.322
189.781, 142.306
191.166, 106.737
192.550, 199.954
193.934, 74.162
195.317, 229.404
196.701, 137.462
198.084, 149.341
199.467, 122.197
200.850, 53.837
202.232, 163.314
203.614, 36.730
204.996, 61.956
206.378, 32.169
207.760, 68.367
209.141, 98.551
210.522, 93.015
211.903, 145.858
213.283, 95.979
214.664, 147.084
216.044, 120.175
217.424, 125.254
218.803, 245.692
220.183, 131.710
221.562, 215.309
222.941, 151.444
224.320, 230.618
225.698, 234.825
227.076, 180.050
228.454, 300.292
229.832, 163.554
231.210, 348.833
232.587, 285.128
233.964, 295.370
235.341, 370.623
236.718, 311.894
238.094, 485.180
239.470, 327.479
240.846, 582.790
242.222, 564.111
243.597, 594.440
244.973, 777.775
246.348, 820.116
247.722, 1073.076
249.097, 1031.343
250.471, 1345.546
251.845, 1504.900
253.219, 1572.256
254.593, 1934.612
255.966, 2022.966
257.339, 2491.463
258.712, 2608.811
260.085, 2998.201
261.457, 3298.539
262.830, 3310.871
264.202, 3753.197
265.573, 3600.516
266.945, 3917.829
268.316, 3904.134
269.687, 3935.432
271.058, 4427.723
272.429, 4221.005
273.799, 4833.279
275.169, 4980.546
276.539, 5680.805
277.909, 6139.055
279.278, 6383.297
280.647, 6985.532
282.016, 6496.755
283.385, 6597.972
284.754, 5839.179
286.122, 5237.378
287.490, 4721.563
288.858, 3754.733
290.225, 3519.885
291.593, 2683.020
292.960, 2421.133
294.327, 1945.218
295.694, 1608.278
297.060, 1382.319
298.426, 1032.342
299.792, 1039.348
301.158, 772.338
302.524, 653.115
303.889, 587.273
305.254, 361.217
306.619, 436.147
307.983, 185.063
309.348, 297.964
310.712, 139.851
312.076, 120.724
313.440, 140.583
314.803, 44.428
316.166, 54.257
317.529, 33.929
318.892, 14.854
320.255, 37.620
321.617, 60.631
322.979, 26.918
324.341, 79.234
325.702, 69.592
327.064, 110.989
328.425, 88.436
329.786, 64.927
331.147, 96.456
332.507, 6.031
333.867, 50.627
335.227, 79.258
336.587, 90.930
337.947, 43.646
339.306, 31.393
340.665, 29.168
342.024, 12.029
343.383, 65.791
344.741, 54.647
346.100, 17.538
347.458, 89.453
348.815, 135.586
350.173, 32.411
351.530, 134.555
352.887, 142.470
354.244, 167.308
355.601, 334.054
356.957, 267.749
358.313, 393.375
359.669, 456.979
361.025, 456.542
362.380, 554.093
363.735, 498.595
365.091, 610.722
366.445, 476.169
367.800, 488.120
369.154, 433.298
370.508, 348.222
371.862, 367.459
373.216, 284.844
374.569, 255.211
375.922, 225.738
377.275, 176.162
378.628, 267.719
379.981, 258.260
381.333, 253.822
382.685, 237.377
384.037, 348.930
385.389, 316.478
386.740, 303.019
388.091, 445.552
389.442, 358.078
390.793, 509.597
392.143, 558.107
393.494, 667.610
394.844, 837.105
396.193, 838.591
397.543, 1152.070
398.892, 1188.541
400.241, 1485.004
401.590, 1584.459
402.939, 1636.906
404.287, 1796.344
405.636, 1522.775
406.984, 1521.198
408.331, 1154.612
409.679, 898.019
411.026, 764.423
412.373, 537.819
413.720, 419.209
415.067, 376.590
416.413, 308.963
417.760, 182.328
419.106, 99.686
420.451, 156.034
421.797, 122.374
423.142, 239.706
424.487, 213.030
425.832, 215.346
427.177, 302.654
428.521, 303.955
429.865, 483.248
431.209, 498.533
432.553, 675.811
433.896, 856.081
435.240, 945.344
436.583, 1314.600
437.926, 1388.847
439.268, 1859.088
440.611, 2372.322
441.953, 2640.547
443.295, 3537.766
444.636, 3957.978
445.978, 5018.181
447.319, 5655.379
448.660, 6509.569
450.001, 7678.752
451.342, 7547.930
452.682, 8477.100
454.022, 8126.261
455.362, 7935.419
456.702, 7834.568
458.041, 6653.711
459.380, 6892.847
460.719, 6084.978
462.058, 5817.102
463.397, 5722.220
464.735, 5405.334
466.073, 5847.439
467.411, 5739.539
468.749, 6556.632
470.086, 6995.721
471.424, 7554.805
472.761, 8773.819
474.097, 8422.746
475.434, 9041.749
476.770, 8010.241
478.106, 7388.809
479.442, 6863.970
480.778, 5603.976
482.114, 5529.368
483.449, 4830.828
484.784, 4760.396
486.119, 4535.676
487.453, 4166.556
488.787, 4320.833
490.122, 4042.522
491.456, 4061.686
492.789, 4157.870
494.123, 4289.729
495.456, 4863.791
496.789, 4938.057
498.122, 6009.593
499.454, 6790.102
500.787, 7975.384
502.119, 10160.812
503.451, 11868.692
504.782, 15951.832
506.114, 19185.682
507.445, 24681.861
508.776, 31813.541
510.107, 36092.434
511.437, 43417.703
512.768, 42518.219
514.098, 41687.168
515.428, 36666.160
516.758, 28911.307
518.087, 24672.609
519.416, 18386.355
520.745, 14896.515
522.074, 12059.746
523.403, 9491.020
524.731, 8322.229
526.059, 6553.686
527.387, 5688.122
528.715, 4941.759
530.042, 4210.781
531.370, 3874.807
532.697, 3273.832
534.023, 3181.596
535.350, 2713.875
536.676, 2454.166
538.003, 2380.819
539.329, 1952.189
540.654, 1992.407
541.980, 1746.574
543.305, 1599.462
544.630, 1561.478
545.955, 1225.494
547.280, 1347.508
548.604, 1084.521
549.928, 1100.534
551.252, 1070.547
552.576, 908.558
553.899, 979.568
555.223, 782.577
556.546, 765.586
557.869, 781.594
559.191, 701.612
560.514, 797.631
561.836, 645.650
563.158, 730.680
564.480, 648.709
565.801, 644.743
567.123, 607.776
568.444, 525.808
569.765, 595.873
571.085, 554.938
572.406, 485.021
573.726, 578.109
575.046, 495.211
576.366, 555.317
577.685, 500.431
579.005, 500.410
580.324, 512.534
581.643, 418.611
582.962, 544.737
584.280, 459.865
585.598, 400.995
586.916, 517.126
588.234, 399.260
589.552, 483.399
590.869, 389.551
592.186, 399.701
593.503, 472.861
594.820, 391.019
596.137, 426.180
597.453, 368.340
598.769, 411.499
600.085, 384.659
601.401, 271.832
602.716, 373.013
604.031, 285.194
605.346, 338.374
606.661, 381.553
607.976, 213.732
609.290, 279.910
610.604, 208.087
611.918, 263.263
613.232, 245.439
614.545, 237.619
615.858, 277.798
617.171, 193.976
618.484, 215.154
619.797, 214.330
621.109, 179.505
622.421, 314.680
623.733, 212.853
625.045, 318.025
626.357, 233.196
627.668, 225.366
628.979, 263.535
630.290, 151.703
631.601, 192.870
632.911, 159.037
634.221, 108.203
635.531, 146.370
636.841, 79.538
638.151, 169.723
639.460, 120.911
640.769, 136.101
642.078, 196.314
643.387, 69.542
644.695, 199.798
646.004, 256.080
647.312, 216.399
648.620, 298.748
649.927, 191.121
651.235, 268.527
652.542, 246.941
653.849, 179.377
655.156, 315.840
656.462, 164.334
657.769, 270.846
659.075, 139.374
660.381, 200.916
661.686, 188.462
662.992, 87.032
664.297, 131.624
665.602, 54.226
666.907, 72.858
668.212, 114.489
669.516, 23.865
670.820, 45.762
672.124, 53.388
673.428, 94.989
674.732, 33.422
676.035, 71.880
677.338, 14.382
678.641, 62.900
679.944, 31.457
681.246, 30.039
682.548, 33.648
683.850, 32.977
685.152, 19.933
686.454, 57.609
687.755, 57.324
689.056, 72.974
690.357, 20.776
691.658, 60.597
692.959, 92.460
694.259, 18.381
695.559, 29.052
696.859, 12.983
698.159, 25.013
699.458, 4.962
700.758, 86.050
702.057, 64.058
703.355, 173.063
704.654, 166.065
705.952, 210.118
707.251, 331.113
708.549, 237.104
709.846, 393.093
711.144, 374.077
712.441, 423.059
713.738, 503.036
715.035, 487.649
716.332, 617.754
717.629, 498.814
718.925, 605.304
720.221, 700.359
721.517, 603.241
722.812, 774.192
724.108, 758.138
725.403, 752.058
726.698, 915.996
727.993, 864.244
729.287, 1006.528
730.582, 1162.680
731.876, 1218.323
733.170, 1399.445
734.464, 1436.743
735.757, 1721.644
737.050, 1882.560
738.343, 1942.035
739.636, 2341.441
740.929, 2205.839
742.221, 2457.064
743.514, 2514.335
744.806, 2454.481
746.098, 2761.249
747.389, 2486.097
748.681, 2632.033
749.972, 2691.867
751.263, 2495.210
752.554, 2667.032
753.844, 2475.847
755.134, 2531.805
756.425, 2605.888
757.714, 2427.459
759.004, 2588.293
760.294, 2314.073
761.583, 2464.847
762.872, 2424.650
764.161, 2318.426
765.449, 2383.178
766.738, 2172.932
768.026, 2255.670
769.314, 2221.523
770.602, 2028.247
771.890, 2226.963
773.177, 2057.673
774.464, 1977.376
775.751, 2090.072
777.038, 1891.760
778.324, 1984.441
779.611, 1885.116
780.897, 1844.783
782.183, 2007.443
783.468, 1816.095
784.754, 1988.741
786.039, 1999.379
787.324, 2017.011
788.609, 2290.635
789.894, 2527.252
791.178, 2637.863
792.462, 2574.464
793.746, 2736.059
795.030, 2996.648
796.314, 2818.228
797.597, 3076.802
798.880, 3054.367
800.163, 2902.925
801.446, 3241.475
802.729, 3081.018
804.011, 3280.552
805.293, 3298.077
806.575, 3346.595
807.857, 3604.105
809.138, 3447.606
810.419, 3493.098
811.701, 3332.581
812.981, 2863.056
814.262, 2768.522
815.543, 2174.979
816.823, 1879.427
818.103, 1600.865
819.383, 1088.295
820.662, 1063.715
821.942, 691.127
823.221, 609.529
824.500, 548.305
825.779, 378.658
827.057, 388.032
828.336, 310.242
829.614, 266.282
830.892, 331.878
832.169, 197.051
833.447, 162.150
834.724, 205.193
836.001, 155.297
837.278, 179.148
838.555, 81.015
839.831, 81.675
841.108, 113.945
842.384, 34.209
843.660, 163.468
844.935, 93.982
846.211, 119.976
847.486, 106.952
848.761, 9.440
850.036, 54.439
851.310, 50.464
852.585, 41.534
853.859, 57.879
855.133, 43.088
856.407, 134.292
857.680, 114.492
858.954, 22.687
860.227, 106.876
861.500, 81.061
862.773, 130.241
864.045, 50.417
865.317, 43.588
866.590, 40.755
867.861, 34.083
869.133, 8.051
870.405, 10.178
871.676, 32.700
872.947, 9.395
874.218, 7.516
875.489, 78.559
876.759, 39.630
878.029, 120.303
879.299, 31.691
880.569, 62.319
881.839, 15.370
883.108, 45.439
884.378, 5.541
885.647, 29.654
886.915, 32.791
888.184, 28.047
889.452, 19.881
890.721, 4.289
891.989, 3.469
893.256, 3.659
894.524, 0.858
895.791, 2.065
897.058, 17.280
898.325, 43.510
899.592, 64.229
900.859, 31.034
902.125, 27.680
903.391, 5.607
904.657, 27.095
905.923, 95.796
907.188, 0.493
908.454, 51.814
909.719, 28.149
910.984, 2.496
912.248, 23.138
913.513, 22.995
914.777, 2.445
916.041, 6.099
917.305, 25.757
918.569, 6.413
919.832, 69.066
921.096, 20.283
922.359, 68.355
923.621, 10.997
924.884, 91.636
926.147, 78.275
927.409, 88.922
928.671, 105.567
929.933, 76.211
931.194, 158.854
932.456, 142.494
933.717, 170.134
934.978, 153.774
936.239, 189.412
937.499, 158.050
938.760, 187.750
940.020, 252.322
941.280, 234.956
942.540, 291.589
943.799, 327.221
945.059, 392.853
946.318, 449.483
947.577, 487.113
948.835, 493.743
950.094, 665.372
951.352, 660.000
952.611, 727.627
953.868, 833.255
955.126, 788.882
956.384, 851.509
957.641, 938.136
958.898, 890.763
960.155, 903.390
961.412, 873.017
962.668, 885.645
963.925, 950.272
965.181, 831.900
966.437, 946.529
967.692, 959.176
968.948, 860.823
970.203, 921.471
971.458, 964.120
972.713, 916.769
973.968, 1016.418
975.222, 965.070
976.477, 920.729
977.731, 1083.391
978.985, 890.052
980.238, 1016.742
981.492, 1089.444
982.745, 1059.168
983.998, 1149.900
985.251, 1194.653
986.504, 1298.417
987.756, 1376.194
989.008, 1313.985
990.260, 1383.788
991.512, 1326.602
992.764, 1415.435
994.015, 1433.185
995.267, 1386.066
996.518, 1535.957
997.768, 1411.874
999.019, 1533.823
1000.270, 1444.512
1001.520, 1372.484
1002.770, 1542.459
1004.020, 1349.438
1005.269, 1254.439
1006.519, 1373.442
1007.768, 1200.459
1009.017, 1200.479
1010.266, 1140.447
1011.514, 1146.490
1012.763, 1134.537
1014.011, 1038.587
1015.259, 1101.651
1016.507, 1116.717
1017.754, 998.785
1019.002, 1060.220
1020.249, 1045.159
1021.496, 974.161
1022.743, 918.730
1023.989, 961.733
1025.236, 966.913
1026.482, 940.024
1027.728, 996.139
1028.974, 1063.279
1030.219, 807.400
1031.465, 983.212
1032.710, 936.985
1033.955, 865.889
1035.200, 942.316
1036.444, 927.262
1037.689, 878.032
1038.933, 973.207
1040.177, 917.366
1041.421, 967.965
1042.664, 976.631
1043.908, 905.306
1045.151, 933.157
1046.394, 917.960
1047.637, 947.889
1048.879, 1018.194
1050.122, 959.419
1051.364, 1035.565
1052.606, 1019.914
1053.848, 955.651
1055.089, 1062.920
1056.331, 943.196
1057.572, 921.327
1058.813, 885.267
1060.054, 829.787
1061.294, 858.042
1062.535, 755.918
1063.775, 782.246
1065.015, 717.706
1066.255, 702.213
1067.494, 809.560
1068.734, 701.915
1069.973, 707.274
1071.212, 768.518
1072.451, 758.842
1073.689, 811.501
1074.928, 840.913
1076.166, 895.498
1077.404, 975.889
1078.642, 1008.286
1079.879, 991.686
1081.117, 1119.092
1082.354, 1067.618
1083.591, 1181.192
1084.828, 1189.704
1086.064, 1218.241
1087.301, 1278.692
1088.537, 1251.149
1089.773, 1348.610
1091.009, 1311.077
1092.244, 1287.549
1093.480, 1467.027
1094.715, 1454.510
1095.950, 1506.009
1097.185, 1531.513
1098.419, 1461.022
1099.654, 1650.537
1100.888, 1687.057
1102.122, 1452.585
1103.356, 1702.172
1104.590, 1572.707
1105.823, 1557.275
1107.056, 1802.820
1108.289, 1601.387
1109.522, 1691.022
1110.755, 1604.582
1111.987, 1570.215
1113.219, 1648.892
1114.452, 1625.466
1115.683, 1602.207
1116.915, 1516.789
1118.146, 1481.424
1119.378, 1561.017
1120.609, 1580.615
1121.840, 1532.370
1123.070, 1653.977
1124.301, 1520.588
1125.531, 1625.209
1126.761, 1610.827
1127.991, 1537.462
1129.221, 1605.089
1130.450, 1459.719
1131.679, 1616.481
1132.909, 1595.155
1134.137, 1384.796
1135.366, 1504.657
1136.595, 1490.374
1137.823, 1420.023
1139.051, 1354.739
1140.279, 1295.493
1141.507, 1348.287
1142.734, 1255.697
1143.961, 1211.360
1145.189, 1085.330
1146.416, 1172.280
1147.642, 1035.949
1148.869, 1134.770
1150.095, 869.446
1151.321, 914.333
1152.547, 834.764
1153.773, 744.443
1154.998, 841.629
1156.224, 734.425
1157.449, 604.332
1158.674, 679.607
1159.899, 654.290
1161.123, 619.347
1162.348, 544.575
1163.572, 448.258
1164.796, 516.179
1166.020, 482.092
1167.243, 437.786
1168.467, 463.340
1169.690, 351.092
1170.913, 400.798
1172.136, 343.710
1173.358, 264.419
1174.581, 378.390
1175.803, 333.380
1177.025, 233.121
1178.247, 303.062
1179.468, 223.829
1180.690, 266.590
1181.911, 262.736
1183.132, 196.513
1184.353, 245.589
1185.574, 211.384
1186.794, 180.176
1188.014, 191.078
1189.234, 115.929
1190.454, 162.855
1191.674, 72.780
1192.893, 67.754
1194.113, 151.786
1195.332, 2.728
1196.551, 77.534
1197.769, 21.004
1198.988, 5.084
1200.206, 41.722
1201.424, 45.486
1202.642, 33.482
1203.860, 53.357
1205.078, 23.851
1206.295, 20.948
1207.512, 115.771
1208.729, 64.660
1209.946, 14.106
1211.162, 25.499
1212.379, 25.620
1213.595, 60.113
1214.811, 14.129
1216.027, 69.141
1217.242, 76.862
1218.458, 20.267
1219.673, 100.442
1220.888, 6.729
1222.103, 39.963
1223.317, 75.710
1224.532, 50.511
1225.746, 47.175
1226.960, 61.835
1228.174, 6.131
1229.388, 0.783
1230.601, 12.838
1231.814, 9.434
1233.028, 58.032
1234.240, 51.849
1235.453, 97.519
1236.666, 120.142
1237.878, 64.176
1239.090, 127.790
1240.302, 97.403
1241.514, 112.900
1242.725, 157.511
1243.937, 133.801
1245.148, 70.047
1246.359, 128.654
1247.570, 42.259
1248.780, 29.862
1249.990, 80.462
1251.201, 38.354
1252.411, 142.931
1253.620, 42.504
1254.830, 28.317
1256.039, 78.885
1257.249, 32.452
1258.458, 24.184
1259.667, 104.744
1260.875, 59.701
1262.084, 71.943
1263.292, 41.474
1264.500, 87.428
1265.708, 71.938
1266.916, 18.445
1268.123, 158.289
1269.330, 151.767
1270.538, 56.227
1271.744, 122.656
1272.951, 56.079
1274.158, 107.585
1275.364, 172.981
1276.570, 30.351
1277.776, 52.972
1278.982, 126.323
1280.188, 10.666
1281.393, 47.074
1282.598, 149.403
1283.803, 49.706
1285.008, 41.988
1286.213, 33.263
1287.417, 0.343
1288.621, 116.922
1289.825, 8.838
1291.029, 9.372
1292.233, 117.571
1293.436, 34.743
1294.640, 156.899
1295.843, 21.048
1297.046, 46.838
1298.248, 105.246
1299.451, 26.680
1300.653, 45.374
1301.855, 19.418
1303.057, 59.548
1304.259, 122.458
1305.461, 9.457
1306.662, 26.592
1307.863, 91.337
1309.064, 19.256
1310.265, 21.165
1311.466, 113.060
1312.666, 47.079
1313.866, 63.756
1315.066, 129.576
1316.266, 4.614
1317.466, 127.177
1318.665, 18.958
1319.865, 16.723
1321.064, 111.474
1322.263, 31.212
1323.461, 77.938
1324.660, 141.645
1325.858, 38.665
1327.056, 140.998
1328.254, 17.649
1329.452, 16.715
1330.650, 142.896
1331.847, 55.496
1333.044, 68.081
1334.241, 50.653
1335.438, 2.789
1336.635, 39.750
1337.831, 26.277
1339.027, 48.791
1340.223, 168.292
1341.419, 27.217
1342.615, 60.250
1343.810, 203.603
1345.006, 31.952
1346.201, 38.468
1347.396, 66.906
1348.590, 0.694
1349.785, 123.760
1350.979, 80.137
1352.174, 45.495
1353.368, 125.295
1354.561, 2.733
1355.755, 49.897
1356.948, 109.035
1358.142, 16.347
1359.335, 16.644
1360.527, 156.067
1361.720, 45.365
1362.913, 94.706
1364.105, 51.107
1365.297, 64.083
1366.489, 145.176
1367.681, 47.505
1368.872, 131.798
1370.063, 181.096
1371.255, 64.389
1372.446, 109.806
1373.636, 135.960
1374.827, 11.194
1376.017, 195.425
1377.208, 36.852
1378.398, 71.192
1379.587, 202.562
1380.777, 5.089
1381.966, 142.351
1383.156, 135.525
1384.345, 35.335
1385.534, 138.794
1386.722, 154.907
1387.911, 17.952
1389.099, 212.013
1390.287, 115.987
1391.475, 88.979
1392.663, 227.915
1393.851, 17.412
1395.038, 92.343
1396.225, 221.141
1397.412, 30.094
1398.599, 176.029
1399.786, 138.944
1400.972, 48.713
1402.159, 229.572
1403.345, 95.124
1404.531, 64.923
1405.716, 245.504
1406.902, 9.444
1408.087, 140.325
1409.272, 208.943
1410.457, 19.470
1411.642, 221.500
1412.827, 107.867
1414.011, 91.312
1415.195, 152.416
1416.379, 54.630
1417.563, 112.531
1418.747, 212.829
1419.930, 14.191
1421.114, 167.951
1422.297, 193.587
1423.480, 57.678
1424.662, 195.028
1425.845, 142.499
1427.027, 90.423
1428.209, 220.489
1429.391, 39.414
1430.573, 64.617
1431.755, 227.189
1432.936, 73.171
1434.117, 218.095
1435.298, 230.106
1436.479, 64.355
1437.660, 254.289
1438.840, 258.967
1440.021, 170.582
1441.201, 306.992
1442.381, 229.375
1443.561, 214.979
1444.740, 389.489
1445.920, 168.123
1447.099, 286.977
1448.278, 396.081
1449.457, 169.135
1450.635, 436.420
1451.814, 361.947
1452.992, 197.692
1454.170, 363.314
1455.348, 324.664
1456.526, 283.279
1457.703, 426.486
1458.880, 186.978
1460.058, 304.120
1461.235, 372.642
1462.411, 192.232
1463.588, 355.133
1464.764, 317.693
1465.941, 103.409
1467.117, 358.247
1468.293, 263.977
1469.468, 172.803
1470.644, 394.362
1471.819, 112.536
1472.994, 220.377
1474.169, 353.943
1475.344, 79.803
1476.518, 275.256
1477.693, 265.022
1478.867, 60.893
1480.041, 362.867
1481.215, 154.898
1482.388, 194.916
1483.562, 248.238
1484.735, 213.173
1485.908, 165.324
1487.081, 267.605
1488.254, 21.883
1489.427, 220.371
1490.599, 258.893
1491.771, 64.462
1492.943, 289.097
1494.115, 227.800
1495.286, 6.648
1496.458, 223.608
1497.629, 79.695
1498.800, 181.918
1499.971, 306.292
1501.142, 6.836
1502.312, 148.549
1503.483, 187.444
1504.653, 15.556
1505.823, 143.678
1506.993, 245.271
1508.162, 40.160
1509.332, 225.326
1510.501, 173.846
1511.670, 8.795
1512.839, 295.510
1514.008, 110.594
1515.176, 154.801
1516.344, 325.007
1517.513, 63.177
1518.680, 202.000
1519.848, 216.825
1521.016, 0.974
1522.183, 0.000
##END=



