##NAMES=Orthoclase
##RRUFFID=R040055
##IDEAL CHEMISTRY=KAlSi_3_O_8_
##LOCALITY=Madagascar
##OWNER=RRUFF
##SOURCE=Bob Downs
##DESCRIPTION=Pale yellow fragments
##STATUS=The identification of this mineral has been confirmed by X-ray diffraction and chemical analysis
##URL=rruff.info/R040055
##MEASURED CHEMISTRY=K_0.96_(Al_0.96_Si_0.03_Fe_0.02_)Si_3.00_O_8_; = light material. (K_0.90_Na_0.02_)(Al_0.91_Si_0.08_Fe_0.02_)Si_3.00_O_8_ = dark
##PIN_ID=L00124
##ORIENTATION=Laser parallel to b* (0 1 0). Fiducial mark perpendicular to laser is parallel to c [0 0 1]
53.228, 0.000
54.634, 43.806
56.040, 75.663
57.445, 65.712
58.850, 93.775
60.254, 139.939
61.659, 137.447
63.063, 186.418
64.467, 253.361
65.871, 205.552
67.274, 181.794
68.678, 88.763
70.081, 67.199
71.484, 12.378
72.886, 3.747
74.288, 11.356
75.690, 63.057
77.092, 3.311
78.494, 35.990
79.895, 53.808
81.296, 32.108
82.697, 58.864
84.097, 109.045
85.498, 142.631
86.898, 170.597
88.298, 297.926
89.697, 467.600
91.097, 755.604
92.496, 1065.935
93.895, 1350.578
95.293, 1722.522
96.692, 2162.771
98.090, 2496.315
99.488, 2676.135
100.885, 2864.202
102.283, 2883.492
103.680, 2828.993
105.077, 2690.691
106.473, 2551.579
107.870, 2622.652
109.266, 2551.902
110.662, 2576.326
112.057, 2743.917
113.453, 2936.669
114.848, 3306.579
116.243, 3824.642
117.638, 4891.855
119.032, 5029.214
120.426, 4830.716
121.820, 4759.358
123.214, 4520.139
124.608, 4418.053
126.001, 3923.102
127.394, 3644.280
128.787, 3381.678
130.179, 3151.256
131.571, 3144.952
132.963, 2944.764
134.355, 2847.691
135.747, 2893.741
137.138, 3134.041
138.529, 3198.571
139.920, 3403.310
141.311, 3811.182
142.701, 4029.089
144.091, 4708.000
145.481, 5522.904
146.870, 6567.780
148.260, 8033.589
149.649, 9903.373
151.038, 12163.193
152.426, 14103.053
153.815, 16602.957
155.203, 17262.916
156.591, 16792.926
157.979, 15342.986
159.366, 12763.116
160.753, 10713.328
162.140, 8293.643
163.527, 6794.018
164.913, 5378.450
166.300, 4406.941
167.686, 3743.494
169.071, 3060.106
170.457, 2723.779
171.842, 2292.515
173.227, 2160.313
174.612, 1948.173
175.996, 1743.096
177.381, 1622.083
178.765, 1445.132
180.149, 1445.245
181.532, 1218.421
182.915, 1181.660
184.299, 1020.963
185.681, 929.328
187.064, 950.757
188.446, 856.250
189.828, 859.805
191.210, 746.424
192.592, 713.106
193.973, 722.851
195.355, 582.659
196.736, 687.530
198.116, 555.464
199.497, 607.462
200.877, 440.522
202.257, 522.682
203.637, 448.160
205.016, 426.810
206.395, 422.059
207.774, 376.370
209.153, 406.745
210.532, 343.183
211.910, 387.685
213.288, 385.251
214.666, 372.881
216.043, 398.576
217.421, 404.163
218.798, 430.033
220.175, 336.315
221.551, 438.878
222.928, 422.536
224.304, 374.247
225.680, 452.785
227.055, 389.059
228.431, 426.421
229.806, 403.600
231.181, 385.323
232.556, 443.906
233.930, 362.561
235.304, 414.808
236.678, 323.074
238.052, 435.499
239.426, 475.538
240.799, 464.554
242.172, 543.763
243.545, 556.140
244.917, 671.460
246.290, 678.013
247.662, 822.612
249.034, 890.454
250.405, 1019.402
251.777, 1164.426
253.148, 1209.523
254.519, 1437.692
255.889, 1592.933
257.260, 1800.242
258.630, 2063.619
260.000, 2163.063
261.370, 2476.572
262.739, 2673.146
264.108, 3050.310
265.477, 3165.007
266.846, 3340.733
268.215, 3595.867
269.583, 3746.744
270.951, 4094.677
272.319, 4305.668
273.686, 4776.715
275.054, 5156.818
276.421, 5617.976
277.788, 6367.188
279.154, 6550.453
280.521, 7393.771
281.887, 7567.141
283.253, 7790.565
284.619, 7794.038
285.984, 7347.563
287.349, 6981.138
288.714, 6394.762
290.079, 5819.437
291.444, 5230.159
292.808, 4574.931
294.172, 4068.750
295.536, 3418.615
296.899, 3150.527
298.263, 2645.484
299.626, 2430.487
300.989, 2052.535
302.351, 1821.625
303.714, 1731.760
305.076, 1437.938
306.438, 1331.156
307.799, 1195.416
309.161, 1010.718
310.522, 971.063
311.883, 797.449
313.244, 851.879
314.604, 666.351
315.965, 638.866
317.325, 603.424
318.684, 575.024
320.044, 594.667
321.403, 454.353
322.762, 515.081
324.121, 481.851
325.480, 405.663
326.838, 450.516
328.196, 351.412
329.554, 428.351
330.912, 329.331
332.270, 392.351
333.627, 343.414
334.984, 280.518
336.341, 328.662
337.697, 217.846
339.053, 218.071
340.409, 147.339
341.765, 148.646
343.121, 109.993
344.476, 27.379
345.831, 75.804
347.186, 64.732
348.541, 37.239
349.895, 44.701
351.250, 38.130
352.604, 0.524
353.957, 47.876
355.311, 7.804
356.664, 32.533
358.017, 32.304
359.370, 173.121
360.722, 213.992
362.075, 275.904
363.427, 241.873
364.779, 361.891
366.130, 426.949
367.482, 308.045
368.833, 377.189
370.184, 326.393
371.535, 291.651
372.885, 144.979
374.235, 155.362
375.585, 115.805
376.935, 30.690
378.285, 35.858
379.634, 107.539
380.983, 45.908
382.332, 124.270
383.680, 135.610
385.029, 69.953
386.377, 170.278
387.725, 53.619
389.073, 102.936
390.420, 60.245
391.767, 33.470
393.114, 82.228
394.461, 217.029
395.808, 303.876
397.154, 555.768
398.500, 776.707
399.846, 933.692
401.191, 1329.729
402.537, 1518.817
403.882, 1926.958
405.227, 2180.163
406.571, 2303.416
407.916, 2308.199
409.260, 2120.047
410.604, 1975.425
411.948, 1624.843
413.291, 1268.301
414.635, 1070.799
415.978, 748.336
417.321, 570.913
418.663, 327.528
420.006, 290.182
421.348, 179.874
422.690, 32.604
424.031, 105.372
425.373, 45.823
426.714, 7.005
428.055, 57.131
429.396, 66.249
430.736, 50.648
432.077, 24.581
433.417, 118.549
434.757, 170.554
436.096, 215.593
437.436, 294.668
438.775, 410.778
440.114, 588.154
441.452, 774.101
442.791, 1073.314
444.129, 1347.561
445.467, 1713.842
446.805, 2149.156
448.142, 2463.503
449.480, 3176.883
450.817, 3619.296
452.154, 4005.741
453.490, 4494.219
454.827, 4683.729
456.163, 4962.271
457.499, 5100.844
458.835, 5059.448
460.170, 5478.084
461.505, 5573.751
462.840, 6000.449
464.175, 6429.176
465.510, 7377.934
466.844, 8426.723
468.178, 9755.541
469.512, 11664.389
470.846, 13773.264
472.179, 16492.170
473.512, 18881.107
474.845, 20620.076
476.178, 21509.066
477.511, 20918.078
478.843, 20027.131
480.175, 17386.209
481.507, 15155.313
482.839, 12744.445
484.170, 10653.604
485.501, 9462.792
486.832, 7952.004
488.163, 7171.330
489.493, 6460.927
490.823, 5760.217
492.153, 5534.535
493.483, 5222.221
494.813, 5178.588
496.142, 5127.982
497.471, 5345.438
498.800, 5876.880
500.129, 6467.116
501.457, 7626.607
502.785, 8866.119
504.113, 10815.658
505.441, 13635.221
506.769, 16784.807
508.096, 21602.600
509.423, 26783.586
510.750, 32972.102
512.077, 38741.289
513.403, 42372.008
514.729, 42429.301
516.055, 41782.684
517.381, 37573.500
518.706, 31345.150
520.032, 24958.797
521.357, 19609.424
522.681, 15533.926
524.006, 12696.614
525.330, 10040.925
526.655, 8093.514
527.978, 6838.260
529.302, 5617.255
530.626, 4906.865
531.949, 4125.651
533.272, 3647.970
534.595, 3319.812
535.917, 2777.132
537.239, 2627.548
538.562, 2303.004
539.883, 2120.544
541.205, 1858.328
542.527, 1715.712
543.848, 1567.369
545.169, 1429.420
546.489, 1291.910
547.810, 1269.539
549.130, 1107.238
550.450, 1017.632
551.770, 917.943
553.090, 802.268
554.409, 822.603
555.728, 638.958
557.047, 690.338
558.366, 616.739
559.685, 620.156
561.003, 603.590
562.321, 468.041
563.639, 515.516
564.956, 483.011
566.274, 582.527
567.591, 415.067
568.908, 359.622
570.225, 496.199
571.541, 406.784
572.857, 444.395
574.173, 423.020
575.489, 370.651
576.805, 338.298
578.120, 280.961
579.435, 359.632
580.750, 332.308
582.065, 318.990
583.380, 371.676
584.694, 317.840
586.008, 327.536
587.322, 324.270
588.635, 269.657
589.949, 307.377
591.262, 224.104
592.575, 269.834
593.887, 218.569
595.200, 174.308
596.512, 219.049
597.824, 259.793
599.136, 325.540
600.447, 275.290
601.759, 213.042
603.070, 256.795
604.381, 202.550
605.692, 198.305
607.002, 248.062
608.312, 170.818
609.622, 296.575
610.932, 168.331
612.242, 292.087
613.551, 205.842
614.860, 175.597
616.169, 152.350
617.478, 199.101
618.786, 272.851
620.094, 173.599
621.402, 275.344
622.710, 262.087
624.018, 200.827
625.325, 317.564
626.632, 236.297
627.939, 375.028
629.246, 307.754
630.552, 333.476
631.859, 258.194
633.165, 300.908
634.471, 271.616
635.776, 167.320
637.082, 160.019
638.387, 126.524
639.692, 78.398
640.996, 74.080
642.301, 43.993
643.605, 54.423
644.909, 37.084
646.213, 24.737
647.516, 77.380
648.820, 72.014
650.123, 26.642
651.426, 105.256
652.729, 71.864
654.031, 46.462
655.333, 81.052
656.636, 15.633
657.937, 138.196
659.239, 59.751
660.540, 117.297
661.842, 71.189
663.142, 72.715
664.443, 112.254
665.744, 10.156
667.044, 57.331
668.344, 32.434
669.644, 13.646
670.944, 88.308
672.243, 11.338
673.542, 16.803
674.841, 0.444
676.140, 31.794
677.438, 26.649
678.737, 43.500
680.035, 13.654
681.333, 38.605
682.630, 10.392
683.928, 44.014
685.225, 47.103
686.522, 40.066
687.819, 88.717
689.115, 32.609
690.412, 55.549
691.708, 62.534
693.004, 12.593
694.300, 31.418
695.595, 11.716
696.890, 31.244
698.185, 51.529
699.480, 22.035
700.775, 81.651
702.069, 44.494
703.363, 116.221
704.657, 145.783
705.951, 171.272
707.244, 251.759
708.538, 233.339
709.831, 327.751
711.124, 320.977
712.416, 389.376
713.709, 421.070
715.001, 509.367
716.293, 536.152
717.585, 517.924
718.876, 616.316
720.167, 629.338
721.459, 699.021
722.749, 695.763
724.040, 720.675
725.331, 750.134
726.621, 750.950
727.911, 785.240
729.201, 818.894
730.490, 828.011
731.780, 887.791
733.069, 914.011
734.358, 949.345
735.646, 1031.377
736.935, 1149.359
738.223, 1202.318
739.511, 1319.254
740.799, 1359.186
742.087, 1586.115
743.374, 1613.851
744.661, 1806.242
745.948, 1745.698
747.235, 1672.531
748.522, 1702.545
749.808, 1696.376
751.094, 1661.196
752.380, 1658.928
753.666, 1469.826
754.951, 1635.717
756.236, 1648.379
757.521, 1460.104
758.806, 1471.717
760.091, 1491.307
761.375, 1484.929
762.659, 1360.470
763.943, 1301.988
765.227, 1301.481
766.511, 1162.950
767.794, 1160.395
769.077, 1101.816
770.360, 981.213
771.643, 974.585
772.925, 869.933
774.207, 867.256
775.489, 784.556
776.771, 749.830
778.053, 709.081
779.334, 590.307
780.615, 608.509
781.896, 501.687
783.177, 460.840
784.457, 528.968
785.738, 437.072
787.018, 412.151
788.298, 469.207
789.577, 374.237
790.857, 494.244
792.136, 344.225
793.415, 298.183
794.694, 402.115
795.972, 267.024
797.251, 299.905
798.529, 305.764
799.807, 316.514
801.084, 320.075
802.362, 297.069
803.639, 301.541
804.916, 268.936
806.193, 232.649
807.470, 279.339
808.746, 258.965
810.022, 258.606
811.298, 195.455
812.574, 232.048
813.850, 240.617
815.125, 109.163
816.400, 197.682
817.675, 150.177
818.950, 137.647
820.224, 197.824
821.499, 87.227
822.773, 79.167
824.047, 115.463
825.320, 68.802
826.594, 34.630
827.867, 106.870
829.140, 15.265
830.413, 114.648
831.685, 77.052
832.958, 69.578
834.230, 53.909
835.502, 112.614
836.774, 83.037
838.045, 42.295
839.316, 30.299
840.588, 19.319
841.858, 13.868
843.129, 6.710
844.400, 50.618
845.670, 3.243
846.940, 23.940
848.210, 51.414
849.479, 24.087
850.749, 8.876
852.018, 34.031
853.287, 51.714
854.556, 8.140
855.824, 23.700
857.093, 39.281
858.361, 55.633
859.629, 53.391
860.896, 30.921
862.164, 62.434
863.431, 19.070
864.698, 38.606
865.965, 28.185
867.232, 6.801
868.498, 15.442
869.764, 16.112
871.030, 42.812
872.296, 37.814
873.562, 33.336
874.827, 51.155
876.092, 18.021
877.357, 44.914
878.622, 11.152
879.886, 63.799
881.151, 22.800
882.415, 41.171
883.679, 26.872
884.942, 34.944
886.206, 2.051
887.469, 35.827
888.732, 81.691
889.995, 64.853
891.258, 77.951
892.520, 35.210
893.782, 29.025
895.044, 33.828
896.306, 44.382
897.568, 15.625
898.829, 30.113
900.090, 4.160
901.351, 16.553
902.612, 12.254
903.872, 40.945
905.133, 4.376
906.393, 5.709
907.653, 78.953
908.912, 1.605
910.172, 43.246
911.431, 92.881
912.690, 3.505
913.949, 37.120
915.208, 97.725
916.466, 26.320
917.724, 38.906
918.982, 65.483
920.240, 54.052
921.498, 77.612
922.755, 44.164
924.012, 142.707
925.269, 131.242
926.526, 131.769
927.782, 115.289
929.039, 142.263
930.295, 62.306
931.551, 191.806
932.806, 228.300
934.062, 239.854
935.317, 197.267
936.572, 205.740
937.827, 254.207
939.082, 171.668
940.336, 352.124
941.590, 284.573
942.844, 341.019
944.098, 472.458
945.352, 297.892
946.605, 496.321
947.859, 449.745
949.112, 552.165
950.364, 574.580
951.617, 642.996
952.869, 769.409
954.121, 725.819
955.373, 754.226
956.625, 862.630
957.877, 834.031
959.128, 892.430
960.379, 925.825
961.630, 905.218
962.881, 953.611
964.131, 982.002
965.381, 979.397
966.631, 1043.433
967.881, 1022.824
969.131, 1067.199
970.380, 1073.520
971.630, 1027.926
972.879, 1266.710
974.128, 1227.375
975.376, 1162.574
976.625, 1343.074
977.873, 1235.765
979.121, 1309.941
980.369, 1475.975
981.616, 1356.308
982.864, 1480.216
984.111, 1502.096
985.358, 1447.751
986.605, 1558.210
987.851, 1494.484
989.097, 1586.192
990.344, 1516.739
991.589, 1497.949
992.835, 1627.354
994.081, 1483.776
995.326, 1541.230
996.571, 1536.719
997.816, 1502.969
999.061, 1649.674
1000.305, 1499.111
1001.550, 1537.278
1002.794, 1620.092
1004.037, 1461.856
1005.281, 1525.406
1006.525, 1425.083
1007.768, 1419.920
1009.011, 1407.861
1010.254, 1423.800
1011.496, 1358.634
1012.739, 1383.624
1013.981, 1264.787
1015.223, 1307.777
1016.465, 1169.460
1017.706, 1266.527
1018.948, 1167.116
1020.189, 1112.704
1021.430, 1171.660
1022.671, 1115.973
1023.911, 1083.612
1025.152, 1083.194
1026.392, 1008.903
1027.632, 1000.970
1028.872, 1058.922
1030.111, 1019.926
1031.350, 969.552
1032.590, 930.723
1033.829, 906.004
1035.067, 914.252
1036.306, 871.189
1037.544, 945.407
1038.782, 956.661
1040.020, 927.925
1041.258, 972.197
1042.495, 1062.476
1043.733, 1142.741
1044.970, 1132.043
1046.207, 1106.000
1047.443, 1106.722
1048.680, 1175.058
1049.916, 1184.198
1051.152, 1352.506
1052.388, 1323.819
1053.624, 1372.207
1054.859, 1339.415
1056.094, 1316.613
1057.329, 1302.045
1058.564, 1257.399
1059.799, 1143.429
1061.033, 1097.891
1062.268, 979.307
1063.502, 933.789
1064.735, 975.281
1065.969, 818.786
1067.202, 807.299
1068.436, 725.823
1069.669, 800.383
1070.902, 759.953
1072.134, 812.535
1073.367, 875.125
1074.599, 793.725
1075.831, 943.336
1077.062, 948.956
1078.294, 898.586
1079.525, 991.803
1080.757, 1101.454
1081.988, 1106.115
1083.218, 1232.803
1084.449, 1271.500
1085.679, 1306.219
1086.909, 1372.958
1088.139, 1352.707
1089.369, 1449.596
1090.599, 1575.367
1091.828, 1511.146
1093.057, 1735.057
1094.286, 1804.857
1095.515, 1767.667
1096.744, 2008.488
1097.972, 1907.320
1099.200, 2189.031
1100.428, 2200.884
1101.656, 2265.823
1102.883, 2543.824
1104.111, 2481.704
1105.338, 2818.650
1106.565, 3016.628
1107.791, 2942.540
1109.018, 3406.574
1110.244, 3487.505
1111.470, 3763.446
1112.696, 4083.833
1113.922, 4195.849
1115.147, 4613.820
1116.373, 4856.981
1117.598, 4993.972
1118.823, 5601.224
1120.047, 5628.248
1121.272, 5685.281
1122.496, 5952.637
1123.720, 5779.694
1124.944, 5737.038
1126.168, 5854.720
1127.391, 5601.816
1128.615, 5660.980
1129.838, 5218.129
1131.061, 5295.262
1132.283, 5173.299
1133.506, 4608.546
1134.728, 4868.811
1135.950, 4604.049
1137.172, 4098.230
1138.394, 4164.488
1139.615, 3952.957
1140.837, 3745.258
1142.058, 3661.565
1143.279, 3295.818
1144.499, 3227.218
1145.720, 3120.172
1146.940, 2810.450
1148.160, 2673.617
1149.380, 2418.221
1150.600, 2326.768
1151.819, 2160.583
1153.038, 1964.924
1154.257, 1964.551
1155.476, 1776.377
1156.695, 1531.820
1157.913, 1548.561
1159.132, 1481.357
1160.350, 1300.720
1161.568, 1366.429
1162.785, 1123.073
1164.003, 1129.595
1165.220, 1070.616
1166.437, 948.033
1167.654, 1042.870
1168.871, 791.507
1170.087, 771.115
1171.304, 805.055
1172.520, 631.942
1173.736, 768.432
1174.951, 681.529
1176.167, 512.149
1177.382, 653.673
1178.597, 483.669
1179.812, 522.200
1181.027, 538.247
1182.241, 408.202
1183.455, 784.750
1184.669, 755.604
1185.883, 684.418
1187.097, 485.961
1188.311, 273.182
1189.524, 204.783
1190.737, 289.777
1191.950, 151.125
1193.162, 185.670
1194.375, 155.955
1195.587, 45.712
1196.799, 134.253
1198.011, 93.589
1199.223, 163.275
1200.434, 178.809
1201.646, 60.797
1202.857, 154.714
1204.068, 65.555
1205.279, 25.612
1206.489, 120.882
1207.699, 28.781
1208.909, 64.463
1210.119, 140.946
1211.329, 14.028
1212.539, 65.610
1213.748, 121.079
1214.957, 11.088
1216.166, 101.548
1217.375, 43.305
1218.583, 17.795
1219.792, 129.239
1221.000, 23.024
1222.208, 34.583
1223.415, 121.012
1224.623, 18.210
1225.830, 119.329
1227.037, 125.768
1228.244, 115.190
1229.451, 135.602
1230.658, 34.615
1231.864, 40.442
1233.070, 215.819
1234.276, 6.800
1235.482, 122.165
1236.687, 45.523
1237.893, 13.189
1239.098, 139.541
1240.303, 61.878
1241.508, 91.737
1242.712, 103.069
1243.917, 17.425
1245.121, 99.979
1246.325, 33.305
1247.529, 22.723
1248.732, 177.047
1249.936, 43.362
1251.139, 40.059
1252.342, 92.359
1253.545, 33.776
1254.747, 145.128
1255.950, 131.417
1257.152, 24.120
1258.354, 54.146
1259.556, 93.405
1260.758, 34.880
1261.959, 162.344
1263.160, 13.565
1264.361, 95.615
1265.562, 119.755
1266.763, 5.879
1267.963, 153.230
1269.164, 17.322
1270.364, 1.629
1271.563, 144.409
1272.763, 26.561
1273.963, 82.433
1275.162, 103.388
1276.361, 5.667
1277.560, 70.478
1278.759, 8.620
1279.957, 79.236
1281.155, 163.346
1282.354, 22.848
1283.551, 38.231
1284.749, 82.983
1285.947, 85.277
1287.144, 134.583
1288.341, 53.742
1289.538, 46.102
1290.735, 108.794
1291.931, 16.617
1293.128, 33.925
1294.324, 52.528
1295.520, 40.958
1296.716, 114.541
1297.911, 46.008
1299.107, 87.538
1300.302, 93.857
1301.497, 24.207
1302.692, 16.540
1303.886, 127.857
1305.081, 35.842
1306.275, 59.397
1307.469, 92.600
1308.663, 71.234
1309.856, 143.887
1311.050, 25.990
1312.243, 78.075
1313.436, 89.139
1314.629, 35.818
1315.822, 31.192
1317.014, 265.181
1318.206, 68.852
1319.398, 103.071
1320.590, 163.972
1321.782, 66.147
1322.974, 212.684
1324.165, 22.465
1325.356, 32.778
1326.547, 237.942
1327.738, 62.641
1328.928, 72.318
1330.119, 207.974
1331.309, 4.393
1332.499, 124.208
1333.688, 33.787
1334.878, 11.343
1336.067, 173.874
1337.256, 13.454
1338.445, 90.938
1339.634, 203.400
1340.823, 5.158
1342.011, 108.256
1343.199, 152.901
1344.388, 37.725
1345.575, 204.632
1346.763, 64.955
1347.950, 66.529
1349.138, 271.967
1350.325, 48.236
1351.512, 99.487
1352.698, 172.000
1353.885, 23.220
1355.071, 122.423
1356.257, 226.780
1357.443, 81.042
1358.629, 297.096
1359.814, 78.418
1361.000, 141.534
1362.185, 238.641
1363.370, 70.011
1364.554, 123.096
1365.739, 233.177
1366.923, 69.255
1368.107, 123.744
1369.291, 146.877
1370.475, 40.063
1371.659, 151.972
1372.842, 17.512
1374.025, 14.491
1375.208, 195.529
1376.391, 32.830
1377.574, 187.748
1378.756, 241.755
1379.939, 89.698
1381.121, 326.527
1382.303, 222.476
1383.484, 49.105
1384.666, 321.832
1385.847, 126.337
1387.028, 150.772
1388.209, 314.185
1389.390, 149.592
1390.570, 284.101
1391.751, 207.992
1392.931, 79.091
1394.111, 309.232
1395.291, 147.598
1396.470, 163.601
1397.649, 387.949
1398.829, 132.923
1400.008, 263.153
1401.187, 324.255
1402.365, 69.104
1403.544, 341.855
1404.722, 310.605
1405.900, 18.562
1407.078, 435.976
1408.255, 206.577
1409.433, 113.762
1410.610, 373.247
1411.787, 175.481
1412.964, 222.545
1414.141, 390.627
1415.317, 161.559
1416.494, 277.542
1417.670, 268.444
1418.846, 106.396
1420.022, 302.502
1421.197, 225.100
1422.373, 86.154
1423.548, 389.620
1424.723, 64.099
1425.898, 216.649
1427.072, 400.224
1428.247, 99.586
1429.421, 233.572
1430.595, 316.292
1431.769, 72.772
1432.942, 399.517
1434.116, 195.125
1435.289, 117.237
1436.462, 451.322
1437.635, 131.921
1438.808, 393.469
1439.981, 462.804
1441.153, 120.041
1442.325, 452.745
1443.497, 363.396
1444.669, 156.391
1445.840, 476.699
1447.012, 422.333
1448.183, 142.353
1449.354, 530.549
1450.525, 132.110
1451.696, 314.165
1452.866, 507.765
1454.036, 234.229
1455.206, 402.117
1456.376, 373.203
1457.546, 165.376
1458.716, 490.625
1459.885, 316.204
1461.054, 145.655
1462.223, 517.424
1463.392, 289.018
1464.560, 222.736
1465.729, 458.394
1466.897, 172.406
1468.065, 242.098
1469.233, 396.726
1470.400, 262.454
1471.568, 716.548
1472.735, 475.595
1473.902, 125.594
1475.069, 427.457
1476.236, 249.804
1477.402, 79.721
1478.569, 465.558
1479.735, 168.153
1480.901, 297.874
1482.066, 405.623
1483.232, 36.570
1484.397, 286.461
1485.562, 373.610
1486.727, 168.973
1487.892, 447.349
1489.057, 269.753
1490.221, 226.176
1491.386, 387.657
1492.550, 33.202
1493.714, 155.001
1494.877, 378.057
1496.041, 63.241
1497.204, 240.566
1498.367, 433.100
1499.530, 61.826
1500.693, 381.323
1501.856, 341.513
1503.018, 49.153
1504.180, 481.789
1505.342, 171.711
1506.504, 157.969
1507.666, 427.962
1508.827, 116.827
1509.988, 215.228
1511.149, 494.384
1512.310, 40.255
1513.471, 319.471
1514.631, 336.032
1515.792, 110.011
1516.952, 453.419
1518.112, 280.305
1519.272, 2.420
1520.431, 437.479
1521.591, 0.000
##END=



