##NAMES=Orthoclase
##RRUFFID=R040055
##IDEAL CHEMISTRY=KAlSi_3_O_8_
##LOCALITY=Madagascar
##OWNER=RRUFF
##SOURCE=Bob Downs
##DESCRIPTION=Pale yellow fragments
##STATUS=The identification of this mineral has been confirmed by X-ray diffraction and chemical analysis
##URL=rruff.info/R040055
##MEASURED CHEMISTRY=K_0.96_(Al_0.96_Si_0.03_Fe_0.02_)Si_3.00_O_8_; = light material. (K_0.90_Na_0.02_)(Al_0.91_Si_0.08_Fe_0.02_)Si_3.00_O_8_ = dark
##PIN_ID=M00468
##ORIENTATION=Laser parallel to (1 0 1). Fiducial mark perpendicular to laser is parallel to b [0 1 0]
51.562, 0.000
52.970, 75.738
54.377, 106.389
55.785, 28.790
57.192, 12.999
58.599, 4.845
60.005, 163.433
61.412, 184.992
62.818, 283.959
64.224, 268.082
65.629, 337.100
67.035, 188.681
68.440, 263.518
69.845, 264.346
71.250, 346.962
72.654, 453.396
74.059, 628.880
75.463, 728.529
76.866, 787.128
78.270, 672.394
79.673, 510.110
81.076, 497.120
82.479, 292.306
83.882, 243.581
85.284, 124.881
86.686, 69.162
88.088, 329.398
89.489, 473.572
90.891, 780.719
92.292, 924.246
93.693, 1183.011
95.093, 1264.424
96.494, 1344.571
97.894, 1524.606
99.294, 1336.754
100.694, 1647.396
102.093, 1644.298
103.492, 1752.520
104.891, 2180.119
106.290, 2105.151
107.689, 2548.664
109.087, 2534.692
110.485, 2856.271
111.883, 3080.431
113.280, 3498.199
114.678, 4896.602
116.075, 5099.659
117.472, 4782.399
118.868, 4455.874
120.264, 4182.093
121.661, 3729.117
123.057, 3047.979
124.452, 2697.654
125.848, 2047.188
127.243, 2072.607
128.638, 1764.877
130.032, 1992.545
131.427, 2188.568
132.821, 2561.129
134.215, 3151.029
135.609, 3357.987
137.002, 3673.865
138.396, 3733.093
139.789, 4042.216
141.182, 4039.387
142.574, 4037.312
143.966, 4356.589
145.359, 4645.234
146.750, 5722.843
148.142, 6420.633
149.534, 8176.521
150.925, 9571.844
152.316, 10917.206
153.706, 12312.613
155.097, 11678.065
156.487, 11933.596
157.877, 10489.233
159.267, 9214.924
160.656, 7660.631
162.045, 5986.345
163.434, 5147.059
164.823, 3793.771
166.212, 3423.480
167.600, 2699.182
168.988, 2380.876
170.376, 2178.560
171.764, 1858.232
173.151, 1817.892
174.538, 1438.536
175.925, 1431.162
177.312, 1197.763
178.698, 1023.334
180.085, 917.867
181.471, 717.370
182.856, 837.777
184.242, 677.204
185.627, 850.759
187.012, 853.924
188.397, 1037.500
189.781, 1285.042
191.166, 1541.740
192.550, 2208.935
193.934, 2203.738
195.317, 2494.488
196.701, 2183.536
198.084, 1862.807
199.467, 1360.572
200.850, 924.333
202.232, 780.418
203.614, 468.158
204.996, 400.780
206.378, 258.818
207.760, 131.169
209.141, 81.486
210.522, 131.229
211.903, 109.023
213.283, 127.763
214.664, 74.649
216.044, 6.676
217.424, 0.647
218.803, 45.122
220.183, 152.143
221.562, 20.037
222.941, 126.679
224.320, 115.231
225.698, 56.985
227.076, 130.139
228.454, 1.068
229.832, 146.707
231.210, 35.516
232.587, 72.338
233.964, 67.167
235.341, 6.057
236.718, 29.971
238.094, 91.080
239.470, 52.890
240.846, 108.089
242.222, 139.037
243.597, 196.952
244.973, 297.830
246.348, 292.671
247.722, 497.473
249.097, 488.236
250.471, 688.211
251.845, 815.025
253.219, 856.286
254.593, 1136.201
255.966, 1187.299
257.339, 1554.777
258.712, 1570.978
260.085, 1866.454
261.457, 2092.941
262.830, 2176.711
264.202, 2485.336
265.573, 2438.899
266.945, 2894.523
268.316, 2986.535
269.687, 3239.480
271.058, 3861.365
272.429, 3897.188
273.799, 4599.953
275.169, 4870.663
276.539, 5751.316
277.909, 6246.920
279.278, 6632.471
280.647, 7067.972
282.016, 6453.425
283.385, 6598.831
284.754, 5867.193
286.122, 5224.507
287.490, 4726.779
288.858, 3766.008
290.225, 3452.193
291.593, 2704.335
292.960, 2451.436
294.327, 2009.495
295.694, 1599.503
297.060, 1536.350
298.426, 1118.045
299.792, 1081.596
301.158, 794.065
302.524, 776.350
303.889, 616.422
305.254, 485.314
306.619, 545.051
307.983, 353.656
309.348, 407.146
310.712, 281.566
312.076, 242.906
313.440, 286.217
314.803, 217.507
316.166, 270.779
317.529, 191.033
318.892, 289.269
320.255, 230.486
321.617, 185.685
322.979, 236.863
324.341, 100.021
325.702, 145.156
327.064, 107.270
328.425, 102.360
329.786, 107.426
331.147, 47.468
332.507, 238.486
333.867, 21.483
335.227, 173.452
336.587, 116.399
337.947, 92.323
339.306, 138.224
340.665, 8.103
342.024, 158.954
343.383, 46.784
344.741, 76.588
346.100, 122.370
347.458, 15.127
348.815, 80.854
350.173, 19.448
351.530, 77.213
352.887, 106.849
354.244, 107.455
355.601, 268.031
356.957, 172.578
358.313, 375.106
359.669, 468.632
361.025, 530.155
362.380, 646.652
363.735, 681.823
365.091, 719.642
366.445, 736.115
367.800, 727.577
369.154, 689.049
370.508, 588.224
371.862, 583.761
373.216, 470.811
374.569, 536.134
375.922, 327.515
377.275, 297.131
378.628, 320.109
379.981, 146.398
381.333, 280.183
382.685, 154.717
384.037, 227.891
385.389, 179.346
386.740, 165.099
388.091, 214.582
389.442, 71.702
390.793, 261.203
392.143, 229.917
393.494, 209.333
394.844, 295.704
396.193, 178.737
397.543, 437.069
398.892, 340.210
400.241, 494.824
401.590, 650.690
402.939, 534.812
404.287, 625.768
405.636, 517.955
406.984, 618.413
408.331, 408.265
409.679, 337.070
411.026, 344.040
412.373, 95.988
413.720, 123.911
415.067, 6.811
416.413, 78.683
417.760, 24.530
419.106, 18.649
420.451, 5.859
421.797, 109.098
423.142, 56.403
424.487, 64.750
425.832, 37.140
427.177, 47.436
428.521, 14.988
429.865, 192.515
431.209, 207.022
432.553, 268.510
433.896, 398.978
435.240, 416.427
436.583, 723.857
437.926, 767.268
439.268, 1123.660
440.611, 1380.034
441.953, 1620.390
443.295, 2176.728
444.636, 2405.047
445.978, 3149.349
447.319, 3441.633
448.660, 4027.900
450.001, 4737.148
451.342, 4565.382
452.682, 5306.596
454.022, 4855.794
455.362, 4888.976
456.702, 4881.139
458.041, 4310.287
459.380, 4596.418
460.719, 4209.535
462.058, 4467.636
463.397, 4737.724
464.735, 4956.797
466.073, 5878.857
467.411, 6189.907
468.749, 7730.944
470.086, 8641.963
471.424, 9832.975
472.761, 11643.680
474.097, 11184.218
475.434, 11644.927
476.770, 10515.486
478.106, 9556.125
479.442, 8416.841
480.778, 6647.545
482.114, 6328.444
483.449, 5248.776
484.784, 5002.244
486.119, 4551.366
487.453, 4031.439
488.787, 4138.251
490.122, 3603.021
491.456, 3684.834
492.789, 3715.385
494.123, 3730.825
495.456, 4052.639
496.789, 4175.832
498.122, 5004.720
499.454, 5652.668
500.787, 6697.664
502.119, 8466.628
503.451, 9856.899
504.782, 13336.162
506.114, 16076.139
507.445, 20796.055
508.776, 26235.387
510.107, 29915.076
511.437, 35932.332
512.768, 34962.465
514.098, 34342.867
515.428, 29693.162
516.758, 23554.258
518.087, 21036.914
519.416, 14813.113
520.745, 11998.562
522.074, 9610.860
523.403, 7459.938
524.731, 6552.301
526.059, 5046.682
527.387, 4506.557
528.715, 3816.690
530.042, 3270.690
531.370, 3020.316
532.697, 2439.928
534.023, 2401.144
535.350, 1974.316
536.676, 1905.877
538.003, 1726.997
539.329, 1472.119
540.654, 1454.886
541.980, 1332.656
543.305, 1174.315
544.630, 1137.470
545.955, 946.406
547.280, 982.941
548.604, 807.147
549.928, 817.415
551.252, 760.546
552.576, 601.743
553.899, 738.729
555.223, 537.733
556.546, 633.739
557.869, 564.792
559.191, 543.860
560.514, 606.944
561.836, 459.022
563.158, 541.128
564.480, 563.228
565.801, 490.333
567.123, 576.431
568.444, 454.518
569.765, 539.626
571.085, 553.722
572.406, 503.570
573.726, 621.526
575.046, 551.988
576.366, 739.763
577.685, 723.309
579.005, 761.431
580.324, 836.773
581.643, 623.775
582.962, 793.712
584.280, 667.288
585.598, 640.926
586.916, 623.557
588.234, 408.045
589.552, 519.079
590.869, 358.103
592.186, 384.115
593.503, 417.129
594.820, 301.132
596.137, 419.125
597.453, 289.108
598.769, 327.079
600.085, 357.041
601.401, 248.992
602.716, 314.932
604.031, 253.861
605.346, 325.780
606.661, 258.689
607.976, 173.588
609.290, 327.477
610.604, 163.354
611.918, 211.220
613.232, 235.076
614.545, 227.921
615.858, 290.755
617.171, 201.578
618.484, 246.389
619.797, 183.190
621.109, 209.979
622.421, 414.757
623.733, 190.524
625.045, 401.279
626.357, 241.023
627.668, 281.756
628.979, 333.478
630.290, 171.188
631.601, 258.887
632.911, 149.578
634.221, 115.258
635.531, 201.927
636.841, 49.585
638.151, 171.232
639.460, 43.868
640.769, 133.490
642.078, 208.102
643.387, 63.704
644.695, 167.297
646.004, 154.880
647.312, 181.456
648.620, 244.025
649.927, 77.586
651.235, 241.139
652.542, 189.682
653.849, 147.222
655.156, 195.751
656.462, 94.273
657.769, 205.784
659.075, 28.286
660.381, 110.782
661.686, 176.268
662.992, 58.747
664.297, 157.215
665.602, 31.674
666.907, 138.124
668.212, 70.565
669.516, 25.009
670.820, 23.439
672.124, 47.855
673.428, 18.259
674.732, 23.242
676.035, 69.749
677.338, 57.459
678.641, 6.955
679.944, 114.749
681.246, 7.497
682.548, 87.219
683.850, 31.202
685.152, 82.888
686.454, 32.822
687.755, 89.381
689.056, 57.020
690.357, 24.748
691.658, 62.340
692.959, 4.693
694.259, 3.222
695.559, 43.987
696.859, 14.422
698.159, 37.770
699.458, 81.796
700.758, 59.226
702.057, 4.287
703.355, 186.669
704.654, 79.289
705.952, 200.638
707.251, 124.979
708.549, 110.456
709.846, 261.756
711.144, 250.952
712.441, 266.468
713.738, 369.861
715.035, 237.117
716.332, 376.885
717.629, 286.196
718.925, 317.137
720.221, 449.609
721.517, 355.843
722.812, 414.146
724.108, 395.419
725.403, 436.926
726.698, 511.997
727.993, 437.162
729.287, 600.319
730.582, 578.990
731.876, 646.560
733.170, 788.833
734.464, 696.196
735.757, 921.345
737.050, 882.403
738.343, 968.223
739.636, 1150.288
740.929, 1014.244
742.221, 1274.505
743.514, 1262.486
744.806, 1236.757
746.098, 1412.618
747.389, 1228.455
748.681, 1344.902
749.972, 1347.700
751.263, 1292.633
752.554, 1401.392
753.844, 1247.130
755.134, 1380.013
756.425, 1403.712
757.714, 1332.470
759.004, 1575.131
760.294, 1315.771
761.583, 1520.797
762.872, 1529.401
764.161, 1501.013
765.449, 1632.640
766.738, 1393.183
768.026, 1522.803
769.314, 1525.307
770.602, 1413.791
771.890, 1503.257
773.177, 1322.703
774.464, 1245.129
775.751, 1260.537
777.038, 1155.925
778.324, 1217.294
779.611, 1053.644
780.897, 1051.974
782.183, 1022.285
783.468, 892.578
784.754, 992.851
786.039, 937.105
787.324, 985.341
788.609, 1087.557
789.894, 929.614
791.178, 1185.793
792.462, 1080.534
793.746, 1160.675
795.030, 1281.351
796.314, 1136.381
797.597, 1325.467
798.880, 1211.164
800.163, 1151.212
801.446, 1393.241
802.729, 1184.252
804.011, 1323.244
805.293, 1350.898
806.575, 1332.854
807.857, 1508.791
809.138, 1295.675
810.419, 1404.576
811.701, 1427.199
812.981, 1199.063
814.262, 1210.369
815.543, 943.001
816.823, 840.811
818.103, 694.185
819.383, 465.951
820.662, 547.173
821.942, 293.820
823.221, 302.164
824.500, 260.298
825.779, 178.406
827.057, 274.597
828.336, 132.644
829.614, 123.706
830.892, 246.803
832.169, 82.627
833.447, 155.578
834.724, 105.721
836.001, 90.555
837.278, 181.346
838.555, 44.616
839.831, 80.604
841.108, 15.301
842.384, 17.134
843.660, 94.560
844.935, 62.637
846.211, 101.215
847.486, 23.659
848.761, 44.571
850.036, 81.491
851.310, 49.244
852.585, 53.505
853.859, 92.397
855.133, 2.182
856.407, 113.998
857.680, 17.226
858.954, 104.054
860.227, 74.258
861.500, 36.257
862.773, 130.185
864.045, 4.645
865.317, 11.507
866.590, 35.646
867.861, 24.226
869.133, 0.873
870.405, 39.957
871.676, 20.970
872.947, 5.077
874.218, 42.889
875.489, 20.108
876.759, 22.094
878.029, 112.930
879.299, 73.973
880.569, 45.132
881.839, 27.726
883.108, 4.426
884.378, 69.593
885.647, 16.809
886.915, 19.044
888.184, 3.698
889.452, 20.430
890.721, 60.847
891.989, 14.833
893.256, 37.506
894.524, 53.830
895.791, 21.796
897.058, 39.585
898.325, 39.004
899.592, 60.586
900.859, 44.838
902.125, 47.706
903.391, 1.243
904.657, 128.772
905.923, 59.295
907.188, 0.189
908.454, 67.319
909.719, 8.821
910.984, 59.317
912.248, 35.808
913.513, 8.691
914.777, 21.316
916.041, 13.620
917.305, 3.767
918.569, 60.245
919.832, 0.283
921.096, 41.184
922.359, 18.645
923.621, 79.103
924.884, 18.559
926.147, 22.011
927.409, 169.459
928.671, 134.904
929.933, 75.345
931.194, 117.783
932.456, 93.217
933.717, 140.648
934.978, 145.079
936.239, 178.508
937.499, 170.933
938.760, 250.356
940.020, 163.776
941.280, 213.198
942.540, 117.617
943.799, 330.034
945.059, 347.451
946.318, 260.867
947.577, 457.281
948.835, 340.695
950.094, 523.107
951.352, 465.519
952.611, 524.930
953.868, 719.339
955.126, 625.748
956.384, 703.155
957.641, 777.563
958.898, 715.970
960.155, 839.376
961.412, 747.783
962.668, 751.188
963.925, 997.609
965.181, 819.029
966.437, 955.452
967.692, 930.876
968.948, 869.301
970.203, 1084.728
971.458, 1041.155
972.713, 1009.585
973.968, 1141.019
975.222, 1068.456
976.477, 1089.896
977.731, 1155.339
978.985, 1019.786
980.238, 1129.123
981.492, 1111.447
982.745, 1151.938
983.998, 1191.181
985.251, 1169.704
986.504, 1285.134
987.756, 1170.518
989.008, 1241.124
990.260, 1333.409
991.512, 1237.906
992.764, 1301.003
994.015, 1275.138
995.267, 1216.834
996.518, 1358.374
997.768, 1258.144
999.019, 1332.637
1000.270, 1296.235
1001.520, 1238.039
1002.770, 1440.735
1004.020, 1168.488
1005.269, 1134.381
1006.519, 1260.631
1007.768, 1029.542
1009.017, 1131.216
1010.266, 971.148
1011.514, 985.081
1012.763, 1049.873
1014.011, 848.831
1015.259, 882.921
1016.507, 890.681
1017.754, 844.551
1019.002, 868.559
1020.249, 831.043
1021.496, 872.973
1022.743, 803.265
1023.989, 669.015
1025.236, 823.001
1026.482, 733.904
1027.728, 714.825
1028.974, 850.502
1030.219, 660.602
1031.465, 778.596
1032.710, 749.588
1033.955, 640.057
1035.200, 703.681
1036.444, 663.266
1037.689, 643.227
1038.933, 721.204
1040.177, 571.264
1041.421, 674.572
1042.664, 593.640
1043.908, 549.816
1045.151, 692.686
1046.394, 624.827
1047.637, 643.668
1048.879, 644.915
1050.122, 528.174
1051.364, 665.812
1052.606, 544.088
1053.848, 562.219
1055.089, 624.514
1056.331, 509.830
1057.572, 564.990
1058.813, 467.326
1060.054, 493.724
1061.294, 560.078
1062.535, 466.072
1063.775, 535.067
1065.015, 520.477
1066.255, 433.429
1067.494, 634.800
1068.734, 576.246
1069.973, 631.605
1071.212, 716.069
1072.451, 663.542
1073.689, 807.558
1074.928, 764.048
1076.166, 814.729
1077.404, 983.237
1078.642, 920.754
1079.879, 967.281
1081.117, 1209.816
1082.354, 1034.395
1083.591, 1237.742
1084.828, 1198.317
1086.064, 1178.944
1087.301, 1316.541
1088.537, 1239.145
1089.773, 1366.458
1091.009, 1474.089
1092.244, 1423.738
1093.480, 1591.410
1094.715, 1579.067
1095.950, 1638.733
1097.185, 1796.409
1098.419, 1608.092
1099.654, 1892.807
1100.888, 1967.514
1102.122, 1711.229
1103.356, 2121.955
1104.590, 1992.691
1105.823, 2073.436
1107.056, 2240.188
1108.289, 2225.949
1109.522, 2381.719
1110.755, 2426.497
1111.987, 2420.397
1113.219, 2773.194
1114.452, 2698.000
1115.683, 2860.950
1116.915, 3067.777
1118.146, 2931.612
1119.378, 3364.455
1120.609, 3382.308
1121.840, 3297.686
1123.070, 3678.555
1124.301, 3409.431
1125.531, 3561.327
1126.761, 3774.220
1127.991, 3462.120
1129.221, 3720.194
1130.450, 3322.112
1131.679, 3370.035
1132.909, 3495.031
1134.137, 3176.971
1135.366, 3186.021
1136.595, 3223.429
1137.823, 2928.401
1139.051, 2974.386
1140.279, 2776.373
1141.507, 2718.378
1142.734, 2685.614
1143.961, 2487.655
1145.189, 2350.942
1146.416, 2277.375
1147.642, 1983.434
1148.869, 2189.511
1150.095, 1830.581
1151.321, 1755.751
1152.547, 1765.280
1153.773, 1455.363
1154.998, 1588.515
1156.224, 1467.122
1157.449, 1270.220
1158.674, 1343.549
1159.899, 1140.675
1161.123, 1095.850
1162.348, 1128.861
1163.572, 876.994
1164.796, 962.341
1166.020, 947.366
1167.243, 841.503
1168.467, 943.714
1169.690, 754.352
1170.913, 710.507
1172.136, 761.838
1173.358, 576.012
1174.581, 731.188
1175.803, 604.544
1177.025, 476.755
1178.247, 636.198
1179.468, 449.628
1180.690, 559.857
1181.911, 466.561
1183.132, 359.963
1184.353, 411.225
1185.574, 362.609
1186.794, 246.879
1188.014, 378.148
1189.234, 253.503
1190.454, 259.790
1191.674, 278.896
1192.893, 123.402
1194.113, 194.704
1195.332, 207.263
1196.551, 123.573
1197.769, 206.959
1198.988, 52.581
1200.206, 90.900
1201.424, 163.496
1202.642, 13.604
1203.860, 96.920
1205.078, 8.856
1206.295, 9.622
1207.512, 184.688
1208.729, 78.092
1209.946, 68.181
1211.162, 95.193
1212.379, 21.092
1213.595, 125.170
1214.811, 77.756
1216.027, 59.189
1217.242, 134.443
1218.458, 17.872
1219.673, 18.881
1220.888, 71.357
1222.103, 8.088
1223.317, 141.142
1224.532, 64.401
1225.746, 74.882
1226.960, 112.102
1228.174, 4.684
1229.388, 21.104
1230.601, 166.097
1231.814, 4.231
1233.028, 192.424
1234.240, 17.614
1235.453, 17.047
1236.666, 167.127
1237.878, 18.302
1239.090, 15.470
1240.302, 202.638
1241.514, 32.227
1242.725, 89.476
1243.937, 69.646
1245.148, 24.301
1246.359, 105.473
1247.570, 45.646
1248.780, 117.423
1249.990, 187.581
1251.201, 54.738
1252.411, 71.978
1253.620, 94.132
1254.830, 37.460
1256.039, 101.643
1257.249, 50.206
1258.458, 102.422
1259.667, 208.557
1260.875, 9.687
1262.084, 67.868
1263.292, 166.988
1264.500, 68.244
1265.708, 205.346
1266.916, 4.564
1268.123, 96.736
1269.330, 121.798
1270.538, 48.844
1271.744, 129.027
1272.951, 143.054
1274.158, 15.022
1275.364, 120.132
1276.570, 109.072
1277.776, 42.104
1278.982, 190.099
1280.188, 35.003
1281.393, 1.614
1282.598, 127.502
1283.803, 6.624
1285.008, 94.364
1286.213, 76.196
1287.417, 14.014
1288.621, 62.993
1289.825, 11.781
1291.029, 26.438
1292.233, 192.324
1293.436, 19.943
1294.640, 83.770
1295.843, 50.474
1297.046, 41.878
1298.248, 82.729
1299.451, 61.326
1300.653, 26.087
1301.855, 136.479
1303.057, 24.035
1304.259, 17.419
1305.461, 64.107
1306.662, 142.403
1307.863, 78.027
1309.064, 28.447
1310.265, 30.163
1311.466, 169.206
1312.666, 67.560
1313.866, 7.098
1315.066, 156.211
1316.266, 17.497
1317.466, 95.773
1318.665, 90.030
1319.865, 45.271
1321.064, 97.494
1322.263, 33.702
1323.461, 40.883
1324.660, 187.047
1325.858, 4.807
1327.056, 55.318
1328.254, 119.425
1329.452, 46.485
1330.650, 147.572
1331.847, 118.614
1333.044, 2.606
1334.241, 196.576
1335.438, 7.531
1336.635, 45.463
1337.831, 155.378
1339.027, 0.277
1340.223, 107.155
1341.419, 78.019
1342.615, 28.866
1343.810, 162.697
1345.006, 32.512
1346.201, 23.688
1347.396, 135.085
1348.590, 13.843
1349.785, 48.584
1350.979, 128.260
1352.174, 89.028
1353.368, 163.040
1354.561, 8.696
1355.755, 3.664
1356.948, 166.404
1358.142, 26.015
1359.335, 54.614
1360.527, 124.204
1361.720, 54.786
1362.913, 105.360
1364.105, 177.392
1365.297, 27.955
1366.489, 201.329
1367.681, 89.880
1368.872, 36.430
1370.063, 225.979
1371.255, 34.125
1372.446, 106.397
1373.636, 166.167
1374.827, 4.729
1376.017, 151.264
1377.208, 151.819
1378.398, 14.608
1379.587, 251.283
1380.777, 154.787
1381.966, 154.566
1383.156, 262.293
1384.345, 24.030
1385.534, 85.734
1386.722, 177.435
1387.911, 1.880
1389.099, 223.792
1390.287, 216.452
1391.475, 15.764
1392.663, 269.364
1393.851, 117.797
1395.038, 89.358
1396.225, 251.330
1397.412, 68.856
1398.599, 104.356
1399.786, 184.665
1400.972, 27.149
1402.159, 258.543
1403.345, 219.344
1404.531, 8.560
1405.716, 307.945
1406.902, 84.018
1408.087, 116.163
1409.272, 255.980
1410.457, 63.131
1411.642, 222.028
1412.827, 231.940
1414.011, 76.802
1415.195, 225.216
1416.379, 173.226
1417.563, 55.999
1418.747, 375.788
1419.930, 69.616
1421.114, 72.446
1422.297, 363.980
1423.480, 30.580
1424.662, 178.878
1425.845, 285.265
1427.027, 51.918
1428.209, 229.519
1429.391, 166.503
1430.573, 45.500
1431.755, 332.097
1432.936, 182.462
1434.117, 157.453
1435.298, 384.979
1436.479, 146.338
1437.660, 327.335
1438.840, 369.132
1440.021, 136.630
1441.201, 334.209
1442.381, 416.018
1443.561, 179.796
1444.740, 462.300
1445.920, 251.294
1447.099, 271.850
1448.278, 505.518
1449.457, 272.621
1450.635, 460.458
1451.814, 463.020
1452.992, 321.729
1454.170, 466.521
1455.348, 459.915
1456.526, 319.250
1457.703, 518.277
1458.880, 327.559
1460.058, 372.571
1461.235, 474.207
1462.411, 258.066
1463.588, 314.950
1464.764, 429.207
1465.941, 259.556
1467.117, 363.668
1468.293, 302.332
1469.468, 195.583
1470.644, 414.019
1471.819, 225.575
1472.994, 196.179
1474.169, 439.116
1475.344, 191.267
1476.518, 243.845
1477.693, 276.867
1478.867, 84.344
1480.041, 317.871
1481.215, 252.479
1482.388, 174.284
1483.562, 317.025
1484.735, 176.701
1485.908, 119.403
1487.081, 353.191
1488.254, 110.054
1489.427, 143.890
1490.599, 300.824
1491.771, 8.756
1492.943, 240.714
1494.115, 372.750
1495.286, 32.893
1496.458, 186.091
1497.629, 182.355
1498.800, 81.870
1499.971, 338.697
1501.142, 92.682
1502.312, 136.820
1503.483, 232.114
1504.653, 81.597
1505.823, 78.294
1506.993, 245.240
1508.162, 44.713
1509.332, 167.230
1510.501, 236.145
1511.670, 7.496
1512.839, 261.347
1514.008, 163.770
1515.176, 86.895
1516.344, 398.024
1517.513, 126.114
1518.680, 111.261
1519.848, 308.363
1521.016, 0.634
1522.183, 0.000
##END=



