##NAMES=Orthoclase
##RRUFFID=R040055
##IDEAL CHEMISTRY=KAlSi_3_O_8_
##LOCALITY=Madagascar
##OWNER=RRUFF
##SOURCE=Bob Downs
##DESCRIPTION=Pale yellow fragments
##STATUS=The identification of this mineral has been confirmed by X-ray diffraction and chemical analysis
##URL=rruff.info/R040055
##MEASURED CHEMISTRY=K_0.96_(Al_0.96_Si_0.03_Fe_0.02_)Si_3.00_O_8_; = light material. (K_0.90_Na_0.02_)(Al_0.91_Si_0.08_Fe_0.02_)Si_3.00_O_8_ = dark
##PIN_ID=L00390
##ORIENTATION=Laser parallel to a* (1 0 0). Fiducial mark perpendicular to laser is parallel to -b [0 -1 0]
100.227, 0.000
101.624, 13.785
103.020, 45.774
104.416, 325.800
105.812, 655.474
107.207, 988.306
108.603, 1474.926
109.998, 1852.506
111.393, 2389.685
112.787, 2904.521
114.182, 3537.046
115.576, 4426.119
116.970, 5599.627
118.363, 6045.943
119.757, 6193.984
121.150, 5913.027
122.543, 5102.854
123.936, 4825.521
125.328, 3593.981
126.720, 3048.581
128.112, 2407.732
129.504, 1896.985
130.896, 1654.190
132.287, 1029.607
133.678, 1132.767
135.069, 723.895
136.460, 673.202
137.850, 530.869
139.240, 467.055
140.630, 381.894
142.020, 195.520
143.410, 380.375
144.799, 331.919
146.188, 621.387
147.577, 938.593
148.965, 1210.646
150.354, 1857.182
151.742, 2197.812
153.130, 2837.791
154.517, 2637.092
155.905, 2720.062
157.292, 2196.898
158.679, 1979.209
160.066, 1830.910
161.452, 1553.775
162.839, 1413.572
164.225, 1022.009
165.611, 1089.521
166.996, 737.005
168.381, 724.312
169.767, 691.496
171.152, 658.559
172.536, 585.511
173.921, 522.346
175.305, 579.066
176.689, 355.681
178.073, 302.196
179.456, 318.620
180.839, 134.992
182.222, 241.385
183.605, 137.774
184.988, 94.197
186.370, 30.712
187.752, 67.343
189.134, 114.097
190.516, 49.024
191.898, 67.974
193.279, 164.914
194.660, 12.303
196.041, 30.386
197.421, 162.987
198.801, 35.518
200.182, 197.986
201.561, 60.404
202.941, 212.778
204.321, 195.114
205.700, 197.423
207.079, 249.291
208.457, 59.112
209.836, 207.202
211.214, 33.592
212.592, 58.854
213.970, 25.713
215.348, 2.947
216.725, 14.071
218.102, 241.265
219.479, 31.958
220.856, 24.702
222.232, 197.026
223.608, 16.536
224.984, 241.836
226.360, 113.608
227.736, 331.340
229.111, 197.138
230.486, 292.566
231.861, 237.861
233.236, 182.954
234.610, 407.822
235.984, 282.387
237.358, 486.674
238.732, 250.877
240.105, 505.131
241.479, 499.231
242.852, 483.813
244.224, 867.758
245.597, 611.669
246.969, 995.590
248.342, 869.523
249.713, 1133.470
251.085, 1267.427
252.457, 1421.395
253.828, 1675.374
255.199, 1809.364
256.570, 2323.364
257.940, 2447.373
259.310, 2711.395
260.681, 3159.097
262.050, 3336.144
263.420, 3721.079
264.790, 3837.808
266.159, 4324.312
267.528, 4322.105
268.896, 4480.843
270.265, 4790.197
271.633, 4729.975
273.001, 5110.049
274.369, 5220.332
275.737, 5900.758
277.104, 6151.275
278.471, 6631.854
279.838, 7252.451
281.205, 7193.039
282.572, 7473.596
283.938, 6754.105
285.304, 6424.561
286.670, 6114.954
288.035, 5175.285
289.401, 4645.534
290.766, 3775.680
292.131, 3435.692
293.495, 2955.552
294.860, 2155.256
296.224, 1894.813
297.588, 1424.234
298.952, 1413.524
300.315, 1072.695
301.679, 951.753
303.042, 750.705
304.405, 619.561
305.767, 628.322
307.130, 426.996
308.492, 385.569
309.854, 314.063
311.216, 212.396
312.578, 310.440
313.939, 98.181
315.300, 175.593
316.661, 92.662
318.021, 79.309
319.382, 275.614
320.742, 68.299
322.102, 137.595
323.462, 26.605
324.821, 99.126
326.181, 85.193
327.540, 89.631
328.899, 115.867
330.257, 28.657
331.616, 106.772
332.974, 22.182
334.332, 2.441
335.690, 7.101
337.047, 20.917
338.405, 103.467
339.762, 8.711
341.119, 33.926
342.475, 49.114
343.832, 35.721
345.188, 79.403
346.544, 75.493
347.900, 149.561
349.255, 5.402
350.610, 228.987
351.965, 163.984
353.320, 98.982
354.675, 248.690
356.029, 273.646
357.384, 486.123
358.738, 429.765
360.091, 360.758
361.445, 563.496
362.798, 574.276
364.151, 644.857
365.504, 474.117
366.857, 513.809
368.209, 414.657
369.561, 475.419
370.913, 462.928
372.265, 262.420
373.617, 282.591
374.968, 137.219
376.319, 106.184
377.670, 196.851
379.021, 118.631
380.371, 241.249
381.721, 16.139
383.071, 169.291
384.421, 162.033
385.770, 236.847
387.120, 386.969
388.469, 241.688
389.818, 526.041
391.166, 410.706
392.515, 475.365
393.863, 630.018
395.211, 604.665
396.559, 1059.279
397.906, 993.914
399.254, 1148.547
400.601, 1483.176
401.948, 1437.804
403.294, 1682.428
404.641, 1617.051
405.987, 1681.669
407.333, 1466.284
408.679, 1210.900
410.025, 1095.515
411.370, 520.128
412.715, 564.738
414.060, 289.349
415.405, 173.957
416.749, 228.564
418.093, 76.831
419.437, 207.755
420.781, 67.662
422.125, 13.094
423.468, 111.448
424.811, 64.027
426.154, 250.478
427.497, 44.967
428.839, 389.442
430.182, 263.899
431.524, 448.336
432.866, 722.746
434.207, 597.129
435.549, 1001.481
436.890, 1035.805
438.231, 1540.098
439.572, 1864.359
440.912, 2008.590
442.252, 3032.785
443.593, 3176.949
444.932, 4061.082
446.272, 4855.182
447.611, 5729.251
448.951, 6773.287
450.290, 7457.293
451.628, 8441.269
452.967, 8595.212
454.305, 8729.126
455.644, 8723.012
456.981, 7926.865
458.319, 7930.693
459.657, 7014.492
460.994, 6828.266
462.331, 6342.012
463.668, 5905.734
465.004, 6149.431
466.341, 5953.100
467.677, 6336.746
469.013, 6750.370
470.348, 7403.969
471.684, 8307.542
473.019, 8750.823
474.354, 9644.352
475.689, 9136.692
477.024, 9109.734
478.358, 8521.972
479.692, 7543.895
481.026, 6877.297
482.360, 5821.871
483.694, 5674.547
485.027, 5201.761
486.360, 4613.986
487.693, 5047.550
489.026, 4290.850
490.358, 4453.268
491.691, 4560.430
493.023, 4212.719
494.354, 4562.948
495.686, 4591.810
497.017, 5170.396
498.349, 5838.133
499.680, 7020.358
501.010, 8169.984
502.341, 9630.754
503.671, 12691.984
505.001, 15278.887
506.331, 19890.754
507.661, 25045.195
508.990, 30548.105
510.319, 38656.988
511.648, 42275.855
512.977, 46668.566
514.306, 45080.715
515.634, 40246.691
516.962, 35689.891
518.290, 27956.383
519.618, 22959.654
520.945, 18028.367
522.273, 14220.704
523.600, 12124.479
524.927, 9239.103
526.253, 8242.584
527.580, 6669.518
528.906, 5748.250
530.232, 5134.982
531.558, 4145.461
532.883, 4082.023
534.208, 3334.800
535.534, 3358.782
536.858, 2734.354
538.183, 2504.967
539.508, 2588.994
540.832, 2229.987
542.156, 1979.709
543.480, 1933.391
544.803, 1639.090
546.127, 1902.753
547.450, 1461.987
548.773, 1225.831
550.096, 1469.477
551.418, 1023.658
552.741, 1287.273
554.063, 751.271
555.385, 934.854
556.706, 1018.425
558.028, 911.980
559.349, 835.521
560.670, 699.047
561.991, 822.558
563.312, 766.054
564.632, 649.535
565.952, 943.001
567.272, 526.452
568.592, 919.908
569.911, 583.349
571.231, 646.778
572.550, 630.193
573.869, 543.593
575.187, 697.042
576.506, 720.476
577.824, 650.317
579.142, 753.728
580.460, 564.129
581.778, 686.667
583.095, 529.931
584.412, 540.540
585.729, 603.871
587.046, 586.810
588.363, 810.132
589.679, 473.438
590.995, 656.729
592.311, 650.008
593.627, 413.272
594.942, 706.521
596.258, 559.753
597.573, 692.972
598.888, 596.175
600.202, 439.363
601.517, 782.544
602.831, 945.712
604.145, 538.862
605.459, 502.033
606.772, 325.188
608.086, 668.328
609.399, 301.456
610.712, 584.568
612.024, 457.715
613.337, 380.848
614.649, 463.966
615.961, 197.099
617.273, 590.216
618.585, 483.377
619.896, 426.525
621.208, 859.659
622.519, 662.805
623.829, 985.938
625.140, 979.057
626.450, 732.163
627.761, 1055.255
629.071, 538.338
630.380, 891.407
631.690, 654.466
632.999, 457.511
634.308, 560.549
635.617, 173.575
636.926, 456.595
638.235, 409.607
639.543, 462.607
640.851, 675.633
642.159, 418.650
643.466, 611.683
644.774, 614.706
646.081, 567.762
647.388, 790.847
648.695, 603.924
650.002, 1017.017
651.308, 710.100
652.614, 523.187
653.920, 946.279
655.226, 269.382
656.531, 742.496
657.837, 465.603
659.142, 338.712
660.447, 501.821
661.752, 214.927
663.056, 258.048
664.360, 341.163
665.664, 124.303
666.968, 357.431
668.272, 49.437
669.575, 343.632
670.879, 196.689
672.182, 0.261
673.484, 242.746
674.787, 164.258
676.089, 268.605
677.392, 198.541
678.694, 95.836
679.995, 86.773
681.297, 130.635
682.598, 171.844
683.899, 165.691
685.200, 193.359
686.501, 1.174
687.802, 218.922
689.102, 3.055
690.402, 95.012
691.702, 96.824
693.002, 18.641
694.301, 219.578
695.600, 82.041
696.899, 66.359
698.198, 54.842
699.497, 276.604
700.795, 141.969
702.093, 319.340
703.391, 39.365
704.689, 131.861
705.987, 413.068
707.284, 64.262
708.581, 355.434
709.878, 76.592
711.175, 427.729
712.472, 458.852
713.768, 359.959
715.064, 631.051
716.360, 522.129
717.656, 733.191
718.951, 694.238
720.247, 505.271
721.542, 776.291
722.837, 907.297
724.131, 672.812
725.426, 1223.787
726.720, 695.598
728.014, 1106.547
729.308, 1247.480
730.601, 1133.373
731.895, 1494.279
733.188, 1366.324
734.481, 1717.217
735.774, 2008.096
737.067, 1848.973
738.359, 2269.842
739.651, 2270.695
740.943, 2611.551
742.235, 2562.389
743.526, 2707.820
744.818, 2998.633
746.109, 2679.432
747.400, 3200.557
748.691, 2891.328
749.981, 2972.088
751.271, 3102.832
752.562, 2623.566
753.851, 3214.285
755.141, 2874.994
756.431, 2676.920
757.720, 3027.648
759.009, 2588.316
760.298, 2816.117
761.587, 2796.762
762.875, 2407.396
764.163, 2928.018
765.451, 2378.627
766.739, 2590.082
768.027, 2730.668
769.314, 2161.242
770.601, 2477.598
771.888, 2378.145
773.175, 2511.686
774.462, 2282.209
775.748, 2072.719
777.034, 2358.797
778.320, 2059.285
779.606, 2189.758
780.892, 2270.221
782.177, 1910.670
783.462, 2361.598
784.747, 2162.023
786.032, 2502.502
787.317, 2642.904
788.601, 2283.291
789.885, 2953.670
791.169, 2563.988
792.453, 2914.342
793.736, 3174.686
795.019, 3045.018
796.303, 3495.338
797.585, 3075.650
798.868, 3485.951
800.151, 3566.238
801.433, 3056.518
802.715, 3786.783
803.997, 3427.039
805.279, 3607.285
806.560, 3927.520
807.841, 3517.744
809.122, 4027.959
810.403, 3908.162
811.684, 3708.354
812.964, 3778.539
814.245, 2928.709
815.525, 3008.871
816.804, 2199.023
818.084, 1899.168
819.363, 2009.297
820.643, 1139.148
821.922, 1029.260
823.201, 903.492
824.479, 513.586
825.758, 773.672
827.036, 450.871
828.314, 660.938
829.592, 527.770
830.869, 227.820
832.147, 682.432
833.424, 243.459
834.701, 213.057
835.977, 401.848
837.254, 181.791
838.530, 438.338
839.807, 223.131
841.082, 29.971
842.358, 543.129
843.634, 240.213
844.909, 401.135
846.184, 370.762
847.459, 48.709
848.734, 371.807
850.008, 51.387
851.283, 394.109
852.557, 247.561
853.831, 287.578
855.105, 625.580
856.378, 325.605
857.651, 510.072
858.925, 649.924
860.197, 449.965
861.470, 969.457
862.743, 479.512
864.015, 259.174
865.287, 469.240
866.559, 219.312
867.831, 419.393
869.102, 169.479
870.373, 39.572
871.645, 389.674
872.915, 69.779
874.186, 229.895
875.457, 260.018
876.727, 99.850
877.997, 440.246
879.267, 19.648
880.536, 80.453
881.806, 370.564
883.075, 279.314
884.344, 300.686
885.613, 29.307
886.882, 180.699
888.150, 200.711
889.419, 110.740
890.687, 220.779
891.954, 110.832
893.222, 150.893
894.490, 202.355
895.757, 108.918
897.024, 221.170
898.291, 181.268
899.557, 8.607
900.824, 281.520
902.090, 161.705
903.356, 211.900
904.622, 162.107
905.888, 232.369
907.153, 292.645
908.418, 37.068
909.683, 3.242
910.948, 223.562
912.213, 166.102
913.477, 254.184
914.741, 24.480
916.005, 84.840
917.269, 275.213
918.533, 234.400
919.796, 85.904
921.060, 76.225
922.323, 143.439
923.585, 306.859
924.848, 272.826
926.111, 287.398
927.373, 227.639
928.635, 142.105
929.897, 348.113
931.158, 168.354
932.420, 138.613
933.681, 368.891
934.942, 20.814
936.203, 369.492
937.463, 0.182
938.724, 140.160
939.984, 360.521
941.244, 100.900
942.504, 491.295
943.764, 391.713
945.023, 72.148
946.282, 682.609
947.541, 413.088
948.800, 783.586
950.059, 734.109
951.317, 744.650
952.575, 855.213
953.833, 755.795
955.091, 826.398
956.349, 1077.023
957.606, 617.668
958.864, 1208.334
960.121, 859.023
961.377, 909.734
962.634, 1160.463
963.891, 801.215
965.147, 751.988
966.403, 1092.787
967.659, 443.607
968.914, 1134.449
970.170, 895.314
971.425, 726.201
972.680, 1157.115
973.935, 658.045
975.190, 1209.027
976.444, 770.033
977.698, 831.059
978.952, 1372.121
980.206, 763.207
981.460, 1214.375
982.713, 1085.564
983.967, 986.846
985.220, 1328.191
986.473, 1329.562
987.725, 1241.006
988.978, 1442.473
990.230, 1174.031
991.482, 1295.678
992.734, 1277.250
993.986, 1199.035
995.237, 1660.863
996.488, 1132.756
997.739, 1474.678
998.990, 1686.633
1000.241, 1528.689
1001.492, 2400.771
1002.742, 1762.910
1003.992, 1755.111
1005.242, 1677.338
1006.492, 1009.639
1007.741, 1451.973
1008.990, 1104.355
1010.239, 1096.773
1011.488, 1479.219
1012.737, 781.688
1013.986, 1154.205
1015.234, 1266.744
1016.482, 979.311
1017.730, 1571.900
1018.978, 834.516
1020.225, 1377.152
1021.473, 1539.814
1022.720, 882.498
1023.967, 1595.207
1025.213, 1087.938
1026.460, 1150.693
1027.706, 1428.949
1028.953, 851.752
1030.198, 1203.730
1031.444, 956.582
1032.690, 759.457
1033.935, 1267.402
1035.180, 760.344
1036.425, 672.152
1037.670, 1215.156
1038.915, 539.020
1040.159, 1142.070
1041.403, 745.689
1042.647, 1078.795
1043.891, 1111.941
1045.135, 713.135
1046.378, 1031.854
1047.621, 1105.172
1048.864, 901.428
1050.107, 1504.457
1051.350, 1037.467
1052.592, 1140.953
1053.835, 1454.467
1055.077, 837.268
1056.318, 1480.830
1057.560, 1154.420
1058.802, 1131.492
1060.043, 945.078
1061.284, 709.217
1062.525, 1025.797
1063.765, 999.543
1065.006, 703.594
1066.246, 1127.396
1067.486, 801.295
1068.726, 544.355
1069.966, 1178.293
1071.205, 652.252
1072.445, 1140.438
1073.684, 1014.438
1074.923, 727.020
1076.161, 1521.123
1077.400, 1225.248
1078.638, 1193.818
1079.876, 1717.988
1081.114, 1143.201
1082.352, 1687.486
1083.590, 1671.793
1084.827, 1376.176
1086.064, 1880.639
1087.301, 1415.057
1088.538, 1789.590
1089.775, 2064.143
1091.011, 1388.717
1092.247, 2053.312
1093.483, 1547.926
1094.719, 1893.674
1095.955, 2148.324
1097.190, 1372.990
1098.425, 1958.664
1099.660, 2023.369
1100.895, 1478.088
1102.130, 2053.148
1103.364, 1847.914
1104.598, 1673.043
1105.833, 2187.848
1107.066, 1492.666
1108.300, 2298.170
1109.534, 1803.027
1110.767, 1407.900
1112.000, 1982.840
1113.233, 1387.793
1114.466, 1573.908
1115.698, 1658.902
1116.930, 1143.914
1118.163, 1799.145
1119.394, 1604.189
1120.626, 1449.246
1121.858, 1814.318
1123.089, 1139.406
1124.320, 1964.506
1125.551, 1979.621
1126.782, 1424.752
1128.013, 1979.895
1129.243, 1865.053
1130.473, 1460.225
1131.703, 2095.871
1132.933, 1151.066
1134.163, 1796.523
1135.392, 1951.744
1136.621, 1346.975
1137.850, 1893.885
1139.079, 1709.137
1140.308, 1314.395
1141.536, 1980.793
1142.765, 1066.074
1143.993, 1302.646
1145.221, 1848.471
1146.448, 623.768
1147.676, 1649.645
1148.903, 1084.951
1150.130, 840.264
1151.357, 1317.793
1152.584, 763.113
1153.810, 1168.436
1155.037, 935.322
1156.263, 490.646
1157.489, 1458.838
1158.715, 564.164
1159.940, 609.490
1161.166, 859.920
1162.391, 515.242
1163.616, 820.561
1164.841, 785.965
1166.065, 131.275
1167.290, 936.582
1168.514, 141.887
1169.738, 297.186
1170.962, 702.832
1172.185, 348.119
1173.409, 443.398
1174.632, 578.996
1175.855, 154.287
1177.078, 769.570
1178.301, 135.391
1179.523, 340.662
1180.746, 549.977
1181.968, 65.297
1183.190, 470.607
1184.412, 269.049
1185.633, 35.656
1186.855, 679.619
1188.076, 23.609
1189.297, 271.637
1190.518, 411.082
1191.738, 172.047
1192.959, 3.092
1194.179, 50.723
1195.399, 74.115
1196.619, 360.971
1197.838, 175.615
1199.058, 139.355
1200.277, 335.541
1201.496, 167.816
1202.715, 317.020
1203.934, 353.125
1205.152, 92.018
1206.371, 312.730
1207.589, 9.598
1208.807, 184.303
1210.024, 299.656
1211.242, 171.406
1212.459, 333.180
1213.677, 475.127
1214.894, 209.758
1216.110, 664.322
1217.327, 250.018
1218.543, 534.537
1219.760, 629.062
1220.976, 11.463
1222.192, 713.053
1223.407, 568.455
1224.623, 373.590
1225.838, 768.057
1227.053, 8.865
1228.268, 435.553
1229.483, 929.930
1230.697, 142.502
1231.912, 686.887
1233.126, 671.176
1234.340, 443.461
1235.554, 837.693
1236.767, 532.850
1237.981, 417.867
1239.194, 1112.002
1240.407, 46.734
1241.620, 740.836
1242.832, 874.922
1244.045, 69.961
1245.257, 954.020
1246.469, 418.062
1247.681, 225.021
1248.893, 879.037
1250.104, 223.982
1251.315, 828.289
1252.527, 552.254
1253.738, 158.189
1254.948, 1002.121
1256.159, 676.037
1257.369, 511.779
1258.579, 1195.660
1259.789, 99.523
1260.999, 686.266
1262.209, 980.082
1263.418, 304.686
1264.628, 798.449
1265.837, 872.193
1267.046, 496.842
1268.254, 1020.529
1269.463, 394.199
1270.671, 808.676
1271.879, 1162.279
1273.087, 445.832
1274.295, 1010.727
1275.502, 814.234
1276.710, 278.281
1277.917, 1231.742
1279.124, 335.180
1280.331, 489.623
1281.537, 1233.008
1282.744, 106.344
1283.950, 880.357
1285.156, 613.619
1286.362, 166.846
1287.568, 1071.004
1288.773, 154.137
1289.978, 297.094
1291.184, 959.898
1292.389, 292.668
1293.593, 825.395
1294.798, 948.086
1296.002, 100.662
1297.206, 843.197
1298.410, 615.668
1299.614, 147.982
1300.818, 930.252
1302.021, 82.490
1303.225, 754.570
1304.428, 936.604
1305.631, 28.477
1306.833, 790.273
1308.036, 571.805
1309.238, 443.227
1310.440, 744.604
1311.642, 815.930
1312.844, 577.209
1314.045, 958.439
1315.247, 389.621
1316.448, 720.730
1317.649, 851.781
1318.850, 402.766
1320.051, 913.699
1321.251, 564.465
1322.451, 355.145
1323.651, 1185.760
1324.851, 66.314
1326.051, 536.783
1327.251, 777.182
1328.450, 97.520
1329.649, 687.762
1330.848, 497.094
1332.047, 197.184
1333.245, 816.656
1334.444, 66.588
1335.642, 186.416
1336.840, 738.496
1338.038, 241.951
1339.236, 487.555
1340.433, 654.072
1341.630, 176.568
1342.828, 873.094
1344.025, 222.230
1345.221, 171.293
1346.418, 761.029
1347.614, 209.961
1348.810, 468.822
1350.006, 793.801
1351.202, 87.467
1352.398, 730.713
1353.593, 329.988
1354.789, 48.484
1355.984, 876.637
1357.179, 175.006
1358.373, 453.221
1359.568, 631.391
1360.762, 219.500
1361.956, 537.549
1363.150, 746.039
1364.344, 136.008
1365.538, 930.328
1366.731, 259.246
1367.924, 316.959
1369.117, 1064.598
1370.310, 157.809
1371.503, 118.719
1372.695, 626.154
1373.888, 346.477
1375.080, 460.207
1376.272, 507.881
1377.464, 24.355
1378.655, 1032.578
1379.847, 250.938
1381.038, 277.383
1382.229, 1131.932
1383.420, 332.676
1384.610, 704.490
1385.801, 855.240
1386.991, 256.611
1388.181, 897.881
1389.371, 729.449
1390.561, 100.248
1391.750, 1061.639
1392.940, 271.684
1394.129, 422.879
1395.318, 1193.785
1396.507, 164.854
1397.696, 885.859
1398.884, 1046.803
1400.072, 72.316
1401.260, 947.961
1402.448, 858.414
1403.636, 119.084
1404.824, 1077.705
1406.011, 326.873
1407.198, 625.756
1408.385, 1065.471
1409.572, 305.062
1410.758, 632.525
1411.945, 1032.670
1413.131, 330.762
1414.317, 1047.072
1415.503, 870.330
1416.689, 250.135
1417.874, 1379.775
1419.060, 399.488
1420.245, 588.678
1421.430, 1208.301
1422.615, 297.438
1423.799, 816.213
1424.984, 759.914
1426.168, 369.309
1427.352, 1304.072
1428.536, 721.131
1429.720, 304.045
1430.903, 1420.727
1432.087, 565.201
1433.270, 905.320
1434.453, 1351.875
1435.635, 517.654
1436.818, 1173.998
1438.001, 1442.527
1439.183, 689.715
1440.365, 1620.814
1441.547, 1399.023
1442.728, 1244.816
1443.910, 2092.564
1445.091, 1123.391
1446.272, 1417.838
1447.453, 2174.766
1448.634, 907.234
1449.815, 1799.812
1450.995, 1759.984
1452.176, 1153.535
1453.356, 2057.193
1454.535, 1611.098
1455.715, 1194.012
1456.895, 2298.652
1458.074, 1186.730
1459.253, 1477.961
1460.432, 1967.225
1461.611, 970.549
1462.790, 1536.090
1463.968, 1801.389
1465.146, 701.150
1466.324, 1562.508
1467.502, 1121.193
1468.680, 599.658
1469.858, 1689.979
1471.035, 726.275
1472.212, 814.152
1473.389, 1740.137
1474.566, 448.518
1475.742, 1414.373
1476.919, 1408.885
1478.095, 146.295
1479.271, 1644.350
1480.447, 991.938
1481.623, 489.520
1482.798, 1527.133
1483.974, 744.621
1485.149, 532.350
1486.324, 1350.553
1487.499, 470.314
1488.674, 820.029
1489.848, 1269.441
1491.022, 1.400
1492.196, 887.672
1493.370, 1057.020
1494.544, 7.000
1495.718, 1056.920
1496.891, 796.893
1498.064, 247.043
1499.237, 1197.459
1500.410, 248.271
1501.583, 447.188
1502.755, 958.609
1503.928, 30.441
1505.100, 652.730
1506.272, 1115.352
1507.443, 19.385
1508.615, 723.520
1509.786, 699.385
1510.958, 162.494
1512.129, 835.994
1513.300, 220.109
1514.470, 176.756
1515.641, 889.625
1516.811, 31.201
1517.981, 22.238
1519.151, 921.756
1520.321, 1.750
1521.491, 428.611
1522.660, 0.000
##END=



