##NAMES=Orthoclase
##RRUFFID=R040055
##IDEAL CHEMISTRY=KAlSi_3_O_8_
##LOCALITY=Madagascar
##OWNER=RRUFF
##SOURCE=Bob Downs
##DESCRIPTION=Pale yellow fragments
##STATUS=The identification of this mineral has been confirmed by X-ray diffraction and chemical analysis
##URL=rruff.info/R040055
##MEASURED CHEMISTRY=K_0.96_(Al_0.96_Si_0.03_Fe_0.02_)Si_3.00_O_8_; = light material. (K_0.90_Na_0.02_)(Al_0.91_Si_0.08_Fe_0.02_)Si_3.00_O_8_ = dark
##PIN_ID=L00390
##ORIENTATION=Laser parallel to a* (1 0 0). Fiducial mark perpendicular to laser is parallel to -b [0 -1 0]
108.603, 0.000
109.998, 178.641
111.393, 494.041
112.787, 815.422
114.182, 1524.771
115.576, 2928.615
116.970, 4330.268
118.363, 3614.509
119.757, 3327.412
121.150, 3297.748
122.543, 2946.014
123.936, 2750.266
125.328, 1958.317
126.720, 1738.353
128.112, 1179.283
129.504, 860.648
130.896, 752.405
132.287, 349.321
133.678, 454.701
135.069, 116.981
136.460, 200.130
137.850, 171.156
139.240, 220.562
140.630, 167.182
142.020, 60.421
143.410, 230.417
144.799, 37.526
146.188, 202.490
147.577, 166.689
148.965, 149.601
150.354, 402.153
151.742, 482.040
153.130, 722.108
154.517, 924.642
155.905, 1151.786
157.292, 1221.906
158.679, 1331.075
160.066, 1577.639
161.452, 1320.809
162.839, 1207.809
164.225, 1053.069
165.611, 992.050
166.996, 841.490
168.381, 845.357
169.767, 743.035
171.152, 779.783
172.536, 740.167
173.921, 643.771
175.305, 697.022
176.689, 518.960
178.073, 550.955
179.456, 423.001
180.839, 345.166
182.222, 317.440
183.605, 369.742
184.988, 272.074
186.370, 274.437
187.752, 216.909
189.134, 259.505
190.516, 172.141
191.898, 214.833
193.279, 171.082
194.660, 240.825
196.041, 104.188
197.421, 47.792
198.801, 11.634
200.182, 69.182
201.561, 95.201
202.941, 145.568
204.321, 150.928
205.700, 136.129
207.079, 131.189
208.457, 226.125
209.836, 210.951
211.214, 180.208
212.592, 181.997
213.970, 64.878
215.348, 99.378
216.725, 33.841
218.102, 21.708
219.479, 52.748
220.856, 5.327
222.232, 98.299
223.608, 46.206
224.984, 30.729
226.360, 115.269
227.736, 200.690
229.111, 22.788
230.486, 123.569
231.861, 70.189
233.236, 14.487
234.610, 200.817
235.984, 6.081
237.358, 141.216
238.732, 156.099
240.105, 160.685
241.479, 164.972
242.852, 248.910
244.224, 362.584
245.597, 397.134
246.969, 459.554
248.342, 462.953
249.713, 556.287
251.085, 613.362
252.457, 720.458
253.828, 773.616
255.199, 876.781
256.570, 949.970
257.940, 1093.199
259.310, 1246.475
260.681, 1289.797
262.050, 1373.164
263.420, 1556.575
264.790, 1831.068
266.159, 2160.155
267.528, 2214.741
268.896, 2389.607
270.265, 2693.153
271.633, 2816.742
273.001, 3230.369
274.369, 3557.731
275.737, 4356.661
277.104, 4606.439
278.471, 4896.742
279.838, 5357.389
281.205, 5308.257
282.572, 5589.262
283.938, 5210.341
285.304, 4841.453
286.670, 4712.564
288.035, 3953.635
289.401, 3454.637
290.766, 2915.551
292.131, 2646.368
293.495, 2297.082
294.860, 1657.691
296.224, 1538.191
297.588, 1298.560
298.952, 1198.758
300.315, 918.757
301.679, 748.552
303.042, 728.150
304.405, 537.560
305.767, 576.792
307.130, 485.860
308.492, 454.780
309.854, 424.804
311.216, 422.219
312.578, 350.750
313.939, 279.163
315.300, 267.458
316.661, 345.647
318.021, 303.682
319.382, 431.420
320.742, 278.717
322.102, 295.560
323.462, 251.917
324.821, 287.790
326.181, 263.326
327.540, 278.634
328.899, 403.807
330.257, 318.916
331.616, 363.874
332.974, 358.708
334.332, 293.488
335.690, 358.217
337.047, 342.921
338.405, 327.635
339.762, 282.361
341.119, 257.105
342.475, 271.866
343.832, 116.646
345.188, 241.438
346.544, 46.152
347.900, 220.977
349.255, 55.577
350.610, 190.222
351.965, 74.660
353.320, 89.310
354.675, 233.505
356.029, 268.036
357.384, 312.326
358.738, 377.054
360.091, 550.710
361.445, 633.153
362.798, 748.700
364.151, 849.247
365.504, 933.386
366.857, 944.453
368.209, 965.299
369.561, 1057.199
370.913, 1009.494
372.265, 935.977
373.617, 773.492
374.968, 643.039
376.319, 512.576
377.670, 459.535
379.021, 264.426
380.371, 423.490
381.721, 165.990
383.071, 304.043
384.421, 175.129
385.770, 119.861
387.120, 158.539
388.469, 78.285
389.818, 182.785
391.166, 58.232
392.515, 148.658
393.863, 166.219
395.211, 108.367
396.559, 79.453
397.906, 164.943
399.254, 297.439
400.601, 302.713
401.948, 248.068
403.294, 413.463
404.641, 388.898
405.987, 524.611
407.333, 450.340
408.679, 406.086
410.025, 421.846
411.370, 257.623
412.715, 203.418
414.060, 179.230
415.405, 225.027
416.749, 110.838
418.093, 53.328
419.437, 142.514
420.781, 151.625
422.125, 15.771
423.468, 49.902
424.811, 64.021
426.154, 21.871
427.497, 18.623
428.839, 243.666
430.182, 139.570
431.524, 245.480
432.866, 391.410
434.207, 337.354
435.549, 453.312
436.890, 709.273
438.231, 1035.230
439.572, 1121.176
440.912, 1287.107
442.252, 1953.021
443.593, 2008.922
444.932, 2544.807
446.272, 3130.676
447.611, 3396.525
448.951, 4242.355
450.290, 4778.172
451.628, 5263.969
452.967, 5479.748
454.305, 5825.512
455.644, 5961.260
456.981, 5696.992
458.319, 5972.709
459.657, 5908.410
460.994, 6414.100
462.331, 6529.773
463.668, 7255.438
465.004, 8241.088
466.341, 9256.730
467.677, 11302.359
469.013, 13177.980
470.348, 15803.594
471.684, 18719.199
473.019, 20454.793
474.354, 22630.385
475.689, 22005.969
477.024, 21421.543
478.358, 19377.441
479.692, 16613.006
481.026, 14418.566
482.360, 11694.127
483.694, 10209.688
485.027, 8765.250
486.360, 7210.818
487.693, 7426.389
489.026, 6231.967
490.358, 5767.582
491.691, 5463.199
493.023, 4938.828
494.354, 5244.461
495.686, 5280.107
497.017, 5545.760
498.349, 5911.426
499.680, 6887.102
501.010, 8132.785
502.341, 9408.479
503.671, 12084.180
505.001, 14509.512
506.331, 18625.404
507.661, 23770.467
508.990, 28617.840
510.319, 36343.078
511.648, 39649.125
512.977, 43074.422
514.306, 42149.918
515.634, 37526.703
516.962, 33002.742
518.290, 25934.705
519.618, 20830.574
520.945, 16513.717
522.273, 13031.018
523.600, 11157.100
524.927, 8445.484
526.253, 7151.664
527.580, 6255.109
528.906, 5182.473
530.232, 4460.322
531.558, 3724.424
532.883, 3663.229
534.208, 2927.969
535.534, 2832.443
536.858, 2402.271
538.183, 2236.834
539.508, 2153.561
540.832, 2022.605
542.156, 1560.527
543.480, 1507.518
544.803, 1502.982
546.127, 1530.160
547.450, 1145.668
548.773, 1042.646
550.096, 1299.596
551.418, 968.764
552.741, 1025.729
554.063, 566.373
555.385, 783.340
556.706, 910.320
558.028, 717.303
559.349, 644.295
560.670, 711.285
561.991, 528.309
563.312, 585.330
564.632, 572.348
565.952, 499.379
567.272, 366.406
568.592, 673.480
569.911, 630.549
571.231, 577.617
572.550, 304.711
573.869, 541.799
575.187, 338.896
576.506, 515.986
577.824, 572.090
579.142, 479.170
580.460, 510.881
581.778, 237.758
583.095, 483.945
584.412, 339.686
585.729, 486.732
587.046, 273.771
588.363, 580.805
589.679, 307.836
590.995, 524.857
592.311, 331.875
593.627, 158.902
594.942, 425.922
596.258, 382.932
597.573, 399.936
598.888, 506.930
600.202, 470.604
601.517, 480.889
602.831, 437.857
604.145, 414.816
605.459, 281.768
606.772, 538.711
608.086, 515.643
609.399, 272.568
610.712, 439.486
612.024, 356.414
613.337, 173.371
614.649, 340.316
615.961, 217.252
617.273, 434.178
618.585, 341.098
619.896, 228.008
621.208, 534.906
622.519, 331.805
623.829, 528.689
625.140, 455.568
626.450, 522.436
627.761, 499.295
629.071, 206.143
630.380, 562.982
631.690, 449.812
632.999, 276.631
634.308, 433.443
635.617, 20.242
636.926, 287.027
638.235, 243.803
639.543, 200.566
640.851, 297.322
642.159, 194.066
643.466, 270.980
644.774, 417.701
646.081, 384.416
647.388, 366.969
648.695, 273.658
650.002, 440.465
651.308, 407.131
652.614, 213.783
653.920, 580.580
655.226, 177.965
656.531, 314.582
657.837, 211.186
659.142, 407.777
660.447, 274.355
661.752, 310.920
663.056, 87.760
664.360, 96.148
665.664, 0.826
666.968, 87.340
668.272, 72.564
669.575, 199.035
670.879, 119.439
672.182, 25.881
673.484, 102.295
674.787, 61.307
676.089, 305.025
677.392, 78.570
678.694, 17.662
679.995, 114.012
681.297, 0.416
682.598, 116.561
683.899, 77.297
685.200, 135.299
686.501, 20.633
687.802, 236.150
689.102, 9.576
690.402, 82.652
691.702, 77.061
693.002, 1.557
694.301, 76.105
695.600, 189.256
696.899, 14.600
698.198, 124.236
699.497, 140.945
700.795, 83.900
702.093, 101.158
703.391, 83.809
704.689, 161.127
705.987, 426.039
707.284, 20.930
708.581, 205.775
709.878, 80.600
711.175, 315.428
712.472, 400.229
713.768, 435.012
715.064, 536.809
716.360, 464.611
717.656, 667.465
718.951, 502.150
720.247, 656.816
721.542, 465.441
722.837, 650.061
724.131, 256.920
725.426, 811.486
726.720, 436.961
728.014, 698.203
729.308, 732.697
730.601, 690.693
731.895, 825.137
733.188, 799.752
734.481, 554.148
735.774, 1088.521
737.067, 882.893
738.359, 797.279
739.651, 1091.609
740.943, 1165.918
742.235, 1180.201
743.526, 1124.457
744.818, 1349.617
746.109, 1183.824
747.400, 1478.459
748.691, 1166.389
749.981, 1230.521
751.271, 1504.627
752.562, 1118.709
753.851, 1382.766
755.141, 1356.797
756.431, 1170.801
757.720, 1474.783
759.009, 1158.740
760.298, 1292.670
761.587, 1376.578
762.875, 1140.459
764.163, 1504.650
765.451, 1118.484
766.739, 1036.842
768.027, 1328.398
769.314, 1062.156
770.601, 965.887
771.888, 1089.594
773.175, 983.395
774.462, 897.053
775.748, 730.688
777.034, 615.201
778.320, 528.783
779.606, 432.342
780.892, 436.664
782.177, 299.383
783.462, 452.869
784.747, 536.326
786.032, 489.762
787.317, 503.174
788.601, 236.561
789.885, 489.922
791.169, 292.936
792.453, 276.248
793.736, 399.541
795.019, 342.807
796.303, 246.049
797.585, 139.270
798.868, 252.463
800.151, 375.637
801.433, 21.215
802.715, 201.855
803.997, 144.906
805.279, 267.932
806.560, 280.934
807.841, 133.914
809.122, 76.871
810.403, 199.799
811.684, 242.701
812.964, 275.582
814.245, 188.441
815.525, 401.277
816.804, 94.094
818.084, 166.711
819.363, 299.342
820.643, 150.455
821.922, 77.006
823.201, 185.340
824.479, 2.051
825.758, 160.389
827.036, 201.969
828.314, 224.285
829.592, 262.305
830.869, 113.137
832.147, 248.318
833.424, 89.334
834.701, 71.582
835.977, 141.559
837.254, 113.771
838.530, 51.234
839.807, 229.865
841.082, 79.479
842.358, 574.941
843.634, 5.279
844.909, 118.623
846.184, 252.846
847.459, 101.770
848.734, 85.984
850.008, 48.070
851.283, 82.145
852.557, 68.740
853.831, 60.578
855.105, 313.949
856.378, 285.602
857.651, 168.941
858.925, 290.828
860.197, 222.783
861.470, 392.508
862.743, 324.445
864.015, 269.186
865.287, 267.881
866.559, 99.801
867.831, 51.713
869.102, 3.621
870.373, 144.479
871.645, 57.344
872.915, 59.160
874.186, 79.025
875.457, 162.744
876.727, 215.490
877.997, 376.164
879.267, 22.188
880.536, 130.547
881.806, 271.025
883.075, 77.404
884.344, 154.129
885.613, 4.338
886.882, 57.188
888.150, 18.711
889.419, 160.230
890.687, 1.752
891.954, 63.268
893.222, 24.783
894.490, 466.297
895.757, 37.811
897.024, 30.678
898.291, 260.824
899.557, 17.672
900.824, 96.174
902.090, 165.291
903.356, 176.760
904.622, 38.229
905.888, 179.705
907.153, 101.188
908.418, 152.041
909.683, 108.850
910.948, 275.674
912.213, 27.180
913.477, 108.689
914.741, 180.205
916.005, 18.273
917.269, 333.248
918.533, 125.225
919.796, 183.730
921.060, 167.703
922.323, 49.141
923.585, 340.584
924.848, 7.967
926.111, 183.488
927.373, 94.945
928.635, 43.588
929.897, 357.877
931.158, 259.346
932.420, 100.826
933.681, 242.311
934.942, 123.807
936.203, 183.180
937.463, 216.824
938.724, 288.350
939.984, 219.879
941.244, 261.422
942.504, 532.975
943.764, 434.541
945.023, 96.121
946.282, 517.709
947.541, 339.312
948.800, 540.924
950.059, 712.367
951.317, 724.002
952.575, 665.650
953.833, 661.453
955.091, 573.125
956.349, 864.682
957.606, 616.381
958.864, 1038.094
960.121, 639.666
961.377, 680.652
962.634, 1062.406
963.891, 844.176
965.147, 625.959
966.403, 987.760
967.659, 369.576
968.914, 831.121
970.170, 1002.969
971.425, 554.832
972.680, 1066.701
973.935, 649.865
975.190, 811.785
976.444, 699.775
977.698, 571.734
978.952, 1003.713
980.206, 725.711
981.460, 817.754
982.713, 919.723
983.967, 891.883
985.220, 833.922
986.473, 1075.912
987.725, 838.156
988.978, 1200.406
990.230, 866.771
991.482, 989.160
992.734, 944.258
993.986, 846.795
995.237, 1077.275
996.488, 889.904
997.739, 882.633
998.990, 1205.396
1000.241, 918.221
1001.492, 1181.066
1002.742, 1298.076
1003.992, 1291.092
1005.242, 1214.131
1006.492, 647.229
1007.741, 990.373
1008.990, 803.576
1010.239, 686.822
1011.488, 1040.092
1012.737, 723.395
1013.986, 666.812
1015.234, 1010.258
1016.482, 773.725
1017.730, 967.248
1018.978, 660.814
1020.225, 884.299
1021.473, 1239.771
1022.720, 713.406
1023.967, 1077.066
1025.213, 836.797
1026.460, 820.531
1027.706, 962.027
1028.953, 535.818
1030.198, 618.701
1031.444, 685.818
1032.690, 449.684
1033.935, 880.053
1035.180, 623.979
1036.425, 307.734
1037.670, 731.717
1038.915, 105.725
1040.159, 659.758
1041.403, 413.828
1042.647, 527.957
1043.891, 612.119
1045.135, 396.381
1046.378, 620.664
1047.621, 704.070
1048.864, 578.430
1050.107, 902.359
1051.350, 793.416
1052.592, 987.992
1053.835, 1002.594
1055.077, 1003.373
1056.318, 873.369
1057.560, 988.049
1058.802, 635.799
1060.043, 530.527
1061.284, 575.307
1062.525, 740.244
1063.765, 895.068
1065.006, 520.613
1066.246, 905.152
1067.486, 750.082
1068.726, 511.822
1069.966, 859.021
1071.205, 624.018
1072.445, 1069.035
1073.684, 1014.076
1074.923, 679.227
1076.161, 1274.389
1077.400, 1069.574
1078.638, 903.873
1079.876, 1429.100
1081.114, 1034.480
1082.352, 1299.826
1083.590, 1495.195
1084.827, 1241.096
1086.064, 1766.592
1087.301, 1292.107
1088.538, 1597.742
1089.775, 1963.396
1091.011, 1369.072
1092.247, 1715.764
1093.483, 1541.486
1094.719, 1787.406
1095.955, 1963.166
1097.190, 1768.947
1098.425, 1944.746
1099.660, 2420.564
1100.895, 2006.400
1102.130, 2392.262
1103.364, 2448.168
1104.598, 2294.744
1105.833, 3060.688
1107.066, 2796.646
1108.300, 3603.131
1109.534, 3509.129
1110.767, 3185.148
1112.000, 4061.377
1113.233, 3867.434
1114.466, 4454.105
1115.698, 4800.199
1116.930, 4736.312
1118.163, 5752.443
1119.394, 5749.029
1120.626, 6025.189
1121.858, 6361.367
1123.089, 6007.598
1124.320, 6484.508
1125.551, 6550.797
1126.782, 5887.096
1128.013, 6483.551
1129.243, 6059.898
1130.473, 5606.262
1131.703, 6114.105
1132.933, 4980.496
1134.163, 5617.879
1135.392, 5506.029
1136.621, 4602.453
1137.850, 4789.564
1139.079, 4646.332
1140.308, 4003.482
1141.536, 4775.562
1142.765, 3562.098
1143.993, 3519.678
1145.221, 4106.885
1146.448, 2783.447
1147.676, 3751.119
1148.903, 2707.688
1150.130, 2324.262
1151.357, 2957.105
1152.584, 2264.219
1153.810, 2290.826
1155.037, 2302.631
1156.263, 1409.238
1157.489, 2220.203
1158.715, 1677.523
1159.940, 1354.125
1161.166, 1693.621
1162.391, 1600.637
1163.616, 1227.438
1164.841, 1552.275
1166.065, 713.305
1167.290, 1339.877
1168.514, 937.533
1169.738, 834.170
1170.962, 1151.596
1172.185, 814.883
1173.409, 751.469
1174.632, 1040.027
1175.855, 336.645
1177.078, 963.768
1178.301, 631.703
1179.523, 518.324
1180.746, 686.611
1181.968, 504.994
1183.190, 572.285
1184.412, 540.484
1185.633, 467.590
1186.855, 604.475
1188.076, 242.656
1189.297, 489.223
1190.518, 597.957
1191.738, 261.834
1192.959, 158.309
1194.179, 570.307
1195.399, 197.650
1196.619, 394.072
1197.838, 5.691
1199.058, 362.086
1200.277, 479.426
1201.496, 52.551
1202.715, 103.762
1203.934, 520.617
1205.152, 92.039
1206.371, 334.172
1207.589, 286.285
1208.807, 72.445
1210.024, 329.273
1211.242, 12.570
1212.459, 213.512
1213.677, 576.699
1214.894, 37.055
1216.110, 488.949
1217.327, 275.660
1218.543, 501.809
1219.760, 567.766
1220.976, 132.332
1222.192, 528.230
1223.407, 534.102
1224.623, 270.777
1225.838, 766.590
1227.053, 155.934
1228.268, 436.195
1229.483, 891.922
1230.697, 114.309
1231.912, 273.555
1233.126, 799.184
1234.340, 298.117
1235.554, 663.699
1236.767, 509.809
1237.981, 27.312
1239.194, 1042.828
1240.407, 228.605
1241.620, 384.094
1242.832, 859.578
1244.045, 315.074
1245.257, 640.527
1246.469, 475.961
1247.681, 312.344
1248.893, 697.754
1250.104, 143.148
1251.315, 618.523
1252.527, 433.883
1253.738, 189.949
1254.948, 715.273
1256.159, 560.586
1257.369, 276.812
1258.579, 942.023
1259.789, 187.207
1260.999, 373.305
1262.209, 858.410
1263.418, 423.488
1264.628, 238.492
1265.837, 813.469
1267.046, 378.332
1268.254, 663.609
1269.463, 198.395
1270.671, 635.082
1271.879, 839.660
1273.087, 334.211
1274.295, 693.617
1275.502, 538.027
1276.710, 127.453
1277.917, 807.254
1279.124, 151.477
1280.331, 56.090
1281.537, 890.219
1282.744, 234.305
1283.950, 328.344
1285.156, 242.273
1286.362, 23.848
1287.568, 741.281
1288.773, 164.914
1289.978, 101.734
1291.184, 431.531
1292.389, 154.738
1293.593, 477.898
1294.798, 580.973
1296.002, 185.996
1297.206, 307.086
1298.410, 459.898
1299.614, 7.348
1300.818, 485.352
1302.021, 7.859
1303.225, 270.301
1304.428, 572.656
1305.631, 285.148
1306.833, 346.734
1308.036, 398.363
1309.238, 50.062
1310.440, 11.398
1311.642, 672.781
1312.844, 194.102
1314.045, 445.359
1315.247, 256.547
1316.448, 22.336
1317.649, 718.680
1318.850, 99.625
1320.051, 520.484
1321.251, 341.266
1322.451, 171.973
1323.651, 732.598
1324.851, 133.145
1326.051, 123.586
1327.251, 303.953
1328.450, 144.176
1329.649, 344.309
1330.848, 394.359
1332.047, 95.676
1333.245, 464.160
1334.444, 93.898
1335.642, 186.449
1336.840, 513.230
1338.038, 2.648
1339.236, 261.965
1340.433, 551.195
1341.630, 469.652
1342.828, 519.000
1344.025, 247.852
1345.221, 146.637
1346.418, 693.863
1347.614, 342.512
1348.810, 221.094
1350.006, 606.562
1351.202, 4.988
1352.398, 633.375
1353.593, 311.660
1354.789, 109.898
1355.984, 937.391
1357.179, 24.488
1358.373, 423.559
1359.568, 560.219
1360.762, 308.172
1361.956, 436.086
1363.150, 753.969
1364.344, 208.176
1365.538, 789.453
1366.731, 477.191
1367.924, 274.918
1369.117, 952.637
1370.310, 40.367
1371.503, 142.008
1372.695, 515.703
1373.888, 176.531
1375.080, 40.789
1376.272, 498.648
1377.464, 280.855
1378.655, 727.246
1379.847, 343.020
1381.038, 124.832
1382.229, 737.391
1383.420, 420.074
1384.610, 852.703
1385.801, 865.277
1386.991, 487.098
1388.181, 859.551
1389.371, 931.391
1390.561, 273.508
1391.750, 915.117
1392.940, 637.293
1394.129, 568.926
1395.318, 1240.980
1396.507, 342.223
1397.696, 824.129
1398.884, 1035.793
1400.072, 274.160
1401.260, 934.551
1402.448, 913.957
1403.636, 294.180
1404.824, 967.945
1406.011, 637.859
1407.198, 745.777
1408.385, 935.309
1409.572, 585.625
1410.758, 395.551
1411.945, 1059.355
1413.131, 143.125
1414.317, 953.168
1415.503, 1092.215
1416.689, 4.898
1417.874, 973.004
1419.060, 431.320
1420.245, 351.422
1421.430, 937.945
1422.615, 354.551
1423.799, 471.297
1424.984, 826.801
1426.168, 552.648
1427.352, 693.625
1428.536, 788.875
1429.720, 140.699
1430.903, 918.887
1432.087, 781.234
1433.270, 606.992
1434.453, 1111.531
1435.635, 416.008
1436.818, 733.254
1438.001, 1109.051
1439.183, 322.434
1440.365, 996.418
1441.547, 841.789
1442.728, 738.039
1443.910, 1400.523
1445.091, 704.891
1446.272, 744.012
1447.453, 1571.918
1448.634, 567.625
1449.815, 1165.898
1450.995, 1258.180
1452.176, 587.281
1453.356, 1269.430
1454.535, 1271.723
1455.715, 623.707
1456.895, 1533.215
1458.074, 704.387
1459.253, 1173.484
1460.432, 1653.762
1461.611, 861.504
1462.790, 1048.879
1463.968, 1678.164
1465.146, 657.258
1466.324, 1245.199
1467.502, 1158.828
1468.680, 517.719
1469.858, 1412.922
1471.035, 999.426
1472.212, 705.930
1473.389, 1583.230
1474.566, 470.281
1475.742, 1102.965
1476.919, 1380.754
1478.095, 48.844
1479.271, 1326.664
1480.447, 1143.562
1481.623, 490.949
1482.798, 1208.320
1483.974, 1015.832
1485.149, 544.516
1486.324, 1015.094
1487.499, 845.648
1488.674, 676.070
1489.848, 1526.461
1491.022, 266.871
1492.196, 1027.434
1493.370, 1278.129
1494.544, 9.125
1495.718, 700.750
1496.891, 1043.152
1498.064, 126.066
1499.237, 1049.801
1500.410, 552.895
1501.583, 287.984
1502.755, 1154.004
1503.928, 170.934
1505.100, 488.719
1506.272, 1207.559
1507.443, 107.707
1508.615, 617.961
1509.786, 901.250
1510.958, 456.570
1512.129, 954.297
1513.300, 564.812
1514.470, 398.789
1515.641, 1107.430
1516.811, 691.828
1517.981, 6.039
1519.151, 1126.359
1520.321, 0.000
##END=



