##NAMES=Orthoclase
##RRUFFID=R040055
##IDEAL CHEMISTRY=KAlSi_3_O_8_
##LOCALITY=Madagascar
##OWNER=RRUFF
##SOURCE=Bob Downs
##DESCRIPTION=Pale yellow fragments
##STATUS=The identification of this mineral has been confirmed by X-ray diffraction and chemical analysis
##URL=rruff.info/R040055
##MEASURED CHEMISTRY=K_0.96_(Al_0.96_Si_0.03_Fe_0.02_)Si_3.00_O_8_; = light material. (K_0.90_Na_0.02_)(Al_0.91_Si_0.08_Fe_0.02_)Si_3.00_O_8_ = dark
##PIN_ID=M00468
##ORIENTATION=Laser parallel to (1 0 1). Fiducial mark perpendicular to laser is parallel to b [0 1 0]
51.562, 0.000
52.970, 51.402
54.377, 101.354
55.785, 121.176
57.192, 1.601
58.599, 68.106
60.005, 106.812
61.412, 152.244
62.818, 162.389
64.224, 57.068
65.629, 22.072
67.035, 29.802
68.440, 0.726
69.845, 91.159
71.250, 181.748
72.654, 241.134
74.059, 302.319
75.463, 593.183
76.866, 632.589
78.270, 585.434
79.673, 506.644
81.076, 507.160
82.479, 467.939
83.882, 384.945
85.284, 400.147
86.686, 380.522
88.088, 660.050
89.489, 825.714
90.891, 1165.855
92.292, 1351.445
93.693, 1544.529
95.093, 1849.968
96.494, 1841.572
97.894, 1980.041
99.294, 1807.391
100.694, 1798.618
102.093, 1733.739
103.492, 1678.775
104.891, 1821.750
106.290, 1744.679
107.689, 2056.570
109.087, 2087.426
110.485, 2695.254
111.883, 3142.058
113.280, 4213.840
114.678, 4781.773
116.075, 5193.432
117.472, 5416.633
118.868, 5595.819
120.264, 5101.537
121.661, 4594.245
123.057, 3920.949
124.452, 3688.646
125.848, 3134.342
127.243, 3262.050
128.638, 3117.794
130.032, 3542.298
131.427, 4036.580
132.821, 4874.360
134.215, 5835.668
135.609, 6375.479
137.002, 6891.124
138.396, 7201.302
139.789, 7493.395
141.182, 7312.625
142.574, 7361.056
143.966, 7909.503
145.359, 8318.246
146.750, 10056.765
148.142, 11235.325
149.534, 14103.929
150.925, 16322.573
152.316, 18711.312
153.706, 21270.182
155.097, 20329.174
156.487, 20968.352
157.877, 18427.650
159.267, 16107.013
160.656, 13496.402
162.045, 10715.814
163.434, 8915.246
164.823, 6964.702
166.212, 6053.179
167.600, 4915.675
168.988, 4242.192
170.376, 3671.730
171.764, 3212.289
173.151, 2927.866
174.538, 2290.462
175.925, 2248.073
177.312, 1938.697
178.698, 1757.332
180.085, 1471.977
181.471, 1311.633
182.856, 1358.300
184.242, 1098.977
185.627, 1052.666
187.012, 854.366
188.397, 812.077
189.781, 751.801
191.166, 590.536
192.550, 701.282
193.934, 416.042
195.317, 568.812
196.701, 340.596
198.084, 308.390
199.467, 235.197
200.850, 118.555
202.232, 161.381
203.614, 21.781
204.996, 68.070
206.378, 26.068
207.760, 67.193
209.141, 96.305
210.522, 117.937
211.903, 19.497
213.283, 96.622
214.664, 44.827
216.044, 2.930
217.424, 69.346
218.803, 4.098
220.183, 34.510
221.562, 2.806
222.941, 54.796
224.320, 32.811
225.698, 34.279
227.076, 12.219
228.454, 96.802
229.832, 5.540
231.210, 67.184
232.587, 30.969
233.964, 76.662
235.341, 123.541
236.718, 0.480
238.094, 212.462
239.470, 25.483
240.846, 277.543
242.222, 293.632
243.597, 322.751
244.973, 457.899
246.348, 463.071
247.722, 651.268
249.097, 651.488
250.471, 859.572
251.845, 975.875
253.219, 1071.241
254.593, 1392.123
255.966, 1336.013
257.339, 1731.487
258.712, 1782.953
260.085, 2079.803
261.457, 2367.196
262.830, 2561.545
264.202, 2955.729
265.573, 3043.095
266.945, 3527.464
268.316, 3793.839
269.687, 4269.220
271.058, 4988.606
272.429, 5199.998
273.799, 6296.397
275.169, 6740.803
276.539, 7881.214
277.909, 8461.632
279.278, 8872.057
280.647, 9372.489
282.016, 8722.932
283.385, 8843.375
284.754, 7843.830
286.122, 6984.289
287.490, 6320.757
288.858, 5164.232
290.225, 4781.714
291.593, 3773.203
292.960, 3275.700
294.327, 2792.189
295.694, 2347.631
297.060, 2093.963
298.426, 1708.254
299.792, 1613.529
301.158, 1278.778
302.524, 1193.019
303.889, 1008.227
305.254, 792.432
306.619, 824.644
307.983, 618.870
309.348, 628.109
310.712, 502.359
312.076, 454.622
313.440, 465.898
314.803, 401.186
316.166, 456.487
317.529, 324.800
318.892, 389.124
320.255, 390.459
321.617, 346.805
322.979, 349.160
324.341, 244.524
325.702, 295.898
327.064, 225.281
328.425, 271.672
329.786, 316.073
331.147, 228.482
332.507, 331.901
333.867, 314.328
335.227, 245.763
336.587, 196.208
337.947, 229.661
339.306, 284.122
340.665, 176.591
342.024, 231.069
343.383, 128.555
344.741, 176.049
346.100, 153.552
347.458, 5.063
348.815, 147.579
350.173, 87.103
351.530, 187.635
352.887, 94.177
354.244, 127.728
355.601, 248.293
356.957, 218.869
358.313, 443.454
359.669, 465.055
361.025, 674.666
362.380, 843.301
363.735, 809.956
365.091, 1059.622
366.445, 951.322
367.800, 1101.626
369.154, 923.378
370.508, 833.536
371.862, 833.358
373.216, 677.392
374.569, 621.105
375.922, 532.979
377.275, 483.117
378.628, 387.434
379.981, 275.271
381.333, 364.224
382.685, 241.166
384.037, 282.192
385.389, 221.117
386.740, 153.052
388.091, 193.257
389.442, 90.401
390.793, 156.495
392.143, 77.599
393.494, 48.271
394.844, 85.395
396.193, 20.528
397.543, 85.674
398.892, 44.830
400.241, 98.849
401.590, 31.021
402.939, 4.200
404.287, 118.387
405.636, 101.581
406.984, 110.783
408.331, 19.992
409.679, 35.208
411.026, 57.431
412.373, 74.339
413.720, 0.863
415.067, 93.930
416.413, 34.762
417.760, 34.603
419.106, 126.453
420.451, 78.359
421.797, 100.297
423.142, 43.277
424.487, 76.271
425.832, 20.295
427.177, 18.679
428.521, 29.659
429.865, 154.645
431.209, 161.637
432.553, 251.636
433.896, 479.641
435.240, 468.653
436.583, 810.670
437.926, 847.694
439.268, 1150.724
440.611, 1413.760
441.953, 1744.802
443.295, 2272.850
444.636, 2575.903
445.978, 3259.963
447.319, 3557.029
448.660, 4074.099
450.001, 4758.176
451.342, 4643.259
452.682, 5170.347
454.022, 4801.440
455.362, 4929.540
456.702, 4905.644
458.041, 4427.753
459.380, 4903.869
460.719, 4740.993
462.058, 5158.121
463.397, 5681.255
464.735, 6073.396
466.073, 7535.544
467.411, 8336.701
468.749, 10347.859
470.086, 11989.027
471.424, 13810.200
472.761, 16111.380
474.097, 15632.563
475.434, 16263.757
476.770, 14594.954
478.106, 12936.158
479.442, 11487.365
480.778, 9118.581
482.114, 8359.801
483.449, 6941.026
484.784, 6473.258
486.119, 5855.494
487.453, 5216.734
488.787, 5176.982
490.122, 4611.234
491.456, 4700.490
492.789, 4628.751
494.123, 4514.016
495.456, 5038.287
496.789, 5083.562
498.122, 6084.843
499.454, 6986.126
500.787, 8127.414
502.119, 10098.706
503.451, 11880.005
504.782, 15901.305
506.114, 19162.660
507.445, 24573.973
508.776, 31084.801
510.107, 35376.113
511.437, 41977.473
512.768, 40969.223
514.098, 39730.645
515.428, 34383.281
516.758, 27275.178
518.087, 22776.867
519.416, 16899.957
520.745, 13811.686
522.074, 11136.740
523.403, 8750.850
524.731, 7503.497
526.059, 5894.923
527.387, 5190.884
528.715, 4379.925
530.042, 3817.278
531.370, 3431.905
532.697, 2855.570
534.023, 2806.979
535.350, 2394.003
536.676, 2234.926
538.003, 2023.860
539.329, 1712.621
540.654, 1699.241
541.980, 1560.783
543.305, 1416.054
544.630, 1424.983
545.955, 1095.450
547.280, 1213.202
548.604, 938.939
549.928, 1019.525
551.252, 897.107
552.576, 836.686
553.899, 847.263
555.223, 704.843
556.546, 753.420
557.869, 713.993
559.191, 617.563
560.514, 616.131
561.836, 544.710
563.158, 571.283
564.480, 583.853
565.801, 572.424
567.123, 540.990
568.444, 497.561
569.765, 559.154
571.085, 459.744
572.406, 477.496
573.726, 528.047
575.046, 409.553
576.366, 509.573
577.685, 405.597
579.005, 463.054
580.324, 486.525
581.643, 288.625
582.962, 451.197
584.280, 387.812
585.598, 377.598
586.916, 420.214
588.234, 287.830
589.552, 411.460
590.869, 308.086
592.186, 330.712
593.503, 358.333
594.820, 291.949
596.137, 391.562
597.453, 327.171
598.769, 371.774
600.085, 374.372
601.401, 303.965
602.716, 343.559
604.031, 328.150
605.346, 314.735
606.661, 278.314
607.976, 257.888
609.290, 363.455
610.604, 251.017
611.918, 375.573
613.232, 276.123
614.545, 268.667
615.858, 346.204
617.171, 256.734
618.484, 279.259
619.797, 294.775
621.109, 346.286
622.421, 419.789
623.733, 335.285
625.045, 442.774
626.357, 344.255
627.668, 357.729
628.979, 390.195
630.290, 263.653
631.601, 290.104
632.911, 278.547
634.221, 220.981
635.531, 261.408
636.841, 162.826
638.151, 168.236
639.460, 148.637
640.769, 109.030
642.078, 120.414
643.387, 112.789
644.695, 183.155
646.004, 143.513
647.312, 148.861
648.620, 181.200
649.927, 109.529
651.235, 250.850
652.542, 192.160
653.849, 163.461
655.156, 222.752
656.462, 150.033
657.769, 218.305
659.075, 94.566
660.381, 140.818
661.686, 124.059
662.992, 84.289
664.297, 173.509
665.602, 96.718
666.907, 149.920
668.212, 89.259
669.516, 30.438
670.820, 78.758
672.124, 1.010
673.428, 24.138
674.732, 38.479
676.035, 5.020
677.338, 37.082
678.641, 35.689
679.944, 20.379
681.246, 3.329
682.548, 72.566
683.850, 1.124
685.152, 81.647
686.454, 70.458
687.755, 8.638
689.056, 7.850
690.357, 35.087
691.658, 60.179
692.959, 58.451
694.259, 26.078
695.559, 38.779
696.859, 14.620
698.159, 50.854
699.458, 28.587
700.758, 51.058
702.057, 33.516
703.355, 79.714
704.654, 85.073
705.952, 135.270
707.251, 158.454
708.549, 165.457
709.846, 203.887
711.144, 178.134
712.441, 208.414
713.738, 213.678
715.035, 173.999
716.332, 241.179
717.629, 202.813
718.925, 300.899
720.221, 286.935
721.517, 202.982
722.812, 297.988
724.108, 264.949
725.403, 275.510
726.698, 324.633
727.993, 358.095
729.287, 357.090
730.582, 355.172
731.876, 410.120
733.170, 446.241
734.464, 416.248
735.757, 498.497
737.050, 540.113
738.343, 623.032
739.636, 705.016
740.929, 600.516
742.221, 759.741
743.514, 702.341
744.806, 668.575
746.098, 792.448
747.389, 741.135
748.681, 863.974
749.972, 795.882
751.263, 751.865
752.554, 823.650
753.844, 849.479
755.134, 980.229
756.425, 1023.960
757.714, 934.222
759.004, 1138.167
760.294, 1034.846
761.583, 1241.517
762.872, 1194.159
764.161, 1210.784
765.449, 1383.392
766.738, 1223.167
768.026, 1345.739
769.314, 1218.292
770.602, 1194.827
771.890, 1268.345
773.177, 1061.844
774.464, 997.326
775.751, 965.790
777.038, 918.235
778.324, 830.663
779.611, 774.843
780.897, 623.465
782.183, 651.840
783.468, 520.197
784.754, 520.535
786.039, 442.856
787.324, 514.159
788.609, 505.445
789.894, 461.713
791.178, 575.963
792.462, 492.195
793.746, 539.410
795.030, 514.607
796.314, 448.786
797.597, 543.948
798.880, 509.093
800.163, 455.219
801.446, 560.329
802.729, 434.421
804.011, 572.496
805.293, 542.553
806.575, 546.593
807.857, 599.615
809.138, 526.621
810.419, 530.609
811.701, 577.581
812.981, 514.535
814.262, 508.472
815.543, 369.392
816.823, 353.295
818.103, 308.132
819.383, 241.002
820.662, 214.850
821.942, 106.686
823.221, 182.462
824.500, 103.845
825.779, 116.535
827.057, 151.985
828.336, 83.183
829.614, 58.566
830.892, 127.533
832.169, 92.847
833.447, 63.823
834.724, 32.726
836.001, 89.077
837.278, 34.635
838.555, 30.641
839.831, 36.559
841.108, 59.850
842.384, 3.563
843.660, 78.682
844.935, 34.195
846.211, 51.109
847.486, 4.110
848.761, 3.107
850.036, 88.272
851.310, 41.566
852.585, 42.941
853.859, 29.575
855.133, 35.545
856.407, 107.966
857.680, 31.101
858.954, 87.246
860.227, 107.539
861.500, 36.821
862.773, 98.093
864.045, 9.646
865.317, 23.595
866.590, 22.825
867.861, 5.044
869.133, 34.250
870.405, 50.553
871.676, 47.603
872.947, 59.749
874.218, 11.114
875.489, 70.004
876.759, 26.886
878.029, 100.804
879.299, 11.213
880.569, 36.781
881.839, 36.195
883.108, 15.839
884.378, 45.892
885.647, 2.020
886.915, 16.079
888.184, 2.198
889.452, 42.327
890.721, 47.490
891.989, 28.313
893.256, 25.893
894.524, 38.121
895.791, 12.379
897.058, 71.652
898.325, 38.030
899.592, 16.296
900.859, 81.363
902.125, 9.013
903.391, 1.344
904.657, 65.290
905.923, 11.917
907.188, 44.536
908.454, 33.149
909.719, 32.244
910.984, 5.659
912.248, 60.918
913.513, 16.488
914.777, 62.052
916.041, 26.611
917.305, 62.164
918.569, 5.289
919.832, 39.250
921.096, 69.785
922.359, 55.314
923.621, 73.838
924.884, 44.358
926.147, 20.872
927.409, 34.479
928.671, 58.888
929.933, 53.389
931.194, 95.886
932.456, 126.378
933.717, 106.869
934.978, 136.355
936.239, 107.838
937.499, 121.320
938.760, 143.797
940.020, 124.273
941.280, 162.745
942.540, 158.215
943.799, 205.681
945.059, 210.145
946.318, 209.606
947.577, 254.064
948.835, 219.521
950.094, 357.977
951.352, 364.431
952.611, 365.884
953.868, 491.334
955.126, 489.783
956.384, 521.230
957.641, 540.688
958.898, 540.145
960.155, 622.601
961.412, 587.055
962.668, 680.509
963.925, 694.964
965.181, 659.418
966.437, 812.873
967.692, 761.340
968.948, 771.807
970.203, 845.273
971.458, 784.740
972.713, 741.207
973.968, 845.531
975.222, 795.003
976.477, 808.322
977.731, 825.699
978.985, 755.181
980.238, 817.438
981.492, 763.523
982.745, 808.989
983.998, 763.315
985.251, 801.534
986.504, 818.331
987.756, 755.715
989.008, 803.725
990.260, 770.682
991.512, 729.889
992.764, 824.151
994.015, 754.981
995.267, 747.541
996.518, 841.928
997.768, 700.471
999.019, 892.334
1000.270, 796.246
1001.520, 803.049
1002.770, 917.709
1004.020, 711.424
1005.269, 689.108
1006.519, 707.825
1007.768, 614.726
1009.017, 712.488
1010.266, 614.400
1011.514, 625.338
1012.763, 639.170
1014.011, 533.117
1015.259, 625.978
1016.507, 569.796
1017.754, 535.619
1019.002, 595.376
1020.249, 468.264
1021.496, 564.700
1022.743, 440.674
1023.989, 455.687
1025.236, 509.680
1026.482, 459.705
1027.728, 500.764
1028.974, 446.212
1030.219, 332.089
1031.465, 514.620
1032.710, 376.624
1033.955, 375.532
1035.200, 417.598
1036.444, 323.489
1037.689, 428.493
1038.933, 378.276
1040.177, 339.702
1041.421, 413.844
1042.664, 313.920
1043.908, 342.490
1045.151, 353.343
1046.394, 236.813
1047.637, 357.639
1048.879, 285.823
1050.122, 265.186
1051.364, 269.390
1052.606, 314.520
1053.848, 313.566
1055.089, 307.820
1056.331, 233.024
1057.572, 319.295
1058.813, 207.582
1060.054, 274.331
1061.294, 372.386
1062.535, 218.707
1063.775, 405.027
1065.015, 306.368
1066.255, 353.718
1067.494, 522.076
1068.734, 399.266
1069.973, 504.651
1071.212, 570.045
1072.451, 567.451
1073.689, 662.865
1074.928, 628.288
1076.166, 670.722
1077.404, 806.165
1078.642, 774.617
1079.879, 894.079
1081.117, 925.549
1082.354, 904.316
1083.591, 1018.814
1084.828, 1037.321
1086.064, 1057.187
1087.301, 1236.722
1088.537, 1160.441
1089.773, 1250.994
1091.009, 1277.556
1092.244, 1283.127
1093.480, 1435.708
1094.715, 1403.297
1095.950, 1481.907
1097.185, 1595.526
1098.419, 1465.675
1099.654, 1725.313
1100.888, 1759.960
1102.122, 1707.616
1103.356, 2023.281
1104.590, 1925.955
1105.823, 2100.438
1107.056, 2317.130
1108.289, 2201.879
1109.522, 2533.590
1110.755, 2495.310
1111.987, 2639.591
1113.219, 3068.330
1114.452, 3026.076
1115.683, 3422.988
1116.915, 3602.752
1118.146, 3626.527
1119.378, 4030.311
1120.609, 4145.103
1121.840, 4062.920
1123.070, 4452.736
1124.301, 4211.557
1125.531, 4455.497
1126.761, 4531.336
1127.991, 4276.184
1129.221, 4490.139
1130.450, 4144.004
1131.679, 4149.919
1132.909, 4193.802
1134.137, 3836.694
1135.366, 3868.669
1136.595, 3824.582
1137.823, 3548.505
1139.051, 3576.438
1140.279, 3262.382
1141.507, 3247.490
1142.734, 3233.545
1143.961, 2931.542
1145.189, 2794.990
1146.416, 2696.001
1147.642, 2439.023
1148.869, 2568.769
1150.095, 2188.806
1151.321, 2153.242
1152.547, 2090.328
1153.773, 1842.385
1154.998, 1925.980
1156.224, 1750.287
1157.449, 1497.520
1158.674, 1566.918
1159.899, 1309.000
1161.123, 1361.197
1162.348, 1323.266
1163.572, 1076.366
1164.796, 1212.669
1166.020, 1041.978
1167.243, 1016.091
1168.467, 1055.120
1169.690, 851.256
1170.913, 1026.396
1172.136, 885.695
1173.358, 731.846
1174.581, 856.112
1175.803, 703.285
1177.025, 698.483
1178.247, 679.108
1179.468, 561.324
1180.690, 629.542
1181.911, 597.335
1183.132, 462.578
1184.353, 572.851
1185.574, 391.370
1186.794, 415.627
1188.014, 434.762
1189.234, 292.105
1190.454, 390.394
1191.674, 259.968
1192.893, 185.496
1194.113, 322.810
1195.332, 161.077
1196.551, 204.414
1197.769, 175.399
1198.988, 95.963
1200.206, 165.306
1201.424, 115.440
1202.642, 30.933
1203.860, 174.279
1205.078, 59.268
1206.295, 136.614
1207.512, 196.124
1208.729, 17.174
1209.946, 150.530
1211.162, 109.569
1212.379, 31.035
1213.595, 175.389
1214.811, 46.819
1216.027, 133.173
1217.242, 139.527
1218.458, 62.536
1219.673, 131.888
1220.888, 61.240
1222.103, 85.034
1223.317, 176.384
1224.532, 2.925
1225.746, 80.272
1226.960, 109.618
1228.174, 12.869
1229.388, 159.472
1230.601, 49.812
1231.814, 13.277
1233.028, 232.056
1234.240, 7.611
1235.453, 70.736
1236.666, 180.064
1237.878, 10.468
1239.090, 122.791
1240.302, 136.116
1241.514, 13.201
1242.725, 164.529
1243.937, 14.141
1245.148, 74.434
1246.359, 158.753
1247.570, 32.074
1248.780, 127.393
1249.990, 146.715
1251.201, 51.910
1252.411, 222.386
1253.620, 8.679
1254.830, 63.231
1256.039, 161.525
1257.249, 11.180
1258.458, 112.269
1259.667, 143.562
1260.875, 53.940
1262.084, 167.366
1263.292, 104.646
1264.500, 54.168
1265.708, 203.436
1266.916, 17.322
1268.123, 132.622
1269.330, 148.839
1270.538, 10.034
1271.744, 174.198
1272.951, 135.359
1274.158, 15.582
1275.364, 188.715
1276.570, 31.829
1277.776, 84.940
1278.982, 176.049
1280.188, 27.154
1281.393, 141.505
1282.598, 101.602
1283.803, 68.680
1285.008, 143.018
1286.213, 17.081
1287.417, 34.165
1288.621, 142.197
1289.825, 32.787
1291.029, 63.209
1292.233, 121.191
1293.436, 67.865
1294.640, 186.042
1295.843, 1.943
1297.046, 40.177
1298.248, 82.678
1299.451, 47.489
1300.653, 7.323
1301.855, 22.122
1303.057, 75.091
1304.259, 109.665
1305.461, 36.415
1306.662, 52.861
1307.863, 116.817
1309.064, 17.488
1310.265, 18.149
1311.466, 178.801
1312.666, 34.581
1313.866, 80.016
1315.066, 136.602
1316.266, 32.177
1317.466, 208.741
1318.665, 44.294
1319.865, 69.835
1321.064, 178.363
1322.263, 7.877
1323.461, 118.376
1324.660, 184.861
1325.858, 26.675
1327.056, 97.765
1328.254, 69.194
1329.452, 15.610
1330.650, 202.012
1331.847, 1.403
1333.044, 64.774
1334.241, 126.128
1335.438, 36.531
1336.635, 27.783
1337.831, 136.084
1339.027, 14.628
1340.223, 224.640
1341.419, 6.896
1342.615, 2.862
1343.810, 216.362
1345.006, 59.425
1346.201, 48.756
1347.396, 146.926
1348.590, 8.914
1349.785, 130.228
1350.979, 48.494
1352.174, 9.384
1353.368, 222.721
1354.561, 7.870
1355.755, 60.954
1356.948, 191.029
1358.142, 14.903
1359.335, 118.149
1360.527, 156.298
1361.720, 9.339
1362.913, 148.371
1364.105, 144.471
1365.297, 15.496
1366.489, 262.517
1367.681, 45.531
1368.872, 133.542
1370.063, 246.553
1371.255, 15.171
1372.446, 199.552
1373.636, 151.555
1374.827, 21.437
1376.017, 268.229
1377.208, 118.734
1378.398, 91.558
1379.587, 254.566
1380.777, 79.262
1381.966, 136.134
1383.156, 239.198
1384.345, 22.769
1385.534, 262.720
1386.722, 163.730
1387.911, 43.731
1389.099, 270.775
1390.287, 131.680
1391.475, 111.032
1392.663, 297.962
1393.851, 85.435
1395.038, 137.309
1396.225, 237.041
1397.412, 41.875
1398.599, 291.577
1399.786, 167.277
1400.972, 69.034
1402.159, 271.825
1403.345, 59.523
1404.531, 103.292
1405.716, 228.887
1406.902, 53.552
1408.087, 214.292
1409.272, 282.152
1410.457, 12.288
1411.642, 260.061
1412.827, 148.800
1414.011, 130.217
1415.195, 256.486
1416.379, 71.633
1417.563, 108.432
1418.747, 305.818
1419.930, 110.079
1421.114, 185.114
1422.297, 280.187
1423.480, 31.812
1424.662, 274.018
1425.845, 155.497
1427.027, 27.209
1428.209, 305.053
1429.391, 85.067
1430.573, 155.836
1431.755, 356.866
1432.936, 104.820
1434.117, 214.821
1435.298, 345.800
1436.479, 133.908
1437.660, 340.377
1438.840, 242.251
1440.021, 116.554
1441.201, 455.599
1442.381, 259.143
1443.561, 217.504
1444.740, 434.193
1445.920, 213.292
1447.099, 390.716
1448.278, 422.036
1449.457, 153.428
1450.635, 407.635
1451.814, 379.776
1452.992, 182.764
1454.170, 480.214
1455.348, 242.134
1456.526, 310.482
1457.703, 445.293
1458.880, 241.911
1460.058, 366.634
1461.235, 430.695
1462.411, 162.880
1463.588, 442.843
1464.764, 326.119
1465.941, 153.790
1467.117, 355.315
1468.293, 206.628
1469.468, 159.056
1470.644, 378.291
1471.819, 139.755
1472.994, 213.135
1474.169, 330.713
1475.344, 124.217
1476.518, 338.355
1477.693, 264.643
1478.867, 76.934
1480.041, 380.420
1481.215, 215.919
1482.388, 99.484
1483.562, 360.058
1484.735, 143.621
1485.908, 191.194
1487.081, 272.950
1488.254, 73.672
1489.427, 261.571
1490.599, 295.484
1491.771, 11.404
1492.943, 279.369
1494.115, 220.397
1495.286, 31.547
1496.458, 305.804
1497.629, 127.136
1498.800, 103.570
1499.971, 286.173
1501.142, 22.911
1502.312, 173.783
1503.483, 286.799
1504.653, 33.981
1505.823, 248.346
1506.993, 284.906
1508.162, 58.415
1509.332, 224.808
1510.501, 175.979
1511.670, 2.458
1512.839, 350.817
1514.008, 89.670
1515.176, 127.887
1516.344, 363.749
1517.513, 1.804
1518.680, 122.790
1519.848, 259.198
1521.016, 0.036
1522.183, 0.000
##END=



