##NAMES=Orthoclase
##RRUFFID=R040055
##IDEAL CHEMISTRY=KAlSi_3_O_8_
##LOCALITY=Madagascar
##OWNER=RRUFF
##SOURCE=Bob Downs
##DESCRIPTION=Pale yellow fragments
##STATUS=The identification of this mineral has been confirmed by X-ray diffraction and chemical analysis
##URL=rruff.info/R040055
##MEASURED CHEMISTRY=K_0.96_(Al_0.96_Si_0.03_Fe_0.02_)Si_3.00_O_8_; = light material. (K_0.90_Na_0.02_)(Al_0.91_Si_0.08_Fe_0.02_)Si_3.00_O_8_ = dark
##PIN_ID=M00411
##ORIENTATION=Laser parallel to -c* (0 0 -1). Fiducial mark perpendicular to laser is parallel to a [1 0 0]
98.251, 0.000
99.644, 0.416
101.036, 87.348
102.428, 1.709
103.820, 239.703
105.212, 308.289
106.604, 500.674
107.995, 1127.698
109.387, 3045.927
110.777, 2523.676
112.168, 4835.091
113.559, 3017.386
114.949, 3410.339
116.339, 4953.950
117.729, 5307.523
119.119, 5002.556
120.508, 5038.846
121.897, 4614.211
123.286, 4121.150
124.675, 3389.898
126.063, 2765.051
127.452, 2189.113
128.840, 1784.690
130.228, 1387.563
131.615, 1078.796
133.003, 970.441
134.390, 751.544
135.777, 674.142
137.164, 580.271
138.550, 334.963
139.937, 379.248
141.323, 349.154
142.709, 432.779
144.094, 449.271
145.480, 695.090
146.865, 901.669
148.250, 1222.029
149.635, 1591.320
151.019, 1927.617
152.403, 2479.268
153.788, 2492.853
155.171, 2431.347
156.555, 2213.171
157.939, 1855.861
159.322, 1729.388
160.705, 1388.258
162.088, 1280.304
163.470, 967.271
164.853, 899.094
166.235, 789.780
167.617, 683.326
168.998, 712.725
170.380, 529.981
171.761, 693.104
173.142, 454.103
174.523, 548.983
175.904, 559.750
177.284, 336.413
178.664, 386.976
180.044, 254.444
181.424, 210.821
182.803, 128.134
184.183, 83.433
185.562, 133.745
186.940, 8.919
188.319, 167.448
189.698, 8.851
191.076, 75.290
192.454, 108.765
193.831, 63.274
195.209, 203.816
196.586, 67.387
197.963, 88.982
199.340, 0.599
200.717, 21.232
202.093, 107.119
203.470, 135.459
204.846, 151.790
206.221, 233.113
207.597, 173.244
208.972, 200.901
210.347, 80.381
211.722, 104.506
213.097, 74.824
214.472, 17.129
215.846, 95.575
217.220, 92.397
218.594, 35.016
219.967, 156.903
221.341, 106.158
222.714, 147.379
224.087, 162.160
225.460, 160.064
226.832, 199.883
228.204, 166.411
229.577, 215.942
230.948, 250.478
232.320, 288.007
233.692, 296.431
235.063, 219.652
236.434, 391.645
237.805, 383.503
239.175, 395.284
240.545, 522.073
241.916, 582.865
243.286, 640.663
244.655, 758.464
246.025, 830.271
247.394, 1000.080
248.763, 1108.891
250.132, 1375.706
251.501, 1405.524
252.869, 1720.346
254.237, 1880.169
255.605, 2201.997
256.973, 2471.827
258.340, 2691.660
259.708, 3108.496
261.075, 3284.334
262.442, 3682.193
263.808, 3931.911
265.175, 4227.769
266.541, 4385.325
267.907, 4537.367
269.273, 4873.764
270.639, 4814.433
272.004, 5107.311
273.369, 5533.352
274.734, 5812.522
276.099, 6301.793
277.463, 6581.144
278.828, 7200.550
280.192, 7139.996
281.556, 7359.467
282.919, 7028.954
284.283, 6578.449
285.646, 6027.949
287.009, 5267.445
288.372, 4779.935
289.734, 3974.411
291.097, 3422.844
292.459, 2904.219
293.821, 2293.541
295.183, 2019.811
296.544, 1527.031
297.905, 1398.204
299.266, 1188.333
300.627, 912.419
301.988, 795.465
303.348, 547.472
304.709, 578.442
306.069, 434.377
307.428, 347.256
308.788, 329.094
310.147, 212.901
311.507, 200.678
312.865, 164.474
314.224, 113.132
315.583, 118.617
316.941, 77.777
318.299, 41.631
319.657, 42.680
321.015, 104.894
322.372, 41.546
323.729, 17.959
325.086, 31.565
326.443, 73.137
327.800, 5.764
329.156, 96.430
330.512, 36.156
331.868, 122.928
333.224, 90.766
334.579, 13.337
335.935, 54.588
337.290, 23.438
338.645, 33.562
339.999, 31.603
341.354, 37.683
342.708, 12.804
344.062, 6.959
345.416, 0.681
346.769, 22.639
348.123, 31.399
349.476, 40.137
350.829, 82.749
352.182, 69.451
353.534, 281.764
354.887, 249.453
356.239, 386.129
357.591, 419.803
358.942, 444.470
360.294, 612.137
361.645, 473.807
362.996, 606.831
364.347, 603.512
365.698, 584.070
367.048, 562.964
368.398, 501.871
369.748, 486.639
371.098, 316.154
372.448, 391.865
373.797, 310.696
375.146, 260.859
376.495, 322.282
377.844, 228.291
379.192, 240.672
380.540, 204.972
381.889, 181.769
383.236, 260.930
384.584, 229.021
385.932, 321.058
387.279, 356.064
388.626, 434.051
389.973, 442.028
391.319, 496.002
392.666, 729.974
394.012, 735.942
395.358, 929.908
396.704, 1004.872
398.049, 1196.833
399.394, 1452.794
400.740, 1547.756
402.084, 1794.718
403.429, 1726.681
404.774, 1801.643
406.118, 1634.607
407.462, 1314.571
408.806, 1147.536
410.150, 833.501
411.493, 637.467
412.836, 446.433
414.179, 342.400
415.522, 276.367
416.865, 171.335
418.207, 232.304
419.549, 122.273
420.891, 134.243
422.233, 178.214
423.575, 83.186
424.916, 243.157
426.257, 247.131
427.598, 376.103
428.939, 388.068
430.279, 491.026
431.619, 624.973
432.959, 707.908
434.299, 922.832
435.639, 1152.742
436.978, 1455.639
438.318, 1814.521
439.657, 2209.388
440.996, 2763.240
442.334, 3206.076
443.673, 4028.898
445.011, 4808.705
446.349, 5674.496
447.687, 6900.271
449.024, 7406.031
450.361, 8381.775
451.699, 8637.505
453.036, 8873.220
454.372, 8778.918
455.709, 8184.603
457.045, 8160.272
458.381, 7395.929
459.717, 6851.570
461.053, 6627.198
462.388, 6042.812
463.724, 6238.413
465.059, 5884.000
466.394, 6419.575
467.728, 6845.135
469.063, 7350.685
470.397, 8256.221
471.731, 8731.745
473.065, 9407.255
474.398, 9432.755
475.732, 9028.160
477.065, 8803.590
478.398, 7678.354
479.731, 7082.038
481.063, 6220.971
482.396, 5666.166
483.728, 5255.154
485.060, 5077.771
486.391, 4887.370
487.723, 4435.353
489.054, 4665.561
490.385, 4521.075
491.716, 4470.369
493.047, 4744.216
494.377, 4790.084
495.708, 5442.438
497.038, 5960.583
498.368, 6813.430
499.697, 8232.902
501.027, 9822.506
502.356, 12591.729
503.685, 15332.522
505.014, 19613.693
506.342, 24855.354
507.671, 30348.311
508.999, 37771.520
510.327, 42165.035
511.655, 46079.684
512.982, 46266.195
514.310, 41522.910
515.637, 36908.277
516.964, 29625.758
518.291, 24032.250
519.617, 19240.512
520.944, 15429.286
522.270, 12347.706
523.596, 9873.421
524.921, 8522.941
526.247, 7013.762
527.572, 5978.341
528.897, 5294.121
530.222, 4515.834
531.547, 4019.731
532.871, 3657.953
534.196, 3102.432
535.520, 3000.820
536.844, 2494.288
538.167, 2581.962
539.491, 2180.000
540.814, 1941.167
542.137, 1892.836
543.460, 1690.596
544.783, 1623.264
546.105, 1405.931
547.427, 1338.597
548.749, 1334.261
550.071, 1096.923
551.393, 1105.584
552.714, 944.244
554.035, 872.903
555.356, 876.562
556.677, 724.236
557.998, 882.909
559.318, 668.580
560.638, 701.257
561.958, 669.932
563.278, 637.638
564.597, 762.347
565.917, 586.054
567.236, 662.759
568.555, 660.462
569.874, 509.177
571.192, 627.905
572.511, 513.630
573.829, 589.387
575.147, 603.143
576.464, 458.897
577.782, 624.677
579.099, 431.455
580.416, 623.242
581.733, 564.026
583.050, 437.791
584.366, 583.576
585.683, 488.359
586.999, 528.161
588.315, 473.960
589.630, 495.756
590.946, 521.577
592.261, 490.764
593.576, 561.209
594.891, 459.022
596.206, 459.833
597.520, 422.659
598.834, 321.483
600.148, 541.306
601.462, 392.129
602.776, 400.951
604.089, 422.791
605.402, 335.628
606.715, 467.463
608.028, 273.296
609.341, 367.127
610.653, 326.984
611.965, 188.840
613.277, 345.693
614.589, 181.552
615.901, 256.409
617.212, 261.263
618.523, 199.116
619.834, 282.967
621.145, 206.815
622.456, 453.662
623.766, 417.507
625.076, 311.349
626.386, 391.190
627.696, 262.028
629.006, 313.865
630.315, 235.700
631.624, 159.533
632.933, 209.364
634.242, 51.193
635.551, 184.022
636.859, 209.852
638.167, 130.689
639.475, 311.553
640.783, 44.417
642.090, 229.307
643.398, 291.209
644.705, 124.135
646.012, 340.097
647.318, 232.075
648.625, 360.095
649.931, 269.140
651.237, 259.233
652.543, 236.366
653.849, 183.511
655.155, 274.686
656.460, 242.870
657.765, 181.079
659.070, 302.312
660.375, 78.569
661.679, 107.953
662.984, 81.631
664.288, 20.446
665.592, 78.762
666.895, 66.086
668.199, 156.416
669.502, 31.253
670.805, 17.942
672.108, 88.353
673.411, 29.355
674.713, 13.088
676.016, 40.836
677.318, 48.614
678.620, 42.539
679.921, 158.272
681.223, 59.209
682.524, 79.188
683.825, 138.219
685.126, 4.667
686.427, 90.409
687.727, 44.591
689.028, 48.702
690.328, 115.957
691.628, 18.286
692.927, 130.545
694.227, 62.022
695.526, 4.645
696.825, 2.197
698.124, 72.736
699.423, 41.954
700.721, 72.482
702.020, 142.005
703.318, 175.522
704.616, 211.694
705.913, 112.542
707.211, 269.044
708.508, 329.541
709.805, 348.208
711.102, 553.694
712.399, 352.107
713.695, 616.582
714.992, 699.052
716.288, 563.000
717.584, 838.458
718.879, 595.274
720.175, 844.549
721.470, 748.011
722.765, 757.443
724.060, 973.871
725.355, 870.386
726.649, 1091.669
727.944, 1099.077
729.238, 1154.422
730.532, 1464.814
731.825, 1325.201
733.119, 1765.170
734.412, 1799.541
735.705, 1843.229
736.998, 2296.584
738.291, 2228.932
739.584, 2515.247
740.876, 2707.579
742.168, 2643.653
743.460, 2911.968
744.752, 2857.275
746.043, 2871.433
747.334, 3041.725
748.626, 2901.020
749.916, 3007.294
751.207, 2905.559
752.498, 2958.910
753.788, 2892.158
755.078, 2858.741
756.368, 2995.459
757.658, 2805.681
758.947, 2765.428
760.237, 2778.633
761.526, 2537.829
762.815, 2681.016
764.104, 2522.194
765.392, 2579.909
766.680, 2618.069
767.969, 2349.220
769.257, 2627.891
770.544, 2318.023
771.832, 2351.146
773.119, 2442.261
774.406, 2108.365
775.693, 2368.460
776.980, 2169.546
778.267, 2203.622
779.553, 2236.690
780.839, 2070.749
782.125, 2324.798
783.411, 2235.838
784.697, 2231.869
785.982, 2428.890
787.267, 2450.903
788.552, 2678.906
789.837, 2681.901
791.122, 2837.887
792.406, 3138.862
793.690, 3000.831
794.974, 3243.789
796.258, 3456.737
797.542, 3276.676
798.825, 3439.607
800.108, 3424.527
801.391, 3431.438
802.674, 3584.340
803.957, 3559.230
805.239, 3894.113
806.522, 3728.984
807.804, 3903.845
809.085, 4058.695
810.367, 3683.536
811.649, 3778.366
812.930, 3225.185
814.211, 2710.993
815.492, 2521.792
816.772, 1856.579
818.053, 1821.355
819.333, 1233.002
820.613, 1014.757
821.893, 864.500
823.173, 585.233
824.452, 633.814
825.732, 428.190
827.011, 359.891
828.290, 496.469
829.568, 299.029
830.847, 377.807
832.125, 248.059
833.403, 171.654
834.681, 324.950
835.959, 161.429
837.236, 167.623
838.514, 121.082
839.791, 61.371
841.068, 208.775
842.345, 38.029
843.621, 100.000
844.898, 89.727
846.174, 28.564
847.450, 200.333
848.726, 26.893
850.001, 85.079
851.277, 163.128
852.552, 0.671
853.827, 181.112
855.102, 76.638
856.376, 56.157
857.651, 234.672
858.925, 98.183
860.199, 212.688
861.473, 83.188
862.746, 9.685
864.020, 182.173
865.293, 53.343
866.566, 52.101
867.839, 98.542
869.112, 15.023
870.384, 126.393
871.656, 109.195
872.928, 4.851
874.200, 25.480
875.472, 35.806
876.744, 66.129
878.015, 42.551
879.286, 39.265
880.557, 62.992
881.828, 120.755
883.098, 72.425
884.369, 46.602
885.639, 100.224
886.909, 137.889
888.178, 33.001
889.448, 115.083
890.717, 49.166
891.987, 11.755
893.256, 182.311
894.524, 73.614
895.793, 82.417
897.061, 60.445
898.330, 92.516
899.598, 81.470
900.865, 11.454
902.133, 33.435
903.401, 117.415
904.668, 66.599
905.935, 42.349
907.202, 22.295
908.468, 13.748
909.735, 95.198
911.001, 75.857
912.267, 108.048
913.533, 35.951
914.799, 6.874
916.064, 64.795
917.330, 110.284
918.595, 108.585
919.860, 51.454
921.124, 30.678
922.389, 38.176
923.653, 17.029
924.918, 120.884
926.182, 210.738
927.445, 33.593
928.709, 254.455
929.972, 180.317
931.236, 95.179
932.499, 269.043
933.761, 189.906
935.024, 211.771
936.286, 296.638
937.549, 114.505
938.811, 406.383
940.073, 274.261
941.334, 334.142
942.596, 380.023
943.857, 286.906
945.118, 540.791
946.379, 423.678
947.640, 500.566
948.900, 870.458
950.161, 652.353
951.421, 913.248
952.681, 893.146
953.940, 978.047
955.200, 1069.949
956.459, 898.854
957.719, 1028.762
958.978, 1032.679
960.236, 966.599
961.495, 1154.521
962.753, 953.448
964.012, 1050.377
965.270, 1055.309
966.527, 951.244
967.785, 1150.183
969.043, 952.146
970.300, 1034.114
971.557, 1180.084
972.814, 962.072
974.071, 1213.062
975.327, 1107.056
976.583, 1149.064
977.840, 1362.083
979.095, 1174.106
980.351, 1266.143
981.607, 1365.190
982.862, 1159.256
984.117, 1465.343
985.372, 1370.447
986.627, 1466.601
987.882, 1676.778
989.136, 1420.987
990.390, 1612.240
991.644, 1610.454
992.898, 1380.750
994.152, 1686.961
995.405, 1473.299
996.659, 1584.679
997.912, 1541.981
999.165, 1445.417
1000.417, 1756.798
1001.670, 1546.247
1002.922, 1624.723
1004.174, 1677.519
1005.426, 1309.005
1006.678, 1426.499
1007.930, 1294.996
1009.181, 1236.500
1010.432, 1434.009
1011.683, 1090.524
1012.934, 1256.056
1014.185, 1326.417
1015.435, 1067.959
1016.685, 1218.601
1017.935, 1243.180
1019.185, 1191.764
1020.435, 1324.871
1021.684, 1061.467
1022.934, 1204.710
1024.183, 1243.495
1025.432, 1045.093
1026.680, 1185.734
1027.929, 1070.383
1029.177, 1112.941
1030.425, 1192.741
1031.673, 955.417
1032.921, 1172.156
1034.169, 991.852
1035.416, 883.554
1036.663, 1043.690
1037.911, 939.426
1039.157, 1019.844
1040.404, 1096.625
1041.650, 976.415
1042.897, 1208.248
1044.143, 1230.578
1045.389, 1124.748
1046.634, 1241.502
1047.880, 962.254
1049.125, 1127.254
1050.371, 1161.141
1051.615, 1040.023
1052.860, 1151.925
1054.105, 995.674
1055.349, 1126.514
1056.593, 1108.458
1057.837, 817.959
1059.081, 1071.092
1060.325, 945.112
1061.568, 933.722
1062.812, 1061.719
1064.055, 722.434
1065.298, 940.469
1066.540, 850.514
1067.783, 723.286
1069.025, 945.374
1070.267, 809.471
1071.509, 936.181
1072.751, 1004.293
1073.993, 819.749
1075.234, 1156.880
1076.475, 1038.018
1077.716, 1044.570
1078.957, 1283.726
1080.198, 1104.909
1081.438, 1275.096
1082.679, 1311.277
1083.919, 1284.752
1085.159, 1457.991
1086.398, 1389.236
1087.638, 1458.502
1088.877, 1623.777
1090.116, 1406.059
1091.355, 1684.354
1092.594, 1675.657
1093.833, 1542.212
1095.071, 1788.529
1096.309, 1633.853
1097.547, 1778.624
1098.785, 1795.974
1100.023, 1654.331
1101.260, 1862.825
1102.498, 1800.206
1103.735, 1788.592
1104.972, 1893.985
1106.208, 1757.385
1107.445, 1784.376
1108.681, 1847.790
1109.918, 1531.210
1111.154, 1771.841
1112.389, 1686.275
1113.625, 1477.853
1114.860, 1731.300
1116.096, 1467.751
1117.331, 1701.401
1118.566, 1657.868
1119.800, 1572.338
1121.035, 1977.603
1122.269, 1826.084
1123.503, 1804.572
1124.737, 1948.064
1125.971, 1590.564
1127.205, 1870.182
1128.438, 1703.690
1129.671, 1646.203
1130.904, 1867.024
1132.137, 1623.544
1133.370, 1691.117
1134.602, 1769.646
1135.834, 1473.177
1137.066, 1829.524
1138.298, 1531.063
1139.530, 1575.605
1140.762, 1624.982
1141.993, 1376.532
1143.224, 1551.221
1144.455, 1352.412
1145.686, 1234.965
1146.917, 1365.520
1148.147, 1097.166
1149.377, 1077.722
1150.607, 1196.406
1151.837, 920.963
1153.067, 983.621
1154.296, 961.776
1155.526, 795.336
1156.755, 978.896
1157.984, 819.732
1159.213, 627.290
1160.441, 854.544
1161.670, 471.282
1162.898, 612.836
1164.126, 588.355
1165.354, 385.922
1166.581, 680.494
1167.809, 525.348
1169.036, 350.914
1170.263, 603.733
1171.490, 310.353
1172.717, 444.946
1173.943, 506.066
1175.170, 177.652
1176.396, 446.234
1177.622, 297.791
1178.848, 291.392
1180.073, 415.525
1181.299, 207.016
1182.524, 217.637
1183.749, 243.656
1184.974, 126.354
1186.199, 297.045
1187.423, 240.769
1188.648, 62.506
1189.872, 240.009
1191.096, 63.783
1192.320, 46.811
1193.543, 184.135
1194.767, 69.000
1195.990, 187.568
1197.213, 104.045
1198.436, 43.623
1199.659, 315.274
1200.881, 45.420
1202.104, 225.116
1203.326, 173.043
1204.548, 56.681
1205.770, 346.824
1206.991, 40.544
1208.213, 14.479
1209.434, 253.094
1210.655, 85.912
1211.876, 100.592
1213.096, 211.349
1214.317, 25.743
1215.537, 340.685
1216.757, 158.521
1217.977, 40.192
1219.197, 221.594
1220.417, 0.652
1221.636, 172.029
1222.855, 191.396
1224.074, 25.617
1225.293, 142.715
1226.512, 77.036
1227.731, 80.147
1228.949, 261.445
1230.167, 35.290
1231.385, 203.296
1232.603, 337.603
1233.820, 26.583
1235.038, 279.637
1236.255, 135.852
1237.472, 198.763
1238.689, 278.969
1239.906, 50.433
1241.122, 198.627
1242.338, 348.815
1243.555, 13.095
1244.771, 294.264
1245.986, 118.428
1247.202, 91.967
1248.417, 264.117
1249.633, 188.236
1250.848, 181.560
1252.063, 356.652
1253.277, 10.833
1254.492, 274.403
1255.706, 265.469
1256.920, 82.966
1258.134, 294.014
1259.348, 101.049
1260.562, 270.417
1261.775, 350.432
1262.988, 64.565
1264.201, 258.973
1265.414, 315.936
1266.627, 24.873
1267.839, 268.033
1269.052, 215.931
1270.264, 201.280
1271.476, 369.141
1272.688, 120.957
1273.899, 247.077
1275.111, 301.871
1276.322, 79.646
1277.533, 322.388
1278.744, 143.120
1279.955, 174.826
1281.165, 356.544
1282.376, 15.190
1283.586, 191.382
1284.796, 198.953
1286.006, 16.482
1287.215, 234.613
1288.425, 131.105
1289.634, 31.551
1290.843, 361.950
1292.052, 195.336
1293.261, 146.897
1294.469, 305.228
1295.678, 36.497
1296.886, 231.787
1298.094, 148.962
1299.302, 44.115
1300.509, 224.423
1301.717, 182.537
1302.924, 109.631
1304.131, 313.700
1305.338, 11.326
1306.545, 134.612
1307.752, 245.500
1308.958, 62.647
1310.164, 404.157
1311.370, 179.942
1312.576, 112.676
1313.782, 342.365
1314.987, 16.031
1316.193, 177.667
1317.398, 392.274
1318.603, 22.148
1319.807, 250.390
1321.012, 191.898
1322.216, 3.375
1323.421, 370.813
1324.625, 65.225
1325.829, 32.601
1327.032, 296.941
1328.236, 34.747
1329.439, 176.518
1330.642, 177.751
1331.845, 77.053
1333.048, 167.084
1334.251, 9.816
1335.453, 12.241
1336.656, 221.754
1337.858, 46.744
1339.060, 128.702
1340.261, 242.727
1341.463, 44.375
1342.664, 228.473
1343.866, 171.296
1345.067, 25.908
1346.267, 276.024
1347.468, 98.755
1348.669, 42.459
1349.869, 330.634
1351.069, 3.712
1352.269, 82.870
1353.469, 161.524
1354.668, 55.900
1355.868, 169.944
1357.067, 107.768
1358.266, 73.740
1359.465, 305.470
1360.664, 84.945
1361.862, 122.361
1363.061, 290.631
1364.259, 47.023
1365.457, 243.070
1366.655, 335.791
1367.852, 52.149
1369.050, 331.081
1370.247, 185.660
1371.444, 32.972
1372.641, 265.292
1373.838, 123.136
1375.035, 40.854
1376.231, 177.410
1377.427, 27.005
1378.623, 258.328
1379.819, 231.563
1381.015, 2.764
1382.211, 313.690
1383.406, 128.388
1384.601, 206.487
1385.796, 401.415
1386.991, 17.554
1388.185, 299.753
1389.380, 297.716
1390.574, 5.570
1391.768, 343.184
1392.962, 245.291
1394.156, 145.087
1395.350, 326.696
1396.543, 92.405
1397.736, 155.953
1398.929, 357.604
1400.122, 91.870
1401.315, 339.406
1402.507, 300.997
1403.700, 118.523
1404.892, 363.000
1406.084, 249.498
1407.276, 74.923
1408.467, 419.209
1409.659, 137.310
1410.850, 246.710
1412.041, 280.972
1413.232, 90.844
1414.423, 429.209
1415.614, 264.303
1416.804, 119.332
1417.994, 438.947
1419.184, 218.148
1420.374, 240.111
1421.564, 330.987
1422.753, 192.000
1423.943, 183.750
1425.132, 439.974
1426.321, 62.461
1427.510, 378.160
1428.698, 296.768
1429.887, 43.063
1431.075, 397.043
1432.263, 283.594
1433.451, 179.649
1434.639, 532.218
1435.827, 117.171
1437.014, 240.829
1438.201, 409.260
1439.388, 143.581
1440.575, 430.075
1441.762, 465.646
1442.949, 102.186
1444.135, 507.902
1445.321, 458.418
1446.507, 225.546
1447.693, 641.587
1448.879, 350.329
1450.064, 435.397
1451.250, 582.958
1452.435, 234.273
1453.620, 464.012
1454.805, 537.977
1455.989, 235.152
1457.174, 483.374
1458.358, 293.062
1459.542, 311.729
1460.726, 590.557
1461.910, 260.264
1463.093, 338.991
1464.277, 486.974
1465.460, 235.564
1466.643, 404.701
1467.826, 482.455
1469.009, 220.603
1470.191, 439.425
1471.373, 358.188
1472.556, 136.754
1473.738, 553.701
1474.919, 212.469
1476.101, 219.175
1477.283, 407.924
1478.464, 265.933
1479.645, 274.673
1480.826, 493.391
1482.007, 111.657
1483.187, 430.405
1484.368, 309.332
1485.548, 118.582
1486.728, 437.968
1487.908, 147.381
1489.088, 277.050
1490.268, 366.716
1491.447, 56.425
1492.626, 246.201
1493.805, 436.074
1494.984, 16.092
1496.163, 456.232
1497.341, 326.557
1498.520, 2.861
1499.698, 417.990
1500.876, 199.100
1502.054, 60.519
1503.232, 522.248
1504.409, 204.293
1505.586, 86.684
1506.763, 449.021
1507.940, 0.143
1509.117, 313.417
1510.294, 393.186
1511.470, 36.735
1512.647, 451.468
1513.823, 426.841
1514.999, 53.859
1516.174, 421.471
1517.350, 64.447
1518.526, 0.983
1519.701, 0.000
##END=



