##NAMES=Painite
##RRUFFID=R060957
##IDEAL CHEMISTRY=CaZr^4+^Al_9_O_15_(BO_3_)
##LOCALITY=Ohngaing Village, Mogok, Burma
##OWNER=RRUFF
##SOURCE=Marcus Origlieri
##DESCRIPTION=Single crystal, reddish-brown to orangish prism section, several prism forms, small transparent areas.
##STATUS=The identification of this mineral has been confirmed by X-ray diffraction.
##URL=rruff.info/R060957
##PIN_ID=M01225
##ORIENTATION=Laser parallel to -a* (-1 0 0). Fiducial mark perpendicular to laser is parallel to c [0 0 1]
163.0300, 0.0000000E+00
164.2600, 194.9766
165.4900, 6.194336
166.7200, 112.2002
167.9500, 346.8350
169.1790, 593.4463
170.4080, 981.2617
171.6380, 1469.224
172.8670, 2007.107
174.0950, 2203.850
175.3240, 2652.534
176.5520, 3322.996
177.7810, 4242.080
179.0090, 5439.132
180.2370, 6740.570
181.4640, 7961.635
182.6920, 8507.931
183.9190, 8290.218
185.1460, 6804.183
186.3730, 4781.979
187.6000, 3055.053
188.8270, 1727.338
190.0530, 947.2432
191.2800, 572.1484
192.5060, 326.2949
193.7320, 234.8545
194.9580, 200.0156
196.1830, 4.029297
197.4090, 178.9150
198.6340, 145.9590
199.8590, 24.19531
201.0840, 118.7109
202.3090, 239.4033
203.5340, 390.9736
204.7580, 458.5869
205.9820, 639.2217
207.2060, 697.3604
208.4300, 784.0479
209.6540, 1111.703
210.8780, 1505.473
212.1010, 1803.984
213.3240, 2232.631
214.5470, 2640.403
215.7700, 3073.299
216.9930, 3859.645
218.2150, 4373.760
219.4380, 5139.499
220.6600, 5635.787
221.8820, 5932.159
223.1040, 5792.592
224.3260, 5274.082
225.5470, 4494.629
226.7680, 3720.238
227.9900, 2863.150
229.2110, 2338.867
230.4310, 1823.870
231.6520, 1197.883
232.8720, 913.9111
234.0930, 824.9609
235.3130, 609.0371
236.5330, 413.1641
237.7530, 458.4014
238.9720, 184.7598
240.1920, 172.2402
241.4110, 9.157227
242.6300, 40.43848
243.8490, 8.610352
245.0680, 88.78223
246.2860, 21.55371
247.5040, 26.53320
248.7230, 126.4736
249.9410, 182.3350
251.1590, 87.12305
252.3760, 19.84277
253.5940, 108.5146
254.8110, 95.12793
256.0280, 85.68555
257.2450, 30.19043
258.4620, 133.3408
259.6790, 195.8945
260.8950, 245.4648
262.1120, 255.0566
263.3280, 226.6689
264.5440, 197.3047
265.7600, 202.9658
266.9750, 216.6533
268.1910, 212.3701
269.4060, 53.11816
270.6210, 217.8994
271.8360, 206.7139
273.0510, 65.56348
274.2650, 187.4492
275.4800, 15.34473
276.6940, 221.1416
277.9080, 208.8135
279.1220, 204.3721
280.3360, 337.7031
281.5490, 514.9365
282.7630, 489.0391
283.9760, 553.1172
285.1890, 604.2783
286.4020, 787.5215
287.6150, 724.8506
288.8270, 660.2656
290.0400, 502.7617
291.2520, 610.5312
292.4640, 642.3018
293.6760, 593.1680
294.8870, 613.3516
296.0990, 765.9639
297.3100, 958.3926
298.5210, 1036.915
299.7320, 1279.525
300.9430, 1453.228
302.1540, 1709.017
303.3640, 2014.891
304.5750, 2342.850
305.7850, 2904.892
306.9950, 3091.020
308.2050, 3316.234
309.4140, 3376.932
310.6240, 3247.699
311.8330, 2792.470
313.0420, 2261.630
314.2510, 1833.895
315.4600, 1447.230
316.6680, 1078.992
317.8770, 927.0195
319.0850, 554.4355
320.2930, 364.8535
321.5010, 322.2598
322.7090, 95.64551
323.9160, 76.00684
325.1240, 11.65430
326.3310, 28.60840
327.5380, 59.16309
328.7450, 5.967773
329.9520, 2.810547
331.1580, 46.28418
332.3650, 31.30273
333.5710, 36.25000
334.7770, 111.1377
335.9830, 226.9746
337.1880, 430.7734
338.3940, 255.5381
339.5990, 244.2764
340.8040, 555.9971
342.0090, 658.6377
343.2140, 1066.335
344.4190, 1279.028
345.6230, 1529.259
346.8280, 1726.954
348.0320, 2101.568
349.2360, 2289.008
350.4400, 2623.227
351.6430, 2669.209
352.8470, 2865.874
354.0500, 2691.370
355.2530, 2314.670
356.4560, 2013.959
357.6590, 1517.304
358.8620, 1066.707
360.0640, 953.1670
361.2660, 762.6836
362.4680, 550.2529
363.6700, 648.8789
364.8720, 498.5508
366.0740, 492.2783
367.2750, 777.0635
368.4760, 722.9043
369.6770, 799.8008
370.8780, 919.7539
372.0790, 1158.762
373.2800, 1333.826
374.4800, 1668.942
375.6800, 1924.110
376.8800, 2080.327
378.0800, 2341.596
379.2800, 2759.915
380.4790, 3072.287
381.6790, 3286.711
382.8780, 3220.186
384.0770, 2923.711
385.2760, 2831.289
386.4750, 2482.800
387.6730, 2414.544
388.8720, 2484.482
390.0700, 2637.502
391.2680, 2976.133
392.4660, 3398.601
393.6630, 4012.518
394.8610, 4605.176
396.0580, 5439.047
397.2550, 6325.434
398.4520, 6870.531
399.6490, 7216.728
400.8460, 6961.785
402.0420, 5817.576
403.2390, 4874.467
404.4350, 3738.447
405.6310, 2603.536
406.8270, 1831.743
408.0220, 1348.062
409.2180, 860.4756
410.4130, 655.9453
411.6080, 525.4805
412.8030, 266.0752
413.9980, 188.6006
415.1920, 37.30469
416.3870, 0.9365230
417.5810, 180.1250
418.7750, 125.2842
419.9690, 191.9932
421.1630, 280.0859
422.3570, 264.1660
423.5500, 217.2324
424.7430, 354.2725
425.9360, 93.31543
427.1290, 28.69141
428.3220, 220.7578
429.5150, 534.8828
430.7070, 754.0684
431.8990, 889.3145
433.0910, 1537.618
434.2830, 1728.981
435.4750, 2309.373
436.6670, 2471.776
437.8580, 2505.144
439.0490, 2582.469
440.2400, 2018.842
441.4310, 1960.277
442.6220, 1609.771
443.8130, 1503.327
445.0030, 1492.944
446.1930, 1658.620
447.3830, 1741.356
448.5730, 1980.152
449.7630, 1943.008
450.9520, 1842.923
452.1420, 1590.898
453.3310, 1635.923
454.5200, 1442.994
455.7090, 1698.117
456.8980, 2093.288
458.0860, 2439.505
459.2740, 3112.770
460.4630, 3665.080
461.6510, 4606.439
462.8380, 5448.845
464.0260, 6485.299
465.2140, 7582.799
466.4010, 8620.349
467.5880, 9782.947
468.7750, 10011.52
469.9620, 9426.216
471.1490, 8803.568
472.3350, 7510.611
473.5220, 6811.855
474.7080, 5938.752
475.8940, 5323.699
477.0800, 4886.699
478.2650, 4461.750
479.4510, 3864.855
480.6360, 3288.012
481.8210, 2914.225
483.0060, 2451.490
484.1910, 1913.809
485.3760, 1489.188
486.5600, 1430.622
487.7440, 1113.111
488.9290, 1178.657
490.1130, 1036.259
491.2960, 1082.917
492.4800, 1174.632
493.6630, 1008.404
494.8470, 991.2354
496.0300, 808.1279
497.2130, 639.0820
498.3960, 465.0986
499.5780, 324.1787
500.7610, 304.3213
501.9430, 167.5273
503.1250, 100.7959
504.3070, 118.1279
505.4890, 224.5225
506.6710, 216.9805
507.8520, 200.5010
509.0330, 406.0840
510.2140, 391.7305
511.3950, 501.4404
512.5760, 463.2129
513.7570, 525.0479
514.9370, 648.9463
516.1170, 764.9062
517.2980, 947.9297
518.4780, 1054.016
519.6570, 1328.166
520.8370, 1651.377
522.0160, 2075.651
523.1960, 2435.989
524.3750, 2901.531
525.5540, 3396.854
526.7320, 3910.381
527.9110, 4557.973
529.0890, 5177.648
530.2680, 5663.420
531.4460, 6024.277
532.6240, 6540.239
533.8010, 7115.287
534.9790, 7920.771
536.1560, 8439.766
537.3340, 9169.910
538.5110, 9785.626
539.6880, 9904.663
540.8650, 9640.342
542.0410, 8546.225
543.2180, 7420.634
544.3940, 6393.443
545.5700, 4883.535
546.7460, 3947.435
547.9220, 3028.144
549.0970, 2185.562
550.2730, 1801.233
551.4480, 1405.643
552.6230, 1034.898
553.7980, 1065.259
554.9730, 764.6807
556.1470, 667.1533
557.3210, 649.6777
558.4960, 534.1768
559.6700, 446.4150
560.8440, 599.8955
562.0170, 837.7598
563.1910, 864.5615
564.3640, 940.2305
565.5380, 1396.147
566.7110, 1731.433
567.8840, 2025.353
569.0560, 2433.417
570.2290, 2561.473
571.4010, 3144.609
572.5740, 3275.797
573.7460, 3602.034
574.9180, 3610.323
576.0890, 3648.660
577.2610, 3338.049
578.4320, 3318.488
579.6040, 3385.977
580.7750, 3419.517
581.9450, 3613.106
583.1160, 4047.746
584.2870, 4361.438
585.4570, 4919.176
586.6270, 5422.966
587.7980, 6068.805
588.9670, 6553.693
590.1370, 6875.631
591.3070, 6961.617
592.4760, 6731.653
593.6450, 6266.734
594.8140, 5499.865
595.9830, 4668.046
597.1520, 3929.273
598.3210, 3079.549
599.4890, 2574.871
600.6570, 1951.240
601.8250, 1720.657
602.9930, 1253.121
604.1610, 1167.633
605.3290, 983.1895
606.4960, 765.7939
607.6630, 770.4434
608.8300, 752.1406
609.9970, 817.8887
611.1640, 807.6836
612.3300, 912.4297
613.4970, 1023.447
614.6630, 1153.403
615.8290, 1380.406
616.9950, 1557.451
618.1610, 1905.542
619.3260, 1815.677
620.4920, 2010.855
621.6570, 1985.078
622.8220, 1984.344
623.9870, 1799.654
625.1520, 1720.008
626.3160, 1482.406
627.4810, 1304.848
628.6450, 1215.331
629.8090, 1040.856
630.9730, 909.4277
632.1370, 801.0459
633.3000, 739.7676
634.4640, 792.4141
635.6270, 775.1611
636.7900, 933.9541
637.9530, 1169.789
639.1160, 1268.667
640.2780, 1370.591
641.4410, 1703.559
642.6030, 1887.566
643.7650, 2327.629
644.9270, 2757.731
646.0890, 3041.876
647.2500, 3547.105
648.4120, 3850.390
649.5730, 4287.715
650.7340, 4377.082
651.8950, 4619.505
653.0560, 4599.965
654.2160, 4438.472
655.3770, 4159.018
656.5370, 3575.617
657.6970, 3237.261
658.8570, 2540.973
660.0170, 2202.750
661.1760, 1727.588
662.3360, 1443.492
663.4950, 1207.462
664.6540, 826.4912
665.8130, 715.5879
666.9720, 507.7490
668.1310, 282.9668
669.2890, 470.2314
670.4470, 103.5576
671.6050, 79.92871
672.7630, 67.33789
673.9210, 86.21289
675.0790, 202.7598
676.2360, 165.3672
677.3930, 380.0146
678.5510, 331.8027
679.7080, 254.7158
680.8640, 306.7129
682.0210, 210.8262
683.1770, 335.0088
684.3340, 129.3379
685.4900, 196.7109
686.6460, 243.1436
687.8020, 219.6436
688.9570, 134.2295
690.1130, 32.13281
691.2680, 10.48633
692.4230, 8.903320
693.5780, 177.3018
694.7330, 230.7236
695.8880, 355.1680
697.0420, 389.6328
698.1960, 632.1201
699.3510, 608.6523
700.5040, 715.2217
701.6580, 967.8379
702.8120, 1123.520
703.9650, 1408.262
705.1190, 1619.055
706.2720, 1866.928
707.4250, 2071.830
708.5780, 2500.751
709.7300, 2949.690
710.8830, 3432.647
712.0350, 4032.621
713.1870, 4659.612
714.3390, 5476.619
715.4910, 6103.643
716.6430, 6774.684
717.7940, 7441.740
718.9460, 7763.810
720.0970, 7845.896
721.2480, 7755.996
722.3990, 7284.111
723.5500, 6648.241
724.7000, 6197.383
725.8500, 5480.539
727.0010, 4662.709
728.1510, 4214.891
729.3010, 3657.086
730.4500, 3400.292
731.6000, 2941.511
732.7490, 2747.740
733.8980, 2361.980
735.0470, 2297.232
736.1960, 2397.494
737.3450, 2173.766
738.4940, 2216.048
739.6420, 2198.338
740.7900, 2081.639
741.9380, 2221.948
743.0860, 2155.266
744.2340, 2355.591
745.3810, 2397.604
746.5290, 2315.264
747.6760, 2576.613
748.8230, 2544.965
749.9700, 2641.327
751.1170, 2817.693
752.2630, 2891.068
753.4100, 2961.450
754.5560, 3095.837
755.7020, 3113.232
756.8480, 3246.635
757.9940, 3382.691
759.1390, 3538.455
760.2850, 3711.881
761.4300, 3859.314
762.5750, 4064.262
763.7200, 4224.389
764.8650, 4586.834
766.0100, 4910.281
767.1540, 5171.747
768.2980, 5424.088
769.4420, 5625.243
770.5860, 6091.463
771.7300, 6270.135
772.8740, 6637.897
774.0170, 7065.189
775.1610, 7416.145
776.3040, 8267.985
777.4470, 8791.608
778.5900, 9425.174
779.7320, 10245.62
780.8750, 11353.22
782.0170, 12073.30
783.1590, 13328.60
784.3010, 14244.56
785.4430, 15324.38
786.5850, 16785.83
787.7260, 17608.00
788.8680, 18545.20
790.0090, 19314.54
791.1500, 19936.51
792.2910, 19704.89
793.4310, 19567.13
794.5720, 19525.11
795.7120, 19375.61
796.8520, 17970.45
797.9920, 17353.01
799.1320, 16625.63
800.2720, 15694.17
801.4120, 14942.37
802.5510, 14228.32
803.6900, 13685.34
804.8290, 12840.52
805.9680, 12339.26
807.1070, 11817.40
808.2450, 11168.40
809.3840, 10594.29
810.5220, 10072.09
811.6600, 9728.426
812.7980, 9347.622
813.9360, 8942.881
815.0730, 8371.696
816.2110, 8074.665
817.3480, 7654.621
818.4850, 7049.127
819.6220, 6475.035
820.7590, 6106.387
821.8960, 5536.735
823.0320, 5055.881
824.1680, 4415.384
825.3040, 4172.124
826.4400, 3735.225
827.5760, 3595.624
828.7120, 3376.248
829.8470, 3090.471
830.9830, 3036.653
832.1180, 2878.530
833.2530, 2793.393
834.3880, 2898.239
835.5220, 2781.071
836.6570, 2814.887
837.7910, 2893.688
838.9250, 2795.470
840.0590, 2869.237
841.1930, 3006.986
842.3270, 2972.719
843.4600, 3004.432
844.5940, 3044.128
845.7270, 3169.805
846.8600, 3036.462
847.9930, 2921.101
849.1250, 3002.721
850.2580, 3056.320
851.3900, 2777.900
852.5230, 2481.460
853.6550, 2351.000
854.7870, 2267.520
855.9180, 2099.019
857.0500, 1849.497
858.1810, 1777.954
859.3130, 1608.389
860.4440, 1389.804
861.5750, 1360.197
862.7050, 1218.568
863.8360, 1229.916
864.9660, 971.2432
866.0970, 929.5479
867.2270, 846.8291
868.3570, 725.0879
869.4870, 681.1250
870.6160, 659.5381
871.7460, 544.7285
872.8750, 533.8955
874.0040, 466.0381
875.1330, 525.1582
876.2620, 434.2539
877.3910, 393.3242
878.5190, 343.3721
879.6470, 304.9141
880.7760, 343.3926
881.9040, 294.3652
883.0310, 299.3135
884.1590, 380.2373
885.2870, 275.1357
886.4140, 349.0078
887.5410, 224.0674
888.6680, 202.4756
889.7950, 161.5996
890.9220, 164.1094
892.0480, 201.3848
893.1750, 227.3789
894.3010, 256.3887
895.4270, 211.5264
896.5530, 245.7119
897.6790, 149.0967
898.8040, 89.67676
899.9300, 124.5488
901.0550, 134.7588
902.1800, 125.4844
903.3050, 42.37793
904.4300, 54.16602
905.5540, 51.67285
906.6790, 99.32129
907.8030, 89.64648
908.9270, 50.03320
910.0510, 74.28809
911.1750, 84.50879
912.2990, 34.69629
913.4220, 38.10449
914.5450, 164.9502
915.6690, 9.972656
916.7920, 69.04395
917.9140, 55.02441
919.0370, 127.0332
920.1600, 13.21191
921.2820, 46.54590
922.4040, 64.26465
923.5260, 19.05566
924.6480, 53.55957
925.7700, 23.13574
926.8910, 51.66504
928.0130, 19.84570
929.1340, 22.57812
930.2550, 88.04492
931.3760, 61.76660
932.4970, 57.57715
933.6170, 74.47461
934.7380, 73.51270
935.8580, 52.55566
936.9780, 80.72754
938.0980, 81.99902
939.2180, 37.36816
940.3370, 14.81445
941.4570, 69.32324
942.5760, 3.926758
943.6950, 19.41406
944.8140, 1.945313
945.9330, 48.05566
947.0520, 20.87305
948.1700, 38.70508
949.2890, 55.56543
950.4070, 30.41309
951.5250, 39.24707
952.6430, 34.08789
953.7600, 15.92188
954.8780, 41.24121
955.9950, 28.45020
957.1120, 41.33984
958.2290, 107.1514
959.3460, 5.992188
960.4630, 87.14355
961.5800, 88.29785
962.6960, 19.41797
963.8120, 124.5039
964.9280, 127.5645
966.0440, 256.6016
967.1600, 302.6084
968.2760, 356.5830
969.3910, 429.5264
970.5060, 429.4404
971.6210, 459.3223
972.7360, 490.1748
973.8510, 770.0059
974.9660, 892.8066
976.0800, 989.5791
977.1950, 1289.321
978.3090, 1487.032
979.4230, 1905.713
980.5370, 2641.363
981.6500, 3385.984
982.7640, 4447.576
983.8770, 5647.138
984.9900, 7181.670
986.1030, 8704.168
987.2160, 10398.64
988.3290, 11700.08
989.4420, 12594.48
990.5540, 12622.86
991.6660, 11612.21
992.7780, 9886.538
993.8900, 7903.840
995.0020, 6186.116
996.1140, 4739.368
997.2250, 3536.590
998.3360, 2815.793
999.4470, 2166.965
1000.558, 1662.109
1001.669, 1565.223
1002.780, 1267.336
1003.890, 986.4189
1005.001, 776.4736
1006.111, 781.4971
1007.221, 549.4922
1008.331, 605.4570
1009.440, 518.4004
1010.550, 438.3145
1011.659, 428.1982
1012.768, 311.0566
1013.877, 258.8857
1014.986, 277.6855
1016.095, 236.4570
1017.204, 234.1982
1018.312, 279.9121
1019.420, 214.5977
1020.528, 159.2539
1021.636, 94.87988
1022.744, 131.4727
1023.852, 76.03516
1024.959, 100.5615
1026.066, 143.0557
1027.173, 132.5195
1028.280, 4.046875
1029.387, 97.33496
1030.494, 69.68652
1031.600, 209.0020
1032.707, 131.0947
1033.813, 79.35156
1034.919, 151.5771
1036.025, 109.7578
1037.130, 120.0371
1038.236, 21.47461
1039.341, 253.8135
1040.446, 247.6738
1041.552, 181.4150
1042.656, 386.6016
1043.761, 466.0977
1044.866, 362.6816
1045.970, 383.4521
1047.074, 417.2549
1048.179, 553.1426
1049.282, 443.8604
1050.386, 472.0605
1051.490, 434.0215
1052.593, 406.2852
1053.697, 615.6611
1054.800, 428.3760
1055.903, 429.3418
1057.006, 570.2627
1058.108, 448.9971
1059.211, 627.0693
1060.313, 586.7100
1061.415, 519.4717
1062.517, 469.4434
1063.619, 460.5537
1064.721, 460.6123
1065.823, 605.9141
1066.924, 518.1367
1068.025, 566.4033
1069.126, 477.9736
1070.227, 427.7627
1071.328, 563.4629
1072.429, 512.9590
1073.529, 477.8652
1074.629, 394.3457
1075.729, 323.9297
1076.829, 322.5967
1077.929, 371.3047
1079.029, 390.1191
1080.128, 477.6396
1081.228, 339.0439
1082.327, 500.3887
1083.426, 449.3125
1084.525, 354.6787
1085.623, 390.3643
1086.722, 439.9570
1087.820, 444.9854
1088.919, 440.4219
1090.017, 521.6211
1091.115, 341.6777
1092.212, 333.8135
1093.310, 397.3584
1094.407, 346.8975
1095.505, 442.4961
1096.602, 374.3066
1097.699, 278.4102
1098.795, 323.5029
1099.892, 391.5840
1100.989, 458.6533
1102.085, 363.7109
1103.181, 241.7559
1104.277, 333.9170
1105.373, 365.0996
1106.469, 359.1514
1107.564, 338.7246
1108.660, 381.7646
1109.755, 330.7441
1110.850, 385.7129
1111.945, 203.6709
1113.040, 215.1582
1114.134, 359.0967
1115.229, 278.0244
1116.323, 413.9424
1117.417, 320.8506
1118.511, 296.7510
1119.605, 262.6406
1120.698, 287.5225
1121.792, 259.3955
1122.885, 259.6787
1123.978, 307.2773
1125.071, 269.1230
1126.164, 331.0996
1127.257, 366.3066
1128.349, 240.1270
1129.442, 290.2168
1130.534, 304.0215
1131.626, 273.9990
1132.718, 346.7881
1133.810, 247.1875
1134.901, 248.9600
1135.993, 194.7256
1137.084, 338.4834
1138.175, 350.2334
1139.266, 270.9775
1140.357, 357.3652
1141.448, 213.0947
1142.538, 152.8164
1143.628, 328.9150
1144.719, 247.6240
1145.809, 329.3262
1146.898, 241.0234
1147.988, 325.7129
1149.078, 89.39941
1150.167, 255.0781
1151.256, 139.7510
1152.345, 177.2061
1153.434, 280.2812
1154.523, 247.6113
1155.612, 160.5234
1156.700, 270.6387
1157.788, 278.0039
1158.877, 313.3242
1159.964, 320.2939
1161.052, 254.5674
1162.140, 267.4170
1163.227, 189.0430
1164.315, 108.3447
1165.402, 229.2773
1166.489, 180.6611
1167.576, 165.8525
1168.663, 207.1113
1169.749, 141.3262
1170.836, 166.7090
1171.922, 80.57324
1173.008, 180.1006
1174.094, 145.7295
1175.180, 166.3652
1176.265, 236.0010
1177.351, 252.6406
1178.436, 190.2852
1179.521, 93.92871
1180.606, 251.5859
1181.691, 167.2471
1182.776, 166.9131
1183.860, 302.6270
1184.944, 112.3584
1186.029, 239.0947
1187.113, 187.8350
1188.197, 40.59180
1189.280, 215.3545
1190.364, 30.12500
1191.447, 118.9004
1192.531, 135.6953
1193.614, 25.50098
1194.697, 56.33301
1195.779, 175.1973
1196.862, 208.0898
1197.945, 153.0166
1199.027, 197.8350
1200.109, 103.0010
1201.191, 171.0430
1202.273, 75.12012
1203.355, 61.22266
1204.436, 135.3428
1205.518, 21.49609
1206.599, 22.66504
1207.680, 83.84375
1208.761, 147.0371
1209.842, 143.8291
1210.922, 79.50000
1212.003, 148.7666
1213.083, 93.06152
1214.163, 60.37988
1215.243, 53.72363
1216.323, 25.90918
1217.402, 75.46875
1218.482, 46.14453
1219.561, 130.2373
1220.641, 141.6445
1221.720, 47.09570
1222.798, 252.5596
1223.877, 15.02930
1224.956, 4.492188
1226.034, 41.99414
1227.112, 57.51367
1228.191, 57.96289
1229.269, 19.44336
1230.346, 4.928711
1231.424, 23.41797
1232.501, 66.91211
1233.579, 4.588867
1234.656, 54.08691
1235.733, 0.6015630
1236.810, 18.11133
1237.886, 0.9833980
1238.963, 20.87012
1240.039, 7.367188
1241.116, 47.86914
1242.192, 16.61523
1243.268, 46.89941
1244.343, 13.41992
1245.419, 20.94434
1246.494, 121.4746
1247.570, 185.0098
1248.645, 95.55273
1249.720, 67.09766
1250.795, 81.65039
1251.869, 46.20801
1252.944, 70.22852
1254.018, 87.31250
1255.093, 30.14160
1256.167, 35.60059
1257.240, 77.93359
1258.314, 53.52539
1259.388, 133.0000
1260.461, 4.468750
1261.535, 188.0654
1262.608, 124.3936
1263.681, 5.095703
1264.753, 110.5918
1265.826, 24.09375
1266.899, 11.60254
1267.971, 118.1182
1269.043, 40.34473
1270.115, 39.16895
1271.187, 88.68945
1272.259, 9.780273
1273.330, 108.7520
1274.402, 106.0029
1275.473, 79.88965
1276.544, 174.3926
1277.615, 80.95312
1278.686, 77.51953
1279.756, 154.0938
1280.827, 168.6914
1281.897, 163.2959
1282.967, 334.9102
1284.037, 330.2324
1285.107, 232.1650
1286.177, 411.8066
1287.247, 366.4580
1288.316, 341.1162
1289.385, 541.7949
1290.454, 414.4824
1291.523, 460.1807
1292.592, 489.8848
1293.661, 656.5986
1294.729, 589.3232
1295.797, 689.6934
1296.866, 641.4355
1297.934, 626.1865
1299.001, 751.9492
1300.069, 820.7197
1301.137, 804.4961
1302.204, 850.9912
1303.271, 860.9648
1304.338, 956.7617
1305.405, 834.5645
1306.472, 877.3740
1307.539, 863.1885
1308.605, 1101.011
1309.671, 1057.841
1310.737, 1220.678
1311.803, 1553.591
1312.869, 1638.438
1313.935, 1884.290
1315.000, 1999.148
1316.066, 2086.017
1317.131, 2179.889
1318.196, 2191.770
1319.261, 2016.655
1320.326, 1932.550
1321.390, 1725.522
1322.455, 1569.750
1323.519, 1498.662
1324.583, 1289.582
1325.647, 1169.508
1326.711, 1137.570
1327.775, 1177.509
1328.838, 1069.452
1329.902, 988.4014
1330.965, 945.3555
1332.028, 864.3164
1333.091, 918.2812
1334.153, 710.2520
1335.216, 777.2295
1336.279, 484.2109
1337.341, 620.1982
1338.403, 550.1914
1339.465, 473.1885
1340.527, 431.1904
1341.588, 480.1982
1342.650, 429.2109
1343.711, 487.2295
1344.772, 465.0898
1345.834, 400.5078
1346.894, 411.8779
1347.955, 386.9150
1349.016, 294.9570
1350.076, 410.0049
1351.136, 328.0576
1352.197, 248.1152
1353.257, 326.0684
1354.316, 441.1357
1355.376, 446.9199
1356.436, 483.3682
1357.495, 475.5732
1358.554, 470.1729
1359.613, 430.4424
1360.672, 395.5430
1361.731, 425.5225
1362.789, 377.4746
1363.848, 492.5527
1364.906, 434.1016
1365.964, 467.1816
1367.022, 336.3164
1368.080, 444.5273
1369.138, 496.2930
1370.195, 435.9004
1371.253, 350.2432
1372.310, 339.6846
1373.367, 334.5635
1374.424, 252.7158
1375.480, 249.9160
1376.537, 241.1357
1377.593, 270.3301
1378.650, 229.8457
1379.706, 316.6680
1380.762, 177.6797
1381.818, 177.8623
1382.873, 188.9141
1383.929, 102.6904
1384.984, 106.8516
1386.039, 138.7393
1387.094, 191.9111
1388.149, 180.2471
1389.204, 88.09180
1390.259, 185.6621
1391.313, 84.85742
1392.367, 109.0576
1393.422, 78.62988
1394.476, 87.87012
1395.529, 1.089844
1396.583, 70.66211
1397.637, 42.89355
1398.690, 13.04883
1399.743, 82.90723
1400.796, 116.1533
1401.849, 83.40723
1402.902, 32.66602
1403.954, 153.9277
1405.007, 63.16992
1406.059, 143.4990
1407.111, 91.60645
1408.163, 24.85938
1409.215, 122.1172
1410.267, 46.40430
1411.318, 59.67285
1412.370, 149.9482
1413.421, 95.36523
1414.472, 194.6543
1415.523, 141.9492
1416.574, 131.2412
1417.624, 105.5410
1418.675, 13.84570
1419.725, 53.13086
1420.775, 82.42090
1421.825, 13.25195
1422.875, 40.14844
1423.925, 30.31543
1424.974, 122.4775
1426.024, 54.63574
1427.073, 47.77930
1428.122, 14.08594
1429.171, 22.96680
1430.220, 47.13086
1431.268, 103.2002
1432.317, 123.2627
1433.365, 162.3174
1434.413, 57.36426
1435.461, 69.13672
1436.509, 70.18457
1437.557, 20.00000
1438.605, 23.57910
1439.652, 6.891602
1440.699, 111.2100
1441.746, 118.5332
1442.793, 62.86328
1443.840, 61.20020
1444.887, 10.54590
1445.933, 15.87793
1446.980, 1.335938
1448.026, 122.5186
1449.072, 14.84668
1450.118, 78.17871
1451.163, 143.5146
1452.209, 66.14551
1453.254, 72.19824
1454.300, 216.5469
1455.345, 185.9072
1456.390, 62.28906
1457.435, 102.6768
1458.479, 172.0664
1459.524, 172.4629
1460.568, 215.8887
1461.612, 97.31738
1462.656, 109.7500
1463.700, 223.2012
1464.744, 194.6729
1465.788, 272.1543
1466.831, 189.6299
1467.874, 327.1074
1468.918, 280.5869
1469.961, 307.0703
1471.003, 322.2773
1472.046, 118.0498
1473.089, 257.5850
1474.131, 236.1494
1475.173, 112.7422
1476.215, 192.3604
1477.257, 75.02637
1478.299, 151.7441
1479.341, 128.4658
1480.382, 118.1875
1481.424, 134.9443
1482.465, 223.7100
1483.506, 102.4863
1484.547, 7.273438
1485.587, 73.04395
1486.628, 130.7988
1487.668, 84.56152
1488.709, 118.3340
1489.749, 159.1152
1490.789, 155.9072
1491.828, 129.7080
1492.868, 31.39258
1493.908, 14.80176
1494.947, 77.02051
1495.986, 13.54297
1497.025, 43.73047
1498.064, 74.97070
1499.103, 65.80957
1500.141, 44.65820
1501.180, 38.38379
1502.218, 47.32715
1503.256, 60.20215
1504.294, 68.01270
1505.332, 115.7637
1506.370, 108.6826
1507.407, 143.6191
1508.445, 133.4893
1509.482, 125.6377
1510.519, 116.7578
1511.556, 110.5703
1512.593, 78.39160
1513.629, 90.22266
1514.666, 75.06348
1515.702, 131.9131
1516.738, 73.77441
1517.774, 11.64453
1518.810, 59.52441
1519.846, 113.4111
1520.882, 122.2988
1521.917, 158.1875
1522.952, 7.5195000E-02
1523.987, 106.4062
1525.022, 216.2725
1526.057, 82.13574
1527.092, 160.9932
1528.126, 125.5918
1529.161, 189.4932
1530.195, 54.39258
1531.229, 45.85156
1532.263, 86.49512
1533.297, 311.1436
1534.330, 73.90625
1535.364, 213.6504
1536.397, 218.7451
1537.430, 51.84863
1538.463, 211.9619
1539.496, 241.0830
1540.529, 210.1855
1541.561, 188.0664
1542.594, 257.0879
1543.626, 170.1885
1544.658, 215.8965
1545.690, 84.57031
1546.722, 68.99316
1547.753, 210.2832
1548.785, 107.8477
1549.816, 219.2324
1550.847, 204.7061
1551.878, 162.8760
1552.909, 259.3037
1553.940, 254.3418
1554.971, 114.8760
1556.001, 117.4326
1557.031, 61.47070
1558.062, 125.0879
1559.092, 1.601563
1560.121, 78.90332
1561.151, 31.91016
1562.181, 0.0000000E+00
##END=



