##NAMES=Painite
##RRUFFID=R060957
##IDEAL CHEMISTRY=CaZr^4+^Al_9_O_15_(BO_3_)
##LOCALITY=Ohngaing Village, Mogok, Burma
##OWNER=RRUFF
##SOURCE=Marcus Origlieri
##DESCRIPTION=Single crystal, reddish-brown to orangish prism section, several prism forms, small transparent areas.
##STATUS=The identification of this mineral has been confirmed by X-ray diffraction.
##URL=rruff.info/R060957
##PIN_ID=M01433
##ORIENTATION=Laser parallel to c* (0 0 1). Fiducial mark perpendicular to laser is parallel to a [1 0 0]
163.0300, 0.0000000E+00
164.2600, 101.9941
165.4900, 8.970703
166.7200, 46.93750
167.9500, 260.2852
169.1790, 550.6211
170.4080, 930.4219
171.6380, 1522.275
172.8670, 2280.035
174.0950, 3068.422
175.3240, 3766.430
176.5520, 4811.611
177.7810, 6682.578
179.0090, 9402.926
180.2370, 13067.84
181.4640, 16477.18
182.6920, 17021.19
183.9190, 13125.32
185.1460, 8740.191
186.3730, 5610.320
187.6000, 3805.770
188.8270, 2276.910
190.0530, 1177.473
191.2800, 712.4141
192.5060, 532.8535
193.7320, 311.2188
194.9580, 399.8691
196.1830, 285.1387
197.4090, 161.3633
198.6340, 384.7578
199.8590, 383.2930
201.0840, 326.5430
202.3090, 637.1016
203.5340, 970.7070
204.7580, 945.3926
205.9820, 1428.098
207.2060, 1630.488
208.4300, 2052.449
209.6540, 2229.520
210.8780, 2339.674
212.1010, 2688.271
213.3240, 3327.035
214.5470, 3718.955
215.7700, 4438.035
216.9930, 5574.260
218.2150, 6778.945
219.4380, 8110.324
220.6600, 8809.828
221.8820, 8517.432
223.1040, 7383.104
224.3260, 6038.838
225.5470, 4716.635
226.7680, 3579.504
227.9900, 2604.607
229.2110, 2204.729
230.4310, 1634.166
231.6520, 1149.631
232.8720, 857.1406
234.0930, 774.7012
235.3130, 364.3223
236.5330, 192.0469
237.7530, 380.9863
238.9720, 266.1680
240.1920, 83.59180
241.4110, 18.25977
242.6300, 143.8438
243.8490, 244.6211
245.0680, 25.27344
246.2860, 4.582031
247.5040, 33.01367
248.7230, 76.94531
249.9410, 139.9277
251.1590, 387.4980
252.3760, 259.9258
253.5940, 107.7852
254.8110, 9.375000
256.0280, 123.4082
257.2450, 196.3477
258.4620, 295.7891
259.6790, 415.9766
260.8950, 942.2051
262.1120, 336.4746
263.3280, 270.7871
264.5440, 397.1426
265.7600, 499.5508
266.9750, 351.0098
268.1910, 429.5254
269.4060, 412.1016
270.6210, 527.7363
271.8360, 32.43555
273.0510, 140.1875
274.2650, 143.9922
275.4800, 329.7676
276.6940, 276.2520
277.9080, 347.5371
279.1220, 413.6719
280.3360, 592.4668
281.5490, 598.9375
282.7630, 969.3496
283.9760, 916.6191
285.1890, 886.0371
286.4020, 1244.604
287.6150, 931.3223
288.8270, 892.1973
290.0400, 639.2227
291.2520, 603.4531
292.4640, 594.8105
293.6760, 605.1113
294.8870, 824.8516
296.0990, 845.1035
297.3100, 661.4043
298.5210, 1029.859
299.7320, 1307.471
300.9430, 1524.242
302.1540, 2011.164
303.3640, 2425.238
304.5750, 3087.465
305.7850, 3685.844
306.9950, 4010.373
308.2050, 4234.053
309.4140, 4066.941
310.6240, 3673.453
311.8330, 3331.314
313.0420, 2773.648
314.2510, 2535.207
315.4600, 2047.916
316.6680, 1396.721
317.8770, 1132.588
319.0850, 541.4902
320.2930, 607.4043
321.5010, 204.3008
322.7090, 59.15234
323.9160, 16.95898
325.1240, 169.7109
326.3310, 51.58789
327.5380, 156.9434
328.7450, 112.3926
329.9520, 113.9629
331.1580, 45.68945
332.3650, 87.58594
333.5710, 24.66016
334.7770, 176.1270
335.9830, 0.1953130
337.1880, 299.3867
338.3940, 647.8887
339.5990, 697.3242
340.8040, 968.7109
342.0090, 1321.059
343.2140, 1624.320
344.4190, 2150.662
345.6230, 2420.900
346.8280, 3051.125
348.0320, 3412.146
349.2360, 3710.549
350.4400, 4284.705
351.6430, 4757.533
352.8470, 4571.703
354.0500, 4313.564
355.2530, 3254.186
356.4560, 2882.643
357.6590, 2062.195
358.8620, 1642.842
360.0640, 1287.580
361.2660, 798.4160
362.4680, 508.3438
363.6700, 533.3359
364.8720, 614.4180
366.0740, 469.5996
367.2750, 525.8711
368.4760, 593.2402
369.6770, 765.7051
370.8780, 944.2559
372.0790, 1363.922
373.2800, 1492.672
374.4800, 1831.512
375.6800, 2281.445
376.8800, 2604.467
378.0800, 3375.580
379.2800, 3939.783
380.4790, 4235.082
381.6790, 4717.480
382.8780, 4073.959
384.0770, 3896.209
385.2760, 3591.289
386.4750, 3739.691
387.6730, 3249.330
388.8720, 3082.998
390.0700, 3634.590
391.2680, 4415.453
392.4660, 5099.785
393.6630, 6284.422
394.8610, 7513.588
396.0580, 9620.668
397.2550, 11818.28
398.4520, 13073.77
399.6490, 13434.07
400.8460, 12329.69
402.0420, 10103.20
403.2390, 8131.141
404.4350, 6141.262
405.6310, 4588.523
406.8270, 3497.936
408.0220, 2730.502
409.2180, 2506.227
410.4130, 2125.055
411.6080, 1788.982
412.8030, 1206.004
413.9980, 1084.123
415.1920, 312.3379
416.3870, 170.2422
417.5810, 109.3496
418.7750, 191.8516
419.9690, 194.2812
421.1630, 338.6289
422.3570, 625.9238
423.5500, 248.2188
424.7430, 238.4355
425.9360, 264.5723
427.1290, 67.36328
428.3220, 545.4043
429.5150, 934.5527
430.7070, 1704.809
431.8990, 2655.170
433.0910, 3669.637
434.2830, 5042.211
435.4750, 6316.877
436.6670, 6764.604
437.8580, 6572.273
439.0490, 5706.992
440.2400, 4202.777
441.4310, 3301.674
442.6220, 2446.676
443.8130, 2048.785
445.0030, 1862.998
446.1930, 1830.320
447.3830, 1632.746
448.5730, 1699.277
449.7630, 1739.912
450.9520, 1672.652
452.1420, 1699.496
453.3310, 1837.426
454.5200, 2257.443
455.7090, 2649.543
456.8980, 3129.725
458.0860, 4225.986
459.2740, 5278.328
460.4630, 7051.750
461.6510, 8553.254
462.8380, 10658.83
464.0260, 12927.50
465.2140, 16246.24
466.4010, 19114.07
467.5880, 20766.91
468.7750, 21299.91
469.9620, 19042.14
471.1490, 16407.08
472.3350, 13990.55
473.5220, 11991.08
474.7080, 10163.07
475.8940, 9017.209
477.0800, 8346.383
478.2650, 7356.064
479.4510, 6331.398
480.6360, 5525.266
481.8210, 4404.227
483.0060, 3582.275
484.1910, 2896.424
485.3760, 2278.664
486.5600, 2024.000
487.7440, 1955.434
488.9290, 1630.963
490.1130, 1589.588
491.2960, 1617.311
492.4800, 1555.135
493.6630, 1622.061
494.8470, 1296.092
496.0300, 1047.230
497.2130, 1012.475
498.3960, 850.8340
499.5780, 557.3027
500.7610, 492.8828
501.9430, 446.5742
503.1250, 773.3770
504.3070, 667.2910
505.4890, 1342.316
506.6710, 1086.453
507.8520, 1605.703
509.0330, 1895.062
510.2140, 1857.531
511.3950, 2208.113
512.5760, 2213.807
513.7570, 1982.609
514.9370, 1888.525
516.1170, 1730.551
517.2980, 1862.688
518.4780, 1980.934
519.6570, 2369.291
520.8370, 2809.758
522.0160, 3071.340
523.1960, 3866.031
524.3750, 4672.842
525.5540, 5226.766
526.7320, 6056.801
527.9110, 6814.965
529.0890, 7846.277
530.2680, 8607.775
531.4460, 9055.055
532.6240, 10079.91
533.8010, 10873.08
534.9790, 12537.39
536.1560, 13718.45
537.3340, 15769.53
538.5110, 16855.41
539.6880, 17177.11
540.8650, 16011.15
542.0410, 14286.33
543.2180, 11573.77
544.3940, 9580.031
545.5700, 7389.180
546.7460, 5566.365
547.9220, 4142.662
549.0970, 3109.967
550.2730, 2307.365
551.4480, 1773.986
552.6230, 1458.340
553.7980, 1280.658
554.9730, 974.0645
556.1470, 881.5605
557.3210, 705.1504
558.4960, 646.8418
559.6700, 522.8438
560.8440, 788.6719
562.0170, 983.5215
563.1910, 1524.135
564.3640, 1800.361
565.5380, 2229.709
566.7110, 2761.494
567.8840, 3738.445
569.0560, 4902.941
570.2290, 5761.531
571.4010, 6953.209
572.5740, 7614.975
573.7460, 7979.828
574.9180, 8011.773
576.0890, 7652.805
577.2610, 7240.922
578.4320, 6528.127
579.6040, 6087.422
580.7750, 5667.805
581.9450, 5747.273
583.1160, 6076.830
584.2870, 6630.477
585.4570, 7287.207
586.6270, 8382.027
587.7980, 9445.930
588.9670, 9952.916
590.1370, 10889.99
591.3070, 10758.15
592.4760, 10065.39
593.6450, 9248.721
594.8140, 7912.131
595.9830, 6721.625
597.1520, 5226.205
598.3210, 4360.863
599.4890, 3495.607
600.6570, 2556.434
601.8250, 2146.340
602.9930, 1883.330
604.1610, 1401.398
605.3290, 1427.551
606.4960, 1091.783
607.6630, 1371.096
608.8300, 1318.492
609.9970, 1349.967
611.1640, 1874.539
612.3300, 2029.229
613.4970, 2477.027
614.6630, 3118.932
615.8290, 3832.928
616.9950, 4541.027
618.1610, 5364.213
619.3260, 5555.475
620.4920, 5793.820
621.6570, 5209.242
622.8220, 4873.742
623.9870, 4000.320
625.1520, 3581.977
626.3160, 2834.711
627.4810, 2308.520
628.6450, 2070.408
629.8090, 1695.371
630.9730, 1251.412
632.1370, 1171.525
633.3000, 1063.715
634.4640, 1270.984
635.6270, 1305.322
636.7900, 1421.738
637.9530, 1512.227
639.1160, 1791.789
640.2780, 2139.428
641.4410, 2497.137
642.6030, 2990.480
643.7650, 3620.773
644.9270, 4191.719
646.0890, 4815.736
647.2500, 5690.842
648.4120, 6418.020
649.5730, 6967.273
650.7340, 7552.621
651.8950, 7771.037
653.0560, 7875.535
654.2160, 7423.102
655.3770, 6744.738
656.5370, 5914.482
657.6970, 4856.334
658.8570, 4151.262
660.0170, 3410.291
661.1760, 2479.416
662.3360, 2106.607
663.4950, 1474.873
664.6540, 1408.219
665.8130, 916.6484
666.9720, 606.1777
668.1310, 478.7910
669.2890, 169.5156
670.4470, 64.68359
671.6050, 170.8438
672.7630, 264.0098
673.9210, 494.2129
675.0790, 570.5898
676.2360, 303.1660
677.3930, 624.8184
678.5510, 321.6992
679.7080, 550.6523
680.8640, 446.7891
682.0210, 361.0723
683.1770, 405.4629
684.3340, 293.4570
685.4900, 144.4980
686.6460, 199.1094
687.8020, 196.7871
688.9570, 214.4824
690.1130, 40.77734
691.2680, 57.07812
692.4230, 215.4141
693.5780, 350.8066
694.7330, 443.2539
695.8880, 695.7402
697.0420, 921.2793
698.1960, 1234.859
699.3510, 1507.488
700.5040, 1753.176
701.6580, 2114.922
702.8120, 2416.830
703.9650, 2710.711
705.1190, 3136.738
706.2720, 3549.828
707.4250, 3987.979
708.5780, 4433.164
709.7300, 5315.381
710.8830, 6082.629
712.0350, 6924.910
713.1870, 8180.223
714.3390, 9311.566
715.4910, 10500.94
716.6430, 11768.34
717.7940, 13194.77
718.9460, 13438.23
720.0970, 13500.72
721.2480, 13061.23
722.3990, 12097.77
723.5500, 10876.34
724.7000, 9567.928
725.8500, 8567.543
727.0010, 7303.184
728.1510, 6210.846
729.3010, 5455.531
730.4500, 4946.240
731.6000, 4480.969
732.7490, 3982.719
733.8980, 3560.492
735.0470, 3577.285
736.1960, 3411.096
737.3450, 3125.926
738.4940, 2939.773
739.6420, 3068.639
740.7900, 3159.521
741.9380, 3214.422
743.0860, 3036.346
744.2340, 3244.289
745.3810, 3299.256
746.5290, 3042.244
747.6760, 3081.264
748.8230, 3221.305
749.9700, 3453.371
751.1170, 3486.457
752.2630, 3461.562
753.4100, 3588.719
754.5560, 3597.883
755.7020, 3952.113
756.8480, 3983.389
757.9940, 4193.725
759.1390, 4059.072
760.2850, 3864.457
761.4300, 4494.854
762.5750, 4881.311
763.7200, 4680.215
764.8650, 5145.699
766.0100, 5658.912
767.1540, 5914.406
768.2980, 6326.156
769.4420, 6539.680
770.5860, 6809.211
771.7300, 7240.840
772.8740, 7614.367
774.0170, 8188.334
775.1610, 8583.859
776.3040, 8952.229
777.4470, 9610.125
778.5900, 10222.11
779.7320, 10856.36
780.8750, 11875.91
782.0170, 13068.78
783.1590, 13912.44
784.3010, 15449.76
785.4430, 16373.43
786.5850, 17704.58
787.7260, 18671.53
788.8680, 19567.17
790.0090, 20354.92
791.1500, 20821.29
792.2910, 21014.43
793.4310, 20868.49
794.5720, 20601.46
795.7120, 20056.82
796.8520, 19517.60
797.9920, 18662.23
799.1320, 18194.23
800.2720, 17553.43
801.4120, 17075.14
802.5510, 16613.62
803.6900, 15784.33
804.8290, 15152.62
805.9680, 14496.08
807.1070, 13865.56
808.2450, 13256.04
809.3840, 12755.73
810.5220, 12026.04
811.6600, 11507.89
812.7980, 10839.54
813.9360, 10649.42
815.0730, 9805.762
816.2110, 9590.266
817.3480, 8761.426
818.4850, 8387.352
819.6220, 7633.471
820.7590, 6900.205
821.8960, 6277.941
823.0320, 5831.102
824.1680, 5489.859
825.3040, 4957.414
826.4400, 4468.441
827.5760, 4341.887
828.7120, 4027.617
829.8470, 3709.760
830.9830, 3827.674
832.1180, 3245.148
833.2530, 3345.430
834.3880, 3444.814
835.5220, 3153.738
836.6570, 3258.453
837.7910, 3386.932
838.9250, 3514.381
840.0590, 3601.803
841.1930, 3675.162
842.3270, 3730.139
843.4600, 3699.875
844.5940, 3751.172
845.7270, 3596.432
846.8600, 3497.658
847.9930, 3690.852
849.1250, 3560.012
850.2580, 3577.135
851.3900, 3252.229
852.5230, 2965.281
853.6550, 2964.301
854.7870, 2814.283
855.9180, 2214.229
857.0500, 2186.137
858.1810, 1966.008
859.3130, 1952.842
860.4440, 1886.635
861.5750, 1503.391
862.7050, 1726.105
863.8360, 1496.785
864.9660, 1176.420
866.0970, 1102.018
867.2270, 1226.572
868.3570, 949.0879
869.4870, 1104.562
870.6160, 876.9941
871.7460, 768.3828
872.8750, 833.7285
874.0040, 743.0312
875.1330, 745.2910
876.2620, 514.5098
877.3910, 468.6836
878.5190, 232.4961
879.6470, 578.6543
880.7760, 513.5879
881.9040, 612.9590
883.0310, 573.3613
884.1590, 429.2051
885.2870, 357.6230
886.4140, 293.6250
887.5410, 196.4961
888.6680, 324.3887
889.7950, 298.9688
890.9220, 335.4941
892.0480, 268.5684
893.1750, 350.4160
894.3010, 421.2109
895.4270, 350.4453
896.5530, 285.1738
897.6790, 442.9219
898.8040, 123.8477
899.9300, 431.7891
901.0550, 107.6348
902.1800, 379.7969
903.3050, 168.6758
904.4300, 358.9238
905.5540, 275.0332
906.6790, 94.84961
907.8030, 416.5977
908.9270, 155.2871
910.0510, 264.9102
911.1750, 120.4766
912.2990, 170.9727
913.4220, 163.4062
914.5450, 134.7734
915.6690, 254.0742
916.7920, 1.687500
917.9140, 106.4492
919.0370, 7.511719
920.1600, 108.4746
921.2820, 79.36328
922.4040, 33.82422
923.5260, 241.8652
924.6480, 19.49219
925.7700, 136.0234
926.8910, 162.4805
928.0130, 99.12891
929.1340, 81.89648
930.2550, 31.18555
931.3760, 78.82422
932.4970, 44.98047
933.6170, 178.7305
934.7380, 35.37109
935.8580, 15.07617
936.9780, 4.359375
938.0980, 79.30859
939.2180, 25.12695
940.3370, 124.0645
941.4570, 2.826172
942.5760, 43.39062
943.6950, 60.71289
944.8140, 110.1250
945.9330, 7.634766
947.0520, 62.12891
948.1700, 47.62109
949.2890, 64.16406
950.4070, 108.6914
951.5250, 107.2988
952.6430, 71.92773
953.7600, 45.10742
954.8780, 272.2852
955.9950, 60.87500
957.1120, 96.02539
958.2290, 126.1426
959.3460, 121.7617
960.4630, 65.77930
961.5800, 72.12109
962.6960, 152.9434
963.8120, 20.69336
964.9280, 70.34766
966.0440, 192.9160
967.1600, 50.41211
968.2760, 198.8164
969.3910, 286.1484
970.5060, 330.4102
971.6210, 486.6035
972.7360, 573.7324
973.8510, 779.7988
974.9660, 876.7969
976.0800, 1079.736
977.1950, 1338.611
978.3090, 1611.420
979.4230, 1848.164
980.5370, 2316.855
981.6500, 3222.484
982.7640, 4183.045
983.8770, 5626.555
984.9900, 7292.004
986.1030, 9244.395
987.2160, 11073.72
988.3290, 13146.97
989.4420, 14212.17
990.5540, 13859.29
991.6660, 12826.36
992.7780, 10131.36
993.8900, 7826.299
995.0020, 6008.172
996.1140, 4537.004
997.2250, 3626.785
998.3360, 2469.504
999.4470, 2191.156
1000.558, 1440.744
1001.669, 1187.268
1002.780, 1044.729
1003.890, 945.1250
1005.001, 730.4590
1006.111, 477.7285
1007.221, 557.9414
1008.331, 427.0898
1009.440, 477.1777
1010.550, 464.1992
1011.659, 117.1602
1012.768, 185.0410
1013.877, 99.85156
1014.986, 65.58398
1016.095, 19.23047
1017.204, 94.78125
1018.312, 53.25586
1019.420, 74.64648
1020.528, 79.95117
1021.636, 59.82031
1022.744, 200.2715
1023.852, 135.7031
1024.959, 65.85352
1026.066, 111.1387
1027.173, 61.41602
1028.280, 24.10938
1029.387, 57.25195
1030.494, 114.4688
1031.600, 242.6484
1032.707, 7.255859
1033.813, 231.2168
1034.919, 168.3848
1036.025, 27.79102
1037.130, 327.6992
1038.236, 346.3496
1039.341, 418.9414
1040.446, 523.3770
1041.552, 647.8535
1042.656, 618.8320
1043.761, 587.1953
1044.866, 841.6523
1045.970, 992.5234
1047.074, 905.2539
1048.179, 1001.650
1049.282, 1124.691
1050.386, 1042.348
1051.490, 1216.152
1052.593, 1023.238
1053.697, 1122.914
1054.800, 1188.041
1055.903, 1185.316
1057.006, 1109.830
1058.108, 1260.170
1059.211, 1201.826
1060.313, 1136.670
1061.415, 934.5078
1062.517, 1284.365
1063.619, 1075.789
1064.721, 1162.723
1065.823, 1146.730
1066.924, 1214.322
1068.025, 1311.641
1069.126, 1331.230
1070.227, 1341.279
1071.328, 1331.889
1072.429, 1280.855
1073.529, 1053.574
1074.629, 1072.221
1075.729, 1219.930
1076.829, 1018.521
1077.929, 1164.980
1079.029, 1204.840
1080.128, 1146.244
1081.228, 1176.523
1082.327, 1213.730
1083.426, 1154.100
1084.525, 1074.518
1085.623, 935.1133
1086.722, 942.3516
1087.820, 1195.287
1088.919, 1100.365
1090.017, 1146.018
1091.115, 1046.002
1092.212, 1219.213
1093.310, 980.8945
1094.407, 1101.971
1095.505, 992.0664
1096.602, 858.8184
1097.699, 1219.738
1098.795, 994.0469
1099.892, 1030.490
1100.989, 1013.770
1102.085, 1023.459
1103.181, 1037.311
1104.277, 1046.326
1105.373, 1023.314
1106.469, 1017.303
1107.564, 1000.475
1108.660, 974.4277
1109.755, 962.3027
1110.850, 938.1504
1111.945, 934.0430
1113.040, 907.5000
1114.134, 866.6094
1115.229, 917.7969
1116.323, 945.5156
1117.417, 1074.799
1118.511, 1099.469
1119.605, 951.1133
1120.698, 1199.734
1121.792, 1097.332
1122.885, 908.9043
1123.978, 892.2109
1125.071, 847.7383
1126.164, 1044.291
1127.257, 904.9473
1128.349, 955.3223
1129.442, 952.0820
1130.534, 870.5273
1131.626, 887.9512
1132.718, 742.3535
1133.810, 760.7383
1134.901, 1035.109
1135.993, 894.4648
1137.084, 780.7988
1138.175, 1132.686
1139.266, 874.9844
1140.357, 726.2656
1141.448, 770.5273
1142.538, 889.7734
1143.628, 960.3164
1144.719, 701.4570
1145.809, 878.7734
1146.898, 798.5898
1147.988, 912.3145
1149.078, 875.5371
1150.167, 806.1250
1151.256, 817.7363
1152.345, 788.7500
1153.434, 750.0117
1154.523, 749.1934
1155.612, 770.3730
1156.700, 695.8125
1157.788, 637.6836
1158.877, 531.4160
1159.964, 476.6484
1161.052, 496.3242
1162.140, 747.9199
1163.227, 637.2793
1164.315, 449.5586
1165.402, 801.8730
1166.489, 625.8066
1167.576, 798.9668
1168.663, 598.7520
1169.749, 423.6133
1170.836, 648.7090
1171.922, 400.8086
1173.008, 597.9062
1174.094, 362.0059
1175.180, 459.1113
1176.265, 407.2266
1177.351, 423.3457
1178.436, 542.4648
1179.521, 457.5898
1180.606, 399.7168
1181.691, 521.8652
1182.776, 531.0215
1183.860, 543.1992
1184.944, 533.0645
1186.029, 419.6035
1187.113, 401.8457
1188.197, 347.0918
1189.280, 210.3574
1190.364, 492.6309
1191.447, 274.9141
1192.531, 413.2480
1193.614, 430.6309
1194.697, 362.0332
1195.779, 458.4824
1196.862, 413.9707
1197.945, 362.4688
1199.027, 421.9863
1200.109, 175.5371
1201.191, 389.1152
1202.273, 161.7441
1203.355, 497.4082
1204.436, 233.1328
1205.518, 528.8867
1206.599, 235.6836
1207.680, 290.5254
1208.761, 254.4258
1209.842, 188.3594
1210.922, 406.3418
1212.003, 120.3652
1213.083, 312.4395
1214.163, 164.5723
1215.243, 344.7656
1216.323, 381.0078
1217.402, 340.2969
1218.482, 143.6895
1219.561, 159.1016
1220.641, 184.5371
1221.720, 106.9902
1222.798, 145.5078
1223.877, 399.0781
1224.956, 116.6680
1226.034, 280.2773
1227.112, 115.9141
1228.191, 81.57617
1229.269, 189.2539
1230.346, 69.95898
1231.424, 24.70508
1232.501, 1.466797
1233.579, 304.2559
1234.656, 5.060547
1235.733, 232.8848
1236.810, 60.27344
1237.886, 193.5684
1238.963, 177.4297
1240.039, 175.3008
1241.116, 109.8105
1242.192, 206.0645
1243.268, 8.980469
1244.343, 119.0879
1245.419, 14.82812
1246.494, 67.24023
1247.570, 87.69336
1248.645, 14.64258
1249.720, 143.6055
1250.795, 241.5957
1251.869, 148.6016
1252.944, 38.37891
1254.018, 167.6523
1255.093, 2.302734
1256.167, 158.2383
1257.240, 111.2031
1258.314, 77.81836
1259.388, 131.5781
1260.461, 20.63672
1261.535, 243.7129
1262.608, 147.8105
1263.681, 5.248047
1264.753, 53.38281
1265.826, 115.5527
1266.899, 61.25586
1267.971, 224.9355
1269.043, 244.1465
1270.115, 200.3770
1271.187, 139.6289
1272.259, 104.8965
1273.330, 96.18945
1274.402, 131.9707
1275.473, 274.3203
1276.544, 217.6992
1277.615, 282.5820
1278.686, 185.7051
1279.756, 375.1758
1280.827, 310.6758
1281.897, 470.2031
1282.967, 411.7852
1284.037, 573.7480
1285.107, 454.4258
1286.177, 535.1504
1287.247, 747.9551
1288.316, 674.7891
1289.385, 674.6680
1290.454, 824.5742
1291.523, 646.5508
1292.592, 566.5469
1293.661, 891.5801
1294.729, 998.2090
1295.797, 959.2852
1296.866, 1022.443
1297.934, 1123.584
1299.001, 1183.744
1300.069, 1471.166
1301.137, 1473.361
1302.204, 1254.570
1303.271, 1607.076
1304.338, 1573.922
1305.405, 1589.184
1306.472, 1906.459
1307.539, 1753.754
1308.605, 2032.066
1309.671, 2083.395
1310.737, 2563.750
1311.803, 2605.119
1312.869, 2776.992
1313.935, 3253.395
1315.000, 4084.107
1316.066, 4133.549
1317.131, 4351.014
1318.196, 4307.498
1319.261, 4208.004
1320.326, 3738.529
1321.390, 3426.080
1322.455, 3027.648
1323.519, 2900.236
1324.583, 2507.848
1325.647, 2324.479
1326.711, 2423.129
1327.775, 1995.801
1328.838, 1847.494
1329.902, 1648.205
1330.965, 1687.938
1332.028, 1422.689
1333.091, 1314.465
1334.153, 1436.258
1335.216, 1104.070
1336.279, 993.9023
1337.341, 1140.754
1338.403, 857.6250
1339.465, 849.5137
1340.527, 840.4199
1341.588, 765.3457
1342.650, 758.2910
1343.711, 630.2539
1344.772, 610.2344
1345.834, 628.2344
1346.894, 693.2500
1347.955, 670.2832
1349.016, 413.3320
1350.076, 656.3652
1351.136, 464.4160
1352.197, 631.4707
1353.257, 660.5371
1354.316, 760.6230
1355.376, 846.7266
1356.436, 963.8477
1357.495, 928.3965
1358.554, 953.8809
1359.613, 841.0215
1360.672, 845.2188
1361.731, 791.4766
1362.789, 800.5215
1363.848, 678.8477
1364.906, 795.7285
1365.964, 794.9492
1367.022, 887.1855
1368.080, 488.4316
1369.138, 807.5234
1370.195, 574.7715
1371.253, 729.9629
1372.310, 505.8164
1373.367, 530.0078
1374.424, 522.6289
1375.480, 642.8496
1376.537, 386.0625
1377.593, 440.6367
1378.650, 189.9316
1379.706, 406.1855
1380.762, 399.7695
1381.818, 349.0508
1382.873, 246.2988
1383.929, 354.4355
1384.984, 211.5254
1386.039, 114.6660
1387.094, 278.6602
1388.149, 225.9941
1389.204, 378.4316
1390.259, 49.20703
1391.313, 129.1270
1392.367, 37.55664
1393.422, 117.9473
1394.476, 136.8066
1395.529, 132.4258
1396.583, 293.8535
1397.637, 378.2891
1398.690, 87.74219
1399.743, 219.4375
1400.796, 66.79883
1401.849, 50.81055
1402.902, 92.12891
1403.954, 147.4570
1405.007, 5.697266
1406.059, 219.9414
1407.111, 148.5957
1408.163, 41.85156
1409.215, 203.1641
1410.267, 22.59375
1411.318, 332.6426
1412.370, 14.11719
1413.421, 71.19531
1414.472, 183.4199
1415.523, 178.6855
1416.574, 206.5039
1417.624, 21.86719
1418.675, 162.9375
1419.725, 46.98828
1420.775, 2.994141
1421.825, 214.0078
1422.875, 212.0000
1423.925, 196.9121
1424.974, 79.80664
1426.024, 5.689453
1427.073, 117.5449
1428.122, 172.3848
1429.171, 15.78711
1430.220, 21.95312
1431.268, 120.8516
1432.317, 83.65234
1433.365, 227.4590
1434.413, 145.2715
1435.461, 125.3125
1436.509, 113.7754
1437.557, 142.7402
1438.605, 36.16992
1439.652, 166.6934
1440.699, 9.574219
1441.746, 73.47070
1442.793, 66.38672
1443.840, 148.3223
1444.887, 110.2773
1445.933, 143.2520
1446.980, 113.2441
1448.026, 104.2539
1449.072, 133.2832
1450.118, 158.3574
1451.163, 162.3887
1452.209, 244.4668
1453.254, 280.5625
1454.300, 290.6758
1455.345, 178.8027
1456.390, 120.9434
1457.435, 79.10156
1458.479, 306.2773
1459.524, 296.4668
1460.568, 268.6699
1461.612, 301.8594
1462.656, 169.0176
1463.700, 212.1621
1464.744, 329.3145
1465.788, 276.4902
1466.831, 400.6934
1467.874, 478.8613
1468.918, 326.0879
1469.961, 338.3496
1471.003, 451.6152
1472.046, 259.8926
1473.089, 469.1875
1474.131, 289.5371
1475.173, 344.8887
1476.215, 357.2422
1477.257, 249.2441
1478.299, 308.5527
1479.341, 322.8574
1480.382, 306.1855
1481.424, 305.5234
1482.465, 156.5430
1483.506, 62.16602
1484.547, 164.8965
1485.587, 16.78320
1486.628, 110.5547
1487.668, 2.671875
1488.709, 99.37109
1489.749, 206.7168
1490.789, 164.0859
1491.828, 167.4824
1492.868, 163.8887
1493.908, 189.9043
1494.947, 71.42773
1495.986, 247.7168
1497.025, 98.46680
1498.064, 272.5879
1499.103, 158.7363
1500.141, 204.9004
1501.180, 213.0859
1502.218, 3.617188
1503.256, 123.7324
1504.294, 248.8379
1505.332, 124.9355
1506.370, 237.0215
1507.407, 249.0957
1508.445, 166.1523
1509.482, 257.1914
1510.519, 53.21094
1511.556, 245.2090
1512.593, 250.1816
1513.629, 141.1289
1514.666, 252.0508
1515.702, 26.93945
1516.738, 31.20312
1517.774, 345.6152
1518.810, 166.3926
1519.846, 127.3203
1520.882, 317.2988
1521.917, 214.2363
1522.952, 215.2051
1523.987, 95.74805
1525.022, 67.94727
1526.057, 90.41016
1527.092, 170.3516
1528.126, 302.1992
1529.161, 239.3535
1530.195, 209.7305
1531.229, 56.52344
1532.263, 376.2852
1533.297, 132.1504
1534.330, 325.2520
1535.364, 357.4980
1536.397, 410.5664
1537.430, 135.1328
1538.463, 186.2520
1539.496, 139.4160
1540.529, 163.6641
1541.561, 299.6465
1542.594, 153.3984
1543.626, 436.0508
1544.658, 197.5000
1545.690, 258.2305
1546.722, 228.8262
1547.753, 290.6250
1548.785, 212.6992
1549.816, 268.0645
1550.847, 276.9492
1551.878, 247.1113
1552.909, 324.4219
1553.940, 136.2793
1554.971, 143.5371
1556.001, 447.5469
1557.031, 178.5371
1558.062, 169.0723
1559.092, 115.6914
1560.121, 1.968750
1561.151, 158.9961
1562.181, 0.0000000E+00
##END=



