##NAMES=Painite
##RRUFFID=R060957
##IDEAL CHEMISTRY=CaZr^4+^Al_9_O_15_(BO_3_)
##LOCALITY=Ohngaing Village, Mogok, Burma
##OWNER=RRUFF
##SOURCE=Marcus Origlieri
##DESCRIPTION=Single crystal, reddish-brown to orangish prism section, several prism forms, small transparent areas.
##STATUS=The identification of this mineral has been confirmed by X-ray diffraction.
##URL=rruff.info/R060957
##PIN_ID=M01225
##ORIENTATION=Laser parallel to -a* (-1 0 0). Fiducial mark perpendicular to laser is parallel to c [0 0 1]
163.0300, 0.0000000E+00
164.2600, 199.8311
165.4900, 5.284180
166.7200, 169.6572
167.9500, 133.1758
169.1790, 135.5322
170.4080, 158.8447
171.6380, 257.0762
172.8670, 562.3359
174.0950, 493.6631
175.3240, 534.3398
176.5520, 746.7471
177.7810, 1172.208
179.0090, 1379.268
180.2370, 1834.631
181.4640, 1923.098
182.6920, 2073.539
183.9190, 1851.871
185.1460, 1450.266
186.3730, 1160.068
187.6000, 732.2559
188.8270, 414.6992
190.0530, 260.3213
191.2800, 190.1777
192.5060, 136.3223
193.7320, 212.8037
194.9580, 195.6709
196.1830, 229.9668
197.4090, 445.7354
198.6340, 481.0156
199.8590, 673.8477
201.0840, 766.2705
202.3090, 891.1709
203.5340, 1104.651
204.7580, 1284.431
205.9820, 1427.392
207.2060, 1756.610
208.4300, 1801.449
209.6540, 1904.771
210.8780, 1877.571
212.1010, 1961.009
213.3240, 1967.186
214.5470, 2326.906
215.7700, 2660.325
216.9930, 2983.470
218.2150, 3441.363
219.4380, 4199.029
220.6600, 4851.480
221.8820, 5042.729
223.1040, 5208.787
224.3260, 5063.665
225.5470, 4728.379
226.7680, 4255.945
227.9900, 3487.378
229.2110, 2791.688
230.4310, 2140.893
231.6520, 1644.961
232.8720, 1166.021
234.0930, 883.9678
235.3130, 649.8477
236.5330, 496.6904
237.7530, 394.5410
238.9720, 309.4102
240.1920, 112.3047
241.4110, 162.7305
242.6300, 119.9922
243.8490, 19.38574
245.0680, 108.8408
246.2860, 80.73828
247.5040, 38.95410
248.7230, 14.26660
249.9410, 193.5400
251.1590, 10.59180
252.3760, 93.51172
253.5940, 109.4678
254.8110, 68.64844
256.0280, 102.9160
257.2450, 33.26465
258.4620, 246.6846
259.6790, 351.1660
260.8950, 383.7080
262.1120, 182.3066
263.3280, 112.4531
264.5440, 240.1582
265.7600, 220.9170
266.9750, 267.7314
268.1910, 296.6006
269.4060, 152.5254
270.6210, 283.5049
271.8360, 210.5410
273.0510, 215.6328
274.2650, 412.7812
275.4800, 527.9863
276.6940, 409.1494
277.9080, 461.3203
279.1220, 639.4375
280.3360, 777.5352
281.5490, 750.6113
282.7630, 995.6934
283.9760, 867.7832
285.1890, 996.9434
286.4020, 1011.169
287.6150, 880.4600
288.8270, 846.8223
290.0400, 842.2578
291.2520, 622.7646
292.4640, 656.3447
293.6760, 732.9980
294.8870, 532.7256
296.0990, 629.5273
297.3100, 584.4043
298.5210, 505.3574
299.7320, 804.3857
300.9430, 792.4922
302.1540, 614.6729
303.3640, 783.9326
304.5750, 938.2686
305.7850, 1164.685
306.9950, 1085.178
308.2050, 1093.752
309.4140, 1036.537
310.6240, 881.0078
311.8330, 686.1621
313.0420, 581.9766
314.2510, 418.9092
315.4600, 321.9365
316.6680, 151.0400
317.8770, 211.2070
319.0850, 50.57617
320.2930, 3.670898
321.5010, 159.0518
322.7090, 162.7900
323.9160, 105.5459
325.1240, 4.310547
326.3310, 248.0664
327.5380, 292.8633
328.7450, 145.7168
329.9520, 106.6035
331.1580, 247.5254
332.3650, 265.5234
333.5710, 133.6035
334.7770, 127.7285
335.9830, 128.8945
337.1880, 172.0996
338.3940, 150.3477
339.5990, 130.6289
340.8040, 137.9395
342.0090, 18.27344
343.2140, 214.3926
344.4190, 238.0664
345.6230, 238.7539
346.8280, 178.4512
348.0320, 380.1660
349.2360, 370.7461
350.4400, 623.2031
351.6430, 364.5410
352.8470, 592.7754
354.0500, 400.9531
355.2530, 509.0723
356.4560, 337.1445
357.6590, 231.2383
358.8620, 233.3418
360.0640, 138.4688
361.2660, 16.37695
362.4680, 173.7988
363.6700, 65.00391
364.8720, 130.2402
366.0740, 186.5039
367.2750, 414.8027
368.4760, 424.1328
369.6770, 459.4980
370.8780, 725.9004
372.0790, 1070.340
373.2800, 1490.816
374.4800, 1767.328
375.6800, 2247.881
376.8800, 2877.477
378.0800, 3346.109
379.2800, 3856.787
380.4790, 4357.504
381.6790, 4422.264
382.8780, 4185.084
384.0770, 3869.955
385.2760, 3348.871
386.4750, 2654.871
387.6730, 2255.584
388.8720, 1958.865
390.0700, 1444.939
391.2680, 1482.389
392.4660, 1433.035
393.6630, 1582.635
394.8610, 1909.547
396.0580, 2230.125
397.2550, 2626.512
398.4520, 2820.801
399.6490, 2898.855
400.8460, 3155.510
402.0420, 3314.512
403.2390, 3158.076
404.4350, 3042.701
405.6310, 2926.387
406.8270, 2858.133
408.0220, 2801.209
409.2180, 2691.070
410.4130, 2844.992
411.6080, 2349.975
412.8030, 2061.020
413.9980, 1717.123
415.1920, 8606.289
416.3870, 4462.512
417.5810, 5000.799
418.7750, 869.1445
419.9690, 54.55078
421.1630, 380.0195
422.3570, 255.5488
423.5500, 576.1387
424.7430, 376.7910
425.9360, 698.5078
427.1290, 842.2871
428.3220, 1505.127
429.5150, 2322.031
430.7070, 2775.000
431.8990, 3396.031
433.0910, 4295.121
434.2830, 5100.277
435.4750, 5722.496
436.6670, 6221.779
437.8580, 5789.123
439.0490, 5242.529
440.2400, 4740.996
441.4310, 4168.527
442.6220, 3387.121
443.8130, 2961.779
445.0030, 2928.494
446.1930, 3024.275
447.3830, 2874.117
448.5730, 2671.021
449.7630, 2494.986
450.9520, 2363.014
452.1420, 2257.102
453.3310, 2104.240
454.5200, 1986.436
455.7090, 2332.684
456.8980, 2634.988
458.0860, 3283.342
459.2740, 4052.750
460.4630, 5163.207
461.6510, 6139.719
462.8380, 7273.855
464.0260, 8476.383
465.2140, 9846.703
466.4010, 10832.91
467.5880, 11233.46
468.7750, 10830.02
469.9620, 9627.562
471.1490, 7959.598
472.3350, 6499.357
473.5220, 5007.352
474.7080, 4035.391
475.8940, 3140.496
477.0800, 2362.344
478.2650, 2243.625
479.4510, 2016.957
480.6360, 1805.051
481.8210, 1812.451
483.0060, 1742.045
484.1910, 1800.363
485.3760, 1866.473
486.5600, 1940.178
487.7440, 2340.945
488.9290, 2369.777
490.1130, 2600.668
491.2960, 2773.627
492.4800, 2740.646
493.6630, 2785.730
494.8470, 2579.879
496.0300, 2451.096
497.2130, 2060.379
498.3960, 2078.730
499.5780, 1978.146
500.7610, 2110.631
501.9430, 2256.184
503.1250, 2441.805
504.3070, 2681.154
505.4890, 3131.910
506.6710, 3469.738
507.8520, 3785.633
509.0330, 4024.596
510.2140, 4179.936
511.3950, 4256.816
512.5760, 4281.895
513.7570, 4204.133
514.9370, 4033.441
516.1170, 3880.816
517.2980, 4080.264
518.4780, 4111.777
519.6570, 4616.363
520.8370, 4992.018
522.0160, 5925.742
523.1960, 6767.537
524.3750, 7875.438
525.5540, 8263.389
526.7320, 9212.730
527.9110, 9648.803
529.0890, 9795.156
530.2680, 9550.574
531.4460, 9006.482
532.6240, 8364.141
533.8010, 7498.137
534.9790, 6695.043
536.1560, 6187.092
537.3340, 5390.473
538.5110, 4848.871
539.6880, 4370.230
540.8650, 3980.072
542.0410, 3539.793
543.2180, 2955.141
544.3940, 2551.395
545.5700, 2077.385
546.7460, 1489.994
547.9220, 1282.385
549.0970, 880.8359
550.2730, 642.3535
551.4480, 563.9316
552.6230, 546.5684
553.7980, 543.2695
554.9730, 468.1191
556.1470, 407.8496
557.3210, 401.7305
558.4960, 411.6699
559.6700, 485.6699
560.8440, 806.7305
562.0170, 1063.850
563.1910, 1211.031
564.3640, 1682.271
565.5380, 2242.570
566.7110, 2836.926
567.8840, 3747.344
569.0560, 4292.818
570.2290, 5196.348
571.4010, 6007.941
572.5740, 6677.590
573.7460, 6891.295
574.9180, 6959.061
576.0890, 6677.881
577.2610, 5933.760
578.4320, 5042.697
579.6040, 4479.691
580.7750, 3790.738
581.9450, 3211.844
583.1160, 3049.006
584.2870, 2936.225
585.4570, 2954.500
586.6270, 2958.828
587.7980, 3207.213
588.9670, 3075.652
590.1370, 3429.146
591.3070, 3299.695
592.4760, 3107.301
593.6450, 2668.957
594.8140, 2452.670
595.9830, 2335.436
597.1520, 1844.254
598.3210, 1474.127
599.4890, 1301.053
600.6570, 936.0312
601.8250, 1135.064
602.9930, 885.1504
604.1610, 1141.311
605.3290, 971.5234
606.4960, 1199.832
607.6630, 1507.230
608.8300, 1839.705
609.9970, 2422.236
611.1640, 3035.877
612.3300, 3765.637
613.4970, 4767.484
614.6630, 5488.414
615.8290, 6673.467
616.9950, 7689.660
618.1610, 8300.934
619.3260, 8831.285
620.4920, 8897.719
621.6570, 8493.236
622.8220, 7928.836
623.9870, 6924.516
625.1520, 6281.270
626.3160, 5239.084
627.4810, 4462.945
628.6450, 3737.861
629.8090, 3048.824
630.9730, 2371.836
632.1370, 1993.895
633.3000, 1544.004
634.4640, 1364.160
635.6270, 955.3594
636.7900, 914.6094
637.9530, 822.9082
639.1160, 850.2520
640.2780, 855.6426
641.4410, 726.0762
642.6030, 725.5586
643.7650, 736.8105
644.9270, 815.7422
646.0890, 837.4102
647.2500, 816.1387
648.4120, 940.9199
649.5730, 995.7500
650.7340, 914.6230
651.8950, 770.5742
653.0560, 1003.568
654.2160, 906.6426
655.3770, 837.7656
656.5370, 580.9336
657.6970, 534.1719
658.8570, 267.4570
660.0170, 249.7793
661.1760, 281.1484
662.3360, 57.56250
663.4950, 62.93750
664.6540, 15.41992
665.8130, 4.154297
666.9720, 269.2266
668.1310, 271.6934
669.2890, 356.2031
670.4470, 344.8398
671.6050, 158.5938
672.7630, 198.3867
673.9210, 285.2422
675.0790, 157.1621
676.2360, 305.1250
677.3930, 140.1777
678.5510, 504.2695
679.7080, 339.5684
680.8640, 267.0000
682.0210, 258.5332
683.1770, 22.84766
684.3340, 119.2559
685.4900, 200.7383
686.6460, 468.2773
687.8020, 541.8535
688.9570, 757.4746
690.1130, 862.1309
691.2680, 1125.848
692.4230, 1517.596
693.5780, 1500.385
694.7330, 1683.207
695.8880, 1779.053
697.0420, 1849.928
698.1960, 2103.826
699.3510, 2139.752
700.5040, 2027.701
701.6580, 2103.676
702.8120, 2435.676
703.9650, 2320.695
705.1190, 2385.740
706.2720, 2351.807
707.4250, 2342.898
708.5780, 2036.008
709.7300, 2111.141
710.8830, 1976.295
712.0350, 2120.473
713.1870, 2068.666
714.3390, 2297.883
715.4910, 2094.117
716.6430, 2381.373
717.7940, 2463.646
718.9460, 2472.939
720.0970, 2602.250
721.2480, 2301.578
722.3990, 2295.924
723.5500, 2013.287
724.7000, 1990.666
725.8500, 1756.062
727.0010, 1582.473
728.1510, 1442.900
729.3010, 1145.342
730.4500, 1286.799
731.6000, 1315.270
732.7490, 1349.756
733.8980, 1164.254
735.0470, 1082.766
736.1960, 1066.291
737.3450, 1063.830
738.4940, 1064.811
739.6420, 1089.906
740.7900, 1125.521
741.9380, 1180.930
743.0860, 1214.527
744.2340, 1302.707
745.3810, 1352.467
746.5290, 1437.100
747.6760, 1400.742
748.8230, 1365.398
749.9700, 1380.172
751.1170, 1711.859
752.2630, 1505.307
753.4100, 1417.047
754.5560, 1846.072
755.7020, 1551.879
756.8480, 1668.734
757.9940, 1724.615
759.1390, 1723.502
760.2850, 1932.402
761.4300, 1828.305
762.5750, 1974.223
763.7200, 2342.096
764.8650, 2372.174
766.0100, 2442.727
767.1540, 2721.693
768.2980, 2881.613
769.4420, 3120.977
770.5860, 3258.895
771.7300, 3421.125
772.8740, 3597.754
774.0170, 3679.729
775.1610, 3929.293
776.3040, 4015.188
777.4470, 4211.535
778.5900, 4445.420
779.7320, 4711.752
780.8750, 4951.832
782.0170, 5300.283
783.1590, 5408.594
784.3010, 5698.121
785.4430, 6099.221
786.5850, 6462.518
787.7260, 6843.336
788.8680, 6984.521
790.0090, 7028.674
791.1500, 7313.600
792.2910, 7548.988
793.4310, 7359.234
794.5720, 7323.191
795.7120, 7060.578
796.8520, 6698.510
797.9920, 6634.598
799.1320, 6164.646
800.2720, 6021.898
801.4120, 5804.809
802.5510, 5653.377
803.6900, 5269.295
804.8290, 5193.910
805.9680, 5086.105
807.1070, 4739.285
808.2450, 4671.080
809.3840, 4426.098
810.5220, 4270.475
811.6600, 4052.312
812.7980, 3985.812
813.9360, 3947.043
815.0730, 3661.133
816.2110, 3543.891
817.3480, 3233.455
818.4850, 2962.559
819.6220, 2897.303
820.7590, 2422.912
821.8960, 2350.875
823.0320, 2118.289
824.1680, 2006.836
825.3040, 1821.615
826.4400, 1606.199
827.5760, 1518.633
828.7120, 1343.760
829.8470, 1292.818
830.9830, 1415.967
832.1180, 1293.502
833.2530, 1274.932
834.3880, 1436.193
835.5220, 1348.459
836.6570, 1309.607
837.7910, 1582.738
838.9250, 1455.848
840.0590, 1334.936
841.1930, 1451.008
842.3270, 1589.055
843.4600, 1514.082
844.5940, 1622.088
845.7270, 1492.074
846.8600, 1521.037
847.9930, 1552.979
849.1250, 1298.898
850.2580, 1312.795
851.3900, 1296.668
852.5230, 1132.520
853.6550, 1176.346
854.7870, 926.1504
855.9180, 733.9297
857.0500, 672.6875
858.1810, 567.4199
859.3130, 515.0078
860.4440, 482.3379
861.5750, 453.4668
862.7050, 497.1016
863.8360, 442.7070
864.9660, 558.2910
866.0970, 348.8457
867.2270, 374.3750
868.3570, 184.8789
869.4870, 251.3545
870.6160, 316.8037
871.7460, 259.2266
872.8750, 186.6230
874.0040, 223.5527
875.1330, 101.8926
876.2620, 277.2051
877.3910, 4.511719
878.5190, 123.3965
879.6470, 24.09961
880.7760, 48.57617
881.9040, 336.8555
883.0310, 101.7949
884.1590, 187.0801
885.2870, 57.01074
886.4140, 103.5615
887.5410, 0.6591800
888.6680, 16.61328
889.7950, 66.33789
890.9220, 148.4082
892.0480, 159.7412
893.1750, 141.4541
894.3010, 207.6074
895.4270, 130.6377
896.5530, 178.4326
897.6790, 127.6484
898.8040, 52.07910
899.9300, 104.5859
901.0550, 70.37793
902.1800, 121.3350
903.3050, 132.7266
904.4300, 85.08203
905.5540, 179.3984
906.6790, 290.6787
907.8030, 182.9229
908.9270, 122.1299
910.0510, 75.30078
911.1750, 184.4277
912.2990, 91.51953
913.4220, 162.5693
914.5450, 93.58301
915.6690, 80.44531
916.7920, 9.417969
917.9140, 96.21875
919.0370, 8.022461
920.1600, 16.66504
921.2820, 41.29395
922.4040, 187.8711
923.5260, 82.58887
924.6480, 108.8398
925.7700, 94.77246
926.8910, 36.49707
928.0130, 99.71484
929.1340, 80.11133
930.2550, 86.95410
931.3760, 129.9756
932.4970, 45.95703
933.6170, 46.88770
934.7380, 134.2314
935.8580, 15.50977
936.9780, 76.79102
938.0980, 8.193359
939.2180, 64.33691
940.3370, 123.1162
941.4570, 29.36133
942.5760, 3.870117
943.6950, 80.39648
944.8140, 116.9160
945.9330, 89.55664
947.0520, 112.9258
948.1700, 53.59570
949.2890, 136.8643
950.4070, 29.31934
951.5250, 181.8428
952.6430, 120.4131
953.7600, 8.007813
954.8780, 51.60352
955.9950, 103.8477
957.1120, 47.41895
958.2290, 16.91699
959.3460, 5.807617
960.4630, 52.40039
961.5800, 80.44238
962.6960, 78.60547
963.8120, 5.609375
964.9280, 70.54883
966.0440, 131.4414
967.1600, 142.2930
968.2760, 175.8535
969.3910, 170.8760
970.5060, 209.6104
971.6210, 224.3076
972.7360, 269.9668
973.8510, 232.5898
974.9660, 406.1748
976.0800, 296.7227
977.1950, 523.2354
978.3090, 496.7119
979.4230, 728.1504
980.5370, 923.5518
981.6500, 1097.916
982.7640, 1535.243
983.8770, 1990.549
984.9900, 2569.819
986.1030, 3165.051
987.2160, 3936.247
988.3290, 4229.406
989.4420, 4640.534
990.5540, 4730.621
991.6660, 4226.674
992.7780, 3501.691
993.8900, 2944.674
995.0020, 2377.621
996.1140, 1664.533
997.2250, 1264.421
998.3360, 989.2715
999.4470, 717.0859
1000.558, 622.8652
1001.669, 469.6084
1002.780, 441.3154
1003.890, 228.9863
1005.001, 224.6240
1006.111, 233.2256
1007.221, 94.79102
1008.331, 207.3174
1009.440, 313.8086
1010.550, 289.2656
1011.659, 79.86719
1012.768, 98.25000
1013.877, 120.0283
1014.986, 153.1963
1016.095, 64.46777
1017.204, 39.69922
1018.312, 58.88574
1019.420, 1.097656
1020.528, 43.01855
1021.636, 67.68359
1022.744, 46.73633
1023.852, 122.1250
1024.959, 132.3682
1026.066, 43.73340
1027.173, 60.82422
1028.280, 15.65430
1029.387, 123.8066
1030.494, 23.76562
1031.600, 39.59863
1032.707, 251.9736
1033.813, 91.11230
1034.919, 64.74512
1036.025, 274.9297
1037.130, 351.1270
1038.236, 339.8486
1039.341, 249.9873
1040.446, 491.0967
1041.552, 565.1787
1042.656, 392.1221
1043.761, 653.4814
1044.866, 800.4766
1045.970, 618.9873
1047.074, 586.9268
1048.179, 667.3828
1049.282, 814.0586
1050.386, 697.3311
1051.490, 829.9873
1052.593, 815.4639
1053.697, 969.3535
1054.800, 803.6426
1055.903, 931.3730
1057.006, 894.7031
1058.108, 787.0293
1059.211, 919.5469
1060.313, 832.5664
1061.415, 726.6963
1062.517, 688.0742
1063.619, 698.9893
1064.721, 690.7510
1065.823, 809.4658
1066.924, 779.6084
1068.025, 766.5156
1069.126, 851.6865
1070.227, 828.1787
1071.328, 757.9697
1072.429, 849.3633
1073.529, 784.9287
1074.629, 916.5137
1075.729, 804.0352
1076.829, 807.6094
1077.929, 812.5664
1079.029, 947.1865
1080.128, 1031.068
1081.228, 823.9189
1082.327, 736.9600
1083.426, 778.4209
1084.525, 811.6328
1085.623, 845.4727
1086.722, 728.0879
1087.820, 687.9824
1088.919, 715.8496
1090.017, 877.6162
1091.115, 754.5293
1092.212, 819.1807
1093.310, 793.9980
1094.407, 873.9336
1095.505, 668.1504
1096.602, 550.4629
1097.699, 720.5352
1098.795, 854.2480
1099.892, 700.0410
1100.989, 711.9688
1102.085, 708.0352
1103.181, 799.0156
1104.277, 784.9863
1105.373, 541.9453
1106.469, 708.8945
1107.564, 705.2617
1108.660, 540.1914
1109.755, 760.5234
1110.850, 826.4336
1111.945, 742.3340
1113.040, 636.2246
1114.134, 713.1074
1115.229, 778.6699
1116.323, 672.5352
1117.417, 650.4668
1118.511, 776.3145
1119.605, 700.1582
1120.698, 679.8359
1121.792, 726.6680
1122.885, 657.4941
1123.978, 569.3125
1125.071, 551.5449
1126.164, 740.9316
1127.257, 746.7324
1128.349, 608.9707
1129.442, 778.7578
1130.534, 569.5469
1131.626, 691.3340
1132.718, 660.1191
1133.810, 605.9004
1134.901, 408.6914
1135.993, 465.9473
1137.084, 385.7090
1138.175, 580.0957
1139.266, 301.3379
1140.357, 532.1387
1141.448, 412.9395
1142.538, 705.9316
1143.628, 672.0645
1144.719, 615.3730
1145.809, 432.8691
1146.898, 537.5332
1147.988, 343.5117
1149.078, 507.1094
1150.167, 575.0312
1151.256, 611.8145
1152.345, 642.1777
1153.434, 386.5293
1154.523, 578.9688
1155.612, 524.8789
1156.700, 447.1797
1157.788, 654.0801
1158.877, 482.3125
1159.964, 456.0371
1161.052, 508.7637
1162.140, 448.0430
1163.227, 560.0781
1164.315, 419.0000
1165.402, 428.6113
1166.489, 444.0195
1167.576, 323.9648
1168.663, 314.9160
1169.749, 208.8887
1170.836, 329.8691
1171.922, 439.8574
1173.008, 495.8496
1174.094, 461.8516
1175.180, 391.8633
1176.265, 553.8828
1177.351, 400.9141
1178.436, 309.9512
1179.521, 409.0020
1180.606, 304.0938
1181.691, 454.2109
1182.776, 303.3359
1183.860, 244.4902
1184.944, 381.6641
1186.029, 162.8516
1187.113, 229.0527
1188.197, 297.3008
1189.280, 337.5586
1190.364, 353.8184
1191.447, 251.1953
1192.531, 324.5371
1193.614, 214.9258
1194.697, 128.3262
1195.779, 415.7422
1196.862, 234.1738
1197.945, 226.6309
1199.027, 146.1504
1200.109, 307.6914
1201.191, 430.2812
1202.273, 309.8984
1203.355, 322.5352
1204.436, 273.2305
1205.518, 240.9492
1206.599, 174.6914
1207.680, 377.4531
1208.761, 168.2285
1209.842, 140.0547
1210.922, 266.8965
1212.003, 97.78320
1213.083, 138.9121
1214.163, 324.6035
1215.243, 84.54102
1216.323, 205.4941
1217.402, 192.4727
1218.482, 169.4746
1219.561, 300.5312
1220.641, 287.6309
1221.720, 222.7559
1222.798, 221.9121
1223.877, 193.0879
1224.956, 99.31641
1226.034, 185.5645
1227.112, 140.8418
1228.191, 263.1367
1229.269, 42.45117
1230.346, 202.7812
1231.424, 13.87109
1232.501, 274.4922
1233.579, 137.8691
1234.656, 222.2695
1235.733, 146.6875
1236.810, 26.87891
1237.886, 106.5664
1238.963, 25.97070
1240.039, 254.5059
1241.116, 187.9980
1242.192, 162.5059
1243.268, 76.03320
1244.343, 119.4258
1245.419, 194.1035
1246.494, 6.349609
1247.570, 186.2168
1248.645, 104.7988
1249.720, 41.59961
1250.795, 86.06055
1251.869, 74.69336
1252.944, 106.3418
1254.018, 24.99414
1255.093, 31.31250
1256.167, 22.38086
1257.240, 86.90820
1258.314, 164.7988
1259.388, 136.0898
1260.461, 132.6992
1261.535, 150.7754
1262.608, 97.55859
1263.681, 69.68359
1264.753, 41.50195
1265.826, 138.3281
1266.899, 114.1934
1267.971, 245.0605
1269.043, 102.9609
1270.115, 109.8750
1271.187, 11.18945
1272.259, 31.76367
1273.330, 176.2285
1274.402, 208.2246
1275.473, 176.2383
1276.544, 194.5781
1277.615, 112.6348
1278.686, 55.71875
1279.756, 23.17578
1280.827, 13.95703
1281.897, 397.1133
1282.967, 213.0117
1284.037, 324.2598
1285.107, 58.26953
1286.177, 237.0977
1287.247, 349.1016
1288.316, 416.5430
1289.385, 201.0176
1290.454, 330.5117
1291.523, 265.0410
1292.592, 184.5957
1293.661, 329.1719
1294.729, 305.7656
1295.797, 497.3848
1296.866, 318.1992
1297.934, 356.7129
1299.001, 439.3887
1300.069, 630.0859
1301.137, 491.8047
1302.204, 497.5449
1303.271, 472.3027
1304.338, 455.0801
1305.405, 476.8789
1306.472, 434.7109
1307.539, 535.5605
1308.605, 448.4336
1309.671, 500.3281
1310.737, 430.2402
1311.803, 643.1699
1312.869, 646.1191
1313.935, 737.0879
1315.000, 757.0742
1316.066, 802.0801
1317.131, 810.1035
1318.196, 685.1465
1319.261, 680.2109
1320.326, 612.2910
1321.390, 725.3887
1322.455, 504.5078
1323.519, 592.6426
1324.583, 535.7969
1325.647, 483.3047
1326.711, 466.4980
1327.775, 315.7070
1328.838, 403.9355
1329.902, 448.1836
1330.965, 194.4492
1332.028, 414.7344
1333.091, 374.0352
1334.153, 218.3535
1335.216, 375.6934
1336.279, 261.0488
1337.341, 146.4238
1338.403, 273.8145
1339.465, 271.2246
1340.527, 109.6523
1341.588, 140.0977
1342.650, 351.5605
1343.711, 320.0430
1344.772, 226.5430
1345.834, 263.0527
1346.894, 218.5820
1347.955, 214.9980
1349.016, 101.6934
1350.076, 231.2656
1351.136, 198.8477
1352.197, 218.4258
1353.257, 277.9805
1354.316, 209.5469
1355.376, 200.1328
1356.436, 231.2461
1357.495, 255.3496
1358.554, 308.9805
1359.613, 170.4551
1360.672, 264.1172
1361.731, 138.1094
1362.789, 271.7715
1363.848, 50.43750
1364.906, 299.6875
1365.964, 166.3848
1367.022, 129.6855
1368.080, 191.4141
1369.138, 153.1348
1370.195, 192.8691
1371.253, 98.62109
1372.310, 193.6992
1373.367, 189.4824
1374.424, 216.9863
1375.480, 82.79883
1376.537, 206.6289
1377.593, 23.37305
1378.650, 72.80469
1379.706, 196.6738
1380.762, 71.56055
1381.818, 135.0391
1382.873, 43.35742
1383.929, 123.2754
1384.984, 118.7617
1386.039, 36.29297
1387.094, 19.33789
1388.149, 4.375000
1389.204, 91.60547
1390.259, 74.40234
1391.313, 199.5879
1392.367, 144.4062
1393.422, 48.58594
1394.476, 32.58984
1395.529, 7.609375
1396.583, 131.6426
1397.637, 107.6934
1398.690, 129.5586
1399.743, 8.359375
1400.796, 88.71680
1401.849, 82.80859
1402.902, 3.082031
1403.954, 188.0430
1405.007, 94.18359
1406.059, 172.3418
1407.111, 167.9961
1408.163, 14.17578
1409.215, 36.63477
1410.267, 20.56445
1411.318, 58.22070
1412.370, 30.99805
1413.421, 10.18555
1414.472, 116.4844
1415.523, 35.75195
1416.574, 16.03711
1417.624, 16.34375
1418.675, 168.6680
1419.725, 61.01172
1420.775, 17.38086
1421.825, 86.76953
1422.875, 1.183594
1423.925, 59.38281
1424.974, 61.07031
1426.024, 156.5488
1427.073, 9.056641
1428.122, 26.59766
1429.171, 203.1719
1430.220, 65.78320
1431.268, 24.43555
1432.317, 252.6035
1433.365, 331.3496
1434.413, 310.1914
1435.461, 345.6797
1436.509, 229.4590
1437.557, 234.6602
1438.605, 99.65625
1439.652, 42.06445
1440.699, 62.49609
1441.746, 136.9453
1442.793, 166.4180
1443.840, 136.9121
1444.887, 290.4258
1445.933, 155.9473
1446.980, 74.48828
1448.026, 248.0508
1449.072, 126.6328
1450.118, 175.2344
1451.163, 21.14648
1452.209, 115.4961
1453.254, 161.1543
1454.300, 136.8320
1455.345, 134.5293
1456.390, 235.2461
1457.435, 391.9824
1458.479, 59.73633
1459.524, 112.5098
1460.568, 250.3047
1461.612, 146.1172
1462.656, 177.9531
1463.700, 192.7930
1464.744, 315.6562
1465.788, 230.5449
1466.831, 399.4551
1467.874, 381.3906
1468.918, 371.3848
1469.961, 244.3965
1471.003, 328.0156
1472.046, 388.0605
1473.089, 345.1289
1474.131, 305.2305
1475.173, 309.1738
1476.215, 40.64062
1477.257, 79.98047
1478.299, 32.85352
1479.341, 139.8652
1480.382, 146.8926
1481.424, 260.9453
1482.465, 197.2598
1483.506, 219.8691
1484.547, 10.96484
1485.587, 133.0840
1486.628, 22.52539
1487.668, 162.1523
1488.709, 117.8262
1489.749, 65.87305
1490.789, 195.9355
1491.828, 63.01172
1492.868, 5.099609
1493.908, 7.751953
1494.947, 111.7812
1495.986, 114.8145
1497.025, 321.8613
1498.064, 54.89062
1499.103, 16.10352
1500.141, 78.90430
1501.180, 179.9277
1502.218, 273.9648
1503.256, 5.986328
1504.294, 184.0723
1505.332, 114.1426
1506.370, 130.2207
1507.407, 261.3262
1508.445, 104.3633
1509.482, 4.402344
1510.519, 127.4395
1511.556, 132.4805
1512.593, 107.5176
1513.629, 169.5527
1514.666, 234.5820
1515.702, 38.60352
1516.738, 137.6152
1517.774, 58.64648
1518.810, 130.6602
1519.846, 86.73828
1520.882, 151.0723
1521.917, 140.5410
1522.952, 211.0293
1523.987, 192.5488
1525.022, 118.7734
1526.057, 16.45312
1527.092, 29.20312
1528.126, 44.97656
1529.161, 119.9531
1530.195, 147.7734
1531.229, 197.9844
1532.263, 221.9941
1533.297, 217.6973
1534.330, 193.7559
1535.364, 137.9238
1536.397, 131.2207
1537.430, 67.59375
1538.463, 34.05469
1539.496, 36.80664
1540.529, 193.2930
1541.561, 85.09961
1542.594, 205.0273
1543.626, 328.0742
1544.658, 282.5195
1545.690, 183.1289
1546.722, 260.9062
1547.753, 184.1094
1548.785, 230.6992
1549.816, 203.6172
1550.847, 213.9062
1551.878, 276.6328
1552.909, 397.8867
1553.940, 237.7695
1554.971, 218.3906
1556.001, 11.11328
1557.031, 313.4414
1558.062, 239.3711
1559.092, 336.0742
1560.121, 346.1836
1561.151, 97.01562
1562.181, 0.0000000E+00
##END=



