##NAMES=Paravauxite
##RRUFFID=R040179
##IDEAL CHEMISTRY=Fe^2+^Al_2_(PO_4_)_2_(OH)_2_&#183;8H_2_O
##LOCALITY=Mina Siglo XX, Llallagua, Bolivia
##OWNER=RRUFF
##SOURCE=University of Arizona Mineral Museum
##DESCRIPTION=Colorless short prismatic crystals in subparallel groups
##STATUS=The identification of this mineral has been confirmed by X-ray diffraction and chemical analysis
##URL=rruff.info/R040179
##MEASURED CHEMISTRY=(Fe_0.93_Mg_0.03_Mn_0.02_)Al_1.94_(P_2.05_O_4_)_2_((OH)_0.99_F_0.01_)_2_Â·8H_2_O
##PIN_ID=M00447
##ORIENTATION=Laser parallel to (1 1 0). Fiducial mark perpendicular to laser is parallel to -c [0 0 -1]
121.683, 0.000
123.079, 22.954
124.475, 54.315
125.870, 178.019
127.265, 141.409
128.660, 217.935
130.055, 362.911
131.449, 382.886
132.843, 676.231
134.237, 686.917
135.631, 701.264
137.024, 928.726
138.417, 998.913
139.810, 976.914
141.203, 1141.096
142.596, 1187.031
143.988, 1074.445
145.380, 913.108
146.771, 902.988
148.163, 764.407
149.554, 584.688
150.945, 455.011
152.336, 330.450
153.726, 62.887
155.117, 64.125
156.507, 59.002
157.896, 44.370
159.286, 140.134
160.675, 596.200
162.064, 994.496
163.453, 1932.962
164.842, 2751.551
166.230, 3340.233
167.618, 3598.986
169.006, 3317.790
170.393, 3076.637
171.781, 2420.254
173.168, 2047.710
174.555, 1746.832
175.941, 1507.212
177.328, 1589.147
178.714, 1392.735
180.100, 1387.712
181.485, 1343.604
182.871, 1339.949
184.256, 1285.983
185.641, 1301.569
187.025, 1306.683
188.410, 1241.326
189.794, 1205.527
191.178, 1139.313
192.562, 1202.705
193.945, 1585.722
195.328, 1968.381
196.711, 2100.700
198.094, 2132.694
199.476, 1864.377
200.859, 1515.762
202.241, 1116.860
203.623, 747.685
205.004, 570.249
206.385, 466.604
207.766, 296.795
209.147, 348.849
210.528, 208.783
211.908, 309.612
213.288, 218.348
214.668, 97.992
216.048, 251.556
217.427, 110.042
218.806, 44.454
220.185, 43.205
221.564, 47.932
222.942, 77.729
224.320, 61.963
225.698, 26.496
227.076, 220.837
228.453, 409.432
229.830, 789.115
231.207, 1184.816
232.584, 1541.639
233.960, 1932.324
235.337, 2193.425
236.713, 2285.225
238.088, 2177.666
239.464, 2141.567
240.839, 1695.960
242.214, 1547.941
243.589, 1299.596
244.964, 960.765
246.338, 898.133
247.712, 661.614
249.086, 589.743
250.459, 481.029
251.833, 493.882
253.206, 372.729
254.579, 323.556
255.951, 315.346
257.324, 232.117
258.696, 357.872
260.068, 427.605
261.439, 477.309
262.811, 460.975
264.182, 587.598
265.553, 678.174
266.924, 639.703
268.294, 908.185
269.665, 1021.617
271.035, 1275.004
272.404, 1358.343
273.774, 1751.635
275.143, 2074.878
276.512, 2658.076
277.881, 3181.228
279.250, 3694.332
280.618, 4437.389
281.986, 4900.400
283.354, 5233.366
284.721, 5156.286
286.089, 4979.160
287.456, 4702.834
288.823, 4587.365
290.190, 4552.432
291.556, 4607.879
292.922, 4633.613
294.288, 4629.574
295.654, 4785.717
297.019, 4832.002
298.385, 4558.404
299.750, 4414.902
301.114, 4081.481
302.479, 3628.124
303.843, 3204.817
305.207, 2851.525
306.571, 2398.264
307.935, 2025.028
309.298, 1751.809
310.661, 1568.598
312.024, 1285.394
313.387, 1172.186
314.749, 973.239
316.111, 765.741
317.473, 671.497
318.835, 583.229
320.196, 471.936
321.558, 227.996
322.919, 286.640
324.279, 141.248
325.640, 113.818
327.000, 119.347
328.360, 67.828
329.720, 87.263
331.080, 94.353
332.439, 9.056
333.798, 74.826
335.157, 73.684
336.516, 12.650
337.874, 129.727
339.232, 85.905
340.590, 75.180
341.948, 50.554
343.305, 143.028
344.662, 136.635
346.019, 118.371
347.376, 63.238
348.733, 120.224
350.089, 74.329
351.445, 114.555
352.801, 92.900
354.156, 84.354
355.512, 31.915
356.867, 35.548
358.222, 27.743
359.576, 48.042
360.931, 52.916
362.285, 232.122
363.639, 48.138
364.992, 207.077
366.346, 116.979
367.699, 212.826
369.052, 326.645
370.405, 325.425
371.757, 319.182
373.110, 338.916
374.462, 375.162
375.814, 405.906
377.165, 471.833
378.516, 521.387
379.868, 564.571
381.218, 668.376
382.569, 701.802
383.920, 774.509
385.270, 897.062
386.620, 918.778
387.969, 840.854
389.319, 1113.994
390.668, 1036.997
392.017, 1189.847
393.366, 1072.537
394.714, 1215.030
396.063, 1377.350
397.411, 1459.440
398.759, 1631.338
400.106, 1783.059
401.454, 1854.592
402.801, 1925.965
404.148, 2027.218
405.495, 2028.320
406.841, 2029.355
408.187, 1980.339
409.533, 1841.282
410.879, 1762.188
412.224, 1711.178
413.570, 1603.895
414.915, 1624.700
416.260, 1635.476
417.604, 1616.220
418.949, 1606.934
420.293, 1727.616
421.637, 1818.268
422.980, 1878.888
424.324, 2069.477
425.667, 2240.036
427.010, 2550.564
428.353, 2931.061
429.695, 3181.526
431.037, 3651.961
432.379, 3722.363
433.721, 3892.738
435.063, 3833.080
436.404, 3603.392
437.745, 3353.673
439.086, 2873.923
440.427, 2614.143
441.767, 2284.333
443.108, 2034.491
444.448, 1654.620
445.787, 1614.719
447.127, 1394.787
448.466, 1374.828
449.805, 1334.836
451.144, 1304.808
452.482, 1324.745
453.821, 1284.641
455.159, 1334.494
456.497, 1344.303
457.834, 1424.069
459.172, 1456.719
460.509, 1513.464
461.846, 1593.104
463.183, 1702.694
464.519, 1862.246
465.856, 2081.749
467.192, 2151.205
468.527, 2430.640
469.863, 2580.026
471.198, 2709.413
472.534, 2938.709
473.868, 3007.955
475.203, 3027.156
476.538, 3186.310
477.872, 3115.638
479.206, 3214.708
480.540, 3123.729
481.873, 3012.714
483.206, 3041.236
484.539, 2759.935
485.872, 2698.227
487.205, 2815.745
488.537, 2493.245
489.869, 2389.792
491.201, 2296.631
492.533, 2234.000
493.864, 2086.580
495.196, 2014.893
496.527, 1903.231
497.857, 1825.444
499.188, 1742.271
500.518, 1646.472
501.848, 1616.325
503.178, 1486.041
504.508, 1480.131
505.837, 1425.016
507.166, 1400.514
508.495, 1318.902
509.824, 1266.841
511.153, 1202.874
512.481, 1148.607
513.809, 1067.439
515.137, 1046.454
516.464, 1001.897
517.792, 1086.764
519.119, 1121.232
520.446, 1172.557
521.772, 1103.768
523.099, 1239.499
524.425, 1223.139
525.751, 1134.731
527.077, 1322.133
528.402, 1435.501
529.728, 1506.703
531.053, 1570.663
532.377, 1734.850
533.702, 1672.290
535.027, 1949.601
536.351, 1852.417
537.675, 2139.975
538.998, 2109.875
540.322, 2359.426
541.645, 2396.772
542.968, 2385.062
544.291, 2552.402
545.613, 2649.431
546.936, 2597.898
548.258, 2554.889
549.580, 2792.148
550.902, 2850.231
552.223, 2857.319
553.544, 2706.613
554.865, 2913.363
556.186, 2880.260
557.507, 3026.939
558.827, 2866.800
560.147, 3155.709
561.467, 3142.288
562.786, 3179.176
564.106, 3345.692
565.425, 3392.421
566.744, 3478.876
568.063, 3555.490
569.381, 3471.883
570.700, 3628.247
572.018, 3324.580
573.335, 3450.883
574.653, 3037.155
575.970, 3063.468
577.288, 2899.681
578.604, 2595.864
579.921, 2642.016
581.238, 2438.139
582.554, 2314.295
583.870, 2250.357
585.186, 2126.391
586.501, 2062.395
587.817, 1948.369
589.132, 1894.314
590.447, 1790.230
591.761, 1736.117
593.076, 1561.975
594.390, 1537.804
595.704, 1553.604
597.018, 1549.374
598.331, 1355.115
599.645, 1390.828
600.958, 1346.513
602.271, 1352.168
603.583, 1177.796
604.896, 1143.395
606.208, 1129.146
607.520, 1034.688
608.832, 1010.201
610.143, 1036.144
611.455, 801.679
612.766, 927.109
614.077, 622.513
615.387, 727.887
616.698, 663.234
618.008, 588.555
619.318, 555.876
620.628, 551.143
621.937, 427.987
623.247, 583.198
624.556, 318.384
625.865, 399.772
627.173, 264.905
628.482, 251.142
629.790, 416.420
631.098, 271.473
632.405, 297.123
633.713, 262.314
635.020, 197.291
636.327, 315.857
637.634, 270.780
638.941, 358.849
640.247, 275.121
641.553, 309.969
642.859, 147.331
644.165, 282.132
645.471, 339.598
646.776, 294.360
648.081, 379.107
649.386, 408.106
650.691, 332.863
651.995, 237.622
653.299, 212.402
654.603, 167.202
655.907, 127.057
657.210, 97.423
658.514, 72.280
659.817, 77.155
661.120, 49.562
662.422, 27.447
663.725, 42.395
665.027, 77.368
666.329, 2.360
667.630, 87.366
668.932, 22.395
670.233, 12.554
671.534, 2.500
672.835, 72.438
674.136, 57.422
675.436, 7.560
676.737, 17.476
678.036, 22.520
679.336, 107.574
680.636, 57.275
681.935, 47.879
683.234, 3.096
684.533, 78.343
685.832, 33.668
687.130, 79.048
688.428, 84.506
689.726, 39.955
691.024, 74.394
692.322, 61.190
693.619, 83.159
694.916, 12.512
696.213, 8.227
697.510, 106.019
698.806, 10.244
700.102, 84.439
701.398, 148.615
702.694, 2.773
703.990, 136.900
705.285, 61.010
706.580, 5.101
707.875, 79.162
709.170, 16.794
710.464, 167.210
711.758, 91.199
713.052, 255.170
714.346, 30.872
715.640, 16.961
716.933, 296.915
718.226, 40.775
719.519, 194.620
720.812, 58.450
722.105, 122.264
723.397, 66.064
724.689, 129.850
725.981, 183.621
727.272, 207.380
728.564, 161.127
729.855, 244.861
731.146, 78.582
732.437, 342.290
733.727, 115.986
735.017, 349.671
736.308, 293.344
737.597, 67.006
738.887, 110.655
740.176, 244.294
741.466, 127.923
742.755, 331.539
744.043, 235.146
745.332, 318.744
746.620, 252.330
747.908, 165.908
749.196, 289.476
750.484, 213.034
751.771, 186.583
753.059, 210.124
754.346, 123.655
755.633, 217.180
756.919, 90.694
758.206, 164.203
759.492, 177.702
760.778, 1.194
762.063, 134.677
763.349, 58.153
764.634, 8.378
765.919, 5.079
767.204, 168.527
768.489, 81.970
769.773, 15.407
771.057, 118.839
772.341, 22.265
773.625, 44.315
774.909, 9.081
776.192, 37.528
777.475, 55.842
778.758, 29.208
780.041, 117.429
781.323, 25.875
782.605, 30.826
783.887, 7.587
785.169, 135.691
786.451, 21.032
787.732, 7.768
789.013, 65.494
790.294, 81.475
791.575, 101.749
792.856, 75.031
794.136, 41.842
795.416, 81.332
796.696, 65.494
797.976, 127.235
799.255, 69.618
800.534, 13.504
801.813, 126.625
803.092, 100.254
804.371, 162.827
805.649, 45.910
806.927, 158.993
808.205, 11.980
809.483, 25.210
810.760, 127.433
812.037, 69.961
813.315, 82.312
814.591, 234.720
815.868, 23.172
817.144, 118.421
818.421, 250.426
819.697, 182.890
820.972, 213.466
822.248, 106.018
823.523, 137.589
824.798, 217.318
826.073, 218.020
827.348, 224.046
828.623, 91.045
829.897, 222.135
831.171, 181.703
832.445, 140.984
833.718, 274.960
834.992, 77.447
836.265, 235.286
837.538, 305.973
838.811, 191.992
840.083, 250.856
841.356, 306.919
842.628, 132.680
843.900, 275.228
845.171, 208.017
846.443, 255.384
847.714, 128.244
848.985, 228.765
850.256, 189.604
851.527, 172.614
852.797, 202.290
854.067, 257.609
855.337, 200.855
856.607, 282.641
857.876, 285.878
859.146, 288.818
860.415, 370.907
861.684, 213.965
862.953, 234.789
864.221, 238.132
865.489, 451.304
866.757, 334.669
868.025, 264.832
869.293, 445.925
870.560, 289.326
871.828, 382.402
873.095, 305.828
874.361, 279.025
875.628, 262.477
876.894, 445.753
878.160, 329.233
879.426, 302.727
880.692, 376.232
881.958, 229.754
883.223, 213.296
884.488, 276.784
885.753, 360.356
887.018, 283.953
888.282, 447.564
889.546, 311.191
890.810, 364.774
892.074, 458.437
893.338, 412.118
894.601, 245.817
895.864, 359.532
897.127, 423.263
898.390, 577.010
899.652, 320.777
900.915, 524.562
902.177, 568.363
903.439, 362.213
904.700, 706.077
905.962, 419.962
907.223, 533.863
908.484, 567.783
909.745, 581.725
911.006, 685.685
912.266, 639.662
913.526, 643.519
914.786, 817.574
916.046, 831.649
917.306, 705.287
918.565, 739.324
919.824, 813.456
921.083, 897.616
922.342, 991.794
923.600, 845.992
924.859, 1050.211
926.117, 942.420
927.375, 1096.697
928.632, 1069.393
929.890, 1193.712
931.147, 1278.053
932.404, 1086.185
933.661, 1370.566
934.918, 1483.840
936.174, 1138.066
937.430, 1382.515
938.686, 1326.361
939.942, 1310.661
941.198, 1615.176
942.453, 1586.095
943.708, 1450.655
944.963, 1482.068
946.218, 1505.273
947.472, 1789.902
948.727, 1652.018
949.981, 1856.695
951.235, 1668.713
952.488, 1823.438
953.742, 2118.189
954.995, 1968.693
956.248, 2103.490
957.501, 2278.312
958.754, 2103.156
960.006, 2598.025
961.258, 2512.336
962.510, 2787.255
963.762, 2752.201
965.014, 2957.173
966.265, 3012.172
967.516, 3396.713
968.767, 3801.771
970.018, 3846.858
971.269, 4231.973
972.519, 4707.121
973.769, 5262.297
975.019, 5507.504
976.269, 6422.749
977.518, 7088.031
978.767, 8173.365
980.017, 9228.754
981.265, 10534.176
982.514, 12879.637
983.762, 14785.143
985.011, 18081.627
986.259, 21287.410
987.507, 24963.055
988.754, 29222.969
990.002, 32128.699
991.249, 33565.750
992.496, 33831.582
993.743, 31307.475
994.989, 28534.471
996.236, 25240.420
997.482, 22356.416
998.728, 19622.439
999.974, 16928.510
1001.219, 14614.609
1002.464, 12330.734
1003.710, 10276.895
1004.954, 8483.084
1006.199, 7039.299
1007.444, 5525.551
1008.688, 4951.826
1009.932, 3908.131
1011.176, 3464.471
1012.420, 3000.838
1013.663, 2457.246
1014.906, 2403.682
1016.149, 1940.145
1017.392, 1476.637
1018.635, 1623.172
1019.877, 1339.744
1021.120, 1126.344
1022.362, 1172.975
1023.603, 909.635
1024.845, 996.322
1026.086, 703.039
1027.328, 709.785
1028.569, 736.561
1029.809, 453.361
1031.050, 590.193
1032.290, 368.893
1033.530, 465.781
1034.770, 362.697
1036.010, 171.688
1037.250, 278.660
1038.489, 385.662
1039.728, 213.455
1040.967, 530.514
1042.206, 238.469
1043.444, 285.586
1044.683, 372.846
1045.921, 250.020
1047.159, 567.223
1048.396, 535.113
1049.634, 402.373
1050.871, 669.666
1052.108, 713.811
1053.345, 761.160
1054.582, 948.676
1055.818, 896.082
1057.054, 1113.521
1058.290, 801.596
1059.526, 1069.094
1060.762, 1046.623
1061.997, 743.582
1063.232, 821.170
1064.467, 618.789
1065.702, 526.455
1066.937, 484.012
1068.171, 361.584
1069.405, 371.043
1070.639, 338.664
1071.873, 136.312
1073.107, 393.992
1074.340, 61.699
1075.573, 184.232
1076.806, 172.006
1078.039, 39.818
1079.272, 157.662
1080.504, 265.533
1081.736, 93.461
1082.968, 191.418
1084.200, 239.410
1085.431, 147.434
1086.663, 325.486
1087.894, 293.570
1089.125, 361.664
1090.355, 319.762
1091.586, 217.902
1092.816, 279.311
1094.046, 384.250
1095.276, 292.471
1096.506, 550.707
1097.735, 538.982
1098.965, 437.188
1100.194, 545.426
1101.423, 643.680
1102.651, 601.953
1103.880, 440.121
1105.108, 568.305
1106.336, 746.508
1107.564, 414.695
1108.792, 682.900
1110.019, 461.039
1111.246, 429.188
1112.473, 477.348
1113.700, 265.518
1114.927, 333.695
1116.153, 291.883
1117.380, 190.074
1118.606, 388.268
1119.831, 116.467
1121.057, 344.662
1122.283, 542.861
1123.508, 51.059
1124.733, 369.268
1125.958, 27.482
1127.182, 155.707
1128.407, 163.863
1129.631, 22.193
1130.855, 110.459
1132.079, 41.262
1133.302, 222.963
1134.526, 65.311
1135.749, 116.387
1136.972, 131.930
1138.195, 49.619
1139.417, 48.777
1140.640, 57.234
1141.862, 43.604
1143.084, 224.287
1144.305, 42.986
1145.527, 251.729
1146.748, 70.516
1147.970, 69.346
1149.191, 88.217
1150.411, 77.131
1151.632, 266.092
1152.852, 105.092
1154.072, 134.139
1155.292, 213.227
1156.512, 82.355
1157.732, 301.525
1158.951, 20.740
1160.170, 509.996
1161.389, 419.285
1162.608, 318.609
1163.826, 417.951
1165.045, 437.330
1166.263, 376.740
1167.481, 466.186
1168.699, 185.672
1169.916, 515.191
1171.134, 274.715
1172.351, 234.240
1173.568, 453.803
1174.784, 83.396
1176.001, 202.975
1177.217, 202.537
1178.433, 37.861
1179.649, 111.766
1180.865, 341.418
1182.081, 38.893
1183.296, 290.779
1184.511, 70.486
1185.726, 9.775
1186.941, 340.000
1188.155, 10.191
1189.370, 169.650
1190.584, 9.525
1191.798, 29.436
1193.011, 259.381
1194.225, 0.645
1195.438, 99.367
1196.651, 419.416
1197.864, 100.496
1199.077, 139.633
1200.290, 19.803
1201.502, 160.020
1202.714, 220.279
1203.926, 10.588
1205.138, 140.947
1206.349, 321.355
1207.561, 128.182
1208.772, 172.336
1209.983, 112.910
1211.194, 22.639
1212.404, 224.895
1213.614, 32.705
1214.825, 17.016
1216.034, 321.135
1217.244, 61.461
1218.454, 341.824
1219.663, 202.227
1220.872, 57.336
1222.081, 313.133
1223.290, 273.635
1224.498, 64.168
1225.707, 304.729
1226.915, 285.316
1228.123, 205.932
1229.331, 276.572
1230.538, 57.238
1231.746, 144.258
1232.953, 88.643
1234.160, 174.441
1235.366, 249.473
1236.573, 210.010
1237.779, 98.363
1238.986, 416.305
1240.192, 226.389
1241.397, 464.768
1242.603, 125.125
1243.808, 133.121
1245.013, 372.344
1246.218, 69.846
1247.423, 279.299
1248.628, 534.084
1249.832, 32.164
1251.036, 281.145
1252.240, 292.568
1253.444, 141.141
1254.648, 448.742
1255.851, 236.141
1257.054, 133.238
1258.257, 349.996
1259.460, 136.361
1260.663, 442.279
1261.865, 118.076
1263.067, 103.553
1264.269, 268.682
1265.471, 83.320
1266.673, 148.586
1267.874, 423.424
1269.075, 109.922
1270.276, 306.316
1271.477, 333.395
1272.678, 61.162
1273.878, 319.016
1275.078, 257.133
1276.278, 155.705
1277.478, 165.014
1278.678, 155.223
1279.877, 156.350
1281.077, 138.486
1282.276, 12.023
1283.475, 277.410
1284.673, 275.240
1285.872, 1.129
1287.070, 0.000
##END=



