##NAMES=Paravauxite
##RRUFFID=R040179
##IDEAL CHEMISTRY=Fe^2+^Al_2_(PO_4_)_2_(OH)_2_&#183;8H_2_O
##LOCALITY=Mina Siglo XX, Llallagua, Bolivia
##OWNER=RRUFF
##SOURCE=University of Arizona Mineral Museum
##DESCRIPTION=Colorless short prismatic crystals in subparallel groups
##STATUS=The identification of this mineral has been confirmed by X-ray diffraction and chemical analysis
##URL=rruff.info/R040179
##MEASURED CHEMISTRY=(Fe_0.93_Mg_0.03_Mn_0.02_)Al_1.94_(P_2.05_O_4_)_2_((OH)_0.99_F_0.01_)_2_Â·8H_2_O
##PIN_ID=M00312
##ORIENTATION=Laser parallel to a* (1 0 0). Fiducial mark perpendicular to laser is parallel to b [0 1 0]
105.212, 0.000
106.604, 39.263
107.995, 165.406
109.387, 308.663
110.777, 915.802
112.168, 1151.894
113.559, 1431.398
114.949, 1123.960
116.339, 1072.895
117.729, 905.536
119.119, 684.950
120.508, 701.904
121.897, 651.266
123.286, 887.110
124.675, 921.659
126.063, 1018.258
127.452, 1286.350
128.840, 1490.463
130.228, 1657.206
131.615, 1926.250
133.003, 2248.413
134.390, 2353.267
135.777, 2449.920
137.164, 2808.365
138.550, 2778.445
139.937, 3259.945
141.323, 3092.661
142.709, 3366.431
144.094, 3181.115
145.480, 3136.663
146.865, 2952.899
148.250, 2449.728
149.635, 2357.067
151.019, 1814.862
152.403, 1513.070
153.788, 1201.654
155.171, 846.584
156.555, 723.833
157.939, 561.378
159.322, 779.594
160.705, 717.855
162.088, 1427.337
163.470, 1950.378
164.853, 2485.062
166.235, 3021.141
167.617, 2488.455
168.998, 2326.322
170.380, 1494.139
171.761, 1251.831
173.142, 750.253
174.523, 656.420
175.904, 631.347
177.284, 304.046
178.664, 483.532
180.044, 528.815
181.424, 637.906
182.803, 593.812
184.183, 695.959
185.562, 937.502
186.940, 912.887
188.319, 1178.062
189.698, 1212.933
191.076, 1537.606
192.454, 2212.143
193.831, 2836.581
195.209, 3700.950
196.586, 3605.274
197.963, 3729.565
199.340, 2913.838
200.717, 2128.100
202.093, 1482.359
203.470, 926.619
204.846, 702.883
206.221, 268.155
207.597, 216.436
208.972, 99.726
210.347, 62.025
211.722, 105.666
213.097, 151.347
214.472, 167.530
215.846, 177.517
217.220, 110.911
218.594, 96.877
219.967, 11.368
221.341, 4.190
222.714, 112.164
224.087, 294.472
225.460, 490.883
226.832, 890.512
228.204, 1174.490
229.577, 1602.935
230.948, 2031.291
232.320, 2468.199
233.692, 2851.057
235.063, 2759.386
236.434, 2812.232
237.805, 2372.666
239.175, 1933.134
240.545, 1643.634
241.916, 1234.134
243.286, 944.602
244.655, 751.051
246.025, 507.507
247.394, 461.970
248.763, 274.435
250.132, 267.894
251.501, 83.344
252.869, 139.783
254.237, 95.211
255.605, 82.629
256.973, 122.033
258.340, 63.428
259.708, 161.810
261.075, 20.822
262.442, 142.534
263.808, 257.876
265.175, 315.205
266.541, 516.512
267.907, 435.805
269.273, 832.083
270.639, 816.301
272.004, 1132.629
273.369, 1440.312
274.734, 1748.985
276.099, 2428.433
277.463, 2908.505
278.828, 3719.097
280.192, 3990.126
281.556, 4501.531
282.919, 4413.260
284.283, 3955.271
285.646, 3707.528
287.009, 3070.002
288.372, 3062.666
289.734, 2885.496
291.097, 2788.477
292.459, 2701.588
293.821, 2734.817
295.183, 2968.151
296.544, 2711.580
297.905, 2785.086
299.266, 2568.658
300.627, 2302.287
301.988, 2245.967
303.348, 1769.687
304.709, 1753.441
306.069, 1437.225
307.428, 1261.030
308.788, 1214.854
310.147, 1008.693
311.507, 992.545
312.865, 726.403
314.224, 740.268
315.583, 674.134
316.941, 578.002
318.299, 551.869
319.657, 285.733
321.015, 381.592
322.372, 190.446
323.729, 47.238
325.086, 83.937
326.443, 67.420
327.800, 133.833
329.156, 197.324
330.512, 94.921
331.868, 125.599
333.224, 126.372
334.579, 174.731
335.935, 344.711
337.290, 48.843
338.645, 237.057
339.999, 104.660
341.354, 162.446
342.708, 203.972
344.062, 1.606
345.416, 103.582
346.769, 81.368
348.123, 119.700
349.476, 102.628
350.829, 49.642
352.182, 104.731
353.534, 11.875
354.887, 17.059
356.239, 136.691
357.591, 29.405
358.942, 93.068
360.294, 204.689
361.645, 24.291
362.996, 127.836
364.347, 168.370
365.698, 111.871
367.048, 318.347
368.398, 199.795
369.748, 251.209
371.098, 222.605
372.448, 443.972
373.797, 355.304
375.146, 395.240
376.495, 584.130
377.844, 342.572
379.192, 670.697
380.540, 620.156
381.889, 659.636
383.236, 680.237
384.584, 620.658
385.932, 830.912
387.279, 760.985
388.626, 890.896
389.973, 1020.656
391.319, 960.298
392.666, 1259.802
394.012, 1209.206
395.358, 1338.587
396.704, 1567.934
398.049, 1797.267
399.394, 2126.568
400.740, 2045.848
402.084, 2515.137
403.429, 2434.403
404.774, 2483.668
406.118, 2302.907
407.462, 1892.128
408.806, 1811.326
410.150, 1490.503
411.493, 1449.657
412.836, 1288.789
414.179, 1157.898
415.522, 1297.005
416.865, 1166.086
418.207, 1185.190
419.549, 1304.270
420.891, 1443.325
422.233, 1602.364
423.575, 1817.829
424.916, 2129.695
426.257, 2338.668
427.598, 2707.615
428.939, 3066.541
430.279, 3365.441
431.619, 3504.316
432.959, 3243.199
434.299, 3152.076
435.639, 2900.940
436.978, 2339.789
438.318, 2048.616
439.657, 1757.420
440.996, 1556.197
442.334, 1254.953
443.673, 1073.680
445.011, 1022.373
446.349, 741.042
447.687, 929.675
449.024, 638.279
450.361, 726.849
451.699, 665.408
453.036, 683.929
454.372, 622.408
455.709, 570.849
457.045, 659.249
458.381, 737.606
459.717, 675.933
461.053, 914.216
462.388, 722.457
463.724, 960.652
465.059, 858.806
466.394, 946.916
467.728, 1134.980
469.063, 1063.045
470.397, 1291.063
471.731, 1079.037
473.065, 1166.964
474.398, 1124.845
475.732, 1052.688
477.065, 1230.484
478.398, 878.235
479.731, 1085.939
481.063, 1023.597
482.396, 791.205
483.728, 748.779
485.060, 765.522
486.391, 742.996
487.723, 513.494
489.054, 539.889
490.385, 582.077
491.716, 340.339
493.047, 496.553
494.377, 272.484
495.708, 325.147
497.038, 306.916
498.368, 206.890
499.697, 204.966
501.027, 201.896
502.356, 244.212
503.685, 255.541
505.014, 167.610
506.342, 253.108
507.671, 170.519
508.999, 374.507
510.327, 310.269
511.655, 248.349
512.982, 420.656
514.310, 316.475
515.637, 576.287
516.964, 602.630
518.291, 575.478
519.617, 800.358
520.944, 700.046
522.270, 821.805
523.596, 783.681
524.921, 1000.367
526.247, 1069.104
527.572, 1176.892
528.897, 1403.386
530.222, 1433.671
531.547, 1730.627
532.871, 1897.238
534.196, 1737.363
535.520, 2223.417
536.844, 2093.674
538.167, 2560.022
539.491, 2496.482
540.814, 2495.395
542.137, 2821.561
543.460, 2837.631
544.783, 2984.963
546.105, 3001.365
547.427, 3147.506
548.749, 3177.757
550.071, 2991.162
551.393, 3238.836
552.714, 3215.383
554.035, 3187.613
555.356, 3393.104
556.677, 3209.294
557.998, 3725.465
559.318, 3470.854
560.638, 3713.905
561.958, 3829.229
563.278, 3618.731
564.597, 3963.988
565.917, 3819.932
567.236, 4095.198
568.555, 4230.887
569.874, 3426.509
571.192, 3981.672
572.511, 3716.727
573.829, 3866.540
575.147, 3911.526
576.464, 3727.240
577.782, 4072.158
579.099, 3707.042
580.416, 3923.422
581.733, 3738.235
583.050, 3624.261
584.366, 3639.271
585.683, 3503.984
586.999, 3529.313
588.315, 3463.958
589.630, 3348.604
590.946, 3473.630
592.261, 3228.170
593.576, 3512.877
594.891, 3417.347
596.206, 3301.782
597.520, 3336.183
598.834, 3260.547
600.148, 3271.063
601.462, 3161.180
602.776, 3255.439
604.089, 3361.295
605.402, 3265.521
606.715, 3461.691
608.028, 3255.812
609.341, 3156.695
610.653, 3360.811
611.965, 2984.837
613.277, 3119.150
614.589, 2993.098
615.901, 2807.189
617.212, 2793.420
618.523, 2487.264
619.834, 2671.336
621.145, 2335.111
622.456, 2219.173
623.766, 2193.021
625.076, 1816.738
626.386, 1880.774
627.696, 1634.398
629.006, 1647.969
630.315, 1481.541
631.624, 1355.108
632.933, 1220.364
634.242, 1033.800
635.551, 957.203
636.859, 900.670
638.167, 894.007
639.475, 927.311
640.783, 713.029
642.090, 636.269
643.398, 639.479
644.705, 532.658
646.012, 555.836
647.318, 379.032
648.625, 472.262
649.931, 435.502
651.237, 258.760
652.543, 411.527
653.849, 344.836
655.155, 338.224
656.460, 350.793
657.765, 103.502
659.070, 426.319
660.375, 49.805
661.679, 163.319
662.984, 196.103
664.288, 110.371
665.592, 292.575
666.895, 86.051
668.199, 199.540
669.502, 66.959
670.805, 33.505
672.108, 139.900
673.411, 143.306
674.713, 76.684
676.016, 130.046
677.318, 3.386
678.620, 96.666
679.921, 50.062
681.223, 93.131
682.524, 13.707
683.825, 39.396
685.126, 122.459
686.427, 14.509
687.727, 68.458
689.028, 91.392
690.328, 15.708
691.628, 177.129
692.927, 20.061
694.227, 102.685
695.526, 85.398
696.825, 1.917
698.124, 110.712
699.423, 123.338
700.721, 25.910
702.020, 68.443
703.318, 90.944
704.616, 63.417
705.913, 144.142
707.211, 8.175
708.508, 40.447
709.805, 67.314
711.102, 244.841
712.399, 133.028
713.695, 48.986
714.992, 190.970
716.288, 87.070
717.584, 204.800
718.879, 33.354
720.175, 188.433
721.470, 40.196
722.765, 141.932
724.060, 53.642
725.355, 55.327
726.649, 136.984
727.944, 268.621
729.238, 49.765
730.532, 171.786
731.825, 146.686
733.119, 174.730
734.412, 206.125
735.705, 2.501
736.998, 258.837
738.291, 0.155
739.584, 71.439
740.876, 292.703
742.168, 13.947
743.460, 255.166
744.752, 116.366
746.043, 27.546
747.334, 138.705
748.626, 69.846
749.916, 180.967
751.207, 172.070
752.498, 163.157
753.788, 194.226
755.078, 24.722
756.368, 306.294
757.658, 167.294
758.947, 21.723
760.237, 89.228
761.526, 29.838
762.815, 111.062
764.104, 108.054
765.392, 72.756
766.680, 83.550
767.969, 4.330
769.257, 245.091
770.544, 35.838
771.832, 43.430
773.119, 167.266
774.406, 7.948
775.693, 78.614
776.980, 0.732
778.267, 29.905
779.553, 50.529
780.839, 178.859
782.125, 51.649
783.411, 232.146
784.697, 42.631
785.982, 33.105
787.267, 46.434
788.552, 63.999
789.837, 114.423
791.122, 14.835
792.406, 75.236
793.690, 75.627
794.974, 63.990
796.258, 226.358
797.542, 36.699
798.825, 117.029
800.108, 37.352
801.391, 47.665
802.674, 227.971
803.957, 48.266
805.239, 88.555
806.522, 78.834
807.804, 19.108
809.085, 189.374
810.367, 10.368
811.649, 269.883
812.930, 209.361
814.211, 39.603
815.492, 218.011
816.772, 197.988
818.053, 298.104
819.333, 67.499
820.613, 47.706
821.893, 197.012
823.173, 87.131
824.452, 219.369
825.732, 213.737
827.011, 93.597
828.290, 383.469
829.568, 132.684
830.847, 192.493
832.125, 159.332
833.403, 58.859
834.681, 282.419
835.959, 161.935
837.236, 217.854
838.514, 236.412
839.791, 296.219
841.068, 382.196
842.345, 101.462
843.621, 51.032
844.898, 297.048
846.174, 17.105
847.450, 302.930
848.726, 112.635
850.001, 72.206
851.277, 419.295
852.552, 0.899
853.827, 368.965
855.102, 317.535
856.376, 147.001
857.651, 396.697
858.925, 246.141
860.199, 334.621
861.473, 352.690
862.746, 141.861
864.020, 425.316
865.293, 175.487
866.566, 244.929
867.839, 314.363
869.112, 114.551
870.384, 327.054
871.656, 197.257
872.928, 233.255
874.200, 183.474
875.472, 252.980
876.744, 323.138
878.015, 172.852
879.286, 362.604
880.557, 292.792
881.828, 123.064
883.098, 198.554
884.369, 318.848
885.639, 278.389
886.909, 418.705
888.178, 149.033
889.448, 427.842
890.717, 448.195
891.987, 287.334
893.256, 427.471
894.524, 207.879
895.793, 377.654
897.061, 428.092
898.330, 178.518
899.598, 508.541
900.865, 509.033
902.133, 269.354
903.401, 699.893
904.668, 290.447
905.935, 541.020
907.202, 561.609
908.468, 490.213
909.735, 760.836
911.001, 401.477
912.267, 800.500
913.533, 771.137
914.799, 619.809
916.064, 670.508
917.330, 554.428
918.595, 785.096
919.860, 815.830
921.124, 756.254
922.389, 867.021
923.653, 937.627
924.918, 856.072
926.182, 1146.881
927.445, 897.443
928.709, 1348.281
929.972, 1028.816
931.236, 1069.547
932.499, 1350.389
933.761, 1280.896
935.024, 1081.799
936.286, 1442.738
937.549, 1013.660
938.811, 1504.570
940.073, 1363.777
941.334, 1234.791
942.596, 1375.822
943.857, 1136.779
945.118, 1367.850
946.379, 1558.941
947.640, 1407.605
948.900, 1768.742
950.161, 1399.896
951.421, 1831.074
952.681, 1632.275
953.940, 1503.494
955.200, 1864.738
956.459, 1816.004
957.719, 1927.295
958.978, 2028.609
960.236, 1709.945
961.495, 2481.305
962.753, 2072.512
964.012, 2253.920
965.270, 2635.357
966.527, 2576.818
967.785, 3068.316
969.043, 3109.836
970.300, 3511.385
971.557, 4003.223
972.814, 4044.871
974.071, 4656.551
975.327, 5518.258
976.583, 5690.023
977.840, 7021.848
979.095, 7653.699
980.351, 8865.580
981.607, 11079.465
982.862, 11841.406
984.117, 15653.395
985.372, 17728.326
986.627, 20830.406
987.882, 25605.844
989.136, 26148.002
990.390, 28740.193
991.644, 28312.420
992.898, 25244.695
994.152, 24347.107
995.405, 20209.449
996.659, 18341.840
997.912, 16404.266
999.165, 13496.742
1000.417, 12599.250
1001.670, 10401.793
1002.922, 8414.389
1004.174, 7396.992
1005.426, 5659.656
1006.678, 4882.363
1007.930, 4205.109
1009.181, 3187.893
1010.432, 3070.715
1011.683, 2323.625
1012.934, 2136.584
1014.185, 1909.586
1015.435, 1612.654
1016.685, 1455.762
1017.935, 1408.953
1019.185, 992.191
1020.435, 1255.465
1021.684, 908.814
1022.934, 822.207
1024.183, 895.660
1025.432, 579.125
1026.680, 772.639
1027.929, 756.145
1029.177, 419.641
1030.425, 743.182
1031.673, 386.762
1032.921, 560.385
1034.169, 394.072
1035.416, 477.803
1036.663, 301.623
1037.911, 575.521
1039.157, 419.434
1040.404, 543.400
1041.650, 411.176
1042.897, 545.242
1044.143, 529.355
1045.389, 433.516
1046.634, 847.729
1047.880, 633.895
1049.125, 768.211
1050.371, 1112.590
1051.615, 1120.361
1052.860, 1284.861
1054.105, 1519.738
1055.349, 1644.184
1056.593, 2068.676
1057.837, 1573.496
1059.081, 2067.963
1060.325, 1872.188
1061.568, 1446.342
1062.812, 1680.443
1064.055, 1104.408
1065.298, 1178.309
1066.540, 962.146
1067.783, 726.012
1069.025, 879.381
1070.267, 742.797
1071.509, 546.275
1072.751, 609.811
1073.993, 323.400
1075.234, 527.041
1076.475, 420.828
1077.716, 374.666
1078.957, 558.564
1080.198, 282.529
1081.438, 276.545
1082.679, 400.633
1083.919, 214.785
1085.159, 418.996
1086.398, 563.262
1087.638, 867.586
1088.877, 751.969
1090.116, 316.412
1091.355, 470.918
1092.594, 705.482
1093.833, 440.111
1095.071, 604.793
1096.309, 509.539
1097.547, 394.346
1098.785, 489.215
1100.023, 444.117
1101.260, 649.064
1102.498, 514.039
1103.735, 299.055
1104.972, 724.125
1106.208, 509.256
1107.445, 284.445
1108.681, 629.695
1109.918, 175.002
1111.154, 390.371
1112.389, 285.799
1113.625, 31.285
1114.860, 326.830
1116.096, 102.434
1117.331, 178.094
1118.566, 303.809
1119.800, 20.422
1121.035, 405.402
1122.269, 341.279
1123.503, 187.213
1124.737, 393.203
1125.971, 29.250
1127.205, 155.348
1128.438, 201.500
1129.671, 82.354
1130.904, 163.846
1132.137, 100.074
1133.370, 103.668
1134.602, 72.584
1135.834, 111.131
1137.066, 155.197
1138.298, 71.570
1139.530, 28.002
1140.762, 244.496
1141.993, 8.934
1143.224, 277.729
1144.455, 194.490
1145.686, 281.359
1146.917, 178.328
1148.147, 105.395
1149.377, 2.566
1150.607, 69.719
1151.837, 207.213
1153.067, 174.691
1154.296, 252.273
1155.526, 169.963
1156.755, 317.756
1157.984, 315.660
1159.213, 73.674
1160.441, 581.801
1161.670, 200.043
1162.898, 338.404
1164.126, 506.887
1165.354, 385.488
1166.581, 474.221
1167.809, 432.402
1169.036, 371.375
1170.263, 590.484
1171.490, 199.732
1172.717, 382.301
1173.943, 501.645
1175.170, 180.414
1176.396, 387.113
1177.622, 286.172
1178.848, 74.922
1180.073, 394.225
1181.299, 103.656
1182.524, 143.213
1183.749, 392.891
1184.974, 22.684
1186.199, 432.592
1187.423, 242.604
1188.648, 47.287
1189.872, 352.906
1191.096, 163.170
1192.320, 153.533
1193.543, 443.928
1194.767, 5.221
1195.990, 276.852
1197.213, 309.668
1198.436, 17.125
1199.659, 406.498
1200.881, 80.262
1202.104, 382.064
1203.326, 512.846
1204.548, 73.434
1205.770, 553.188
1206.991, 336.055
1208.213, 58.215
1209.434, 383.939
1210.655, 99.652
1211.876, 131.408
1213.096, 344.209
1214.317, 0.000
##END=



