##NAMES=Pectolite
##RRUFFID=R060101
##IDEAL CHEMISTRY=NaCa_2_Si_3_O_8_(OH)
##LOCALITY=West Patterson, New Jersey, USA
##OWNER=RRUFF
##SOURCE=University of Arizona Mineral Museum
##DESCRIPTION=Tufts of white acicular sprays
##STATUS=The identification of this mineral has been confirmed by X-ray diffraction and chemical analysis
##URL=rruff.info/R060101
##MEASURED CHEMISTRY=Na_1.02_Ca_2.00_Si_2.99_O_8_(OH)
##PIN_ID=L00594
##ORIENTATION=Laser parallel to (1 0 1). Fiducial mark perpendicular to laser is parallel to b [0 1 0]
118.9350, 0.0000000E+00
120.1730, 0.5383300
121.4100, 23.98181
122.6480, 13.38708
123.8850, 22.03857
125.1230, 37.57227
126.3600, 37.76892
127.5960, 84.47986
128.8330, 20.60608
130.0700, 21.06482
131.3060, 69.79346
132.5420, 72.78955
133.7780, 88.96313
135.0140, 95.32471
136.2500, 115.8602
137.4850, 104.5348
138.7200, 79.31799
139.9550, 134.1874
141.1900, 65.13000
142.4250, 90.14526
143.6600, 124.2301
144.8940, 121.8143
146.1280, 65.97656
147.3620, 118.1874
148.5960, 80.45068
149.8300, 92.03625
151.0630, 52.71045
152.2960, 127.4121
153.5300, 87.09766
154.7620, 115.7714
155.9950, 79.42834
157.2280, 121.0576
158.4600, 96.65710
159.6920, 110.2449
160.9250, 34.83032
162.1560, 49.40845
163.3880, 38.04858
164.6200, 71.74805
165.8510, 70.48022
167.0820, 75.28723
168.3130, 33.99207
169.5440, 5.295288
170.7750, 30.37854
172.0050, 21.02295
173.2350, 20.67322
174.4650, 55.41382
175.6950, 62.34497
176.9250, 11.26880
178.1550, 73.00732
179.3840, 53.42090
180.6130, 12.96155
181.8420, 74.36389
183.0710, 67.89392
184.3000, 50.36365
185.5280, 84.09741
186.7570, 109.3350
187.9850, 90.08777
189.2130, 43.51843
190.4400, 106.0415
191.6680, 72.55701
192.8960, 40.80920
194.1230, 69.10913
195.3500, 93.28674
196.5770, 136.4218
197.8030, 130.7017
199.0300, 114.0104
200.2560, 157.8170
201.4830, 133.4707
202.7090, 180.6663
203.9340, 136.2903
205.1600, 94.79492
206.3860, 94.52356
207.6110, 51.30945
208.8360, 57.45203
210.0610, 121.2433
211.2860, 111.8914
212.5100, 96.00977
213.7350, 28.10522
214.9590, 105.7211
216.1830, 80.60754
217.4070, 131.2256
218.6310, 142.6193
219.8540, 148.6603
221.0780, 121.3662
222.3010, 146.6010
223.5240, 102.5627
224.7470, 119.6753
225.9690, 94.13123
227.1920, 125.2415
228.4140, 150.2834
229.6360, 156.8269
230.8580, 64.01282
232.0800, 27.92151
233.3020, 26.06494
234.5230, 63.61121
235.7440, 70.76550
236.9650, 42.60315
238.1860, 8.631958
239.4070, 32.39160
240.6280, 41.73535
241.8480, 3.538574
243.0680, 11.73828
244.2880, 63.10181
245.5080, 52.98096
246.7280, 37.84741
247.9470, 0.6020510
249.1660, 1.886963
250.3860, 39.30273
251.6040, 23.50488
252.8230, 57.05298
254.0420, 62.64722
255.2600, 0.5441890
256.4790, 85.06787
257.6970, 31.86768
258.9150, 80.79272
260.1320, 36.35229
261.3500, 43.72827
262.5670, 27.82007
263.7840, 49.77026
265.0010, 60.86353
266.2180, 45.58911
267.4350, 49.89111
268.6510, 49.00879
269.8680, 50.68164
271.0840, 63.04712
272.3000, 52.61938
273.5160, 90.21753
274.7310, 71.79395
275.9470, 33.57275
277.1620, 54.21973
278.3770, 42.93042
279.5920, 30.46606
280.8070, 1.441650
282.0210, 18.48267
283.2360, 32.44971
284.4500, 40.54297
285.6640, 81.43970
286.8780, 11.22656
288.0920, 44.23071
289.3050, 24.88208
290.5180, 46.64917
291.7320, 22.40381
292.9450, 8.814209
294.1570, 42.84229
295.3700, 20.58472
296.5830, 2.738770
297.7950, 25.75464
299.0070, 9.165771
300.2190, 10.42090
301.4310, 12.91724
302.6420, 84.28882
303.8540, 72.81128
305.0650, 48.93848
306.2760, 7.377441
307.4870, 0.2248540
308.6980, 21.41895
309.9080, 24.65479
311.1190, 71.29419
312.3290, 108.9583
313.5390, 31.25293
314.7490, 13.94922
315.9580, 72.55225
317.1680, 8.911133
318.3770, 66.56372
319.5860, 69.03027
320.7950, 100.4460
322.0040, 100.5261
323.2130, 22.01465
324.4210, 81.28906
325.6290, 129.7812
326.8380, 51.00537
328.0460, 57.25513
329.2530, 65.59326
330.4610, 14.75195
331.6680, 47.09009
332.8760, 16.96777
334.0830, 50.16113
335.2890, 16.38745
336.4960, 38.28564
337.7030, 19.69336
338.9090, 7.793213
340.1150, 24.57153
341.3210, 74.52979
342.5270, 51.44849
343.7330, 96.59424
344.9380, 57.70801
346.1440, 45.58667
347.3490, 6.757813
348.5540, 21.74243
349.7590, 73.87354
350.9630, 22.62012
352.1680, 84.61255
353.3720, 70.47876
354.5760, 51.37183
355.7800, 118.1968
356.9840, 21.87891
358.1870, 50.58447
359.3910, 61.19580
360.5940, 29.63086
361.7970, 60.59985
363.0000, 106.4985
364.2030, 72.90430
365.4050, 76.23682
366.6080, 56.74097
367.8100, 80.96216
369.0120, 47.33643
370.2140, 78.89722
371.4150, 42.22046
372.6170, 84.27661
373.8180, 63.49097
375.0190, 146.9529
376.2200, 130.8389
377.4210, 78.07520
378.6220, 122.1196
379.8220, 97.21606
381.0230, 145.4106
382.2230, 134.3223
383.4230, 65.13208
384.6220, 114.0627
385.8220, 93.08838
387.0220, 67.65674
388.2210, 19.86963
389.4200, 65.82642
390.6190, 67.66919
391.8180, 99.72974
393.0160, 36.87378
394.2150, 64.52100
395.4130, 27.75830
396.6110, 40.51904
397.8090, 76.47705
399.0060, 70.47388
400.2040, 72.90234
401.4010, 111.3865
402.5980, 113.8723
403.7950, 139.4485
404.9920, 150.8242
406.1890, 161.9102
407.3860, 105.9363
408.5820, 167.2832
409.7780, 176.6636
410.9740, 138.1155
412.1700, 186.7615
413.3650, 126.2639
414.5610, 53.71704
415.7560, 210.2471
416.9510, 145.8110
418.1460, 205.1760
419.3410, 103.4453
420.5360, 134.5828
421.7300, 118.6702
422.9240, 95.02100
424.1180, 118.0610
425.3120, 36.16626
426.5060, 52.16943
427.7000, 20.09302
428.8930, 64.88281
430.0860, 88.91357
431.2790, 34.89087
432.4720, 116.2869
433.6650, 86.24316
434.8580, 86.02783
436.0500, 76.29785
437.2420, 102.1389
438.4340, 4.135498
439.6260, 48.26172
440.8180, 128.1719
442.0090, 3.532959
443.2010, 97.26465
444.3920, 75.54077
445.5830, 0.3093260
446.7740, 103.2786
447.9640, 16.07593
449.1550, 116.1409
450.3450, 122.2654
451.5350, 59.22632
452.7250, 2.720459
453.9150, 52.24927
455.1050, 42.46167
456.2940, 126.4131
457.4830, 26.59180
458.6720, 25.45825
459.8610, 58.76099
461.0500, 67.67285
462.2390, 65.26807
463.4270, 73.21875
464.6150, 149.2024
465.8040, 46.87061
466.9910, 93.44434
468.1790, 30.09741
469.3670, 88.56348
470.5540, 76.04614
471.7410, 50.60400
472.9280, 87.91113
474.1150, 39.95068
475.3020, 130.3840
476.4890, 78.64307
477.6750, 50.45654
478.8610, 21.67188
480.0470, 94.98462
481.2330, 19.50562
482.4190, 35.83618
483.6040, 84.88867
484.7900, 89.94043
485.9750, 30.87085
487.1600, 33.85596
488.3450, 84.54443
489.5290, 9.165771
490.7140, 48.60693
491.8980, 7.898193
493.0820, 94.11035
494.2660, 28.02979
495.4500, 50.49780
496.6340, 37.69434
497.8170, 46.39380
499.0010, 73.54248
500.1840, 62.02051
501.3670, 71.70020
502.5500, 113.2429
503.7320, 104.8303
504.9150, 104.0532
506.0970, 100.6436
507.2790, 112.0435
508.4610, 65.40820
509.6430, 126.6421
510.8250, 83.95117
512.0060, 33.06860
513.1870, 83.26660
514.3680, 6.738525
515.5490, 90.37451
516.7300, 24.35278
517.9110, 22.45532
519.0910, 45.67383
520.2710, 82.53711
521.4510, 85.53174
522.6310, 55.62061
523.8110, 60.79321
524.9910, 25.14380
526.1700, 65.69165
527.3490, 60.89331
528.5280, 75.82764
529.7070, 48.99365
530.8860, 69.10059
532.0650, 11.08545
533.2430, 14.47754
534.4210, 4.353027
535.5990, 64.41016
536.7770, 3.031250
537.9550, 45.30420
539.1320, 24.88672
540.3100, 9.412109
541.4870, 78.20166
542.6640, 101.2310
543.8410, 102.7817
545.0170, 59.92773
546.1940, 101.8574
547.3700, 58.14453
548.5470, 37.78369
549.7230, 102.1899
550.8980, 98.60693
552.0740, 58.99219
553.2500, 9.819336
554.4250, 35.96826
555.6000, 42.29102
556.7750, 27.68115
557.9500, 1.830078
559.1250, 55.98340
560.2990, 72.19385
561.4730, 62.13916
562.6480, 86.66357
563.8220, 4.728027
564.9950, 58.23291
566.1690, 5.022949
567.3430, 37.96826
568.5160, 62.05371
569.6890, 92.86768
570.8620, 58.89990
572.0350, 1.343262
573.2070, 164.4395
574.3800, 3.147461
575.5520, 57.36035
576.7240, 147.6738
577.8960, 92.90723
579.0680, 42.13672
580.2400, 1.580078
581.4110, 120.2480
582.5830, 83.24365
583.7540, 60.56299
584.9250, 69.14062
586.0950, 27.46924
587.2660, 47.26367
588.4370, 13.37549
589.6070, 77.19287
590.7770, 48.71240
591.9470, 41.57666
593.1170, 65.80664
594.2860, 77.27002
595.4560, 56.49414
596.6250, 128.5518
597.7940, 5.718750
598.9630, 56.27197
600.1320, 19.57617
601.3000, 96.14209
602.4690, 144.4824
603.6370, 51.76611
604.8050, 60.43555
605.9730, 127.5396
607.1410, 65.87207
608.3090, 96.15479
609.4760, 146.9780
610.6430, 91.00146
611.8100, 69.37402
612.9770, 127.7974
614.1440, 131.0317
615.3110, 59.30518
616.4770, 5.735352
617.6430, 194.8003
618.8090, 54.47705
619.9750, 115.9321
621.1410, 202.5654
622.3070, 147.1045
623.4720, 127.7734
624.6370, 89.76270
625.8020, 85.29492
626.9670, 106.2793
628.1320, 127.3442
629.2970, 120.2695
630.4610, 109.8906
631.6250, 152.9385
632.7890, 212.6182
633.9530, 220.6118
635.1170, 140.6787
636.2810, 180.7500
637.4440, 282.6006
638.6070, 215.9209
639.7700, 280.9590
640.9330, 240.2969
642.0960, 414.6606
643.2590, 360.7402
644.4210, 412.2324
645.5830, 599.9761
646.7450, 700.9678
647.9070, 926.3022
649.0690, 932.6050
650.2310, 1096.218
651.3920, 1213.032
652.5530, 1066.921
653.7140, 1125.969
654.8750, 939.2930
656.0360, 667.7476
657.1970, 608.4580
658.3570, 585.4858
659.5170, 391.4326
660.6770, 292.5361
661.8370, 228.8696
662.9970, 231.2627
664.1570, 177.1050
665.3160, 294.7676
666.4750, 175.4258
667.6340, 206.1885
668.7930, 113.9551
669.9520, 69.85596
671.1110, 173.7554
672.2690, 220.5884
673.4270, 94.83350
674.5850, 116.1567
675.7430, 180.2808
676.9010, 183.1660
678.0590, 124.2124
679.2160, 161.3677
680.3730, 79.09180
681.5300, 251.5581
682.6870, 7.546875
683.8440, 204.3945
685.0010, 84.58398
686.1570, 196.0225
687.3130, 99.44189
688.4690, 102.9199
689.6250, 128.4927
690.7810, 123.8481
691.9370, 234.8301
693.0920, 154.7070
694.2470, 77.61621
695.4020, 214.5049
696.5570, 116.4038
697.7120, 96.88477
698.8670, 75.50732
700.0210, 77.04443
701.1750, 195.4097
702.3290, 37.01660
703.4830, 133.2334
704.6370, 74.78613
705.7910, 180.7168
706.9440, 150.2129
708.0970, 171.8018
709.2510, 150.9170
710.4030, 62.71680
711.5560, 76.98828
712.7090, 13.07129
713.8610, 74.23730
715.0140, 35.34473
716.1660, 31.81934
717.3180, 45.13525
718.4690, 12.18213
719.6210, 99.18945
720.7730, 87.58447
721.9240, 91.89209
723.0750, 129.4526
724.2260, 138.0361
725.3770, 143.4536
726.5270, 197.5625
727.6780, 104.8379
728.8280, 83.87158
729.9780, 36.66748
731.1280, 67.80664
732.2780, 91.49219
733.4280, 33.70264
734.5770, 48.99707
735.7260, 92.17334
736.8760, 27.69043
738.0250, 0.2290040
739.1730, 80.70996
740.3220, 166.6504
741.4700, 163.7847
742.6190, 64.11963
743.7670, 27.13086
744.9150, 87.86328
746.0630, 130.4243
747.2100, 161.4932
748.3580, 41.30518
749.5050, 45.26514
750.6520, 14.87842
751.7990, 60.97949
752.9460, 12.98145
754.0930, 33.86865
755.2390, 46.87598
756.3860, 96.44873
757.5320, 104.6001
758.6780, 124.3936
759.8240, 57.61816
760.9690, 165.5103
762.1150, 12.00879
763.2600, 80.78223
764.4060, 136.2285
765.5510, 103.8535
766.6950, 173.3052
767.8400, 154.6855
768.9850, 76.13965
770.1290, 111.5674
771.2730, 107.2451
772.4170, 27.17676
773.5610, 29.83594
774.7050, 41.93555
775.8480, 158.6426
776.9920, 22.35059
778.1350, 138.6611
779.2780, 126.3643
780.4210, 17.84180
781.5640, 103.0137
782.7060, 40.20996
783.8490, 198.4199
784.9910, 111.6299
786.1330, 57.52344
787.2750, 77.08301
788.4170, 160.5869
789.5580, 75.40430
790.7000, 71.47852
791.8410, 51.05469
792.9820, 3.637695
794.1230, 51.31055
795.2640, 83.20605
796.4040, 216.2080
797.5450, 200.2012
798.6850, 131.3047
799.8250, 70.83398
800.9650, 190.6377
802.1050, 180.0859
803.2450, 204.9541
804.3840, 156.9512
805.5230, 152.8340
806.6630, 75.46387
807.8020, 76.28125
808.9400, 93.68359
810.0790, 147.4902
811.2170, 49.91504
812.3560, 188.5732
813.4940, 116.4590
814.6320, 154.6680
815.7700, 88.67480
816.9070, 157.4873
818.0450, 49.96387
819.1820, 170.7100
820.3190, 139.0137
821.4560, 285.7725
822.5930, 223.6719
823.7300, 185.2148
824.8670, 130.7588
826.0030, 152.2246
827.1390, 183.0156
828.2750, 212.0205
829.4110, 167.7676
830.5470, 166.0713
831.6820, 156.3301
832.8180, 118.6943
833.9530, 172.4512
835.0880, 171.4893
836.2230, 186.2666
837.3580, 195.3789
838.4920, 140.8369
839.6270, 130.1719
840.7610, 85.17285
841.8950, 155.3867
843.0290, 60.76074
844.1630, 5.245117
845.2960, 139.0859
846.4300, 161.7803
847.5630, 208.6133
848.6960, 13.16406
849.8290, 192.5801
850.9620, 257.1387
852.0940, 102.5107
853.2270, 279.4424
854.3590, 173.1084
855.4910, 123.5586
856.6230, 127.8906
857.7550, 93.76074
858.8870, 226.1348
860.0180, 206.6826
861.1500, 264.8604
862.2810, 271.1611
863.4120, 159.7207
864.5430, 60.79492
865.6730, 107.5703
866.8040, 82.05176
867.9340, 57.13184
869.0640, 120.8203
870.1940, 79.18848
871.3240, 135.1484
872.4540, 237.2168
873.5830, 180.3730
874.7130, 225.4355
875.8420, 79.31250
876.9710, 68.91992
878.1000, 111.6982
879.2290, 174.1230
880.3570, 74.07227
881.4860, 239.9736
882.6140, 125.0625
883.7420, 122.1641
884.8700, 182.5391
885.9980, 10.44824
887.1250, 73.38086
888.2530, 74.90918
889.3800, 152.4795
890.5070, 159.6885
891.6340, 128.4404
892.7610, 84.17969
893.8880, 186.8838
895.0140, 16.44531
896.1400, 144.7500
897.2670, 200.5596
898.3930, 309.0879
899.5180, 119.7285
900.6440, 90.19043
901.7700, 9.101563
902.8950, 89.26172
904.0200, 88.99219
905.1450, 14.72266
906.2700, 75.89453
907.3950, 38.53516
908.5190, 162.8662
909.6440, 90.73828
910.7680, 49.62402
911.8920, 150.2246
913.0160, 72.53027
914.1400, 122.7158
915.2630, 22.01855
916.3870, 51.30273
917.5100, 4.983398
918.6330, 54.67383
919.7560, 143.6982
920.8790, 37.06543
922.0010, 80.00000
923.1240, 177.9404
924.2460, 117.4824
925.3680, 69.71973
926.4900, 123.0557
927.6120, 103.2578
928.7340, 79.01660
929.8550, 40.72754
930.9760, 24.12891
932.0980, 17.27344
933.2190, 95.97754
934.3390, 17.30371
935.4600, 76.55273
936.5810, 78.48828
937.7010, 71.85645
938.8210, 104.5947
939.9410, 126.8887
941.0610, 90.30859
942.1810, 188.8877
943.3010, 124.8076
944.4200, 30.74512
945.5390, 49.75879
946.6580, 161.6572
947.7770, 143.0801
948.8960, 14.92578
950.0150, 241.0869
951.1330, 86.02930
952.2510, 71.37695
953.3690, 110.4824
954.4870, 100.3486
955.6050, 17.22168
956.7230, 89.74512
957.8400, 144.8311
958.9580, 111.1924
960.0750, 107.8594
961.1920, 0.4765630
962.3090, 171.0605
963.4250, 314.8721
964.5420, 95.13184
965.6580, 216.6592
966.7740, 299.1680
967.8900, 97.83789
969.0060, 200.6055
970.1220, 212.2422
971.2380, 342.8252
972.3530, 349.3320
973.4680, 207.8730
974.5830, 267.8516
975.6980, 300.4990
976.8130, 252.4258
977.9280, 11.09375
979.0420, 188.0947
980.1560, 12.48633
981.2710, 138.1289
982.3850, 47.53320
983.4980, 120.6025
984.6120, 125.2070
985.7260, 112.9121
986.8390, 40.30078
987.9520, 55.79102
989.0650, 1.433594
990.1780, 86.61035
991.2910, 25.50000
992.4030, 50.94629
993.5160, 164.6934
994.6280, 60.14258
995.7400, 185.3906
996.8520, 152.9727
997.9640, 151.3545
999.0750, 175.4131
1000.187, 129.5117
1001.298, 335.4375
1002.409, 18.62109
1003.520, 30.02930
1004.631, 207.5684
1005.741, 199.5898
1006.852, 185.1816
1007.962, 259.5410
1009.072, 158.6562
1010.182, 282.7207
1011.292, 212.4414
1012.402, 170.0254
1013.511, 60.65234
1014.621, 267.5723
1015.730, 237.0625
1016.839, 66.92578
1017.948, 416.3203
1019.056, 121.6875
1020.165, 261.3809
1021.273, 158.9883
1022.382, 280.7090
1023.490, 422.0957
1024.598, 225.7188
1025.706, 250.9141
1026.813, 239.5625
1027.921, 266.4238
1029.028, 229.9629
1030.135, 185.8711
1031.242, 281.0234
1032.349, 108.3574
1033.456, 153.7539
1034.562, 224.3691
1035.668, 205.5430
1036.775, 251.4570
1037.881, 251.2168
1038.987, 169.6816
1040.092, 205.6992
1041.198, 237.2246
1042.303, 153.6113
1043.408, 115.3086
1044.514, 72.95703
1045.618, 149.5234
1046.723, 289.6191
1047.828, 57.16992
1048.932, 280.8535
1050.037, 276.4277
1051.141, 268.1113
1052.245, 146.2656
1053.349, 266.1445
1054.452, 280.5000
1055.556, 217.5352
1056.659, 174.6230
1057.762, 128.0488
1058.865, 89.80469
1059.968, 74.22461
1061.071, 64.50195
1062.174, 101.7305
1063.276, 168.5508
1064.378, 270.2715
1065.480, 203.9023
1066.582, 132.3867
1067.684, 87.91406
1068.786, 223.1191
1069.887, 259.4492
1070.988, 305.0508
1072.090, 243.2266
1073.191, 178.6660
1074.291, 311.1602
1075.392, 162.0273
1076.493, 262.0410
1077.593, 381.1055
1078.693, 405.9316
1079.793, 342.9395
1080.893, 282.7832
1081.993, 421.3574
1083.092, 178.3457
1084.192, 118.4004
1085.291, 337.4180
1086.390, 178.3496
1087.489, 218.2207
1088.588, 202.6328
1089.686, 238.6211
1090.785, 377.4844
1091.883, 305.6113
1092.981, 348.9043
1094.079, 279.2188
1095.177, 180.5586
1096.275, 259.4980
1097.373, 136.0312
1098.470, 114.6367
1099.567, 288.9844
1100.664, 243.7969
1101.761, 430.7422
1102.858, 308.8477
1103.954, 235.8418
1105.051, 95.32227
1106.147, 245.6387
1107.243, 463.2051
1108.339, 209.7715
1109.435, 133.6699
1110.531, 252.9199
1111.626, 312.3867
1112.722, 158.7969
1113.817, 421.7832
1114.912, 348.7773
1116.007, 150.5391
1117.101, 202.9375
1118.196, 32.97266
1119.290, 71.36719
1120.385, 125.7754
1121.479, 105.9219
1122.573, 83.45703
1123.666, 73.41016
1124.760, 11.29688
1125.853, 0.0000000E+00
##END=



