##NAMES=Pectolite
##RRUFFID=R060101
##IDEAL CHEMISTRY=NaCa_2_Si_3_O_8_(OH)
##LOCALITY=West Patterson, New Jersey, USA
##OWNER=RRUFF
##SOURCE=University of Arizona Mineral Museum
##DESCRIPTION=Tufts of white acicular sprays
##STATUS=The identification of this mineral has been confirmed by X-ray diffraction and chemical analysis
##URL=rruff.info/R060101
##MEASURED CHEMISTRY=Na_1.02_Ca_2.00_Si_2.99_O_8_(OH)
##PIN_ID=M00258
##ORIENTATION=Laser parallel to c* (0 0 1). Fiducial mark perpendicular to laser is parallel to a [1 0 0]
115.2200, 0.0000000E+00
116.4580, 38.20398
117.6970, 11.78638
118.9350, 63.67859
120.1730, 50.31421
121.4100, 39.28284
122.6480, 65.73315
123.8850, 2.432861
125.1230, 11.68494
126.3600, 14.01331
127.5960, 40.54773
128.8330, 15.26367
130.0700, 15.13367
131.3060, 33.18970
132.5420, 70.30151
133.7780, 73.20178
135.0140, 108.6506
136.2500, 90.86462
137.4850, 78.11768
138.7200, 62.62109
139.9550, 81.32349
141.1900, 81.97046
142.4250, 92.62280
143.6600, 124.1539
144.8940, 128.2896
146.1280, 178.7206
147.3620, 213.2334
148.5960, 213.7557
149.8300, 183.2937
151.0630, 177.7861
152.2960, 148.2175
153.5300, 121.9481
154.7620, 83.28308
155.9950, 119.5525
157.2280, 66.31311
158.4600, 61.76392
159.6920, 43.58154
160.9250, 15.01794
162.1560, 8.051880
163.3880, 5.921631
164.6200, 62.97388
165.8510, 15.23499
167.0820, 42.84460
168.3130, 47.49146
169.5440, 20.91455
170.7750, 23.93188
172.0050, 50.91260
173.2350, 1.590820
174.4650, 34.07556
175.6950, 21.34558
176.9250, 3.182983
178.1550, 39.80786
179.3840, 24.84424
180.6130, 72.38489
181.8420, 51.99341
183.0710, 31.09180
184.3000, 58.30115
185.5280, 63.16699
186.7570, 69.83093
187.9850, 36.31140
189.2130, 34.10156
190.4400, 11.98718
191.6680, 43.12781
192.8960, 35.78735
194.1230, 62.71277
195.3500, 39.32971
196.5770, 50.28076
197.8030, 28.66699
199.0300, 11.13867
200.2560, 44.01160
201.4830, 26.82446
202.7090, 48.06848
203.9340, 18.15894
205.1600, 14.36743
206.3860, 45.22656
207.6110, 12.83447
208.8360, 46.47742
210.0610, 2.270386
211.2860, 75.93237
212.5100, 20.06006
213.7350, 86.66199
214.9590, 34.89575
216.1830, 9.120972
217.4070, 40.54456
218.6310, 53.86438
219.8540, 24.91846
221.0780, 62.85413
222.3010, 43.52771
223.5240, 59.42261
224.7470, 65.58691
225.9690, 79.49792
227.1920, 87.44031
228.4140, 95.46570
229.6360, 41.56799
230.8580, 69.49854
232.0800, 37.38171
233.3020, 53.13025
234.5230, 43.66614
235.7440, 80.23389
236.9650, 56.50427
238.1860, 42.16956
239.4070, 30.83032
240.6280, 11.29456
241.8480, 13.75610
243.0680, 13.74927
244.2880, 31.05054
245.5080, 39.69775
246.7280, 11.07910
247.9470, 44.42688
249.1660, 5.746948
250.3860, 9.295288
251.6040, 32.80054
252.8230, 45.36658
254.0420, 51.25586
255.2600, 60.35693
256.4790, 67.14722
257.6970, 64.87793
258.9150, 74.50012
260.1320, 74.13342
261.3500, 69.61060
262.5670, 37.04553
263.7840, 50.31482
265.0010, 41.45996
266.2180, 11.84436
267.4350, 46.08838
268.6510, 53.31860
269.8680, 59.53320
271.0840, 123.7000
272.3000, 112.8870
273.5160, 62.05371
274.7310, 52.30078
275.9470, 94.42383
277.1620, 122.8081
278.3770, 52.15723
279.5920, 90.70093
280.8070, 65.91211
282.0210, 64.43018
283.2360, 12.94214
284.4500, 63.17065
285.6640, 21.34912
286.8780, 65.15259
288.0920, 23.52539
289.3050, 22.74268
290.5180, 3.931396
291.7320, 18.76636
292.9450, 47.45703
294.1570, 53.71069
295.3700, 22.01343
296.5830, 57.25073
297.7950, 43.24487
299.0070, 32.46460
300.2190, 25.68628
301.4310, 10.05933
302.6420, 26.17529
303.8540, 101.3630
305.0650, 6.538818
306.2760, 26.52954
307.4870, 60.53491
308.6980, 8.591553
309.9080, 9.366699
311.1190, 70.18066
312.3290, 19.77856
313.5390, 93.57251
314.7490, 68.24854
315.9580, 42.72607
317.1680, 38.35229
318.3770, 36.54834
319.5860, 37.77393
320.7950, 50.37988
322.0040, 64.08521
323.2130, 65.43774
324.4210, 90.65552
325.6290, 55.11816
326.8380, 88.49683
328.0460, 99.85815
329.2530, 74.40356
330.4610, 72.65015
331.6680, 66.85791
332.8760, 28.06079
334.0830, 62.15894
335.2890, 73.51123
336.4960, 23.22583
337.7030, 39.95947
338.9090, 77.00171
340.1150, 23.05518
341.3210, 55.00366
342.5270, 28.05933
343.7330, 59.75415
344.9380, 40.52393
346.1440, 47.45166
347.3490, 56.22729
348.5540, 45.08301
349.7590, 78.72656
350.9630, 74.07349
352.1680, 80.77002
353.3720, 96.16431
354.5760, 46.48340
355.7800, 118.2837
356.9840, 64.47949
358.1870, 74.73315
359.3910, 43.72852
360.5940, 73.60767
361.7970, 26.75757
363.0000, 85.54272
364.2030, 51.00684
365.4050, 78.06616
366.6080, 55.70630
367.8100, 76.55054
369.0120, 73.74927
370.2140, 88.85913
371.4150, 137.8926
372.6170, 117.7734
373.8180, 245.7603
375.0190, 218.3386
376.2200, 288.1543
377.4210, 282.6768
378.6220, 250.2363
379.8220, 272.2974
381.0230, 221.9265
382.2230, 213.4250
383.4230, 114.9065
384.6220, 146.7771
385.8220, 144.8052
387.0220, 13.68213
388.2210, 39.70312
389.4200, 79.88818
390.6190, 107.1646
391.8180, 93.28198
393.0160, 64.37280
394.2150, 105.2556
395.4130, 1.994141
396.6110, 68.83008
397.8090, 25.82446
399.0060, 96.63379
400.2040, 112.6396
401.4010, 67.56104
402.5980, 130.3335
403.7950, 139.9507
404.9920, 85.80957
406.1890, 140.4629
407.3860, 225.1826
408.5820, 232.7964
409.7780, 206.5488
410.9740, 253.6685
412.1700, 211.9858
413.3650, 263.3938
414.5610, 264.6709
415.7560, 222.1443
416.9510, 195.5562
418.1460, 166.7783
419.3410, 197.9575
420.5360, 124.1768
421.7300, 127.5969
422.9240, 75.46265
424.1180, 149.7048
425.3120, 70.61060
426.5060, 66.60303
427.7000, 128.3784
428.8930, 62.32959
430.0860, 47.34546
431.2790, 83.81250
432.4720, 86.15308
433.6650, 98.75952
434.8580, 63.57129
436.0500, 71.83691
437.2420, 58.09521
438.4340, 46.38257
439.6260, 38.68604
440.8180, 6.054688
442.0090, 10.13672
443.2010, 9.864990
444.3920, 17.08179
445.5830, 13.77173
446.7740, 24.34277
447.9640, 39.05396
449.1550, 36.81836
450.3450, 40.10303
451.5350, 63.89307
452.7250, 28.55200
453.9150, 58.79150
455.1050, 102.6196
456.2940, 48.19360
457.4830, 68.61792
458.6720, 113.9370
459.8610, 71.43457
461.0500, 2.162598
462.2390, 97.40503
463.4270, 53.68311
464.6150, 23.18652
465.8040, 53.09009
466.9910, 123.2522
468.1790, 56.22510
469.3670, 68.12134
470.5540, 64.36377
471.7410, 14.33716
472.9280, 74.99170
474.1150, 76.85840
475.3020, 70.49390
476.4890, 88.09058
477.6750, 19.49390
478.8610, 14.23486
480.0470, 39.42432
481.2330, 65.84985
482.4190, 56.70068
483.6040, 73.86060
484.7900, 69.58911
485.9750, 76.82056
487.1600, 61.08765
488.3450, 43.01929
489.5290, 50.68188
490.7140, 36.26025
491.8980, 41.89282
493.0820, 83.48706
494.2660, 32.10596
495.4500, 62.57373
496.6340, 100.8572
497.8170, 84.82178
499.0010, 123.0864
500.1840, 55.01611
501.3670, 150.9868
502.5500, 139.3970
503.7320, 38.87402
504.9150, 147.0918
506.0970, 31.50488
507.2790, 45.67090
508.4610, 173.8975
509.6430, 95.97217
510.8250, 17.07227
512.0060, 34.09814
513.1870, 48.12256
514.3680, 72.28857
515.5490, 37.30811
516.7300, 85.47217
517.9110, 46.57715
519.0910, 74.61768
520.2710, 71.60107
521.4510, 3.477051
522.6310, 62.63965
523.8110, 61.30811
524.9910, 41.68018
526.1700, 4.000000
527.3490, 98.21582
528.5280, 129.5317
529.7070, 84.91797
530.8860, 53.58936
532.0650, 31.45898
533.2430, 29.97217
534.4210, 62.66943
535.5990, 42.26611
536.7770, 89.99365
537.9550, 83.70312
539.1320, 54.54297
540.3100, 94.39209
541.4870, 46.71777
542.6640, 63.33691
543.8410, 86.73389
545.0170, 124.0298
546.1940, 56.42236
547.3700, 91.71484
548.5470, 32.93994
549.7230, 61.32959
550.8980, 9.649414
552.0740, 118.7681
553.2500, 96.81982
554.4250, 71.88525
555.6000, 25.40430
556.7750, 83.76904
557.9500, 88.17725
559.1250, 82.10986
560.2990, 71.76172
561.4730, 93.76855
562.6480, 46.14893
563.8220, 113.9390
564.9950, 51.54102
566.1690, 96.10352
567.3430, 61.97412
568.5160, 47.86963
569.6890, 46.66504
570.8620, 25.39404
572.0350, 139.8159
573.2070, 128.2212
574.3800, 39.79834
575.5520, 153.1372
576.7240, 18.11377
577.8960, 61.27393
579.0680, 68.13672
580.2400, 82.06934
581.4110, 81.80908
582.5830, 52.65625
583.7540, 24.75098
584.9250, 43.56982
586.0950, 79.15723
587.2660, 64.35693
588.4370, 38.22754
589.6070, 80.39941
590.7770, 171.1284
591.9470, 71.28857
593.1170, 29.21533
594.2860, 103.5654
595.4560, 32.57324
596.6250, 29.56055
597.7940, 126.7910
598.9630, 41.88037
600.1320, 35.35547
601.3000, 2.044434
602.4690, 62.11963
603.6370, 41.73096
604.8050, 0.3583980
605.9730, 130.4375
607.1410, 56.95166
608.3090, 114.5547
609.4760, 83.74756
610.6430, 20.80762
611.8100, 82.93896
612.9770, 119.7207
614.1440, 53.83252
615.3110, 89.85645
616.4770, 46.82227
617.6430, 113.5371
618.8090, 29.90137
619.9750, 89.23242
621.1410, 43.37598
622.3070, 2.374512
623.4720, 61.66553
624.6370, 22.49268
625.8020, 97.58691
626.9670, 32.03174
628.1320, 78.78369
629.2970, 135.1006
630.4610, 150.0332
631.6250, 111.9434
632.7890, 140.9443
633.9530, 118.5962
635.1170, 147.0645
636.2810, 192.6348
637.4440, 205.3091
638.6070, 197.5581
639.7700, 209.9155
640.9330, 196.1523
642.0960, 363.3164
643.2590, 339.8198
644.4210, 333.6875
645.5830, 287.4385
646.7450, 467.7227
647.9070, 619.4897
649.0690, 706.8486
650.2310, 766.2324
651.3920, 725.3291
652.5530, 749.6655
653.7140, 687.0278
654.8750, 577.6333
656.0360, 619.8462
657.1970, 362.1353
658.3570, 342.7129
659.5170, 299.4326
660.6770, 364.3594
661.8370, 235.7842
662.9970, 89.89600
664.1570, 146.3940
665.3160, 87.37744
666.4750, 127.3823
667.6340, 86.87793
668.7930, 155.2446
669.9520, 106.6621
671.1110, 85.02197
672.2690, 108.8213
673.4270, 181.2695
674.5850, 87.92188
675.7430, 82.74854
676.9010, 130.6274
678.0590, 51.71191
679.2160, 168.0801
680.3730, 109.4126
681.5300, 39.79590
682.6870, 32.06250
683.8440, 102.9199
685.0010, 74.22559
686.1570, 28.25977
687.3130, 83.28223
688.4690, 71.62305
689.6250, 72.73682
690.7810, 104.5269
691.9370, 105.8452
693.0920, 87.12207
694.2470, 156.8574
695.4020, 25.19824
696.5570, 192.4561
697.7120, 51.79004
698.8670, 78.61035
700.0210, 8.980957
701.1750, 68.92383
702.3290, 2.948730
703.4830, 5.403320
704.6370, 8.102051
705.7910, 70.59521
706.9440, 44.07275
708.0970, 113.3003
709.2510, 46.39404
710.4030, 91.07520
711.5560, 115.0620
712.7090, 64.85547
713.8610, 117.2373
715.0140, 153.7104
716.1660, 103.5996
717.3180, 144.1016
718.4690, 98.08105
719.6210, 123.2236
720.7730, 138.4258
721.9240, 121.0166
723.0750, 158.5693
724.2260, 63.41895
725.3770, 68.31738
726.5270, 262.9883
727.6780, 30.45605
728.8280, 208.1680
729.9780, 92.11133
731.1280, 154.9160
732.2780, 9.309570
733.4280, 98.96387
734.5770, 130.0898
735.7260, 8.119141
736.8760, 23.60352
738.0250, 19.48535
739.1730, 111.1943
740.3220, 81.25098
741.4700, 106.0459
742.6190, 40.01367
743.7670, 122.0947
744.9150, 35.00293
746.0630, 66.00098
747.2100, 79.00098
748.3580, 105.0098
749.5050, 65.49023
750.6520, 78.10156
751.7990, 45.05176
752.9460, 49.64355
754.0930, 39.10059
755.2390, 98.31641
756.3860, 95.55664
757.5320, 77.80273
758.6780, 136.2539
759.8240, 119.7139
760.9690, 141.1602
762.1150, 2.127930
763.2600, 109.1953
764.4060, 22.61816
765.5510, 149.8330
766.6950, 217.2178
767.8400, 59.33594
768.9850, 39.95605
770.1290, 18.32129
771.2730, 112.5215
772.4170, 93.19434
773.5610, 67.43750
774.7050, 69.38184
775.8480, 41.47754
776.9920, 131.3330
778.1350, 74.07129
779.2780, 170.6924
780.4210, 60.23730
781.5640, 93.66504
782.7060, 211.4316
783.8490, 23.21094
784.9910, 83.41211
786.1330, 53.48828
787.2750, 115.3623
788.4170, 20.49414
789.5580, 105.7695
790.7000, 96.21680
791.8410, 44.15723
792.9820, 85.23828
794.1230, 96.74609
795.2640, 208.7002
796.4040, 0.7236330
797.5450, 113.8477
798.6850, 27.08887
799.8250, 33.37305
800.9650, 148.2188
802.1050, 18.12500
803.2450, 92.15527
804.3840, 125.2803
805.5230, 167.2666
806.6630, 91.36719
807.8020, 54.26270
808.9400, 145.8516
810.0790, 208.4541
811.2170, 172.7451
812.3560, 90.33398
813.4940, 105.7510
814.6320, 133.9248
815.7700, 43.16992
816.9070, 170.0908
818.0450, 89.97266
819.1820, 113.3047
820.3190, 213.0264
821.4560, 121.8779
822.5930, 97.34961
823.7300, 113.7939
824.8670, 196.3145
826.0030, 208.7891
827.1390, 181.3838
828.2750, 111.7207
829.4110, 188.8838
830.5470, 42.22363
831.6820, 132.3574
832.8180, 114.5791
833.9530, 79.31348
835.0880, 173.5283
836.2230, 31.44336
837.3580, 110.0273
838.4920, 234.7412
839.6270, 178.8721
840.7610, 101.8584
841.8950, 125.8652
843.0290, 73.18945
844.1630, 96.41895
845.2960, 105.2764
846.4300, 160.5381
847.5630, 180.0615
848.6960, 6.306641
849.8290, 180.2344
850.9620, 35.51465
852.0940, 233.0088
853.2270, 107.9902
854.3590, 218.0459
855.4910, 170.8770
856.6230, 134.2031
857.7550, 231.7725
858.8870, 64.48730
860.0180, 121.5088
861.1500, 123.6670
862.2810, 102.4678
863.4120, 120.6748
864.5430, 117.1377
865.6730, 109.8457
866.8040, 43.23535
867.9340, 60.48340
869.0640, 54.64941
870.1940, 75.02051
871.3240, 72.01953
872.4540, 85.87500
873.5830, 91.53711
874.7130, 77.83105
875.8420, 138.5654
876.9710, 57.81934
878.1000, 192.9492
879.2290, 88.25000
880.3570, 27.44434
881.4860, 131.5264
882.6140, 165.8916
883.7420, 109.5547
884.8700, 149.4395
885.9980, 156.6758
887.1250, 88.07422
888.2530, 83.24023
889.3800, 126.3799
890.5070, 116.9355
891.6340, 140.3594
892.7610, 67.23730
893.8880, 53.93359
895.0140, 18.49805
896.1400, 98.12012
897.2670, 35.02344
898.3930, 136.7998
899.5180, 164.2324
900.6440, 124.1768
901.7700, 106.2842
902.8950, 203.9844
904.0200, 52.53711
905.1450, 78.02930
906.2700, 118.8945
907.3950, 198.7051
908.5190, 75.85840
909.6440, 158.2754
910.7680, 99.72266
911.8920, 137.8945
913.0160, 151.6221
914.1400, 4.176758
915.2630, 223.4766
916.3870, 227.6064
917.5100, 361.8389
918.6330, 42.66797
919.7560, 33.00488
920.8790, 33.37109
922.0010, 46.11133
923.1240, 154.4766
924.2460, 94.99023
925.3680, 60.88770
926.4900, 125.0459
927.6120, 79.78320
928.7340, 177.3867
929.8550, 288.1006
930.9760, 114.7373
932.0980, 92.25488
933.2190, 184.4932
934.3390, 51.00488
935.4600, 236.7432
936.5810, 252.4512
937.7010, 137.2227
938.8210, 128.8584
939.9410, 103.3633
941.0610, 117.2119
942.1810, 100.2012
943.3010, 115.4014
944.4200, 110.5020
945.5390, 116.6523
946.6580, 169.6562
947.7770, 86.60938
948.8960, 18.46484
950.0150, 193.6094
951.1330, 183.5332
952.2510, 111.7832
953.3690, 142.8613
954.4870, 253.1133
955.6050, 267.2441
956.7230, 302.2949
957.8400, 242.1855
958.9580, 251.2227
960.0750, 226.1152
961.1920, 173.6758
962.3090, 241.3828
963.4250, 262.7891
964.5420, 175.1211
965.6580, 266.4883
966.7740, 329.8945
967.8900, 347.5137
969.0060, 304.8203
970.1220, 376.9902
971.2380, 353.1484
972.3530, 360.5430
973.4680, 374.7773
974.5830, 359.1348
975.6980, 394.8086
976.8130, 361.7168
977.9280, 330.7402
979.0420, 236.6582
980.1560, 284.9668
981.2710, 241.5332
982.3850, 304.9766
983.4980, 301.7988
984.6120, 243.1602
985.7260, 199.6387
986.8390, 246.4180
987.9520, 241.5273
989.0650, 222.5078
990.1780, 342.1250
991.2910, 88.08203
992.4030, 192.3086
993.5160, 138.1875
994.6280, 214.7383
995.7400, 277.1953
996.8520, 355.2383
997.9640, 361.4551
999.0750, 364.5059
1000.187, 295.4434
1001.298, 363.6582
1002.409, 442.8848
1003.520, 221.4512
1004.631, 384.8027
1005.741, 356.1250
1006.852, 425.3047
1007.962, 290.4199
1009.072, 248.3652
1010.182, 219.4609
1011.292, 401.9375
1012.402, 181.1816
1013.511, 233.6367
1014.621, 188.9727
1015.730, 122.6348
1016.839, 250.6758
1017.948, 194.9219
1019.056, 282.0391
1020.165, 476.0859
1021.273, 459.7480
1022.382, 441.2617
1023.490, 303.0059
1024.598, 364.6270
1025.706, 495.3320
1026.813, 460.5234
1027.921, 282.0547
1029.028, 221.6211
1030.135, 158.3477
1031.242, 181.3984
1032.349, 159.0273
1033.456, 155.7754
1034.562, 219.0508
1035.668, 132.2500
1036.775, 220.5898
1037.881, 140.6113
1038.987, 11.16992
1040.092, 117.7949
1041.198, 197.6465
1042.303, 350.8242
1043.408, 78.26953
1044.514, 42.10352
1045.618, 40.76758
1046.723, 171.2676
1047.828, 296.1465
1048.932, 58.52734
1050.037, 175.5371
1051.141, 202.4805
1052.245, 20.11719
1053.349, 79.27930
1054.452, 29.14648
1055.556, 65.61719
1056.659, 93.44531
1057.762, 265.2129
1058.865, 161.4258
1059.968, 178.9316
1061.071, 220.0762
1062.174, 2.574219
1063.276, 275.4160
1064.378, 248.4277
1065.480, 213.2090
1066.582, 19.71680
1067.684, 124.5156
1068.786, 281.4609
1069.887, 111.3965
1070.988, 182.7305
1072.090, 6.927734
1073.191, 1.896484
1074.291, 251.0508
1075.392, 173.7578
1076.493, 176.4941
1077.593, 23.91211
1078.693, 205.6484
1079.793, 31.00195
1080.893, 127.6035
1081.993, 89.31836
1083.092, 209.0469
1084.192, 229.4395
1085.291, 158.2598
1086.390, 354.3086
1087.489, 221.9434
1088.588, 134.0664
1089.686, 15.38477
1090.785, 312.4336
1091.883, 48.80273
1092.981, 72.06641
1094.079, 149.2070
1095.177, 13.64258
1096.275, 200.3516
1097.373, 251.3125
1098.470, 112.2012
1099.567, 224.6836
1100.664, 75.39258
1101.761, 125.1816
1102.858, 109.0273
1103.954, 323.0918
1105.051, 67.66406
1106.147, 204.0156
1107.243, 88.97461
1108.339, 213.2734
1109.435, 186.1094
1110.531, 80.15039
1111.626, 264.8750
1112.722, 75.66211
1113.817, 258.0137
1114.912, 154.9414
1116.007, 227.8926
1117.101, 243.3184
1118.196, 140.3105
1119.290, 403.7168
1120.385, 258.0195
1121.479, 93.72070
1122.573, 371.8418
1123.666, 432.7480
1124.760, 267.3516
1125.853, 531.0371
1126.947, 395.3633
1128.040, 182.9238
1129.133, 554.7617
1130.226, 150.9492
1131.318, 384.7949
1132.411, 182.3438
1133.503, 186.5879
1134.596, 302.9746
1135.688, 409.3730
1136.780, 332.6211
1137.871, 450.4922
1138.963, 405.0977
1140.054, 399.9199
1141.146, 443.4121
1142.237, 378.7012
1143.328, 274.3438
1144.419, 327.5332
1145.509, 245.4727
1146.600, 261.6250
1147.690, 165.7012
1148.780, 268.5254
1149.870, 332.4395
1150.960, 318.4961
1152.050, 336.2188
1153.139, 316.0527
1154.229, 261.9414
1155.318, 252.6289
1156.407, 217.0176
1157.496, 228.5117
1158.585, 106.6934
1159.674, 219.0020
1160.762, 264.3711
1161.850, 164.2734
1162.939, 447.4492
1164.027, 359.8184
1165.114, 191.2559
1166.202, 207.6582
1167.290, 369.5527
1168.377, 155.9980
1169.464, 319.3242
1170.551, 298.0645
1171.638, 504.8164
1172.725, 231.9473
1173.812, 220.3477
1174.898, 59.66016
1175.984, 313.6211
1177.071, 336.7852
1178.157, 229.9512
1179.242, 139.1387
1180.328, 443.5566
1181.414, 79.45117
1182.499, 283.2383
1183.584, 387.8301
1184.669, 96.12695
1185.754, 321.7656
1186.839, 201.3027
1187.924, 290.9707
1189.008, 247.7656
1190.092, 240.9316
1191.177, 307.5762
1192.260, 423.1797
1193.344, 241.5098
1194.428, 283.6738
1195.512, 278.9961
1196.595, 174.9883
1197.678, 238.9141
1198.761, 248.8105
1199.844, 271.2949
1200.927, 329.3711
1202.009, 185.8262
1203.092, 25.43555
1204.174, 5.384766
1205.256, 397.1348
1206.338, 139.2871
1207.420, 254.9297
1208.502, 133.3203
1209.583, 163.0527
1210.665, 75.50781
1211.746, 206.5410
1212.827, 17.18359
1213.908, 109.9004
1214.988, 0.0000000E+00
##END=



