##NAMES=Pectolite
##RRUFFID=R050396
##IDEAL CHEMISTRY=NaCa_2_Si_3_O_8_(OH)
##LOCALITY=Jeffrey Quarry, Asbestos, Quebec, Canada
##OWNER=RRUFF
##SOURCE=Marcus Origlieri
##DESCRIPTION=Colorless to gray columnar blocky crystals
##STATUS=The identification of this mineral has been confirmed by X-ray diffraction and chemical analysis
##URL=rruff.info/R050396
##MEASURED CHEMISTRY=Na_1.00_Ca_2.00_Si_3.00_O_8_(OH)
##PIN_ID=M00091
##ORIENTATION=Laser parallel to (0 -1 -1). Fiducial mark perpendicular to laser is parallel to a [1 0 0]
116.4580, 0.0000000E+00
117.6970, 54.42578
118.9350, 61.95386
120.1730, 26.79932
121.4100, 91.25146
122.6480, 5.265625
123.8850, 53.11304
125.1230, 25.12769
126.3600, 64.57690
127.5960, 63.37231
128.8330, 138.5137
130.0700, 157.4707
131.3060, 299.5090
132.5420, 319.5737
133.7780, 492.6624
135.0140, 504.7878
136.2500, 751.9370
137.4850, 734.2090
138.7200, 864.7700
139.9550, 947.7642
141.1900, 1041.384
142.4250, 1121.671
143.6600, 1077.832
144.8940, 1119.477
146.1280, 1152.448
147.3620, 975.5093
148.5960, 838.8052
149.8300, 834.1299
151.0630, 710.6580
152.2960, 574.1692
153.5300, 492.6035
154.7620, 338.1453
155.9950, 206.3872
157.2280, 213.9673
158.4600, 124.6616
159.6920, 47.67236
160.9250, 15.29248
162.1560, 4.371826
163.3880, 82.16138
164.6200, 95.94165
165.8510, 88.86279
167.0820, 18.08643
168.3130, 38.62695
169.5440, 36.29932
170.7750, 83.94019
172.0050, 9.634033
173.2350, 38.36230
174.4650, 30.12476
175.6950, 0.1301270
176.9250, 68.14014
178.1550, 103.4136
179.3840, 55.70044
180.6130, 108.3818
181.8420, 142.1733
183.0710, 102.6831
184.3000, 42.77393
185.5280, 225.5415
186.7570, 121.2769
187.9850, 133.0220
189.2130, 69.37109
190.4400, 125.6387
191.6680, 100.6021
192.8960, 45.55859
194.1230, 202.5015
195.3500, 66.44287
196.5770, 54.38623
197.8030, 37.32910
199.0300, 121.3096
200.2560, 10.57861
201.4830, 102.2573
202.7090, 66.42969
203.9340, 22.68457
205.1600, 92.07910
206.3860, 112.8325
207.6110, 76.44531
208.8360, 40.87256
210.0610, 24.14990
211.2860, 18.73486
212.5100, 55.66455
213.7350, 64.59326
214.9590, 128.5181
216.1830, 77.45654
217.4070, 51.38428
218.6310, 148.3047
219.8540, 100.2139
221.0780, 155.1138
222.3010, 132.0562
223.5240, 211.9438
224.7470, 109.3794
225.9690, 252.7437
227.1920, 113.1792
228.4140, 171.9458
229.6360, 106.0947
230.8580, 113.9590
232.0800, 207.3203
233.3020, 233.0630
234.5230, 105.8750
235.7440, 32.46826
236.9650, 116.3330
238.1860, 60.95850
239.4070, 6.523926
240.6280, 74.54297
241.8480, 29.01855
243.0680, 93.41162
244.2880, 65.80957
245.5080, 6.840332
246.7280, 73.48291
247.9470, 70.78369
249.1660, 126.0610
250.3860, 17.31104
251.6040, 81.74023
252.8230, 9.261230
254.0420, 49.90479
255.2600, 89.09521
256.4790, 29.19678
257.6970, 47.69824
258.9150, 69.71338
260.1320, 142.6362
261.3500, 60.21826
262.5670, 166.2261
263.7840, 67.13281
265.0010, 220.0352
266.2180, 161.9175
267.4350, 187.7324
268.6510, 158.5557
269.8680, 159.9878
271.0840, 203.8125
272.3000, 211.7993
273.5160, 188.8433
274.7310, 230.8936
275.9470, 164.9521
277.1620, 208.7354
278.3770, 219.1460
279.5920, 190.1494
280.8070, 156.6660
282.0210, 170.0254
283.2360, 99.14697
284.4500, 4.571777
285.6640, 7.050293
286.8780, 33.09863
288.0920, 56.27783
289.3050, 7.211914
290.5180, 101.0698
291.7320, 117.2305
292.9450, 85.39111
294.1570, 61.63379
295.3700, 19.19287
296.5830, 131.9302
297.7950, 37.26416
299.0070, 87.36426
300.2190, 8.608887
301.4310, 138.5278
302.6420, 129.5991
303.8540, 80.60059
305.0650, 45.64746
306.2760, 178.5581
307.4870, 205.3911
308.6980, 176.3872
309.9080, 185.3174
311.1190, 231.1035
312.3290, 288.9624
313.5390, 314.0586
314.7490, 381.8950
315.9580, 350.2427
317.1680, 410.9131
318.3770, 425.7842
319.5860, 399.2031
320.7950, 301.7437
322.0040, 327.0874
323.2130, 280.7002
324.4210, 342.4609
325.6290, 192.2935
326.8380, 144.0391
328.0460, 238.6484
329.2530, 167.0454
330.4610, 65.41992
331.6680, 144.9561
332.8760, 24.22949
334.0830, 18.54346
335.2890, 35.73877
336.4960, 32.33301
337.7030, 107.8447
338.9090, 25.52783
340.1150, 149.2974
341.3210, 93.36230
342.5270, 11.34180
343.7330, 13.16064
344.9380, 33.18848
346.1440, 175.1860
347.3490, 53.39453
348.5540, 67.20312
349.7590, 186.3291
350.9630, 129.0610
352.1680, 172.8042
353.3720, 290.6313
354.5760, 203.9355
355.7800, 108.5054
356.9840, 268.5293
358.1870, 149.0439
359.3910, 221.1221
360.5940, 166.6060
361.7970, 81.66650
363.0000, 141.9268
364.2030, 7.110840
365.4050, 142.0820
366.6080, 193.3096
367.8100, 169.7876
369.0120, 171.6719
370.2140, 224.7437
371.4150, 279.1260
372.6170, 272.0747
373.8180, 320.1401
375.0190, 442.0400
376.2200, 214.2983
377.4210, 329.5332
378.6220, 448.5205
379.8220, 236.5371
381.0230, 237.2651
382.2230, 262.1772
383.4230, 171.0757
384.6220, 153.8945
385.8220, 142.7725
387.0220, 152.0591
388.2210, 112.1265
389.4200, 104.2397
390.6190, 95.09375
391.8180, 74.30371
393.0160, 59.67285
394.2150, 79.16260
395.4130, 28.74219
396.6110, 10.56445
397.8090, 114.6602
399.0060, 21.91113
400.2040, 197.9194
401.4010, 207.2920
402.5980, 105.9087
403.7950, 115.3989
404.9920, 199.9917
406.1890, 160.1782
407.3860, 197.4097
408.5820, 214.5376
409.7780, 215.6953
410.9740, 274.8306
412.1700, 244.2524
413.3650, 239.7954
414.5610, 261.8574
415.7560, 161.2837
416.9510, 146.7002
418.1460, 144.1694
419.3410, 140.5708
420.5360, 228.0059
421.7300, 51.61719
422.9240, 20.97803
424.1180, 26.06006
425.3120, 64.26025
426.5060, 123.0117
427.7000, 40.93799
428.8930, 57.48975
430.0860, 36.61572
431.2790, 94.71387
432.4720, 9.916992
433.6650, 56.43115
434.8580, 6.166992
436.0500, 76.71338
437.2420, 53.27002
438.4340, 65.81396
439.6260, 70.32568
440.8180, 16.27881
442.0090, 67.54395
443.2010, 80.93750
444.3920, 48.27734
445.5830, 59.61279
446.7740, 71.75830
447.9640, 52.95068
449.1550, 80.87012
450.3450, 87.22461
451.5350, 32.17236
452.7250, 56.69482
453.9150, 93.92334
455.1050, 82.26465
456.2940, 27.52051
457.4830, 79.53174
458.6720, 196.9648
459.8610, 115.7197
461.0500, 38.60889
462.2390, 167.2861
463.4270, 127.7412
464.6150, 137.4053
465.8040, 107.4858
466.9910, 65.03320
468.1790, 37.44629
469.3670, 53.61865
470.5540, 79.05469
471.7410, 125.2437
472.9280, 120.1055
474.1150, 73.30957
475.3020, 131.3867
476.4890, 115.4507
477.6750, 138.3506
478.8610, 196.1665
480.0470, 126.7910
481.2330, 227.0151
482.4190, 214.1475
483.6040, 138.6641
484.7900, 148.8999
485.9750, 10.69189
487.1600, 51.38281
488.3450, 118.6909
489.5290, 70.63281
490.7140, 158.9287
491.8980, 32.23047
493.0820, 162.8945
494.2660, 150.3506
495.4500, 123.9268
496.6340, 210.4521
497.8170, 163.9336
499.0010, 241.1226
500.1840, 154.5215
501.3670, 262.7876
502.5500, 167.0981
503.7320, 279.3384
504.9150, 184.1763
506.0970, 220.2148
507.2790, 310.6138
508.4610, 196.5576
509.6430, 130.5908
510.8250, 307.5474
512.0060, 214.4648
513.1870, 132.3560
514.3680, 225.1968
515.5490, 189.9893
516.7300, 222.7305
517.9110, 127.4248
519.0910, 126.0693
520.2710, 177.6606
521.4510, 164.1987
522.6310, 170.3286
523.8110, 175.9062
524.9910, 143.5112
526.1700, 187.7896
527.3490, 146.9497
528.5280, 203.0059
529.7070, 104.3281
530.8860, 103.1636
532.0650, 216.1885
533.2430, 151.1929
534.4210, 219.8730
535.5990, 209.0767
536.7770, 101.7563
537.9550, 99.92188
539.1320, 193.2710
540.3100, 73.68506
541.4870, 37.82666
542.6640, 121.4761
543.8410, 72.86719
545.0170, 116.2305
546.1940, 115.3838
547.3700, 163.8003
548.5470, 187.0264
549.7230, 168.4551
550.8980, 28.40918
552.0740, 121.7686
553.2500, 109.8867
554.4250, 73.06934
555.6000, 180.0703
556.7750, 85.42773
557.9500, 79.46875
559.1250, 59.17578
560.2990, 67.81152
561.4730, 51.35449
562.6480, 10.35352
563.8220, 42.39453
564.9950, 38.59766
566.1690, 25.87891
567.3430, 35.33594
568.5160, 69.54688
569.6890, 25.27832
570.8620, 66.28027
572.0350, 122.4219
573.2070, 166.2139
574.3800, 26.46191
575.5520, 143.0742
576.7240, 31.39062
577.8960, 66.46777
579.0680, 35.30762
580.2400, 98.36426
581.4110, 0.9384770
582.5830, 45.54590
583.7540, 54.21973
584.9250, 16.22852
586.0950, 93.83691
587.2660, 78.39844
588.4370, 99.06641
589.6070, 74.74023
590.7770, 61.31836
591.9470, 149.1943
593.1170, 9.307617
594.2860, 59.82324
595.4560, 78.25488
596.6250, 44.81250
597.7940, 67.57227
598.9630, 35.42188
600.1320, 118.7295
601.3000, 77.05859
602.4690, 116.4658
603.6370, 161.4619
604.8050, 101.5156
605.9730, 3.448242
607.1410, 108.9189
608.3090, 130.1006
609.4760, 175.9092
610.6430, 93.91895
611.8100, 149.6602
612.9770, 63.86328
614.1440, 189.3994
615.3110, 134.6660
616.4770, 245.1797
617.6430, 267.5371
618.8090, 293.7861
619.9750, 216.2754
621.1410, 246.4219
622.3070, 176.2148
623.4720, 197.7217
624.6370, 197.8193
625.8020, 298.5996
626.9670, 349.8740
628.1320, 424.4404
629.2970, 295.1934
630.4610, 468.2598
631.6250, 522.3145
632.7890, 345.1895
633.9530, 489.6201
635.1170, 726.4365
636.2810, 743.3213
637.4440, 767.8496
638.6070, 980.8799
639.7700, 1131.736
640.9330, 1313.542
642.0960, 1694.165
643.2590, 1845.964
644.4210, 2406.324
645.5830, 2722.138
646.7450, 3155.588
647.9070, 3468.995
649.0690, 3866.824
650.2310, 3939.269
651.3920, 3967.854
652.5530, 3908.225
653.7140, 3685.476
654.8750, 3105.959
656.0360, 2352.919
657.1970, 2025.369
658.3570, 1474.771
659.5170, 1222.238
660.6770, 961.4854
661.8370, 804.1445
662.9970, 703.1680
664.1570, 544.1748
665.3160, 636.4482
666.4750, 358.1328
667.6340, 395.0947
668.7930, 286.7363
669.9520, 471.6641
671.1110, 283.4922
672.2690, 269.2539
673.4270, 313.9053
674.5850, 162.1279
675.7430, 294.3418
676.9010, 379.0801
678.0590, 279.1377
679.2160, 356.8633
680.3730, 321.1934
681.5300, 354.2588
682.6870, 384.0732
683.8440, 451.7734
685.0010, 441.8203
686.1570, 504.1514
687.3130, 547.5537
688.4690, 535.2246
689.6250, 414.0039
690.7810, 501.4277
691.9370, 402.8564
693.0920, 333.4443
694.2470, 414.7109
695.4020, 264.8594
696.5570, 286.7295
697.7120, 98.54492
698.8670, 98.74512
700.0210, 214.7783
701.1750, 169.5049
702.3290, 104.1426
703.4830, 191.3691
704.6370, 115.3945
705.7910, 118.0898
706.9440, 186.1846
708.0970, 209.5781
709.2510, 106.3389
710.4030, 241.3975
711.5560, 60.68848
712.7090, 68.72168
713.8610, 51.28320
715.0140, 114.7666
716.1660, 152.2607
717.3180, 170.9766
718.4690, 116.4795
719.6210, 224.7402
720.7730, 146.5391
721.9240, 166.6914
723.0750, 84.19141
724.2260, 134.0430
725.3770, 140.7998
726.5270, 113.1289
727.6780, 15.98535
728.8280, 79.81543
729.9780, 43.73633
731.1280, 144.5508
732.2780, 210.5605
733.4280, 49.90430
734.5770, 121.5449
735.7260, 67.29883
736.8760, 101.0703
738.0250, 158.4951
739.1730, 19.47363
740.3220, 146.2510
741.4700, 14.62012
742.6190, 50.94238
743.7670, 73.64160
744.9150, 146.6875
746.0630, 159.7070
747.2100, 206.7607
748.3580, 158.7715
749.5050, 231.8320
750.6520, 171.2793
751.7990, 69.85742
752.9460, 74.65527
754.0930, 59.57520
755.2390, 65.63086
756.3860, 99.66699
757.5320, 85.96289
758.6780, 87.90039
759.8240, 28.09961
760.9690, 64.86035
762.1150, 70.91016
763.2600, 141.0322
764.4060, 11.37305
765.5510, 30.46094
766.6950, 78.08887
767.8400, 178.1787
768.9850, 253.7324
770.1290, 154.2607
771.2730, 135.7832
772.4170, 17.75684
773.5610, 195.4062
774.7050, 111.9355
775.8480, 167.7354
776.9920, 38.53418
778.1350, 1.357422
779.2780, 76.77637
780.4210, 163.8828
781.5640, 118.1924
782.7060, 154.9141
783.8490, 36.79102
784.9910, 62.70996
786.1330, 117.5986
787.2750, 127.6875
788.4170, 13.21777
789.5580, 196.1133
790.7000, 125.2471
791.8410, 145.9316
792.9820, 219.5928
794.1230, 119.0156
795.2640, 37.12109
796.4040, 224.0195
797.5450, 311.5518
798.6850, 184.3027
799.8250, 86.67188
800.9650, 79.74512
802.1050, 16.24805
803.2450, 140.1943
804.3840, 255.3584
805.5230, 133.3418
806.6630, 188.7871
807.8020, 194.5752
808.9400, 67.03125
810.0790, 36.88184
811.2170, 163.8643
812.3560, 136.2549
813.4940, 124.4492
814.6320, 47.48535
815.7700, 183.8350
816.9070, 141.2949
818.0450, 20.25977
819.1820, 237.6738
820.3190, 20.55859
821.4560, 178.4727
822.5930, 91.03125
823.7300, 103.0518
824.8670, 135.9658
826.0030, 124.7725
827.1390, 129.4717
828.2750, 216.0850
829.4110, 146.5947
830.5470, 166.8818
831.6820, 282.1836
832.8180, 233.9717
833.9530, 220.7432
835.0880, 86.61816
836.2230, 113.4023
837.3580, 149.5664
838.4920, 99.42969
839.6270, 216.9131
840.7610, 81.65527
841.8950, 91.99414
843.0290, 20.75293
844.1630, 122.6748
845.2960, 286.0889
846.4300, 162.9814
847.5630, 148.3311
848.6960, 37.81543
849.8290, 49.21777
850.9620, 70.44434
852.0940, 161.8193
853.2270, 122.2432
854.3590, 120.6328
855.4910, 219.6826
856.6230, 196.0762
857.7550, 150.0361
858.8870, 292.9688
860.0180, 148.4521
861.1500, 227.0361
862.2810, 71.54004
863.4120, 156.8174
864.5430, 277.8330
865.6730, 131.8457
866.8040, 133.5068
867.9340, 156.4785
869.0640, 114.6211
870.1940, 223.0098
871.3240, 193.6328
872.4540, 193.6797
873.5830, 153.2520
874.7130, 150.7344
875.8420, 133.5273
876.9710, 80.73633
878.1000, 38.58398
879.2290, 105.2891
880.3570, 61.15430
881.4860, 6.464844
882.6140, 8.146484
883.7420, 334.8320
884.8700, 137.2090
885.9980, 143.2227
887.1250, 176.8555
888.2530, 5.601563
889.3800, 12.82617
890.5070, 143.0703
891.6340, 174.2246
892.7610, 114.4082
893.8880, 100.4199
895.0140, 72.32422
896.1400, 32.17578
897.2670, 216.3613
898.3930, 173.8105
899.5180, 137.4414
900.6440, 0.7812500
901.7700, 116.8633
902.8950, 171.8652
904.0200, 307.3535
905.1450, 289.8633
906.2700, 267.8477
907.3950, 258.8379
908.5190, 301.2168
909.6440, 190.2246
910.7680, 340.4922
911.8920, 93.50195
913.0160, 44.37695
914.1400, 186.7480
915.2630, 169.2363
916.3870, 59.33398
917.5100, 215.6211
918.6330, 156.2852
919.7560, 12.80469
920.8790, 109.0879
922.0010, 73.40820
923.1240, 142.8633
924.2460, 268.6680
925.3680, 187.7324
926.4900, 283.1895
927.6120, 72.24805
928.7340, 89.16602
929.8550, 115.3359
930.9760, 150.1250
932.0980, 213.1953
933.2190, 36.64062
934.3390, 231.6172
935.4600, 89.28516
936.5810, 10.94922
937.7010, 263.0371
938.8210, 187.6738
939.9410, 60.70117
941.0610, 78.05469
942.1810, 205.9961
943.3010, 195.2207
944.4200, 299.3379
945.5390, 286.6992
946.6580, 251.2637
947.7770, 406.0449
948.8960, 240.9180
950.0150, 303.4727
951.1330, 327.6895
952.2510, 391.1895
953.3690, 289.5273
954.4870, 394.3438
955.6050, 360.7695
956.7230, 420.6953
957.8400, 528.3887
958.9580, 654.9414
960.0750, 690.0820
961.1920, 768.5449
962.3090, 793.8574
963.4250, 904.3223
964.5420, 971.2070
965.6580, 1132.533
966.7740, 1259.504
967.8900, 1189.193
969.0060, 1466.559
970.1220, 1451.195
971.2380, 1364.797
972.3530, 1422.650
973.4680, 1513.219
974.5830, 1256.551
975.6980, 1056.453
976.8130, 1285.377
977.9280, 1151.484
979.0420, 1229.236
980.1560, 1042.686
981.2710, 735.5234
982.3850, 766.4609
983.4980, 833.2559
984.6120, 949.7246
985.7260, 905.2207
986.8390, 815.0820
987.9520, 706.7012
989.0650, 882.2383
990.1780, 883.1055
991.2910, 870.1016
992.4030, 763.1895
993.5160, 893.4434
994.6280, 671.9883
995.7400, 744.4121
996.8520, 740.0273
997.9640, 924.0039
999.0750, 947.6855
1000.187, 968.8105
1001.298, 960.6289
1002.409, 952.0352
1003.520, 963.1289
1004.631, 903.5605
1005.741, 960.7734
1006.852, 931.6016
1007.962, 837.9980
1009.072, 772.3711
1010.182, 990.9043
1011.292, 804.0332
1012.402, 1061.711
1013.511, 849.8105
1014.621, 1118.902
1015.730, 1188.293
1016.839, 1465.197
1017.948, 1589.816
1019.056, 1779.520
1020.165, 1972.814
1021.273, 2265.541
1022.382, 2369.855
1023.490, 2548.115
1024.598, 2484.260
1025.706, 2501.230
1026.813, 2343.857
1027.921, 2166.885
1029.028, 1880.260
1030.135, 1485.105
1031.242, 1296.154
1032.349, 941.7207
1033.456, 632.0195
1034.562, 737.8828
1035.668, 559.8809
1036.775, 419.0137
1037.881, 614.6016
1038.987, 459.0176
1040.092, 411.1582
1041.198, 408.1621
1042.303, 410.5059
1043.408, 236.0293
1044.514, 325.0742
1045.618, 192.4688
1046.723, 191.7812
1047.828, 90.82031
1048.932, 36.66211
1050.037, 134.0703
1051.141, 60.64062
1052.245, 108.6504
1053.349, 41.56055
1054.452, 149.5391
1055.556, 121.2246
1056.659, 107.1348
1057.762, 199.5371
1058.865, 67.60938
1059.968, 331.4844
1061.071, 168.3848
1062.174, 66.27930
1063.276, 103.7031
1064.378, 285.3164
1065.480, 98.69531
1066.582, 54.24414
1067.684, 150.3027
1068.786, 30.63867
1069.887, 139.3125
1070.988, 37.07227
1072.090, 36.46289
1073.191, 136.4980
1074.291, 81.68945
1075.392, 51.22070
1076.493, 95.37305
1077.593, 45.00977
1078.693, 70.39062
1079.793, 40.66016
1080.893, 28.83008
1081.993, 87.87695
1083.092, 245.8164
1084.192, 11.34961
1085.291, 200.3730
1086.390, 116.9727
1087.489, 139.4785
1088.588, 198.8828
1089.686, 145.2168
1090.785, 169.4531
1091.883, 112.5957
1092.981, 234.6660
1094.079, 3.664063
1095.177, 217.5820
1096.275, 85.41602
1097.373, 159.1641
1098.470, 121.8262
1099.567, 336.4102
1100.664, 378.9102
1101.761, 22.66797
1102.858, 54.68555
1103.954, 368.9277
1105.051, 136.0996
1106.147, 281.2266
1107.243, 72.33594
1108.339, 213.4570
1109.435, 137.5312
1110.531, 245.6953
1111.626, 221.8477
1112.722, 225.4355
1113.817, 167.0605
1114.912, 266.1543
1116.007, 347.2441
1117.101, 449.3340
1118.196, 417.1328
1119.290, 457.2031
1120.385, 661.6016
1121.479, 548.7969
1122.573, 593.0586
1123.666, 445.1621
1124.760, 268.5039
1125.853, 268.1465
1126.947, 398.8398
1128.040, 127.3945
1129.133, 317.9082
1130.226, 251.8535
1131.318, 143.5449
1132.411, 260.7832
1133.503, 77.99805
1134.596, 320.7617
1135.688, 298.3594
1136.780, 411.0371
1137.871, 26.07812
1138.963, 133.7051
1140.054, 103.4258
1141.146, 290.9004
1142.237, 324.4277
1143.328, 321.5645
1144.419, 322.5488
1145.509, 328.4941
1146.600, 387.1699
1147.690, 303.8613
1148.780, 274.2715
1149.870, 250.3613
1150.960, 380.1016
1152.050, 183.7031
1153.139, 66.17969
1154.229, 208.9922
1155.318, 289.7988
1156.407, 35.09375
1157.496, 31.70312
1158.585, 98.32422
1159.674, 170.4219
1160.762, 49.04297
1161.850, 128.0352
1162.939, 320.7012
1164.027, 229.2969
1165.114, 343.6543
1166.202, 343.9355
1167.290, 242.0840
1168.377, 123.9004
1169.464, 113.6289
1170.551, 361.6211
1171.638, 128.4492
1172.725, 59.09766
1173.812, 329.6484
1174.898, 239.1230
1175.984, 1.455078
1177.071, 407.7832
1178.157, 143.5469
1179.242, 335.8125
1180.328, 405.8047
1181.414, 210.9297
1182.499, 179.1367
1183.584, 47.03125
1184.669, 274.2031
1185.754, 41.05469
1186.839, 186.8945
1187.924, 39.45312
1189.008, 247.0781
1190.092, 119.2930
1191.177, 266.0781
1192.260, 6.910156
1193.344, 265.2383
1194.428, 175.1172
1195.512, 67.18750
1196.595, 31.09375
1197.678, 0.0000000E+00
##END=



