##NAMES=Pectolite
##RRUFFID=R060101
##IDEAL CHEMISTRY=NaCa_2_Si_3_O_8_(OH)
##LOCALITY=West Patterson, New Jersey, USA
##OWNER=RRUFF
##SOURCE=University of Arizona Mineral Museum
##DESCRIPTION=Tufts of white acicular sprays
##STATUS=The identification of this mineral has been confirmed by X-ray diffraction and chemical analysis
##URL=rruff.info/R060101
##MEASURED CHEMISTRY=Na_1.02_Ca_2.00_Si_2.99_O_8_(OH)
##PIN_ID=M00210
##ORIENTATION=Laser parallel to -b* (0 -1 0). Fiducial mark perpendicular to laser is parallel to c [0 0 1]
127.5960, 0.0000000E+00
128.8330, 0.8493650
130.0700, 47.90027
131.3060, 78.91174
132.5420, 120.8364
133.7780, 126.2784
135.0140, 179.0051
136.2500, 222.3838
137.4850, 260.7014
138.7200, 308.2651
139.9550, 340.2236
141.1900, 361.7875
142.4250, 445.8561
143.6600, 427.2307
144.8940, 342.5830
146.1280, 266.0753
147.3620, 299.8029
148.5960, 231.1819
149.8300, 268.4086
151.0630, 170.8945
152.2960, 155.3335
153.5300, 170.9146
154.7620, 124.9473
155.9950, 57.41382
157.2280, 102.6929
158.4600, 78.31018
159.6920, 11.72461
160.9250, 37.75659
162.1560, 47.26941
163.3880, 45.17358
164.6200, 0.6883540
165.8510, 52.73145
167.0820, 4.842896
168.3130, 68.29626
169.5440, 24.39343
170.7750, 10.58533
172.0050, 39.85693
173.2350, 58.66919
174.4650, 59.56641
175.6950, 46.94568
176.9250, 48.52832
178.1550, 0.6024170
179.3840, 24.49561
180.6130, 55.09448
181.8420, 9.852051
183.0710, 34.03540
184.3000, 46.77002
185.5280, 59.35498
186.7570, 89.08667
187.9850, 63.64624
189.2130, 38.14258
190.4400, 75.08252
191.6680, 60.78223
192.8960, 17.54272
194.1230, 63.80908
195.3500, 73.25586
196.5770, 41.83032
197.8030, 17.57544
199.0300, 63.10474
200.2560, 83.89038
201.4830, 33.47607
202.7090, 56.19775
203.9340, 123.9873
205.1600, 20.99927
206.3860, 42.48218
207.6110, 9.588135
208.8360, 64.28760
210.0610, 26.31812
211.2860, 67.64624
212.5100, 2.8564001E-02
213.7350, 35.69238
214.9590, 72.23486
216.1830, 95.60938
217.4070, 76.39331
218.6310, 129.4690
219.8540, 40.20044
221.0780, 110.4832
222.3010, 56.01685
223.5240, 13.24048
224.7470, 97.42822
225.9690, 55.85010
227.1920, 92.49048
228.4140, 11.80981
229.6360, 22.70044
230.8580, 86.98242
232.0800, 65.19092
233.3020, 57.22510
234.5230, 60.73633
235.7440, 46.54785
236.9650, 39.57104
238.1860, 31.56445
239.4070, 23.13428
240.6280, 3.798340
241.8480, 2.710693
243.0680, 2.625244
244.2880, 0.4980470
245.5080, 2.696777
246.7280, 6.455566
247.9470, 8.764893
249.1660, 6.853760
250.3860, 33.17456
251.6040, 67.92896
252.8230, 13.20142
254.0420, 23.05005
255.2600, 20.00269
256.4790, 30.22437
257.6970, 68.45361
258.9150, 84.56299
260.1320, 30.51123
261.3500, 32.15161
262.5670, 58.44751
263.7840, 37.22559
265.0010, 34.04956
266.2180, 6.301025
267.4350, 33.14258
268.6510, 111.8579
269.8680, 85.12305
271.0840, 114.4270
272.3000, 50.78247
273.5160, 113.3018
274.7310, 71.97681
275.9470, 62.74463
277.1620, 92.31567
278.3770, 116.1631
279.5920, 49.45776
280.8070, 68.88599
282.0210, 53.59033
283.2360, 64.01123
284.4500, 2.715576
285.6640, 85.28394
286.8780, 62.41577
288.0920, 9.844971
289.3050, 25.80371
290.5180, 111.1030
291.7320, 37.51294
292.9450, 74.54956
294.1570, 32.83179
295.3700, 12.82568
296.5830, 92.77832
297.7950, 35.21167
299.0070, 4.750244
300.2190, 3.397949
301.4310, 53.44629
302.6420, 26.48804
303.8540, 72.63940
305.0650, 114.3271
306.2760, 68.02905
307.4870, 74.95459
308.6980, 62.54956
309.9080, 13.08081
311.1190, 23.60791
312.3290, 65.39282
313.5390, 31.21191
314.7490, 94.98975
315.9580, 112.1821
317.1680, 119.5618
318.3770, 134.3035
319.5860, 130.5974
320.7950, 121.2751
322.0040, 118.5085
323.2130, 94.57886
324.4210, 82.62402
325.6290, 91.86230
326.8380, 120.8789
328.0460, 102.8987
329.2530, 69.17847
330.4610, 57.21143
331.6680, 24.37573
332.8760, 31.32739
334.0830, 27.53076
335.2890, 34.38501
336.4960, 57.11133
337.7030, 27.95752
338.9090, 85.99390
340.1150, 84.71216
341.3210, 53.73657
342.5270, 13.54517
343.7330, 19.98218
344.9380, 15.41211
346.1440, 7.916016
347.3490, 0.2619630
348.5540, 59.07764
349.7590, 4.188721
350.9630, 65.88501
352.1680, 37.10303
353.3720, 14.43188
354.5760, 31.77490
355.7800, 76.05664
356.9840, 76.37427
358.1870, 89.11035
359.3910, 23.09961
360.5940, 122.1538
361.7970, 114.5359
363.0000, 21.56934
364.2030, 143.0181
365.4050, 31.65576
366.6080, 95.47485
367.8100, 59.02075
369.0120, 45.61670
370.2140, 115.3394
371.4150, 51.70093
372.6170, 122.4451
373.8180, 92.91968
375.0190, 28.28564
376.2200, 156.8972
377.4210, 18.20044
378.6220, 80.59546
379.8220, 119.7900
381.0230, 32.05444
382.2230, 52.32666
383.4230, 34.52783
384.6220, 25.52588
385.8220, 49.37476
387.0220, 42.34082
388.2210, 47.15259
389.4200, 51.03101
390.6190, 61.72925
391.8180, 68.56055
393.0160, 101.3794
394.2150, 98.70605
395.4130, 136.7214
396.6110, 37.97998
397.8090, 82.09912
399.0060, 40.08936
400.2040, 63.03394
401.4010, 49.89648
402.5980, 83.64062
403.7950, 99.40601
404.9920, 71.98267
406.1890, 14.64331
407.3860, 85.04028
408.5820, 71.27441
409.7780, 123.4253
410.9740, 92.40112
412.1700, 83.68945
413.3650, 49.47046
414.5610, 105.6797
415.7560, 86.12817
416.9510, 20.46729
418.1460, 57.85889
419.3410, 14.13037
420.5360, 79.11328
421.7300, 11.93237
422.9240, 140.9624
424.1180, 103.7136
425.3120, 31.65186
426.5060, 92.65601
427.7000, 17.48340
428.8930, 11.79590
430.0860, 69.21582
431.2790, 55.64209
432.4720, 19.89819
433.6650, 68.02637
434.8580, 33.61523
436.0500, 112.6050
437.2420, 41.16309
438.4340, 107.5659
439.6260, 89.72217
440.8180, 15.67578
442.0090, 56.57910
443.2010, 31.47607
444.3920, 84.75684
445.5830, 30.63721
446.7740, 4.731445
447.9640, 101.6484
449.1550, 72.77734
450.3450, 30.26172
451.5350, 101.9297
452.7250, 109.7656
453.9150, 61.01270
455.1050, 34.34277
456.2940, 95.91064
457.4830, 12.36328
458.6720, 127.7612
459.8610, 63.40137
461.0500, 10.41895
462.2390, 67.86523
463.4270, 22.35254
464.6150, 104.2314
465.8040, 136.4517
466.9910, 63.77100
468.1790, 62.34277
469.3670, 129.1777
470.5540, 94.17480
471.7410, 47.83447
472.9280, 110.0957
474.1150, 69.81885
475.3020, 100.9170
476.4890, 51.52930
477.6750, 101.7642
478.8610, 136.2832
480.0470, 99.58838
481.2330, 12.83350
482.4190, 114.9741
483.6040, 34.26416
484.7900, 63.21875
485.9750, 117.2363
487.1600, 152.1211
488.3450, 86.73096
489.5290, 56.54053
490.7140, 145.8691
491.8980, 47.33789
493.0820, 30.91846
494.2660, 134.2627
495.4500, 126.6143
496.6340, 105.5913
497.8170, 75.59766
499.0010, 95.06348
500.1840, 138.6699
501.3670, 124.2700
502.5500, 127.5337
503.7320, 40.50439
504.9150, 115.0234
506.0970, 11.09131
507.2790, 161.6016
508.4610, 137.5835
509.6430, 179.7715
510.8250, 115.7480
512.0060, 134.6045
513.1870, 195.6899
514.3680, 111.4487
515.5490, 105.4409
516.7300, 132.2461
517.9110, 114.7183
519.0910, 168.7153
520.2710, 128.1968
521.4510, 169.8921
522.6310, 129.0469
523.8110, 109.8667
524.9910, 105.7490
526.1700, 134.7861
527.3490, 135.9019
528.5280, 95.84180
529.7070, 64.71436
530.8860, 71.33838
532.0650, 81.54199
533.2430, 89.04492
534.4210, 94.80664
535.5990, 72.99463
536.7770, 53.05811
537.9550, 20.52637
539.1320, 8.653320
540.3100, 12.23291
541.4870, 18.04736
542.6640, 37.54980
543.8410, 93.50830
545.0170, 93.94727
546.1940, 74.82520
547.3700, 46.48584
548.5470, 125.7275
549.7230, 133.0444
550.8980, 4.124512
552.0740, 35.51025
553.2500, 86.25488
554.4250, 19.81592
555.6000, 137.2925
556.7750, 80.83203
557.9500, 51.89014
559.1250, 75.26904
560.2990, 66.84961
561.4730, 114.9399
562.6480, 172.4814
563.8220, 117.2954
564.9950, 122.7583
566.1690, 85.63916
567.3430, 42.43213
568.5160, 83.46729
569.6890, 31.78711
570.8620, 134.9634
572.0350, 15.82275
573.2070, 45.48535
574.3800, 172.4834
575.5520, 87.01660
576.7240, 144.4238
577.8960, 33.56006
579.0680, 47.71484
580.2400, 44.53564
581.4110, 8.954102
582.5830, 14.32373
583.7540, 5.897461
584.9250, 73.48096
586.0950, 84.60156
587.2660, 2.741699
588.4370, 68.53125
589.6070, 47.27637
590.7770, 142.7754
591.9470, 93.11572
593.1170, 31.16943
594.2860, 108.6699
595.4560, 89.25146
596.6250, 61.31299
597.7940, 43.34180
598.9630, 107.0107
600.1320, 29.05615
601.3000, 158.5986
602.4690, 133.1289
603.6370, 71.66260
604.8050, 1.312500
605.9730, 100.3530
607.1410, 13.93115
608.3090, 194.1577
609.4760, 126.9512
610.6430, 73.59521
611.8100, 157.2729
612.9770, 205.2676
614.1440, 70.97656
615.3110, 173.4087
616.4770, 44.30908
617.6430, 116.8833
618.8090, 42.45752
619.9750, 103.2363
621.1410, 74.71582
622.3070, 143.3452
623.4720, 92.58643
624.6370, 127.2280
625.8020, 58.53027
626.9670, 82.80908
628.1320, 130.9858
629.2970, 131.5947
630.4610, 108.2144
631.6250, 172.8218
632.7890, 202.7017
633.9530, 182.8057
635.1170, 138.4297
636.2810, 192.6274
637.4440, 189.2314
638.6070, 109.4717
639.7700, 395.7573
640.9330, 385.0229
642.0960, 363.1113
643.2590, 218.1714
644.4210, 419.6421
645.5830, 448.4932
646.7450, 617.7319
647.9070, 646.2500
649.0690, 636.2705
650.2310, 621.3496
651.3920, 616.2705
652.5530, 674.6602
653.7140, 510.3091
654.8750, 505.8096
656.0360, 383.7197
657.1970, 426.8774
658.3570, 297.6982
659.5170, 267.6992
660.6770, 264.4165
661.8370, 179.2554
662.9970, 157.1860
664.1570, 148.1006
665.3160, 78.65186
666.4750, 274.9771
667.6340, 87.26465
668.7930, 81.26709
669.9520, 216.9487
671.1110, 133.8169
672.2690, 144.7764
673.4270, 74.58447
674.5850, 119.3545
675.7430, 127.8516
676.9010, 153.1504
678.0590, 134.2900
679.2160, 167.4287
680.3730, 65.16016
681.5300, 183.2549
682.6870, 195.5107
683.8440, 262.4004
685.0010, 157.2773
686.1570, 166.4648
687.3130, 192.9912
688.4690, 229.5254
689.6250, 77.68359
690.7810, 158.4951
691.9370, 85.72070
693.0920, 105.0771
694.2470, 74.23633
695.4020, 99.56250
696.5570, 178.7383
697.7120, 21.29492
698.8670, 231.3203
700.0210, 48.81445
701.1750, 6.877930
702.3290, 80.65527
703.4830, 38.10352
704.6370, 123.7207
705.7910, 56.52832
706.9440, 42.87500
708.0970, 121.9170
709.2510, 162.4697
710.4030, 77.76172
711.5560, 27.30664
712.7090, 34.16797
713.8610, 37.85938
715.0140, 21.33496
716.1660, 144.3184
717.3180, 5.638672
718.4690, 65.57715
719.6210, 7.579102
720.7730, 102.5996
721.9240, 75.24121
723.0750, 68.06152
724.2260, 67.72461
725.3770, 151.0684
726.5270, 184.6016
727.6780, 44.15430
728.8280, 57.02832
729.9780, 35.40332
731.1280, 24.41504
732.2780, 42.39355
733.4280, 1.697266
734.5770, 37.36523
735.7260, 89.82617
736.8760, 74.56641
738.0250, 109.4521
739.1730, 86.18262
740.3220, 82.76660
741.4700, 84.00293
742.6190, 26.14355
743.7670, 50.36816
744.9150, 52.59863
746.0630, 107.5762
747.2100, 160.5000
748.3580, 51.55957
749.5050, 29.80957
750.6520, 24.83105
751.7990, 9.722656
752.9460, 153.4736
754.0930, 55.23047
755.2390, 64.88672
756.3860, 97.31641
757.5320, 64.19336
758.6780, 84.01953
759.8240, 177.5234
760.9690, 120.1768
762.1150, 167.8252
763.2600, 26.27148
764.4060, 166.6123
765.5510, 14.48145
766.6950, 25.25977
767.8400, 104.7285
768.9850, 23.54004
770.1290, 235.6104
771.2730, 149.2520
772.4170, 111.1016
773.5610, 187.3984
774.7050, 51.68945
775.8480, 90.95410
776.9920, 80.20996
778.1350, 111.7803
779.2780, 122.1914
780.4210, 114.8223
781.5640, 150.8213
782.7060, 116.5723
783.8490, 137.5928
784.9910, 208.7725
786.1330, 47.52051
787.2750, 57.62402
788.4170, 253.4424
789.5580, 142.6611
790.7000, 123.3896
791.8410, 58.21973
792.9820, 175.2520
794.1230, 124.7510
795.2640, 181.8672
796.4040, 174.4385
797.5450, 192.4512
798.6850, 186.6045
799.8250, 104.4102
800.9650, 69.70801
802.1050, 133.3916
803.2450, 195.7637
804.3840, 186.9756
805.5230, 195.4590
806.6630, 220.4541
807.8020, 163.9375
808.9400, 132.7793
810.0790, 155.4766
811.2170, 149.7295
812.3560, 172.4941
813.4940, 179.3037
814.6320, 164.7256
815.7700, 125.5303
816.9070, 221.4297
818.0450, 112.0938
819.1820, 72.01172
820.3190, 195.7070
821.4560, 178.5225
822.5930, 73.72656
823.7300, 182.6455
824.8670, 239.5000
826.0030, 77.79199
827.1390, 146.2031
828.2750, 160.7119
829.4110, 158.6494
830.5470, 117.4619
831.6820, 172.8721
832.8180, 130.2568
833.9530, 227.9658
835.0880, 116.8516
836.2230, 214.3369
837.3580, 103.5977
838.4920, 205.4971
839.6270, 206.6641
840.7610, 148.6104
841.8950, 57.04395
843.0290, 88.36230
844.1630, 179.6406
845.2960, 222.5732
846.4300, 128.9268
847.5630, 174.7432
848.6960, 105.7393
849.8290, 253.7480
850.9620, 168.7959
852.0940, 139.3252
853.2270, 202.1602
854.3590, 119.9414
855.4910, 175.2119
856.6230, 108.9844
857.7550, 187.2090
858.8870, 263.1230
860.0180, 72.64648
861.1500, 140.1514
862.2810, 88.93359
863.4120, 0.5810550
864.5430, 45.42480
865.6730, 207.1045
866.8040, 180.2441
867.9340, 9.862305
869.0640, 210.4521
870.1940, 129.6543
871.3240, 30.34570
872.4540, 114.0010
873.5830, 119.7969
874.7130, 80.16211
875.8420, 196.8682
876.9710, 233.2129
878.1000, 238.5479
879.2290, 177.9688
880.3570, 124.1406
881.4860, 100.2314
882.6140, 42.96875
883.7420, 121.2090
884.8700, 176.3926
885.9980, 196.3477
887.1250, 94.00684
888.2530, 50.77832
889.3800, 109.7139
890.5070, 218.9375
891.6340, 82.91895
892.7610, 115.2891
893.8880, 13.98828
895.0140, 187.0176
896.1400, 22.03906
897.2670, 16.25000
898.3930, 182.8857
899.5180, 114.1221
900.6440, 227.2979
901.7700, 156.4668
902.8950, 20.60254
904.0200, 205.0195
905.1450, 138.9502
906.2700, 59.08691
907.3950, 16.22070
908.5190, 45.24414
909.6440, 61.31152
910.7680, 50.35059
911.8920, 147.0410
913.0160, 45.48047
914.1400, 109.3252
915.2630, 87.13086
916.3870, 38.11816
917.5100, 104.0010
918.6330, 65.36230
919.7560, 34.29395
920.8790, 81.07031
922.0010, 191.1523
923.1240, 51.13086
924.2460, 115.3750
925.3680, 208.5449
926.4900, 22.42383
927.6120, 97.37500
928.7340, 190.3750
929.8550, 80.13867
930.9760, 117.8105
932.0980, 51.12891
933.2190, 152.5645
934.3390, 134.0391
935.4600, 208.0430
936.5810, 102.6113
937.7010, 297.6484
938.8210, 267.5039
939.9410, 110.0078
941.0610, 206.8398
942.1810, 97.06641
943.3010, 119.3770
944.4200, 369.3594
945.5390, 204.9297
946.6580, 213.4824
947.7770, 249.3145
948.8960, 115.4277
950.0150, 203.3809
951.1330, 188.9297
952.2510, 129.9492
953.3690, 397.0254
954.4870, 196.2852
955.6050, 447.5742
956.7230, 41.43164
957.8400, 274.7422
958.9580, 291.3242
960.0750, 198.3594
961.1920, 228.9336
962.3090, 260.4824
963.4250, 297.7578
964.5420, 319.3223
965.6580, 359.5508
966.7740, 363.7422
967.8900, 338.8984
969.0060, 349.7891
970.1220, 392.1523
971.2380, 531.6055
972.3530, 500.4160
973.4680, 520.5527
974.5830, 325.4512
975.6980, 295.2148
976.8130, 332.7344
977.9280, 302.5684
979.0420, 437.2383
980.1560, 350.4512
981.2710, 366.3770
982.3850, 245.5215
983.4980, 221.9531
984.6120, 189.8262
985.7260, 265.1406
986.8390, 291.7344
987.9520, 287.2695
989.0650, 299.5586
990.1780, 316.8262
991.2910, 293.6074
992.4030, 312.8691
993.5160, 373.3340
994.6280, 268.8926
995.7400, 337.5449
996.8520, 413.8770
997.9640, 356.5156
999.0750, 179.0938
1000.187, 258.5586
1001.298, 239.0117
1002.409, 32.63867
1003.520, 324.3008
1004.631, 258.8984
1005.741, 289.7734
1006.852, 212.4609
1007.962, 321.6816
1009.072, 192.6016
1010.182, 246.9375
1011.292, 481.2754
1012.402, 232.8398
1013.511, 173.7285
1014.621, 405.2617
1015.730, 278.6836
1016.839, 180.5078
1017.948, 294.6953
1019.056, 398.2305
1020.165, 345.6973
1021.273, 296.4961
1022.382, 440.8105
1023.490, 377.6504
1024.598, 416.9082
1025.706, 327.1680
1026.813, 419.4277
1027.921, 335.7754
1029.028, 158.1035
1030.135, 143.3418
1031.242, 292.1582
1032.349, 330.1133
1033.456, 222.6777
1034.562, 264.6074
1035.668, 161.0879
1036.775, 252.5898
1037.881, 175.0371
1038.987, 42.09180
1040.092, 88.57227
1041.198, 67.78711
1042.303, 265.6328
1043.408, 167.7617
1044.514, 137.6797
1045.618, 216.0410
1046.723, 129.6621
1047.828, 30.63086
1048.932, 15.36719
1050.037, 97.56641
1051.141, 94.83984
1052.245, 206.2734
1053.349, 51.84961
1054.452, 5.878906
1055.556, 79.53125
1056.659, 129.0234
1057.762, 67.91406
1058.865, 77.10156
1059.968, 137.9902
1061.071, 62.42383
1062.174, 257.2578
1063.276, 30.53320
1064.378, 108.8262
1065.480, 127.9473
1066.582, 47.34570
1067.684, 36.81055
1068.786, 197.2227
1069.887, 127.6523
1070.988, 205.8086
1072.090, 255.2676
1073.191, 161.2832
1074.291, 99.64648
1075.392, 204.1680
1076.493, 225.5332
1077.593, 107.9590
1078.693, 14.14062
1079.793, 220.0977
1080.893, 380.2520
1081.993, 383.8730
1083.092, 40.92383
1084.192, 33.05273
1085.291, 218.0293
1086.390, 121.0098
1087.489, 204.1367
1088.588, 64.29492
1089.686, 91.87500
1090.785, 86.21680
1091.883, 54.16797
1092.981, 484.9023
1094.079, 175.1387
1095.177, 230.4395
1096.275, 371.5566
1097.373, 41.74414
1098.470, 191.4219
1099.567, 132.8301
1100.664, 268.9121
1101.761, 75.08008
1102.858, 308.1367
1103.954, 327.0039
1105.051, 110.1992
1106.147, 127.7656
1107.243, 311.5449
1108.339, 240.5117
1109.435, 50.80469
1110.531, 292.7051
1111.626, 216.7266
1112.722, 340.2207
1113.817, 426.7637
1114.912, 181.3262
1116.007, 199.9492
1117.101, 224.6113
1118.196, 437.7051
1119.290, 151.4805
1120.385, 256.7070
1121.479, 220.6816
1122.573, 162.0098
1123.666, 399.6270
1124.760, 483.0215
1125.853, 301.4688
1126.947, 377.2520
1128.040, 376.1074
1129.133, 393.8320
1130.226, 347.2305
1131.318, 332.1602
1132.411, 204.6113
1133.503, 31.83984
1134.596, 110.4609
1135.688, 422.7168
1136.780, 391.6797
1137.871, 168.1602
1138.963, 329.5547
1140.054, 52.12891
1141.146, 297.7031
1142.237, 368.0840
1143.328, 9.923828
1144.419, 396.6953
1145.509, 364.5449
1146.600, 203.5527
1147.690, 436.8477
1148.780, 274.6270
1149.870, 161.1309
1150.960, 169.4766
1152.050, 197.4629
1153.139, 59.29297
1154.229, 138.9668
1155.318, 118.5684
1156.407, 192.2715
1157.496, 355.6250
1158.585, 351.9980
1159.674, 348.8867
1160.762, 317.9277
1161.850, 316.3750
1162.939, 324.8906
1164.027, 277.1836
1165.114, 228.3691
1166.202, 151.4648
1167.290, 266.1230
1168.377, 280.4668
1169.464, 271.8066
1170.551, 415.2188
1171.638, 452.2656
1172.725, 424.6680
1173.812, 405.8418
1174.898, 329.4258
1175.984, 257.8809
1177.071, 162.6172
1178.157, 156.5566
1179.242, 212.5625
1180.328, 126.0059
1181.414, 145.1641
1182.499, 122.2930
1183.584, 79.74219
1184.669, 265.3711
1185.754, 184.4141
1186.839, 150.5527
1187.924, 353.4902
1189.008, 152.0039
1190.092, 314.0840
1191.177, 11.42383
1192.260, 234.9805
1193.344, 78.44727
1194.428, 278.1113
1195.512, 88.08203
1196.595, 144.2246
1197.678, 0.0000000E+00
##END=



