##NAMES=Pectolite
##RRUFFID=R060101
##IDEAL CHEMISTRY=NaCa_2_Si_3_O_8_(OH)
##LOCALITY=West Patterson, New Jersey, USA
##OWNER=RRUFF
##SOURCE=University of Arizona Mineral Museum
##DESCRIPTION=Tufts of white acicular sprays
##STATUS=The identification of this mineral has been confirmed by X-ray diffraction and chemical analysis
##URL=rruff.info/R060101
##MEASURED CHEMISTRY=Na_1.02_Ca_2.00_Si_2.99_O_8_(OH)
##PIN_ID=L01710
##ORIENTATION=Laser parallel to -a* (-1 0 0). Fiducial mark perpendicular to laser is parallel to b [0 1 0]
148.5960, 0.0000000E+00
149.8300, 0.2396240
151.0630, 28.77710
152.2960, 13.36169
153.5300, 18.08130
154.7620, 16.11121
155.9950, 36.08337
157.2280, 25.29529
158.4600, 32.88904
159.6920, 2.615723
160.9250, 19.06201
162.1560, 5.190308
163.3880, 5.943359
164.6200, 5.736206
165.8510, 7.563110
167.0820, 40.42126
168.3130, 0.6838380
169.5440, 40.24658
170.7750, 1.217285
172.0050, 30.24048
173.2350, 64.32153
174.4650, 23.42688
175.6950, 7.546265
176.9250, 29.65674
178.1550, 23.76343
179.3840, 23.85437
180.6130, 17.95166
181.8420, 82.06042
183.0710, 40.19873
184.3000, 34.32471
185.5280, 39.47974
186.7570, 48.72852
187.9850, 48.97534
189.2130, 22.23157
190.4400, 73.51929
191.6680, 76.87549
192.8960, 37.30310
194.1230, 73.83594
195.3500, 79.48706
196.5770, 59.14343
197.8030, 50.86157
199.0300, 77.17810
200.2560, 72.40381
201.4830, 54.79028
202.7090, 133.0736
203.9340, 71.98169
205.1600, 116.1484
206.3860, 35.33667
207.6110, 62.27222
208.8360, 100.2469
210.0610, 64.19592
211.2860, 35.64478
212.5100, 39.71228
213.7350, 88.04614
214.9590, 67.55005
216.1830, 88.55420
217.4070, 52.23987
218.6310, 63.53687
219.8540, 101.3101
221.0780, 77.55859
222.3010, 64.65967
223.5240, 82.79260
224.7470, 85.03186
225.9690, 89.97290
227.1920, 101.8741
228.4140, 81.52808
229.6360, 68.96191
230.8580, 58.64478
232.0800, 70.08826
233.3020, 69.19116
234.5230, 42.98950
235.7440, 37.78271
236.9650, 47.39722
238.1860, 47.18103
239.4070, 28.52979
240.6280, 14.14746
241.8480, 62.01721
243.0680, 30.68372
244.2880, 31.24426
245.5080, 29.69641
246.7280, 24.16858
247.9470, 70.59229
249.1660, 31.01208
250.3860, 105.4218
251.6040, 35.89893
252.8230, 46.23059
254.0420, 27.77429
255.2600, 87.21423
256.4790, 25.55981
257.6970, 76.93677
258.9150, 65.46021
260.1320, 47.69897
261.3500, 41.19373
262.5670, 52.02808
263.7840, 31.77136
265.0010, 81.86853
266.2180, 45.83386
267.4350, 43.44995
268.6510, 79.80505
269.8680, 111.9216
271.0840, 44.29407
272.3000, 35.30054
273.5160, 18.56628
274.7310, 48.30017
275.9470, 41.39746
277.1620, 8.232300
278.3770, 49.82812
279.5920, 11.45691
280.8070, 22.85498
282.0210, 24.32336
283.2360, 3.149292
284.4500, 44.04846
285.6640, 94.86182
286.8780, 24.40088
288.0920, 16.10938
289.3050, 56.80029
290.5180, 40.58118
291.7320, 5.497925
292.9450, 2.314453
294.1570, 43.11853
295.3700, 12.46033
296.5830, 22.15991
297.7950, 18.22913
299.0070, 28.45508
300.2190, 2.080566
301.4310, 23.29187
302.6420, 43.42212
303.8540, 5.649048
305.0650, 45.54358
306.2760, 31.26196
307.4870, 2.390869
308.6980, 75.47754
309.9080, 60.42017
311.1190, 41.23547
312.3290, 12.92175
313.5390, 2.776978
314.7490, 52.14038
315.9580, 13.14319
317.1680, 23.12781
318.3770, 8.128052
319.5860, 70.98792
320.7950, 25.77539
322.0040, 47.51453
323.2130, 66.71863
324.4210, 31.34436
325.6290, 17.18542
326.8380, 55.52771
328.0460, 61.97510
329.2530, 73.77161
330.4610, 88.65356
331.6680, 6.365723
332.8760, 32.23816
334.0830, 23.10742
335.2890, 30.00330
336.4960, 54.46082
337.7030, 39.14917
338.9090, 59.81299
340.1150, 72.14221
341.3210, 41.54626
342.5270, 74.03455
343.7330, 34.42554
344.9380, 38.89734
346.1440, 75.34119
347.3490, 58.68103
348.5540, 54.28137
349.7590, 64.76331
350.9630, 47.92053
352.1680, 13.17126
353.3720, 85.52930
354.5760, 36.78101
355.7800, 84.23206
356.9840, 45.52039
358.1870, 36.68958
359.3910, 52.76331
360.5940, 44.10120
361.7970, 50.20251
363.0000, 60.45435
364.2030, 66.57300
365.4050, 35.49048
366.6080, 35.60132
367.8100, 36.41309
369.0120, 48.37292
370.2140, 71.13330
371.4150, 47.97192
372.6170, 21.44617
373.8180, 76.14453
375.0190, 127.0989
376.2200, 121.8140
377.4210, 90.75159
378.6220, 44.44824
379.8220, 90.28760
381.0230, 93.01880
382.2230, 63.52881
383.4230, 17.90161
384.6220, 98.39600
385.8220, 12.98730
387.0220, 55.50122
388.2210, 46.94702
389.4200, 63.26831
390.6190, 37.57324
391.8180, 15.78687
393.0160, 5.252686
394.2150, 121.1553
395.4130, 36.42603
396.6110, 36.71753
397.8090, 109.0515
399.0060, 68.46118
400.2040, 47.83936
401.4010, 50.18774
402.5980, 98.50928
403.7950, 49.83984
404.9920, 114.0986
406.1890, 92.16870
407.3860, 62.29395
408.5820, 142.1226
409.7780, 106.9661
410.9740, 133.0801
412.1700, 116.1643
413.3650, 105.3008
414.5610, 99.28027
415.7560, 105.0237
416.9510, 135.8223
418.1460, 153.5042
419.3410, 83.05005
420.5360, 53.55347
421.7300, 87.82715
422.9240, 103.4150
424.1180, 59.99512
425.3120, 86.25732
426.5060, 77.82178
427.7000, 65.13672
428.8930, 78.82764
430.0860, 36.23462
431.2790, 16.68359
432.4720, 58.15405
433.6650, 32.38232
434.8580, 59.78247
436.0500, 86.70264
437.2420, 15.28101
438.4340, 62.87793
439.6260, 44.13770
440.8180, 32.45923
442.0090, 62.69922
443.2010, 0.6450200
444.3920, 50.25928
445.5830, 64.14746
446.7740, 23.85034
447.9640, 38.72925
449.1550, 65.46045
450.3450, 15.80249
451.5350, 94.65649
452.7250, 74.54492
453.9150, 101.4465
455.1050, 93.16895
456.2940, 22.72705
457.4830, 44.09302
458.6720, 48.59961
459.8610, 33.91016
461.0500, 102.5278
462.2390, 8.420166
463.4270, 82.73804
464.6150, 80.78955
465.8040, 0.7780760
466.9910, 108.7964
468.1790, 53.09912
469.3670, 4.756348
470.5540, 138.3657
471.7410, 50.81470
472.9280, 25.73291
474.1150, 61.92822
475.3020, 18.54272
476.4890, 14.26270
477.6750, 3.100586
478.8610, 102.8633
480.0470, 42.88184
481.2330, 43.38257
482.4190, 117.7542
483.6040, 94.39453
484.7900, 69.53564
485.9750, 87.29932
487.1600, 62.68726
488.3450, 64.05518
489.5290, 83.44092
490.7140, 15.81177
491.8980, 39.25171
493.0820, 111.7051
494.2660, 83.94751
495.4500, 53.05298
496.6340, 73.07178
497.8170, 20.00806
499.0010, 52.66089
500.1840, 75.34863
501.3670, 91.69653
502.5500, 22.06665
503.7320, 71.35327
504.9150, 29.62671
506.0970, 54.89819
507.2790, 97.14771
508.4610, 43.22144
509.6430, 108.2485
510.8250, 63.23462
512.0060, 104.2249
513.1870, 79.26294
514.3680, 6.843750
515.5490, 97.88477
516.7300, 30.79541
517.9110, 79.81006
519.0910, 19.77881
520.2710, 70.60278
521.4510, 24.18433
522.6310, 37.90820
523.8110, 93.86914
524.9910, 73.05688
526.1700, 110.7368
527.3490, 19.99463
528.5280, 67.44214
529.7070, 56.92480
530.8860, 80.87378
532.0650, 77.15942
533.2430, 86.86401
534.4210, 48.70093
535.5990, 41.77075
536.7770, 83.33398
537.9550, 53.77881
539.1320, 47.25439
540.3100, 4.276123
541.4870, 32.81812
542.6640, 2.813477
543.8410, 33.43750
545.0170, 24.84155
546.1940, 50.73267
547.3700, 57.92261
548.5470, 48.97729
549.7230, 92.86987
550.8980, 110.1980
552.0740, 25.19556
553.2500, 20.33276
554.4250, 19.93115
555.6000, 51.49072
556.7750, 82.38892
557.9500, 53.56519
559.1250, 57.48462
560.2990, 29.52539
561.4730, 109.2383
562.6480, 123.9373
563.8220, 83.56152
564.9950, 40.36743
566.1690, 120.6597
567.3430, 43.44458
568.5160, 19.90308
569.6890, 18.95386
570.8620, 104.3875
572.0350, 42.40356
573.2070, 21.29126
574.3800, 112.4937
575.5520, 47.46704
576.7240, 30.91846
577.8960, 85.11279
579.0680, 79.65576
580.2400, 16.55518
581.4110, 122.1965
582.5830, 10.11108
583.7540, 28.13965
584.9250, 18.00024
586.0950, 72.22681
587.2660, 57.12842
588.4370, 2.857666
589.6070, 99.86768
590.7770, 76.17969
591.9470, 42.70239
593.1170, 61.73706
594.2860, 35.11450
595.4560, 50.22021
596.6250, 69.60767
597.7940, 17.35059
598.9630, 86.15186
600.1320, 85.00586
601.3000, 13.25952
602.4690, 19.15698
603.6370, 115.0361
604.8050, 125.1045
605.9730, 46.79883
607.1410, 21.73779
608.3090, 42.15503
609.4760, 56.26489
610.6430, 89.42188
611.8100, 9.043945
612.9770, 138.2288
614.1440, 77.64624
615.3110, 124.8667
616.4770, 115.6482
617.6430, 68.07422
618.8090, 82.68945
619.9750, 38.98340
621.1410, 137.6826
622.3070, 179.5029
623.4720, 118.4995
624.6370, 5.492188
625.8020, 72.14453
626.9670, 112.8359
628.1320, 112.2974
629.2970, 134.7803
630.4610, 112.8516
631.6250, 82.51416
632.7890, 79.57031
633.9530, 104.5469
635.1170, 93.00049
636.2810, 176.0542
637.4440, 137.2212
638.6070, 241.9067
639.7700, 184.7271
640.9330, 263.9287
642.0960, 278.7358
643.2590, 374.3706
644.4210, 365.6040
645.5830, 511.6108
646.7450, 461.9033
647.9070, 503.3916
649.0690, 607.8208
650.2310, 651.4507
651.3920, 655.0366
652.5530, 642.9678
653.7140, 573.8652
654.8750, 605.3804
656.0360, 545.4272
657.1970, 498.9087
658.3570, 371.5986
659.5170, 341.1499
660.6770, 274.7505
661.8370, 268.2334
662.9970, 199.0996
664.1570, 104.7603
665.3160, 122.8516
666.4750, 101.5117
667.6340, 198.6143
668.7930, 222.2446
669.9520, 91.26562
671.1110, 19.49414
672.2690, 118.5249
673.4270, 55.14502
674.5850, 109.2358
675.7430, 65.97314
676.9010, 127.6475
678.0590, 109.2290
679.2160, 40.13770
680.3730, 102.5288
681.5300, 200.5166
682.6870, 40.59473
683.8440, 129.6885
685.0010, 63.25049
686.1570, 49.09033
687.3130, 159.3662
688.4690, 155.9404
689.6250, 115.6470
690.7810, 158.0903
691.9370, 138.2246
693.0920, 13.37451
694.2470, 6.362305
695.4020, 123.6992
696.5570, 53.72949
697.7120, 134.5112
698.8670, 107.1479
700.0210, 88.37451
701.1750, 62.83496
702.3290, 103.0181
703.4830, 62.54736
704.6370, 128.9980
705.7910, 29.35938
706.9440, 82.60352
708.0970, 154.3838
709.2510, 64.15137
710.4030, 108.1509
711.5560, 105.9956
712.7090, 58.33496
713.8610, 74.08008
715.0140, 212.5664
716.1660, 48.85693
717.3180, 102.3936
718.4690, 69.22900
719.6210, 98.59912
720.7730, 24.70508
721.9240, 66.57666
723.0750, 92.91553
724.2260, 141.8467
725.3770, 9.706055
726.5270, 51.49756
727.6780, 140.9912
728.8280, 82.01855
729.9780, 185.8364
731.1280, 150.1177
732.2780, 37.89258
733.4280, 115.1294
734.5770, 34.15771
735.7260, 96.35986
736.8760, 91.11426
738.0250, 70.11377
739.1730, 1.753906
740.3220, 84.66748
741.4700, 16.75000
742.6190, 24.20947
743.7670, 74.58838
744.9150, 134.1133
746.0630, 140.2568
747.2100, 143.8750
748.3580, 21.96631
749.5050, 77.82129
750.6520, 80.08203
751.7990, 18.82861
752.9460, 53.66113
754.0930, 107.1206
755.2390, 172.5845
756.3860, 100.9951
757.5320, 12.23633
758.6780, 98.50879
759.8240, 65.43848
760.9690, 83.18604
762.1150, 53.89404
763.2600, 95.70557
764.4060, 84.70898
765.5510, 103.8413
766.6950, 91.34277
767.8400, 15.57422
768.9850, 29.16504
770.1290, 133.3257
771.2730, 24.88428
772.4170, 67.97119
773.5610, 107.2378
774.7050, 84.49121
775.8480, 130.3525
776.9920, 116.1641
778.1350, 58.56592
779.2780, 129.9766
780.4210, 96.53369
781.5640, 3.642090
782.7060, 39.63525
783.8490, 168.4185
784.9910, 147.8472
786.1330, 92.71289
787.2750, 94.04492
788.4170, 69.13770
789.5580, 226.2407
790.7000, 193.3682
791.8410, 109.1421
792.9820, 144.3735
794.1230, 196.4736
795.2640, 179.0806
796.4040, 135.7173
797.5450, 158.4805
798.6850, 124.2954
799.8250, 63.75879
800.9650, 117.6504
802.1050, 215.4067
803.2450, 102.2285
804.3840, 126.2427
805.5230, 65.05078
806.6630, 148.6006
807.8020, 104.5547
808.9400, 129.0674
810.0790, 40.65381
811.2170, 3.974121
812.3560, 221.0015
813.4940, 145.1670
814.6320, 119.5571
815.7700, 59.51465
816.9070, 90.49561
818.0450, 183.6138
819.1820, 114.0024
820.3190, 121.3359
821.4560, 221.8320
822.5930, 137.3408
823.7300, 75.53174
824.8670, 184.9722
826.0030, 18.01709
827.1390, 53.49902
828.2750, 208.2656
829.4110, 180.3652
830.5470, 197.2544
831.6820, 124.4980
832.8180, 0.6904300
833.9530, 45.43750
835.0880, 53.37305
836.2230, 130.1533
837.3580, 79.64844
838.4920, 109.9043
839.6270, 204.4658
840.7610, 158.4316
841.8950, 55.55078
843.0290, 168.1230
844.1630, 233.8125
845.2960, 45.66309
846.4300, 222.9824
847.5630, 176.9082
848.6960, 255.1787
849.8290, 227.6924
850.9620, 203.2256
852.0940, 212.7803
853.2270, 185.3643
854.3590, 100.6621
855.4910, 115.2549
856.6230, 262.1504
857.7550, 183.3057
858.8870, 190.7256
860.0180, 170.8018
861.1500, 182.2129
862.2810, 159.6670
863.4120, 156.2588
864.5430, 108.2051
865.6730, 110.2041
866.8040, 183.2383
867.9340, 87.19238
869.0640, 2.716797
870.1940, 182.3896
871.3240, 135.9580
872.4540, 30.70996
873.5830, 27.32910
874.7130, 104.9766
875.8420, 170.7451
876.9710, 12.53223
878.1000, 215.1553
879.2290, 47.78320
880.3570, 97.14844
881.4860, 20.15332
882.6140, 59.97754
883.7420, 124.6904
884.8700, 37.65332
885.9980, 49.84863
887.1250, 45.99023
888.2530, 109.5283
889.3800, 29.77344
890.5070, 185.0078
891.6340, 125.9404
892.7610, 26.55957
893.8880, 0.4980470
895.0140, 61.31055
896.1400, 80.58105
897.2670, 44.65527
898.3930, 28.79395
899.5180, 76.84180
900.6440, 11.16113
901.7700, 34.73438
902.8950, 215.9102
904.0200, 71.55664
905.1450, 18.82617
906.2700, 55.46973
907.3950, 5.723633
908.5190, 10.56152
909.6440, 105.6465
910.7680, 137.4014
911.8920, 52.25879
913.0160, 60.74609
914.1400, 8.568359
915.2630, 60.35059
916.3870, 26.92676
917.5100, 6.180664
918.6330, 122.4404
919.7560, 187.4180
920.8790, 87.07520
922.0010, 169.9277
923.1240, 44.40820
924.2460, 182.9629
925.3680, 156.8027
926.4900, 219.7822
927.6120, 100.2090
928.7340, 105.6182
929.8550, 195.0068
930.9760, 167.2500
932.0980, 116.5635
933.2190, 97.88672
934.3390, 139.2305
935.4600, 188.3145
936.5810, 108.1387
937.7010, 96.00000
938.8210, 227.3252
939.9410, 111.5859
941.0610, 173.4414
942.1810, 161.2793
943.3010, 169.3535
944.4200, 230.1299
945.5390, 207.1191
946.6580, 306.9775
947.7770, 213.5186
948.8960, 197.7627
950.0150, 260.3398
951.1330, 162.2891
952.2510, 168.9971
953.3690, 179.0742
954.4870, 248.2100
955.6050, 71.51074
956.7230, 176.5303
957.8400, 216.2568
958.9580, 242.6836
960.0750, 311.3027
961.1920, 119.0264
962.3090, 427.4004
963.4250, 186.8896
964.5420, 309.4209
965.6580, 174.4150
966.7740, 340.1680
967.8900, 309.1260
969.0060, 303.2617
970.1220, 255.2080
971.2380, 380.4912
972.3530, 338.0137
973.4680, 180.9502
974.5830, 332.5869
975.6980, 260.0195
976.8130, 281.0527
977.9280, 261.0605
979.0420, 218.6055
980.1560, 227.2021
981.2710, 91.51074
982.3850, 268.3750
983.4980, 81.78516
984.6120, 63.56445
985.7260, 167.8525
986.8390, 217.6475
987.9520, 58.45410
989.0650, 162.6533
990.1780, 88.70410
991.2910, 147.1152
992.4030, 108.6191
993.5160, 261.9404
994.6280, 130.8291
995.7400, 167.5752
996.8520, 172.2686
997.9640, 144.6836
999.0750, 36.83008
1000.187, 98.89453
1001.298, 49.29102
1002.409, 106.3252
1003.520, 146.9463
1004.631, 235.2451
1005.741, 189.3770
1006.852, 144.8818
1007.962, 84.47266
1009.072, 267.2100
1010.182, 21.95703
1011.292, 200.5791
1012.402, 223.7949
1013.511, 6.478516
1014.621, 109.6484
1015.730, 171.4131
1016.839, 149.1748
1017.948, 306.3574
1019.056, 322.1113
1020.165, 98.00195
1021.273, 173.9922
1022.382, 197.0469
1023.490, 411.8623
1024.598, 383.3877
1025.706, 283.2773
1026.813, 404.9482
1027.921, 307.1084
1029.028, 206.3516
1030.135, 46.40527
1031.242, 174.7686
1032.349, 196.0781
1033.456, 0.4345700
1034.562, 167.7949
1035.668, 15.89648
1036.775, 115.4102
1037.881, 118.0508
1038.987, 0.5644530
1040.092, 0.0000000E+00
##END=



