##NAMES=Pectolite
##RRUFFID=R060101
##IDEAL CHEMISTRY=NaCa_2_Si_3_O_8_(OH)
##LOCALITY=West Patterson, New Jersey, USA
##OWNER=RRUFF
##SOURCE=University of Arizona Mineral Museum
##DESCRIPTION=Tufts of white acicular sprays
##STATUS=The identification of this mineral has been confirmed by X-ray diffraction and chemical analysis
##URL=rruff.info/R060101
##MEASURED CHEMISTRY=Na_1.02_Ca_2.00_Si_2.99_O_8_(OH)
##PIN_ID=L00538
##ORIENTATION=Laser parallel to (0 -1 -1). Fiducial mark perpendicular to laser is parallel to -a [-1 0 0]
135.0140, 0.0000000E+00
136.2500, 2.174316
137.4850, 4.185059
138.7200, 0.7149660
139.9550, 62.78564
141.1900, 37.57764
142.4250, 30.48999
143.6600, 73.67517
144.8940, 55.15100
146.1280, 91.62024
147.3620, 151.9796
148.5960, 127.1724
149.8300, 122.6570
151.0630, 133.7094
152.2960, 136.3086
153.5300, 111.4619
154.7620, 131.3702
155.9950, 104.1422
157.2280, 74.84351
158.4600, 61.52014
159.6920, 28.38623
160.9250, 20.74805
162.1560, 36.11157
163.3880, 16.36377
164.6200, 18.09497
165.8510, 15.80090
167.0820, 4.327637
168.3130, 10.55762
169.5440, 4.076782
170.7750, 2.199707
172.0050, 18.93066
173.2350, 50.96802
174.4650, 27.71423
175.6950, 22.27478
176.9250, 9.081421
178.1550, 0.2344970
179.3840, 41.66553
180.6130, 32.82849
181.8420, 41.75171
183.0710, 23.47949
184.3000, 46.09924
185.5280, 57.64380
186.7570, 66.58984
187.9850, 67.36304
189.2130, 43.32910
190.4400, 9.158325
191.6680, 3.563843
192.8960, 71.07080
194.1230, 26.59961
195.3500, 83.85986
196.5770, 18.81030
197.8030, 21.80249
199.0300, 46.20496
200.2560, 9.191406
201.4830, 55.84924
202.7090, 9.276001
203.9340, 64.74133
205.1600, 6.984497
206.3860, 46.09668
207.6110, 40.70264
208.8360, 41.24915
210.0610, 37.11792
211.2860, 53.76147
212.5100, 32.35291
213.7350, 26.17444
214.9590, 26.51904
216.1830, 51.20654
217.4070, 35.65637
218.6310, 44.80591
219.8540, 77.99146
221.0780, 52.98865
222.3010, 51.31775
223.5240, 61.11926
224.7470, 54.27136
225.9690, 69.55554
227.1920, 62.83899
228.4140, 70.65894
229.6360, 70.34558
230.8580, 71.97888
232.0800, 69.80310
233.3020, 75.54810
234.5230, 74.44263
235.7440, 72.50549
236.9650, 59.28809
238.1860, 49.40381
239.4070, 63.52490
240.6280, 62.45471
241.8480, 27.55261
243.0680, 76.53198
244.2880, 0.7974850
245.5080, 31.92627
246.7280, 40.41443
247.9470, 13.51501
249.1660, 31.36755
250.3860, 85.11304
251.6040, 44.99500
252.8230, 60.53723
254.0420, 19.90466
255.2600, 123.0601
256.4790, 77.18518
257.6970, 65.27625
258.9150, 92.33508
260.1320, 36.35840
261.3500, 73.81616
262.5670, 136.5558
263.7840, 68.26367
265.0010, 87.84570
266.2180, 58.32825
267.4350, 44.13770
268.6510, 43.68518
269.8680, 14.79248
271.0840, 65.83472
272.3000, 82.41736
273.5160, 50.03320
274.7310, 126.5538
275.9470, 61.03601
277.1620, 8.479492
278.3770, 33.16016
279.5920, 69.38599
280.8070, 39.56494
282.0210, 64.21143
283.2360, 29.02222
284.4500, 34.80933
285.6640, 59.41260
286.8780, 17.08643
288.0920, 8.570557
289.3050, 0.8613280
290.5180, 23.29443
291.7320, 27.82764
292.9450, 16.69287
294.1570, 55.64526
295.3700, 38.96021
296.5830, 0.7050780
297.7950, 25.59180
299.0070, 33.90283
300.2190, 25.46533
301.4310, 14.31665
302.6420, 71.72803
303.8540, 38.82642
305.0650, 65.90356
306.2760, 25.81470
307.4870, 49.33911
308.6980, 34.20190
309.9080, 23.29517
311.1190, 70.04102
312.3290, 79.88477
313.5390, 93.71704
314.7490, 91.91724
315.9580, 134.4326
317.1680, 155.3711
318.3770, 94.11450
319.5860, 42.58301
320.7950, 113.0671
322.0040, 87.45703
323.2130, 85.57178
324.4210, 80.63916
325.6290, 89.12329
326.8380, 70.65283
328.0460, 83.04053
329.2530, 79.34961
330.4610, 75.36743
331.6680, 54.65381
332.8760, 72.04639
334.0830, 53.42163
335.2890, 49.59644
336.4960, 70.33667
337.7030, 73.36963
338.9090, 29.25513
340.1150, 52.93408
341.3210, 11.38867
342.5270, 25.22241
343.7330, 41.76050
344.9380, 53.42285
346.1440, 20.31445
347.3490, 40.90186
348.5540, 23.11963
349.7590, 47.73462
350.9630, 124.9556
352.1680, 63.21826
353.3720, 110.6804
354.5760, 96.94043
355.7800, 59.28711
356.9840, 77.72583
358.1870, 91.76465
359.3910, 109.8188
360.5940, 114.8870
361.7970, 126.9993
363.0000, 119.7175
364.2030, 136.4829
365.4050, 117.3499
366.6080, 107.1184
367.8100, 145.8174
369.0120, 137.4707
370.2140, 138.1633
371.4150, 202.9478
372.6170, 207.7695
373.8180, 264.3564
375.0190, 331.0688
376.2200, 384.8135
377.4210, 298.1985
378.6220, 329.5913
379.8220, 329.1514
381.0230, 323.6440
382.2230, 303.0439
383.4230, 200.9287
384.6220, 180.9065
385.8220, 81.79175
387.0220, 90.86499
388.2210, 104.2864
389.4200, 108.5503
390.6190, 82.93018
391.8180, 30.81348
393.0160, 178.5508
394.2150, 102.4297
395.4130, 119.4336
396.6110, 61.21997
397.8090, 80.89282
399.0060, 86.33398
400.2040, 102.0769
401.4010, 122.6406
402.5980, 153.1873
403.7950, 156.8428
404.9920, 125.4058
406.1890, 222.8098
407.3860, 296.4336
408.5820, 175.8667
409.7780, 280.5591
410.9740, 270.7915
412.1700, 278.1614
413.3650, 277.5898
414.5610, 307.7524
415.7560, 336.0427
416.9510, 235.3789
418.1460, 212.3718
419.3410, 130.6946
420.5360, 111.6956
421.7300, 76.39233
422.9240, 94.26001
424.1180, 93.10254
425.3120, 86.96606
426.5060, 33.92505
427.7000, 25.64062
428.8930, 45.28418
430.0860, 81.88843
431.2790, 67.90479
432.4720, 78.15601
433.6650, 68.60303
434.8580, 36.19653
436.0500, 40.76733
437.2420, 66.10620
438.4340, 63.32178
439.6260, 25.75000
440.8180, 49.94531
442.0090, 8.246826
443.2010, 15.72388
444.3920, 42.78760
445.5830, 72.10474
446.7740, 49.84497
447.9640, 46.66016
449.1550, 14.36255
450.3450, 10.13989
451.5350, 70.84912
452.7250, 7.493652
453.9150, 76.89844
455.1050, 41.61719
456.2940, 23.21436
457.4830, 164.6765
458.6720, 9.769531
459.8610, 19.27222
461.0500, 15.11255
462.2390, 83.64453
463.4270, 66.54883
464.6150, 73.64087
465.8040, 115.9795
466.9910, 105.0791
468.1790, 34.70996
469.3670, 11.02783
470.5540, 40.60791
471.7410, 34.48047
472.9280, 71.23999
474.1150, 80.60107
475.3020, 7.673828
476.4890, 31.88989
477.6750, 36.52612
478.8610, 92.86670
480.0470, 6.085693
481.2330, 78.37134
482.4190, 94.08569
483.6040, 110.0215
484.7900, 80.52197
485.9750, 91.45410
487.1600, 77.30688
488.3450, 41.09326
489.5290, 85.89795
490.7140, 117.5781
491.8980, 61.94409
493.0820, 93.55322
494.2660, 114.9666
495.4500, 52.07471
496.6340, 91.27100
497.8170, 56.37061
499.0010, 35.18213
500.1840, 93.61621
501.3670, 73.29834
502.5500, 54.90088
503.7320, 85.04688
504.9150, 89.69238
506.0970, 95.99072
507.2790, 97.29492
508.4610, 78.45703
509.6430, 83.12402
510.8250, 93.70215
512.0060, 67.77588
513.1870, 51.78857
514.3680, 26.88525
515.5490, 80.91650
516.7300, 40.88623
517.9110, 24.79395
519.0910, 98.63770
520.2710, 92.42090
521.4510, 41.55127
522.6310, 45.21875
523.8110, 44.46045
524.9910, 147.6948
526.1700, 126.0005
527.3490, 137.2886
528.5280, 46.86719
529.7070, 3.644531
530.8860, 87.30029
532.0650, 4.637207
533.2430, 65.87598
534.4210, 52.98389
535.5990, 38.35303
536.7770, 52.82422
537.9550, 55.09180
539.1320, 88.10059
540.3100, 90.55078
541.4870, 98.31836
542.6640, 104.4277
543.8410, 87.58496
545.0170, 79.47119
546.1940, 36.80615
547.3700, 102.5024
548.5470, 15.12598
549.7230, 70.90430
550.8980, 19.04248
552.0740, 14.07080
553.2500, 32.86475
554.4250, 8.623535
555.6000, 26.96338
556.7750, 45.27148
557.9500, 42.01904
559.1250, 82.52637
560.2990, 59.19824
561.4730, 73.74268
562.6480, 69.13037
563.8220, 59.08154
564.9950, 91.16016
566.1690, 46.18115
567.3430, 35.61377
568.5160, 45.92188
569.6890, 56.31494
570.8620, 77.46729
572.0350, 40.12207
573.2070, 99.44531
574.3800, 122.1255
575.5520, 52.44287
576.7240, 0.4042970
577.8960, 29.16064
579.0680, 81.10449
580.2400, 10.53857
581.4110, 14.57178
582.5830, 70.50342
583.7540, 20.87695
584.9250, 22.18408
586.0950, 87.30176
587.2660, 120.1074
588.4370, 56.26416
589.6070, 31.56152
590.7770, 47.58643
591.9470, 18.57275
593.1170, 35.58740
594.2860, 68.55762
595.4560, 27.57764
596.6250, 53.41992
597.7940, 86.14648
598.9630, 50.22656
600.1320, 89.84131
601.3000, 107.4521
602.4690, 8.516602
603.6370, 93.70703
604.8050, 105.7412
605.9730, 7.834473
607.1410, 50.01709
608.3090, 144.1875
609.4760, 3.162598
610.6430, 118.7314
611.8100, 47.33301
612.9770, 56.79102
614.1440, 134.3345
615.3110, 168.3350
616.4770, 84.56348
617.6430, 48.35791
618.8090, 48.75781
619.9750, 85.30029
621.1410, 58.44189
622.3070, 138.3086
623.4720, 95.32812
624.6370, 79.34863
625.8020, 44.81689
626.9670, 67.23438
628.1320, 81.32568
629.2970, 25.92529
630.4610, 67.53076
631.6250, 109.1997
632.7890, 63.66455
633.9530, 178.6763
635.1170, 175.8794
636.2810, 188.0669
637.4440, 183.1719
638.6070, 199.7749
639.7700, 308.5044
640.9330, 234.5195
642.0960, 257.2339
643.2590, 378.6284
644.4210, 463.0566
645.5830, 621.7910
646.7450, 689.8408
647.9070, 746.6328
649.0690, 790.4717
650.2310, 892.8765
651.3920, 802.7656
652.5530, 1023.723
653.7140, 979.4204
654.8750, 864.6968
656.0360, 663.6113
657.1970, 487.3472
658.3570, 459.8579
659.5170, 428.6040
660.6770, 211.3491
661.8370, 307.7808
662.9970, 155.9028
664.1570, 143.2700
665.3160, 112.5215
666.4750, 102.6602
667.6340, 160.2388
668.7930, 107.3184
669.9520, 133.9663
671.1110, 28.27783
672.2690, 117.5693
673.4270, 147.1777
674.5850, 217.5542
675.7430, 101.5337
676.9010, 151.5225
678.0590, 139.2827
679.2160, 23.11523
680.3730, 25.21582
681.5300, 51.68652
682.6870, 104.1045
683.8440, 183.2773
685.0010, 63.79834
686.1570, 169.3896
687.3130, 55.39502
688.4690, 118.6621
689.6250, 62.60938
690.7810, 121.1875
691.9370, 91.48535
693.0920, 118.5938
694.2470, 102.9834
695.4020, 54.54297
696.5570, 72.80859
697.7120, 114.2114
698.8670, 60.39746
700.0210, 35.08789
701.1750, 11.40820
702.3290, 68.39307
703.4830, 39.77441
704.6370, 35.67041
705.7910, 153.4189
706.9440, 112.3564
708.0970, 66.40137
709.2510, 179.6260
710.4030, 211.9888
711.5560, 77.11523
712.7090, 226.2915
713.8610, 48.43408
715.0140, 38.17188
716.1660, 18.43457
717.3180, 21.32422
718.4690, 56.12500
719.6210, 10.50293
720.7730, 24.73145
721.9240, 59.65723
723.0750, 81.03809
724.2260, 136.4248
725.3770, 10.07812
726.5270, 103.9697
727.6780, 50.03418
728.8280, 39.49805
729.9780, 87.61328
731.1280, 52.63867
732.2780, 22.60352
733.4280, 55.62598
734.5770, 44.50098
735.7260, 36.43848
736.8760, 76.00684
738.0250, 78.62500
739.1730, 158.8008
740.3220, 115.0430
741.4700, 134.3691
742.6190, 137.3066
743.7670, 111.9287
744.9150, 115.9922
746.0630, 88.86426
747.2100, 125.9805
748.3580, 32.86035
749.5050, 105.5850
750.6520, 115.7109
751.7990, 113.5957
752.9460, 234.2852
754.0930, 86.49609
755.2390, 167.0381
756.3860, 43.27441
757.5320, 45.83105
758.6780, 38.82227
759.8240, 6.246094
760.9690, 115.9014
762.1150, 112.8701
763.2600, 38.88086
764.4060, 202.2715
765.5510, 28.14648
766.6950, 69.31250
767.8400, 92.89453
768.9850, 89.73340
770.1290, 63.40039
771.2730, 39.11328
772.4170, 139.4131
773.5610, 61.30176
774.7050, 101.0225
775.8480, 166.5977
776.9920, 96.17383
778.1350, 67.70410
779.2780, 99.82227
780.4210, 146.1211
781.5640, 152.3838
782.7060, 75.14746
783.8490, 174.0059
784.9910, 85.10547
786.1330, 48.04297
787.2750, 76.56055
788.4170, 191.7861
789.5580, 130.8750
790.7000, 159.6211
791.8410, 216.6875
792.9820, 99.58887
794.1230, 91.69434
795.2640, 110.1191
796.4040, 108.4180
797.5450, 84.24316
798.6850, 87.42383
799.8250, 147.5273
800.9650, 89.05566
802.1050, 199.0674
803.2450, 182.3662
804.3840, 77.34863
805.5230, 81.32715
806.6630, 113.1602
807.8020, 54.37500
808.9400, 106.4951
810.0790, 125.7461
811.2170, 147.6826
812.3560, 206.0664
813.4940, 196.8516
814.6320, 232.5215
815.7700, 227.5527
816.9070, 143.2256
818.0450, 278.8369
819.1820, 65.61523
820.3190, 294.2393
821.4560, 180.9326
822.5930, 98.10938
823.7300, 281.2275
824.8670, 167.7812
826.0030, 216.3887
827.1390, 228.7217
828.2750, 104.0020
829.4110, 84.32324
830.5470, 192.6953
831.6820, 146.4609
832.8180, 266.0264
833.9530, 98.43750
835.0880, 41.15820
836.2230, 16.03418
837.3580, 116.6992
838.4920, 189.1924
839.6270, 77.03906
840.7610, 172.0225
841.8950, 138.2949
843.0290, 298.0527
844.1630, 259.1455
845.2960, 202.0498
846.4300, 166.2998
847.5630, 161.6475
848.6960, 185.1182
849.8290, 192.6123
850.9620, 195.1660
852.0940, 222.3691
853.2270, 193.5977
854.3590, 197.6348
855.4910, 178.5156
856.6230, 16.74512
857.7550, 163.0586
858.8870, 297.2803
860.0180, 72.32520
861.1500, 60.90918
862.2810, 38.12402
863.4120, 90.57520
864.5430, 162.6191
865.6730, 238.1104
866.8040, 234.0146
867.9340, 210.6084
869.0640, 203.0254
870.1940, 112.4922
871.3240, 47.26074
872.4540, 63.88086
873.5830, 43.87695
874.7130, 184.5996
875.8420, 122.6885
876.9710, 132.3975
878.1000, 82.64062
879.2290, 113.8838
880.3570, 13.33105
881.4860, 203.3818
882.6140, 40.54980
883.7420, 85.52734
884.8700, 203.8623
885.9980, 66.41797
887.1250, 86.84180
888.2530, 148.1328
889.3800, 77.81055
890.5070, 102.7422
891.6340, 16.88770
892.7610, 58.68750
893.8880, 135.7207
895.0140, 110.9004
896.1400, 110.4062
897.2670, 96.62695
898.3930, 195.1064
899.5180, 146.6338
900.6440, 209.6475
901.7700, 125.9229
902.8950, 182.1426
904.0200, 135.0273
905.1450, 189.9404
906.2700, 161.1914
907.3950, 229.1250
908.5190, 120.0410
909.6440, 136.7168
910.7680, 138.9521
911.8920, 128.7510
913.0160, 212.0332
914.1400, 222.7842
915.2630, 31.22168
916.3870, 8.847656
917.5100, 50.11035
918.6330, 80.26367
919.7560, 173.9404
920.8790, 8.460938
922.0010, 66.08887
923.1240, 96.01465
924.2460, 99.15820
925.3680, 32.32031
926.4900, 75.93652
927.6120, 82.50586
928.7340, 42.14844
929.8550, 111.3926
930.9760, 112.4238
932.0980, 47.80273
933.2190, 197.8291
934.3390, 20.87793
935.4600, 148.9463
936.5810, 114.0195
937.7010, 192.5986
938.8210, 70.50293
939.9410, 256.8184
941.0610, 64.06250
942.1810, 36.54492
943.3010, 3.339844
944.4200, 210.5742
945.5390, 94.78906
946.6580, 276.7637
947.7770, 92.01562
948.8960, 116.1387
950.0150, 61.10938
951.1330, 142.0918
952.2510, 135.3887
953.3690, 114.2109
954.4870, 143.2832
955.6050, 171.1270
956.7230, 146.8750
957.8400, 233.1211
958.9580, 224.3535
960.0750, 245.7559
961.1920, 224.8164
962.3090, 266.0605
963.4250, 196.6426
964.5420, 179.9531
965.6580, 278.6484
966.7740, 247.0156
967.8900, 271.7441
969.0060, 207.7520
970.1220, 339.2773
971.2380, 291.7363
972.3530, 276.2871
973.4680, 239.6758
974.5830, 384.6309
975.6980, 94.97266
976.8130, 250.0410
977.9280, 124.0371
979.0420, 306.3320
980.1560, 305.2344
981.2710, 282.6992
982.3850, 116.9199
983.4980, 197.0098
984.6120, 115.0000
985.7260, 137.6895
986.8390, 193.2773
987.9520, 194.5000
989.0650, 165.2168
990.1780, 322.4727
991.2910, 303.6953
992.4030, 130.1895
993.5160, 150.6289
994.6280, 290.9648
995.7400, 204.8906
996.8520, 236.2109
997.9640, 251.8535
999.0750, 347.8027
1000.187, 387.9863
1001.298, 269.9883
1002.409, 433.6816
1003.520, 264.6738
1004.631, 479.5820
1005.741, 494.8809
1006.852, 113.8223
1007.962, 351.5078
1009.072, 317.3418
1010.182, 337.3711
1011.292, 202.7617
1012.402, 178.7480
1013.511, 316.6680
1014.621, 433.7852
1015.730, 306.0312
1016.839, 360.2090
1017.948, 438.0586
1019.056, 374.5664
1020.165, 501.2793
1021.273, 521.2715
1022.382, 428.8945
1023.490, 597.6777
1024.598, 636.8086
1025.706, 627.1074
1026.813, 625.6309
1027.921, 611.8711
1029.028, 489.4590
1030.135, 497.1914
1031.242, 243.0195
1032.349, 280.2129
1033.456, 137.8047
1034.562, 400.6055
1035.668, 133.4512
1036.775, 207.5117
1037.881, 167.1250
1038.987, 81.22070
1040.092, 200.1445
1041.198, 132.0312
1042.303, 327.7402
1043.408, 196.3145
1044.514, 116.2148
1045.618, 10.76562
1046.723, 193.4043
1047.828, 139.8652
1048.932, 137.2988
1050.037, 122.2930
1051.141, 154.2500
1052.245, 148.7012
1053.349, 319.4609
1054.452, 46.60352
1055.556, 136.3652
1056.659, 169.2461
1057.762, 32.06836
1058.865, 200.5781
1059.968, 113.2852
1061.071, 337.3164
1062.174, 298.1719
1063.276, 167.0684
1064.378, 454.2891
1065.480, 5.548828
1066.582, 311.7578
1067.684, 404.0117
1068.786, 225.6465
1069.887, 161.2266
1070.988, 565.9844
1072.090, 315.6641
1073.191, 344.3516
1074.291, 229.0605
1075.392, 351.1250
1076.493, 224.3652
1077.593, 219.9199
1078.693, 331.7695
1079.793, 230.4883
1080.893, 221.7754
1081.993, 434.5000
1083.092, 206.0215
1084.192, 640.2207
1085.291, 153.9590
1086.390, 78.68359
1087.489, 95.53711
1088.588, 447.4375
1089.686, 392.9395
1090.785, 469.1113
1091.883, 140.1523
1092.981, 229.1973
1094.079, 287.3145
1095.177, 238.9688
1096.275, 333.6934
1097.373, 199.5234
1098.470, 208.2832
1099.567, 340.0117
1100.664, 116.0117
1101.761, 75.11523
1102.858, 122.5645
1103.954, 122.4746
1105.051, 20.91406
1106.147, 283.3398
1107.243, 127.8691
1108.339, 152.9766
1109.435, 39.63086
1110.531, 213.3086
1111.626, 124.4492
1112.722, 52.86523
1113.817, 98.69922
1114.912, 44.71484
1116.007, 5.779297
1117.101, 27.93164
1118.196, 0.7441410
1119.290, 0.0000000E+00
##END=



