##NAMES=Pectolite
##RRUFFID=R050396
##IDEAL CHEMISTRY=NaCa_2_Si_3_O_8_(OH)
##LOCALITY=Jeffrey Quarry, Asbestos, Quebec, Canada
##OWNER=RRUFF
##SOURCE=Marcus Origlieri
##DESCRIPTION=Colorless to gray columnar blocky crystals
##STATUS=The identification of this mineral has been confirmed by X-ray diffraction and chemical analysis
##URL=rruff.info/R050396
##MEASURED CHEMISTRY=Na_1.00_Ca_2.00_Si_3.00_O_8_(OH)
##PIN_ID=L01945
##ORIENTATION=Laser parallel to (1 1 0). Fiducial mark perpendicular to laser is parallel to c [0 0 1]
164.6200, 0.0000000E+00
165.8510, 7.970703
167.0820, 282.1016
168.3130, 23.71484
169.5440, 208.7051
170.7750, 292.3848
172.0050, 172.9434
173.2350, 126.6035
174.4650, 10.79688
175.6950, 8.390625
176.9250, 307.7168
178.1550, 226.4375
179.3840, 423.7051
180.6130, 459.1367
181.8420, 286.6445
183.0710, 443.2227
184.3000, 382.1602
185.5280, 244.4238
186.7570, 326.9863
187.9850, 355.8184
189.2130, 270.9043
190.4400, 215.2207
191.6680, 378.7539
192.8960, 226.4863
194.1230, 233.4102
195.3500, 186.5098
196.5770, 148.5684
197.8030, 275.1816
199.0300, 150.7402
200.2560, 249.4355
201.4830, 309.2656
202.7090, 329.2266
203.9340, 384.3164
205.1600, 240.5137
206.3860, 264.8145
207.6110, 219.2109
208.8360, 318.6953
210.0610, 211.2656
211.2860, 181.9141
212.5100, 255.6426
213.7350, 489.4473
214.9590, 190.3281
216.1830, 347.2773
217.4070, 219.3145
218.6310, 176.4258
219.8540, 309.5957
221.0780, 358.8242
222.3010, 365.1191
223.5240, 214.4648
224.7470, 338.8613
225.9690, 364.3008
227.1920, 250.7852
228.4140, 303.3086
229.6360, 287.8750
230.8580, 217.4922
232.0800, 279.1660
233.3020, 153.8906
234.5230, 281.6738
235.7440, 358.5098
236.9650, 541.3984
238.1860, 213.4355
239.4070, 35.47656
240.6280, 316.6270
241.8480, 92.77734
243.0680, 77.91016
244.2880, 128.0273
245.5080, 7.146484
246.7280, 228.2734
247.9470, 161.4082
249.1660, 154.5488
250.3860, 134.7012
251.6040, 96.86719
252.8230, 228.0469
254.0420, 165.2461
255.2600, 276.4531
256.4790, 168.6738
257.6970, 198.9414
258.9150, 128.3145
260.1320, 327.7559
261.3500, 202.1992
262.5670, 415.6465
263.7840, 229.0957
265.0010, 440.5527
266.2180, 431.0117
267.4350, 444.4746
268.6510, 287.2891
269.8680, 544.7910
271.0840, 670.3301
272.3000, 887.8730
273.5160, 650.4219
274.7310, 758.9688
275.9470, 706.5117
277.1620, 646.0586
278.3770, 692.0195
279.5920, 645.4160
280.8070, 678.5020
282.0210, 679.0586
283.2360, 638.6230
284.4500, 761.5391
285.6640, 603.1016
286.8780, 324.6680
288.0920, 374.2441
289.3050, 413.8516
290.5180, 199.5059
291.7320, 312.1777
292.9450, 327.8672
294.1570, 381.7871
295.3700, 159.8008
296.5830, 155.7266
297.7950, 175.1055
299.0070, 295.1816
300.2190, 241.3613
301.4310, 398.7969
302.6420, 329.8633
303.8540, 218.7891
305.0650, 350.9062
306.2760, 336.0488
307.4870, 470.5820
308.6980, 380.1543
309.9080, 480.6250
311.1190, 473.9043
312.3290, 470.8652
313.5390, 452.9160
314.7490, 490.3945
315.9580, 447.5273
317.1680, 522.8574
318.3770, 408.8516
319.5860, 402.8906
320.7950, 318.2949
322.0040, 306.0273
323.2130, 316.2695
324.4210, 226.4688
325.6290, 192.0898
326.8380, 132.4922
328.0460, 339.7793
329.2530, 198.4238
330.4610, 234.0117
331.6680, 231.3672
332.8760, 6.746094
334.0830, 267.5254
335.2890, 98.94727
336.4960, 102.8965
337.7030, 128.6719
338.9090, 286.5137
340.1150, 178.1836
341.3210, 219.0352
342.5270, 138.9590
343.7330, 174.6016
344.9380, 309.1270
346.1440, 324.8965
347.3490, 216.5059
348.5540, 221.2324
349.7590, 164.8125
350.9630, 137.3652
352.1680, 96.54297
353.3720, 234.6797
354.5760, 97.24023
355.7800, 335.1289
356.9840, 356.6914
358.1870, 370.2520
359.3910, 222.8145
360.5940, 241.3789
361.7970, 214.9727
363.0000, 271.9629
364.2030, 179.5215
365.4050, 155.0762
366.6080, 262.6309
367.8100, 205.1797
369.0120, 109.0391
370.2140, 11.41797
371.4150, 242.2109
372.6170, 26.89648
373.8180, 444.4023
375.0190, 299.9199
376.2200, 187.7266
377.4210, 223.7695
378.6220, 122.2734
379.8220, 120.3008
381.0230, 219.6074
382.2230, 89.08594
383.4230, 159.5566
384.6220, 120.0195
385.8220, 175.6953
387.0220, 86.53516
388.2210, 101.0391
389.4200, 175.6211
390.6190, 17.46875
391.8180, 79.93555
393.0160, 18.47070
394.2150, 109.4922
395.4130, 258.4277
396.6110, 144.5430
397.8090, 241.4023
399.0060, 237.3730
400.2040, 234.9688
401.4010, 80.28906
402.5980, 3.615234
403.7950, 231.8730
404.9920, 120.6855
406.1890, 205.6543
407.3860, 201.0723
408.5820, 103.3496
409.7780, 102.3145
410.9740, 190.6348
412.1700, 90.25391
413.3650, 182.6172
414.5610, 203.3613
415.7560, 191.7910
416.9510, 162.2793
418.1460, 281.3418
419.3410, 378.3418
420.5360, 196.2793
421.7300, 37.41602
422.9240, 24.12891
424.1180, 133.6797
425.3120, 56.94531
426.5060, 196.9629
427.7000, 1.404297
428.8930, 59.64648
430.0860, 141.7227
431.2790, 25.06055
432.4720, 75.14648
433.6650, 32.31055
434.8580, 40.54492
436.0500, 14.41211
437.2420, 64.77344
438.4340, 75.55859
439.6260, 6.458984
440.8180, 41.21484
442.0090, 57.64453
443.2010, 116.3828
444.3920, 59.02539
445.5830, 112.2168
446.7740, 200.9219
447.9640, 4.826172
449.1550, 12.98633
450.3450, 66.27539
451.5350, 40.78711
452.7250, 55.36328
453.9150, 31.89258
455.1050, 225.7480
456.2940, 9.919922
457.4830, 96.63477
458.6720, 110.4180
459.8610, 68.08398
461.0500, 215.9004
462.2390, 178.2129
463.4270, 216.8574
464.6150, 253.8770
465.8040, 150.3398
466.9910, 307.0352
468.1790, 77.54883
469.3670, 139.5645
470.5540, 247.8828
471.7410, 96.80273
472.9280, 116.9980
474.1150, 355.2930
475.3020, 183.0488
476.4890, 92.76758
477.6750, 225.2363
478.8610, 62.34375
480.0470, 110.2930
481.2330, 99.67578
482.4190, 146.0781
483.6040, 106.9688
484.7900, 94.14258
485.9750, 165.2715
487.1600, 245.1953
488.3450, 141.0918
489.5290, 182.9609
490.7140, 156.8027
491.8980, 73.37695
493.0820, 299.3633
494.2660, 113.9258
495.4500, 68.68750
496.6340, 272.2695
497.8170, 131.8320
499.0010, 394.3652
500.1840, 502.8730
501.3670, 319.3555
502.5500, 489.8105
503.7320, 209.2402
504.9150, 115.6426
506.0970, 238.0156
507.2790, 308.3633
508.4610, 285.6797
509.6430, 289.9727
510.8250, 151.2383
512.0060, 365.4746
513.1870, 68.54102
514.3680, 143.5840
515.5490, 44.98633
516.7300, 456.0469
517.9110, 163.0781
519.0910, 106.0859
520.2710, 394.0605
521.4510, 152.0059
522.6310, 299.9160
523.8110, 368.8027
524.9910, 375.6602
526.1700, 262.4883
527.3490, 190.2852
528.5280, 150.0508
529.7070, 228.9141
530.8860, 209.6113
532.0650, 130.2754
533.2430, 314.3750
534.4210, 217.0020
535.5990, 99.74219
536.7770, 119.3086
537.9550, 74.97461
539.1320, 160.4238
540.3100, 80.83789
541.4870, 195.2090
542.6640, 267.5586
543.8410, 72.86328
545.0170, 215.3984
546.1940, 136.6250
547.3700, 97.82031
548.5470, 183.9980
549.7230, 63.15625
550.8980, 92.83984
552.0740, 244.9277
553.2500, 65.03320
554.4250, 29.86328
555.6000, 3.292969
556.7750, 25.55078
557.9500, 193.3574
559.1250, 8.130859
560.2990, 66.84766
561.4730, 78.53320
562.6480, 267.1758
563.8220, 125.5742
564.9950, 80.12695
566.1690, 226.3398
567.3430, 311.7930
568.5160, 178.1934
569.6890, 222.5020
570.8620, 259.0469
572.0350, 193.3945
573.2070, 250.3184
574.3800, 228.4062
575.5520, 29.26953
576.7240, 369.1445
577.8960, 169.8320
579.0680, 69.76953
580.2400, 120.3809
581.4110, 81.97266
582.5830, 19.44727
583.7540, 296.8926
584.9250, 76.65820
586.0950, 180.1230
587.2660, 65.33789
588.4370, 25.60938
589.6070, 52.95703
590.7770, 145.2363
591.9470, 223.9766
593.1170, 98.25781
594.2860, 119.8613
595.4560, 3.732422
596.6250, 93.01367
597.7940, 98.00391
598.9630, 131.6270
600.1320, 219.7168
601.3000, 188.8965
602.4690, 307.0273
603.6370, 223.8809
604.8050, 299.7031
605.9730, 95.13867
607.1410, 207.6191
608.3090, 256.5469
609.4760, 131.1914
610.6430, 293.8027
611.8100, 145.1328
612.9770, 313.4707
614.1440, 79.02344
615.3110, 190.7910
616.4770, 36.94531
617.6430, 249.6758
618.8090, 435.8105
619.9750, 124.6074
621.1410, 100.7109
622.3070, 158.6074
623.4720, 121.8555
624.6370, 286.6797
625.8020, 292.3379
626.9670, 356.2715
628.1320, 393.2578
629.2970, 452.1582
630.4610, 405.5449
631.6250, 398.1211
632.7890, 382.2617
633.9530, 426.2695
635.1170, 429.8633
636.2810, 355.3203
637.4440, 486.3887
638.6070, 652.4043
639.7700, 876.0156
640.9330, 885.0938
642.0960, 851.4648
643.2590, 804.9121
644.4210, 1152.176
645.5830, 1540.941
646.7450, 1627.123
647.9070, 1650.699
649.0690, 1867.676
650.2310, 2257.070
651.3920, 2631.885
652.5530, 2306.590
653.7140, 2212.490
654.8750, 2006.523
656.0360, 1666.871
657.1970, 1406.736
658.3570, 1016.891
659.5170, 938.6797
660.6770, 741.0938
661.8370, 517.7070
662.9970, 433.9941
664.1570, 494.4902
665.3160, 430.1230
666.4750, 437.2617
667.6340, 421.1641
668.7930, 306.7051
669.9520, 403.5020
671.1110, 377.1543
672.2690, 438.7832
673.4270, 333.2480
674.5850, 275.0059
675.7430, 331.6816
676.9010, 298.5430
678.0590, 433.8301
679.2160, 545.5840
680.3730, 398.1074
681.5300, 340.8008
682.6870, 404.8105
683.8440, 210.4082
685.0010, 407.1289
686.1570, 360.5410
687.3130, 568.8203
688.4690, 613.8535
689.6250, 216.6738
690.7810, 349.7031
691.9370, 367.2871
693.0920, 121.2734
694.2470, 124.6152
695.4020, 375.3711
696.5570, 351.6465
697.7120, 374.1348
698.8670, 433.7969
700.0210, 398.1875
701.1750, 432.4395
702.3290, 371.5527
703.4830, 373.5312
704.6370, 365.6152
705.7910, 299.7051
706.9440, 444.9922
708.0970, 262.7383
709.2510, 255.3516
710.4030, 336.0566
711.5560, 436.8086
712.7090, 516.3730
713.8610, 462.8359
715.0140, 339.2480
716.1660, 347.9766
717.3180, 325.9941
718.4690, 346.1992
719.6210, 284.4570
720.7730, 359.2246
721.9240, 111.3652
723.0750, 322.2227
724.2260, 86.49805
725.3770, 187.1836
726.5270, 37.41797
727.6780, 206.2227
728.8280, 272.1094
729.9780, 202.6602
731.1280, 162.2930
732.2780, 327.5234
733.4280, 367.5723
734.5770, 341.3574
735.7260, 233.5781
736.8760, 304.3887
738.0250, 215.3379
739.1730, 56.39844
740.3220, 61.73047
741.4700, 112.6445
742.6190, 1.183594
743.7670, 193.2031
744.9150, 27.91797
746.0630, 50.45898
747.2100, 255.7402
748.3580, 75.27539
749.5050, 165.8203
750.6520, 312.0410
751.7990, 147.8711
752.9460, 65.57812
754.0930, 194.2070
755.2390, 191.5723
756.3860, 177.3555
757.5320, 124.2129
758.6780, 324.3633
759.8240, 110.3242
760.9690, 298.0645
762.1150, 396.8906
763.2600, 120.9707
764.4060, 219.5273
765.5510, 327.0332
766.6950, 241.1719
767.8400, 225.9121
768.9850, 143.4297
770.1290, 275.4492
771.2730, 305.2227
772.4170, 244.1309
773.5610, 57.80078
774.7050, 49.11914
775.8480, 183.1875
776.9920, 126.5781
778.1350, 244.6855
779.2780, 163.3691
780.4210, 134.6016
781.5640, 159.0859
782.7060, 172.6465
783.8490, 165.2500
784.9910, 299.8281
786.1330, 193.7891
787.2750, 83.32617
788.4170, 135.4961
789.5580, 224.7969
790.7000, 146.1465
791.8410, 277.6270
792.9820, 95.45508
794.1230, 146.4082
795.2640, 39.39062
796.4040, 48.23242
797.5450, 221.2441
798.6850, 315.9785
799.8250, 36.37305
800.9650, 175.8945
802.1050, 133.3945
803.2450, 240.4141
804.3840, 208.2520
805.5230, 290.2637
806.6630, 270.7949
807.8020, 272.8516
808.9400, 186.1367
810.0790, 334.1543
811.2170, 218.7539
812.3560, 346.8281
813.4940, 309.6562
814.6320, 150.9004
815.7700, 390.6328
816.9070, 315.0645
818.0450, 135.9707
819.1820, 435.9395
820.3190, 250.3359
821.4560, 427.9668
822.5930, 93.67773
823.7300, 58.66211
824.8670, 18.05078
826.0030, 122.6328
827.1390, 326.4961
828.2750, 332.8730
829.4110, 150.2168
830.5470, 473.5801
831.6820, 140.9180
832.8180, 79.15039
833.9530, 38.33398
835.0880, 296.4570
836.2230, 6.457031
837.3580, 311.5605
838.4920, 514.5352
839.6270, 223.4648
840.7610, 31.34766
841.8950, 56.21484
843.0290, 54.83594
844.1630, 14.41406
845.2960, 102.9141
846.4300, 378.1562
847.5630, 252.6953
848.6960, 405.2305
849.8290, 333.7188
850.9620, 308.1758
852.0940, 305.5430
853.2270, 388.9062
854.3590, 177.1406
855.4910, 435.4141
856.6230, 274.7422
857.7550, 32.98438
858.8870, 202.2266
860.0180, 108.2969
861.1500, 352.3438
862.2810, 265.7656
863.4120, 63.13281
864.5430, 79.56641
865.6730, 267.2344
866.8040, 1.570313
867.9340, 274.6797
869.0640, 642.4414
870.1940, 236.2227
871.3240, 37.88672
872.4540, 332.0508
873.5830, 396.4961
874.7130, 503.5859
875.8420, 300.6406
876.9710, 215.0156
878.1000, 208.5586
879.2290, 151.0312
880.3570, 205.8125
881.4860, 154.3750
882.6140, 235.4336
883.7420, 40.29297
884.8700, 162.3594
885.9980, 372.7617
887.1250, 44.73047
888.2530, 195.5156
889.3800, 31.81641
890.5070, 236.4023
891.6340, 16.41406
892.7610, 225.6445
893.8880, 174.4414
895.0140, 183.0117
896.1400, 279.6406
897.2670, 209.0195
898.3930, 308.5703
899.5180, 178.2031
900.6440, 219.1328
901.7700, 295.4727
902.8950, 138.4102
904.0200, 179.2383
905.1450, 10.31250
906.2700, 97.63672
907.3950, 291.6680
908.5190, 105.4102
909.6440, 175.2539
910.7680, 220.0117
911.8920, 148.6055
913.0160, 183.4141
914.1400, 272.1055
915.2630, 127.2109
916.3870, 362.1602
917.5100, 259.1797
918.6330, 208.6523
919.7560, 37.62891
920.8790, 128.3203
922.0010, 216.4766
923.1240, 293.9961
924.2460, 248.9414
925.3680, 223.0508
926.4900, 189.4766
927.6120, 6.246094
928.7340, 303.1484
929.8550, 268.7383
930.9760, 345.1953
932.0980, 22.16016
933.2190, 311.5430
934.3390, 116.7422
935.4600, 56.49219
936.5810, 63.07031
937.7010, 163.5547
938.8210, 194.2500
939.9410, 148.5000
941.0610, 378.3477
942.1810, 421.0859
943.3010, 322.8125
944.4200, 96.14453
945.5390, 178.0781
946.6580, 231.5000
947.7770, 96.43359
948.8960, 191.1914
950.0150, 104.2656
951.1330, 165.1484
952.2510, 283.8594
953.3690, 248.7578
954.4870, 137.5273
955.6050, 174.8086
956.7230, 356.4414
957.8400, 520.9727
958.9580, 259.3828
960.0750, 222.3164
961.1920, 594.8750
962.3090, 444.2656
963.4250, 533.5469
964.5420, 693.0312
965.6580, 860.3242
966.7740, 713.7227
967.8900, 636.8242
969.0060, 918.5469
970.1220, 834.5000
971.2380, 631.8164
972.3530, 1075.777
973.4680, 875.0117
974.5830, 857.1094
975.6980, 1044.035
976.8130, 752.7422
977.9280, 700.4219
979.0420, 762.1445
980.1560, 941.1094
981.2710, 638.8711
982.3850, 440.1992
983.4980, 519.8164
984.6120, 783.2734
985.7260, 402.7422
986.8390, 463.0664
987.9520, 302.8008
989.0650, 405.3789
990.1780, 187.1055
991.2910, 475.0508
992.4030, 310.9375
993.5160, 465.6250
994.6280, 792.4961
995.7400, 391.6523
996.8520, 540.6758
997.9640, 673.5664
999.0750, 603.5117
1000.187, 485.1133
1001.298, 387.9180
1002.409, 525.7031
1003.520, 317.2188
1004.631, 352.0078
1005.741, 254.4453
1006.852, 224.1094
1007.962, 343.0508
1009.072, 213.1992
1010.182, 220.7422
1011.292, 368.4297
1012.402, 428.7422
1013.511, 445.1055
1014.621, 479.8477
1015.730, 508.8555
1016.839, 426.5039
1017.948, 557.7617
1019.056, 530.2461
1020.165, 492.9023
1021.273, 805.5117
1022.382, 773.8633
1023.490, 675.6445
1024.598, 1069.379
1025.706, 805.4609
1026.813, 855.2227
1027.921, 859.4531
1029.028, 859.7891
1030.135, 562.4531
1031.242, 620.9375
1032.349, 186.5039
1033.456, 422.3555
1034.562, 295.9258
1035.668, 304.4336
1036.775, 465.5039
1037.881, 231.9805
1038.987, 425.0898
1040.092, 349.0117
1041.198, 355.2422
1042.303, 251.4531
1043.408, 191.6445
1044.514, 350.8398
1045.618, 388.0508
1046.723, 148.2305
1047.828, 210.3867
1048.932, 382.5742
1050.037, 250.7734
1051.141, 36.03906
1052.245, 398.1172
1053.349, 150.2227
1054.452, 163.7305
1055.556, 530.7617
1056.659, 32.21484
1057.762, 179.7695
1058.865, 40.31641
1059.968, 176.5664
1061.071, 364.4297
1062.174, 338.6680
1063.276, 63.84766
1064.378, 260.7930
1065.480, 52.99219
1066.582, 185.2148
1067.684, 320.7227
1068.786, 175.2344
1069.887, 144.7812
1070.988, 335.3594
1072.090, 68.01953
1073.191, 452.7461
1074.291, 300.6680
1075.392, 333.4258
1076.493, 660.5039
1077.593, 666.6836
1078.693, 700.8711
1079.793, 371.2734
1080.893, 643.5508
1081.993, 565.9844
1083.092, 510.7148
1084.192, 622.2773
1085.291, 387.0820
1086.390, 697.1445
1087.489, 347.8945
1088.588, 248.4609
1089.686, 438.9023
1090.785, 549.0547
1091.883, 436.7969
1092.981, 352.2188
1094.079, 223.2109
1095.177, 502.1602
1096.275, 349.1641
1097.373, 356.9297
1098.470, 229.3711
1099.567, 490.4297
1100.664, 491.0195
1101.761, 356.3984
1102.858, 520.9688
1103.954, 414.3867
1105.051, 146.6914
1106.147, 50.69141
1107.243, 11.79688
1108.339, 302.0039
1109.435, 272.3906
1110.531, 209.7812
1111.626, 512.9727
1112.722, 234.0156
1113.817, 302.0859
1114.912, 317.4922
1116.007, 0.9218750
1117.101, 0.0000000E+00
##END=



