##NAMES=Pectolite
##RRUFFID=R050396
##IDEAL CHEMISTRY=NaCa_2_Si_3_O_8_(OH)
##LOCALITY=Jeffrey Quarry, Asbestos, Quebec, Canada
##OWNER=RRUFF
##SOURCE=Marcus Origlieri
##DESCRIPTION=Colorless to gray columnar blocky crystals
##STATUS=The identification of this mineral has been confirmed by X-ray diffraction and chemical analysis
##URL=rruff.info/R050396
##MEASURED CHEMISTRY=Na_1.00_Ca_2.00_Si_3.00_O_8_(OH)
##PIN_ID=L00632
##ORIENTATION=Laser parallel to (-1 0 -1). Fiducial mark perpendicular to laser is parallel to b [0 1 0]
112.7420, 0.0000000E+00
113.9810, 11.23877
115.2200, 39.75635
116.4580, 8.073242
117.6970, 126.6987
118.9350, 17.38281
120.1730, 77.26025
121.4100, 21.18164
122.6480, 51.03125
123.8850, 179.5361
125.1230, 125.4751
126.3600, 277.6675
127.5960, 159.9658
128.8330, 378.2495
130.0700, 423.4185
131.3060, 555.3892
132.5420, 630.0889
133.7780, 650.4512
135.0140, 837.4165
136.2500, 798.9331
137.4850, 886.9556
138.7200, 840.4458
139.9550, 1000.370
141.1900, 1043.700
142.4250, 1028.410
143.6600, 1071.479
144.8940, 1064.888
146.1280, 888.6201
147.3620, 917.6582
148.5960, 871.9868
149.8300, 956.5918
151.0630, 965.4526
152.2960, 1037.545
153.5300, 911.8530
154.7620, 729.3608
155.9950, 659.0596
157.2280, 572.9375
158.4600, 526.9883
159.6920, 391.2031
160.9250, 315.5781
162.1560, 363.1060
163.3880, 289.7812
164.6200, 310.6006
165.8510, 179.5586
167.0820, 238.6558
168.3130, 158.8887
169.5440, 104.2578
170.7750, 165.7627
172.0050, 182.4043
173.2350, 130.1797
174.4650, 220.0840
175.6950, 222.1113
176.9250, 237.1709
178.1550, 175.5225
179.3840, 274.8975
180.6130, 277.3818
181.8420, 287.9707
183.0710, 379.6602
184.3000, 513.4492
185.5280, 694.3350
186.7570, 633.2979
187.9850, 672.2666
189.2130, 611.2236
190.4400, 602.1807
191.6680, 529.1602
192.8960, 691.1709
194.1230, 604.2178
195.3500, 756.3047
196.5770, 802.4365
197.8030, 875.6143
199.0300, 1072.843
200.2560, 1207.122
201.4830, 1447.454
202.7090, 1416.838
203.9340, 1342.275
205.1600, 1207.769
206.3860, 1032.316
207.6110, 945.4268
208.8360, 770.5732
210.0610, 748.2852
211.2860, 760.0518
212.5100, 746.8711
213.7350, 823.7441
214.9590, 744.6709
216.1830, 1070.656
217.4070, 951.6953
218.6310, 1177.803
219.8540, 1286.027
221.0780, 1381.332
222.3010, 1440.698
223.5240, 1591.132
224.7470, 1475.647
225.9690, 1475.234
227.1920, 1114.956
228.4140, 839.8154
229.6360, 723.7363
230.8580, 675.7236
232.0800, 454.7529
233.3020, 252.8174
234.5230, 236.9160
235.7440, 142.0479
236.9650, 146.2109
238.1860, 88.40527
239.4070, 32.63086
240.6280, 42.88672
241.8480, 115.1768
243.0680, 33.50098
244.2880, 58.85547
245.5080, 42.23828
246.7280, 154.6465
247.9470, 257.0830
249.1660, 224.5449
250.3860, 415.0332
251.6040, 418.5449
252.8230, 352.0840
254.0420, 418.6562
255.2600, 362.2646
256.4790, 442.9443
257.6970, 573.6846
258.9150, 433.4561
260.1320, 373.3652
261.3500, 554.7559
262.5670, 464.9512
263.7840, 411.4502
265.0010, 563.9658
266.2180, 563.7393
267.4350, 500.5693
268.6510, 531.5195
269.8680, 472.4355
271.0840, 425.7666
272.3000, 391.0459
273.5160, 353.4258
274.7310, 331.9062
275.9470, 241.4834
277.1620, 314.1348
278.3770, 265.8574
279.5920, 216.6533
280.8070, 74.52930
282.0210, 243.4717
283.2360, 131.4834
284.4500, 102.5557
285.6640, 139.6807
286.8780, 163.8613
288.0920, 99.09375
289.3050, 159.3760
290.5180, 230.7061
291.7320, 129.0869
292.9450, 285.5137
294.1570, 224.9834
295.3700, 119.4941
296.5830, 143.0459
297.7950, 201.6377
299.0070, 100.2676
300.2190, 108.9414
301.4310, 93.65137
302.6420, 69.27832
303.8540, 157.1807
305.0650, 100.9951
306.2760, 146.8438
307.4870, 237.7227
308.6980, 202.6318
309.9080, 240.5713
311.1190, 279.5391
312.3290, 328.5332
313.5390, 332.4971
314.7490, 413.6143
315.9580, 377.6982
317.1680, 370.9971
318.3770, 474.4170
319.5860, 474.5771
320.7950, 428.7607
322.0040, 594.9678
323.2130, 568.8711
324.4210, 558.3975
325.6290, 727.1553
326.8380, 680.4580
328.0460, 699.7637
329.2530, 536.9395
330.4610, 409.5449
331.6680, 285.1611
332.8760, 298.5059
334.0830, 150.2764
335.2890, 67.06543
336.4960, 231.8818
337.7030, 65.86426
338.9090, 163.6895
340.1150, 96.11719
341.3210, 62.93164
342.5270, 136.5137
343.7330, 54.42285
344.9380, 61.25586
346.1440, 206.8379
347.3490, 106.2227
348.5540, 235.0703
349.7590, 111.6143
350.9630, 273.3828
352.1680, 194.9473
353.3720, 248.5186
354.5760, 324.0996
355.7800, 425.6875
356.9840, 421.2832
358.1870, 424.8887
359.3910, 341.4990
360.5940, 382.1162
361.7970, 492.7402
363.0000, 439.5225
364.2030, 335.1582
365.4050, 409.7988
366.6080, 527.4434
367.8100, 618.0918
369.0120, 502.5566
370.2140, 507.2109
371.4150, 460.9268
372.6170, 560.9688
373.8180, 663.6279
375.0190, 862.2881
376.2200, 823.9482
377.4210, 857.6084
378.6220, 826.2686
379.8220, 736.1426
381.0230, 711.9502
382.2230, 602.4834
383.4230, 552.2236
384.6220, 423.8760
385.8220, 282.7148
387.0220, 220.3623
388.2210, 425.0059
389.4200, 83.94629
390.6190, 374.1680
391.8180, 294.3154
393.0160, 182.4893
394.2150, 160.6377
395.4130, 207.2480
396.6110, 211.7031
397.8090, 381.8955
399.0060, 381.1494
400.2040, 375.5469
401.4010, 524.9590
402.5980, 474.3867
403.7950, 713.9971
404.9920, 597.1045
406.1890, 1042.028
407.3860, 916.5986
408.5820, 1090.861
409.7780, 1446.065
410.9740, 1643.023
412.1700, 1964.373
413.3650, 1995.545
414.5610, 1973.430
415.7560, 2049.719
416.9510, 1957.431
418.1460, 1762.095
419.3410, 1318.640
420.5360, 1108.958
421.7300, 771.7812
422.9240, 660.5967
424.1180, 482.5820
425.3120, 364.1279
426.5060, 402.8252
427.7000, 370.2168
428.8930, 156.1650
430.0860, 258.5771
431.2790, 177.9209
432.4720, 250.3135
433.6650, 231.3242
434.8580, 240.6484
436.0500, 47.84375
437.2420, 151.9688
438.4340, 87.01562
439.6260, 24.40332
440.8180, 26.63379
442.0090, 148.9570
443.2010, 87.25098
444.3920, 41.72656
445.5830, 149.9883
446.7740, 23.54688
447.9640, 139.1895
449.1550, 83.45605
450.3450, 74.59668
451.5350, 46.19141
452.7250, 136.1416
453.9150, 92.30176
455.1050, 120.7686
456.2940, 58.67480
457.4830, 144.2754
458.6720, 203.2100
459.8610, 9.091797
461.0500, 0.9492190
462.2390, 104.1504
463.4270, 187.9932
464.6150, 187.8936
465.8040, 53.64160
466.9910, 25.04980
468.1790, 99.31348
469.3670, 73.99219
470.5540, 90.25000
471.7410, 12.71973
472.9280, 22.28320
474.1150, 26.26270
475.3020, 52.78223
476.4890, 21.87598
477.6750, 3.996094
478.8610, 3.839844
480.0470, 59.34277
481.2330, 87.58008
482.4190, 29.88867
483.6040, 101.2402
484.7900, 48.66992
485.9750, 16.85156
487.1600, 40.34668
488.3450, 28.18262
489.5290, 3.757813
490.7140, 52.63574
491.8980, 148.0000
493.0820, 81.34082
494.2660, 177.6533
495.4500, 290.9414
496.6340, 238.2051
497.8170, 262.4414
499.0010, 284.6484
500.1840, 187.8281
501.3670, 273.9814
502.5500, 198.1074
503.7320, 237.2041
504.9150, 122.2744
506.0970, 186.3135
507.2790, 166.3262
508.4610, 240.3066
509.6430, 191.2598
510.8250, 8.181641
512.0060, 225.0674
513.1870, 162.9219
514.3680, 87.74707
515.5490, 210.5371
516.7300, 325.2979
517.9110, 257.0273
519.0910, 228.7227
520.2710, 212.3867
521.4510, 143.0205
522.6310, 258.6201
523.8110, 193.1875
524.9910, 181.7188
526.1700, 222.2158
527.3490, 161.6787
528.5280, 216.1035
529.7070, 212.4971
530.8860, 142.8555
532.0650, 77.17773
533.2430, 96.46289
534.4210, 91.70801
535.5990, 98.91699
536.7770, 1.090820
537.9550, 29.20898
539.1320, 86.71777
540.3100, 78.25000
541.4870, 45.17383
542.6640, 42.05371
543.8410, 38.88965
545.0170, 4.849609
546.1940, 2.587891
547.3700, 30.91895
548.5470, 104.3281
549.7230, 82.85254
550.8980, 65.48242
552.0740, 13.20996
553.2500, 77.99512
554.4250, 19.15039
555.6000, 10.74902
556.7750, 96.28027
557.9500, 7.211914
559.1250, 22.01660
560.2990, 19.75098
561.4730, 93.13281
562.6480, 212.5742
563.8220, 33.78223
564.9950, 25.60156
566.1690, 49.20312
567.3430, 4.575195
568.5160, 78.03027
569.6890, 184.9639
570.8620, 73.82227
572.0350, 89.99609
573.2070, 77.73145
574.3800, 168.8779
575.5520, 23.00879
576.7240, 123.8154
577.8960, 140.0244
579.0680, 158.4941
580.2400, 76.74316
581.4110, 114.1035
582.5830, 91.70117
583.7540, 25.63574
584.9250, 63.13965
586.0950, 103.3086
587.2660, 53.61816
588.4370, 248.4658
589.6070, 97.95117
590.7770, 125.9434
591.9470, 254.8896
593.1170, 167.9014
594.2860, 116.9209
595.4560, 280.5879
596.6250, 173.5107
597.7940, 19.11035
598.9630, 161.3672
600.1320, 171.1240
601.3000, 150.1035
602.4690, 112.3525
603.6370, 196.4902
604.8050, 180.2432
605.9730, 281.1309
607.1410, 253.1807
608.3090, 211.4766
609.4760, 294.7236
610.6430, 303.3135
611.8100, 381.4414
612.9770, 374.1719
614.1440, 432.4365
615.3110, 450.9229
616.4770, 441.6973
617.6430, 478.2803
618.8090, 464.7422
619.9750, 468.0049
621.1410, 562.6738
622.3070, 621.9746
623.4720, 401.7061
624.6370, 552.5107
625.8020, 538.7930
626.9670, 750.4912
628.1320, 795.5000
629.2970, 1012.748
630.4610, 857.8457
631.6250, 1149.017
632.7890, 1106.996
633.9530, 1228.022
635.1170, 1465.807
636.2810, 1576.641
637.4440, 1920.635
638.6070, 2124.620
639.7700, 2568.680
640.9330, 3115.958
642.0960, 3932.207
643.2590, 4391.303
644.4210, 5415.428
645.5830, 6565.840
646.7450, 8013.987
647.9070, 9440.455
649.0690, 11281.43
650.2310, 13079.00
651.3920, 14334.83
652.5530, 14905.57
653.7140, 14138.92
654.8750, 12210.04
656.0360, 10321.52
657.1970, 8349.024
658.3570, 6245.812
659.5170, 4687.893
660.6770, 3623.707
661.8370, 2749.286
662.9970, 2186.338
664.1570, 1887.896
665.3160, 1616.461
666.4750, 1322.847
667.6340, 1183.021
668.7930, 987.9473
669.9520, 969.6816
671.1110, 786.1768
672.2690, 738.6191
673.4270, 570.3672
674.5850, 599.8574
675.7430, 529.0420
676.9010, 725.6973
678.0590, 739.8838
679.2160, 750.1006
680.3730, 743.2568
681.5300, 802.2432
682.6870, 815.5098
683.8440, 879.1387
685.0010, 779.4043
686.1570, 1044.013
687.3130, 1171.796
688.4690, 1034.496
689.6250, 1042.082
690.7810, 901.7354
691.9370, 817.9326
693.0920, 694.9658
694.2470, 570.0586
695.4020, 472.8057
696.5570, 255.0020
697.7120, 312.1113
698.8670, 274.5586
700.0210, 345.5537
701.1750, 201.3838
702.3290, 248.6357
703.4830, 400.0029
704.6370, 310.9248
705.7910, 198.5654
706.9440, 88.54297
708.0970, 35.53027
709.2510, 243.7949
710.4030, 156.7949
711.5560, 249.6318
712.7090, 139.6484
713.8610, 132.4600
715.0140, 194.9834
716.1660, 86.14062
717.3180, 43.40430
718.4690, 64.17090
719.6210, 44.63867
720.7730, 20.69434
721.9240, 77.85352
723.0750, 178.4648
724.2260, 40.87695
725.3770, 20.40723
726.5270, 295.2305
727.6780, 139.4893
728.8280, 244.5186
729.9780, 41.76660
731.1280, 217.1914
732.2780, 24.19238
733.4280, 57.33008
734.5770, 200.7168
735.7260, 53.07031
736.8760, 328.6367
738.0250, 195.5391
739.1730, 84.24121
740.3220, 223.1631
741.4700, 194.8232
742.6190, 64.03125
743.7670, 197.0293
744.9150, 94.53906
746.0630, 154.0820
747.2100, 102.1094
748.3580, 120.4873
749.5050, 221.6855
750.6520, 108.4824
751.7990, 109.5137
752.9460, 227.5859
754.0930, 182.2031
755.2390, 143.5391
756.3860, 238.2090
757.5320, 270.0215
758.6780, 124.6250
759.8240, 241.9414
760.9690, 225.0176
762.1150, 127.3477
763.2600, 92.98633
764.4060, 131.1133
765.5510, 87.32617
766.6950, 296.1270
767.8400, 131.9395
768.9850, 233.4180
770.1290, 106.7715
771.2730, 266.2188
772.4170, 122.1621
773.5610, 104.0508
774.7050, 282.8008
775.8480, 270.0312
776.9920, 237.2715
778.1350, 170.5273
779.2780, 162.4941
780.4210, 185.0059
781.5640, 163.0488
782.7060, 281.9238
783.8490, 128.8262
784.9910, 276.0137
786.1330, 141.6211
787.2750, 225.0723
788.4170, 191.3086
789.5580, 154.5625
790.7000, 220.5938
791.8410, 183.2520
792.9820, 175.8105
794.1230, 153.2930
795.2640, 309.7578
796.4040, 225.1973
797.5450, 74.31055
798.6850, 262.1738
799.8250, 185.3477
800.9650, 281.4512
802.1050, 250.9863
803.2450, 298.9922
804.3840, 264.4043
805.5230, 161.5098
806.6630, 168.2793
807.8020, 137.6758
808.9400, 91.56250
810.0790, 233.6328
811.2170, 74.59375
812.3560, 12.41406
813.4940, 332.3359
814.6320, 225.2188
815.7700, 444.5684
816.9070, 302.2285
818.0450, 233.4492
819.1820, 144.7129
820.3190, 274.7695
821.4560, 299.9570
822.5930, 321.8555
823.7300, 307.6875
824.8670, 157.4492
826.0030, 243.1602
827.1390, 224.8203
828.2750, 133.4238
829.4110, 310.9512
830.5470, 317.3984
831.6820, 212.7676
832.8180, 230.0664
833.9530, 131.7539
835.0880, 283.6113
836.2230, 163.2559
837.3580, 238.1348
838.4920, 60.32617
839.6270, 192.6172
840.7610, 239.3652
841.8950, 392.7773
843.0290, 256.6387
844.1630, 306.9766
845.2960, 325.8516
846.4300, 258.6777
847.5630, 293.0586
848.6960, 218.7422
849.8290, 112.8828
850.9620, 310.9043
852.0940, 409.1133
853.2270, 139.7852
854.3590, 255.0586
855.4910, 223.4180
856.6230, 113.5273
857.7550, 267.3145
858.8870, 383.5117
860.0180, 366.0586
861.1500, 365.8027
862.2810, 201.2676
863.4120, 40.94727
864.5430, 178.0410
865.6730, 133.3809
866.8040, 49.62305
867.9340, 191.6582
869.0640, 324.5430
870.1940, 166.6445
871.3240, 286.3516
872.4540, 284.2441
873.5830, 340.3418
874.7130, 137.7988
875.8420, 88.70312
876.9710, 202.0938
878.1000, 68.73828
879.2290, 179.2129
880.3570, 21.77148
881.4860, 79.84180
882.6140, 121.4609
883.7420, 114.7715
884.8700, 139.0684
885.9980, 48.29883
887.1250, 39.71484
888.2530, 7.367188
889.3800, 65.07031
890.5070, 90.88867
891.6340, 4.412109
892.7610, 145.5723
893.8880, 36.59961
895.0140, 55.91797
896.1400, 77.62891
897.2670, 163.8262
898.3930, 121.9258
899.5180, 3.439453
900.6440, 165.1582
901.7700, 241.3887
902.8950, 2.500000
904.0200, 81.81250
905.1450, 86.45117
906.2700, 64.44531
907.3950, 343.0254
908.5190, 333.9355
909.6440, 344.6699
910.7680, 547.1211
911.8920, 424.4512
913.0160, 400.0430
914.1400, 563.8203
915.2630, 295.9512
916.3870, 386.3418
917.5100, 165.1133
918.6330, 378.8242
919.7560, 290.0703
920.8790, 174.0508
922.0010, 45.22461
923.1240, 224.9551
924.2460, 201.2422
925.3680, 60.96289
926.4900, 301.8457
927.6120, 96.31250
928.7340, 306.9121
929.8550, 291.7695
930.9760, 279.2402
932.0980, 337.8203
933.2190, 374.8848
934.3390, 279.2598
935.4600, 276.4141
936.5810, 153.0059
937.7010, 272.1465
938.8210, 389.0020
939.9410, 550.4980
941.0610, 267.0820
942.1810, 333.9961
943.3010, 197.9922
944.4200, 379.3887
945.5390, 384.4609
946.6580, 407.2500
947.7770, 357.6113
948.8960, 348.3848
950.0150, 469.1641
951.1330, 368.9707
952.2510, 657.2129
953.3690, 423.0137
954.4870, 565.1953
955.6050, 402.2070
956.7230, 455.9961
957.8400, 619.3262
958.9580, 717.0137
960.0750, 722.0547
961.1920, 972.2637
962.3090, 813.7207
963.4250, 1045.631
964.5420, 1304.273
965.6580, 1342.768
966.7740, 1380.854
967.8900, 1676.023
969.0060, 1719.852
970.1220, 2047.369
971.2380, 1999.516
972.3530, 2056.594
973.4680, 1880.293
974.5830, 1901.605
975.6980, 1935.383
976.8130, 1779.457
977.9280, 1595.686
979.0420, 1549.293
980.1560, 1319.613
981.2710, 1323.406
982.3850, 1176.311
983.4980, 950.0000
984.6120, 846.8496
985.7260, 1004.529
986.8390, 618.9883
987.9520, 771.2617
989.0650, 547.9395
990.1780, 773.3438
991.2910, 592.1543
992.4030, 640.5879
993.5160, 652.3945
994.6280, 712.9902
995.7400, 757.1934
996.8520, 773.2305
997.9640, 797.3965
999.0750, 848.9297
1000.187, 738.2051
1001.298, 849.6777
1002.409, 1038.053
1003.520, 720.9160
1004.631, 794.1934
1005.741, 515.7422
1006.852, 584.0293
1007.962, 535.6543
1009.072, 677.3281
1010.182, 562.5176
1011.292, 514.2520
1012.402, 570.8906
1013.511, 569.7539
1014.621, 751.8008
1015.730, 803.6562
1016.839, 986.7793
1017.948, 1342.775
1019.056, 1518.965
1020.165, 1819.461
1021.273, 2144.564
1022.382, 2416.467
1023.490, 2592.609
1024.598, 3020.105
1025.706, 3008.357
1026.813, 3295.146
1027.921, 2964.541
1029.028, 2561.064
1030.135, 2298.809
1031.242, 1978.008
1032.349, 1636.646
1033.456, 1272.604
1034.562, 936.2832
1035.668, 901.1621
1036.775, 707.8379
1037.881, 690.6543
1038.987, 625.5820
1040.092, 399.9297
1041.198, 557.6250
1042.303, 560.7461
1043.408, 466.9355
1044.514, 389.7109
1045.618, 220.5781
1046.723, 392.8652
1047.828, 220.6055
1048.932, 161.5293
1050.037, 268.7598
1051.141, 144.2012
1052.245, 8.398438
1053.349, 13.85547
1054.452, 11.07812
1055.556, 58.21875
1056.659, 86.16992
1057.762, 142.8984
1058.865, 149.3672
1059.968, 194.7148
1061.071, 22.45898
1062.174, 2.878906
1063.276, 2.414063
1064.378, 59.75781
1065.480, 182.2910
1066.582, 190.7539
1067.684, 25.14453
1068.786, 124.4727
1069.887, 82.26562
1070.988, 76.92969
1072.090, 94.05469
1073.191, 178.1172
1074.291, 99.11914
1075.392, 3.046875
1076.493, 41.09961
1077.593, 436.6699
1078.693, 67.62891
1079.793, 341.0039
1080.893, 185.5879
1081.993, 519.1250
1083.092, 257.6094
1084.192, 233.0391
1085.291, 253.4609
1086.390, 7.878906
1087.489, 212.2832
1088.588, 274.6465
1089.686, 150.9512
1090.785, 274.2012
1091.883, 262.4453
1092.981, 80.67188
1094.079, 198.9395
1095.177, 222.2109
1096.275, 209.5176
1097.373, 235.6543
1098.470, 213.1270
1099.567, 195.9121
1100.664, 164.5039
1101.761, 137.2422
1102.858, 100.3008
1103.954, 170.4434
1105.051, 246.7031
1106.147, 76.07617
1107.243, 204.4434
1108.339, 274.7441
1109.435, 99.01367
1110.531, 283.7539
1111.626, 21.74219
1112.722, 136.2559
1113.817, 117.2812
1114.912, 91.75391
1116.007, 143.4570
1117.101, 120.6504
1118.196, 347.2715
1119.290, 310.5625
1120.385, 419.0879
1121.479, 233.0527
1122.573, 285.0938
1123.666, 407.4688
1124.760, 349.1543
1125.853, 301.2676
1126.947, 377.4297
1128.040, 212.4980
1129.133, 247.9551
1130.226, 363.4746
1131.318, 200.9453
1132.411, 291.6191
1133.503, 282.4395
1134.596, 333.2930
1135.688, 0.2402340
1136.780, 294.0527
1137.871, 27.40039
1138.963, 152.8340
1140.054, 302.5605
1141.146, 191.5508
1142.237, 186.3809
1143.328, 14.47266
1144.419, 277.4492
1145.509, 184.1758
1146.600, 199.9316
1147.690, 132.8047
1148.780, 170.7070
1149.870, 84.71680
1150.960, 249.9473
1152.050, 217.8066
1153.139, 222.3184
1154.229, 4.287109
1155.318, 16.80078
1156.407, 174.5430
1157.496, 303.2051
1158.585, 241.0684
1159.674, 369.3281
1160.762, 22.88477
1161.850, 192.7969
1162.939, 109.0137
1164.027, 218.5859
1165.114, 202.3926
1166.202, 197.0547
1167.290, 181.6465
1168.377, 150.9414
1169.464, 0.6718750
1170.551, 0.0000000E+00
##END=



