##NAMES=Pectolite
##RRUFFID=R050396
##IDEAL CHEMISTRY=NaCa_2_Si_3_O_8_(OH)
##LOCALITY=Jeffrey Quarry, Asbestos, Quebec, Canada
##OWNER=RRUFF
##SOURCE=Marcus Origlieri
##DESCRIPTION=Colorless to gray columnar blocky crystals
##STATUS=The identification of this mineral has been confirmed by X-ray diffraction and chemical analysis
##URL=rruff.info/R050396
##MEASURED CHEMISTRY=Na_1.00_Ca_2.00_Si_3.00_O_8_(OH)
##PIN_ID=M00143
##ORIENTATION=Laser parallel to -b* (0 -1 0). Fiducial mark perpendicular to laser is parallel to c [0 0 1]
127.5960, 0.0000000E+00
128.8330, 7.236328
130.0700, 4.125000
131.3060, 227.0879
132.5420, 131.3340
133.7780, 73.06250
135.0140, 249.6992
136.2500, 560.1934
137.4850, 307.8105
138.7200, 642.0137
139.9550, 1026.389
141.1900, 1080.625
142.4250, 1172.463
143.6600, 1109.713
144.8940, 917.2051
146.1280, 855.8047
147.3620, 834.3965
148.5960, 739.8750
149.8300, 623.1562
151.0630, 645.1621
152.2960, 629.8320
153.5300, 504.1113
154.7620, 491.6953
155.9950, 402.0039
157.2280, 297.1777
158.4600, 272.4863
159.6920, 42.22070
160.9250, 30.35352
162.1560, 253.8594
163.3880, 247.7109
164.6200, 42.89258
165.8510, 281.3711
167.0820, 43.11914
168.3130, 216.1191
169.5440, 106.3613
170.7750, 87.82617
172.0050, 226.5059
173.2350, 293.3945
174.4650, 323.4824
175.6950, 218.7695
176.9250, 259.2480
178.1550, 332.9141
179.3840, 134.7598
180.6130, 437.7832
181.8420, 455.9707
183.0710, 224.3203
184.3000, 404.8281
185.5280, 312.4805
186.7570, 279.2715
187.9850, 304.2207
189.2130, 283.0293
190.4400, 336.5312
191.6680, 296.8613
192.8960, 191.2988
194.1230, 124.8398
195.3500, 161.8125
196.5770, 345.2266
197.8030, 239.0664
199.0300, 268.9941
200.2560, 268.0117
201.4830, 272.0820
202.7090, 333.1152
203.9340, 262.1348
205.1600, 408.1738
206.3860, 372.2441
207.6110, 311.3359
208.8360, 150.5527
210.0610, 75.83008
211.2860, 339.1387
212.5100, 430.4844
213.7350, 234.8691
214.9590, 274.3945
216.1830, 107.9902
217.4070, 263.6914
218.6310, 279.4707
219.8540, 234.3027
221.0780, 266.2383
222.3010, 244.2734
223.5240, 517.3594
224.7470, 182.5859
225.9690, 491.8477
227.1920, 298.2754
228.4140, 147.7871
229.6360, 292.3809
230.8580, 184.0039
232.0800, 89.65625
233.3020, 393.3359
234.5230, 276.0449
235.7440, 262.7812
236.9650, 205.5645
238.1860, 177.9277
239.4070, 177.1074
240.6280, 157.4668
241.8480, 173.3887
243.0680, 170.3379
244.2880, 149.3086
245.5080, 281.3008
246.7280, 279.3203
247.9470, 313.0078
249.1660, 317.6367
250.3860, 335.7012
251.6040, 194.7910
252.8230, 154.9004
254.0420, 296.0332
255.2600, 248.1836
256.4790, 440.3496
257.6970, 240.5312
258.9150, 334.7266
260.1320, 311.9375
261.3500, 189.2617
262.5670, 208.6113
263.7840, 177.7031
265.0010, 303.3457
266.2180, 175.7285
267.4350, 298.1211
268.6510, 303.5215
269.8680, 267.9336
271.0840, 404.3613
272.3000, 364.8027
273.5160, 405.3281
274.7310, 407.3672
275.9470, 443.5566
277.1620, 343.0430
278.3770, 409.8984
279.5920, 273.9785
280.8070, 329.2480
282.0210, 298.6816
283.2360, 352.2832
284.4500, 265.0215
285.6640, 220.8809
286.8780, 226.8477
288.0920, 43.92188
289.3050, 417.9395
290.5180, 79.01172
291.7320, 212.3457
292.9450, 21.75586
294.1570, 119.2363
295.3700, 144.7812
296.5830, 143.3887
297.7950, 122.0547
299.0070, 128.7812
300.2190, 111.6113
301.4310, 277.4551
302.6420, 193.3496
303.8540, 193.1816
305.0650, 331.1875
306.2760, 257.5762
307.4870, 224.7520
308.6980, 297.9590
309.9080, 149.7871
311.1190, 226.0000
312.3290, 448.3809
313.5390, 480.9980
314.7490, 317.3340
315.9580, 485.7070
317.1680, 638.0742
318.3770, 223.5000
319.5860, 416.6465
320.7950, 319.1445
322.0040, 220.6641
323.2130, 90.20703
324.4210, 238.2637
325.6290, 393.9121
326.8380, 299.5117
328.0460, 168.3828
329.2530, 277.0176
330.4610, 196.7578
331.6680, 73.41992
332.8760, 142.0996
334.0830, 256.7988
335.2890, 254.5078
336.4960, 196.2324
337.7030, 80.96484
338.9090, 258.7070
340.1150, 87.59961
341.3210, 98.37891
342.5270, 108.1504
343.7330, 221.2305
344.9380, 35.56250
346.1440, 194.3535
347.3490, 17.45898
348.5540, 109.3457
349.7590, 272.7285
350.9630, 127.5449
352.1680, 0.3652340
353.3720, 405.4512
354.5760, 159.2832
355.7800, 199.5957
356.9840, 356.4316
358.1870, 315.2734
359.3910, 265.1152
360.5940, 224.0391
361.7970, 324.8848
363.0000, 135.7324
364.2030, 306.8340
365.4050, 139.9121
366.6080, 66.16211
367.8100, 129.6738
369.0120, 262.7109
370.2140, 185.6934
371.4150, 336.6484
372.6170, 370.6465
373.8180, 222.9141
375.0190, 490.9258
376.2200, 486.1367
377.4210, 531.9492
378.6220, 347.8438
379.8220, 644.8262
381.0230, 193.6445
382.2230, 368.5000
383.4230, 128.2793
384.6220, 106.1562
385.8220, 235.9551
387.0220, 125.7129
388.2210, 115.4629
389.4200, 26.20703
390.6190, 65.25781
391.8180, 174.8770
393.0160, 304.2109
394.2150, 232.2578
395.4130, 234.2266
396.6110, 239.9160
397.8090, 261.5957
399.0060, 230.6719
400.2040, 215.3945
401.4010, 139.0469
402.5980, 153.6914
403.7950, 37.33594
404.9920, 199.9570
406.1890, 375.5723
407.3860, 402.2422
408.5820, 294.3418
409.7780, 283.2695
410.9740, 245.5059
412.1700, 446.9023
413.3650, 414.7461
414.5610, 399.6797
415.7560, 185.9219
416.9510, 343.8105
418.1460, 395.9375
419.3410, 321.0234
420.5360, 34.52734
421.7300, 229.6934
422.9240, 226.3398
424.1180, 340.0449
425.3120, 38.10352
426.5060, 187.0488
427.7000, 72.48633
428.8930, 164.4766
430.0860, 114.9395
431.2790, 84.08594
432.4720, 29.78906
433.6650, 9.414063
434.8580, 43.61523
436.0500, 71.27734
437.2420, 95.39844
438.4340, 113.2461
439.6260, 125.0098
440.8180, 148.3184
442.0090, 131.3496
443.2010, 108.0586
444.3920, 43.38281
445.5830, 44.00195
446.7740, 54.09766
447.9640, 232.4902
449.1550, 73.99219
450.3450, 35.39062
451.5350, 38.42383
452.7250, 6.142578
453.9150, 63.47070
455.1050, 37.43555
456.2940, 129.2617
457.4830, 97.94531
458.6720, 88.61133
459.8610, 7.142578
461.0500, 149.2754
462.2390, 98.17578
463.4270, 193.8691
464.6150, 214.5312
465.8040, 248.1738
466.9910, 140.4258
468.1790, 93.31445
469.3670, 116.1504
470.5540, 102.9199
471.7410, 134.6230
472.9280, 96.19336
474.1150, 284.7754
475.3020, 170.1270
476.4890, 288.0820
477.6750, 298.3398
478.8610, 193.4531
480.0470, 212.6602
481.2330, 239.8555
482.4190, 104.0449
483.6040, 134.7773
484.7900, 203.9180
485.9750, 72.60352
487.1600, 4.318359
488.3450, 167.1992
489.5290, 58.20312
490.7140, 229.3984
491.8980, 14.34180
493.0820, 163.6582
494.2660, 268.0020
495.4500, 99.88086
496.6340, 202.7422
497.8170, 51.57617
499.0010, 288.3770
500.1840, 259.1523
501.3670, 197.9004
502.5500, 156.6230
503.7320, 179.3105
504.9150, 214.9727
506.0970, 120.6074
507.2790, 128.2090
508.4610, 166.8008
509.6430, 229.5156
510.8250, 140.0488
512.0060, 154.5430
513.1870, 162.3457
514.3680, 86.44141
515.5490, 156.8418
516.7300, 152.2129
517.9110, 105.5488
519.0910, 226.8535
520.2710, 182.1270
521.4510, 162.3711
522.6310, 202.5820
523.8110, 193.7637
524.9910, 320.9121
526.1700, 189.0273
527.3490, 208.1113
528.5280, 248.1621
529.7070, 373.2637
530.8860, 258.4512
532.0650, 148.9629
533.2430, 89.91211
534.4210, 11.00977
535.5990, 146.8066
536.7770, 164.7500
537.9550, 231.4258
539.1320, 356.7500
540.3100, 169.3535
541.4870, 192.0098
542.6640, 338.4121
543.8410, 242.9121
545.0170, 239.7910
546.1940, 262.2266
547.3700, 260.4297
548.5470, 231.7891
549.7230, 127.3457
550.8980, 168.0723
552.0740, 93.38672
553.2500, 75.31445
554.4250, 184.0664
555.6000, 161.4824
556.7750, 81.82422
557.9500, 169.5508
559.1250, 111.1328
560.2990, 44.81641
561.4730, 273.5957
562.6480, 109.6094
563.8220, 63.89453
564.9950, 222.8262
566.1690, 187.9492
567.3430, 16.81055
568.5160, 75.27734
569.6890, 148.8398
570.8620, 421.5508
572.0350, 152.0488
573.2070, 79.61719
574.3800, 316.5352
575.5520, 113.2656
576.7240, 199.6855
577.8960, 379.8965
579.0680, 206.8652
580.2400, 172.9180
581.4110, 288.7422
582.5830, 106.5332
583.7540, 209.0840
584.9250, 15.41602
586.0950, 176.9863
587.2660, 107.0039
588.4370, 36.58398
589.6070, 181.6309
590.7770, 195.1875
591.9470, 428.3203
593.1170, 109.1543
594.2860, 12.09375
595.4560, 0.2988280
596.6250, 69.14844
597.7940, 187.9512
598.9630, 18.85156
600.1320, 104.2949
601.3000, 192.8008
602.4690, 32.73047
603.6370, 30.32812
604.8050, 332.7090
605.9730, 286.2695
607.1410, 86.41211
608.3090, 209.4629
609.4760, 181.3105
610.6430, 155.4648
611.8100, 218.0703
612.9770, 207.2090
614.1440, 199.9121
615.3110, 39.27539
616.4770, 5.490234
617.6430, 399.7500
618.8090, 60.31445
619.9750, 297.2246
621.1410, 280.5859
622.3070, 314.6094
623.4720, 136.4316
624.6370, 399.0234
625.8020, 136.3848
626.9670, 396.3984
628.1320, 157.7383
629.2970, 379.9668
630.4610, 166.7676
631.6250, 314.9180
632.7890, 175.4512
633.9530, 164.1270
635.1170, 483.0254
636.2810, 383.2715
637.4440, 418.7207
638.6070, 527.1270
639.7700, 719.9531
640.9330, 719.4551
642.0960, 932.0547
643.2590, 842.8418
644.4210, 1004.002
645.5830, 1168.729
646.7450, 1221.059
647.9070, 1565.203
649.0690, 1920.998
650.2310, 1511.750
651.3920, 1617.143
652.5530, 2010.373
653.7140, 1685.883
654.8750, 1345.266
656.0360, 1288.990
657.1970, 780.0742
658.3570, 780.9219
659.5170, 586.5391
660.6770, 776.2832
661.8370, 355.9180
662.9970, 545.4512
664.1570, 389.1172
665.3160, 531.2344
666.4750, 412.2129
667.6340, 518.1855
668.7930, 285.9727
669.9520, 257.9102
671.1110, 172.8555
672.2690, 257.2383
673.4270, 272.6621
674.5850, 288.5156
675.7430, 244.9668
676.9010, 444.2207
678.0590, 137.7012
679.2160, 315.3047
680.3730, 59.23633
681.5300, 95.73438
682.6870, 305.3809
683.8440, 205.5488
685.0010, 309.6543
686.1570, 113.0625
687.3130, 254.0957
688.4690, 352.8809
689.6250, 218.2949
690.7810, 309.2207
691.9370, 154.0137
693.0920, 185.8613
694.2470, 257.7637
695.4020, 183.1523
696.5570, 225.1191
697.7120, 166.3789
698.8670, 132.3340
700.0210, 96.27930
701.1750, 53.43945
702.3290, 196.9609
703.4830, 52.56836
704.6370, 214.9434
705.7910, 178.1094
706.9440, 192.3242
708.0970, 448.1816
709.2510, 46.95508
710.4030, 303.8086
711.5560, 276.3047
712.7090, 25.42578
713.8610, 261.6641
715.0140, 57.67773
716.1660, 84.28125
717.3180, 133.6406
718.4690, 103.0781
719.6210, 148.1387
720.7730, 147.6133
721.9240, 194.3926
723.0750, 183.4023
724.2260, 199.3184
725.3770, 282.6465
726.5270, 204.9688
727.6780, 202.1602
728.8280, 267.4727
729.9780, 181.2305
731.1280, 35.09766
732.2780, 413.9590
733.4280, 148.2480
734.5770, 394.7402
735.7260, 242.2910
736.8760, 170.4590
738.0250, 42.94531
739.1730, 35.15039
740.3220, 242.5273
741.4700, 156.7422
742.6190, 230.3301
743.7670, 177.8398
744.9150, 42.54297
746.0630, 160.5840
747.2100, 349.0078
748.3580, 25.49805
749.5050, 294.1602
750.6520, 218.3262
751.7990, 54.46680
752.9460, 146.2227
754.0930, 169.7148
755.2390, 145.7871
756.3860, 302.6035
757.5320, 214.8086
758.6780, 45.30273
759.8240, 56.37109
760.9690, 175.6270
762.1150, 249.1074
763.2600, 439.5977
764.4060, 456.5410
765.5510, 172.6270
766.6950, 404.1562
767.8400, 491.0586
768.9850, 372.1094
770.1290, 521.7598
771.2730, 174.1562
772.4170, 152.7793
773.5610, 194.2109
774.7050, 196.8105
775.8480, 417.4336
776.9920, 87.52734
778.1350, 82.71680
779.2780, 194.7246
780.4210, 288.8105
781.5640, 206.8496
782.7060, 65.66602
783.8490, 333.7773
784.9910, 56.45508
786.1330, 236.0000
787.2750, 256.9609
788.4170, 285.1406
789.5580, 349.2207
790.7000, 42.90820
791.8410, 196.3340
792.9820, 173.2207
794.1230, 309.3926
795.2640, 76.40234
796.4040, 216.2695
797.5450, 153.8887
798.6850, 149.1504
799.8250, 201.0938
800.9650, 149.5195
802.1050, 285.7051
803.2450, 283.4062
804.3840, 291.2871
805.5230, 346.1367
806.6630, 305.6094
807.8020, 292.3633
808.9400, 355.0664
810.0790, 184.9688
811.2170, 143.8594
812.3560, 295.8789
813.4940, 372.6836
814.6320, 390.7031
815.7700, 307.8906
816.9070, 152.9082
818.0450, 264.6230
819.1820, 263.3301
820.3190, 127.8867
821.4560, 128.2207
822.5930, 288.0449
823.7300, 126.5527
824.8670, 157.5898
826.0030, 113.2129
827.1390, 62.46680
828.2750, 216.4668
829.4110, 150.7676
830.5470, 254.1523
831.6820, 101.7871
832.8180, 358.0547
833.9530, 354.5137
835.0880, 416.6836
836.2230, 367.6602
837.3580, 191.4531
838.4920, 172.9258
839.6270, 264.0352
840.7610, 292.4004
841.8950, 294.4922
843.0290, 195.3789
844.1630, 199.3047
845.2960, 313.6641
846.4300, 166.7852
847.5630, 489.0273
848.6960, 110.1094
849.8290, 284.9004
850.9620, 168.0547
852.0940, 338.0137
853.2270, 219.0898
854.3590, 452.3203
855.4910, 300.3770
856.6230, 62.57227
857.7550, 425.7090
858.8870, 166.9941
860.0180, 202.1816
861.1500, 72.41406
862.2810, 32.93945
863.4120, 75.42773
864.5430, 262.1855
865.6730, 167.5195
866.8040, 208.4355
867.9340, 267.5625
869.0640, 242.9102
870.1940, 264.5527
871.3240, 153.8203
872.4540, 22.17383
873.5830, 71.14453
874.7130, 9.060547
875.8420, 157.4570
876.9710, 92.21289
878.1000, 95.58789
879.2290, 180.2188
880.3570, 377.5781
881.4860, 320.2656
882.6140, 358.4570
883.7420, 303.1914
884.8700, 221.5938
885.9980, 167.1953
887.1250, 150.4258
888.2530, 220.9043
889.3800, 321.7246
890.5070, 259.5996
891.6340, 230.3359
892.7610, 25.32812
893.8880, 190.5527
895.0140, 22.89258
896.1400, 454.4707
897.2670, 100.0234
898.3930, 134.1504
899.5180, 429.7891
900.6440, 130.6875
901.7700, 298.4316
902.8950, 91.27344
904.0200, 23.27930
905.1450, 352.6113
906.2700, 304.3145
907.3950, 406.5430
908.5190, 207.2031
909.6440, 288.3379
910.7680, 270.2598
911.8920, 146.7461
913.0160, 354.4160
914.1400, 13.71094
915.2630, 434.2539
916.3870, 367.7656
917.5100, 151.4219
918.6330, 305.6523
919.7560, 137.7031
920.8790, 187.8633
922.0010, 78.64453
923.1240, 230.2500
924.2460, 241.9180
925.3680, 323.9375
926.4900, 133.3789
927.6120, 250.6562
928.7340, 169.6641
929.8550, 49.83203
930.9760, 245.6289
932.0980, 84.62500
933.2190, 125.3164
934.3390, 194.6094
935.4600, 94.56250
936.5810, 408.9688
937.7010, 361.4805
938.8210, 302.9883
939.9410, 180.9141
941.0610, 122.9961
942.1810, 375.9727
943.3010, 10.70312
944.4200, 309.7227
945.5390, 36.71094
946.6580, 306.2344
947.7770, 301.7812
948.8960, 294.0391
950.0150, 317.7305
951.1330, 277.0859
952.2510, 315.6445
953.3690, 126.1016
954.4870, 349.2852
955.6050, 289.9180
956.7230, 257.9453
957.8400, 526.6953
958.9580, 488.1523
960.0750, 516.0469
961.1920, 642.5000
962.3090, 452.5938
963.4250, 515.6211
964.5420, 371.8359
965.6580, 413.3594
966.7740, 560.4648
967.8900, 538.5938
969.0060, 554.8633
970.1220, 653.9219
971.2380, 630.4727
972.3530, 502.6406
973.4680, 658.0547
974.5830, 588.8633
975.6980, 596.8008
976.8130, 607.4219
977.9280, 670.5977
979.0420, 584.7617
980.1560, 759.5469
981.2710, 673.5039
982.3850, 484.7070
983.4980, 495.3516
984.6120, 297.7031
985.7260, 670.5312
986.8390, 432.0430
987.9520, 504.0195
989.0650, 671.6680
990.1780, 526.9219
991.2910, 727.0000
992.4030, 434.4375
993.5160, 601.0391
994.6280, 609.7617
995.7400, 409.6758
996.8520, 439.2148
997.9640, 356.1367
999.0750, 373.6875
1000.187, 472.8477
1001.298, 521.0898
1002.409, 720.9570
1003.520, 907.2773
1004.631, 816.6562
1005.741, 529.4922
1006.852, 834.7461
1007.962, 479.3633
1009.072, 292.9570
1010.182, 570.1523
1011.292, 421.5000
1012.402, 459.3633
1013.511, 645.0352
1014.621, 545.4297
1015.730, 533.6055
1016.839, 627.8945
1017.948, 676.9023
1019.056, 663.5391
1020.165, 988.9023
1021.273, 662.1484
1022.382, 1008.652
1023.490, 1089.180
1024.598, 1059.766
1025.706, 1107.184
1026.813, 785.2422
1027.921, 1057.406
1029.028, 613.7461
1030.135, 687.7461
1031.242, 579.4414
1032.349, 326.6172
1033.456, 321.3438
1034.562, 192.0703
1035.668, 303.4570
1036.775, 249.8555
1037.881, 155.5703
1038.987, 295.0508
1040.092, 249.2969
1041.198, 439.7383
1042.303, 266.5664
1043.408, 377.7852
1044.514, 286.8008
1045.618, 232.0586
1046.723, 381.1172
1047.828, 114.2461
1048.932, 190.1914
1050.037, 319.0703
1051.141, 244.4297
1052.245, 321.0234
1053.349, 387.9258
1054.452, 245.9453
1055.556, 299.2695
1056.659, 299.9102
1057.762, 237.0156
1058.865, 295.0742
1059.968, 260.9844
1061.071, 283.2383
1062.174, 194.1680
1063.276, 342.9844
1064.378, 413.4727
1065.480, 455.7656
1066.582, 17.69531
1067.684, 7.199219
1068.786, 86.29688
1069.887, 31.62500
1070.988, 135.0078
1072.090, 282.4414
1073.191, 262.2422
1074.291, 57.37109
1075.392, 311.3555
1076.493, 236.3398
1077.593, 177.3398
1078.693, 481.2930
1079.793, 643.2070
1080.893, 136.0742
1081.993, 396.8906
1083.092, 19.33594
1084.192, 355.3945
1085.291, 381.0898
1086.390, 433.7461
1087.489, 248.3594
1088.588, 143.6328
1089.686, 121.1758
1090.785, 320.6719
1091.883, 177.1406
1092.981, 244.5742
1094.079, 226.9922
1095.177, 176.3984
1096.275, 87.77734
1097.373, 98.12891
1098.470, 349.4531
1099.567, 272.7969
1100.664, 210.8516
1101.761, 292.1875
1102.858, 85.50000
1103.954, 124.7891
1105.051, 203.0547
1106.147, 190.3086
1107.243, 180.5547
1108.339, 383.7773
1109.435, 386.0430
1110.531, 274.3125
1111.626, 203.5898
1112.722, 304.0547
1113.817, 130.8555
1114.912, 307.9531
1116.007, 350.8320
1117.101, 331.8438
1118.196, 427.4609
1119.290, 575.2461
1120.385, 212.7031
1121.479, 431.6055
1122.573, 346.5664
1123.666, 444.9805
1124.760, 442.9727
1125.853, 406.1797
1126.947, 288.5508
1128.040, 406.5312
1129.133, 180.9414
1130.226, 173.6211
1131.318, 267.8438
1132.411, 228.6055
1133.503, 84.63281
1134.596, 329.9961
1135.688, 586.8516
1136.780, 365.3555
1137.871, 149.1250
1138.963, 90.67188
1140.054, 435.4609
1141.146, 60.98828
1142.237, 288.8047
1143.328, 52.72656
1144.419, 460.5938
1145.509, 314.9023
1146.600, 234.0508
1147.690, 329.2617
1148.780, 309.7930
1149.870, 321.8398
1150.960, 640.0625
1152.050, 352.0312
1153.139, 296.4531
1154.229, 30.65234
1155.318, 264.1445
1156.407, 458.8516
1157.496, 170.2461
1158.585, 292.8359
1159.674, 53.43359
1160.762, 88.29297
1161.850, 57.59766
1162.939, 254.1680
1164.027, 372.7617
1165.114, 196.9453
1166.202, 129.9961
1167.290, 180.5508
1168.377, 180.0859
1169.464, 306.7344
1170.551, 508.3672
1171.638, 399.0938
1172.725, 368.9219
1173.812, 91.48438
1174.898, 366.2305
1175.984, 161.4102
1177.071, 273.5703
1178.157, 196.0664
1179.242, 232.8594
1180.328, 387.1836
1181.414, 1.253906
1182.499, 2.539063
1183.584, 37.89844
1184.669, 14.49219
1185.754, 9.632813
1186.839, 25.55469
1187.924, 3.519531
1189.008, 0.0000000E+00
##END=



