##NAMES=Pectolite
##RRUFFID=R050396
##IDEAL CHEMISTRY=NaCa_2_Si_3_O_8_(OH)
##LOCALITY=Jeffrey Quarry, Asbestos, Quebec, Canada
##OWNER=RRUFF
##SOURCE=Marcus Origlieri
##DESCRIPTION=Colorless to gray columnar blocky crystals
##STATUS=The identification of this mineral has been confirmed by X-ray diffraction and chemical analysis
##URL=rruff.info/R050396
##MEASURED CHEMISTRY=Na_1.00_Ca_2.00_Si_3.00_O_8_(OH)
##PIN_ID=L01945
##ORIENTATION=Laser parallel to (1 1 0). Fiducial mark perpendicular to laser is parallel to c [0 0 1]
137.4850, 0.0000000E+00
138.7200, 62.52734
139.9550, 41.98633
141.1900, 136.8379
142.4250, 75.65234
143.6600, 190.2578
144.8940, 294.8535
146.1280, 158.4414
147.3620, 297.8359
148.5960, 364.6562
149.8300, 440.0234
151.0630, 387.9824
152.2960, 596.2227
153.5300, 471.5293
154.7620, 511.6426
155.9950, 260.5547
157.2280, 363.4961
158.4600, 344.0977
159.6920, 309.3008
160.9250, 238.0508
162.1560, 218.3066
163.3880, 5.019531
164.6200, 208.1641
165.8510, 154.6992
167.0820, 86.40039
168.3130, 57.83594
169.5440, 80.38477
170.7750, 27.22461
172.0050, 77.33203
173.2350, 99.69141
174.4650, 52.71094
175.6950, 189.1035
176.9250, 69.13086
178.1550, 192.3613
179.3840, 222.7930
180.6130, 363.4258
181.8420, 379.7871
183.0710, 463.2344
184.3000, 402.4082
185.5280, 525.7305
186.7570, 489.1973
187.9850, 358.7969
189.2130, 201.5273
190.4400, 292.3789
191.6680, 287.3477
192.8960, 154.4277
194.1230, 287.6133
195.3500, 592.8926
196.5770, 505.2695
197.8030, 533.7305
199.0300, 540.2734
200.2560, 526.8945
201.4830, 668.5898
202.7090, 579.3555
203.9340, 637.1875
205.1600, 646.0879
206.3860, 577.0508
207.6110, 490.0723
208.8360, 401.1562
210.0610, 359.2930
211.2860, 307.4824
212.5100, 446.6699
213.7350, 512.9531
214.9590, 490.1680
216.1830, 269.7930
217.4070, 401.4688
218.6310, 374.1484
219.8540, 165.9668
221.0780, 513.9668
222.3010, 553.0938
223.5240, 282.2598
224.7470, 401.4805
225.9690, 228.6816
227.1920, 372.9297
228.4140, 191.2012
229.6360, 217.5000
230.8580, 152.8105
232.0800, 309.1328
233.3020, 341.4609
234.5230, 310.7969
235.7440, 437.1406
236.9650, 216.4980
238.1860, 337.8672
239.4070, 301.2852
240.6280, 296.7168
241.8480, 273.1562
243.0680, 156.6094
244.2880, 164.1016
245.5080, 177.6152
246.7280, 138.1348
247.9470, 269.6582
249.1660, 267.1895
250.3860, 100.7246
251.6040, 342.2637
252.8230, 504.8047
254.0420, 329.3496
255.2600, 339.8984
256.4790, 374.4531
257.6970, 457.0059
258.9150, 615.5566
260.1320, 624.4492
261.3500, 314.6660
262.5670, 628.2207
263.7840, 609.7734
265.0010, 427.3301
266.2180, 546.8789
267.4350, 363.4375
268.6510, 384.0156
269.8680, 526.6641
271.0840, 484.3223
272.3000, 383.9766
273.5160, 590.6270
274.7310, 342.3008
275.9470, 570.9902
277.1620, 543.6816
278.3770, 444.3750
279.5920, 708.0586
280.8070, 361.7402
282.0210, 620.6309
283.2360, 387.7676
284.4500, 410.9492
285.6640, 670.8027
286.8780, 457.8184
288.0920, 346.1133
289.3050, 497.3457
290.5180, 264.8320
291.7320, 425.6621
292.9450, 431.3047
294.1570, 466.6641
295.3700, 477.9336
296.5830, 439.9746
297.7950, 198.7012
299.0070, 353.5098
300.2190, 408.0996
301.4310, 399.0137
302.6420, 625.9297
303.8540, 664.8926
305.0650, 464.6895
306.2760, 734.7559
307.4870, 714.9180
308.6980, 484.9395
309.9080, 825.5898
311.1190, 806.8105
312.3290, 1046.057
313.5390, 847.7461
314.7490, 1100.412
315.9580, 1049.756
317.1680, 1175.598
318.3770, 909.3457
319.5860, 858.9688
320.7950, 882.1562
322.0040, 920.0508
323.2130, 621.8340
324.4210, 512.8145
325.6290, 452.2891
326.8380, 115.7734
328.0460, 515.2734
329.2530, 405.8945
330.4610, 231.6133
331.6680, 234.1406
332.8760, 284.9844
334.0830, 377.5488
335.2890, 291.7520
336.4960, 302.3027
337.7030, 279.8574
338.9090, 160.0684
340.1150, 421.6289
341.3210, 608.6406
342.5270, 281.2031
343.7330, 178.1172
344.9380, 467.6777
346.1440, 224.9824
347.3490, 639.5410
348.5540, 491.0879
349.7590, 440.1348
350.9630, 644.6855
352.1680, 592.4180
353.3720, 577.1270
354.5760, 653.6680
355.7800, 672.2051
356.9840, 787.7383
358.1870, 704.7832
359.3910, 859.4004
360.5940, 732.9297
361.7970, 479.7754
363.0000, 323.3320
364.2030, 303.9062
365.4050, 424.3125
366.6080, 348.7891
367.8100, 377.5664
369.0120, 482.5508
370.2140, 400.0117
371.4150, 170.4492
372.6170, 249.3574
373.8180, 308.7715
375.0190, 446.1738
376.2200, 555.6250
377.4210, 468.0352
378.6220, 407.4043
379.8220, 273.2520
381.0230, 274.4785
382.2230, 232.9297
383.4230, 229.5781
384.6220, 277.9570
385.8220, 203.5156
387.0220, 67.15820
388.2210, 319.4238
389.4200, 361.7871
390.6190, 233.0273
391.8180, 137.2520
393.0160, 201.4629
394.2150, 179.5703
395.4130, 264.4004
396.6110, 233.5527
397.8090, 263.7031
399.0060, 253.0977
400.2040, 213.5527
401.4010, 345.0352
402.5980, 268.8457
403.7950, 342.9297
404.9920, 533.4160
406.1890, 437.4688
407.3860, 673.0977
408.5820, 510.1680
409.7780, 638.8926
410.9740, 798.9453
412.1700, 970.5176
413.3650, 576.1035
414.5610, 527.1387
415.7560, 526.6406
416.9510, 653.5469
418.1460, 519.9375
419.3410, 495.9531
420.5360, 225.4316
421.7300, 163.6562
422.9240, 468.1777
424.1180, 59.57812
425.3120, 12.61914
426.5060, 264.7246
427.7000, 7.257813
428.8930, 269.9902
430.0860, 3.710938
431.2790, 112.4512
432.4720, 153.1816
433.6650, 289.4590
434.8580, 67.01953
436.0500, 194.9688
437.2420, 148.0039
438.4340, 97.43750
439.6260, 116.6113
440.8180, 161.0508
442.0090, 147.9453
443.2010, 51.27148
444.3920, 103.0430
445.5830, 246.1016
446.7740, 235.5625
447.9640, 47.78516
449.1550, 222.9297
450.3450, 142.9180
451.5350, 64.94141
452.7250, 55.74805
453.9150, 247.7773
455.1050, 384.8555
456.2940, 269.6895
457.4830, 35.95508
458.6720, 298.1523
459.8610, 64.43945
461.0500, 2.896484
462.2390, 128.8945
463.4270, 27.00781
464.6150, 75.58008
465.8040, 106.1445
466.9910, 63.68164
468.1790, 343.6211
469.3670, 347.4102
470.5540, 249.6855
471.7410, 166.5098
472.9280, 147.6934
474.1150, 232.0840
475.3020, 123.4473
476.4890, 192.8789
477.6750, 52.50000
478.8610, 240.7754
480.0470, 368.0391
481.2330, 18.69922
482.4190, 444.5078
483.6040, 99.69141
484.7900, 282.8398
485.9750, 125.9668
487.1600, 235.0664
488.3450, 52.13477
489.5290, 230.1719
490.7140, 38.18164
491.8980, 13.84766
493.0820, 266.0742
494.2660, 175.9707
495.4500, 182.8359
496.6340, 328.6738
497.8170, 272.4883
499.0010, 239.2754
500.1840, 103.0371
501.3670, 205.7637
502.5500, 226.4590
503.7320, 150.1250
504.9150, 218.7598
506.0970, 280.3652
507.2790, 246.9434
508.4610, 368.5176
509.6430, 163.0879
510.8250, 111.6270
512.0060, 236.1328
513.1870, 377.6113
514.3680, 126.0703
515.5490, 290.4980
516.7300, 295.8984
517.9110, 231.2695
519.0910, 239.6113
520.2710, 422.9355
521.4510, 131.2305
522.6310, 329.4902
523.8110, 258.7207
524.9910, 173.9238
526.1700, 236.0918
527.3490, 191.2324
528.5280, 169.3359
529.7070, 376.4082
530.8860, 231.6641
532.0650, 416.6777
533.2430, 355.6602
534.4210, 437.6133
535.5990, 69.53711
536.7770, 108.4199
537.9550, 18.53516
539.1320, 77.19336
540.3100, 66.04883
541.4870, 188.7754
542.6640, 42.74609
543.8410, 98.42773
545.0170, 311.8633
546.1940, 171.7441
547.3700, 287.9277
548.5470, 132.3770
549.7230, 1.785156
550.8980, 103.6816
552.0740, 63.25195
553.2500, 36.17773
554.4250, 127.6543
555.6000, 62.18164
556.7750, 141.5547
557.9500, 295.4590
559.1250, 161.6836
560.2990, 255.1094
561.4730, 140.8750
562.6480, 117.3867
563.8220, 204.3164
564.9950, 149.2500
566.1690, 229.8887
567.3430, 210.2383
568.5160, 105.5566
569.6890, 322.6055
570.8620, 344.3066
572.0350, 282.0508
573.2070, 129.6367
574.3800, 268.3750
575.5520, 321.9297
576.7240, 188.1895
577.8960, 165.9590
579.0680, 241.9316
580.2400, 101.6914
581.4110, 243.9746
582.5830, 131.4473
583.7540, 153.7441
584.9250, 431.8945
586.0950, 275.3965
587.2660, 214.8828
588.4370, 159.8418
589.6070, 70.76953
590.7770, 237.2832
591.9470, 196.7754
593.1170, 67.57422
594.2860, 200.0469
595.4560, 183.5977
596.6250, 237.9883
597.7940, 31.21289
598.9630, 13.81445
600.1320, 105.7070
601.3000, 323.8926
602.4690, 15.06836
603.6370, 123.8594
604.8050, 314.8496
605.9730, 448.5156
607.1410, 304.6738
608.3090, 150.9609
609.4760, 181.8438
610.6430, 60.67188
611.8100, 163.5586
612.9770, 70.77539
614.1440, 309.6445
615.3110, 255.9004
616.4770, 232.8125
617.6430, 182.1953
618.8090, 42.37109
619.9750, 303.3730
621.1410, 472.1641
622.3070, 273.6973
623.4720, 274.1875
624.6370, 266.9336
625.8020, 359.6113
626.9670, 504.6562
628.1320, 526.5996
629.2970, 465.1680
630.4610, 427.0254
631.6250, 442.8555
632.7890, 471.8242
633.9530, 385.3633
635.1170, 641.1777
636.2810, 597.6543
637.4440, 774.8086
638.6070, 603.4082
639.7700, 1044.061
640.9330, 1189.086
642.0960, 1426.500
643.2590, 1809.961
644.4210, 2107.850
645.5830, 2404.326
646.7450, 2904.703
647.9070, 3442.453
649.0690, 3759.176
650.2310, 4207.418
651.3920, 4531.584
652.5530, 4232.330
653.7140, 4079.867
654.8750, 3605.553
656.0360, 3097.898
657.1970, 2387.459
658.3570, 2115.617
659.5170, 1665.066
660.6770, 1108.473
661.8370, 779.3555
662.9970, 926.7305
664.1570, 524.2422
665.3160, 893.3320
666.4750, 798.3125
667.6340, 529.8008
668.7930, 558.3164
669.9520, 232.0000
671.1110, 630.6406
672.2690, 444.2422
673.4270, 492.8125
674.5850, 333.4141
675.7430, 351.1250
676.9010, 221.4570
678.0590, 78.76172
679.2160, 392.7344
680.3730, 240.7148
681.5300, 197.7930
682.6870, 255.6836
683.8440, 67.00781
685.0010, 192.2109
686.1570, 111.3086
687.3130, 293.5742
688.4690, 369.0508
689.6250, 147.0273
690.7810, 215.2969
691.9370, 380.1797
693.0920, 60.49219
694.2470, 193.7305
695.4020, 221.1797
696.5570, 84.39062
697.7120, 239.1328
698.8670, 46.48047
700.0210, 93.41016
701.1750, 149.3555
702.3290, 410.1953
703.4830, 269.3633
704.6370, 299.3125
705.7910, 300.0859
706.9440, 150.3320
708.0970, 345.9141
709.2510, 376.2461
710.4030, 276.5430
711.5560, 300.7656
712.7090, 430.5703
713.8610, 343.7500
715.0140, 297.1445
716.1660, 211.4102
717.3180, 235.3984
718.4690, 73.65625
719.6210, 329.0742
720.7730, 246.8047
721.9240, 350.2656
723.0750, 132.2734
724.2260, 18.43359
725.3770, 210.1992
726.5270, 247.4922
727.6780, 123.0898
728.8280, 300.8281
729.9780, 151.6719
731.1280, 147.3008
732.2780, 14.70312
733.4280, 111.4297
734.5770, 141.2383
735.7260, 354.4062
736.8760, 403.4180
738.0250, 78.67578
739.1730, 507.2852
740.3220, 57.86328
741.4700, 173.7695
742.6190, 184.7500
743.7670, 68.68750
744.9150, 306.7617
746.0630, 193.6484
747.2100, 167.1719
748.3580, 178.1953
749.5050, 155.1602
750.6520, 361.4922
751.7990, 94.32031
752.9460, 311.4492
754.0930, 396.7383
755.2390, 230.1953
756.3860, 20.02344
757.5320, 83.98828
758.6780, 64.65234
759.8240, 46.17578
760.9690, 182.2305
762.1150, 243.3867
763.2600, 121.5742
764.4060, 180.4258
765.5510, 281.4336
766.6950, 185.0469
767.8400, 301.2383
768.9850, 302.7773
770.1290, 0.1093750
771.2730, 101.5781
772.4170, 222.0078
773.5610, 65.75781
774.7050, 169.1172
775.8480, 62.44141
776.9920, 272.1445
778.1350, 312.9102
779.2780, 399.1211
780.4210, 430.9961
781.5640, 102.6172
782.7060, 260.0273
783.8490, 333.4922
784.9910, 75.30469
786.1330, 75.30078
787.2750, 224.0078
788.4170, 181.5312
789.5580, 157.3359
790.7000, 10.80859
791.8410, 57.51953
792.9820, 231.8359
794.1230, 172.4844
795.2640, 39.14453
796.4040, 12.75391
797.5450, 183.2109
798.6850, 182.3398
799.8250, 175.1992
800.9650, 134.6289
802.1050, 147.9805
803.2450, 226.7852
804.3840, 290.0586
805.5230, 249.3008
806.6630, 352.4844
807.8020, 6.558594
808.9400, 300.5586
810.0790, 391.7266
811.2170, 52.77734
812.3560, 257.7852
813.4940, 163.1914
814.6320, 415.8594
815.7700, 176.9102
816.9070, 73.78516
818.0450, 261.4922
819.1820, 312.9805
820.3190, 90.67969
821.4560, 281.3047
822.5930, 196.6641
823.7300, 247.5898
824.8670, 343.2383
826.0030, 374.8555
827.1390, 364.5898
828.2750, 431.1992
829.4110, 314.7266
830.5470, 364.5273
831.6820, 113.4297
832.8180, 358.6250
833.9530, 290.2188
835.0880, 242.4180
836.2230, 14.34766
837.3580, 21.14062
838.4920, 280.5352
839.6270, 403.7227
840.7610, 266.8438
841.8950, 141.9766
843.0290, 239.0820
844.1630, 523.6211
845.2960, 440.6680
846.4300, 383.6875
847.5630, 304.6680
848.6960, 217.6289
849.8290, 276.5625
850.9620, 232.4648
852.0940, 158.3164
853.2270, 126.8555
854.3590, 330.4688
855.4910, 318.3711
856.6230, 96.08203
857.7550, 312.6211
858.8870, 159.2734
860.0180, 237.2656
861.1500, 89.56250
862.2810, 46.16406
863.4120, 360.1562
864.5430, 575.1992
865.6730, 413.6211
866.8040, 405.4375
867.9340, 278.2031
869.0640, 141.3359
870.1940, 191.9219
871.3240, 151.6602
872.4540, 52.19531
873.5830, 309.9609
874.7130, 130.2812
875.8420, 365.3867
876.9710, 144.5508
878.1000, 52.17188
879.2290, 40.80078
880.3570, 40.16406
881.4860, 139.0898
882.6140, 113.0156
883.7420, 39.97266
884.8700, 136.4023
885.9980, 140.6445
887.1250, 159.3789
888.2530, 341.2930
889.3800, 213.9414
890.5070, 15.42969
891.6340, 242.9336
892.7610, 104.1875
893.8880, 154.4492
895.0140, 274.2383
896.1400, 194.5625
897.2670, 159.5195
898.3930, 142.7031
899.5180, 18.33203
900.6440, 166.1758
901.7700, 370.4141
902.8950, 19.78125
904.0200, 312.4219
905.1450, 57.59375
906.2700, 297.0625
907.3950, 337.3906
908.5190, 162.1953
909.6440, 289.6914
910.7680, 534.2148
911.8920, 147.3281
913.0160, 124.7344
914.1400, 352.7188
915.2630, 157.0195
916.3870, 83.90625
917.5100, 186.0156
918.6330, 7.722656
919.7560, 218.8320
920.8790, 33.22266
922.0010, 140.6406
923.1240, 80.39844
924.2460, 274.6289
925.3680, 22.33594
926.4900, 95.96484
927.6120, 88.53906
928.7340, 312.8789
929.8550, 225.9609
930.9760, 109.3164
932.0980, 127.9609
933.2190, 78.43359
934.3390, 0.9765630
935.4600, 25.32031
936.5810, 238.1797
937.7010, 116.9883
938.8210, 425.1055
939.9410, 348.4648
941.0610, 31.63672
942.1810, 554.9062
943.3010, 277.4336
944.4200, 212.6406
945.5390, 335.6797
946.6580, 320.6250
947.7770, 125.7578
948.8960, 421.1523
950.0150, 375.0312
951.1330, 235.3633
952.2510, 278.2266
953.3690, 317.8242
954.4870, 378.5000
955.6050, 53.29297
956.7230, 232.8477
957.8400, 30.00000
958.9580, 402.3008
960.0750, 696.7188
961.1920, 371.0781
962.3090, 543.3945
963.4250, 583.9414
964.5420, 485.1758
965.6580, 465.6641
966.7740, 409.0938
967.8900, 433.2188
969.0060, 769.2812
970.1220, 702.0938
971.2380, 995.2969
972.3530, 936.3203
973.4680, 1136.469
974.5830, 596.3516
975.6980, 738.4922
976.8130, 697.3516
977.9280, 587.1758
979.0420, 768.6836
980.1560, 620.6992
981.2710, 589.7305
982.3850, 654.5820
983.4980, 388.6758
984.6120, 267.2383
985.7260, 392.7656
986.8390, 326.2422
987.9520, 405.6914
989.0650, 264.1250
990.1780, 359.3203
991.2910, 314.9531
992.4030, 366.6172
993.5160, 399.4180
994.6280, 296.7773
995.7400, 181.3633
996.8520, 397.2070
997.9640, 124.7500
999.0750, 245.4375
1000.187, 288.2695
1001.298, 559.6172
1002.409, 554.6992
1003.520, 556.0352
1004.631, 407.8203
1005.741, 485.1562
1006.852, 518.7812
1007.962, 604.9961
1009.072, 490.6406
1010.182, 545.9062
1011.292, 524.8438
1012.402, 505.9375
1013.511, 512.1680
1014.621, 429.4883
1015.730, 451.9180
1016.839, 383.7891
1017.948, 982.1602
1019.056, 750.5508
1020.165, 1098.109
1021.273, 1103.500
1022.382, 1249.891
1023.490, 1300.020
1024.598, 1535.535
1025.706, 1046.473
1026.813, 1251.516
1027.921, 1179.809
1029.028, 852.8008
1030.135, 798.7852
1031.242, 723.4180
1032.349, 500.6641
1033.456, 161.5586
1034.562, 708.4336
1035.668, 227.2930
1036.775, 571.1367
1037.881, 348.9688
1038.987, 305.8008
1040.092, 447.6914
1041.198, 430.5391
1042.303, 37.68359
1043.408, 183.0312
1044.514, 132.6992
1045.618, 43.31641
1046.723, 145.9648
1047.828, 100.4492
1048.932, 356.1953
1050.037, 145.8203
1051.141, 381.3828
1052.245, 78.39844
1053.349, 2.207031
1054.452, 131.1016
1055.556, 77.00391
1056.659, 206.9688
1057.762, 33.91016
1058.865, 17.14453
1059.968, 258.8398
1061.071, 258.8828
1062.174, 149.9922
1063.276, 288.1484
1064.378, 34.42969
1065.480, 401.7461
1066.582, 354.0938
1067.684, 75.47656
1068.786, 132.8906
1069.887, 402.3984
1070.988, 175.9414
1072.090, 159.5156
1073.191, 371.1250
1074.291, 143.5547
1075.392, 58.32031
1076.493, 173.0859
1077.593, 177.6289
1078.693, 150.2266
1079.793, 43.10547
1080.893, 246.1875
1081.993, 449.8711
1083.092, 336.7383
1084.192, 399.2891
1085.291, 178.5430
1086.390, 243.0508
1087.489, 436.8477
1088.588, 226.7773
1089.686, 277.7539
1090.785, 467.0039
1091.883, 237.9023
1092.981, 258.6484
1094.079, 79.89453
1095.177, 12.86328
1096.275, 140.7109
1097.373, 8.636719
1098.470, 126.9570
1099.567, 147.1797
1100.664, 131.1445
1101.761, 108.1250
1102.858, 1.082031
1103.954, 58.11328
1105.051, 0.0000000E+00
##END=



