##NAMES=Pectolite
##RRUFFID=R050396
##IDEAL CHEMISTRY=NaCa_2_Si_3_O_8_(OH)
##LOCALITY=Jeffrey Quarry, Asbestos, Quebec, Canada
##OWNER=RRUFF
##SOURCE=Marcus Origlieri
##DESCRIPTION=Colorless to gray columnar blocky crystals
##STATUS=The identification of this mineral has been confirmed by X-ray diffraction and chemical analysis
##URL=rruff.info/R050396
##MEASURED CHEMISTRY=Na_1.00_Ca_2.00_Si_3.00_O_8_(OH)
##PIN_ID=L01067
##ORIENTATION=Laser parallel to a* (1 0 0). Fiducial mark perpendicular to laser is parallel to -b [0 -1 0]
118.9350, 0.0000000E+00
120.1730, 227.0479
121.4100, 2.540527
122.6480, 91.83594
123.8850, 73.87695
125.1230, 7.669434
126.3600, 96.59473
127.5960, 48.22363
128.8330, 168.2480
130.0700, 95.43604
131.3060, 189.6060
132.5420, 360.6133
133.7780, 494.3442
135.0140, 575.7178
136.2500, 686.4556
137.4850, 816.1255
138.7200, 869.0386
139.9550, 963.3545
141.1900, 1122.032
142.4250, 1007.035
143.6600, 1144.332
144.8940, 913.8975
146.1280, 964.7070
147.3620, 974.7412
148.5960, 902.9893
149.8300, 796.4990
151.0630, 728.2568
152.2960, 575.1880
153.5300, 464.5732
154.7620, 397.7271
155.9950, 315.9883
157.2280, 264.3789
158.4600, 237.9917
159.6920, 182.7065
160.9250, 180.5156
162.1560, 113.4131
163.3880, 89.39404
164.6200, 147.4570
165.8510, 90.59912
167.0820, 96.81445
168.3130, 64.10156
169.5440, 40.45557
170.7750, 50.87207
172.0050, 88.34668
173.2350, 156.8750
174.4650, 157.4795
175.6950, 120.1606
176.9250, 208.8999
178.1550, 193.7612
179.3840, 255.7505
180.6130, 263.4106
181.8420, 253.6050
183.0710, 354.8076
184.3000, 347.0156
185.5280, 451.2246
186.7570, 356.4380
187.9850, 306.6938
189.2130, 237.9512
190.4400, 212.9854
191.6680, 148.6851
192.8960, 213.1528
194.1230, 148.5791
195.3500, 203.2471
196.5770, 83.34424
197.8030, 186.7065
199.0300, 144.0581
200.2560, 105.4092
201.4830, 69.79443
202.7090, 60.21289
203.9340, 36.63184
205.1600, 14.05762
206.3860, 5.496094
207.6110, 45.97852
208.8360, 107.5410
210.0610, 92.13477
211.2860, 117.7266
212.5100, 62.32422
213.7350, 86.92578
214.9590, 181.5684
216.1830, 19.24707
217.4070, 149.9268
218.6310, 313.6104
219.8540, 271.2939
221.0780, 482.9736
222.3010, 284.6475
223.5240, 372.3125
224.7470, 355.9766
225.9690, 401.6396
227.1920, 453.2988
228.4140, 300.0898
229.6360, 258.6865
230.8580, 307.7373
232.0800, 164.3330
233.3020, 321.3125
234.5230, 339.8340
235.7440, 151.5488
236.9650, 267.5332
238.1860, 143.2822
239.4070, 104.3877
240.6280, 170.7881
241.8480, 47.49902
243.0680, 142.9482
244.2880, 86.72949
245.5080, 133.9922
246.7280, 137.2422
247.9470, 113.6494
249.1660, 120.0752
250.3860, 6.084961
251.6040, 76.31836
252.8230, 87.78418
254.0420, 50.95605
255.2600, 165.1680
256.4790, 256.7129
257.6970, 322.8105
258.9150, 194.1602
260.1320, 58.38379
261.3500, 217.0342
262.5670, 239.9277
263.7840, 243.5117
265.0010, 218.8604
266.2180, 302.9014
267.4350, 357.1748
268.6510, 440.9375
269.8680, 484.4482
271.0840, 538.3145
272.3000, 578.4209
273.5160, 568.3340
274.7310, 458.4121
275.9470, 619.4600
277.1620, 483.3613
278.3770, 519.7314
279.5920, 469.9844
280.8070, 381.6172
282.0210, 472.9160
283.2360, 306.5645
284.4500, 178.0371
285.6640, 114.4053
286.8780, 193.9443
288.0920, 80.24316
289.3050, 120.7178
290.5180, 204.9746
291.7320, 56.59375
292.9450, 143.3213
294.1570, 175.9258
295.3700, 206.1162
296.5830, 274.0811
297.7950, 272.9561
299.0070, 249.5361
300.2190, 198.9170
301.4310, 322.3535
302.6420, 185.3389
303.8540, 266.9365
305.0650, 103.7705
306.2760, 201.3887
307.4870, 230.0518
308.6980, 284.5283
309.9080, 352.6650
311.1190, 384.5654
312.3290, 447.2393
313.5390, 440.8838
314.7490, 429.5029
315.9580, 497.4043
317.1680, 418.2207
318.3770, 451.8184
319.5860, 437.9668
320.7950, 394.8818
322.0040, 416.2012
323.2130, 408.6855
324.4210, 406.9414
325.6290, 352.1895
326.8380, 431.4951
328.0460, 298.4160
329.2530, 241.6230
330.4610, 286.2197
331.6680, 171.7373
332.8760, 211.2480
334.0830, 133.6211
335.2890, 43.77148
336.4960, 160.9102
337.7030, 14.30859
338.9090, 20.58301
340.1150, 3.504883
341.3210, 66.78809
342.5270, 85.84473
343.7330, 105.8867
344.9380, 80.91406
346.1440, 8.162109
347.3490, 86.29883
348.5540, 7.722656
349.7590, 20.76367
350.9630, 10.17285
352.1680, 19.90723
353.3720, 3.011719
354.5760, 77.86230
355.7800, 54.71973
356.9840, 80.44141
358.1870, 34.35742
359.3910, 6.864258
360.5940, 36.10742
361.7970, 122.6201
363.0000, 25.32715
364.2030, 88.01562
365.4050, 36.05273
366.6080, 181.5859
367.8100, 5.267578
369.0120, 120.8652
370.2140, 172.4434
371.4150, 303.0693
372.6170, 175.6074
373.8180, 224.3516
375.0190, 79.83984
376.2200, 317.3057
377.4210, 299.7510
378.6220, 365.1758
379.8220, 160.5742
381.0230, 150.0645
382.2230, 115.5234
383.4230, 62.83887
384.6220, 148.1211
385.8220, 124.3467
387.0220, 198.4971
388.2210, 19.86816
389.4200, 138.3418
390.6190, 106.0273
391.8180, 60.40527
393.0160, 179.6299
394.2150, 189.7246
395.4130, 96.26465
396.6110, 119.3145
397.8090, 3.836914
399.0060, 201.9453
400.2040, 50.50781
401.4010, 98.97754
402.5980, 28.67871
403.7950, 96.46680
404.9920, 16.99219
406.1890, 129.4102
407.3860, 22.89355
408.5820, 2.424805
409.7780, 102.1680
410.9740, 217.6182
412.1700, 141.0508
413.3650, 233.2578
414.5610, 92.91406
415.7560, 54.27051
416.9510, 117.6006
418.1460, 92.84473
419.3410, 115.4844
420.5360, 165.0332
421.7300, 62.86133
422.9240, 100.2773
424.1180, 18.67188
425.3120, 106.8154
426.5060, 53.38281
427.7000, 85.18262
428.8930, 118.2031
430.0860, 83.37305
431.2790, 149.1328
432.4720, 111.4092
433.6650, 6.940430
434.8580, 86.23438
436.0500, 64.14062
437.2420, 97.20898
438.4340, 70.69922
439.6260, 17.24902
440.8180, 47.88867
442.0090, 10.65625
443.2010, 169.7246
444.3920, 158.6299
445.5830, 38.19922
446.7740, 132.8271
447.9640, 77.30859
449.1550, 129.8721
450.3450, 119.5566
451.5350, 21.07129
452.7250, 35.93359
453.9150, 12.69238
455.1050, 122.3506
456.2940, 129.4561
457.4830, 135.1094
458.6720, 68.97754
459.8610, 88.96973
461.0500, 141.1992
462.2390, 139.9580
463.4270, 171.6553
464.6150, 205.5068
465.8040, 165.4727
466.9910, 246.4844
468.1790, 238.5312
469.3670, 202.2871
470.5540, 54.39844
471.7410, 254.8477
472.9280, 128.3574
474.1150, 146.3145
475.3020, 145.6318
476.4890, 176.8770
477.6750, 257.0986
478.8610, 402.4473
480.0470, 164.3252
481.2330, 240.1123
482.4190, 401.6309
483.6040, 181.0576
484.7900, 265.7109
485.9750, 354.8193
487.1600, 287.4473
488.3450, 179.0439
489.5290, 202.2959
490.7140, 298.8223
491.8980, 264.5654
493.0820, 317.6191
494.2660, 361.7207
495.4500, 293.7168
496.6340, 272.4805
497.8170, 347.7490
499.0010, 340.8838
500.1840, 357.8262
501.3670, 325.9160
502.5500, 418.3164
503.7320, 275.0293
504.9150, 351.2168
506.0970, 307.0498
507.2790, 177.1094
508.4610, 297.6016
509.6430, 224.6533
510.8250, 281.2402
512.0060, 298.2246
513.1870, 226.1738
514.3680, 359.0889
515.5490, 189.9746
516.7300, 361.8223
517.9110, 354.4863
519.0910, 430.2617
520.2710, 372.0000
521.4510, 249.7051
522.6310, 220.3721
523.8110, 221.0557
524.9910, 469.5684
526.1700, 247.8691
527.3490, 400.3955
528.5280, 356.9326
529.7070, 143.3887
530.8860, 236.8721
532.0650, 119.2490
533.2430, 188.5781
534.4210, 220.5732
535.5990, 24.99023
536.7770, 137.2090
537.9550, 26.21973
539.1320, 54.56250
540.3100, 64.55176
541.4870, 110.5908
542.6640, 127.2070
543.8410, 152.9756
545.0170, 175.1826
546.1940, 97.10449
547.3700, 101.4160
548.5470, 71.16113
549.7230, 54.43848
550.8980, 16.26562
552.0740, 61.74219
553.2500, 62.37891
554.4250, 112.9160
555.6000, 19.46094
556.7750, 68.69922
557.9500, 70.02832
559.1250, 85.41895
560.2990, 9.089844
561.4730, 21.00000
562.6480, 3.368164
563.8220, 32.24023
564.9950, 32.31348
566.1690, 79.14453
567.3430, 155.6094
568.5160, 44.67188
569.6890, 4.520508
570.8620, 38.94922
572.0350, 17.09277
573.2070, 136.1426
574.3800, 41.45020
575.5520, 11.60254
576.7240, 72.88477
577.8960, 33.55566
579.0680, 28.14551
580.2400, 50.07422
581.4110, 211.7412
582.5830, 129.4248
583.7540, 135.1650
584.9250, 17.50977
586.0950, 72.23535
587.2660, 56.41016
588.4370, 85.56250
589.6070, 59.22754
590.7770, 262.4844
591.9470, 92.45898
593.1170, 164.9404
594.2860, 26.24805
595.4560, 143.4678
596.6250, 121.3848
597.7940, 222.2373
598.9630, 3.325195
600.1320, 117.0625
601.3000, 71.90332
602.4690, 167.6689
603.6370, 176.3311
604.8050, 120.2852
605.9730, 110.6621
607.1410, 80.62598
608.3090, 66.25781
609.4760, 129.5645
610.6430, 37.65918
611.8100, 187.8564
612.9770, 166.6562
614.1440, 52.10742
615.3110, 197.3477
616.4770, 206.5977
617.6430, 204.8457
618.8090, 143.0664
619.9750, 273.6260
621.1410, 230.0166
622.3070, 431.2949
623.4720, 310.5234
624.6370, 356.2227
625.8020, 184.0488
626.9670, 429.9404
628.1320, 359.3896
629.2970, 365.2607
630.4610, 503.1191
631.6250, 539.1738
632.7890, 584.9717
633.9530, 595.1523
635.1170, 684.2734
636.2810, 631.3906
637.4440, 712.5557
638.6070, 772.0830
639.7700, 784.8906
640.9330, 1012.264
642.0960, 1410.929
643.2590, 1508.531
644.4210, 1875.920
645.5830, 2214.413
646.7450, 2457.581
647.9070, 2986.188
649.0690, 3354.563
650.2310, 3630.083
651.3920, 3858.815
652.5530, 3922.215
653.7140, 3555.676
654.8750, 3075.113
656.0360, 2488.247
657.1970, 1940.005
658.3570, 1692.609
659.5170, 1276.490
660.6770, 1135.734
661.8370, 694.4922
662.9970, 676.5645
664.1570, 533.1855
665.3160, 456.1113
666.4750, 498.4648
667.6340, 308.6504
668.7930, 453.7656
669.9520, 340.1465
671.1110, 431.9180
672.2690, 301.8613
673.4270, 417.9746
674.5850, 290.0938
675.7430, 364.6484
676.9010, 592.5059
678.0590, 259.4863
679.2160, 582.6133
680.3730, 775.1562
681.5300, 737.3984
682.6870, 638.4824
683.8440, 825.3633
685.0010, 869.2031
686.1570, 749.8027
687.3130, 556.6289
688.4690, 619.7676
689.6250, 580.6230
690.7810, 484.8691
691.9370, 459.4688
693.0920, 402.8672
694.2470, 374.4863
695.4020, 343.9980
696.5570, 272.0957
697.7120, 309.2969
698.8670, 249.0430
700.0210, 271.3223
701.1750, 241.0117
702.3290, 247.3516
703.4830, 302.7812
704.6370, 268.9473
705.7910, 193.7148
706.9440, 283.5840
708.0970, 210.3047
709.2510, 151.5664
710.4030, 227.9648
711.5560, 211.6660
712.7090, 145.6680
713.8610, 27.63867
715.0140, 101.9238
716.1660, 20.94141
717.3180, 40.95508
718.4690, 62.97266
719.6210, 87.11133
720.7730, 130.7246
721.9240, 177.9844
723.0750, 310.5469
724.2260, 69.40625
725.3770, 302.2949
726.5270, 43.86719
727.6780, 72.36914
728.8280, 209.9199
729.9780, 40.83398
731.1280, 166.4375
732.2780, 185.4121
733.4280, 63.88672
734.5770, 214.1289
735.7260, 226.6172
736.8760, 84.89258
738.0250, 255.3848
739.1730, 154.7539
740.3220, 221.8652
741.4700, 32.68164
742.6190, 183.1758
743.7670, 102.4512
744.9150, 162.4863
746.0630, 61.28711
747.2100, 109.4414
748.3580, 128.9668
749.5050, 181.7266
750.6520, 194.0156
751.7990, 169.8730
752.9460, 225.1484
754.0930, 209.5391
755.2390, 228.6309
756.3860, 57.73242
757.5320, 180.3555
758.6780, 143.9375
759.8240, 33.99609
760.9690, 227.4004
762.1150, 71.93555
763.2600, 76.44727
764.4060, 278.4355
765.5510, 133.3516
766.6950, 203.8477
767.8400, 217.4902
768.9850, 193.2871
770.1290, 200.8184
771.2730, 185.5410
772.4170, 147.0996
773.5610, 137.5195
774.7050, 114.8555
775.8480, 52.50586
776.9920, 19.80273
778.1350, 18.27930
779.2780, 112.0430
780.4210, 22.47656
781.5640, 48.87891
782.7060, 212.8008
783.8490, 65.70508
784.9910, 97.73828
786.1330, 205.5918
787.2750, 146.7910
788.4170, 98.59961
789.5580, 165.6445
790.7000, 127.4922
791.8410, 13.35352
792.9820, 141.7070
794.1230, 274.0137
795.2640, 297.6426
796.4040, 217.6934
797.5450, 118.1016
798.6850, 220.5820
799.8250, 102.6113
800.9650, 198.7832
802.1050, 141.3496
803.2450, 60.41602
804.3840, 296.0820
805.5230, 298.1992
806.6630, 109.7891
807.8020, 337.6680
808.9400, 164.8125
810.0790, 177.9102
811.2170, 33.06641
812.3560, 102.0820
813.4940, 143.3047
814.6320, 210.8633
815.7700, 203.2168
816.9070, 339.4629
818.0450, 203.2266
819.1820, 242.4785
820.3190, 300.6523
821.4560, 74.25586
822.5930, 81.71289
823.7300, 16.39648
824.8670, 352.4160
826.0030, 148.1641
827.1390, 220.8398
828.2750, 185.4512
829.4110, 218.9941
830.5470, 200.4629
831.6820, 47.85547
832.8180, 117.1797
833.9530, 209.1309
835.0880, 91.15039
836.2230, 312.8398
837.3580, 1.435547
838.4920, 210.0801
839.6270, 264.5527
840.7610, 6.187500
841.8950, 204.5938
843.0290, 239.6152
844.1630, 85.94141
845.2960, 282.9199
846.4300, 34.58789
847.5630, 2.519531
848.6960, 110.2266
849.8290, 55.58984
850.9620, 100.1602
852.0940, 227.2109
853.2270, 186.5918
854.3590, 112.0664
855.4910, 227.6445
856.6230, 162.3027
857.7550, 146.0664
858.8870, 85.94922
860.0180, 95.28516
861.1500, 133.5410
862.2810, 170.7363
863.4120, 197.1113
864.5430, 140.7715
865.6730, 239.3418
866.8040, 363.0273
867.9340, 334.0742
869.0640, 76.46289
870.1940, 253.6172
871.3240, 8.783203
872.4540, 17.09180
873.5830, 105.3438
874.7130, 86.39453
875.8420, 60.06250
876.9710, 216.6484
878.1000, 72.32422
879.2290, 258.7051
880.3570, 93.32617
881.4860, 78.74414
882.6140, 140.2402
883.7420, 162.9336
884.8700, 200.6348
885.9980, 126.4883
887.1250, 108.3223
888.2530, 67.98047
889.3800, 133.7988
890.5070, 195.4863
891.6340, 172.1816
892.7610, 203.9453
893.8880, 93.35547
895.0140, 148.4883
896.1400, 101.8887
897.2670, 29.76953
898.3930, 276.7676
899.5180, 275.2715
900.6440, 141.6328
901.7700, 222.2734
902.8950, 169.1406
904.0200, 113.2285
905.1450, 157.9102
906.2700, 50.55664
907.3950, 35.06250
908.5190, 126.4551
909.6440, 135.8691
910.7680, 113.7148
911.8920, 51.36133
913.0160, 64.92188
914.1400, 4.523438
915.2630, 8.646484
916.3870, 30.40430
917.5100, 18.31250
918.6330, 273.5879
919.7560, 35.87695
920.8790, 244.6270
922.0010, 12.21680
923.1240, 216.1699
924.2460, 139.2812
925.3680, 38.38672
926.4900, 326.9668
927.6120, 45.03906
928.7340, 40.07031
929.8550, 136.7617
930.9760, 255.3281
932.0980, 151.5078
933.2190, 112.2070
934.3390, 201.8359
935.4600, 10.31445
936.5810, 273.2656
937.7010, 134.0039
938.8210, 24.06250
939.9410, 333.9277
941.0610, 187.8711
942.1810, 99.10938
943.3010, 256.0840
944.4200, 223.2773
945.5390, 216.3809
946.6580, 192.2070
947.7770, 159.8320
948.8960, 348.5566
950.0150, 309.6895
951.1330, 414.2695
952.2510, 192.4492
953.3690, 388.5098
954.4870, 296.3906
955.6050, 376.1895
956.7230, 478.3477
957.8400, 797.2070
958.9580, 713.0664
960.0750, 833.9648
961.1920, 787.8184
962.3090, 917.1426
963.4250, 1148.637
964.5420, 1296.035
965.6580, 1357.979
966.7740, 1696.369
967.8900, 1681.221
969.0060, 2017.803
970.1220, 2035.316
971.2380, 1946.691
972.3530, 2033.869
973.4680, 1969.391
974.5830, 1911.949
975.6980, 1866.268
976.8130, 1774.840
977.9280, 1675.590
979.0420, 1530.180
980.1560, 1407.715
981.2710, 1129.412
982.3850, 1269.084
983.4980, 1002.896
984.6120, 1104.957
985.7260, 906.8086
986.8390, 840.5898
987.9520, 630.4082
989.0650, 823.0996
990.1780, 654.7266
991.2910, 673.5254
992.4030, 450.4219
993.5160, 845.5605
994.6280, 424.0918
995.7400, 952.4316
996.8520, 636.1875
997.9640, 667.0898
999.0750, 726.4434
1000.187, 783.6660
1001.298, 742.4316
1002.409, 668.2578
1003.520, 702.7344
1004.631, 543.7480
1005.741, 591.3379
1006.852, 528.7930
1007.962, 460.9082
1009.072, 582.6387
1010.182, 402.0156
1011.292, 721.3887
1012.402, 706.5273
1013.511, 491.7051
1014.621, 581.2324
1015.730, 422.2734
1016.839, 693.6953
1017.948, 705.4512
1019.056, 825.5430
1020.165, 912.6797
1021.273, 786.9102
1022.382, 896.9414
1023.490, 810.0020
1024.598, 944.9434
1025.706, 946.7676
1026.813, 866.4785
1027.921, 871.0977
1029.028, 735.6211
1030.135, 730.0762
1031.242, 405.4160
1032.349, 856.6582
1033.456, 145.7832
1034.562, 292.7617
1035.668, 345.7402
1036.775, 93.76953
1037.881, 336.9355
1038.987, 267.0352
1040.092, 224.0703
1041.198, 115.1074
1042.303, 82.11133
1043.408, 50.65820
1044.514, 13.05664
1045.618, 33.12695
1046.723, 20.39453
1047.828, 40.74023
1048.932, 123.2617
1050.037, 92.10938
1051.141, 195.5098
1052.245, 87.36914
1053.349, 25.28516
1054.452, 23.23633
1055.556, 123.2012
1056.659, 159.1543
1057.762, 379.1094
1058.865, 61.08398
1059.968, 281.0918
1061.071, 221.9590
1062.174, 83.09180
1063.276, 123.0645
1064.378, 134.3105
1065.480, 259.5137
1066.582, 9.939453
1067.684, 420.9375
1068.786, 8.134766
1069.887, 65.38086
1070.988, 132.1367
1072.090, 196.3691
1073.191, 238.8984
1074.291, 86.14453
1075.392, 250.4629
1076.493, 123.9707
1077.593, 11.92578
1078.693, 11.04883
1079.793, 318.1699
1080.893, 278.8750
1081.993, 66.07031
1083.092, 225.5098
1084.192, 12.27539
1085.291, 149.7441
1086.390, 42.98047
1087.489, 0.0000000E+00
##END=



