##NAMES=Pharmacosiderite
##RRUFFID=R050574
##IDEAL CHEMISTRY=KFe^3+^_4_(As^5+^O_4_)_3_(OH)_4_&#183;6-7H_2_O
##LOCALITY=Cornwall, England
##OWNER=RRUFF
##SOURCE=University of Arizona Mineral Museum
##DESCRIPTION=Druse of bluish-green cubes
##STATUS=The identification of this mineral is confirmed by single-crystal X-ray diffraction and chemical analysis.
##URL=rruff.info/R050574
##MEASURED CHEMISTRY=K_1.27_(Fe^3+^_3.73_Fe^2+^_0.27_)_Σ=4_(As_1.00_O_4_)_3_(OH)_4_·6H_2_O
##PIN_ID=M00719
##ORIENTATION=Laser parallel to a* (1 0 0). Fiducial mark perpendicular to laser is parallel to c [0 0 1]
210.3780, 0.0000000E+00
211.6060, 34.12891
212.8340, 52.79785
214.0620, 5.732422
215.2900, 39.96582
216.5170, 11.32617
217.7440, 87.02344
218.9710, 126.0742
220.1980, 49.34375
221.4250, 212.2959
222.6510, 291.3613
223.8770, 435.0469
225.1040, 455.0195
226.3290, 543.4238
227.5550, 876.5107
228.7810, 1057.071
230.0060, 1430.760
231.2310, 1699.204
232.4560, 1886.125
233.6810, 2298.333
234.9050, 2607.690
236.1290, 2792.106
237.3540, 3003.514
238.5770, 3262.023
239.8010, 3361.011
241.0250, 3515.006
242.2480, 3283.904
243.4710, 3389.062
244.6940, 3222.484
245.9170, 2947.277
247.1400, 2871.721
248.3620, 2752.769
249.5840, 2698.981
250.8060, 2595.410
252.0280, 2660.136
253.2500, 2967.228
254.4710, 2809.750
255.6920, 2792.760
256.9140, 2841.303
258.1340, 3265.423
259.3550, 3281.160
260.5760, 3400.547
261.7960, 3360.617
263.0160, 3419.396
264.2360, 3394.906
265.4560, 3370.450
266.6750, 3241.376
267.8940, 3289.753
269.1140, 3127.848
270.3330, 3051.354
271.5510, 2945.719
272.7700, 2644.575
273.9880, 2591.713
275.2070, 2589.356
276.4250, 2568.780
277.6420, 2593.756
278.8600, 2642.201
280.0770, 2673.754
281.2950, 2754.908
282.5120, 2779.900
283.7290, 2796.057
284.9450, 2894.455
286.1620, 2666.975
287.3780, 2732.372
288.5940, 2478.246
289.8100, 2231.224
291.0260, 1865.301
292.2410, 1810.477
293.4570, 1560.748
294.6720, 1496.111
295.8870, 1513.562
297.1010, 1391.100
298.3160, 1417.716
299.5300, 1454.410
300.7450, 1401.180
301.9590, 1473.021
303.1730, 1290.930
304.3860, 1382.906
305.6000, 1223.947
306.8130, 1349.051
308.0260, 1171.213
309.2390, 968.4346
310.4510, 824.7129
311.6640, 685.0557
312.8760, 563.9834
314.0880, 475.8682
315.3000, 395.3398
316.5120, 351.8457
317.7240, 326.3828
318.9350, 248.9453
320.1460, 269.5332
321.3570, 112.1465
322.5680, 2.215820
323.7790, 82.44629
324.9890, 119.1328
326.1990, 30.15723
327.4090, 23.41992
328.6190, 42.65820
329.8290, 76.87207
331.0380, 107.0625
332.2480, 71.22852
333.4570, 111.3701
334.6660, 139.4863
335.8740, 128.5801
337.0830, 175.6475
338.2910, 71.69336
339.5000, 14.27051
340.7080, 159.7568
341.9150, 9.817383
343.1230, 12.94629
344.3300, 2.190430
345.5380, 20.43652
346.7450, 130.0977
347.9520, 1.712891
349.1580, 147.4072
350.3650, 42.10059
351.5710, 19.19336
352.7770, 61.57324
353.9830, 23.62402
355.1890, 60.18262
356.3940, 31.18945
357.6000, 53.61133
358.8050, 21.65820
360.0100, 40.34277
361.2150, 17.62305
362.4190, 8.833008
363.6240, 70.33984
364.8280, 101.9316
366.0320, 257.5918
367.2360, 266.3076
368.4400, 381.0684
369.6430, 409.8652
370.8460, 485.6914
372.0500, 523.5410
373.2530, 628.4043
374.4550, 706.2744
375.6580, 803.0273
376.8600, 951.0186
378.0620, 1047.885
379.2650, 1202.748
380.4660, 1390.605
381.6680, 1481.458
382.8690, 1659.685
384.0710, 1732.146
385.2720, 1936.979
386.4730, 2146.817
387.6730, 2232.642
388.8740, 2390.471
390.0740, 2335.297
391.2740, 2499.137
392.4740, 2537.948
393.6740, 2321.779
394.8740, 2392.621
396.0730, 2330.442
397.2730, 2329.277
398.4720, 2175.099
399.6700, 2100.942
400.8690, 2013.784
402.0680, 1892.621
403.2660, 1813.989
404.4640, 1751.321
405.6620, 1668.172
406.8600, 1568.012
408.0570, 1586.858
409.2550, 1336.718
410.4520, 1463.604
411.6490, 1476.493
412.8460, 1566.379
414.0430, 1322.232
415.2390, 1281.977
416.4350, 1435.580
417.6310, 1328.004
418.8270, 1385.249
420.0230, 1311.455
421.2190, 1436.598
422.4140, 1414.764
423.6090, 1404.887
424.8040, 1409.965
425.9990, 1547.025
427.1940, 1426.078
428.3880, 1504.114
429.5820, 1511.126
430.7760, 1716.153
431.9700, 1794.198
433.1640, 1936.263
434.3580, 1782.346
435.5510, 2150.447
436.7440, 2073.564
437.9370, 2269.700
439.1300, 2197.852
440.3230, 2386.020
441.5150, 2552.202
442.7070, 2653.399
443.8990, 2907.611
445.0910, 3074.017
446.2830, 3411.075
447.4750, 3538.326
448.6660, 3712.590
449.8570, 4038.245
451.0480, 4356.253
452.2390, 4803.451
453.4290, 5244.760
454.6200, 5669.078
455.8100, 6270.408
457.0000, 6796.748
458.1900, 7320.098
459.3800, 8132.455
460.5690, 9073.823
461.7590, 9984.200
462.9480, 11529.58
464.1370, 13011.98
465.3260, 14789.27
466.5140, 17000.39
467.7030, 19729.59
468.8910, 23007.96
470.0790, 27095.57
471.2670, 31918.69
472.4550, 37213.67
473.6420, 42765.60
474.8300, 48225.70
476.0170, 52072.13
477.2040, 53758.11
478.3900, 53837.41
479.5770, 51307.46
480.7640, 47148.63
481.9500, 41909.40
483.1360, 37158.36
484.3220, 32081.76
485.5080, 27958.62
486.6930, 24521.36
487.8780, 21232.85
489.0640, 18943.01
490.2490, 16844.64
491.4330, 15059.41
492.6180, 13563.13
493.8030, 12152.54
494.9870, 11275.84
496.1710, 10446.21
497.3550, 9469.559
498.5390, 8782.194
499.7220, 8221.602
500.9060, 7595.737
502.0890, 7159.924
503.2720, 6551.397
504.4550, 6082.781
505.6370, 5794.131
506.8200, 5325.742
508.0020, 5177.386
509.1840, 4936.029
510.3660, 4539.672
511.5480, 4278.312
512.7290, 4097.951
513.9110, 3844.107
515.0920, 3734.191
516.2730, 3585.493
517.4540, 3400.131
518.6350, 3068.206
519.8150, 2925.669
520.9960, 2707.841
522.1760, 2486.770
523.3560, 2371.335
524.5350, 2022.194
525.7150, 1927.320
526.8950, 1959.778
528.0740, 1716.703
529.2530, 1778.254
530.4320, 1725.027
531.6100, 1648.430
532.7890, 1632.435
533.9670, 1547.289
535.1460, 1496.717
536.3240, 1408.154
537.5010, 1358.534
538.6790, 1277.351
539.8570, 1248.427
541.0340, 1100.578
542.2110, 933.3096
543.3880, 1061.832
544.5650, 1204.034
545.7410, 988.7471
546.9180, 917.6836
548.0940, 911.7090
549.2700, 858.1348
550.4460, 836.8770
551.6210, 690.0693
552.7970, 845.3984
553.9720, 645.0117
555.1480, 741.5615
556.3230, 775.8330
557.4970, 790.3125
558.6720, 725.2656
559.8460, 675.1777
561.0210, 783.0400
562.1950, 682.6533
563.3690, 512.7314
564.5420, 665.8984
565.7160, 632.5508
566.8890, 496.3984
568.0630, 667.8701
569.2360, 626.6875
570.4090, 572.0078
571.5810, 705.6348
572.7540, 716.2549
573.9260, 662.7246
575.0980, 461.1221
576.2700, 487.4160
577.4420, 463.7305
578.6140, 549.9805
579.7850, 525.3242
580.9560, 575.7080
582.1270, 585.7041
583.2980, 452.1543
584.4690, 539.2520
585.6400, 524.4238
586.8100, 378.4912
587.9800, 419.5459
589.1500, 500.5840
590.3200, 406.6084
591.4900, 430.6172
592.6590, 514.6113
593.8290, 340.5889
594.9980, 344.5508
596.1670, 418.4961
597.3360, 513.4258
598.5040, 496.3389
599.6730, 545.2363
600.8410, 509.9072
602.0090, 529.9814
603.1770, 438.8291
604.3450, 353.6602
605.5130, 379.4736
606.6800, 448.2695
607.8470, 404.0605
609.0140, 389.8350
610.1810, 332.5928
611.3480, 306.3496
612.5140, 303.1055
613.6810, 346.8633
614.8470, 397.6328
616.0130, 363.4219
617.1790, 292.2197
618.3440, 289.0342
619.5100, 333.7070
620.6750, 415.7422
621.8400, 511.6416
623.0050, 632.5498
624.1700, 797.4404
625.3350, 738.3613
626.4990, 865.2715
627.6640, 692.1719
628.8280, 519.0596
629.9920, 550.9297
631.1550, 484.8184
632.3190, 394.6934
633.4820, 482.5908
634.6460, 340.4844
635.8090, 254.3594
636.9710, 367.2334
638.1340, 266.0879
639.2970, 430.9414
640.4590, 257.7744
641.6210, 369.6035
642.7830, 408.4209
643.9450, 459.2178
645.1070, 372.9932
646.2680, 400.7510
647.4300, 509.4863
648.5910, 367.2002
649.7520, 567.8945
650.9130, 407.5674
652.0730, 532.2178
653.2340, 409.8467
654.3940, 344.4531
655.5540, 436.0381
656.7140, 278.6016
657.8740, 210.1436
659.0330, 236.6611
660.1930, 57.15820
661.3520, 106.6289
662.5110, 95.07422
663.6700, 108.4932
664.8290, 84.88672
665.9870, 44.41309
667.1460, 47.36914
668.3040, 25.08203
669.4620, 123.8555
670.6200, 85.74316
671.7770, 174.7129
672.9350, 3.191406
674.0920, 180.9492
675.2500, 117.2334
676.4070, 4.627930
677.5630, 107.0703
678.7200, 0.3828130
679.8770, 128.1846
681.0330, 25.86719
682.1890, 6.613281
683.3450, 17.41211
684.5010, 105.2686
685.6560, 103.7715
686.8120, 79.78418
687.9670, 21.23145
689.1220, 42.30566
690.2770, 81.45215
691.4320, 115.6895
692.5870, 30.98535
693.7410, 167.3750
694.8950, 3.871094
696.0490, 8.583008
697.2030, 18.99316
698.3570, 62.63574
699.5110, 14.34570
700.6640, 138.1123
701.8170, 113.9990
702.9700, 67.99316
704.1230, 92.07129
705.2760, 68.75391
706.4290, 10.44727
707.5810, 67.30762
708.7330, 30.03516
709.8850, 102.7295
711.0370, 100.3994
712.1890, 132.0449
713.3400, 144.6660
714.4920, 165.2637
715.6430, 156.0186
716.7940, 166.3926
717.9450, 139.9238
719.0960, 125.4336
720.2460, 148.9189
721.3960, 164.3828
722.5470, 213.8242
723.6970, 157.2451
724.8460, 335.6455
725.9960, 374.0264
727.1460, 292.3857
728.2950, 424.7266
729.4440, 385.0449
730.5930, 284.3447
731.7420, 221.6240
732.8910, 435.8848
734.0390, 287.1250
735.1870, 460.3467
736.3360, 532.5498
737.4840, 469.7324
738.6310, 602.8984
739.7790, 454.0430
740.9260, 460.1709
742.0740, 590.2793
743.2210, 489.3701
744.3680, 492.4414
745.5150, 552.4951
746.6610, 654.5312
747.8080, 615.5498
748.9540, 623.5498
750.1000, 562.5322
751.2460, 710.4971
752.3920, 708.4443
753.5380, 721.3750
754.6830, 819.2871
755.8280, 737.1836
756.9730, 945.0625
758.1180, 1129.924
759.2630, 987.7666
760.4080, 1187.593
761.5520, 1297.400
762.6960, 1300.192
763.8410, 1496.967
764.9840, 1413.724
766.1280, 1537.464
767.2720, 1726.185
768.4150, 1887.891
769.5590, 1857.580
770.7020, 2200.252
771.8450, 2412.907
772.9870, 2739.545
774.1300, 2781.167
775.2720, 3358.772
776.4150, 3678.360
777.5570, 4130.934
778.6990, 4985.488
779.8400, 5464.029
780.9820, 6333.554
782.1230, 6916.062
783.2650, 7830.165
784.4060, 8745.361
785.5470, 9580.492
786.6870, 10636.94
787.8280, 11227.37
788.9680, 11974.79
790.1090, 12424.19
791.2490, 12668.58
792.3890, 12541.95
793.5280, 12421.31
794.6680, 11773.65
795.8070, 11214.98
796.9470, 10466.30
798.0860, 9398.072
799.2250, 8708.941
800.3630, 7907.988
801.5020, 7267.836
802.6410, 6714.168
803.7790, 6083.649
804.9170, 5827.553
806.0550, 5230.816
807.1930, 4857.838
808.3300, 4542.084
809.4680, 3884.014
810.6050, 3598.911
811.7420, 3340.225
812.8790, 3157.508
814.0160, 2764.262
815.1520, 2737.142
816.2890, 2447.048
817.4250, 2367.564
818.5610, 2430.487
819.6970, 2258.605
820.8330, 2173.033
821.9680, 2082.934
823.1040, 2169.598
824.2390, 2183.160
825.3740, 2123.311
826.5090, 1990.133
827.6440, 1961.492
828.7790, 1742.648
829.9130, 1904.562
831.0470, 1895.525
832.1810, 1895.131
833.3150, 1780.141
834.4490, 1872.667
835.5830, 1627.226
836.7160, 1644.822
837.8500, 1760.662
838.9830, 1627.029
840.1160, 1739.301
841.2480, 1659.079
842.3810, 1734.655
843.5140, 1739.459
844.6460, 1743.053
845.7780, 1889.137
846.9100, 1989.908
848.0420, 1920.680
849.1740, 2059.596
850.3050, 2137.577
851.4360, 2349.658
852.5680, 2475.712
853.6990, 2729.820
854.8290, 2793.832
855.9600, 3061.811
857.0910, 3369.901
858.2210, 3758.080
859.3510, 4007.336
860.4810, 4160.512
861.6110, 4276.783
862.7410, 4560.062
863.8700, 4899.352
865.0000, 4881.648
866.1290, 5090.954
867.2580, 5179.289
868.3870, 5333.666
869.5150, 5504.071
870.6440, 5822.482
871.7720, 6120.178
872.9000, 6441.342
874.0290, 6896.787
875.1560, 7218.246
876.2840, 7663.716
877.4120, 8122.197
878.5390, 8833.688
879.6660, 9018.203
880.7930, 9464.759
881.9200, 9777.325
883.0470, 9857.902
884.1740, 9775.490
885.3000, 9556.090
886.4260, 8862.729
887.5530, 8547.380
888.6780, 7751.049
889.8040, 7195.764
890.9300, 6538.498
892.0550, 5781.258
893.1810, 4948.027
894.3060, 4459.816
895.4310, 3974.617
896.5560, 3604.428
897.6800, 2977.279
898.8050, 2706.142
899.9290, 2369.016
901.0530, 2182.904
902.1770, 1873.811
903.3010, 1714.730
904.4250, 1450.665
905.5480, 1429.621
906.6720, 1225.590
907.7950, 1095.572
908.9180, 840.5664
910.0410, 923.5781
911.1630, 850.6016
912.2860, 785.6396
913.4080, 525.6924
914.5300, 430.7578
915.6530, 561.8369
916.7740, 410.9600
917.8960, 459.0977
919.0180, 366.2480
920.1390, 323.2646
921.2600, 468.5977
922.3820, 341.7949
923.5020, 35.00879
924.6230, 234.2363
925.7440, 100.4785
926.8640, 154.7666
927.9850, 296.0693
929.1050, 51.39844
930.2250, 30.75586
931.3450, 160.1289
932.4640, 10.44238
933.5840, 55.04004
934.7030, 15.44336
935.8220, 65.08496
936.9410, 141.3545
938.0600, 5.816406
939.1790, 196.7549
940.2970, 40.36719
941.4160, 39.01367
942.5340, 73.27832
943.6520, 107.5361
944.7700, 55.25195
945.8870, 96.07520
947.0050, 115.9863
948.1220, 24.04492
949.2400, 38.95020
950.3570, 176.9990
951.4740, 81.02539
952.5900, 104.1094
953.7070, 139.2295
954.8240, 19.38086
955.9400, 92.56641
957.0560, 111.8076
958.1720, 115.0654
959.2880, 19.34277
960.4030, 26.65625
961.5190, 217.0098
962.6340, 146.5879
963.7490, 94.83105
964.8640, 10.26953
965.9790, 21.21875
967.0940, 91.31836
968.2080, 278.8818
969.3230, 45.46777
970.4370, 218.1172
971.5510, 177.7988
972.6650, 279.5439
973.7790, 31.34766
974.8920, 105.1973
976.0060, 207.0977
977.1190, 69.98438
978.2320, 240.9453
979.3450, 84.89258
980.4580, 303.8584
981.5710, 227.8418
982.6830, 335.8398
983.7950, 266.8545
984.9080, 298.0020
986.0200, 303.9248
987.1310, 323.9814
988.2430, 299.0527
989.3550, 293.2295
990.4660, 389.3281
991.5770, 272.5713
992.6880, 248.7070
993.7990, 185.8477
994.9100, 401.0000
996.0200, 416.1660
997.1310, 468.3447
998.2410, 599.6592
999.3510, 674.8623
1000.461, 756.6621
1001.571, 815.0137
1002.681, 918.3955
1003.790, 883.6455
1004.899, 756.2168
1006.009, 664.6045
1007.118, 796.8926
1008.226, 598.9805
1009.335, 647.7197
1010.444, 632.0332
1011.552, 573.4980
1012.660, 591.2939
1013.768, 607.6611
1014.876, 657.2051
1015.984, 587.4434
1017.092, 631.8662
1018.199, 653.4053
1019.306, 701.5439
1020.413, 749.9395
1021.520, 759.5508
1022.627, 789.4912
1023.734, 793.2832
1024.840, 796.3945
1025.947, 796.8281
1027.053, 779.7666
1028.159, 854.9111
1029.265, 695.4561
1030.370, 695.6641
1031.476, 648.1289
1032.581, 740.5996
1033.687, 843.0762
1034.792, 606.1318
1035.897, 822.7119
1037.002, 636.4443
1038.106, 609.8340
1039.211, 581.4189
1040.315, 643.9238
1041.419, 615.4336
1042.523, 610.3604
1043.627, 598.0439
1044.731, 615.5947
1045.834, 554.3281
1046.938, 512.8574
1048.041, 533.3906
1049.144, 617.8350
1050.247, 570.5244
1051.349, 491.9443
1052.452, 556.7832
1053.555, 509.8389
1054.657, 530.5674
1055.759, 606.4092
1056.861, 522.8096
1057.963, 524.4746
1059.064, 421.4326
1060.166, 392.9902
1061.267, 341.3311
1062.368, 183.6416
1063.470, 240.2773
1064.570, 360.4990
1065.671, 321.2227
1066.772, 242.1221
1067.872, 466.4355
1068.972, 463.2354
1070.073, 435.4180
1071.173, 243.6543
1072.272, 361.2031
1073.372, 194.0586
1074.472, 251.9131
1075.571, 387.0635
1076.670, 423.4756
1077.769, 302.0352
1078.868, 442.9609
1079.967, 460.4854
1081.065, 315.7734
1082.164, 570.2891
1083.262, 480.5000
1084.360, 257.0039
1085.458, 401.6309
1086.556, 373.1240
1087.654, 316.9111
1088.751, 562.3936
1089.848, 517.8691
1090.946, 498.6660
1092.043, 360.5869
1093.139, 359.0430
1094.236, 354.5869
1095.333, 239.0762
1096.429, 214.5947
1097.525, 319.0557
1098.622, 364.0967
1099.718, 155.6475
1100.813, 293.0479
1101.909, 319.6074
1103.005, 238.9893
1104.100, 315.5859
1105.195, 219.9473
1106.290, 351.2998
1107.385, 192.6416
1108.480, 279.9727
1109.574, 210.4463
1110.669, 245.7559
1111.763, 410.0547
1112.857, 185.3408
1113.951, 108.6162
1115.045, 398.8799
1116.139, 90.13281
1117.232, 131.3730
1118.326, 116.6016
1119.419, 168.8203
1120.512, 30.97461
1121.605, 136.1914
1122.697, 14.65527
1123.790, 64.46387
1124.883, 331.5723
1125.975, 175.6670
1127.067, 155.7500
1128.159, 100.8203
1129.251, 44.87695
1130.342, 78.92090
1131.434, 50.04883
1132.525, 90.07324
1133.617, 42.17285
1134.708, 207.6777
1135.799, 26.51465
1136.889, 56.33398
1137.980, 84.13770
1139.071, 14.92773
1140.161, 24.69727
1141.251, 106.4453
1142.341, 57.18164
1143.431, 12.09766
1144.521, 84.41602
1145.610, 82.19141
1146.700, 91.78320
1147.789, 46.36133
1148.878, 185.9219
1149.967, 78.53125
1151.056, 116.9414
1152.144, 23.39844
1153.233, 107.1660
1154.321, 1.181641
1155.409, 12.50391
1156.498, 118.7676
1157.585, 13.02539
1158.673, 108.2598
1159.761, 86.47461
1160.848, 60.32422
1161.936, 154.8105
1163.023, 161.9277
1164.110, 160.0312
1165.197, 7.119141
1166.283, 91.17578
1167.370, 57.21484
1168.456, 2.128906
1169.542, 96.20508
1170.629, 151.5254
1171.714, 170.1230
1172.800, 42.17188
1173.886, 103.4297
1174.971, 88.82227
1176.057, 71.10742
1177.142, 158.9336
1178.227, 133.5156
1179.312, 76.65039
1180.397, 125.1074
1181.481, 116.8477
1182.566, 55.57227
1183.650, 41.27930
1184.734, 82.96289
1185.818, 57.62891
1186.902, 113.2754
1187.986, 167.9043
1189.069, 82.48242
1190.153, 257.0488
1191.236, 10.43359
1192.319, 9.958984
1193.402, 111.4727
1194.485, 120.1133
1195.567, 114.7988
1196.650, 19.58008
1197.732, 159.5918
1198.814, 18.25195
1199.896, 76.86133
1200.978, 27.02539
1202.060, 183.0371
1203.142, 60.08398
1204.223, 60.10938
1205.304, 46.11914
1206.386, 122.1133
1207.467, 0.1074220
1208.547, 5.937500
1209.628, 185.9805
1210.709, 86.88086
1211.789, 231.7676
1212.869, 151.6367
1213.950, 239.5156
1215.030, 102.3809
1216.109, 153.2266
1217.189, 62.05664
1218.269, 164.8672
1219.348, 174.6602
1220.427, 85.43945
1221.506, 38.19922
1222.585, 181.9375
1223.664, 109.6582
1224.743, 189.3633
1225.821, 112.0742
1226.899, 123.7676
1227.978, 138.4453
1229.056, 98.10742
1230.134, 246.7539
1231.211, 37.61523
1232.289, 166.9629
1233.366, 78.52344
1234.444, 276.0684
1235.521, 160.5957
1236.598, 266.1094
1237.675, 352.6172
1238.751, 128.1113
1239.828, 265.6016
1240.904, 244.0762
1241.981, 221.8867
1243.057, 512.9805
1244.133, 188.4082
1245.209, 480.8398
1246.284, 332.2754
1247.360, 340.7266
1248.435, 337.1641
1249.510, 286.5840
1250.585, 325.9004
1251.660, 329.5547
1252.735, 345.5430
1253.810, 386.9043
1254.884, 375.2598
1255.959, 403.6016
1257.033, 381.9375
1258.107, 405.2598
1259.181, 431.4453
1260.255, 381.7383
1261.328, 373.4395
1262.402, 371.5840
1263.475, 387.6992
1264.548, 560.9434
1265.621, 419.8672
1266.694, 581.9727
1267.767, 466.1758
1268.840, 577.5781
1269.912, 457.3281
1270.984, 491.5039
1272.056, 385.5254
1273.129, 516.2148
1274.200, 533.3320
1275.272, 515.4121
1276.344, 439.5156
1277.415, 282.4160
1278.486, 122.5176
1279.558, 197.8594
1280.629, 290.9395
1281.699, 382.3125
1282.770, 277.7773
1283.841, 455.0156
1284.911, 360.3711
1285.981, 349.4043
1287.051, 351.2305
1288.121, 367.2461
1289.191, 398.9082
1290.261, 655.4062
1291.330, 501.3906
1292.400, 513.3691
1293.469, 604.3398
1294.538, 470.7266
1295.607, 625.5859
1296.676, 634.2891
1297.745, 507.3301
1298.813, 385.1738
1299.881, 513.0938
1300.950, 422.0020
1302.018, 448.4941
1303.086, 688.3262
1304.154, 452.0820
1305.221, 582.7559
1306.289, 649.6289
1307.356, 610.4941
1308.423, 585.4512
1309.490, 667.3086
1310.557, 673.1309
1311.624, 556.6816
1312.691, 696.0078
1313.757, 533.6582
1314.823, 658.1914
1315.890, 465.9531
1316.956, 583.7617
1318.022, 471.2656
1319.087, 823.0645
1320.153, 512.0801
1321.219, 592.1211
1322.284, 397.8340
1323.349, 601.9570
1324.414, 265.4160
1325.479, 689.8535
1326.544, 473.6113
1327.608, 696.1621
1328.673, 364.7109
1329.737, 216.7031
1330.801, 376.4766
1331.865, 236.9395
1332.929, 231.3984
1333.993, 297.6953
1335.057, 293.4258
1336.120, 384.1699
1337.183, 504.5469
1338.247, 426.3184
1339.310, 446.9023
1340.373, 211.6738
1341.435, 378.4492
1342.498, 385.2246
1343.560, 352.8730
1344.623, 546.6504
1345.685, 285.1309
1346.747, 321.9102
1347.809, 369.6895
1348.871, 207.2715
1349.932, 222.4629
1350.994, 391.2480
1352.055, 162.9395
1353.116, 181.7246
1354.177, 150.4297
1355.238, 98.04297
1356.299, 132.1895
1357.359, 119.6309
1358.420, 217.4297
1359.480, 268.0625
1360.540, 264.7871
1361.600, 357.4512
1362.660, 271.2617
1363.720, 282.0781
1364.780, 282.5254
1365.839, 276.3477
1366.898, 264.7910
1367.958, 346.6953
1369.017, 264.5312
1370.076, 300.3730
1371.134, 487.2188
1372.193, 285.8652
1373.251, 186.2891
1374.310, 384.2441
1375.368, 200.1133
1376.426, 408.0547
1377.484, 354.9336
1378.542, 295.8340
1379.599, 311.9004
1380.657, 372.6484
1381.714, 419.7070
1382.771, 215.6465
1383.828, 496.3770
1384.885, 223.3340
1385.942, 194.3008
1386.999, 229.2715
1388.055, 356.2559
1389.111, 246.2676
1390.168, 303.3223
1391.224, 268.4004
1392.280, 283.5586
1393.335, 384.6621
1394.391, 273.7773
1395.446, 192.9004
1396.502, 246.0410
1397.557, 68.19336
1398.612, 28.35938
1399.667, 310.5371
1400.722, 289.7422
1401.776, 197.9863
1402.831, 251.2051
1403.885, 182.4258
1404.939, 209.2734
1405.994, 299.8945
1407.048, 208.9258
1408.101, 324.9590
1409.155, 218.0000
1410.209, 85.06250
1411.262, 145.1348
1412.315, 159.1816
1413.368, 138.2285
1414.421, 133.3906
1415.474, 184.9121
1416.527, 272.4902
1417.579, 283.5566
1418.632, 159.6191
1419.684, 169.6992
1420.736, 99.73828
1421.788, 19.77539
1422.840, 20.79688
1423.891, 183.8184
1424.943, 188.8477
1425.994, 156.8770
1427.046, 245.9062
1428.097, 111.9375
1429.148, 393.9746
1430.199, 249.0176
1431.249, 398.0703
1432.300, 423.1387
1433.350, 279.2266
1434.401, 479.4785
1435.451, 505.6504
1436.501, 504.8652
1437.551, 462.7422
1438.601, 541.7988
1439.650, 829.4082
1440.700, 665.5254
1441.749, 747.6816
1442.798, 794.8867
1443.847, 684.1426
1444.896, 709.5312
1445.945, 760.0078
1446.993, 817.5215
1448.042, 898.0898
1449.090, 951.4648
1450.138, 974.2812
1451.187, 1067.998
1452.234, 1070.621
1453.282, 1100.322
1454.330, 1043.039
1455.377, 967.7773
1456.425, 1057.531
1457.472, 1087.311
1458.519, 897.1113
1459.566, 919.9336
1460.613, 871.7754
1461.660, 707.6367
1462.706, 703.5664
1463.752, 695.5195
1464.799, 601.4805
1465.845, 603.4453
1466.891, 459.4277
1467.937, 376.4355
1468.982, 500.3945
1470.028, 522.2676
1471.073, 442.1641
1472.119, 501.0781
1473.164, 347.0000
1474.209, 343.9297
1475.254, 305.8711
1476.299, 282.8320
1477.343, 304.8145
1478.388, 216.8125
1479.432, 393.8320
1480.476, 325.8691
1481.520, 183.9297
1482.564, 466.0078
1483.608, 267.1035
1484.651, 230.2188
1485.695, 173.3535
1486.738, 132.5176
1487.782, 188.7051
1488.825, 188.9219
1489.868, 46.83398
1490.910, 124.4375
1491.953, 12.25586
1492.996, 38.08008
1494.038, 243.4492
1495.080, 97.85547
1496.122, 139.3008
1497.164, 60.21875
1498.206, 71.69922
1499.248, 111.1465
1500.290, 123.4355
1501.331, 52.06445
1502.372, 195.7461
1503.413, 103.4766
1504.455, 35.25195
1505.495, 5.931641
1506.536, 46.92188
1507.577, 99.81641
1508.617, 18.24609
1509.658, 142.7305
1510.698, 87.74805
1511.738, 97.80469
1512.778, 262.9043
1513.818, 186.0449
1514.857, 116.2266
1515.897, 197.4531
1516.936, 80.72656
1517.975, 263.0527
1519.015, 233.4336
1520.054, 186.8750
1521.092, 166.3750
1522.131, 209.9375
1523.170, 144.5664
1524.208, 345.2598
1525.246, 337.0273
1526.285, 345.8691
1527.323, 164.6777
1528.361, 377.9004
1529.398, 106.6133
1530.436, 156.9902
1531.473, 198.6758
1532.511, 167.2617
1533.548, 319.0234
1534.585, 190.4258
1535.622, 383.2598
1536.659, 190.1309
1537.695, 518.8340
1538.732, 42.30273
1539.768, 309.4980
1540.805, 171.9941
1541.841, 100.4648
1542.877, 253.4824
1543.913, 57.94922
1544.948, 176.7617
1545.984, 180.4590
1547.019, 197.4902
1548.055, 221.5020
1549.090, 238.1758
1550.125, 179.5898
1551.160, 266.3086
1552.195, 193.1055
1553.229, 165.1191
1554.264, 183.2363
1555.298, 307.6484
1556.332, 363.8027
1557.366, 245.7715
1558.400, 4.099609
1559.434, 241.6211
1560.468, 206.2246
1561.502, 88.38867
1562.535, 0.0000000E+00
##END=



