##NAMES=Pharmacosiderite
##RRUFFID=R050574
##IDEAL CHEMISTRY=KFe^3+^_4_(As^5+^O_4_)_3_(OH)_4_&#183;6-7H_2_O
##LOCALITY=Cornwall, England
##OWNER=RRUFF
##SOURCE=University of Arizona Mineral Museum
##DESCRIPTION=Druse of bluish-green cubes
##STATUS=The identification of this mineral is confirmed by single-crystal X-ray diffraction and chemical analysis.
##URL=rruff.info/R050574
##MEASURED CHEMISTRY=K_1.27_(Fe^3+^_3.73_Fe^2+^_0.27_)_Σ=4_(As_1.00_O_4_)_3_(OH)_4_·6H_2_O
##PIN_ID=M00719
##ORIENTATION=Laser parallel to a* (1 0 0). Fiducial mark perpendicular to laser is parallel to c [0 0 1]
210.3780, 0.0000000E+00
211.6060, 37.62891
212.8340, 0.6132810
214.0620, 11.45020
215.2900, 71.01465
216.5170, 28.19238
217.7440, 14.10840
218.9710, 98.53418
220.1980, 17.68652
221.4250, 90.18164
222.6510, 192.8584
223.8770, 365.1123
225.1040, 334.0098
226.3290, 365.8008
227.5550, 474.3770
228.7810, 548.5713
230.0060, 516.1611
231.2310, 730.9551
232.4560, 768.8193
233.6810, 810.6670
234.9050, 942.4404
236.1290, 1124.103
237.3540, 1231.665
238.5770, 1255.284
239.8010, 1337.797
241.0250, 1448.461
242.2480, 1434.903
243.4710, 1453.734
244.6940, 1464.676
245.9170, 1457.315
247.1400, 1425.499
248.3620, 1266.212
249.5840, 1218.369
250.8060, 1197.019
252.0280, 1349.207
253.2500, 1484.979
254.4710, 1530.376
255.6920, 1541.436
256.9140, 1746.187
258.1340, 1880.659
259.3550, 2001.877
260.5760, 2207.861
261.7960, 2142.634
263.0160, 2147.498
264.2360, 2075.795
265.4560, 2232.175
266.6750, 2113.555
267.8940, 2112.062
269.1140, 2112.419
270.3330, 1974.334
271.5510, 1901.804
272.7700, 1916.488
273.9880, 1740.258
275.2070, 1631.230
276.4250, 1676.681
277.6420, 1722.063
278.8600, 1719.758
280.0770, 1697.032
281.2950, 1729.990
282.5120, 1775.287
283.7290, 1727.520
284.9450, 1787.752
286.1620, 1791.757
287.3780, 1580.277
288.5940, 1416.556
289.8100, 1337.833
291.0260, 1259.083
292.2410, 1031.396
293.4570, 906.7695
294.6720, 978.2002
295.8870, 783.6855
297.1010, 872.2246
298.3160, 762.8125
299.5300, 596.4473
300.7450, 650.1230
301.9590, 587.8408
303.1730, 714.5977
304.3860, 605.3906
305.6000, 587.2207
306.8130, 465.0850
308.0260, 493.9834
309.2390, 386.9160
310.4510, 400.8789
311.6640, 246.8721
312.8760, 215.8916
314.0880, 179.9316
315.3000, 112.9941
316.5120, 201.0771
317.7240, 59.17773
318.9350, 59.70410
320.1460, 0.5703130
321.3570, 89.58301
322.5680, 63.24707
323.7790, 45.05859
324.9890, 79.85254
326.1990, 152.6270
327.4090, 28.38379
328.6190, 119.1211
329.8290, 34.16016
331.0380, 12.54004
332.2480, 61.77637
333.4570, 9.886719
334.6660, 50.46680
335.8740, 35.16309
337.0830, 57.22363
338.2910, 14.43750
339.5000, 81.11914
340.7080, 28.88281
341.9150, 34.77539
343.1230, 58.70312
344.3300, 22.28809
345.5380, 69.67383
346.7450, 9.643555
347.9520, 33.36523
349.1580, 15.33496
350.3650, 101.2754
351.5710, 27.80762
352.7770, 6.874023
353.9830, 84.07617
355.1890, 45.96289
356.3940, 17.98242
357.6000, 23.68164
358.8050, 0.1367190
360.0100, 118.7686
361.2150, 157.3535
362.4190, 24.97852
363.6240, 94.61035
364.8280, 61.30078
366.0320, 106.0850
367.2360, 66.80859
368.4400, 175.5430
369.6430, 224.2861
370.8460, 145.0322
372.0500, 246.7783
373.2530, 352.5215
374.4550, 414.2559
375.6580, 377.9834
376.8600, 494.6992
378.0620, 402.4062
379.2650, 467.1035
380.4660, 592.7900
381.6680, 516.4678
382.8690, 641.6133
384.0710, 690.8447
385.2720, 779.4414
386.4730, 828.0566
387.6730, 887.6484
388.8740, 939.2129
390.0740, 1036.750
391.2740, 952.2666
392.4740, 1010.792
393.6740, 1080.294
394.8740, 874.8066
396.0730, 1020.302
397.2730, 927.8184
398.4720, 852.3232
399.6700, 872.8291
400.8690, 793.3359
402.0680, 706.8369
403.2660, 567.3545
404.4640, 590.8662
405.6620, 733.3740
406.8600, 643.7900
408.0570, 645.8809
409.2550, 660.9375
410.4520, 521.4375
411.6490, 578.9014
412.8460, 525.2734
414.0430, 460.5391
415.2390, 616.7402
416.4350, 521.9688
417.6310, 579.2021
418.8270, 680.4404
420.0230, 536.6416
421.2190, 547.8369
422.4140, 588.0166
423.6090, 566.3311
424.8040, 725.3057
425.9990, 669.4570
427.1940, 770.6348
428.3880, 891.8008
429.5820, 833.9785
430.7760, 911.1855
431.9700, 973.4248
433.1640, 972.6738
434.3580, 1091.938
435.5510, 1148.218
436.7440, 1200.511
437.9370, 1361.824
439.1300, 1493.150
440.3230, 1505.484
441.5150, 1586.830
442.7070, 1747.186
443.8990, 1846.553
445.0910, 1990.929
446.2830, 2179.314
447.4750, 2333.311
448.6660, 2505.115
449.8570, 2726.528
451.0480, 3002.949
452.2390, 3250.379
453.4290, 3518.816
454.6200, 4013.261
455.8100, 4075.714
457.0000, 4576.174
458.1900, 5038.641
459.3800, 5650.010
460.5690, 6297.489
461.7590, 6986.639
462.9480, 7759.592
464.1370, 8919.330
465.3260, 10348.67
466.5140, 11890.61
467.7030, 13808.77
468.8910, 16028.80
470.0790, 18733.34
471.2670, 21843.75
472.4550, 25251.52
473.6420, 28639.66
474.8300, 31894.25
476.0170, 34639.58
477.2040, 36081.47
478.3900, 36229.80
479.5770, 34645.21
480.7640, 31827.57
481.9500, 28837.41
483.1360, 25400.12
484.3220, 22128.18
485.5080, 18951.93
486.6930, 16511.25
487.8780, 14338.53
489.0640, 12606.29
490.2490, 11160.89
491.4330, 9916.275
492.6180, 9234.578
493.8030, 8092.230
494.9870, 7401.965
496.1710, 6726.984
497.3550, 6226.646
498.5390, 5589.443
499.7220, 5363.844
500.9060, 5071.270
502.0890, 4673.545
503.2720, 4407.593
504.4550, 4050.901
505.6370, 3736.342
506.8200, 3594.019
508.0020, 3223.613
509.1840, 2936.293
510.3660, 2875.919
511.5480, 2794.594
512.7290, 2420.268
513.9110, 2309.939
515.0920, 2281.610
516.2730, 2082.277
517.4540, 2010.943
518.6350, 1878.606
519.8150, 1748.357
520.9960, 1708.044
522.1760, 1655.700
523.3560, 1457.627
524.5350, 1349.392
525.7150, 1253.618
526.8950, 1167.427
528.0740, 1083.018
529.2530, 1082.278
530.4320, 948.3574
531.6100, 936.6689
532.7890, 907.7451
533.9670, 851.2080
535.1460, 923.2139
536.3240, 803.4209
537.5010, 665.4238
538.6790, 890.3887
539.8570, 748.7246
541.0340, 682.4863
542.2110, 661.2578
543.3880, 672.8906
544.5650, 587.6953
545.7410, 587.6729
546.9180, 406.7461
548.0940, 563.9277
549.2700, 396.9844
550.4460, 443.3135
551.6210, 307.3809
552.7970, 366.8301
553.9720, 481.7451
555.1480, 300.9590
556.3230, 326.5156
557.4970, 352.1875
558.6720, 385.8818
559.8460, 317.4492
561.0210, 399.4395
562.1950, 450.9951
563.3690, 393.0850
564.5420, 291.8369
565.7160, 337.8574
566.8890, 299.9121
568.0630, 301.9434
569.2360, 282.1650
570.4090, 272.9834
571.5810, 280.9521
572.7540, 282.1953
573.9260, 313.9375
575.0980, 345.6924
576.2700, 399.8955
577.4420, 343.6895
578.6140, 269.9902
579.7850, 296.5254
580.9560, 305.8721
582.1270, 359.2148
583.2980, 486.5381
584.4690, 332.1309
585.6400, 392.4316
586.8100, 537.9570
587.9800, 475.2324
589.1500, 402.4971
590.3200, 340.8662
591.4900, 325.1055
592.6590, 255.3320
593.8290, 375.5459
594.9980, 376.7471
596.1670, 360.9355
597.3360, 347.1113
598.5040, 306.2725
599.6730, 469.4219
600.8410, 391.5566
602.0090, 564.6797
603.1770, 428.7891
604.3450, 376.9102
605.5130, 440.0244
606.6800, 285.1260
607.8470, 200.2373
609.0140, 347.3545
610.1810, 385.4854
611.3480, 352.6494
612.5140, 359.8125
613.6810, 395.9990
614.8470, 494.1729
616.0130, 421.3408
617.1790, 317.4961
618.3440, 497.6426
619.5100, 537.7744
620.6750, 683.9082
621.8400, 781.0254
623.0050, 776.1367
624.1700, 881.2578
625.3350, 1045.376
626.4990, 942.4893
627.6640, 1030.607
628.8280, 771.7109
629.9920, 681.8203
631.1550, 527.9180
632.3190, 551.0020
633.4820, 444.0703
634.6460, 362.1230
635.8090, 353.1670
636.9710, 363.1982
638.1340, 416.2139
639.2970, 322.2266
640.4590, 403.2217
641.6210, 451.2012
642.7830, 323.1660
643.9450, 551.1133
645.1070, 547.0439
646.2680, 663.9580
647.4300, 538.8555
648.5910, 529.7344
649.7520, 677.5957
650.9130, 623.4414
652.0730, 610.2686
653.2340, 619.0781
654.3940, 553.8701
655.5540, 561.6426
656.7140, 373.3984
657.8740, 444.1367
659.0330, 155.8564
660.1930, 171.5566
661.3520, 247.2393
662.5110, 113.9033
663.6700, 11.55078
664.8290, 50.16797
665.9870, 141.7627
667.1460, 45.33594
668.3040, 20.89062
669.4620, 76.42480
670.6200, 40.93555
671.7770, 6.422852
672.9350, 95.11816
674.0920, 93.25195
675.2500, 90.39648
676.4070, 92.87988
677.5630, 117.8350
678.7200, 39.35156
679.8770, 18.48438
681.0330, 18.36816
682.1890, 22.69824
683.3450, 66.26270
684.5010, 54.70117
685.6560, 15.64160
686.8120, 54.54980
687.9670, 53.56543
689.1220, 57.74902
690.2770, 165.0039
691.4320, 75.38477
692.5870, 66.84570
693.7410, 119.3799
694.8950, 61.11621
696.0490, 126.7275
697.2030, 31.54297
698.3570, 77.41602
699.5110, 68.37012
700.6640, 109.3994
701.8170, 22.52734
702.9700, 118.2930
704.1230, 5.907227
705.2760, 51.85156
706.4290, 38.41406
707.5810, 34.25977
708.7330, 26.90820
709.8850, 21.47070
711.0370, 34.90137
712.1890, 96.61035
713.3400, 90.10059
714.4920, 29.57422
715.6430, 74.02051
716.7940, 2.445313
717.9450, 128.8320
719.0960, 175.1992
720.2460, 167.5498
721.3960, 243.8799
722.5470, 100.1914
723.6970, 364.4834
724.8460, 108.7568
725.9960, 371.0107
727.1460, 176.2480
728.2950, 134.4658
729.4440, 385.6670
730.5930, 424.8486
731.7420, 173.0137
732.8910, 316.1611
734.0390, 352.2910
735.1870, 307.4043
736.3360, 443.4990
737.4840, 342.5781
738.6310, 366.6396
739.7790, 343.6836
740.9260, 362.7109
742.0740, 233.7217
743.2210, 351.7158
744.3680, 395.6934
745.5150, 235.6543
746.6610, 413.5977
747.8080, 498.5264
748.9540, 400.4365
750.1000, 532.3311
751.2460, 494.2090
752.3920, 422.0693
753.5380, 549.9121
754.6830, 505.7402
755.8280, 497.5508
756.9730, 492.3467
758.1180, 682.1260
759.2630, 671.8887
760.4080, 778.6357
761.5520, 793.3672
762.6960, 829.0830
763.8410, 849.7842
764.9840, 994.4688
766.1280, 926.1367
767.2720, 1052.791
768.4150, 1344.429
769.5590, 1351.051
770.7020, 1330.658
771.8450, 1579.251
772.9870, 1698.828
774.1300, 2028.392
775.2720, 2023.938
776.4150, 2411.472
777.5570, 2516.989
778.6990, 2862.492
779.8400, 3524.982
780.9820, 3971.457
782.1230, 4282.916
783.2650, 4736.362
784.4060, 5356.795
785.5470, 5791.213
786.6870, 6371.619
787.8280, 6756.010
788.9680, 7250.386
790.1090, 7484.749
791.2490, 7565.101
792.3890, 7396.438
793.5280, 7180.764
794.6680, 7029.074
795.8070, 6691.372
796.9470, 6076.568
798.0860, 5575.815
799.2250, 5169.076
800.3630, 4746.586
801.5020, 4355.549
802.6410, 3988.355
803.7790, 3660.406
804.9170, 3305.805
806.0550, 3024.972
807.1930, 2768.340
808.3300, 2608.921
809.4680, 2320.714
810.6050, 2248.027
811.7420, 2048.185
812.8790, 1827.694
814.0160, 1753.907
815.1520, 1665.805
816.2890, 1577.801
817.4250, 1552.735
818.5610, 1698.648
819.6970, 1565.688
820.8330, 1500.542
821.9680, 1297.001
823.1040, 1433.771
824.2390, 1287.209
825.3740, 1393.763
826.5090, 1272.031
827.6440, 1354.548
828.7790, 1414.673
829.9130, 1268.581
831.0470, 1185.919
832.1810, 1341.902
833.3150, 1277.020
834.4490, 1172.848
835.5830, 1215.795
836.7160, 1305.308
837.8500, 1278.246
838.9830, 1256.642
840.1160, 1210.444
841.2480, 1263.145
842.3810, 1362.551
843.5140, 1348.046
844.6460, 1512.268
845.7780, 1505.338
846.9100, 1468.847
848.0420, 1674.523
849.1740, 1718.193
850.3050, 1801.740
851.4360, 2016.934
852.5680, 2107.527
853.6990, 2311.606
854.8290, 2444.444
855.9600, 2594.461
857.0910, 2829.475
858.2210, 2986.498
859.3510, 3099.246
860.4810, 3499.275
861.6110, 3496.074
862.7410, 3475.119
863.8700, 3444.169
865.0000, 3713.105
866.1290, 3706.162
867.2580, 3776.230
868.3870, 3889.301
869.5150, 3971.383
870.6440, 4138.469
871.7720, 4307.561
872.9000, 4625.656
874.0290, 4832.625
875.1560, 5200.861
876.2840, 5389.982
877.4120, 5811.113
878.5390, 6150.250
879.6660, 6461.396
880.7930, 6716.547
881.9200, 6558.703
883.0470, 6730.869
884.1740, 6622.040
885.3000, 6603.221
886.4260, 6286.418
887.5530, 5691.623
888.6780, 5494.833
889.8040, 4889.051
890.9300, 4439.332
892.0550, 3879.639
893.1810, 3594.974
894.3060, 3233.316
895.4310, 2908.672
896.5560, 2508.062
897.6800, 2219.461
898.8050, 1938.883
899.9290, 1685.311
901.0530, 1621.749
902.1770, 1519.195
903.3010, 1253.650
904.4250, 1224.124
905.5480, 1111.605
906.6720, 922.0947
907.7950, 910.5938
908.9180, 885.1025
910.0410, 706.6182
911.1630, 714.1436
912.2860, 480.6777
913.4080, 595.2188
914.5300, 554.7725
915.6530, 286.3340
916.7740, 311.9053
917.8960, 396.4854
919.0180, 389.0742
920.1390, 248.6719
921.2600, 329.2793
922.3820, 88.89551
923.5020, 28.52148
924.6230, 133.1572
925.7440, 99.80469
926.8640, 84.46191
927.9850, 180.1514
929.1050, 127.8516
930.2250, 57.56055
931.3450, 107.2803
932.4640, 173.0117
933.5840, 61.75195
934.7030, 25.49414
935.8220, 228.2656
936.9410, 42.04199
938.0600, 121.8320
939.1790, 35.36719
940.2970, 58.55859
941.4160, 107.2520
942.5340, 30.07520
943.6520, 43.07129
944.7700, 76.79102
945.8870, 20.30273
947.0050, 67.35645
948.1220, 179.3828
949.2400, 8.460938
950.3570, 28.49023
951.4740, 86.51172
952.5900, 22.53906
953.7070, 147.5928
954.8240, 165.6621
955.9400, 55.76953
957.0560, 195.8916
958.1720, 142.0312
959.2880, 174.1836
960.4030, 87.39062
961.5190, 123.6348
962.6340, 160.9463
963.7490, 14.70117
964.8640, 62.68848
965.9790, 147.1309
967.0940, 14.38965
968.2080, 25.14355
969.3230, 3.709961
970.4370, 144.3193
971.5510, 46.96680
972.6650, 121.6660
973.7790, 4.607422
974.8920, 13.86914
976.0060, 43.88770
977.1190, 4.339844
978.2320, 169.4629
979.3450, 56.28027
980.4580, 95.11328
981.5710, 62.97363
982.6830, 31.53418
983.7950, 36.23242
984.9080, 29.67480
986.0200, 127.5967
987.1310, 200.5312
988.2430, 131.4863
989.3550, 93.45312
990.4660, 174.4297
991.5770, 187.4180
992.6880, 115.4170
993.7990, 247.4268
994.9100, 313.4482
996.0200, 470.8525
997.1310, 348.8955
998.2410, 461.9492
999.3510, 495.0137
1000.461, 569.0781
1001.571, 600.6143
1002.681, 603.1846
1003.790, 581.2910
1004.899, 565.2148
1006.009, 523.2109
1007.118, 484.6660
1008.226, 417.8555
1009.335, 362.9453
1010.444, 300.0820
1011.552, 397.2549
1012.660, 161.8818
1013.768, 414.1230
1014.876, 441.3506
1015.984, 349.9785
1017.092, 518.2285
1018.199, 343.0273
1019.306, 472.2988
1020.413, 479.6025
1021.520, 652.8564
1022.627, 386.2002
1023.734, 575.2725
1024.840, 402.2607
1025.947, 503.8994
1027.053, 601.1934
1028.159, 465.1641
1029.265, 366.5000
1030.370, 517.8145
1031.476, 578.4971
1032.581, 489.8242
1033.687, 383.5352
1034.792, 419.8750
1035.897, 334.4961
1037.002, 352.9932
1038.106, 424.3506
1039.211, 334.7119
1040.315, 355.3301
1041.419, 245.8389
1042.523, 298.2168
1043.627, 252.5996
1044.731, 230.6045
1045.834, 248.3877
1046.938, 222.2305
1048.041, 230.0039
1049.144, 230.9023
1050.247, 230.4551
1051.349, 228.8730
1052.452, 215.2949
1053.555, 198.7217
1054.657, 169.8623
1055.759, 155.8135
1056.861, 94.26367
1057.963, 153.9072
1059.064, 115.4912
1060.166, 197.0918
1061.267, 212.7695
1062.368, 263.3125
1063.470, 165.7754
1064.570, 84.24121
1065.671, 209.7168
1066.772, 342.8506
1067.872, 166.8789
1068.972, 225.4902
1070.073, 212.0400
1071.173, 125.5234
1072.272, 200.8174
1073.372, 42.93652
1074.472, 153.8838
1075.571, 200.6992
1076.670, 521.2480
1077.769, 220.7461
1078.868, 404.3701
1079.967, 348.3506
1081.065, 285.3721
1082.164, 441.7373
1083.262, 473.8740
1084.360, 244.3799
1085.458, 308.8867
1086.556, 181.4219
1087.654, 344.9307
1088.751, 427.4385
1089.848, 278.9473
1090.946, 149.4551
1092.043, 198.2158
1093.139, 338.7246
1094.236, 201.7227
1095.333, 228.2285
1096.429, 116.4707
1097.525, 145.9736
1098.622, 187.5332
1099.718, 137.7754
1100.813, 179.8574
1101.909, 270.4268
1103.005, 162.9209
1104.100, 320.4131
1105.195, 252.9004
1106.290, 79.30957
1107.385, 190.5391
1108.480, 190.0176
1109.574, 326.4180
1110.669, 323.8887
1111.763, 279.3545
1112.857, 357.8193
1113.951, 204.2773
1115.045, 157.7314
1116.139, 162.2842
1117.232, 249.7295
1118.326, 133.1709
1119.419, 117.6074
1120.512, 124.0391
1121.605, 281.4658
1122.697, 108.8887
1123.790, 98.30469
1124.883, 233.7158
1125.975, 147.1221
1127.067, 11.47656
1128.159, 122.9062
1129.251, 159.2832
1130.342, 25.65527
1131.434, 3.977539
1132.525, 122.3740
1133.617, 2.281250
1134.708, 76.04980
1135.799, 168.3740
1136.889, 44.69238
1137.980, 37.00586
1139.071, 22.31348
1140.161, 16.38770
1141.251, 0.7304690
1142.341, 37.14941
1143.431, 9.403320
1144.521, 26.03516
1145.610, 32.57227
1146.700, 11.11035
1147.789, 33.32715
1148.878, 8.538086
1149.967, 15.26367
1151.056, 29.90820
1152.144, 56.07422
1153.233, 26.23242
1154.321, 201.6152
1155.409, 40.56934
1156.498, 66.55859
1157.585, 290.4072
1158.673, 9.366211
1159.761, 92.68848
1160.848, 174.1885
1161.936, 33.94141
1163.023, 76.89258
1164.110, 17.71777
1165.197, 125.5312
1166.283, 21.33789
1167.370, 13.86621
1168.456, 206.9023
1169.542, 125.6621
1170.629, 23.41602
1171.714, 29.15820
1172.800, 130.8906
1173.886, 103.6162
1174.971, 57.33496
1176.057, 115.0449
1177.142, 18.74609
1178.227, 156.4355
1179.312, 70.11719
1180.397, 224.7900
1181.481, 130.4551
1182.566, 195.1123
1183.650, 174.7607
1184.734, 89.40137
1185.818, 28.03418
1186.902, 103.6553
1187.986, 30.26953
1189.069, 34.42188
1190.153, 59.53418
1191.236, 30.00586
1192.319, 46.53516
1193.402, 99.05566
1194.485, 100.5674
1195.567, 66.07129
1196.650, 15.56641
1197.732, 47.46680
1198.814, 37.51953
1199.896, 52.98340
1200.978, 96.43750
1202.060, 16.88379
1203.142, 30.31836
1204.223, 22.75000
1205.304, 29.83105
1206.386, 39.54980
1207.467, 84.92480
1208.547, 96.70801
1209.628, 23.58789
1210.709, 260.8809
1211.789, 88.19727
1212.869, 60.49414
1213.950, 159.7646
1215.030, 187.0127
1216.109, 67.25293
1217.189, 110.4854
1218.269, 196.7080
1219.348, 265.9229
1220.427, 230.1279
1221.506, 44.67480
1222.585, 75.47656
1223.664, 22.62012
1224.743, 130.7500
1225.821, 136.8711
1226.899, 88.98535
1227.978, 62.09082
1229.056, 129.1865
1230.134, 19.27539
1231.211, 58.62793
1232.289, 206.6943
1233.366, 238.7520
1234.444, 235.8018
1235.521, 202.8418
1236.598, 319.8750
1237.675, 202.9004
1238.751, 209.9170
1239.828, 184.9268
1240.904, 317.9277
1241.981, 107.9199
1243.057, 257.9043
1244.133, 227.8809
1245.209, 229.8477
1246.284, 282.8105
1247.360, 287.7676
1248.435, 304.7148
1249.510, 285.6533
1250.585, 356.5840
1251.660, 337.0557
1252.735, 402.4219
1253.810, 358.3301
1254.884, 337.2441
1255.959, 384.1631
1257.033, 321.7021
1258.107, 361.6064
1259.181, 371.4033
1260.255, 355.3906
1261.328, 441.2822
1262.402, 366.1562
1263.475, 458.0967
1264.548, 548.9678
1265.621, 398.8301
1266.694, 395.6865
1267.767, 554.5352
1268.840, 607.3330
1269.912, 587.6816
1270.984, 673.0879
1272.056, 543.9082
1273.129, 489.2773
1274.200, 482.0361
1275.272, 590.8096
1276.344, 434.1855
1277.415, 464.9414
1278.486, 370.1523
1279.558, 234.8926
1280.629, 236.6035
1281.699, 202.3662
1282.770, 245.8008
1283.841, 229.1025
1284.911, 323.5293
1285.981, 487.8623
1287.051, 564.5957
1288.121, 338.6543
1289.191, 447.3496
1290.261, 358.0684
1291.330, 526.4209
1292.400, 563.1299
1293.469, 656.4561
1294.538, 411.1562
1295.607, 512.5752
1296.676, 469.1201
1297.745, 554.8066
1298.813, 589.4893
1299.881, 588.9160
1300.950, 620.0059
1302.018, 626.0674
1303.086, 606.4131
1304.154, 632.4502
1305.221, 595.1094
1306.289, 578.3252
1307.356, 632.9805
1308.423, 633.6328
1309.490, 683.2812
1310.557, 745.9268
1311.624, 607.5674
1312.691, 624.2031
1313.757, 780.8340
1314.823, 469.2275
1315.890, 658.8516
1316.956, 542.2734
1318.022, 691.7559
1319.087, 579.2236
1320.153, 712.6123
1321.219, 534.1377
1322.284, 493.7451
1323.349, 246.3496
1324.414, 448.9443
1325.479, 510.8838
1326.544, 375.3936
1327.608, 373.8574
1328.673, 288.3848
1329.737, 408.9775
1330.801, 451.9395
1331.865, 444.2637
1332.929, 155.3984
1333.993, 265.6660
1335.057, 235.1201
1336.120, 333.7080
1337.183, 245.7705
1338.247, 272.9102
1339.310, 334.4980
1340.373, 128.0840
1341.435, 206.4199
1342.498, 226.0068
1343.560, 251.5967
1344.623, 205.1572
1345.685, 333.7461
1346.747, 347.3369
1347.809, 306.7988
1348.871, 427.5215
1349.932, 245.8613
1350.994, 242.4551
1352.055, 293.5596
1353.116, 197.1562
1354.177, 56.75488
1355.238, 133.3545
1356.299, 397.8975
1357.359, 214.5010
1358.420, 13.47852
1359.480, 255.0518
1360.540, 141.6582
1361.600, 146.2607
1362.660, 134.8311
1363.720, 80.38867
1364.780, 275.9482
1365.839, 185.5098
1366.898, 349.0723
1367.958, 278.6377
1369.017, 253.3252
1370.076, 298.8955
1371.134, 232.4658
1372.193, 242.1846
1373.251, 171.7607
1374.310, 203.4199
1375.368, 224.9209
1376.426, 251.5059
1377.484, 328.0928
1378.542, 329.7275
1379.599, 506.3281
1380.657, 191.2686
1381.714, 475.0938
1382.771, 336.7871
1383.828, 417.3955
1384.885, 226.0127
1385.942, 211.7695
1386.999, 234.3955
1388.055, 296.0273
1389.111, 246.6660
1390.168, 316.3105
1391.224, 309.7715
1392.280, 214.4297
1393.335, 202.0918
1394.391, 213.7598
1395.446, 152.4297
1396.502, 150.1074
1397.557, 275.8008
1398.612, 199.5020
1399.667, 99.20898
1400.722, 214.9238
1401.776, 241.6445
1402.831, 208.3750
1403.885, 198.1133
1404.939, 166.8594
1405.994, 125.6230
1407.048, 107.3867
1408.101, 37.16797
1409.155, 24.04297
1410.209, 65.30664
1411.262, 34.00781
1412.315, 42.80469
1413.368, 61.94336
1414.421, 211.6992
1415.474, 244.3965
1416.527, 252.1250
1417.579, 162.8555
1418.632, 136.5996
1419.684, 213.3438
1420.736, 117.0898
1421.788, 166.8320
1422.840, 50.57227
1423.891, 302.3164
1424.943, 215.0527
1425.994, 202.8965
1427.046, 198.6348
1428.097, 403.3750
1429.148, 59.12109
1430.199, 442.8730
1431.249, 293.6289
1432.300, 469.4512
1433.350, 266.2246
1434.401, 390.0117
1435.451, 604.8184
1436.501, 617.5977
1437.551, 772.0977
1438.601, 759.3438
1439.650, 845.1328
1440.700, 1022.928
1441.749, 1102.729
1442.798, 1159.576
1443.847, 990.4336
1444.896, 1172.293
1445.945, 1066.166
1446.993, 1093.043
1448.042, 1240.928
1449.090, 1232.824
1450.138, 1220.764
1451.187, 1166.742
1452.234, 1238.771
1453.282, 1467.832
1454.330, 1355.928
1455.377, 1502.033
1456.425, 1281.148
1457.472, 1218.291
1458.519, 1057.471
1459.566, 972.5449
1460.613, 924.8672
1461.660, 856.7480
1462.706, 960.9805
1463.752, 976.2227
1464.799, 851.4785
1465.845, 757.7480
1466.891, 812.0332
1467.937, 738.3301
1468.982, 605.6387
1470.028, 524.9648
1471.073, 572.3047
1472.119, 666.6602
1473.164, 426.0078
1474.209, 511.3145
1475.254, 549.6348
1476.299, 372.9727
1477.343, 376.3223
1478.388, 392.6523
1479.432, 388.9961
1480.476, 514.3535
1481.520, 257.7305
1482.564, 182.1172
1483.608, 310.5215
1484.651, 258.9414
1485.695, 292.3770
1486.738, 297.5977
1487.782, 173.2305
1488.825, 278.3359
1489.868, 79.66016
1490.910, 115.0000
1491.953, 55.35352
1492.996, 164.7227
1494.038, 9.107422
1495.080, 121.5078
1496.122, 102.9219
1497.164, 7.355469
1498.206, 60.79492
1499.248, 145.2422
1500.290, 56.70703
1501.331, 115.1992
1502.372, 88.71680
1503.413, 35.25391
1504.455, 44.81250
1505.495, 1.679688
1506.536, 48.00586
1507.577, 45.38672
1508.617, 56.25391
1509.658, 85.91016
1510.698, 20.58398
1511.738, 145.2715
1512.778, 148.9766
1513.818, 310.7031
1514.857, 59.44141
1515.897, 36.80469
1516.936, 211.9590
1517.975, 157.7383
1519.015, 231.5293
1520.054, 81.33594
1521.092, 208.1562
1522.131, 315.9941
1523.170, 385.8477
1524.208, 426.9121
1525.246, 445.1133
1526.285, 388.8359
1527.323, 435.1484
1528.361, 284.5098
1529.398, 294.4746
1530.436, 152.3730
1531.473, 254.8555
1532.511, 156.3965
1533.548, 135.8105
1534.585, 159.9434
1535.622, 197.1270
1536.659, 104.7324
1537.695, 143.6641
1538.732, 222.1914
1539.768, 166.7656
1540.805, 229.5117
1541.841, 209.1309
1542.877, 308.5996
1543.913, 302.8906
1544.948, 223.9609
1545.984, 299.7227
1547.019, 222.1504
1548.055, 178.1289
1549.090, 333.6035
1550.125, 27.81250
1551.160, 286.7832
1552.195, 62.89844
1553.229, 211.0449
1554.264, 179.3105
1555.298, 126.8828
1556.332, 5.863281
1557.366, 123.8379
1558.400, 213.0527
1559.434, 214.9785
1560.468, 12.67188
1561.502, 115.8848
1562.535, 0.0000000E+00
##END=



