##NAMES=Pharmacosiderite
##RRUFFID=R050574
##IDEAL CHEMISTRY=KFe^3+^_4_(As^5+^O_4_)_3_(OH)_4_&#183;6-7H_2_O
##LOCALITY=Cornwall, England
##OWNER=RRUFF
##SOURCE=University of Arizona Mineral Museum
##DESCRIPTION=Druse of bluish-green cubes
##STATUS=The identification of this mineral is confirmed by single-crystal X-ray diffraction and chemical analysis.
##URL=rruff.info/R050574
##MEASURED CHEMISTRY=K_1.27_(Fe^3+^_3.73_Fe^2+^_0.27_)_Σ=4_(As_1.00_O_4_)_3_(OH)_4_·6H_2_O
##PIN_ID=M00886
##ORIENTATION=Laser parallel to c* (0 0 1). Fiducial mark perpendicular to laser is parallel to -a [-1 0 0]
166.0340, 0.0000000E+00
167.2690, 0.2026370
168.5040, 43.43115
169.7390, 29.07178
170.9730, 71.05249
172.2080, 18.50098
173.4420, 119.7861
174.6760, 109.4109
175.9100, 222.9482
177.1440, 290.0869
178.3770, 356.6750
179.6100, 444.5493
180.8430, 638.5249
182.0760, 736.4309
183.3090, 857.1196
184.5410, 912.4675
185.7740, 1059.373
187.0060, 1167.838
188.2380, 1221.049
189.4690, 1266.004
190.7010, 1245.555
191.9320, 1228.570
193.1630, 1146.947
194.3940, 1068.612
195.6250, 1007.504
196.8550, 880.5752
198.0860, 780.7896
199.3160, 711.1182
200.5460, 584.5371
201.7750, 515.0283
203.0050, 427.5769
204.2340, 302.1704
205.4630, 221.8010
206.6920, 210.9248
207.9210, 156.4763
209.1500, 96.32861
210.3780, 96.97119
211.6060, 24.79785
212.8340, 140.3738
214.0620, 83.66553
215.2900, 133.6978
216.5170, 270.4927
217.7440, 343.0708
218.9710, 347.4512
220.1980, 479.6494
221.4250, 529.6816
222.6510, 637.5613
223.8770, 785.3008
225.1040, 958.9104
226.3290, 1109.401
227.5550, 1309.780
228.7810, 1407.055
230.0060, 1604.233
231.2310, 1676.323
232.4560, 1913.329
233.6810, 1995.256
234.9050, 2030.112
236.1290, 2101.901
237.3540, 2100.626
238.5770, 2081.293
239.8010, 2014.909
241.0250, 2048.479
242.2480, 1956.006
243.4710, 1936.479
244.6940, 1872.971
245.9170, 1845.472
247.1400, 1816.987
248.3620, 1858.311
249.5840, 1892.354
250.8060, 1941.737
252.0280, 1971.875
253.2500, 1984.016
254.4710, 2024.438
255.6920, 1972.057
256.9140, 1978.102
258.1340, 1994.726
259.3550, 1986.174
260.5760, 2045.533
261.7960, 1938.933
263.0160, 1972.372
264.2360, 1928.847
265.4560, 2000.357
266.6750, 1879.901
267.8940, 1803.478
269.1140, 1789.088
270.3330, 1812.729
271.5510, 1842.401
272.7700, 1872.103
273.9880, 1945.835
275.2070, 2115.596
276.4250, 2045.388
277.6420, 2194.208
278.8600, 2237.058
280.0770, 2298.934
281.2950, 2352.834
282.5120, 2379.753
283.7290, 2242.687
284.9450, 2254.633
286.1620, 2099.592
287.3780, 2008.563
288.5940, 1814.547
289.8100, 1706.544
291.0260, 1610.554
292.2410, 1443.577
293.4570, 1265.613
294.6720, 1220.661
295.8870, 1113.723
297.1010, 998.7966
298.3160, 938.8828
299.5300, 923.9812
300.7450, 878.0918
301.9590, 817.2144
303.1730, 742.3484
304.3860, 714.4941
305.6000, 631.6510
306.8130, 684.8191
308.0260, 561.9983
309.2390, 499.1880
310.4510, 505.3884
311.6640, 415.5991
312.8760, 316.5397
314.0880, 306.9669
315.3000, 266.6128
316.5120, 249.0490
317.7240, 136.7168
318.9350, 101.3792
320.1460, 78.23730
321.3570, 37.17236
322.5680, 42.17468
323.7790, 12.23657
324.9890, 23.64954
326.1990, 73.49951
327.4090, 86.78149
328.6190, 105.1539
329.8290, 102.9753
331.0380, 101.7985
332.2480, 100.8657
333.4570, 123.4600
334.6660, 92.31018
335.8740, 90.17212
337.0830, 99.04797
338.2910, 45.94250
339.5000, 92.84375
340.7080, 107.7651
341.9150, 14.71167
343.1230, 39.65930
344.3300, 9.616089
345.5380, 13.57446
346.7450, 14.46399
347.9520, 29.50671
349.1580, 19.56396
350.3650, 30.62671
351.5710, 69.69275
352.7770, 75.77551
353.9830, 83.85291
355.1890, 136.9321
356.3940, 142.9978
357.6000, 128.0643
358.8050, 107.1173
360.0100, 188.1591
361.2150, 255.1902
362.4190, 254.2125
363.6240, 307.2285
364.8280, 355.2522
366.0320, 363.2854
367.2360, 417.3296
368.4400, 468.3719
369.6430, 544.4152
370.8460, 565.4626
372.0500, 615.5105
373.2530, 697.5651
374.4550, 668.6299
375.6580, 773.7002
376.8600, 862.7842
378.0620, 883.8698
379.2650, 939.9688
380.4660, 965.0841
381.6680, 1054.217
382.8690, 1110.361
384.0710, 1106.522
385.2720, 1167.699
386.4730, 1125.878
387.6730, 1120.073
388.8740, 1226.276
390.0740, 1141.494
391.2740, 1116.700
392.4740, 1177.830
393.6740, 1168.864
394.8740, 1155.804
396.0730, 1081.645
397.2730, 1050.398
398.4720, 1060.087
399.6700, 1060.724
400.8690, 1060.337
402.0680, 947.9519
403.2660, 1001.575
404.4640, 972.2076
405.6620, 1079.854
406.8600, 1036.511
408.0570, 1034.179
409.2550, 1034.854
410.4520, 1066.535
411.6490, 1073.224
412.8460, 1067.917
414.0430, 1090.619
415.2390, 1199.327
416.4350, 1145.043
417.6310, 1289.764
418.8270, 1275.488
420.0230, 1255.216
421.2190, 1353.948
422.4140, 1432.684
423.6090, 1489.423
424.8040, 1553.164
425.9990, 1584.908
427.1940, 1720.656
428.3880, 1862.406
429.5820, 1848.159
430.7760, 1911.913
431.9700, 1978.670
433.1640, 2191.430
434.3580, 2214.191
435.5510, 2450.954
436.7440, 2498.719
437.9370, 2684.486
439.1300, 2804.254
440.3230, 2928.023
441.5150, 3182.794
442.7070, 3332.566
443.8990, 3521.338
445.0910, 3671.112
446.2830, 3916.886
447.4750, 4204.662
448.6660, 4496.437
449.8570, 4847.213
451.0480, 5185.990
452.2390, 5671.765
453.4290, 6012.542
454.6200, 6592.317
455.8100, 7198.093
457.0000, 7936.867
458.1900, 8731.642
459.3800, 9499.411
460.5690, 10706.18
461.7590, 12032.95
462.9480, 13803.72
464.1370, 15595.49
465.3260, 17849.24
466.5140, 20162.99
467.7030, 23017.61
468.8910, 25797.29
470.0790, 28576.84
471.2670, 31101.54
472.4550, 33281.07
473.6420, 34638.73
474.8300, 35349.46
476.0170, 35501.21
477.2040, 34826.54
478.3900, 33941.84
479.5770, 32252.25
480.7640, 30332.07
481.9500, 28081.23
483.1360, 25774.42
484.3220, 23374.74
485.5080, 20907.98
486.6930, 18911.49
487.8780, 16992.98
489.0640, 15382.15
490.2490, 13836.89
491.4330, 12490.89
492.6180, 11296.93
493.8030, 10500.65
494.9870, 9599.766
496.1710, 8882.524
497.3550, 8074.034
498.5390, 7451.962
499.7220, 6924.312
500.9060, 6436.255
502.0890, 6072.375
503.2720, 5603.383
504.4550, 5357.505
505.6370, 4924.955
506.8200, 4608.529
508.0020, 4451.314
509.1840, 4193.310
510.3660, 3952.065
511.5480, 3737.286
512.7290, 3472.285
513.9110, 3353.120
515.0920, 3219.427
516.2730, 2998.454
517.4540, 2891.194
518.6350, 2755.913
519.8150, 2645.591
520.9960, 2518.002
522.1760, 2409.079
523.3560, 2318.381
524.5350, 2160.156
525.7150, 2048.039
526.8950, 2003.651
528.0740, 2063.359
529.2530, 1952.623
530.4320, 1887.617
531.6100, 1794.852
532.7890, 1771.568
533.9670, 1739.591
535.1460, 1706.353
536.3240, 1654.605
537.5010, 1644.287
538.6790, 1536.961
539.8570, 1540.631
541.0340, 1499.927
542.2110, 1386.280
543.3880, 1333.764
544.5650, 1394.556
545.7410, 1325.538
546.9180, 1160.212
548.0940, 1224.515
549.2700, 1145.571
550.4460, 1089.129
551.6210, 1094.423
552.7970, 1044.997
553.9720, 996.2517
555.1480, 1019.023
556.3230, 904.3667
557.4970, 846.2791
558.6720, 879.4897
559.8460, 791.6892
561.0210, 789.8773
562.1950, 747.0538
563.3690, 788.2194
564.5420, 729.3730
565.7160, 715.5151
566.8890, 639.6454
568.0630, 615.7642
569.2360, 624.8707
570.4090, 563.9658
571.5810, 610.0488
572.7540, 596.1196
573.9260, 463.1786
575.0980, 485.2253
576.2700, 521.2598
577.4420, 503.2821
578.6140, 546.2920
579.7850, 477.2898
580.9560, 459.2749
582.1270, 441.2478
583.2980, 424.2079
584.4690, 415.8453
585.6400, 403.6224
586.8100, 404.0127
587.9800, 386.9224
589.1500, 383.8191
590.3200, 374.7031
591.4900, 370.1893
592.6590, 326.4327
593.8290, 372.2780
594.9980, 342.1104
596.1670, 354.9297
597.3360, 296.7361
598.5040, 308.5293
599.6730, 334.3094
600.8410, 232.0764
602.0090, 292.8301
603.1770, 253.5708
604.3450, 256.2981
605.5130, 244.0120
606.6800, 199.7129
607.8470, 197.4006
609.0140, 185.4497
610.1810, 177.8446
611.3480, 178.4296
612.5140, 181.1248
613.6810, 175.8384
614.8470, 174.5697
616.0130, 171.3184
617.1790, 108.0845
618.3440, 67.87366
619.5100, 103.6776
620.6750, 76.49622
621.8400, 92.33142
623.0050, 76.16968
624.1700, 57.02319
625.3350, 36.89526
626.4990, 77.76062
627.6640, 45.62720
628.8280, 59.48633
629.9920, 30.33936
631.1550, 17.82251
632.3190, 16.97998
633.4820, 38.76428
634.6460, 34.46582
635.8090, 44.25940
636.9710, 25.03003
638.1340, 25.64087
639.2970, 38.70483
640.4590, 23.90259
641.6210, 16.49316
642.7830, 20.06494
643.9450, 15.61902
645.1070, 7.154175
646.2680, 43.33313
647.4300, 46.86914
648.5910, 50.45593
649.7520, 0.9049070
650.9130, 6.759399
652.0730, 19.45288
653.2340, 1.182007
654.3940, 24.93738
655.5540, 36.73083
656.7140, 16.56885
657.8740, 48.44055
659.0330, 0.3624270
660.1930, 44.30896
661.3520, 55.30334
662.5110, 59.35083
663.6700, 35.45349
664.8290, 53.59875
665.9870, 49.79541
667.1460, 4.041504
668.3040, 45.31287
669.4620, 25.63062
670.6200, 45.98438
671.7770, 22.38440
672.9350, 43.81812
674.0920, 40.29626
675.2500, 32.81689
676.4070, 24.37537
677.5630, 8.967163
678.7200, 9.583862
679.8770, 20.22534
681.0330, 5.875000
682.1890, 24.59094
683.3450, 1.683472
684.5010, 2.059448
685.6560, 13.82153
686.8120, 8.608521
687.9670, 5.431274
689.1220, 1.754395
690.2770, 15.91052
691.4320, 5.5420000E-02
692.5870, 17.18457
693.7410, 4.697021
694.8950, 2.404053
696.0490, 8.507935
697.2030, 27.56165
698.3570, 14.62085
699.5110, 34.66980
700.6640, 9.708618
701.8170, 42.73730
702.9700, 82.75610
704.1230, 64.76501
705.2760, 99.76428
706.4290, 35.75403
707.5810, 44.73413
708.7330, 39.70496
709.8850, 76.66650
711.0370, 58.61902
712.1890, 43.56226
713.3400, 41.49707
714.4920, 78.42273
715.6430, 75.33997
716.7940, 121.2485
717.9450, 48.14880
719.0960, 60.04077
720.2460, 43.92480
721.3960, 122.8008
722.5470, 99.66882
723.6970, 119.5292
724.8460, 121.3821
725.9960, 69.22754
727.1460, 94.06555
728.2950, 85.89661
729.4440, 92.72046
730.5930, 143.5377
731.7420, 80.34802
732.8910, 97.15186
734.0390, 163.9492
735.1870, 82.74048
736.3360, 126.5256
737.4840, 94.30481
738.6310, 96.07812
739.7790, 122.8459
740.9260, 153.6082
742.0740, 89.36511
743.2210, 88.11707
744.3680, 113.8638
745.5150, 137.6058
746.6610, 103.3429
747.8080, 91.07556
748.9540, 55.80371
750.1000, 127.5275
751.2460, 133.2471
752.3920, 58.96240
753.5380, 118.6733
754.6830, 39.38025
755.8280, 107.0828
756.9730, 138.7588
758.1180, 105.4531
759.2630, 97.14343
760.4080, 129.8298
761.5520, 81.51221
762.6960, 165.1295
763.8410, 141.6407
764.9840, 104.3116
766.1280, 152.8735
767.2720, 167.4910
768.4150, 220.9237
769.5590, 150.1692
770.7020, 168.3193
771.8450, 230.8372
772.9870, 276.0341
774.1300, 286.5793
775.2720, 278.3696
776.4150, 325.7328
777.5570, 336.6692
778.6990, 355.0052
779.8400, 412.1609
780.9820, 386.4200
782.1230, 460.5604
783.2650, 469.3688
784.4060, 556.0454
785.5470, 544.5078
786.6870, 518.7550
787.8280, 569.2366
788.9680, 585.2490
790.1090, 532.4775
791.2490, 582.8667
792.3890, 533.7795
793.5280, 534.9678
794.6680, 484.4387
795.8070, 531.9275
796.9470, 532.4534
798.0860, 512.2417
799.2250, 519.3622
800.3630, 511.0494
801.5020, 507.7208
802.6410, 514.9712
803.7790, 497.5420
804.9170, 515.0146
806.0550, 498.9281
807.1930, 518.1091
808.3300, 508.0461
809.4680, 444.4995
810.6050, 532.6438
811.7420, 544.0468
812.8790, 559.9944
814.0160, 501.4756
815.1520, 617.9653
816.2890, 539.4585
817.4250, 539.3264
818.5610, 582.1392
819.6970, 683.8215
820.8330, 663.1985
821.9680, 735.3867
823.1040, 809.8835
824.2390, 824.7546
825.3740, 875.8737
826.5090, 877.4924
827.6440, 922.3778
828.7790, 1021.985
829.9130, 1083.913
831.0470, 1116.327
832.1810, 1210.170
833.3150, 1323.448
834.4490, 1366.429
835.5830, 1494.423
836.7160, 1572.432
837.8500, 1723.454
838.9830, 1825.490
840.1160, 1998.541
841.2480, 2145.606
842.3810, 2321.685
843.5140, 2496.779
844.6460, 2728.556
845.7780, 3006.011
846.9100, 3232.150
848.0420, 3512.303
849.1740, 3782.472
850.3050, 4058.656
851.4360, 4326.857
852.5680, 4540.072
853.6990, 4864.307
854.8290, 5109.554
855.9600, 5410.824
857.0910, 5577.114
858.2210, 5787.419
859.3510, 6073.745
860.4810, 6260.809
861.6110, 6504.381
862.7410, 6708.828
863.8700, 6958.224
865.0000, 7171.641
866.1290, 7398.074
867.2580, 7580.526
868.3870, 7858.999
869.5150, 8070.491
870.6440, 8285.010
871.7720, 8546.548
872.9000, 8719.106
874.0290, 8877.690
875.1560, 8992.302
876.2840, 9004.822
877.4120, 9055.584
878.5390, 8834.255
879.6660, 8653.944
880.7930, 8305.646
881.9200, 7986.378
883.0470, 7484.126
884.1740, 6900.900
885.3000, 6408.699
886.4260, 5914.527
887.5530, 5353.382
888.6780, 4904.261
889.8040, 4381.168
890.9300, 3961.097
892.0550, 3508.049
893.1810, 3122.028
894.3060, 2783.030
895.4310, 2465.644
896.5560, 2267.109
897.6800, 1974.184
898.8050, 1745.286
899.9290, 1602.409
901.0530, 1414.563
902.1770, 1277.737
903.3010, 1158.935
904.4250, 977.1573
905.5480, 974.4137
906.6720, 842.6982
907.7950, 752.0085
908.9180, 650.3552
910.0410, 569.7266
911.1630, 612.1401
912.2860, 447.5784
913.4080, 471.0547
914.5300, 390.5548
915.6530, 363.0786
916.7740, 374.6272
917.8960, 308.2008
919.0180, 283.1162
920.1390, 195.4453
921.2600, 199.1316
922.3820, 171.8641
923.5020, 146.6235
924.6230, 160.4197
925.7440, 117.2526
926.8640, 78.11560
927.9850, 105.0164
929.1050, 104.9561
930.2250, 88.92957
931.3450, 85.94385
932.4640, 71.98669
933.5840, 56.06763
934.7030, 46.18958
935.8220, 103.3595
936.9410, 35.57214
938.0600, 71.82642
939.1790, 46.12231
940.2970, 13.44543
941.4160, 34.80750
942.5340, 70.20203
943.6520, 14.63513
944.7700, 35.10400
945.8870, 33.61060
947.0050, 5.846558
948.1220, 68.73682
949.2400, 74.35144
950.3570, 19.99341
951.4740, 61.66248
952.5900, 73.36829
953.7070, 34.10266
954.8240, 40.86902
955.9400, 43.65894
957.0560, 23.47314
958.1720, 78.31433
959.2880, 56.18201
960.4030, 62.07385
961.5190, 120.9998
962.6340, 67.93542
963.7490, 71.89404
964.8640, 88.87268
965.9790, 140.8755
967.0940, 128.9009
968.2080, 42.95300
969.3230, 128.0271
970.4370, 102.1239
971.5510, 159.2405
972.6650, 147.3765
973.7790, 150.5309
974.8920, 122.7047
976.0060, 132.8976
977.1190, 135.1093
978.2320, 155.3396
979.3450, 201.5889
980.4580, 151.8569
981.5710, 221.1447
982.6830, 209.4506
983.7950, 261.7754
984.9080, 227.3531
986.0200, 278.7156
987.1310, 287.0957
988.2430, 278.6178
989.3550, 291.9731
990.4660, 294.4539
991.5770, 257.9065
992.6880, 292.9072
993.7990, 311.8129
994.9100, 340.3167
996.0200, 302.2086
997.1310, 293.7452
998.2410, 336.2727
999.3510, 376.8419
1000.461, 331.4272
1001.571, 305.8828
1002.681, 307.3807
1003.790, 302.9313
1004.899, 287.5924
1006.009, 335.9895
1007.118, 343.9700
1008.226, 375.8306
1009.335, 326.2241
1010.444, 341.3508
1011.552, 341.0873
1012.660, 388.8380
1013.768, 381.6025
1014.876, 407.0914
1015.984, 388.4089
1017.092, 394.2876
1018.199, 381.0583
1019.306, 417.8445
1020.413, 427.7887
1021.520, 381.6038
1022.627, 433.2517
1023.734, 416.1644
1024.840, 417.9086
1025.947, 425.1748
1027.053, 389.0858
1028.159, 430.7086
1029.265, 398.8505
1030.370, 385.4556
1031.476, 386.5828
1032.581, 404.6199
1033.687, 430.3032
1034.792, 401.2898
1035.897, 395.9005
1037.002, 387.9106
1038.106, 353.4055
1039.211, 369.5903
1040.315, 353.8176
1041.419, 365.9131
1042.523, 360.8754
1043.627, 339.0620
1044.731, 331.6702
1045.834, 326.9823
1046.938, 321.4539
1048.041, 282.6409
1049.144, 265.2959
1050.247, 307.7607
1051.349, 276.0438
1052.452, 341.8826
1053.555, 250.4431
1054.657, 231.9822
1055.759, 255.1963
1056.861, 249.1917
1057.963, 143.4836
1059.064, 168.3280
1060.166, 167.4858
1061.267, 157.2460
1062.368, 170.0846
1063.470, 159.7195
1064.570, 150.2090
1065.671, 147.4530
1066.772, 131.6184
1067.872, 120.2451
1068.972, 109.1083
1070.073, 96.64636
1071.173, 85.58069
1072.272, 73.73340
1073.372, 62.26172
1074.472, 69.48828
1075.571, 57.98352
1076.670, 96.19885
1077.769, 87.68152
1078.868, 77.03369
1079.967, 63.94653
1081.065, 63.25012
1082.164, 89.53979
1083.262, 53.84839
1084.360, 61.71655
1085.458, 31.70703
1086.556, 13.28503
1087.654, 38.61047
1088.751, 21.94629
1089.848, 30.24158
1090.946, 69.68628
1092.043, 80.99255
1093.139, 0.6647950
1094.236, 35.78992
1095.333, 21.18018
1096.429, 22.47327
1097.525, 23.97131
1098.622, 18.52856
1099.718, 17.63293
1100.813, 11.38428
1101.909, 18.34436
1103.005, 2.705444
1104.100, 19.87390
1105.195, 33.97302
1106.290, 37.27612
1107.385, 26.44482
1108.480, 31.62329
1109.574, 29.57117
1110.669, 14.99170
1111.763, 30.25732
1112.857, 27.66455
1113.951, 27.77136
1115.045, 8.109375
1116.139, 9.508301
1117.232, 32.64258
1118.326, 6.734863
1119.419, 5.086304
1120.512, 25.68018
1121.605, 27.48975
1122.697, 2.555786
1123.790, 15.30115
1124.883, 12.23718
1125.975, 16.69495
1127.067, 10.38135
1128.159, 24.54578
1129.251, 22.55249
1130.342, 7.425293
1131.434, 12.33484
1132.525, 18.69470
1133.617, 18.69641
1134.708, 31.86755
1135.799, 4.064209
1136.889, 14.27319
1137.980, 23.35852
1139.071, 36.46155
1140.161, 11.70374
1141.251, 5.999512
1142.341, 16.68970
1143.431, 9.318970
1144.521, 10.64026
1145.610, 9.189453
1146.700, 5.450073
1147.789, 13.82886
1148.878, 27.20325
1149.967, 26.63245
1151.056, 28.34460
1152.144, 9.565552
1153.233, 22.06055
1154.321, 9.583130
1155.409, 6.142944
1156.498, 13.72327
1157.585, 7.328369
1158.673, 17.95520
1159.761, 7.389893
1160.848, 16.27075
1161.936, 7.968628
1163.023, 14.30981
1164.110, 31.42590
1165.197, 44.82227
1166.283, 3.036499
1167.370, 1.759888
1168.456, 5.412598
1169.542, 4.390259
1170.629, 4.462891
1171.714, 27.84387
1172.800, 0.9340820
1173.886, 17.99829
1174.971, 9.036621
1176.057, 18.05225
1177.142, 14.05115
1178.227, 26.43469
1179.312, 10.99695
1180.397, 16.94238
1181.481, 24.86951
1182.566, 8.219727
1183.650, 16.66101
1184.734, 2.477417
1185.818, 37.35681
1186.902, 8.824707
1187.986, 2.962402
1189.069, 12.72400
1190.153, 6.463867
1191.236, 16.17957
1192.319, 14.72742
1193.402, 27.54736
1194.485, 21.20227
1195.567, 48.83691
1196.650, 69.45544
1197.732, 1.058105
1198.814, 2.367920
1199.896, 29.17566
1200.978, 20.70007
1202.060, 47.20312
1203.142, 31.68896
1204.223, 64.15588
1205.304, 34.60620
1206.386, 12.03760
1207.467, 36.44373
1208.547, 45.83105
1209.628, 0.7994380
1210.709, 52.53870
1211.789, 54.85950
1212.869, 53.16296
1213.950, 1.448975
1215.030, 20.70386
1216.109, 35.93506
1217.189, 53.14661
1218.269, 52.29810
1219.348, 57.51550
1220.427, 44.67358
1221.506, 56.81250
1222.585, 52.93372
1223.664, 45.02563
1224.743, 49.67334
1225.821, 59.17444
1226.899, 43.22168
1227.978, 37.24927
1229.056, 24.50085
1230.134, 29.83154
1231.211, 25.19873
1232.289, 53.13501
1233.366, 82.05261
1234.444, 112.9532
1235.521, 57.83740
1236.598, 79.70300
1237.675, 76.55151
1238.751, 68.38269
1239.828, 79.19604
1240.904, 60.99219
1241.981, 49.77002
1243.057, 88.52832
1244.133, 54.26978
1245.209, 50.99219
1246.284, 73.46167
1247.360, 86.14709
1248.435, 67.81555
1249.510, 48.34253
1250.585, 68.03564
1251.660, 74.60352
1252.735, 65.19983
1253.810, 75.24744
1254.884, 130.3907
1255.959, 103.9412
1257.033, 100.1039
1258.107, 106.6226
1259.181, 81.15039
1260.255, 95.63660
1261.328, 79.10669
1262.402, 68.70557
1263.475, 121.2620
1264.548, 104.9786
1265.621, 107.1582
1266.694, 67.81458
1267.767, 65.88672
1268.840, 90.07715
1269.912, 106.7344
1270.984, 98.65747
1272.056, 69.97009
1273.129, 124.2667
1274.200, 118.5486
1275.272, 74.10498
1276.344, 111.8311
1277.415, 90.99414
1278.486, 109.2640
1279.558, 90.51685
1280.629, 101.6104
1281.699, 87.83167
1282.770, 86.21814
1283.841, 107.3378
1284.911, 117.6239
1285.981, 144.3859
1287.051, 130.5010
1288.121, 113.9016
1289.191, 82.78064
1290.261, 107.1937
1291.330, 102.0824
1292.400, 95.05774
1293.469, 75.38440
1294.538, 108.4044
1295.607, 77.79761
1296.676, 123.8563
1297.745, 68.29102
1298.813, 113.1000
1299.881, 83.86304
1300.950, 84.75415
1302.018, 95.77429
1303.086, 87.56653
1304.154, 144.9326
1305.221, 106.5906
1306.289, 107.0852
1307.356, 74.85999
1308.423, 106.1633
1309.490, 112.6522
1310.557, 87.31750
1311.624, 112.4211
1312.691, 108.7961
1313.757, 96.18701
1314.823, 108.8967
1315.890, 118.8192
1316.956, 113.4388
1318.022, 137.4999
1319.087, 94.24084
1320.153, 112.3729
1321.219, 141.4197
1322.284, 82.83240
1323.349, 107.0455
1324.414, 126.6659
1325.479, 83.35779
1326.544, 116.5804
1327.608, 93.55933
1328.673, 139.8552
1329.737, 146.8864
1330.801, 126.4127
1331.865, 91.69421
1332.929, 118.2690
1333.993, 114.5668
1335.057, 123.1356
1336.120, 108.4285
1337.183, 98.84314
1338.247, 131.6516
1339.310, 126.0966
1340.373, 119.5459
1341.435, 99.96704
1342.498, 124.8190
1343.560, 146.5391
1344.623, 108.6616
1345.685, 111.0271
1346.747, 132.3721
1347.809, 125.7478
1348.871, 140.9636
1349.932, 124.3378
1350.994, 102.6350
1352.055, 105.8094
1353.116, 123.0378
1354.177, 164.3528
1355.238, 138.4519
1356.299, 99.41602
1357.359, 137.0183
1358.420, 156.7656
1359.480, 102.3917
1360.540, 90.57275
1361.600, 136.9465
1362.660, 142.3883
1363.720, 90.59351
1364.780, 162.9338
1365.839, 127.2717
1366.898, 162.5366
1367.958, 158.8395
1369.017, 116.0240
1370.076, 150.0557
1371.134, 139.4489
1372.193, 142.5258
1373.251, 153.5479
1374.310, 135.7865
1375.368, 153.1270
1376.426, 119.3986
1377.484, 124.3450
1378.542, 110.5802
1379.599, 143.8118
1380.657, 148.9755
1381.714, 139.2770
1382.771, 179.7965
1383.828, 182.1377
1384.885, 145.5907
1385.942, 154.9370
1386.999, 120.2544
1388.055, 164.5752
1389.111, 119.8014
1390.168, 147.0839
1391.224, 145.5255
1392.280, 156.8651
1393.335, 142.2036
1394.391, 146.4628
1395.446, 146.6810
1396.502, 149.0850
1397.557, 161.4612
1398.612, 148.8131
1399.667, 136.0441
1400.722, 142.4143
1401.776, 107.7803
1402.831, 115.0269
1403.885, 143.3762
1404.939, 118.0244
1405.994, 172.2539
1407.048, 202.3959
1408.101, 209.8075
1409.155, 126.0725
1410.209, 159.8887
1411.262, 146.5933
1412.315, 131.4178
1413.368, 181.7771
1414.421, 111.2914
1415.474, 160.6332
1416.527, 130.0497
1417.579, 124.5338
1418.632, 170.8046
1419.684, 139.2374
1420.736, 150.6024
1421.788, 169.9861
1422.840, 157.5026
1423.891, 157.8802
1424.943, 183.2246
1425.994, 144.6420
1427.046, 170.0242
1428.097, 171.4039
1429.148, 122.7863
1430.199, 148.1729
1431.249, 141.5505
1432.300, 165.1355
1433.350, 161.5244
1434.401, 144.2534
1435.451, 160.6202
1436.501, 154.9541
1437.551, 161.1224
1438.601, 128.1334
1439.650, 133.4602
1440.700, 167.7937
1441.749, 129.1412
1442.798, 108.4967
1443.847, 142.8556
1444.896, 131.2144
1445.945, 92.57373
1446.993, 186.9515
1448.042, 145.3320
1449.090, 111.7118
1450.138, 118.0952
1451.187, 76.48291
1452.234, 100.8854
1453.282, 161.2866
1454.330, 78.70642
1455.377, 105.1326
1456.425, 72.55969
1457.472, 99.98926
1458.519, 44.42139
1459.566, 97.85730
1460.613, 81.29944
1461.660, 58.75635
1462.706, 71.22705
1463.752, 64.41394
1464.799, 48.17651
1465.845, 67.65613
1466.891, 64.13989
1467.937, 45.63049
1468.982, 87.12854
1470.028, 86.63293
1471.073, 74.14368
1472.119, 22.66211
1473.164, 33.18713
1474.209, 54.70227
1475.254, 12.21960
1476.299, 65.74109
1477.343, 56.26843
1478.388, 47.79883
1479.432, 34.33411
1480.476, 49.87537
1481.520, 29.42017
1482.564, 50.97083
1483.608, 59.52661
1484.651, 11.08777
1485.695, 52.65259
1486.738, 16.22009
1487.782, 13.79224
1488.825, 24.36865
1489.868, 15.94995
1490.910, 11.53638
1491.953, 22.12720
1492.996, 27.72327
1494.038, 34.32263
1495.080, 58.92773
1496.122, 1.538330
1497.164, 60.15466
1498.206, 18.77551
1499.248, 38.39795
1500.290, 6.024658
1501.331, 0.3350830
1502.372, 57.31750
1503.413, 7.979736
1504.455, 29.65186
1505.495, 34.33386
1506.536, 2.025879
1507.577, 23.27173
1508.617, 20.44104
1509.658, 2.836060
1510.698, 17.89722
1511.738, 2.641113
1512.778, 15.39587
1513.818, 27.16089
1514.857, 1.063354
1515.897, 1.276611
1516.936, 30.52112
1517.975, 30.33008
1519.015, 7.150269
1520.054, 16.89648
1521.092, 0.7396240
1522.131, 16.59583
1523.170, 34.46533
1524.208, 29.24426
1525.246, 18.10266
1526.285, 18.93994
1527.323, 26.71338
1528.361, 33.64807
1529.398, 54.59998
1530.436, 7.292114
1531.473, 8.266235
1532.511, 2.697998
1533.548, 46.49719
1534.585, 32.50781
1535.622, 40.91113
1536.659, 11.13391
1537.695, 34.53333
1538.732, 31.21155
1539.768, 19.88306
1540.805, 50.59729
1541.841, 59.81799
1542.877, 46.76953
1543.913, 12.35266
1544.948, 42.61096
1545.984, 59.09131
1547.019, 7.0068002E-02
1548.055, 35.76367
1549.090, 24.88464
1550.125, 18.85510
1551.160, 36.25134
1552.195, 38.46716
1553.229, 56.86938
1554.264, 73.46985
1555.298, 53.46912
1556.332, 1.425537
1557.366, 29.66187
1558.400, 0.6236570
1559.434, 41.16650
1560.468, 31.33740
1561.502, 17.59509
1562.535, 0.0000000E+00
##END=



