##NAMES=Phenakite
##RRUFFID=R040132
##IDEAL CHEMISTRY=Be_2_SiO_4_
##LOCALITY=Krager√∏, Telemark, Norway
##OWNER=RRUFF
##SOURCE=University of Arizona Mineral Museum
##DESCRIPTION=Colorless fragments
##STATUS=The identification of this mineral has been confirmed by X-ray diffraction and chemical analysis
##URL=rruff.info/R040132
##MEASURED CHEMISTRY=Be_2.02_Si_0.99_O_4_
##PIN_ID=L00303
##ORIENTATION=Laser parallel to -a* (-1 0 0). Fiducial mark perpendicular to laser is parallel to c [0 0 1]
98.090, 0.000
99.488, 98.025
100.885, 14.301
102.283, 144.666
103.680, 53.527
105.077, 126.800
106.473, 74.671
107.870, 134.570
109.266, 171.562
110.662, 117.534
112.057, 226.274
113.453, 146.021
114.848, 308.701
116.243, 446.509
117.638, 368.678
119.032, 597.340
120.426, 263.402
121.820, 234.101
123.214, 104.252
124.608, 207.265
126.001, 111.956
127.394, 110.406
128.787, 176.864
130.179, 35.404
131.571, 159.130
132.963, 29.158
134.355, 98.692
135.747, 37.096
137.138, 94.086
138.529, 102.513
139.920, 77.159
141.311, 196.888
142.701, 71.601
144.091, 155.836
145.481, 95.752
146.870, 107.757
148.260, 162.385
149.649, 64.250
151.038, 133.532
152.426, 101.861
153.815, 174.205
155.203, 189.135
156.591, 193.208
157.979, 305.031
159.366, 445.832
160.753, 1330.589
162.140, 2336.287
163.527, 2590.927
164.913, 1172.516
166.300, 480.157
167.686, 219.890
169.071, 74.022
170.457, 106.774
171.842, 1.813
173.227, 142.488
174.612, 31.907
175.996, 24.132
177.381, 61.104
178.765, 56.951
180.149, 73.223
181.532, 19.581
182.915, 37.645
184.299, 45.145
185.681, 0.925
187.064, 72.125
188.446, 3.785
189.828, 47.337
191.210, 46.514
192.592, 74.521
193.973, 75.187
195.355, 4.738
196.736, 95.854
198.116, 36.559
199.497, 38.901
200.877, 15.014
202.257, 33.766
203.637, 22.800
205.016, 34.136
206.395, 94.779
207.774, 21.185
209.153, 98.873
210.532, 14.260
211.910, 28.258
213.288, 101.792
214.666, 44.492
216.043, 178.746
217.421, 231.541
218.798, 549.832
220.175, 1326.011
221.551, 4930.709
222.928, 3700.472
224.304, 7547.840
225.680, 3114.123
227.055, 958.585
228.431, 472.877
229.806, 273.433
231.181, 246.883
232.556, 323.410
233.930, 139.011
235.304, 139.337
236.678, 45.812
238.052, 78.930
239.426, 48.187
240.799, 30.035
242.172, 46.379
243.545, 8.700
244.917, 57.530
246.290, 55.360
247.662, 59.332
249.034, 114.138
250.405, 34.084
251.777, 142.083
253.148, 111.341
254.519, 255.888
255.889, 280.094
257.260, 318.025
258.630, 233.879
260.000, 105.805
261.370, 142.184
262.739, 67.099
264.108, 52.117
265.477, 120.630
266.846, 26.167
268.215, 128.696
269.583, 25.203
270.951, 63.674
272.319, 63.102
273.686, 158.600
275.054, 265.015
276.421, 657.287
277.788, 1022.715
279.154, 827.865
280.521, 952.955
281.887, 710.983
283.253, 343.947
284.619, 177.842
285.984, 39.662
287.349, 74.404
288.714, 30.073
290.079, 62.660
291.444, 42.174
292.808, 53.625
294.172, 98.037
295.536, 15.346
296.899, 116.631
298.263, 48.947
299.626, 52.125
300.989, 30.112
302.351, 22.134
303.714, 98.016
305.076, 8.706
306.438, 61.380
307.799, 72.778
309.161, 50.328
310.522, 74.606
311.883, 9.136
313.244, 94.189
314.604, 30.153
315.965, 95.304
317.325, 35.397
318.684, 2.522
320.044, 51.608
321.403, 15.669
322.762, 66.714
324.121, 29.745
325.480, 69.760
326.838, 74.762
328.196, 25.250
329.554, 90.713
330.912, 15.140
332.270, 35.070
333.627, 53.683
334.984, 29.360
336.341, 144.604
337.697, 25.557
339.053, 99.545
340.409, 47.398
341.765, 88.694
343.121, 129.242
344.476, 57.726
345.831, 117.495
347.186, 208.206
348.541, 318.420
349.895, 362.335
351.250, 201.665
352.604, 185.415
353.957, 70.844
355.311, 137.921
356.664, 85.411
358.017, 29.712
359.370, 104.964
360.722, 38.321
362.075, 102.009
363.427, 24.946
364.779, 83.497
366.130, 45.336
367.482, 38.012
368.833, 94.824
370.184, 22.046
371.535, 33.619
372.885, 36.821
374.235, 54.251
375.585, 77.910
376.935, 10.110
378.285, 130.897
379.634, 199.245
380.983, 398.582
382.332, 1046.906
383.680, 3096.360
385.029, 2330.879
386.377, 3974.210
387.725, 1784.582
389.073, 697.875
390.420, 368.237
391.767, 262.535
393.114, 50.801
394.461, 191.059
395.808, 96.307
397.154, 102.522
398.500, 125.747
399.846, 47.584
401.191, 141.578
402.537, 30.391
403.882, 3.214
405.227, 47.093
406.571, 7.267
407.916, 32.674
409.260, 21.300
410.604, 62.989
411.948, 64.166
413.291, 41.553
414.635, 114.825
415.978, 43.002
417.321, 60.255
418.663, 40.494
420.006, 14.734
421.348, 22.033
422.690, 15.060
424.031, 108.264
425.373, 24.826
426.714, 159.988
428.055, 181.074
429.396, 231.634
430.736, 355.731
432.077, 215.255
433.417, 125.113
434.757, 44.885
436.096, 51.959
437.436, 128.017
438.775, 20.058
440.114, 184.079
441.452, 281.092
442.791, 692.089
444.129, 1814.079
445.467, 1753.370
446.805, 1672.844
448.142, 2013.453
449.480, 885.089
450.817, 397.420
452.154, 169.974
453.490, 179.374
454.827, 62.854
456.163, 158.512
457.499, 101.586
458.835, 25.292
460.170, 141.675
461.505, 88.071
462.840, 183.271
464.175, 238.367
465.510, 564.929
466.844, 589.803
468.178, 342.190
469.512, 193.616
470.846, 57.926
472.179, 69.341
473.512, 66.298
474.845, 25.779
476.178, 107.893
477.511, 16.363
478.843, 100.509
480.175, 141.188
481.507, 144.453
482.839, 301.383
484.170, 283.697
485.501, 274.321
486.832, 258.083
488.163, 149.410
489.493, 132.368
490.823, 8.251
492.153, 67.639
493.483, 18.719
494.813, 41.920
496.142, 1.055
497.471, 1.473
498.800, 41.469
500.129, 39.852
501.457, 92.016
502.785, 5.350
504.113, 23.865
505.441, 38.098
506.769, 12.403
508.096, 27.098
509.423, 64.610
510.750, 74.121
512.077, 106.626
513.403, 4.868
514.729, 110.457
516.055, 1.965
517.381, 118.375
518.706, 144.547
520.032, 202.037
521.357, 258.244
522.681, 482.738
524.006, 1142.911
525.330, 2421.330
526.655, 3373.587
527.978, 2810.813
529.302, 1235.298
530.626, 633.476
531.949, 207.719
533.272, 119.970
534.595, 166.296
535.917, 31.720
537.239, 167.849
538.562, 45.309
539.883, 76.293
541.205, 89.740
542.527, 10.653
543.848, 21.085
545.169, 5.510
546.489, 16.221
547.810, 59.325
549.130, 16.283
550.450, 33.092
551.770, 56.460
553.090, 48.683
554.409, 43.037
555.728, 44.917
557.047, 55.615
558.366, 34.787
559.685, 43.979
561.003, 46.961
562.321, 22.139
563.639, 42.351
564.956, 7.895
566.274, 105.481
567.591, 38.292
568.908, 12.346
570.225, 75.543
571.541, 10.982
572.857, 65.096
574.173, 54.322
575.489, 88.393
576.805, 141.529
578.120, 77.457
579.435, 74.459
580.750, 129.224
582.065, 73.201
583.380, 114.372
584.694, 73.686
586.008, 96.829
587.322, 104.979
588.635, 68.268
589.949, 126.405
591.262, 46.015
592.575, 121.001
593.887, 120.000
595.200, 92.707
596.512, 122.810
597.824, 205.687
599.136, 481.928
600.447, 610.008
601.759, 690.208
603.070, 464.272
604.381, 256.329
605.692, 218.379
607.002, 121.423
608.312, 165.461
609.622, 231.495
610.932, 66.523
612.242, 227.546
613.551, 154.544
614.860, 409.556
616.169, 593.563
617.478, 794.395
618.786, 711.392
620.094, 358.383
621.402, 383.371
622.710, 358.355
624.018, 302.333
625.325, 575.309
626.632, 366.280
627.939, 510.246
629.246, 393.192
630.552, 301.149
631.859, 406.107
633.165, 189.919
634.471, 304.869
635.776, 151.638
637.082, 154.578
638.387, 194.517
639.692, 102.452
640.996, 240.385
642.301, 150.313
643.605, 247.238
644.909, 315.158
646.213, 274.074
647.516, 367.997
648.820, 324.437
650.123, 342.353
651.426, 431.132
652.729, 318.006
654.031, 344.677
655.333, 247.377
656.636, 266.245
657.937, 268.104
659.239, 213.994
660.540, 309.704
661.842, 303.489
663.142, 259.332
664.443, 289.519
665.744, 321.838
667.044, 404.173
668.344, 422.032
669.644, 526.887
670.944, 550.417
672.243, 312.264
673.542, 185.932
674.841, 170.771
676.140, 116.605
677.438, 114.435
678.737, 68.263
680.035, 179.086
681.333, 162.906
682.630, 194.723
683.928, 388.536
685.225, 538.346
686.522, 935.152
687.819, 920.956
689.115, 758.756
690.412, 471.553
691.708, 201.347
693.004, 129.110
694.300, 55.898
695.595, 4.682
696.890, 51.457
698.185, 42.771
699.480, 95.842
700.775, 68.497
702.069, 118.084
703.363, 307.741
704.657, 250.465
705.951, 310.110
707.244, 228.806
708.538, 22.523
709.831, 90.238
711.124, 53.051
712.416, 37.376
713.709, 67.729
715.001, 14.821
716.293, 17.590
717.585, 120.012
718.876, 5.362
720.167, 33.182
721.459, 50.952
722.749, 20.499
724.040, 27.353
725.331, 27.926
726.621, 2.346
727.911, 23.127
729.201, 20.541
730.490, 65.929
731.780, 99.342
733.069, 26.246
734.358, 5.149
735.646, 31.542
736.935, 4.942
738.223, 29.340
739.511, 9.263
740.799, 13.866
742.087, 47.521
743.374, 65.093
744.661, 14.257
745.948, 23.393
747.235, 13.123
748.522, 34.205
749.808, 10.467
751.094, 77.861
752.380, 46.189
753.666, 36.481
754.951, 21.830
756.236, 36.859
757.521, 2.437
758.806, 39.733
760.091, 80.032
761.375, 119.332
762.659, 116.634
763.943, 309.941
765.227, 524.249
766.511, 501.559
767.794, 478.870
769.077, 255.183
770.360, 279.498
771.643, 234.814
772.925, 222.133
774.207, 310.455
775.489, 366.777
776.771, 780.103
778.053, 896.430
779.334, 781.760
780.615, 630.091
781.896, 403.426
783.177, 453.763
784.457, 645.103
785.738, 878.445
787.018, 1464.790
788.298, 1372.139
789.577, 976.490
790.857, 730.845
792.136, 345.204
793.415, 284.565
794.694, 298.929
795.972, 160.297
797.251, 262.673
798.529, 150.051
799.807, 307.433
801.084, 249.819
802.362, 383.209
803.639, 638.605
804.916, 824.005
806.193, 804.917
807.470, 1003.820
808.746, 647.235
810.022, 520.654
811.298, 264.078
812.574, 209.506
813.850, 162.938
815.125, 75.376
816.400, 219.818
817.675, 97.266
818.950, 159.720
820.224, 153.182
821.499, 73.647
822.773, 124.118
824.047, 147.599
825.320, 163.088
826.594, 182.205
827.867, 150.083
829.140, 185.589
830.413, 170.785
831.685, 149.619
832.958, 180.141
834.230, 190.669
835.502, 210.202
836.774, 211.518
838.045, 224.286
839.316, 207.836
840.588, 212.395
841.858, 216.959
843.129, 295.530
844.400, 327.112
845.670, 358.701
846.940, 250.300
848.210, 460.907
849.479, 419.989
850.749, 382.610
852.018, 477.771
853.287, 387.418
854.556, 608.081
855.824, 604.752
857.093, 710.442
858.361, 786.152
859.629, 814.875
860.896, 1045.613
862.164, 1071.358
863.431, 1003.111
864.698, 1329.941
865.965, 1310.776
867.232, 1495.729
868.498, 1967.520
869.764, 2203.665
871.030, 3266.408
872.296, 4014.993
873.562, 6084.239
874.827, 10355.432
876.092, 18248.562
877.357, 39351.293
878.622, 60086.176
879.886, 60420.777
881.151, 46085.695
882.415, 24680.621
883.679, 14425.552
884.942, 8780.494
886.206, 5663.564
887.469, 4582.457
888.732, 3265.430
889.995, 2655.354
891.258, 2360.359
892.520, 1764.632
893.782, 1837.672
895.044, 1481.715
896.306, 1400.625
897.568, 1437.695
898.829, 1091.318
900.090, 1190.571
901.351, 1084.695
902.612, 964.432
903.872, 1030.580
905.133, 842.738
906.393, 1032.755
907.653, 974.936
908.912, 851.648
910.172, 1112.856
911.431, 1093.551
912.690, 1442.787
913.949, 1913.034
915.208, 2575.091
916.466, 2848.674
917.724, 3785.655
918.982, 3495.958
920.240, 3004.269
921.498, 3101.592
922.755, 4722.928
924.012, 5908.275
925.269, 5403.639
926.526, 4125.012
927.782, 2309.401
929.039, 1669.802
930.295, 1228.216
931.551, 949.642
932.806, 1054.079
934.062, 1003.529
935.317, 1241.993
936.572, 1654.469
937.827, 1802.957
939.082, 2005.457
940.336, 1719.969
941.590, 1473.494
942.844, 1551.031
944.098, 1370.580
945.352, 1817.142
946.605, 2403.716
947.859, 3948.236
949.112, 7338.834
950.364, 9194.444
951.617, 9920.122
952.869, 7275.758
954.121, 4277.405
955.373, 2883.065
956.625, 1810.004
957.877, 1300.688
959.128, 1023.385
960.379, 743.094
961.630, 665.815
962.881, 534.547
964.131, 468.293
965.381, 506.051
966.631, 274.820
967.881, 436.602
969.131, 358.396
970.380, 215.382
971.630, 203.200
972.879, 228.029
974.128, 130.303
975.376, 191.158
976.625, 102.023
977.873, 79.265
979.121, 19.155
980.369, 125.057
981.616, 35.971
982.864, 75.896
984.111, 99.833
985.358, 40.782
986.605, 175.743
987.851, 171.715
989.097, 219.699
990.344, 227.196
991.589, 320.204
992.835, 270.223
994.081, 391.446
995.326, 371.489
996.571, 416.538
997.816, 543.620
999.061, 407.697
1000.305, 724.080
1001.550, 729.640
1002.794, 806.188
1004.037, 673.085
1005.281, 540.331
1006.525, 629.050
1007.768, 614.061
1009.011, 727.242
1010.254, 838.299
1011.496, 1039.711
1012.739, 1131.925
1013.981, 1237.175
1015.223, 1416.481
1016.465, 1609.699
1017.706, 1993.003
1018.948, 2294.318
1020.189, 2263.378
1021.430, 2307.115
1022.671, 2000.501
1023.911, 1615.909
1025.152, 1109.342
1026.392, 978.793
1027.632, 702.263
1028.872, 438.742
1030.111, 471.752
1031.350, 288.250
1032.590, 277.759
1033.829, 296.275
1035.067, 244.801
1036.306, 219.344
1037.544, 109.896
1038.782, 159.457
1040.020, 153.730
1041.258, 23.309
1042.495, 147.902
1043.733, 69.086
1044.970, 66.700
1046.207, 103.576
1047.443, 23.134
1048.680, 156.799
1049.916, 120.489
1051.152, 45.674
1052.388, 49.022
1053.624, 84.726
1054.859, 20.436
1056.094, 70.180
1057.329, 28.348
1058.564, 90.409
1059.799, 22.796
1061.033, 113.996
1062.268, 126.795
1063.502, 31.411
1064.735, 102.395
1065.969, 81.218
1067.202, 2.050
1068.436, 77.888
1069.669, 49.742
1070.902, 52.603
1072.134, 88.468
1073.367, 35.217
1074.599, 124.095
1075.831, 68.979
1077.062, 98.388
1078.294, 188.292
1079.525, 79.203
1080.757, 251.119
1081.988, 187.039
1083.218, 168.294
1084.449, 209.232
1085.679, 205.175
1086.909, 157.158
1088.139, 186.144
1089.369, 80.135
1090.599, 112.130
1091.828, 104.130
1093.057, 54.135
1094.286, 161.145
1095.515, 28.843
1096.744, 30.167
1097.972, 59.180
1099.200, 2.803
1100.428, 30.216
1101.656, 77.240
1102.883, 49.267
1104.111, 10.703
1105.338, 53.327
1106.565, 53.361
1107.791, 63.398
1109.018, 65.439
1110.244, 62.086
1111.470, 67.528
1112.696, 28.577
1113.922, 89.628
1115.147, 26.683
1116.373, 34.740
1117.598, 6.201
1118.823, 88.858
1120.047, 83.929
1121.272, 31.997
1122.496, 58.065
1123.720, 62.130
1124.944, 9.803
1126.168, 80.262
1127.391, 31.329
1128.615, 9.397
1129.838, 103.466
1131.061, 10.541
1132.283, 40.617
1133.506, 30.695
1134.728, 32.773
1135.950, 48.272
1137.172, 10.065
1138.394, 36.013
1139.615, 52.092
1140.837, 21.828
1142.058, 28.242
1143.279, 17.689
1144.499, 2.372
1145.720, 33.433
1146.940, 3.507
1148.160, 23.450
1149.380, 22.406
1150.600, 27.376
1151.819, 1.637
1153.038, 23.353
1154.257, 43.356
1155.476, 120.657
1156.695, 30.374
1157.913, 64.575
1159.132, 46.657
1160.350, 44.396
1161.568, 57.522
1162.785, 36.439
1164.003, 45.354
1165.220, 45.268
1166.437, 5.178
1167.654, 58.084
1168.871, 109.989
1170.087, 24.891
1171.304, 126.789
1172.520, 41.685
1173.736, 12.577
1174.951, 148.466
1176.167, 15.648
1177.382, 58.220
1178.597, 87.085
1179.812, 22.947
1181.027, 134.805
1182.241, 49.671
1183.455, 29.520
1184.669, 140.366
1185.883, 31.728
1187.097, 34.085
1188.311, 24.405
1189.524, 12.791
1190.737, 91.995
1191.950, 6.637
1193.162, 64.874
1194.375, 101.843
1195.587, 35.575
1196.799, 18.281
1198.011, 135.695
1199.223, 83.389
1200.434, 96.077
1201.646, 34.876
1202.857, 5.553
1204.068, 157.573
1205.279, 3.368
1206.489, 44.539
1207.699, 138.175
1208.909, 4.125
1210.119, 145.947
1211.329, 176.387
1212.539, 69.652
1213.748, 237.243
1214.957, 141.275
1216.166, 148.856
1217.375, 220.430
1218.583, 10.291
1219.792, 204.843
1221.000, 159.395
1222.208, 22.419
1223.415, 244.953
1224.623, 159.480
1225.830, 148.158
1227.037, 317.670
1228.244, 32.947
1229.451, 189.443
1230.658, 326.112
1231.864, 106.476
1233.070, 345.949
1234.276, 150.641
1235.482, 205.098
1236.687, 334.547
1237.893, 208.254
1239.098, 221.690
1240.303, 255.120
1241.508, 154.989
1242.712, 254.408
1243.917, 224.821
1245.121, 162.242
1246.325, 416.644
1247.529, 98.040
1248.732, 214.431
1249.936, 302.548
1251.139, 98.118
1252.342, 276.491
1253.545, 201.857
1254.747, 182.218
1255.950, 343.571
1257.152, 169.919
1258.354, 256.276
1259.556, 289.610
1260.758, 160.938
1261.959, 371.259
1263.160, 247.394
1264.361, 224.002
1265.562, 372.303
1266.763, 247.166
1267.963, 284.656
1269.164, 452.938
1270.364, 125.849
1271.563, 429.116
1272.763, 400.377
1273.963, 280.632
1275.162, 351.710
1276.361, 297.952
1277.560, 171.209
1278.759, 286.439
1279.957, 236.663
1281.155, 258.166
1282.354, 245.875
1283.551, 114.079
1284.749, 310.433
1285.947, 154.428
1287.144, 267.606
1288.341, 215.783
1289.538, 127.912
1290.735, 264.052
1291.931, 309.873
1293.128, 112.521
1294.324, 262.158
1295.520, 246.448
1296.716, 148.375
1297.911, 324.826
1299.107, 85.972
1300.302, 199.947
1301.497, 157.842
1302.692, 67.786
1303.886, 276.719
1305.081, 195.605
1306.275, 140.509
1307.469, 412.340
1308.663, 170.162
1309.856, 201.974
1311.050, 288.686
1312.243, 199.478
1313.436, 279.260
1314.629, 362.033
1315.822, 192.797
1317.014, 395.552
1318.206, 282.296
1319.398, 165.032
1320.590, 451.238
1321.782, 140.955
1322.974, 363.638
1324.165, 290.311
1325.356, 91.971
1326.547, 302.620
1327.738, 184.257
1328.928, 79.875
1330.119, 281.776
1331.309, 34.366
1332.499, 102.940
1333.688, 225.923
1334.878, 29.471
1336.067, 182.769
1337.256, 124.381
1338.445, 24.111
1339.634, 216.373
1340.823, 91.707
1342.011, 94.175
1343.199, 214.633
1344.388, 25.918
1345.575, 143.505
1346.763, 167.199
1347.950, 74.387
1349.138, 225.988
1350.325, 106.363
1351.512, 37.729
1352.698, 275.099
1353.885, 22.546
1355.071, 18.791
1356.257, 210.121
1357.443, 16.555
1358.629, 189.755
1359.814, 250.062
1361.000, 38.368
1362.185, 304.796
1363.370, 130.846
1364.554, 16.849
1365.739, 300.939
1366.923, 102.239
1368.107, 51.546
1369.291, 226.859
1370.475, 5.817
1371.659, 82.188
1372.842, 48.423
1374.025, 103.380
1375.208, 187.771
1376.391, 42.893
1377.574, 106.998
1378.756, 305.096
1379.939, 39.211
1381.121, 216.023
1382.303, 398.826
1383.484, 31.618
1384.666, 308.399
1385.847, 257.167
1387.028, 65.926
1388.209, 325.669
1389.390, 260.401
1390.570, 97.120
1391.751, 395.826
1392.931, 47.521
1394.111, 251.180
1395.291, 165.840
1396.470, 83.489
1397.649, 275.126
1398.829, 130.745
1400.008, 79.346
1401.187, 275.934
1402.365, 165.506
1403.544, 162.066
1404.722, 376.626
1405.900, 14.816
1407.078, 326.730
1408.255, 345.292
1409.433, 46.872
1410.610, 330.419
1411.787, 195.042
1412.964, 141.493
1414.141, 386.145
1415.317, 106.791
1416.494, 12.432
1417.670, 303.069
1418.846, 79.702
1420.022, 210.331
1421.197, 401.965
1422.373, 40.606
1423.548, 338.227
1424.723, 240.864
1425.898, 54.421
1427.072, 395.324
1428.247, 177.114
1429.421, 144.839
1430.595, 487.882
1431.769, 277.592
1432.942, 415.306
1434.116, 535.963
1435.289, 315.522
1436.462, 620.534
1437.635, 567.293
1438.808, 451.647
1439.981, 863.865
1441.153, 553.767
1442.325, 592.185
1443.497, 846.071
1444.669, 419.123
1445.840, 668.128
1447.012, 890.072
1448.183, 546.036
1449.354, 886.618
1450.525, 806.101
1451.696, 576.084
1452.866, 954.253
1454.036, 725.021
1455.206, 548.894
1456.376, 1076.734
1457.546, 508.113
1458.716, 616.876
1459.885, 807.603
1461.054, 380.254
1462.223, 681.905
1463.392, 656.846
1464.560, 365.295
1465.729, 757.171
1466.897, 438.503
1468.065, 379.774
1469.233, 608.702
1470.400, 360.722
1471.568, 405.898
1472.735, 630.793
1473.902, 342.135
1475.069, 472.869
1476.236, 540.622
1477.402, 112.404
1478.569, 527.374
1479.735, 463.418
1480.901, 236.530
1482.066, 569.636
1483.232, 167.796
1484.397, 319.201
1485.562, 543.841
1486.727, 103.474
1487.892, 368.102
1489.057, 361.714
1490.221, 140.315
1491.386, 374.902
1492.550, 222.733
1493.714, 79.617
1494.877, 428.604
1496.041, 163.750
1497.204, 88.048
1498.367, 439.514
1499.530, 33.152
1500.693, 202.967
1501.856, 432.978
1503.018, 25.814
1504.180, 387.597
1505.342, 222.260
1506.504, 62.229
1507.666, 334.538
1508.827, 165.235
1509.988, 90.368
1511.149, 467.003
1512.310, 0.121
1513.471, 70.223
1514.631, 426.581
1515.792, 8.143
1516.952, 88.365
1518.112, 303.050
1519.272, 0.000
##END=



