##NAMES=Phenakite
##RRUFFID=R040132
##IDEAL CHEMISTRY=Be_2_SiO_4_
##LOCALITY=Krager√∏, Telemark, Norway
##OWNER=RRUFF
##SOURCE=University of Arizona Mineral Museum
##DESCRIPTION=Colorless fragments
##STATUS=The identification of this mineral has been confirmed by X-ray diffraction and chemical analysis
##URL=rruff.info/R040132
##MEASURED CHEMISTRY=Be_2.02_Si_0.99_O_4_
##PIN_ID=L00330
##ORIENTATION=Laser parallel to -c* (0 0 -1). Fiducial mark perpendicular to laser is parallel to -a [-1 0 0]
109.266, 0.000
110.662, 1.301
112.057, 41.302
113.453, 103.144
114.848, 138.366
116.243, 216.968
117.638, 227.662
119.032, 319.973
120.426, 230.753
121.820, 181.417
123.214, 125.777
124.608, 184.709
126.001, 124.124
127.394, 86.945
128.787, 154.124
130.179, 116.059
131.571, 196.197
132.963, 144.485
134.355, 164.919
135.747, 120.492
137.138, 105.217
138.529, 153.088
139.920, 112.092
141.311, 197.212
142.701, 119.447
144.091, 118.749
145.481, 156.123
146.870, 112.557
148.260, 141.401
149.649, 130.741
151.038, 59.086
152.426, 113.025
153.815, 148.448
155.203, 171.996
156.591, 289.651
157.979, 493.355
159.366, 622.146
160.753, 1294.947
162.140, 1877.910
163.527, 1883.089
164.913, 1120.414
166.300, 494.736
167.686, 314.049
169.071, 134.477
170.457, 100.872
171.842, 83.235
173.227, 90.581
174.612, 31.910
175.996, 0.233
177.381, 63.534
178.765, 33.811
180.149, 14.063
181.532, 23.294
182.915, 42.504
184.299, 40.701
185.681, 7.114
187.064, 2.058
188.446, 50.785
189.828, 20.431
191.210, 55.626
192.592, 55.802
193.973, 49.951
195.355, 9.916
196.736, 64.205
198.116, 18.317
199.497, 44.462
200.877, 9.792
202.257, 11.811
203.637, 23.828
205.016, 52.845
206.395, 85.822
207.774, 32.160
209.153, 60.132
210.532, 62.106
211.910, 76.115
213.288, 86.702
214.666, 123.612
216.043, 288.013
217.421, 520.668
218.798, 998.062
220.175, 1670.721
221.551, 3829.453
222.928, 5647.186
224.304, 4926.941
225.680, 2684.137
227.055, 1106.097
228.431, 532.823
229.806, 266.519
231.181, 143.217
232.556, 111.900
233.930, 51.590
235.304, 69.381
236.678, 77.844
238.052, 48.597
239.426, 48.280
240.799, 36.614
242.172, 72.703
243.545, 26.378
244.917, 16.058
246.290, 54.737
247.662, 28.415
249.034, 56.092
250.405, 29.769
251.777, 130.444
253.148, 124.130
254.519, 176.858
255.889, 236.563
257.260, 227.264
258.630, 206.392
260.000, 31.134
261.370, 104.057
262.739, 1.762
264.108, 50.511
265.477, 77.347
266.846, 31.028
268.215, 74.965
269.583, 21.606
270.951, 40.245
272.319, 69.892
273.686, 93.551
275.054, 270.010
276.421, 524.413
277.788, 735.012
279.154, 712.688
280.521, 762.423
281.887, 503.207
283.253, 295.031
284.619, 163.888
285.984, 34.773
287.349, 39.683
288.714, 1.613
290.079, 45.440
291.444, 57.509
292.808, 62.472
294.172, 50.446
295.536, 32.428
296.899, 15.418
298.263, 29.455
299.626, 17.456
300.989, 32.461
302.351, 15.529
303.714, 15.478
305.076, 9.512
306.438, 44.496
307.799, 45.506
309.161, 46.986
310.522, 51.528
311.883, 36.539
313.244, 5.549
314.604, 31.382
315.965, 10.588
317.325, 28.005
318.684, 35.028
320.044, 18.947
321.403, 51.080
322.762, 13.120
324.121, 24.833
325.480, 42.216
326.838, 19.721
328.196, 13.345
329.554, 12.579
330.912, 17.499
332.270, 38.413
333.627, 47.588
334.984, 42.685
336.341, 43.399
337.697, 18.297
339.053, 24.191
340.409, 7.901
341.765, 51.021
343.121, 41.838
344.476, 19.412
345.831, 89.261
347.186, 161.129
348.541, 196.970
349.895, 214.722
351.250, 94.554
352.604, 124.702
353.957, 32.582
355.311, 26.401
356.664, 36.215
358.017, 15.025
359.370, 29.533
360.722, 0.488
362.075, 49.282
363.427, 19.071
364.779, 28.833
366.130, 53.590
367.482, 50.344
368.833, 104.093
370.184, 2.830
371.535, 78.553
372.885, 7.273
374.235, 68.987
375.585, 100.697
376.935, 71.717
378.285, 202.386
379.634, 342.047
380.983, 697.794
382.332, 1461.402
383.680, 2770.997
385.029, 3896.590
386.377, 3142.178
387.725, 1703.979
389.073, 825.555
390.420, 312.175
391.767, 278.721
393.114, 55.621
394.461, 66.161
395.808, 61.697
397.154, 34.534
398.500, 103.209
399.846, 52.795
401.191, 115.329
402.537, 46.861
403.882, 10.940
405.227, 44.457
406.571, 48.971
407.916, 33.712
409.260, 36.016
410.604, 20.682
411.948, 41.212
413.291, 46.893
414.635, 107.447
415.978, 31.980
417.321, 64.530
418.663, 24.084
420.006, 56.653
421.348, 98.206
422.690, 50.244
424.031, 136.405
425.373, 56.954
426.714, 106.624
428.055, 190.167
429.396, 198.706
430.736, 213.102
432.077, 176.765
433.417, 169.004
434.757, 139.528
436.096, 68.047
437.436, 138.651
438.775, 153.176
440.114, 264.697
441.452, 578.222
442.791, 855.741
444.129, 1861.264
445.467, 2809.789
446.805, 2902.310
448.142, 1759.824
449.480, 977.333
450.817, 515.813
452.154, 216.399
453.490, 252.889
454.827, 125.373
456.163, 109.851
457.499, 162.322
458.835, 43.786
460.170, 164.244
461.505, 113.694
462.840, 226.139
464.175, 254.420
465.510, 472.851
466.844, 509.512
468.178, 295.930
469.512, 220.339
470.846, 106.743
472.179, 94.139
473.512, 164.573
474.845, 35.934
476.178, 69.034
477.511, 13.421
478.843, 123.777
480.175, 73.877
481.507, 160.219
482.839, 325.684
484.170, 244.840
485.501, 390.162
486.832, 237.884
488.163, 155.191
489.493, 188.224
490.823, 72.495
492.153, 98.778
493.483, 17.570
494.813, 51.840
496.142, 79.103
497.471, 61.358
498.800, 106.595
500.129, 43.836
501.457, 109.043
502.785, 97.527
504.113, 15.253
505.441, 121.921
506.769, 40.111
508.096, 70.295
509.423, 46.475
510.750, 79.648
512.077, 44.814
513.403, 31.981
514.729, 139.141
516.055, 76.290
517.381, 96.435
518.706, 200.494
520.032, 231.625
521.357, 411.151
522.681, 707.269
524.006, 1158.329
525.330, 2294.427
526.655, 2847.523
527.978, 2215.613
529.302, 1215.696
530.626, 608.253
531.949, 363.322
533.272, 203.053
534.595, 239.110
535.917, 11.160
537.239, 111.200
538.562, 39.234
539.883, 23.487
541.205, 95.506
542.527, 65.518
543.848, 86.524
545.169, 121.523
546.489, 16.516
547.810, 89.500
549.130, 27.478
550.450, 80.448
551.770, 9.588
553.090, 43.358
554.409, 100.296
555.728, 24.771
557.047, 20.592
558.366, 34.658
559.685, 71.549
561.003, 125.613
562.321, 5.491
563.639, 53.973
564.956, 48.833
566.274, 105.000
567.591, 64.804
568.908, 25.496
570.225, 59.219
571.541, 27.029
572.857, 44.876
574.173, 65.954
575.489, 53.388
576.805, 125.029
578.120, 53.670
579.435, 115.775
580.750, 169.705
582.065, 35.352
583.380, 80.907
584.694, 39.654
586.008, 79.401
587.322, 80.131
588.635, 6.854
589.949, 124.586
591.262, 3.717
592.575, 111.404
593.887, 114.071
595.200, 48.966
596.512, 159.051
597.824, 131.693
599.136, 344.967
600.447, 491.593
601.759, 466.079
603.070, 317.546
604.381, 139.147
605.692, 113.739
607.002, 135.324
608.312, 82.900
609.622, 162.468
610.932, 108.041
612.242, 243.605
613.551, 189.162
614.860, 341.711
616.169, 575.251
617.478, 522.742
618.786, 462.266
620.094, 271.782
621.402, 204.291
622.710, 211.797
624.018, 52.295
625.325, 214.789
626.632, 144.275
627.939, 122.754
629.246, 131.225
630.552, 49.688
631.859, 97.143
633.165, 74.500
634.471, 52.950
635.776, 101.944
637.082, 44.621
638.387, 202.782
639.692, 15.176
640.996, 47.572
642.301, 129.966
643.605, 21.354
644.909, 113.743
646.213, 72.124
647.516, 75.504
648.820, 127.877
650.123, 18.244
651.426, 141.336
652.729, 100.684
654.031, 86.025
655.333, 62.360
656.636, 81.956
657.937, 97.053
659.239, 145.307
660.540, 165.636
661.842, 205.240
663.142, 245.556
664.443, 325.845
665.744, 315.875
667.044, 386.172
668.344, 502.465
669.644, 442.749
670.944, 451.972
672.243, 374.246
673.542, 174.515
674.841, 201.777
676.140, 107.035
677.438, 225.287
678.737, 137.536
680.035, 147.779
681.333, 221.018
682.630, 207.250
683.928, 419.479
685.225, 567.701
686.522, 782.918
687.819, 749.133
689.115, 622.631
690.412, 424.837
691.708, 236.040
693.004, 205.905
694.300, 127.097
695.595, 14.265
696.890, 154.329
698.185, 88.505
699.480, 76.677
700.775, 125.844
702.069, 64.007
703.363, 304.951
704.657, 245.107
705.951, 256.188
707.244, 217.335
708.538, 167.555
709.831, 40.262
711.124, 69.399
712.416, 2.228
713.709, 40.791
715.001, 53.256
716.293, 7.347
717.585, 31.432
718.876, 18.960
720.167, 19.042
721.459, 44.880
722.749, 23.167
724.040, 6.789
725.331, 41.900
726.621, 62.104
727.911, 10.047
729.201, 30.084
730.490, 37.117
731.780, 55.910
733.069, 46.722
734.358, 32.394
735.646, 2.489
736.935, 52.366
738.223, 88.862
739.511, 52.980
740.799, 13.307
742.087, 67.523
743.374, 18.351
744.661, 46.841
745.948, 77.959
747.235, 22.960
748.522, 106.823
749.808, 36.394
751.094, 6.709
752.380, 100.048
753.666, 28.196
754.951, 60.546
756.236, 32.713
757.521, 32.989
758.806, 130.718
760.091, 77.425
761.375, 105.132
762.659, 132.839
763.943, 175.547
765.227, 384.255
766.511, 395.964
767.794, 361.674
769.077, 235.384
770.360, 160.095
771.643, 220.807
772.925, 148.521
774.207, 251.235
775.489, 409.950
776.771, 464.667
778.053, 472.001
779.334, 473.061
780.615, 406.782
781.896, 355.504
783.177, 317.228
784.457, 604.954
785.738, 794.637
787.018, 982.367
788.298, 1131.100
789.577, 678.810
790.857, 619.550
792.136, 303.998
793.415, 193.743
794.694, 228.784
795.972, 97.499
797.251, 100.252
798.529, 121.542
799.807, 137.303
801.084, 234.067
802.362, 194.834
803.639, 520.604
804.916, 654.864
806.193, 803.646
807.470, 860.432
808.746, 471.221
810.022, 391.013
811.298, 253.810
812.574, 117.610
813.850, 180.414
815.125, 35.222
816.400, 71.042
817.675, 38.866
818.950, 28.306
820.224, 11.006
821.499, 63.385
822.773, 15.236
824.047, 102.093
825.320, 64.954
826.594, 63.823
827.867, 66.698
829.140, 39.576
830.413, 124.464
831.685, 23.357
832.958, 137.254
834.230, 90.158
835.502, 81.066
836.774, 152.003
838.045, 53.945
839.316, 178.893
840.588, 85.861
841.858, 17.165
843.129, 232.812
844.400, 55.793
845.670, 207.781
846.940, 185.797
848.210, 139.820
849.479, 211.622
850.749, 223.658
852.018, 164.700
853.287, 303.780
854.556, 276.868
855.824, 336.961
857.093, 420.080
858.361, 330.205
859.629, 527.337
860.896, 480.476
862.164, 617.629
863.431, 787.789
864.698, 788.958
865.965, 995.657
867.232, 1078.683
868.498, 1443.884
869.764, 1812.925
871.030, 2378.153
872.296, 3542.392
873.562, 5384.639
874.827, 9283.579
876.092, 17455.840
877.357, 30837.229
878.622, 47796.438
879.886, 47448.719
881.151, 34099.996
882.415, 21080.047
883.679, 12179.689
884.942, 7518.178
886.206, 4850.524
887.469, 3430.563
888.732, 2747.781
889.995, 1928.167
891.258, 1793.766
892.520, 1617.175
893.782, 1279.591
895.044, 1202.026
896.306, 932.471
897.568, 962.916
898.829, 918.398
900.090, 802.453
901.351, 824.964
902.612, 752.250
903.872, 731.349
905.133, 716.894
906.393, 571.810
907.653, 752.385
908.912, 638.102
910.172, 795.841
911.431, 1052.451
912.690, 1053.072
913.949, 1525.707
915.208, 2338.354
916.466, 2801.012
917.724, 3121.681
918.982, 2728.363
920.240, 2385.056
921.498, 2810.763
922.755, 3582.479
924.012, 4745.208
925.269, 4137.949
926.526, 2950.702
927.782, 2016.467
929.039, 1347.244
930.295, 980.033
931.551, 839.833
932.806, 641.646
934.062, 853.472
935.317, 851.309
936.572, 1127.157
937.827, 1314.020
939.082, 1234.893
940.336, 1399.919
941.590, 1050.817
942.844, 1116.727
944.098, 1231.668
945.352, 1394.621
946.605, 2253.589
947.859, 3389.569
949.112, 5732.561
950.364, 7705.992
951.617, 7259.011
952.869, 5562.043
954.121, 3625.088
955.373, 2301.145
956.625, 1708.963
957.877, 1035.047
959.128, 865.143
960.379, 643.250
961.630, 512.371
962.881, 503.502
964.131, 432.646
965.381, 353.802
966.631, 356.971
967.881, 171.150
969.131, 369.342
970.380, 279.859
971.630, 144.075
972.879, 326.303
974.128, 181.542
975.376, 136.793
976.625, 180.700
977.873, 12.974
979.121, 139.260
980.369, 178.356
981.616, 9.667
982.864, 157.988
984.111, 71.321
985.358, 59.665
986.605, 203.458
987.851, 11.824
989.097, 178.201
990.344, 129.859
991.589, 128.260
992.835, 378.384
994.081, 184.805
995.326, 440.251
996.571, 352.635
997.816, 287.105
999.061, 439.603
1000.305, 341.097
1001.550, 329.601
1002.794, 494.634
1004.037, 238.162
1005.281, 628.699
1006.525, 438.282
1007.768, 573.838
1009.011, 813.422
1010.254, 815.015
1011.496, 1074.645
1012.739, 1117.534
1013.981, 1239.211
1015.223, 1513.886
1016.465, 1684.577
1017.706, 2255.285
1018.948, 2653.585
1020.189, 2717.327
1021.430, 2601.079
1022.671, 2005.840
1023.911, 1599.608
1025.152, 1304.407
1026.392, 896.213
1027.632, 788.031
1028.872, 535.104
1030.111, 459.148
1031.350, 440.022
1032.590, 314.954
1033.829, 291.874
1035.067, 312.817
1036.306, 142.225
1037.544, 189.195
1038.782, 185.174
1040.020, 161.578
1041.258, 205.595
1042.495, 168.565
1043.733, 223.616
1044.970, 123.672
1046.207, 116.292
1047.443, 152.376
1048.680, 205.581
1049.916, 190.691
1051.152, 109.800
1052.388, 116.938
1053.624, 113.472
1054.859, 79.234
1056.094, 119.982
1057.329, 143.168
1058.564, 84.366
1059.799, 123.647
1061.033, 133.864
1062.268, 76.442
1063.502, 202.670
1064.735, 155.901
1065.969, 29.141
1067.202, 202.384
1068.436, 75.631
1069.669, 120.897
1070.902, 158.166
1072.134, 75.439
1073.367, 252.716
1074.599, 37.997
1075.831, 187.282
1077.062, 219.572
1078.294, 58.864
1079.525, 130.187
1080.757, 142.484
1081.988, 46.786
1083.218, 173.116
1084.449, 140.450
1085.679, 192.789
1086.909, 197.131
1088.139, 7.524
1089.369, 218.823
1090.599, 167.172
1091.828, 38.523
1093.057, 220.876
1094.286, 78.230
1095.515, 67.585
1096.744, 108.942
1097.972, 15.700
1099.200, 201.829
1100.428, 65.186
1101.656, 107.544
1102.883, 200.098
1104.111, 22.542
1105.338, 133.029
1106.565, 158.384
1107.791, 23.739
1109.018, 166.220
1110.244, 54.576
1111.470, 77.933
1112.696, 190.291
1113.922, 38.648
1115.147, 89.137
1116.373, 91.497
1117.598, 76.144
1118.823, 207.381
1120.047, 17.708
1121.272, 76.035
1122.496, 153.505
1123.720, 15.170
1124.944, 95.146
1126.168, 210.575
1127.391, 17.111
1128.615, 233.569
1129.838, 91.871
1131.061, 112.170
1132.283, 129.467
1133.506, 92.238
1134.728, 163.146
1135.950, 62.387
1137.172, 56.374
1138.394, 223.228
1139.615, 54.530
1140.837, 82.731
1142.058, 164.310
1143.279, 79.496
1144.499, 95.452
1145.720, 15.027
1146.940, 85.166
1148.160, 105.670
1149.380, 118.651
1150.600, 87.409
1151.819, 81.813
1153.038, 62.075
1154.257, 222.936
1155.476, 71.388
1156.695, 56.388
1157.913, 156.053
1159.132, 7.661
1160.350, 36.642
1161.568, 98.181
1162.785, 47.211
1164.003, 251.170
1165.220, 28.273
1166.437, 92.648
1167.654, 212.848
1168.871, 57.233
1170.087, 94.133
1171.304, 194.502
1172.520, 86.386
1173.736, 235.261
1174.951, 19.361
1176.167, 17.782
1177.382, 268.046
1178.597, 64.139
1179.812, 129.947
1181.027, 176.748
1182.241, 19.887
1183.455, 241.874
1184.669, 83.781
1185.883, 16.521
1187.097, 206.246
1188.311, 7.745
1189.524, 161.441
1190.737, 201.160
1191.950, 17.800
1193.162, 202.842
1194.375, 61.912
1195.587, 88.729
1196.799, 92.339
1198.011, 152.928
1199.223, 125.515
1200.434, 247.090
1201.646, 2.462
1202.857, 234.000
1204.068, 136.648
1205.279, 87.429
1206.489, 376.931
1207.699, 31.790
1208.909, 113.264
1210.119, 132.726
1211.329, 157.960
1212.539, 168.965
1213.748, 217.823
1214.957, 160.548
1216.166, 237.949
1217.375, 252.587
1218.583, 183.964
1219.792, 357.330
1221.000, 129.252
1222.208, 238.687
1223.415, 295.016
1224.623, 115.461
1225.830, 274.765
1227.037, 267.058
1228.244, 253.780
1229.451, 286.048
1230.658, 272.829
1231.864, 204.630
1233.070, 358.860
1234.276, 172.485
1235.482, 386.697
1236.687, 231.897
1237.893, 209.125
1239.098, 438.296
1240.303, 190.455
1241.508, 329.606
1242.712, 290.745
1243.917, 99.905
1245.121, 302.021
1246.325, 257.129
1247.529, 97.507
1248.732, 450.592
1249.936, 92.917
1251.139, 246.264
1252.342, 243.312
1253.545, 117.437
1254.747, 300.577
1255.950, 278.594
1257.152, 154.938
1258.354, 339.931
1259.556, 119.911
1260.758, 287.503
1261.959, 368.459
1263.160, 102.350
1264.361, 201.822
1265.562, 235.721
1266.763, 117.603
1267.963, 358.472
1269.164, 192.687
1270.364, 126.683
1271.563, 339.453
1272.763, 64.394
1273.963, 196.139
1275.162, 222.831
1276.361, 172.508
1277.560, 251.288
1278.759, 119.494
1279.957, 214.104
1281.155, 352.716
1282.354, 57.018
1283.551, 128.572
1284.749, 274.115
1285.947, 20.380
1287.144, 291.278
1288.341, 24.815
1289.538, 50.261
1290.735, 246.654
1291.931, 63.054
1293.128, 37.410
1294.324, 165.234
1295.520, 62.560
1296.716, 132.079
1297.911, 262.335
1299.107, 45.410
1300.302, 247.812
1301.497, 80.979
1302.692, 23.183
1303.886, 189.117
1305.081, 31.777
1306.275, 130.274
1307.469, 243.298
1308.663, 32.690
1309.856, 230.722
1311.050, 76.687
1312.243, 36.637
1313.436, 182.567
1314.629, 0.519
1315.822, 165.371
1317.014, 329.243
1318.206, 28.901
1319.398, 196.704
1320.590, 226.326
1321.782, 14.892
1322.974, 310.834
1324.165, 202.568
1325.356, 24.285
1326.547, 318.526
1327.738, 106.207
1328.928, 257.871
1330.119, 284.100
1331.309, 41.267
1332.499, 227.404
1333.688, 135.990
1334.878, 56.562
1336.067, 333.560
1337.256, 37.307
1338.445, 94.719
1339.634, 261.221
1340.823, 31.283
1342.011, 273.187
1343.199, 252.645
1344.388, 44.911
1345.575, 427.939
1346.763, 112.391
1347.950, 77.788
1349.138, 424.108
1350.325, 53.487
1351.512, 233.502
1352.698, 383.908
1353.885, 1.264
1355.071, 307.610
1356.257, 198.122
1357.443, 39.538
1358.629, 402.783
1359.814, 83.524
1361.000, 163.836
1362.185, 429.150
1363.370, 18.729
1364.554, 121.043
1365.739, 290.365
1366.923, 112.692
1368.107, 150.002
1369.291, 181.578
1370.475, 91.068
1371.659, 235.250
1372.842, 24.692
1374.025, 21.028
1375.208, 300.382
1376.391, 24.264
1377.574, 262.626
1378.756, 313.017
1379.939, 140.522
1381.121, 376.359
1382.303, 191.422
1383.484, 195.466
1384.666, 463.312
1385.847, 41.113
1387.028, 256.869
1388.209, 418.828
1389.390, 83.635
1390.570, 293.549
1391.751, 374.297
1392.931, 84.159
1394.111, 387.818
1395.291, 132.509
1396.470, 126.344
1397.649, 533.030
1398.829, 72.404
1400.008, 251.186
1401.187, 377.812
1402.365, 19.610
1403.544, 390.838
1404.722, 388.571
1405.900, 24.362
1407.078, 470.595
1408.255, 213.201
1409.433, 169.562
1410.610, 484.287
1411.787, 108.417
1412.964, 179.738
1414.141, 499.712
1415.317, 135.194
1416.494, 247.954
1417.670, 388.446
1418.846, 105.929
1420.022, 369.395
1421.197, 216.333
1422.373, 124.543
1423.548, 395.921
1424.723, 146.472
1425.898, 157.623
1427.072, 383.385
1428.247, 84.648
1429.421, 365.414
1430.595, 335.758
1431.769, 222.392
1432.942, 553.628
1434.116, 308.761
1435.289, 199.292
1436.462, 499.831
1437.635, 70.968
1438.808, 340.766
1439.981, 506.172
1441.153, 166.745
1442.325, 437.728
1443.497, 457.507
1444.669, 108.206
1445.840, 569.121
1447.012, 387.895
1448.183, 176.504
1449.354, 636.062
1450.525, 206.613
1451.696, 387.061
1452.866, 667.549
1454.036, 237.040
1455.206, 477.409
1456.376, 597.112
1457.546, 206.733
1458.716, 546.716
1459.885, 426.567
1461.054, 255.819
1462.223, 564.305
1463.392, 354.210
1464.560, 222.724
1465.729, 672.544
1466.897, 231.898
1468.065, 381.932
1469.233, 631.954
1470.400, 181.722
1471.568, 561.835
1472.735, 461.947
1473.902, 152.093
1475.069, 511.782
1476.236, 291.965
1477.402, 52.228
1478.569, 662.615
1479.735, 212.279
1480.901, 292.707
1482.066, 523.193
1483.232, 113.556
1484.397, 354.212
1485.562, 525.148
1486.727, 96.125
1487.892, 507.146
1489.057, 308.236
1490.221, 239.424
1491.386, 460.718
1492.550, 102.188
1493.714, 283.847
1494.877, 605.675
1496.041, 77.664
1497.204, 309.832
1498.367, 512.204
1499.530, 23.473
1500.693, 466.253
1501.856, 379.313
1503.018, 72.677
1504.180, 555.998
1505.342, 159.988
1506.504, 214.375
1507.666, 548.746
1508.827, 102.088
1509.988, 247.714
1511.149, 578.072
1512.310, 150.180
1513.471, 386.456
1514.631, 453.146
1515.792, 5.779
1516.952, 547.879
1518.112, 404.847
1519.272, 2.581
1520.431, 0.000
##END=



