##NAMES=Phenakite
##RRUFFID=R040132
##IDEAL CHEMISTRY=Be_2_SiO_4_
##LOCALITY=Krager√∏, Telemark, Norway
##OWNER=RRUFF
##SOURCE=University of Arizona Mineral Museum
##DESCRIPTION=Colorless fragments
##STATUS=The identification of this mineral has been confirmed by X-ray diffraction and chemical analysis
##URL=rruff.info/R040132
##MEASURED CHEMISTRY=Be_2.02_Si_0.99_O_4_
##PIN_ID=L00303
##ORIENTATION=Laser parallel to -a* (-1 0 0). Fiducial mark perpendicular to laser is parallel to c [0 0 1]
106.473, 0.000
107.870, 101.016
109.266, 97.657
110.662, 61.751
112.057, 123.349
113.453, 101.596
114.848, 327.384
116.243, 363.051
117.638, 444.199
119.032, 350.635
120.426, 185.962
121.820, 228.890
123.214, 152.557
124.608, 228.589
126.001, 123.359
127.394, 189.227
128.787, 157.221
130.179, 36.746
131.571, 156.041
132.963, 98.200
134.355, 88.162
135.747, 127.967
137.138, 100.643
138.529, 98.667
139.920, 46.379
141.311, 164.893
142.701, 65.641
144.091, 121.562
145.481, 103.539
146.870, 107.975
148.260, 39.068
149.649, 63.023
151.038, 89.937
152.426, 64.328
153.815, 130.451
155.203, 91.795
156.591, 129.399
157.979, 210.498
159.366, 124.365
160.753, 428.196
162.140, 553.218
163.527, 611.552
164.913, 303.964
166.300, 170.351
167.686, 113.499
169.071, 17.642
170.457, 133.027
171.842, 14.621
173.227, 80.197
174.612, 23.189
175.996, 4.192
177.381, 29.155
178.765, 48.125
180.149, 38.615
181.532, 28.942
182.915, 40.460
184.299, 73.151
185.681, 14.262
187.064, 103.796
188.446, 1.881
189.828, 109.540
191.210, 24.772
192.592, 15.759
193.973, 37.605
195.355, 60.531
196.736, 131.754
198.116, 14.446
199.497, 110.610
200.877, 38.406
202.257, 101.264
203.637, 88.970
205.016, 7.892
206.395, 111.841
207.774, 62.954
209.153, 140.233
210.532, 75.989
211.910, 98.458
213.288, 176.440
214.666, 168.098
216.043, 297.108
217.421, 325.557
218.798, 575.691
220.175, 921.121
221.551, 2335.165
222.928, 1916.371
224.304, 3304.632
225.680, 1721.713
227.055, 884.130
228.431, 657.678
229.806, 1181.165
231.181, 2029.519
232.556, 2383.152
233.930, 1379.424
235.304, 685.874
236.678, 315.022
238.052, 212.928
239.426, 237.015
240.799, 95.376
242.172, 259.750
243.545, 51.431
244.917, 118.532
246.290, 111.723
247.662, 140.853
249.034, 175.992
250.405, 71.228
251.777, 240.286
253.148, 233.769
254.519, 322.795
255.889, 462.261
257.260, 531.687
258.630, 405.021
260.000, 146.750
261.370, 162.222
262.739, 186.636
264.108, 162.481
265.477, 155.880
266.846, 43.722
268.215, 197.297
269.583, 55.607
270.951, 138.162
272.319, 106.765
273.686, 82.663
275.054, 194.450
276.421, 213.205
277.788, 476.070
279.154, 605.831
280.521, 560.432
281.887, 791.290
283.253, 395.972
284.619, 248.612
285.984, 30.208
287.349, 63.747
288.714, 125.230
290.079, 27.657
291.444, 59.019
292.808, 116.317
294.172, 101.549
295.536, 89.713
296.899, 293.808
298.263, 368.220
299.626, 214.187
300.989, 197.089
302.351, 86.927
303.714, 129.683
305.076, 73.338
306.438, 67.009
307.799, 36.513
309.161, 23.932
310.522, 30.280
311.883, 1.443
313.244, 36.753
314.604, 14.144
315.965, 2.222
317.325, 43.625
318.684, 13.591
320.044, 19.119
321.403, 11.251
322.762, 44.304
324.121, 11.791
325.480, 54.792
326.838, 29.540
328.196, 27.198
329.554, 36.984
330.912, 48.901
332.270, 14.873
333.627, 92.391
334.984, 3.718
336.341, 48.002
337.697, 35.759
339.053, 19.355
340.409, 4.228
341.765, 7.204
343.121, 133.626
344.476, 116.989
345.831, 253.592
347.186, 509.785
348.541, 999.016
349.895, 1248.962
351.250, 672.071
352.604, 371.706
353.957, 88.697
355.311, 88.394
356.664, 50.021
358.017, 17.191
359.370, 97.832
360.722, 10.460
362.075, 41.834
363.427, 11.604
364.779, 49.633
366.130, 41.068
367.482, 2.395
368.833, 4.364
370.184, 68.104
371.535, 27.778
372.885, 34.172
374.235, 43.547
375.585, 67.224
376.935, 13.999
378.285, 84.685
379.634, 96.301
380.983, 178.822
382.332, 371.266
383.680, 792.607
385.029, 642.455
386.377, 960.118
387.725, 484.281
389.073, 197.392
390.420, 70.465
391.767, 91.504
393.114, 10.507
394.461, 42.470
395.808, 38.389
397.154, 40.259
398.500, 54.355
399.846, 85.169
401.191, 53.511
402.537, 23.888
403.882, 61.948
405.227, 11.477
406.571, 9.143
407.916, 5.779
409.260, 5.355
410.604, 13.080
411.948, 40.675
413.291, 35.146
414.635, 30.359
415.978, 31.537
417.321, 17.789
418.663, 49.276
420.006, 13.280
421.348, 31.328
422.690, 59.801
424.031, 59.749
425.373, 77.375
426.714, 50.847
428.055, 84.241
429.396, 78.529
430.736, 131.021
432.077, 6.454
433.417, 109.750
434.757, 80.769
436.096, 13.456
437.436, 180.853
438.775, 113.200
440.114, 196.631
441.452, 452.027
442.791, 767.389
444.129, 1917.713
445.467, 3151.001
446.805, 3325.253
448.142, 1868.668
449.480, 960.802
450.817, 442.426
452.154, 258.624
453.490, 250.559
454.827, 138.032
456.163, 179.352
457.499, 189.536
458.835, 7.479
460.170, 123.387
461.505, 146.086
462.840, 180.681
464.175, 226.660
465.510, 218.978
466.844, 224.560
468.178, 197.866
469.512, 175.862
470.846, 156.402
472.179, 112.144
473.512, 104.336
474.845, 120.227
476.178, 100.570
477.511, 124.642
478.843, 247.647
480.175, 245.968
481.507, 423.124
482.839, 377.558
484.170, 334.503
485.501, 365.273
486.832, 231.932
488.163, 197.411
489.493, 177.779
490.823, 92.462
492.153, 111.452
493.483, 62.570
494.813, 57.024
496.142, 42.857
497.471, 42.759
498.800, 69.373
500.129, 59.427
501.457, 93.223
502.785, 88.707
504.113, 5.708
505.441, 112.792
506.769, 20.862
508.096, 80.926
509.423, 67.980
510.750, 100.021
512.077, 94.058
513.403, 136.082
514.729, 147.388
516.055, 52.692
517.381, 189.639
518.706, 205.855
520.032, 260.268
521.357, 365.113
522.681, 469.053
524.006, 943.857
525.330, 1686.899
526.655, 2199.836
527.978, 1792.569
529.302, 1051.920
530.626, 528.291
531.949, 367.055
533.272, 185.602
534.595, 338.618
535.917, 77.839
537.239, 203.735
538.562, 110.054
539.883, 142.423
541.205, 121.140
542.527, 181.032
543.848, 142.920
545.169, 135.807
546.489, 64.691
547.810, 111.031
549.130, 69.394
550.450, 151.688
551.770, 203.076
553.090, 141.799
554.409, 185.955
555.728, 69.090
557.047, 157.255
558.366, 82.523
559.685, 191.591
561.003, 251.873
562.321, 150.876
563.639, 118.542
564.956, 130.423
566.274, 155.507
567.591, 116.503
568.908, 150.929
570.225, 212.055
571.541, 126.388
572.857, 313.713
574.173, 339.032
575.489, 211.369
576.805, 493.642
578.120, 521.682
579.435, 497.035
580.750, 377.313
582.065, 267.863
583.380, 339.411
584.694, 275.048
586.008, 244.594
587.322, 312.297
588.635, 262.002
589.949, 293.945
591.262, 239.133
592.575, 234.032
593.887, 280.830
595.200, 255.833
596.512, 342.917
597.824, 580.913
599.136, 1186.716
600.447, 1862.830
601.759, 1884.954
603.070, 1098.090
604.381, 594.237
605.692, 424.395
607.002, 241.572
608.312, 221.767
609.622, 341.975
610.932, 228.203
612.242, 370.449
613.551, 348.711
614.860, 475.988
616.169, 724.282
617.478, 810.208
618.786, 817.529
620.094, 441.864
621.402, 462.215
622.710, 492.584
624.018, 226.969
625.325, 521.372
626.632, 367.823
627.939, 442.296
629.246, 361.793
630.552, 404.314
631.859, 420.865
633.165, 312.440
634.471, 287.048
635.776, 338.688
637.082, 215.350
638.387, 315.045
639.692, 198.769
640.996, 347.525
642.301, 289.305
643.605, 372.112
644.909, 342.967
646.213, 343.845
647.516, 292.763
648.820, 357.705
650.123, 211.691
651.426, 385.713
652.729, 384.756
654.031, 269.832
655.333, 299.932
656.636, 232.057
657.937, 339.420
659.239, 283.243
660.540, 296.619
661.842, 258.934
663.142, 312.196
664.443, 261.272
665.744, 197.170
667.044, 393.577
668.344, 431.368
669.644, 274.880
670.944, 326.309
672.243, 258.270
673.542, 132.423
674.841, 246.069
676.140, 170.546
677.438, 369.332
678.737, 173.192
680.035, 139.096
681.333, 250.039
682.630, 243.082
683.928, 368.152
685.225, 450.278
686.522, 607.446
687.819, 567.663
689.115, 476.917
690.412, 417.210
691.708, 266.527
693.004, 348.867
694.300, 262.239
695.595, 167.635
696.890, 211.052
698.185, 207.487
699.480, 335.943
700.775, 429.418
702.069, 369.912
703.363, 723.427
704.657, 806.959
705.951, 829.513
707.244, 657.089
708.538, 599.462
709.831, 344.307
711.124, 261.948
712.416, 289.614
713.709, 100.302
715.001, 231.011
716.293, 118.769
717.585, 38.548
718.876, 111.359
720.167, 152.211
721.459, 64.091
722.749, 120.999
724.040, 169.929
725.331, 85.885
726.621, 288.863
727.911, 302.862
729.201, 352.882
730.490, 394.615
731.780, 553.996
733.069, 320.090
734.358, 316.218
735.646, 138.379
736.935, 209.576
738.223, 54.812
739.511, 93.066
740.799, 131.343
742.087, 168.637
743.374, 146.958
744.661, 58.298
745.948, 192.663
747.235, 112.054
748.522, 212.462
749.808, 57.897
751.094, 139.356
752.380, 122.837
753.666, 46.665
754.951, 182.859
756.236, 102.410
757.521, 84.977
758.806, 186.561
760.091, 206.182
761.375, 289.128
762.659, 207.472
763.943, 452.146
765.227, 591.835
766.511, 641.542
767.794, 561.264
769.077, 421.003
770.360, 290.756
771.643, 390.525
772.925, 380.311
774.207, 600.109
775.489, 809.924
776.771, 1249.752
778.053, 1509.594
779.334, 1219.448
780.615, 989.318
781.896, 659.201
783.177, 539.098
784.457, 579.006
785.738, 788.929
787.018, 918.863
788.298, 958.811
789.577, 538.770
790.857, 588.741
792.136, 188.725
793.415, 158.720
794.694, 238.726
795.972, 41.744
797.251, 148.773
798.529, 168.813
799.807, 86.863
801.084, 118.925
802.362, 50.994
803.639, 89.076
804.916, 179.166
806.193, 239.269
807.470, 319.379
808.746, 129.498
810.022, 119.627
811.298, 15.236
812.574, 34.093
813.850, 11.949
815.125, 9.725
816.400, 31.306
817.675, 68.228
818.950, 62.379
820.224, 5.724
821.499, 80.913
822.773, 7.640
824.047, 24.111
825.320, 52.696
826.594, 26.271
827.867, 49.700
829.140, 24.195
830.413, 161.379
831.685, 150.860
832.958, 85.464
834.230, 36.796
835.502, 105.501
836.774, 155.987
838.045, 192.448
839.316, 164.928
840.588, 125.349
841.858, 88.569
843.129, 258.691
844.400, 159.029
845.670, 219.332
846.940, 319.460
848.210, 289.653
849.479, 219.772
850.749, 279.887
852.018, 239.997
853.287, 230.103
854.556, 490.201
855.824, 310.296
857.093, 530.385
858.361, 480.761
859.629, 590.839
860.896, 730.910
862.164, 710.976
863.431, 861.033
864.698, 821.086
865.965, 1011.131
867.232, 1211.174
868.498, 1521.210
869.764, 1731.236
871.030, 2411.256
872.296, 3301.268
873.562, 5081.271
874.827, 8771.266
876.092, 16021.251
877.357, 30851.225
878.622, 48361.191
879.886, 48711.148
881.151, 35521.156
882.415, 21062.156
883.679, 12042.093
884.942, 7493.260
886.206, 4763.171
887.469, 3554.525
888.732, 2695.639
889.995, 2035.749
891.258, 1815.734
892.520, 1555.846
893.782, 1295.688
895.044, 1226.941
896.306, 1016.931
897.568, 1018.399
898.829, 938.982
900.090, 878.807
901.351, 760.232
902.612, 660.521
903.872, 731.141
905.133, 591.047
906.393, 563.945
907.653, 705.584
908.912, 705.265
910.172, 885.125
911.431, 1039.572
912.690, 1249.205
913.949, 1518.821
915.208, 2639.645
916.466, 3379.229
917.724, 3569.035
918.982, 2898.922
920.240, 2238.641
921.498, 1888.229
922.755, 1887.729
924.012, 2127.354
925.269, 1896.819
926.526, 1486.267
927.782, 945.696
929.039, 875.107
930.295, 654.502
931.551, 723.877
932.806, 793.233
934.062, 1152.572
935.317, 1421.893
936.572, 2041.193
937.827, 2390.476
939.082, 2369.739
940.336, 2038.985
941.590, 1508.433
942.844, 1327.640
944.098, 1176.827
945.352, 1055.996
946.605, 1605.146
947.859, 2284.404
949.112, 3653.516
950.364, 4742.723
951.617, 4701.791
952.869, 3330.863
954.121, 2129.972
955.373, 1218.981
956.625, 878.381
957.877, 597.351
959.128, 336.299
960.379, 265.227
961.630, 224.260
962.881, 222.934
964.131, 211.161
965.381, 149.843
966.631, 68.562
967.881, 97.353
969.131, 44.327
970.380, 81.542
971.630, 59.833
972.879, 136.374
974.128, 45.303
975.376, 146.142
976.625, 39.174
977.873, 191.424
979.121, 193.234
980.369, 25.873
981.616, 87.911
982.864, 10.051
984.111, 57.747
985.358, 234.487
986.605, 93.099
987.851, 39.341
989.097, 28.142
990.344, 105.644
991.589, 13.059
992.835, 200.424
994.081, 131.651
995.326, 138.971
996.571, 236.265
997.816, 163.538
999.061, 370.787
1000.305, 368.015
1001.550, 325.219
1002.794, 522.401
1004.037, 319.562
1005.281, 216.698
1006.525, 244.020
1007.768, 111.112
1009.011, 198.188
1010.254, 495.244
1011.496, 462.274
1012.739, 489.284
1013.981, 426.272
1015.223, 513.237
1016.465, 541.116
1017.706, 678.036
1018.948, 804.934
1020.189, 881.809
1021.430, 828.662
1022.671, 785.491
1023.911, 512.300
1025.152, 479.085
1026.392, 295.849
1027.632, 242.589
1028.872, 269.307
1030.111, 167.073
1031.350, 63.746
1032.590, 290.387
1033.829, 57.007
1035.067, 203.592
1036.306, 50.163
1037.544, 56.698
1038.782, 123.201
1040.020, 149.680
1041.258, 116.135
1042.495, 182.564
1043.733, 48.974
1044.970, 135.348
1046.207, 41.699
1047.443, 68.012
1048.680, 164.296
1049.916, 40.559
1051.152, 76.784
1052.388, 62.981
1053.624, 129.149
1054.859, 4.706
1056.094, 31.397
1057.329, 227.462
1058.564, 123.504
1059.799, 20.468
1061.033, 265.496
1062.268, 231.438
1063.502, 47.360
1064.735, 263.249
1065.969, 109.119
1067.202, 84.967
1068.436, 120.791
1069.669, 146.595
1070.902, 182.376
1072.134, 128.138
1073.367, 233.878
1074.599, 199.598
1075.831, 245.298
1077.062, 270.987
1078.294, 286.655
1079.525, 292.306
1080.757, 290.484
1081.988, 303.545
1083.218, 279.205
1084.449, 244.847
1085.679, 260.472
1086.909, 246.130
1088.139, 191.771
1089.369, 97.392
1090.599, 432.993
1091.828, 168.577
1093.057, 164.142
1094.286, 359.688
1095.515, 115.216
1096.744, 200.726
1097.972, 116.217
1099.200, 251.690
1100.428, 137.146
1101.656, 122.584
1102.883, 358.004
1104.111, 53.406
1105.338, 238.788
1106.565, 304.153
1107.791, 209.500
1109.018, 104.832
1110.244, 370.146
1111.470, 255.441
1112.696, 210.728
1113.922, 125.924
1115.147, 140.303
1116.373, 245.237
1117.598, 108.773
1118.823, 353.487
1120.047, 241.050
1121.272, 36.130
1122.496, 339.721
1123.720, 151.862
1124.944, 140.754
1126.168, 320.089
1127.391, 49.280
1128.615, 248.989
1129.838, 194.782
1131.061, 85.442
1132.283, 269.368
1133.506, 85.908
1134.728, 220.657
1135.950, 269.423
1137.172, 2.161
1138.394, 166.947
1139.615, 148.924
1140.837, 76.012
1142.058, 288.811
1143.279, 33.657
1144.499, 58.668
1145.720, 153.604
1146.940, 58.603
1148.160, 163.596
1149.380, 138.584
1150.600, 253.567
1151.819, 188.544
1153.038, 6.483
1154.257, 268.480
1155.476, 185.102
1156.695, 20.057
1157.913, 235.007
1159.132, 229.953
1160.350, 54.896
1161.568, 369.834
1162.785, 25.233
1164.003, 329.686
1165.220, 294.600
1166.437, 99.511
1167.654, 214.416
1168.871, 179.318
1170.087, 74.217
1171.304, 399.110
1172.520, 14.001
1173.736, 298.888
1174.951, 333.771
1176.167, 31.349
1177.382, 373.461
1178.597, 287.270
1179.812, 102.131
1181.027, 415.745
1182.241, 42.498
1183.455, 205.899
1184.669, 359.529
1185.883, 134.148
1187.097, 328.878
1188.311, 183.468
1189.524, 188.313
1190.737, 381.737
1191.950, 76.409
1193.162, 169.591
1194.375, 373.641
1195.587, 98.439
1196.799, 151.622
1198.011, 315.930
1199.223, 129.892
1200.434, 494.553
1201.646, 7.804
1202.857, 320.705
1204.068, 475.555
1205.279, 81.735
1206.489, 381.791
1207.699, 276.646
1208.909, 191.506
1210.119, 415.146
1211.329, 280.213
1212.539, 304.843
1213.748, 479.379
1214.957, 234.274
1216.166, 489.082
1217.375, 393.971
1218.583, 168.723
1219.792, 493.623
1221.000, 318.530
1222.208, 225.163
1223.415, 510.083
1224.623, 275.010
1225.830, 409.943
1227.037, 594.885
1228.244, 295.945
1229.451, 450.900
1230.658, 616.537
1231.864, 213.771
1233.070, 758.752
1234.276, 303.743
1235.482, 458.522
1236.687, 633.532
1237.893, 448.569
1239.098, 673.600
1240.303, 508.636
1241.508, 483.549
1242.712, 688.594
1243.917, 453.530
1245.121, 518.588
1246.325, 673.632
1247.529, 268.626
1248.732, 723.703
1249.936, 448.379
1251.139, 423.472
1252.342, 688.571
1253.545, 353.678
1254.747, 528.664
1255.950, 833.787
1257.152, 298.918
1258.354, 574.057
1259.556, 619.183
1260.758, 374.344
1261.959, 829.516
1263.160, 394.630
1264.361, 473.177
1265.562, 758.421
1266.763, 403.229
1267.963, 828.500
1269.164, 833.837
1270.364, 279.200
1271.563, 834.642
1272.763, 580.099
1273.963, 475.653
1275.162, 651.259
1276.361, 616.896
1277.560, 522.551
1278.759, 488.296
1279.957, 454.055
1281.155, 639.854
1282.354, 385.614
1283.551, 311.438
1284.749, 747.326
1285.947, 89.304
1287.144, 575.182
1288.341, 521.073
1289.538, 206.979
1290.735, 702.899
1291.931, 578.834
1293.128, 234.768
1294.324, 550.704
1295.520, 346.654
1296.716, 392.620
1297.911, 648.393
1299.107, 55.616
1300.302, 460.385
1301.497, 256.400
1302.692, 102.418
1303.886, 428.451
1305.081, 184.500
1306.275, 290.436
1307.469, 605.342
1308.663, 171.197
1309.856, 307.067
1311.050, 512.948
1312.243, 188.842
1313.436, 424.748
1314.629, 380.669
1315.822, 206.602
1317.014, 802.547
1318.206, 318.508
1319.398, 374.481
1320.590, 859.399
1321.782, 45.401
1322.974, 741.423
1324.165, 387.422
1325.356, 56.561
1326.547, 829.464
1327.738, 345.509
1328.928, 231.573
1330.119, 767.653
1331.309, 83.747
1332.499, 319.856
1333.688, 655.979
1334.878, 12.125
1336.067, 558.284
1337.256, 404.467
1338.445, 70.667
1339.634, 646.884
1340.823, 23.122
1342.011, 339.380
1343.199, 635.656
1344.388, 68.050
1345.575, 558.275
1346.763, 544.905
1347.950, 48.713
1349.138, 637.688
1350.325, 314.136
1351.512, 220.610
1352.698, 697.113
1353.885, 6.348
1355.071, 350.224
1356.257, 706.868
1357.443, 6.491
1358.629, 690.187
1359.814, 297.856
1361.000, 194.616
1362.185, 701.422
1363.370, 249.097
1364.554, 54.007
1365.739, 752.935
1366.923, 149.937
1368.107, 287.001
1369.291, 504.133
1370.475, 308.660
1371.659, 418.500
1372.842, 23.912
1374.025, 246.646
1375.208, 440.655
1376.391, 168.530
1377.574, 215.991
1378.756, 563.581
1379.939, 25.215
1381.121, 558.841
1382.303, 685.493
1383.484, 132.175
1384.666, 718.888
1385.847, 345.630
1387.028, 202.405
1388.209, 839.212
1389.390, 206.052
1390.570, 402.925
1391.751, 719.829
1392.931, 6.768
1394.111, 573.724
1395.291, 500.699
1396.470, 47.709
1397.649, 594.750
1398.829, 231.823
1400.008, 108.925
1401.187, 606.056
1402.365, 63.212
1403.544, 500.396
1404.722, 707.631
1405.900, 85.088
1407.078, 662.225
1408.255, 439.565
1409.433, 76.936
1410.610, 694.336
1411.787, 379.272
1412.964, 156.709
1414.141, 754.178
1415.317, 261.688
1416.494, 249.238
1417.670, 606.828
1418.846, 164.453
1420.022, 582.125
1421.197, 399.832
1422.373, 47.594
1423.548, 775.400
1424.723, 350.498
1425.898, 18.355
1427.072, 776.258
1428.247, 224.203
1429.421, 292.195
1430.595, 780.230
1431.769, 208.312
1432.942, 746.441
1434.116, 760.941
1435.289, 336.633
1436.462, 994.814
1437.635, 543.043
1438.808, 730.975
1439.981, 1328.941
1441.153, 647.289
1442.325, 955.674
1443.497, 1301.000
1444.669, 519.406
1445.840, 1137.850
1447.012, 1306.004
1448.183, 439.295
1449.354, 1346.926
1450.525, 834.547
1451.696, 662.127
1452.866, 1529.756
1454.036, 767.416
1455.206, 875.105
1456.376, 1462.820
1457.546, 630.562
1458.716, 1088.332
1459.885, 1136.125
1461.054, 613.943
1462.223, 1201.783
1463.392, 999.645
1464.560, 339.283
1465.729, 1347.008
1466.897, 644.768
1468.065, 512.566
1469.233, 1200.369
1470.400, 458.176
1471.568, 795.980
1472.735, 973.777
1473.902, 221.527
1475.069, 839.371
1476.236, 907.197
1477.402, 184.996
1478.569, 1152.910
1479.735, 530.836
1480.901, 268.748
1482.066, 1046.629
1483.232, 274.566
1484.397, 402.945
1485.562, 1132.680
1486.727, 12.541
1487.892, 642.543
1489.057, 682.693
1490.221, 173.008
1491.386, 863.498
1492.550, 444.184
1493.714, 235.455
1494.877, 887.012
1496.041, 108.887
1497.204, 391.125
1498.367, 933.785
1499.530, 23.074
1500.693, 500.619
1501.856, 824.963
1503.018, 9.945
1504.180, 983.594
1505.342, 489.988
1506.504, 287.248
1507.666, 845.506
1508.827, 244.414
1509.988, 265.031
1511.149, 1073.744
1512.310, 172.730
1513.471, 464.650
1514.631, 887.650
1515.792, 221.496
1516.952, 687.490
1518.112, 808.111
1519.272, 2.188
1520.431, 0.000
##END=



