##NAMES=Phenakite
##RRUFFID=R040132
##IDEAL CHEMISTRY=Be_2_SiO_4_
##LOCALITY=Krager√∏, Telemark, Norway
##OWNER=RRUFF
##SOURCE=University of Arizona Mineral Museum
##DESCRIPTION=Colorless fragments
##STATUS=The identification of this mineral has been confirmed by X-ray diffraction and chemical analysis
##URL=rruff.info/R040132
##MEASURED CHEMISTRY=Be_2.02_Si_0.99_O_4_
##PIN_ID=L00330
##ORIENTATION=Laser parallel to -c* (0 0 -1). Fiducial mark perpendicular to laser is parallel to -a [-1 0 0]
93.895, 0.000
95.293, 35.642
96.692, 32.122
98.090, 26.002
99.488, 20.610
100.885, 51.689
102.283, 87.522
103.680, 93.594
105.077, 101.629
106.473, 166.515
107.870, 115.096
109.266, 175.188
110.662, 124.618
112.057, 163.270
113.453, 160.113
114.848, 301.245
116.243, 289.068
117.638, 358.209
119.032, 361.287
120.426, 297.878
121.820, 184.492
123.214, 170.935
124.608, 177.226
126.001, 153.362
127.394, 153.351
128.787, 143.204
130.179, 121.984
131.571, 146.806
132.963, 110.094
134.355, 122.718
135.747, 148.556
137.138, 138.907
138.529, 152.352
139.920, 125.704
141.311, 171.559
142.701, 141.585
144.091, 130.388
145.481, 155.530
146.870, 73.112
148.260, 104.915
149.649, 76.494
151.038, 83.203
152.426, 72.207
153.815, 116.871
155.203, 144.350
156.591, 248.803
157.979, 430.190
159.366, 718.509
160.753, 1629.784
162.140, 2313.022
163.527, 2052.211
164.913, 1082.998
166.300, 458.579
167.686, 196.707
169.071, 71.688
170.457, 58.273
171.842, 0.015
173.227, 63.791
174.612, 6.646
175.996, 0.879
177.381, 32.578
178.765, 16.524
180.149, 23.507
181.532, 24.684
182.915, 1.579
184.299, 2.918
185.681, 16.514
187.064, 3.108
188.446, 1.989
189.828, 8.703
191.210, 15.965
192.592, 32.302
193.973, 35.484
195.355, 45.997
196.736, 34.010
198.116, 14.672
199.497, 34.922
200.877, 6.060
202.257, 68.734
203.637, 47.160
205.016, 26.011
206.395, 87.179
207.774, 20.335
209.153, 51.943
210.532, 11.946
211.910, 37.026
213.288, 77.055
214.666, 76.363
216.043, 212.162
217.421, 479.832
218.798, 1012.151
220.175, 2084.023
221.551, 5305.759
222.928, 7486.477
224.304, 5806.369
225.680, 2657.668
227.055, 1056.320
228.431, 453.729
229.806, 220.722
231.181, 145.862
232.556, 105.594
233.930, 73.160
235.304, 8.005
236.678, 21.521
238.052, 1.027
239.426, 58.524
240.799, 1.010
242.172, 25.487
243.545, 26.047
244.917, 3.589
246.290, 37.859
247.662, 9.383
249.034, 2.752
250.405, 30.043
251.777, 78.512
253.148, 120.062
254.519, 178.550
255.889, 240.071
257.260, 207.458
258.630, 178.087
260.000, 28.298
261.370, 48.599
262.739, 13.941
264.108, 7.433
265.477, 50.857
266.846, 8.302
268.215, 26.759
269.583, 19.770
270.951, 41.695
272.319, 44.157
273.686, 112.614
275.054, 365.089
276.421, 629.528
277.788, 831.956
279.154, 806.371
280.521, 710.773
281.887, 511.158
283.253, 205.524
284.619, 122.873
285.984, 50.201
287.349, 4.509
288.714, 17.206
290.079, 26.947
291.444, 15.284
292.808, 14.496
294.172, 30.689
295.536, 8.136
296.899, 13.016
298.263, 0.853
299.626, 13.248
300.989, 9.330
302.351, 10.876
303.714, 6.646
305.076, 11.313
306.438, 25.248
307.799, 16.167
309.161, 35.850
310.522, 10.082
311.883, 39.827
313.244, 44.615
314.604, 9.390
315.965, 6.173
317.325, 20.014
318.684, 23.257
320.044, 3.456
321.403, 13.153
322.762, 11.162
324.121, 6.504
325.480, 2.843
326.838, 15.794
328.196, 18.581
329.554, 34.021
330.912, 1.718
332.270, 23.283
333.627, 48.815
334.984, 7.670
336.341, 28.797
337.697, 2.328
339.053, 70.334
340.409, 65.719
341.765, 11.170
343.121, 76.521
344.476, 47.463
345.831, 91.879
347.186, 138.175
348.541, 186.334
349.895, 154.537
351.250, 50.601
352.604, 47.707
353.957, 14.989
355.311, 21.285
356.664, 7.583
358.017, 5.342
359.370, 6.491
360.722, 10.139
362.075, 19.087
363.427, 31.291
364.779, 49.715
366.130, 0.908
367.482, 55.082
368.833, 33.183
370.184, 69.334
371.535, 56.617
372.885, 27.466
374.235, 31.372
375.585, 70.387
376.935, 74.446
378.285, 205.497
379.634, 411.534
380.983, 768.560
382.332, 1672.579
383.680, 3577.591
385.029, 4817.596
386.377, 3466.596
387.725, 1644.589
389.073, 794.574
390.420, 324.549
391.767, 240.515
393.114, 104.504
394.461, 75.555
395.808, 62.500
397.154, 72.354
398.500, 45.038
399.846, 7.838
401.191, 31.252
402.537, 19.190
403.882, 17.620
405.227, 71.447
406.571, 40.280
407.916, 53.469
409.260, 17.351
410.604, 26.473
411.948, 73.726
413.291, 15.571
414.635, 108.506
415.978, 44.437
417.321, 54.362
418.663, 22.290
420.006, 16.216
421.348, 31.150
422.690, 45.002
424.031, 97.922
425.373, 30.654
426.714, 86.336
428.055, 220.330
429.396, 220.970
430.736, 370.748
432.077, 194.863
433.417, 87.767
434.757, 105.638
436.096, 47.520
437.436, 146.441
438.775, 119.303
440.114, 306.156
441.452, 579.010
442.791, 1084.854
444.129, 2403.688
445.467, 3686.529
446.805, 3450.359
448.142, 1880.128
449.480, 925.483
450.817, 427.726
452.154, 233.130
453.490, 176.649
454.827, 131.145
456.163, 116.765
457.499, 91.109
458.835, 52.721
460.170, 102.665
461.505, 105.082
462.840, 167.416
464.175, 284.769
465.510, 482.294
466.844, 499.675
468.178, 294.160
469.512, 152.548
470.846, 79.080
472.179, 19.335
473.512, 73.866
474.845, 75.416
476.178, 36.646
477.511, 18.907
478.843, 116.275
480.175, 73.725
481.507, 123.739
482.839, 224.994
484.170, 339.159
485.501, 412.257
486.832, 234.897
488.163, 125.158
489.493, 104.775
490.823, 8.178
492.153, 38.052
493.483, 93.360
494.813, 44.804
496.142, 15.075
497.471, 20.410
498.800, 43.288
500.129, 45.798
501.457, 50.282
502.785, 71.405
504.113, 20.904
505.441, 71.313
506.769, 37.806
508.096, 8.294
509.423, 34.776
510.750, 23.257
512.077, 27.143
513.403, 62.051
514.729, 43.244
516.055, 77.487
517.381, 98.565
518.706, 136.596
520.032, 177.704
521.357, 346.857
522.681, 643.107
524.006, 1411.419
525.330, 2815.810
526.655, 3271.823
527.978, 2494.226
529.302, 1197.532
530.626, 615.954
531.949, 337.349
533.272, 174.618
534.595, 166.899
535.917, 80.302
537.239, 96.701
538.562, 44.094
539.883, 25.482
541.205, 34.866
542.527, 61.245
543.848, 59.619
545.169, 67.365
546.489, 62.437
547.810, 56.659
549.130, 36.066
550.450, 36.417
551.770, 15.762
553.090, 0.102
554.409, 36.437
555.728, 32.065
557.047, 16.287
558.366, 27.884
559.685, 32.261
561.003, 48.440
562.321, 38.110
563.639, 42.449
564.956, 6.827
566.274, 24.472
567.591, 32.545
568.908, 2.407
570.225, 28.167
571.541, 50.150
572.857, 45.245
574.173, 49.620
575.489, 36.831
576.805, 105.856
578.120, 68.740
579.435, 105.170
580.750, 30.306
582.065, 31.496
583.380, 51.842
584.694, 31.961
586.008, 17.048
587.322, 57.517
588.635, 20.130
589.949, 87.967
591.262, 29.149
592.575, 38.020
593.887, 61.190
595.200, 33.328
596.512, 72.486
597.824, 100.639
599.136, 319.395
600.447, 556.535
601.759, 457.729
603.070, 290.310
604.381, 133.433
605.692, 110.551
607.002, 72.663
608.312, 17.771
609.622, 97.879
610.932, 116.992
612.242, 102.101
613.551, 204.204
614.860, 340.303
616.169, 556.402
617.478, 626.497
618.786, 511.590
620.094, 241.679
621.402, 131.764
622.710, 145.845
624.018, 32.927
625.325, 122.005
626.632, 83.078
627.939, 91.147
629.246, 112.212
630.552, 65.179
631.859, 39.241
633.165, 82.298
634.471, 18.328
635.776, 54.281
637.082, 3.672
638.387, 65.369
639.692, 54.409
640.996, 25.445
642.301, 67.483
643.605, 32.518
644.909, 89.553
646.213, 45.584
647.516, 93.620
648.820, 83.540
650.123, 61.570
651.426, 121.598
652.729, 56.622
654.031, 37.572
655.333, 122.542
656.636, 119.563
657.937, 133.580
659.239, 117.592
660.540, 202.603
661.842, 209.566
663.142, 214.570
664.443, 293.569
665.744, 269.471
667.044, 423.464
668.344, 579.423
669.644, 587.396
670.944, 514.378
672.243, 345.358
673.542, 179.335
674.841, 157.310
676.140, 99.284
677.438, 127.256
678.737, 107.226
680.035, 137.194
681.333, 188.158
682.630, 256.121
683.928, 391.082
685.225, 687.039
686.522, 914.995
687.819, 909.947
689.115, 724.897
690.412, 444.844
691.708, 229.789
693.004, 172.732
694.300, 62.671
695.595, 45.608
696.890, 72.542
698.185, 28.474
699.480, 50.403
700.775, 53.330
702.069, 86.254
703.363, 187.176
704.657, 151.095
705.951, 167.013
707.244, 161.928
708.538, 31.812
709.831, 74.623
711.124, 11.468
712.416, 7.519
713.709, 15.615
715.001, 31.736
716.293, 27.123
717.585, 51.020
718.876, 5.195
720.167, 5.377
721.459, 33.661
722.749, 7.902
724.040, 26.124
725.331, 13.782
726.621, 23.943
727.911, 8.690
729.201, 2.437
730.490, 10.180
731.780, 25.077
733.069, 9.352
734.358, 50.634
735.646, 36.054
736.935, 16.713
738.223, 63.622
739.511, 13.029
740.799, 12.354
742.087, 18.812
743.374, 49.182
744.661, 30.568
745.948, 14.017
747.235, 11.467
748.522, 9.077
749.808, 32.655
751.094, 7.183
752.380, 42.760
753.666, 43.662
754.951, 18.893
756.236, 0.552
757.521, 57.998
758.806, 46.527
760.091, 41.052
761.375, 72.578
762.659, 179.104
763.943, 264.421
765.227, 419.949
766.511, 454.478
767.794, 403.007
769.077, 285.537
770.360, 174.069
771.643, 234.602
772.925, 199.135
774.207, 223.670
775.489, 433.207
776.771, 572.746
778.053, 769.285
779.334, 617.783
780.615, 525.326
781.896, 466.870
783.177, 442.416
784.457, 735.963
785.738, 989.512
787.018, 1224.056
788.298, 1235.609
789.577, 772.041
790.857, 646.598
792.136, 339.083
793.415, 234.644
794.694, 250.208
795.972, 108.719
797.251, 170.287
798.529, 174.836
799.807, 196.415
801.084, 280.996
802.362, 327.579
803.639, 556.169
804.916, 799.762
806.193, 1005.363
807.470, 828.967
808.746, 559.574
810.022, 453.187
811.298, 233.803
812.574, 130.422
813.850, 142.044
815.125, 40.669
816.400, 78.305
817.675, 73.944
818.950, 56.586
820.224, 80.237
821.499, 89.890
822.773, 47.547
824.047, 76.211
825.320, 33.877
826.594, 58.564
827.867, 104.254
829.140, 46.948
830.413, 105.646
831.685, 44.348
832.958, 82.057
834.230, 137.770
835.502, 73.487
836.774, 83.213
838.045, 105.943
839.316, 115.677
840.588, 132.419
841.858, 133.165
843.129, 204.916
844.400, 129.670
845.670, 152.430
846.940, 243.198
848.210, 219.971
849.479, 283.749
850.749, 233.532
852.018, 210.320
853.287, 322.118
854.556, 353.921
855.824, 395.729
857.093, 391.552
858.361, 479.379
859.629, 586.211
860.896, 615.059
862.164, 765.912
863.431, 870.770
864.698, 893.468
865.965, 1164.304
867.232, 1337.833
868.498, 1715.364
869.764, 2172.259
871.030, 2957.612
872.296, 4220.858
873.562, 6432.109
874.827, 11075.602
876.092, 21110.736
877.357, 38794.738
878.622, 59279.551
879.886, 57245.504
881.151, 39241.477
882.415, 23247.344
883.679, 13243.332
884.942, 8267.549
886.206, 5512.777
887.469, 3941.441
888.732, 3043.466
889.995, 2434.500
891.258, 2049.420
892.520, 1722.469
893.782, 1533.662
895.044, 1401.473
896.306, 1200.403
897.568, 1172.583
898.829, 1072.688
900.090, 972.105
901.351, 928.226
902.612, 869.355
903.872, 844.492
905.133, 842.638
906.393, 738.183
907.653, 821.346
908.912, 836.458
910.172, 935.187
911.431, 1096.376
912.690, 1315.573
913.949, 1814.780
915.208, 2555.994
916.466, 3306.218
917.724, 3500.452
918.982, 3074.693
920.240, 2748.944
921.498, 3267.203
922.755, 4438.471
924.012, 5696.749
925.269, 4964.034
926.526, 3594.491
927.782, 2193.798
929.039, 1500.111
930.295, 1092.433
931.551, 986.765
932.806, 876.104
934.062, 995.453
935.317, 1055.811
936.572, 1425.178
937.827, 1627.553
939.082, 1530.938
940.336, 1515.331
941.590, 1273.734
942.844, 1210.146
944.098, 1410.571
945.352, 1704.005
946.605, 2660.448
947.859, 4332.958
949.112, 6993.419
950.364, 9421.086
951.617, 8997.565
952.869, 6434.052
954.121, 4089.513
955.373, 2628.017
956.625, 1757.703
957.877, 1221.225
959.128, 946.755
960.379, 722.067
961.630, 554.615
962.881, 487.171
964.131, 436.736
965.381, 404.310
966.631, 324.673
967.881, 292.264
969.131, 322.863
970.380, 275.517
971.630, 198.133
972.879, 293.757
974.128, 217.926
975.376, 138.566
976.625, 261.041
977.873, 116.697
979.121, 115.361
980.369, 172.163
981.616, 74.843
982.864, 175.373
984.111, 57.069
985.358, 142.773
986.605, 180.591
987.851, 145.311
989.097, 244.038
990.344, 195.810
991.589, 247.557
992.835, 338.317
994.081, 437.079
995.326, 443.873
996.571, 401.757
997.816, 344.566
999.061, 423.651
1000.305, 365.478
1001.550, 416.314
1002.794, 462.475
1004.037, 368.326
1005.281, 473.187
1006.525, 549.407
1007.768, 630.280
1009.011, 803.165
1010.254, 1034.501
1011.496, 1263.401
1012.739, 1278.353
1013.981, 1358.590
1015.223, 1628.520
1016.465, 1982.456
1017.706, 2492.404
1018.948, 3030.471
1020.189, 3168.459
1021.430, 2912.463
1022.671, 2359.567
1023.911, 1711.592
1025.152, 1390.633
1026.392, 964.463
1027.632, 772.529
1028.872, 598.609
1030.111, 455.474
1031.350, 430.564
1032.590, 305.890
1033.829, 253.993
1035.067, 313.109
1036.306, 146.344
1037.544, 227.490
1038.782, 172.266
1040.020, 143.422
1041.258, 156.601
1042.495, 203.428
1043.733, 148.639
1044.970, 98.859
1046.207, 40.099
1047.443, 44.351
1048.680, 29.977
1049.916, 147.872
1051.152, 91.140
1052.388, 34.460
1053.624, 140.743
1054.859, 49.028
1056.094, 28.542
1057.329, 102.847
1058.564, 56.156
1059.799, 26.493
1061.033, 76.826
1062.268, 55.185
1063.502, 91.525
1064.735, 80.867
1065.969, 83.221
1067.202, 115.577
1068.436, 104.541
1069.669, 69.327
1070.902, 105.692
1072.134, 49.060
1073.367, 35.524
1074.599, 9.102
1075.831, 1.356
1077.062, 113.787
1078.294, 36.167
1079.525, 86.708
1080.757, 112.093
1081.988, 32.479
1083.218, 98.877
1084.449, 9.277
1085.679, 83.681
1086.909, 76.086
1088.139, 40.494
1089.369, 38.906
1090.599, 31.698
1091.828, 10.734
1093.057, 28.150
1094.286, 6.567
1095.515, 3.015
1096.744, 88.404
1097.972, 30.177
1099.200, 76.232
1100.428, 27.642
1101.656, 24.947
1102.883, 52.456
1104.111, 28.141
1105.338, 115.308
1106.565, 70.703
1107.791, 19.903
1109.018, 89.627
1110.244, 47.015
1111.470, 45.403
1112.696, 111.896
1113.922, 35.717
1115.147, 103.789
1116.373, 96.161
1117.598, 22.467
1118.823, 76.916
1120.047, 55.283
1121.272, 12.351
1122.496, 152.062
1123.720, 65.578
1124.944, 56.748
1126.168, 118.072
1127.391, 2.605
1128.615, 135.715
1129.838, 15.965
1131.061, 4.557
1132.283, 124.099
1133.506, 19.594
1134.728, 113.834
1135.950, 82.127
1137.172, 17.581
1138.394, 57.692
1139.615, 3.971
1140.837, 52.248
1142.058, 88.464
1143.279, 14.264
1144.499, 58.148
1145.720, 0.226
1146.940, 31.477
1148.160, 76.387
1149.380, 16.368
1150.600, 66.002
1151.819, 36.746
1153.038, 31.968
1154.257, 76.231
1155.476, 38.294
1156.695, 32.515
1157.913, 95.235
1159.132, 17.376
1160.350, 2.534
1161.568, 79.981
1162.785, 31.128
1164.003, 79.271
1165.220, 12.228
1166.437, 33.361
1167.654, 106.614
1168.871, 15.011
1170.087, 44.128
1171.304, 94.449
1172.520, 1.333
1173.736, 134.762
1174.951, 82.609
1176.167, 48.307
1177.382, 100.740
1178.597, 10.908
1179.812, 96.940
1181.027, 145.228
1182.241, 20.535
1183.455, 134.462
1184.669, 3.715
1185.883, 50.693
1187.097, 192.666
1188.311, 10.008
1189.524, 110.937
1190.737, 122.013
1191.950, 59.971
1193.162, 106.896
1194.375, 60.011
1195.587, 90.924
1196.799, 160.828
1198.011, 49.152
1199.223, 125.041
1200.434, 140.923
1201.646, 22.082
1202.857, 162.947
1204.068, 79.805
1205.279, 62.143
1206.489, 207.984
1207.699, 59.819
1208.909, 115.646
1210.119, 139.465
1211.329, 126.021
1212.539, 105.825
1213.748, 189.621
1214.957, 63.565
1216.166, 197.346
1217.375, 117.384
1218.583, 50.151
1219.792, 152.910
1221.000, 40.682
1222.208, 182.534
1223.415, 154.268
1224.623, 37.124
1225.830, 176.840
1227.037, 119.549
1228.244, 182.586
1229.451, 152.279
1230.658, 144.371
1231.864, 136.222
1233.070, 204.889
1234.276, 113.200
1235.482, 182.851
1236.687, 148.494
1237.893, 99.129
1239.098, 245.751
1240.303, 97.366
1241.508, 195.019
1242.712, 214.621
1243.917, 120.017
1245.121, 212.604
1246.325, 115.185
1247.529, 98.996
1248.732, 247.562
1249.936, 72.947
1251.139, 128.780
1252.342, 184.324
1253.545, 53.088
1254.747, 191.618
1255.950, 166.139
1257.152, 63.655
1258.354, 182.160
1259.556, 55.877
1260.758, 95.580
1261.959, 222.058
1263.160, 83.452
1264.361, 141.313
1265.562, 160.733
1266.763, 77.606
1267.963, 177.021
1269.164, 136.585
1270.364, 90.987
1271.563, 192.349
1272.763, 105.571
1273.963, 96.976
1275.162, 39.455
1276.361, 37.181
1277.560, 170.248
1278.759, 57.435
1279.957, 162.713
1281.155, 197.984
1282.354, 5.208
1283.551, 102.590
1284.749, 135.823
1285.947, 73.973
1287.144, 189.277
1288.341, 53.356
1289.538, 8.508
1290.735, 192.374
1291.931, 12.497
1293.128, 99.607
1294.324, 56.389
1295.520, 16.479
1296.716, 75.559
1297.911, 175.265
1299.107, 5.314
1300.302, 147.350
1301.497, 10.931
1302.692, 1.945
1303.886, 134.905
1305.081, 26.578
1306.275, 113.542
1307.469, 149.493
1308.663, 27.571
1309.856, 108.254
1311.050, 59.156
1312.243, 30.052
1313.436, 135.849
1314.629, 39.726
1315.822, 63.591
1317.014, 215.665
1318.206, 5.508
1319.398, 167.338
1320.590, 140.379
1321.782, 56.188
1322.974, 167.758
1324.165, 28.532
1325.356, 35.295
1326.547, 230.939
1327.738, 26.683
1328.928, 133.791
1330.119, 190.512
1331.309, 55.776
1332.499, 126.282
1333.688, 50.956
1334.878, 77.619
1336.067, 206.273
1337.256, 36.969
1338.445, 83.605
1339.634, 189.234
1340.823, 10.146
1342.011, 167.416
1343.199, 157.050
1344.388, 22.640
1345.575, 238.009
1346.763, 84.583
1347.950, 6.149
1349.138, 223.700
1350.325, 127.250
1351.512, 148.771
1352.698, 165.433
1353.885, 16.036
1355.071, 128.483
1356.257, 138.187
1357.443, 47.696
1358.629, 204.172
1359.814, 25.454
1361.000, 103.950
1362.185, 231.351
1363.370, 42.093
1364.554, 58.444
1365.739, 99.932
1366.923, 54.420
1368.107, 147.742
1369.291, 155.465
1370.475, 26.059
1371.659, 160.362
1372.842, 9.947
1374.025, 44.340
1375.208, 165.724
1376.391, 0.597
1377.574, 161.899
1378.756, 185.178
1379.939, 88.988
1381.121, 246.142
1382.303, 150.032
1383.484, 62.909
1384.666, 282.782
1385.847, 88.646
1387.028, 130.447
1388.209, 214.296
1389.390, 39.988
1390.570, 137.704
1391.751, 277.380
1392.931, 25.193
1394.111, 284.975
1395.291, 123.702
1396.470, 132.497
1397.649, 210.299
1398.829, 91.089
1400.008, 135.362
1401.187, 248.984
1402.365, 39.753
1403.544, 207.341
1404.722, 271.950
1405.900, 15.568
1407.078, 298.089
1408.255, 114.911
1409.433, 78.725
1410.610, 285.278
1411.787, 76.804
1412.964, 123.428
1414.141, 227.653
1415.317, 67.255
1416.494, 109.083
1417.670, 149.088
1418.846, 35.333
1420.022, 192.703
1421.197, 132.161
1422.373, 88.521
1423.548, 332.684
1424.723, 46.909
1425.898, 128.067
1427.072, 220.133
1428.247, 54.399
1429.421, 213.824
1430.595, 142.974
1431.769, 93.192
1432.942, 323.605
1434.116, 214.556
1435.289, 115.160
1436.462, 268.541
1437.635, 148.914
1438.808, 263.322
1439.981, 356.369
1441.153, 127.208
1442.325, 283.486
1443.497, 332.222
1444.669, 135.234
1445.840, 351.474
1447.012, 297.304
1448.183, 153.335
1449.354, 387.186
1450.525, 208.265
1451.696, 290.336
1452.866, 438.181
1454.036, 223.203
1455.206, 311.192
1456.376, 374.717
1457.546, 162.023
1458.716, 314.901
1459.885, 301.741
1461.054, 170.548
1462.223, 408.820
1463.392, 222.641
1464.560, 178.991
1465.729, 366.747
1466.897, 206.470
1468.065, 244.279
1469.233, 331.934
1470.400, 153.271
1471.568, 332.083
1472.735, 278.879
1473.902, 165.256
1475.069, 402.908
1476.236, 212.773
1477.402, 48.669
1478.569, 372.557
1479.735, 103.426
1480.901, 177.355
1482.066, 303.276
1483.232, 52.191
1484.397, 224.157
1485.562, 269.239
1486.727, 69.341
1487.892, 314.448
1489.057, 163.567
1490.221, 138.728
1491.386, 329.907
1492.550, 34.133
1493.714, 160.543
1494.877, 380.005
1496.041, 20.538
1497.204, 196.144
1498.367, 296.848
1499.530, 13.687
1500.693, 306.175
1501.856, 240.138
1503.018, 11.930
1504.180, 329.112
1505.342, 75.431
1506.504, 82.910
1507.666, 264.283
1508.827, 21.854
1509.988, 149.542
1511.149, 305.427
1512.310, 38.017
1513.471, 196.746
1514.631, 213.821
1515.792, 0.406
1516.952, 277.526
1518.112, 96.362
1519.272, 0.149
1520.431, 0.000
##END=



