##NAMES=Plumbophyllite
##RRUFFID=R130081
##IDEAL CHEMISTRY=Pb^2+^_2_Si_4_O_10_&#183;H_2_O
##LOCALITY=Blue Bell claims, about 11 km west of Baker, San Bernardino County, California, USA
##OWNER=Anthony R. Kampf 
##SOURCE=Anthony R. Kampf and George R. Rossman
##DESCRIPTION=Colorless to pale blue and transparent.  Data from Kampf et al (2009)
##STATUS=The identification of this mineral has been confirmed by X-ray diffraction and chemical analysis
##URL=rruff.info/R130081
##MEASURED CHEMISTRY=Pb_1.79_Cu_0.02_Si_4_O_9.62_(OH)_0.38_Â·1.02H_2_O
49.03060, 0.0000000E+00
50.81520, 193.9229
52.59950, 6.298828
54.38340, 72.51270
56.16700, 123.0322
57.95020, 111.6167
59.73310, 14.08154
61.51560, 140.2007
63.29780, 3.450195
65.07960, 10.46533
66.86110, 98.03809
68.64220, 276.5391
70.42300, 364.1694
72.20350, 551.4058
73.98350, 743.8496
75.76330, 1042.424
77.54270, 1452.852
79.32170, 2119.437
81.10040, 3097.271
82.87870, 4760.284
84.65670, 6733.187
86.43440, 10124.52
88.21160, 15134.63
89.98860, 22176.92
91.76520, 29804.19
93.54140, 33880.85
95.31730, 32210.07
97.09290, 25261.50
98.86810, 17222.41
100.6430, 11560.92
102.4170, 8506.543
104.1920, 7186.521
105.9650, 6428.136
107.7390, 5840.862
109.5120, 5671.366
111.2850, 5661.737
113.0570, 5463.593
114.8290, 5193.229
116.6010, 4604.977
118.3720, 4088.169
120.1430, 3508.514
121.9140, 2725.143
123.6850, 2342.894
125.4550, 1957.266
127.2240, 1832.496
128.9940, 1731.354
130.7620, 1768.357
132.5310, 2007.222
134.2990, 2548.481
136.0670, 3103.928
137.8350, 4024.486
139.6020, 5188.828
141.3690, 6721.402
143.1360, 7938.926
144.9020, 8916.207
146.6680, 9123.635
148.4330, 8449.798
150.1980, 6796.708
151.9630, 5130.028
153.7280, 3537.691
155.4920, 2357.542
157.2550, 1479.583
159.0190, 937.7651
160.7820, 624.9897
162.5450, 308.8569
164.3070, 244.3354
166.0690, 32.58398
167.8310, 1.469238
169.5920, 11.29150
171.3530, 30.87695
173.1140, 46.58691
174.8740, 167.7476
176.6340, 328.1631
178.3940, 382.0645
180.1530, 615.0503
181.9120, 448.6548
183.6710, 479.8071
185.4290, 394.3359
187.1870, 274.6758
188.9450, 301.4795
190.7020, 355.3027
192.4590, 399.1548
194.2160, 591.0371
195.9720, 955.2563
197.7280, 1071.785
199.4830, 1548.667
201.2380, 2042.795
202.9930, 2700.939
204.7480, 3228.183
206.5020, 3782.664
208.2560, 3973.740
210.0090, 4129.695
211.7630, 3811.597
213.5150, 3333.497
215.2680, 2699.494
217.0200, 2103.545
218.7720, 1549.721
220.5230, 1250.067
222.2740, 937.6445
224.0250, 664.3169
225.7750, 612.9087
227.5260, 416.0557
229.2750, 358.5864
231.0250, 314.0813
232.7740, 299.7400
234.5220, 257.0879
236.2710, 367.8499
238.0190, 519.1250
239.7670, 636.2539
241.5140, 826.4648
243.2610, 1231.724
245.0080, 1637.652
246.7540, 1991.160
248.5000, 2187.353
250.2460, 2427.699
251.9910, 2509.237
253.7360, 2085.385
255.4810, 1621.757
257.2250, 1228.676
258.9690, 778.4424
260.7130, 441.1355
262.4560, 172.6765
264.1990, 57.07544
265.9410, 26.12256
267.6840, 199.8594
269.4260, 191.9304
271.1670, 161.0396
272.9080, 183.3032
274.6490, 194.1467
276.3900, 161.9697
278.1300, 149.9812
279.8700, 126.5798
281.6100, 139.2087
283.3490, 16.26147
285.0880, 115.6470
286.8260, 97.06323
288.5650, 340.2053
290.3020, 383.3750
292.0400, 417.8333
293.7770, 529.9297
295.5140, 607.4155
297.2510, 696.3623
298.9870, 829.8906
300.7230, 1061.332
302.4580, 1214.978
304.1930, 1457.929
305.9280, 1869.518
307.6630, 2184.593
309.3970, 2377.145
311.1310, 2418.246
312.8640, 2372.756
314.5970, 2299.840
316.3300, 2273.083
318.0630, 2575.170
319.7950, 3050.770
321.5270, 3923.239
323.2580, 5059.086
324.9890, 6078.301
326.7200, 7262.479
328.4510, 8103.018
330.1810, 8475.789
331.9110, 8076.548
333.6400, 7083.354
335.3690, 6193.499
337.0980, 5235.303
338.8270, 4735.247
340.5550, 4281.205
342.2820, 4305.602
344.0100, 4515.529
345.7370, 4846.454
347.4640, 4868.184
349.1900, 4427.645
350.9160, 3630.630
352.6420, 2831.763
354.3680, 2284.599
356.0930, 1735.588
357.8180, 1390.603
359.5420, 1099.087
361.2660, 974.3413
362.9900, 825.9895
364.7130, 605.2268
366.4370, 617.4548
368.1590, 488.6045
369.8820, 606.1299
371.6040, 589.7437
373.3260, 670.0542
375.0470, 755.7671
376.7680, 855.7935
378.4890, 933.4150
380.2100, 859.7729
381.9300, 756.2366
383.6500, 565.8718
385.3690, 342.8315
387.0880, 199.8296
388.8070, 141.2808
390.5250, 178.4548
392.2440, 122.5425
393.9610, 108.2954
395.6790, 108.2805
397.3960, 29.45679
399.1130, 71.64526
400.8290, 49.83154
402.5450, 79.14941
404.2610, 171.0837
405.9770, 248.4185
407.6920, 346.1248
409.4070, 279.0435
411.1210, 331.4756
412.8350, 232.1584
414.5490, 102.1130
416.2630, 55.13550
417.9760, 51.74561
419.6890, 63.86987
421.4010, 33.75049
423.1130, 75.24365
424.8250, 13.14087
426.5370, 22.67383
428.2480, 24.68774
429.9590, 99.75488
431.6690, 110.4663
433.3800, 191.2568
435.0900, 331.7637
436.7990, 384.2859
438.5080, 461.4561
440.2170, 455.1387
441.9260, 341.7336
443.6340, 205.1538
445.3420, 175.7407
447.0490, 131.5686
448.7570, 96.08838
450.4640, 4.850342
452.1700, 43.90381
453.8760, 16.73022
455.5820, 33.92139
457.2880, 121.1831
458.9930, 146.8059
460.6980, 277.9434
462.4030, 256.5037
464.1070, 372.9180
465.8110, 352.8420
467.5150, 300.1130
469.2180, 413.3872
470.9210, 526.8362
472.6230, 780.4617
474.3260, 995.2444
476.0280, 1236.962
477.7290, 1607.014
479.4310, 1796.412
481.1320, 1804.322
482.8320, 1715.645
484.5330, 1395.264
486.2330, 1067.324
487.9330, 914.9062
489.6320, 735.2351
491.3310, 538.3967
493.0300, 531.0408
494.7280, 509.0293
496.4260, 575.4800
498.1240, 724.4978
499.8210, 966.7874
501.5180, 1394.789
503.2150, 1569.421
504.9120, 1730.804
506.6080, 1808.149
508.3030, 1550.736
509.9990, 1219.434
511.6940, 935.1443
513.3890, 579.8672
515.0830, 497.3923
516.7770, 335.1208
518.4710, 310.0217
520.1650, 281.9053
521.8580, 287.6707
523.5510, 181.1287
525.2430, 191.2188
526.9360, 111.0889
528.6270, 101.8962
530.3190, 111.8979
532.0100, 117.5586
533.7010, 61.11768
535.3920, 113.8948
537.0820, 5.133545
538.7720, 47.50879
540.4610, 29.03564
542.1510, 23.94653
543.8400, 24.59644
545.5280, 103.6946
547.2170, 24.25464
548.9050, 168.5098
550.5920, 16.52661
552.2800, 55.24219
553.9670, 19.81055
555.6530, 19.88037
557.3400, 30.27173
559.0260, 55.43628
560.7120, 77.58496
562.3970, 65.55811
564.0820, 22.31641
565.7670, 85.85840
567.4510, 18.73633
569.1350, 122.2788
570.8190, 130.7698
572.5030, 137.3367
574.1860, 93.72852
575.8690, 51.54224
577.5510, 147.5105
579.2330, 142.3992
580.9150, 74.82617
582.5970, 170.7666
584.2780, 118.0054
585.9590, 169.3350
587.6390, 146.2581
589.3200, 156.4683
590.9990, 174.9343
592.6790, 224.1470
594.3580, 197.7183
596.0370, 255.6699
597.7160, 186.8660
599.3940, 238.6865
601.0720, 230.9299
602.7500, 252.5403
604.4270, 240.8735
606.1040, 362.4697
607.7810, 301.7173
609.4570, 336.6499
611.1330, 363.5342
612.8090, 461.3828
614.4850, 405.7200
616.1600, 488.3196
617.8350, 543.2256
619.5090, 684.0225
621.1830, 663.6829
622.8570, 720.2444
624.5310, 969.5830
626.2040, 1195.195
627.8770, 1494.919
629.5490, 1894.178
631.2210, 2341.944
632.8930, 3185.708
634.5650, 4198.327
636.2360, 5245.417
637.9070, 6422.072
639.5780, 7374.402
641.2480, 7799.877
642.9180, 7522.764
644.5880, 6697.422
646.2570, 5477.401
647.9260, 4173.261
649.5950, 3215.914
651.2630, 2424.240
652.9310, 1922.271
654.5990, 1541.529
656.2670, 1213.736
657.9340, 1057.431
659.6010, 879.6625
661.2670, 732.0593
662.9330, 647.9651
664.5990, 641.8020
666.2650, 506.9238
667.9300, 473.9508
669.5950, 452.7588
671.2590, 343.4244
672.9240, 292.9697
674.5880, 382.2361
676.2510, 253.6539
677.9150, 269.3807
679.5780, 282.1584
681.2400, 242.3439
682.9030, 328.9097
684.5650, 251.5781
686.2270, 240.4565
687.8880, 269.9985
689.5490, 225.8285
691.2100, 256.9156
692.8700, 229.2804
694.5300, 198.6040
696.1900, 217.6096
697.8500, 170.3070
699.5090, 180.2356
701.1680, 175.0742
702.8270, 194.0123
704.4850, 228.0101
706.1430, 231.8387
707.8000, 246.2073
709.4580, 254.5264
711.1150, 283.9568
712.7710, 256.0280
714.4280, 286.9403
716.0840, 236.3143
717.7400, 292.8508
719.3950, 174.0715
721.0500, 171.4543
722.7050, 170.3607
724.3590, 118.9314
726.0140, 126.4646
727.6670, 103.4232
729.3210, 89.39343
730.9740, 52.71558
732.6270, 35.69043
734.2800, 68.33813
735.9320, 107.2671
737.5840, 71.40369
739.2360, 81.28784
740.8870, 45.66638
742.5380, 73.61438
744.1890, 68.23755
745.8390, 72.26379
747.4890, 48.68994
749.1390, 27.21216
750.7880, 115.7404
752.4380, 175.6554
754.0860, 177.8074
755.7350, 301.3046
757.3830, 359.6515
759.0310, 566.8196
760.6790, 661.8567
762.3260, 737.1396
763.9730, 718.1290
765.6200, 635.6008
767.2660, 504.1594
768.9120, 411.0785
770.5580, 415.2211
772.2030, 294.7905
773.8480, 282.0459
775.4930, 246.3130
777.1370, 302.2007
778.7810, 256.1857
780.4250, 264.6364
782.0690, 309.9973
783.7120, 265.3767
785.3550, 292.4890
786.9980, 267.7440
788.6400, 273.4950
790.2820, 259.5392
791.9230, 186.3782
793.5650, 167.9436
795.2060, 142.1012
796.8470, 102.2834
798.4870, 120.6097
800.1270, 61.17639
801.7670, 76.48560
803.4060, 53.68164
805.0460, 15.63147
806.6840, 52.31885
808.3230, 39.16577
809.9610, 12.76685
811.5990, 31.45752
813.2370, 35.74878
814.8740, 86.39062
816.5110, 58.91785
818.1480, 19.22229
819.7840, 19.20203
821.4200, 42.09009
823.0560, 35.93762
824.6910, 61.86731
826.3270, 5.462524
827.9610, 46.45654
829.5960, 67.80579
831.2300, 27.11609
832.8640, 92.18005
834.4980, 90.64075
836.1310, 57.00635
837.7640, 46.35193
839.3970, 37.24524
841.0290, 46.52942
842.6610, 49.71667
844.2930, 19.08411
845.9240, 8.225952
847.5550, 8.089600
849.1860, 46.28760
850.8170, 32.38110
852.4470, 2.997559
854.0770, 36.80933
855.7060, 30.60571
857.3360, 25.94617
858.9650, 41.23865
860.5930, 38.11194
862.2220, 54.96484
863.8500, 79.49780
865.4770, 173.1636
867.1050, 50.23193
868.7320, 88.60889
870.3590, 183.8732
871.9850, 156.1759
873.6110, 116.1656
875.2370, 114.6012
876.8630, 256.0791
878.4880, 240.6835
880.1130, 243.7544
881.7380, 268.3607
883.3620, 332.9932
884.9860, 309.8811
886.6100, 294.4642
888.2330, 382.2310
889.8570, 385.3030
891.4790, 488.5201
893.1020, 510.1033
894.7240, 628.7811
896.3460, 667.3445
897.9680, 701.2834
899.5890, 830.8480
901.2100, 948.1282
902.8310, 1142.584
904.4510, 1406.546
906.0710, 1803.334
907.6910, 2195.648
909.3100, 2821.237
910.9300, 3627.753
912.5480, 4870.133
914.1670, 6238.112
915.7850, 8590.877
917.4030, 11159.31
919.0210, 14282.14
920.6380, 17438.54
922.2550, 19550.87
923.8720, 20199.32
925.4880, 19073.51
927.1040, 16314.96
928.7200, 13004.24
930.3360, 10012.96
931.9510, 7588.744
933.5660, 6005.834
935.1800, 4643.836
936.7950, 3872.877
938.4090, 3157.530
940.0220, 2742.497
941.6360, 2448.226
943.2490, 2218.852
944.8620, 2094.742
946.4740, 1978.676
948.0860, 1806.722
949.6980, 1796.050
951.3100, 1901.740
952.9210, 1780.902
954.5320, 1847.834
956.1430, 1795.241
957.7530, 1680.528
959.3630, 1663.618
960.9730, 1537.970
962.5820, 1548.984
964.1910, 1552.250
965.8000, 1634.766
967.4090, 1760.852
969.0170, 1946.059
970.6250, 2117.337
972.2320, 2243.586
973.8400, 2410.314
975.4470, 2780.944
977.0540, 3066.122
978.6600, 3393.432
980.2660, 3379.910
981.8720, 3213.954
983.4770, 2881.133
985.0830, 2457.840
986.6880, 2099.818
988.2920, 1822.692
989.8960, 1592.347
991.5000, 1576.594
993.1040, 1481.633
994.7080, 1542.485
996.3110, 1486.636
997.9140, 1676.383
999.5160, 1777.685
1001.120, 2008.837
1002.720, 2209.919
1004.320, 2509.715
1005.920, 2879.901
1007.520, 3329.856
1009.120, 3934.988
1010.730, 5040.492
1012.330, 6109.613
1013.930, 7849.095
1015.520, 9942.714
1017.120, 12808.48
1018.720, 15964.86
1020.320, 19387.64
1021.920, 22131.59
1023.520, 23726.32
1025.120, 23519.21
1026.710, 21636.68
1028.310, 18290.03
1029.910, 14697.99
1031.500, 11752.42
1033.100, 9478.122
1034.700, 7531.459
1036.290, 6115.234
1037.890, 5048.691
1039.480, 4372.068
1041.080, 3695.348
1042.670, 3278.841
1044.260, 2936.367
1045.860, 2719.781
1047.450, 2556.101
1049.040, 2412.030
1050.640, 2551.768
1052.230, 2668.248
1053.820, 2901.282
1055.410, 3410.658
1057.010, 3953.671
1058.600, 4975.759
1060.190, 6155.058
1061.780, 7188.625
1063.370, 7939.867
1064.960, 8055.828
1066.550, 7577.910
1068.140, 6257.423
1069.730, 5024.930
1071.320, 3846.977
1072.910, 2887.345
1074.500, 2346.119
1076.080, 1962.121
1077.670, 1623.577
1079.260, 1483.571
1080.850, 1507.246
1082.430, 1415.779
1084.020, 1347.907
1085.610, 1306.810
1087.190, 1212.089
1088.780, 1104.714
1090.360, 976.7937
1091.950, 889.8291
1093.530, 818.6865
1095.120, 704.8230
1096.700, 557.7745
1098.290, 530.6311
1099.870, 430.8436
1101.450, 389.4432
1103.040, 362.2461
1104.620, 260.7742
1106.200, 299.8900
1107.790, 275.8008
1109.370, 275.4070
1110.950, 244.9685
1112.530, 208.1951
1114.110, 133.4371
1115.690, 166.2146
1117.270, 206.9177
1118.850, 179.5770
1120.430, 221.9163
1122.010, 154.9882
1123.590, 124.4453
1125.170, 209.4882
1126.750, 197.9467
1128.330, 186.3911
1129.910, 198.5913
1131.480, 212.3771
1133.060, 121.5582
1134.640, 195.5653
1136.220, 198.3248
1137.790, 174.0497
1139.370, 116.4423
1140.940, 160.3395
1142.520, 94.76147
1144.100, 81.52783
1145.670, 127.4138
1147.250, 122.1539
1148.820, 134.3130
1150.390, 156.2072
1151.970, 68.32959
1153.540, 111.0756
1155.120, 110.4930
1156.690, 87.66467
1158.260, 184.0406
1159.830, 80.27307
1161.410, 90.79736
1162.980, 107.7904
1164.550, 145.3531
1166.120, 109.8251
1167.690, 83.73584
1169.260, 111.7507
1170.830, 15.16870
1172.400, 103.6803
1173.970, 83.97437
1175.540, 94.46326
1177.110, 68.35571
1178.680, 23.05225
1180.250, 11.11841
1181.820, 63.08289
1183.390, 71.93811
1184.950, 10.61731
1186.520, 31.44763
1188.090, 93.81519
1189.660, 19.65308
1191.220, 34.90125
1192.790, 16.96521
1194.360, 71.72852
1195.920, 15.19849
1197.490, 9.527710
1199.050, 47.18384
1200.620, 51.22803
1202.180, 23.01404
1203.750, 12.99707
1205.310, 13.29480
1206.870, 40.39539
1208.440, 32.43298
1210.000, 0.2502440
1211.560, 66.23718
1213.130, 36.83472
1214.690, 29.50049
1216.250, 4.572021
1217.810, 16.47607
1219.370, 24.46350
1220.940, 3.453369
1222.500, 5.885498
1224.060, 3.362793
1225.620, 21.68140
1227.180, 17.55310
1228.740, 8.608276
1230.300, 9.274780
1231.860, 26.95740
1233.410, 18.58362
1234.970, 28.92041
1236.530, 11.78772
1238.090, 60.59583
1239.650, 14.63013
1241.200, 21.71362
1242.760, 10.93848
1244.320, 0.2419430
1245.870, 7.192017
1247.430, 35.03235
1248.990, 45.18567
1250.540, 8.732300
1252.100, 67.09961
1253.650, 22.43945
1255.210, 9.123535
1256.760, 29.92456
1258.320, 48.06519
1259.870, 46.89978
1261.420, 34.45740
1262.980, 36.48840
1264.530, 54.61230
1266.080, 17.42993
1267.640, 24.81567
1269.190, 89.63403
1270.740, 90.01636
1272.290, 61.39258
1273.840, 111.7223
1275.390, 149.1865
1276.950, 109.2441
1278.500, 75.76245
1280.050, 30.94788
1281.600, 142.5865
1283.150, 123.5690
1284.690, 94.85535
1286.240, 111.3258
1287.790, 50.29004
1289.340, 73.20837
1290.890, 60.58069
1292.440, 100.1099
1293.980, 95.56006
1295.530, 105.5444
1297.080, 97.74268
1298.630, 128.7352
1300.170, 104.7517
1301.720, 155.1523
1303.260, 111.7472
1304.810, 136.2761
1306.360, 36.20935
1307.900, 140.0062
1309.450, 81.97717
1310.990, 101.6327
1312.530, 118.0525
1314.080, 82.64636
1315.620, 52.07458
1317.170, 110.5972
1318.710, 70.29419
1320.250, 127.2053
1321.790, 28.51086
1323.340, 44.90027
1324.880, 75.87390
1326.420, 48.47278
1327.960, 98.91638
1329.500, 90.97449
1331.040, 3.486938
1332.580, 34.45996
1334.120, 42.70715
1335.660, 10.35889
1337.200, 31.58337
1338.740, 2.451904
1340.280, 54.54089
1341.820, 49.76440
1343.360, 61.23303
1344.900, 12.55603
1346.430, 43.52246
1347.970, 17.57349
1349.510, 72.93848
1351.050, 19.32849
1352.580, 45.41235
1354.120, 51.97119
1355.660, 35.86499
1357.190, 115.3767
1358.730, 24.22644
1360.260, 120.3108
1361.800, 25.86023
1363.330, 66.58423
1364.870, 46.90137
1366.400, 39.12915
1367.940, 57.03870
1369.470, 40.72363
1371.000, 9.519043
1372.540, 59.14246
1374.070, 46.05713
1375.600, 18.15234
1377.130, 44.14648
1378.670, 13.09363
1380.200, 9.772827
1381.730, 86.56653
1383.260, 65.06506
1384.790, 54.93860
1386.320, 36.37231
1387.850, 18.21558
1389.380, 64.12842
1390.910, 12.92908
1392.440, 34.33569
1393.970, 31.59497
1395.500, 34.17725
1397.030, 26.06152
1398.560, 22.63403
1400.080, 20.81287
1401.610, 53.06592
1403.140, 123.2139
1404.670, 37.47668
1406.190, 33.47168
1407.720, 69.19824
1409.250, 42.37793
1410.770, 50.32959
1412.300, 46.78088
1413.820, 52.91614
1415.350, 8.244019
1416.870, 59.83643
1418.400, 92.37317
1419.920, 22.49585
1421.450, 4.119263
1422.970, 99.12244
1424.500, 38.08203
1426.020, 21.11072
1427.540, 33.85327
1429.060, 13.31445
1430.590, 96.57336
1432.110, 29.01013
1433.630, 76.47766
1435.150, 61.24023
1436.670, 15.08752
1438.190, 29.25781
1439.720, 82.10266
1441.240, 9.504395
1442.760, 27.42114
1444.280, 60.14233
1445.800, 78.02258
1447.320, 36.67029
1448.830, 8.537598
1450.350, 21.41187
1451.870, 22.77869
1453.390, 70.39185
1454.910, 91.65393
1456.430, 33.84485
1457.940, 0.9156490
1459.460, 71.44263
1460.980, 2.890259
1462.490, 61.24561
1464.010, 29.66370
1465.530, 4.767334
1467.040, 75.53040
1468.560, 15.97253
1470.070, 27.36365
1471.590, 9.031860
1473.100, 28.67139
1474.620, 21.02991
1476.130, 25.03333
1477.640, 8.336060
1479.160, 65.98792
1480.670, 72.43811
1482.180, 19.38745
1483.700, 19.21655
1485.210, 75.26477
1486.720, 43.68689
1488.230, 60.06848
1489.740, 59.85950
1491.260, 86.17322
1492.770, 36.37634
1494.280, 82.55908
1495.790, 72.47156
1497.300, 183.2535
1498.810, 135.0952
1500.320, 249.2367
1501.830, 206.0380
1503.340, 177.7388
1504.850, 175.8633
1506.350, 157.4869
1507.860, 132.6644
1509.370, 275.1245
1510.880, 279.9768
1512.390, 190.2933
1513.890, 232.9048
1515.400, 173.0066
1516.910, 172.8640
1518.410, 165.8809
1519.920, 164.0337
1521.420, 223.2579
1522.930, 171.6549
1524.440, 108.4022
1525.940, 141.4896
1527.440, 162.7954
1528.950, 66.26343
1530.450, 67.66724
1531.960, 110.7560
1533.460, 107.1902
1534.960, 122.0260
1536.470, 148.5121
1537.970, 143.9596
1539.470, 50.63770
1540.970, 168.6075
1542.480, 96.90710
1543.980, 106.7076
1545.480, 58.27869
1546.980, 141.4324
1548.480, 113.0024
1549.980, 141.2136
1551.480, 141.1056
1552.980, 113.5963
1554.480, 136.8322
1555.980, 105.7130
1557.480, 105.5455
1558.980, 120.4565
1560.480, 118.6257
1561.980, 103.4183
1563.470, 130.0464
1564.970, 39.82654
1566.470, 104.8789
1567.970, 98.16235
1569.460, 86.41882
1570.960, 148.2014
1572.460, 72.20862
1573.950, 97.24438
1575.450, 109.4058
1576.950, 89.33813
1578.440, 59.26404
1579.940, 72.67126
1581.430, 60.97986
1582.930, 104.5116
1584.420, 136.3350
1585.910, 51.02905
1587.410, 78.14990
1588.900, 115.0304
1590.390, 65.03552
1591.890, 113.6512
1593.380, 90.25891
1594.870, 142.2590
1596.360, 97.08582
1597.860, 126.2838
1599.350, 102.9160
1600.840, 143.5530
1602.330, 138.5710
1603.820, 173.8965
1605.310, 162.2639
1606.800, 98.62170
1608.290, 127.2617
1609.780, 212.9862
1611.270, 171.1538
1612.760, 184.7229
1614.250, 134.0129
1615.740, 223.1760
1617.230, 196.4399
1618.710, 196.5944
1620.200, 208.5159
1621.690, 210.3589
1623.180, 188.7792
1624.660, 260.0135
1626.150, 189.5503
1627.640, 114.1238
1629.120, 265.7029
1630.610, 212.0411
1632.090, 261.0309
1633.580, 197.2517
1635.060, 214.2739
1636.550, 216.1469
1638.030, 285.3806
1639.520, 238.4064
1641.000, 171.1838
1642.480, 196.6418
1643.970, 200.2013
1645.450, 272.9496
1646.930, 273.1615
1648.420, 204.2140
1649.900, 243.2078
1651.380, 280.5227
1652.860, 171.0583
1654.340, 288.9229
1655.830, 236.8113
1657.310, 213.3809
1658.790, 262.9539
1660.270, 274.9857
1661.750, 239.7283
1663.230, 272.0417
1664.710, 256.3572
1666.190, 259.9528
1667.670, 196.6040
1669.150, 141.0216
1670.620, 202.0901
1672.100, 166.7795
1673.580, 136.5295
1675.060, 121.5005
1676.540, 54.00452
1678.010, 40.65820
1679.490, 71.31262
1680.970, 86.73804
1682.440, 107.2559
1683.920, 102.3748
1685.400, 9.235352
1686.870, 38.39331
1688.350, 47.49866
1689.820, 60.52100
1691.300, 77.66223
1692.770, 69.38611
1694.250, 72.98108
1695.720, 51.12671
1697.190, 86.95398
1698.670, 100.7423
1700.140, 80.58374
1701.610, 101.1655
1703.090, 35.15833
1704.560, 26.87183
1706.030, 125.5867
1707.500, 79.94226
1708.970, 25.77930
1710.450, 71.86682
1711.920, 75.16699
1713.390, 85.57642
1714.860, 109.5964
1716.330, 79.21887
1717.800, 55.64209
1719.270, 101.7960
1720.740, 78.21057
1722.210, 32.49597
1723.680, 32.98096
1725.140, 82.57751
1726.610, 55.56458
1728.080, 72.82214
1729.550, 20.62976
1731.020, 73.28003
1732.480, 13.39978
1733.950, 46.75049
1735.420, 69.12585
1736.880, 175.0515
1738.350, 62.74780
1739.820, 42.50476
1741.280, 46.13232
1742.750, 110.7942
1744.210, 74.27759
1745.680, 16.46545
1747.140, 21.80334
1748.610, 86.89124
1750.070, 76.87268
1751.540, 61.24585
1753.000, 53.38306
1754.460, 63.15881
1755.930, 80.44910
1757.390, 84.05896
1758.850, 70.57849
1760.310, 43.40747
1761.780, 96.61597
1763.240, 4.105713
1764.700, 23.44617
1766.160, 27.70251
1767.620, 11.82227
1769.080, 13.70642
1770.540, 36.13989
1772.000, 18.27795
1773.460, 7.249756
1774.920, 8.326172
1776.380, 1.798706
1777.840, 8.632446
1779.300, 63.63306
1780.760, 70.65308
1782.220, 70.81189
1783.680, 21.25024
1785.130, 17.96753
1786.590, 109.0341
1788.050, 57.72949
1789.500, 15.90588
1790.960, 92.35718
1792.420, 15.25916
1793.870, 65.19031
1795.330, 32.70044
1796.790, 36.26953
1798.240, 3.767822
1799.700, 2.976196
1801.150, 86.50452
1802.610, 4.134155
1804.060, 23.17175
1805.520, 85.18835
1806.970, 37.17395
1808.420, 64.81836
1809.880, 46.01172
1811.330, 80.55396
1812.780, 42.81494
1814.230, 29.27539
1815.690, 12.17432
1817.140, 14.00232
1818.590, 67.50928
1820.040, 7.335083
1821.490, 90.13904
1822.950, 93.71167
1824.400, 88.65332
1825.850, 54.29370
1827.300, 109.5833
1828.750, 113.2086
1830.200, 58.13867
1831.650, 28.91748
1833.100, 27.91272
1834.540, 17.03748
1835.990, 67.16675
1837.440, 25.83484
1838.890, 10.34839
1840.340, 50.16858
1841.780, 5.035767
1843.230, 74.49268
1844.680, 45.19165
1846.130, 79.82947
1847.570, 119.6561
1849.020, 60.95166
1850.470, 14.33594
1851.910, 78.54578
1853.360, 47.47778
1854.800, 28.50867
1856.250, 49.66370
1857.690, 82.61328
1859.140, 46.32178
1860.580, 25.42236
1862.020, 0.4985350
1863.470, 9.114990
1864.910, 79.26917
1866.350, 42.93188
1867.800, 51.63379
1869.240, 44.74561
1870.680, 20.51611
1872.130, 62.17017
1873.570, 83.02307
1875.010, 41.44470
1876.450, 34.54529
1877.890, 51.93457
1879.330, 45.03296
1880.770, 45.07007
1882.210, 67.67603
1883.650, 36.46094
1885.090, 15.60522
1886.530, 34.77539
1887.970, 74.75476
1889.410, 92.15320
1890.850, 31.35059
1892.290, 43.53687
1893.730, 41.81189
1895.160, 47.04590
1896.600, 3.585205
1898.040, 33.16089
1899.480, 66.23535
1900.910, 101.0490
1902.350, 66.26123
1903.790, 100.0272
1905.220, 72.19739
1906.660, 1.902588
1908.100, 71.56824
1909.530, 54.16272
1910.970, 82.03625
1912.400, 40.22888
1913.840, 69.86060
1915.270, 15.54858
1916.700, 6.850342
1918.140, 22.77002
1919.570, 45.41943
1921.010, 50.62793
1922.440, 22.69543
1923.870, 106.4323
1925.300, 72.93506
1926.740, 40.54968
1928.170, 59.34253
1929.600, 81.99292
1931.030, 38.29260
1932.460, 39.99146
1933.890, 76.62988
1935.330, 53.90771
1936.760, 46.49500
1938.190, 69.17151
1939.620, 96.99634
1941.050, 74.22180
1942.480, 7.706909
1943.910, 9.838745
1945.330, 46.07788
1946.760, 20.89429
1948.190, 26.06799
1949.620, 13.44873
1951.050, 69.40210
1952.480, 50.07715
1953.900, 86.80200
1955.330, 84.99658
1956.760, 51.65076
1958.180, 44.57507
1959.610, 42.75891
1961.040, 33.93250
1962.460, 83.50647
1963.890, 99.22986
1965.310, 50.06323
1966.740, 60.52661
1968.160, 49.94141
1969.590, 35.84631
1971.010, 74.29492
1972.440, 38.67090
1973.860, 84.26587
1975.290, 52.49573
1976.710, 112.1610
1978.130, 78.73657
1979.550, 15.42224
1980.980, 101.4781
1982.400, 46.93469
1983.820, 11.71118
1985.240, 1.098022
1986.670, 80.17395
1988.090, 74.84277
1989.510, 50.14941
1990.930, 23.69653
1992.350, 62.29602
1993.770, 67.52417
1995.190, 62.18262
1996.610, 116.7314
1998.030, 21.57092
1999.450, 2.130981
2000.870, 16.30371
2002.290, 164.2743
2003.710, 16.58130
2005.120, 46.16040
2006.540, 84.90295
2007.960, 39.01013
2009.380, 30.14795
2010.790, 27.33655
2012.210, 46.69690
2013.630, 86.57324
2015.040, 70.98840
2016.460, 56.83154
2017.880, 111.5356
2019.290, 79.72083
2020.710, 74.38708
2022.120, 1.607788
2023.540, 47.81873
2024.950, 37.18628
2026.370, 5.038696
2027.780, 26.73792
2029.200, 70.90576
2030.610, 123.9347
2032.020, 83.87659
2033.440, 56.86646
2034.850, 121.3510
2036.260, 100.1089
2037.680, 135.4980
2039.090, 68.44934
2040.500, 38.33105
2041.910, 113.6941
2043.320, 64.08850
2044.730, 71.16443
2046.150, 90.65149
2047.560, 30.38269
2048.970, 78.23523
2050.380, 48.08923
2051.790, 64.04468
2053.200, 78.23157
2054.610, 14.37610
2056.020, 28.96057
2057.420, 131.8898
2058.830, 105.2906
2060.240, 60.93311
2061.650, 55.61755
2063.060, 18.34375
2064.470, 64.54175
2065.870, 28.73242
2067.280, 80.01489
2068.690, 113.8081
2070.090, 62.30298
2071.500, 103.2197
2072.910, 1.908325
2074.310, 28.60315
2075.720, 80.21985
2077.120, 111.9957
2078.530, 67.55920
2079.940, 30.23474
2081.340, 62.32227
2082.740, 81.95178
2084.150, 53.52332
2085.550, 114.5928
2086.960, 5.213135
2088.360, 85.43115
2089.760, 92.62158
2091.170, 41.01428
2092.570, 85.63928
2093.970, 71.44641
2095.370, 67.97229
2096.780, 9.596802
2098.180, 15.44995
2099.580, 19.09912
2100.980, 104.8412
2102.380, 44.26550
2103.780, 0.2674560
2105.180, 40.89160
2106.580, 87.41528
2107.980, 66.10132
2109.380, 59.07812
2110.780, 130.6576
2112.180, 114.7100
2113.580, 63.99988
2114.980, 137.4177
2116.380, 69.63123
2117.780, 67.97754
2119.170, 7.318481
2120.570, 112.9921
2121.970, 111.3585
2123.370, 52.46802
2124.760, 106.3203
2126.160, 68.89551
2127.560, 33.24353
2128.950, 119.3646
2130.350, 90.87878
2131.750, 71.36108
2133.140, 114.5366
2134.540, 39.46509
2135.930, 127.8041
2137.330, 140.5583
2138.720, 27.80591
2140.110, 54.88708
2141.510, 62.26343
2142.900, 119.8839
2144.300, 77.04834
2145.690, 5.485718
2147.080, 55.95679
2148.480, 106.4573
2149.870, 95.93066
2151.260, 141.0674
2152.650, 22.77686
2154.040, 105.5494
2155.440, 82.44556
2156.830, 71.91479
2158.220, 39.81738
2159.610, 20.30957
2161.000, 58.32556
2162.390, 87.37463
2163.780, 64.27686
2165.170, 95.13232
2166.560, 63.03381
2167.950, 3.318604
2169.340, 68.96289
2170.730, 9.952515
2172.120, 37.15186
2173.500, 84.27869
2174.890, 80.08362
2176.280, 107.4270
2177.670, 37.61462
2179.060, 41.53918
2180.440, 131.9969
2181.830, 8.279053
2183.220, 44.33533
2184.600, 42.87305
2185.990, 46.82397
2187.370, 81.43970
2188.760, 105.2589
2190.150, 22.43506
2191.530, 105.8209
2192.920, 5.749634
2194.300, 46.63672
2195.690, 88.54077
2197.070, 31.10828
2198.450, 15.50098
2199.840, 90.35437
2201.220, 69.04858
2202.600, 116.4304
2203.990, 80.66565
2205.370, 5.735474
2206.750, 79.65430
2208.130, 23.06262
2209.520, 84.06726
2210.900, 77.22485
2212.280, 50.48608
2213.660, 82.22400
2215.040, 41.00244
2216.420, 75.81458
2217.800, 61.74988
2219.180, 31.36902
2220.560, 85.73694
2221.940, 29.99268
2223.320, 77.86353
2224.700, 103.6833
2226.080, 53.37646
2227.460, 101.0023
2228.840, 106.9091
2230.220, 40.25928
2231.600, 31.85706
2232.970, 68.39722
2234.350, 83.37610
2235.730, 31.19824
2237.110, 84.31409
2238.480, 82.97339
2239.860, 56.18079
2241.240, 67.55847
2242.610, 149.7999
2243.990, 37.63623
2245.360, 12.69043
2246.740, 94.99780
2248.110, 55.50879
2249.490, 112.4028
2250.860, 74.73035
2252.240, 137.1091
2253.610, 63.06506
2254.990, 61.78442
2256.360, 142.4072
2257.730, 70.15344
2259.110, 103.4830
2260.480, 113.1465
2261.850, 144.6736
2263.230, 117.5042
2264.600, 132.6696
2265.970, 133.2594
2267.340, 35.42261
2268.710, 83.40930
2270.080, 100.3690
2271.460, 68.14221
2272.830, 132.5789
2274.200, 122.2487
2275.570, 106.4418
2276.940, 136.2488
2278.310, 124.0991
2279.680, 90.03613
2281.050, 97.96667
2282.420, 80.33032
2283.780, 141.2372
2285.150, 83.41748
2286.520, 127.9110
2287.890, 95.66785
2289.260, 107.2782
2290.630, 157.2815
2291.990, 156.1188
2293.360, 134.8391
2294.730, 89.77283
2296.090, 92.26990
2297.460, 69.14001
2298.830, 62.48340
2300.190, 8.239990
2301.560, 83.95667
2302.920, 115.7566
2304.290, 132.9197
2305.650, 85.97595
2307.020, 10.49121
2308.380, 51.48376
2309.750, 129.1296
2311.110, 21.81567
2312.480, 86.16016
2313.840, 64.84521
2315.200, 71.04346
2316.570, 53.40466
2317.930, 74.27869
2319.290, 62.14648
2320.650, 128.9174
2322.020, 80.08130
2323.380, 140.9875
2324.740, 172.9271
2326.100, 212.2396
2327.460, 145.0149
2328.820, 169.6431
2330.180, 172.7860
2331.550, 17.31995
2332.910, 83.27551
2334.270, 133.6554
2335.630, 43.90173
2336.990, 75.90723
2338.340, 19.00476
2339.700, 31.39819
2341.060, 0.9862060
2342.420, 51.27051
2343.780, 107.2400
2345.140, 38.03210
2346.500, 31.06396
2347.850, 15.23157
2349.210, 47.29187
2350.570, 20.72375
2351.920, 50.97229
2353.280, 49.89075
2354.640, 50.65271
2355.990, 62.48511
2357.350, 77.77625
2358.710, 34.28821
2360.060, 18.46289
2361.420, 164.9802
2362.770, 15.69055
2364.130, 14.62720
2365.480, 59.69641
2366.840, 99.25818
2368.190, 20.64270
2369.540, 85.82898
2370.900, 75.53857
2372.250, 16.64001
2373.600, 29.43909
2374.960, 50.55676
2376.310, 13.27246
2377.660, 83.70032
2379.010, 71.58069
2380.370, 59.44336
2381.720, 41.74841
2383.070, 31.44324
2384.420, 26.70544
2385.770, 7.436768
2387.120, 6.354492
2388.470, 42.32959
2389.820, 0.5471190
2391.170, 52.91077
2392.520, 103.7422
2393.870, 58.24609
2395.220, 66.84119
2396.570, 12.05933
2397.920, 29.55981
2399.270, 74.92554
2400.620, 51.64111
2401.960, 89.55933
2403.310, 18.41980
2404.660, 41.60767
2406.010, 77.69348
2407.350, 20.63086
2408.700, 40.02087
2410.050, 61.28345
2411.390, 102.9780
2412.740, 57.39441
2414.090, 116.2770
2415.430, 44.66699
2416.780, 51.16504
2418.120, 35.28821
2419.470, 45.43347
2420.810, 31.45239
2422.160, 93.81531
2423.500, 22.14771
2424.850, 19.28345
2426.190, 48.04468
2427.530, 39.87024
2428.880, 79.82703
2430.220, 117.9360
2431.560, 61.10669
2432.910, 47.09033
2434.250, 77.76624
2435.590, 13.45728
2436.930, 60.92004
2438.280, 63.77417
2439.620, 100.0808
2440.960, 97.24988
2442.300, 53.41357
2443.640, 95.33093
2444.980, 14.18018
2446.320, 39.33057
2447.660, 32.77478
2449.000, 82.23059
2450.340, 98.07764
2451.680, 87.79639
2453.020, 23.50208
2454.360, 56.15552
2455.700, 17.85229
2457.040, 9.434448
2458.370, 55.18982
2459.710, 74.80688
2461.050, 45.83704
2462.390, 100.6506
2463.730, 17.45728
2465.060, 68.88550
2466.400, 144.6383
2467.740, 50.81787
2469.070, 52.99524
2470.410, 52.05530
2471.750, 5.031616
2473.080, 30.22266
2474.420, 47.45166
2475.750, 22.19019
2477.090, 60.57202
2478.420, 25.91602
2479.760, 32.47070
2481.090, 18.48022
2482.420, 40.02991
2483.760, 32.13770
2485.090, 11.90247
2486.430, 57.83472
2487.760, 53.13953
2489.090, 65.33740
2490.420, 16.26953
2491.760, 78.49683
2493.090, 25.65979
2494.420, 114.1768
2495.750, 115.1246
2497.080, 65.36633
2498.420, 6.209839
2499.750, 83.27124
2501.080, 72.94971
2502.410, 103.8380
2503.740, 61.57092
2505.070, 77.56982
2506.400, 80.41199
2507.730, 28.73059
2509.060, 35.34253
2510.390, 10.68762
2511.720, 5.329102
2513.040, 21.35144
2514.370, 76.91602
2515.700, 8.253540
2517.030, 52.53223
2518.360, 23.46606
2519.690, 86.59973
2521.010, 17.90491
2522.340, 58.45276
2523.670, 7.886963
2524.990, 39.03809
2526.320, 49.44995
2527.650, 61.76306
2528.970, 66.53589
2530.300, 39.24988
2531.620, 14.40869
2532.950, 24.74365
2534.270, 59.26270
2535.600, 1.748901
2536.920, 7.831055
2538.250, 14.47559
2539.570, 36.22986
2540.900, 84.43372
2542.220, 21.44666
2543.540, 79.59473
2544.870, 7.812500
2546.190, 9.854736
2547.510, 24.20239
2548.830, 108.3634
2550.160, 36.24890
2551.480, 104.6675
2552.800, 35.69531
2554.120, 44.23096
2555.440, 73.58325
2556.760, 65.10559
2558.090, 15.13977
2559.410, 89.95093
2560.730, 62.65881
2562.050, 12.12109
2563.370, 8.039673
2564.690, 41.21399
2566.010, 63.94250
2567.330, 50.69141
2568.640, 91.60620
2569.960, 35.71704
2571.280, 46.12769
2572.600, 13.63269
2573.920, 80.22156
2575.240, 18.54443
2576.550, 57.41553
2577.870, 98.25305
2579.190, 28.99829
2580.510, 5.234619
2581.820, 59.84155
2583.140, 59.24829
2584.460, 134.7533
2585.770, 4.563965
2587.090, 112.5139
2588.400, 50.87012
2589.720, 76.60706
2591.030, 119.6041
2592.350, 107.4403
2593.660, 74.96509
2594.980, 81.68481
2596.290, 25.52832
2597.610, 78.09106
2598.920, 60.24365
2600.230, 73.39417
2601.550, 109.0858
2602.860, 79.68372
2604.170, 76.76355
2605.490, 85.91260
2606.800, 46.95532
2608.110, 97.36133
2609.420, 83.15051
2610.740, 28.94958
2612.050, 93.16650
2613.360, 123.1284
2614.670, 136.5524
2615.980, 105.4839
2617.290, 70.32581
2618.600, 147.9661
2619.910, 152.7522
2621.220, 101.2234
2622.530, 94.64844
2623.840, 103.9939
2625.150, 103.0435
2626.460, 112.9467
2627.770, 107.6722
2629.080, 107.0824
2630.390, 49.19873
2631.690, 71.81567
2633.000, 67.69678
2634.310, 218.3252
2635.620, 110.5035
2636.920, 92.24670
2638.230, 59.10449
2639.540, 121.6187
2640.840, 147.8323
2642.150, 168.2897
2643.460, 173.3123
2644.760, 138.2347
2646.070, 153.1375
2647.370, 105.2417
2648.680, 79.04260
2649.980, 99.76501
2651.290, 113.2919
2652.590, 133.5424
2653.900, 144.2706
2655.200, 158.8954
2656.510, 152.5598
2657.810, 155.7401
2659.110, 202.7705
2660.420, 135.2295
2661.720, 204.5946
2663.020, 217.5862
2664.320, 182.9922
2665.630, 130.8054
2666.930, 89.73486
2668.230, 193.3223
2669.530, 101.0801
2670.830, 177.5123
2672.130, 225.1122
2673.440, 131.9369
2674.740, 89.11169
2676.040, 138.2463
2677.340, 112.3954
2678.640, 115.7407
2679.940, 131.9700
2681.240, 207.8002
2682.540, 179.8458
2683.840, 177.0664
2685.130, 156.6317
2686.430, 145.8175
2687.730, 106.3384
2689.030, 150.9531
2690.330, 123.8022
2691.630, 136.0825
2692.920, 184.8979
2694.220, 125.8311
2695.520, 147.7310
2696.810, 144.5991
2698.110, 66.34167
2699.410, 173.1201
2700.700, 46.72388
2702.000, 130.1416
2703.300, 97.98865
2704.590, 164.3466
2705.890, 124.5159
2707.180, 156.4581
2708.480, 124.3108
2709.770, 182.9340
2711.070, 149.0192
2712.360, 142.0592
2713.650, 98.30554
2714.950, 187.8839
2716.240, 109.3057
2717.540, 156.3427
2718.830, 81.20691
2720.120, 164.8879
2721.410, 171.2999
2722.710, 172.4310
2724.000, 103.3391
2725.290, 138.7257
2726.580, 168.3177
2727.870, 215.3253
2729.170, 182.5021
2730.460, 167.5391
2731.750, 175.7158
2733.040, 139.4061
2734.330, 145.6996
2735.620, 161.6339
2736.910, 63.09558
2738.200, 80.96362
2739.490, 68.23560
2740.780, 89.94556
2742.070, 99.75769
2743.360, 127.2913
2744.640, 137.3375
2745.930, 104.6565
2747.220, 112.7272
2748.510, 45.04431
2749.800, 144.5059
2751.080, 168.0150
2752.370, 105.9464
2753.660, 108.0396
2754.950, 52.25647
2756.230, 81.47351
2757.520, 135.9402
2758.810, 178.7338
2760.090, 72.04712
2761.380, 138.1093
2762.660, 182.7407
2763.950, 143.7418
2765.230, 132.1292
2766.520, 100.9553
2767.800, 94.90833
2769.090, 44.05603
2770.370, 98.39185
2771.660, 131.9235
2772.940, 103.0781
2774.220, 164.0764
2775.510, 52.61499
2776.790, 139.9996
2778.070, 69.66174
2779.360, 163.5787
2780.640, 141.7627
2781.920, 30.57410
2783.200, 107.9437
2784.480, 89.71191
2785.770, 150.5409
2787.050, 82.89417
2788.330, 93.46643
2789.610, 132.5542
2790.890, 187.5337
2792.170, 120.1119
2793.450, 119.5563
2794.730, 115.4098
2796.010, 198.4027
2797.290, 133.5885
2798.570, 123.8500
2799.850, 103.9775
2801.130, 71.84888
2802.410, 138.1851
2803.680, 101.1593
2804.960, 148.0255
2806.240, 155.7350
2807.520, 149.9896
2808.800, 143.3533
2810.070, 127.6797
2811.350, 139.9830
2812.630, 172.9260
2813.910, 115.6270
2815.180, 67.64807
2816.460, 121.3881
2817.730, 93.04932
2819.010, 118.8883
2820.290, 163.7877
2821.560, 85.00464
2822.840, 100.0171
2824.110, 138.8387
2825.390, 141.5903
2826.660, 204.1156
2827.940, 159.9745
2829.210, 201.0049
2830.480, 202.4606
2831.760, 160.7139
2833.030, 245.9025
2834.300, 251.7566
2835.580, 237.1111
2836.850, 213.4474
2838.120, 325.5785
2839.400, 336.7795
2840.670, 240.9323
2841.940, 393.5024
2843.210, 303.6276
2844.480, 366.4440
2845.750, 401.8191
2847.030, 337.4470
2848.300, 347.0132
2849.570, 365.2429
2850.840, 287.9779
2852.110, 359.5061
2853.380, 269.0334
2854.650, 362.6375
2855.920, 343.8628
2857.190, 306.5435
2858.460, 380.1931
2859.720, 344.6219
2860.990, 330.7830
2862.260, 373.2847
2863.530, 295.7316
2864.800, 315.9508
2866.070, 388.6736
2867.330, 322.1630
2868.600, 369.1855
2869.870, 402.3569
2871.130, 410.0754
2872.400, 395.3279
2873.670, 385.3936
2874.930, 412.9949
2876.200, 440.5750
2877.470, 496.2611
2878.730, 555.4648
2880.000, 468.0269
2881.260, 473.3956
2882.530, 415.6904
2883.790, 419.3262
2885.060, 425.1171
2886.320, 410.6866
2887.590, 356.5675
2888.850, 400.2664
2890.110, 428.9099
2891.380, 283.4919
2892.640, 426.7959
2893.900, 345.1213
2895.170, 407.6664
2896.430, 384.7517
2897.690, 415.2854
2898.950, 339.8005
2900.220, 399.8336
2901.480, 305.5577
2902.740, 361.6445
2904.000, 401.9261
2905.260, 362.9435
2906.520, 269.9929
2907.780, 348.9510
2909.040, 321.0664
2910.300, 364.9037
2911.560, 284.3368
2912.820, 335.5283
2914.080, 323.6339
2915.340, 363.4742
2916.600, 279.9990
2917.860, 271.8511
2919.120, 324.9911
2920.380, 340.2838
2921.640, 279.4021
2922.900, 219.0797
2924.150, 218.5509
2925.410, 197.8485
2926.670, 310.6526
2927.930, 257.4310
2929.180, 240.7714
2930.440, 195.5574
2931.700, 244.5222
2932.950, 213.7441
2934.210, 271.1539
2935.470, 315.6262
2936.720, 166.7423
2937.980, 153.6541
2939.230, 139.8851
2940.490, 175.9587
2941.740, 156.5354
2943.000, 125.3689
2944.250, 193.3573
2945.510, 173.5933
2946.760, 243.4438
2948.010, 170.1782
2949.270, 70.55078
2950.520, 158.2068
2951.770, 183.7957
2953.030, 139.0786
2954.280, 55.07568
2955.530, 126.2854
2956.780, 124.0110
2958.040, 109.7454
2959.290, 145.2827
2960.540, 106.7979
2961.790, 82.09351
2963.040, 111.3359
2964.290, 48.87036
2965.550, 129.6904
2966.800, 131.8286
2968.050, 6.675781
2969.300, 64.97437
2970.550, 25.52441
2971.800, 26.37964
2973.050, 86.26025
2974.300, 43.81128
2975.540, 98.59082
2976.790, 19.24048
2978.040, 25.45850
2979.290, 5.629639
2980.540, 56.13110
2981.790, 52.50830
2983.040, 72.48999
2984.280, 32.89136
2985.530, 7.260986
2986.780, 8.499512
2988.030, 19.59424
2989.270, 36.25952
2990.520, 24.03027
2991.760, 8.078613
2993.010, 48.13184
2994.260, 68.19629
2995.500, 7.940186
2996.750, 37.92554
2997.990, 58.61499
2999.240, 8.695557
3000.480, 7.020752
3001.730, 53.73779
3002.970, 32.16162
3004.220, 0.7229000
3005.460, 6.710693
3006.710, 18.06616
3007.950, 63.07935
3009.190, 18.54150
3010.440, 20.52979
3011.680, 43.58960
3012.920, 48.61816
3014.160, 37.79712
3015.410, 61.17700
3016.650, 30.17700
3017.890, 31.55347
3019.130, 0.6770020
3020.370, 4.060791
3021.620, 33.68530
3022.860, 10.99243
3024.100, 76.12866
3025.340, 42.33618
3026.580, 29.78931
3027.820, 57.64111
3029.060, 15.00146
3030.300, 53.04956
3031.540, 22.60181
3032.780, 26.47314
3034.020, 32.42358
3035.260, 64.64526
3036.500, 64.64087
3037.730, 6.159668
3038.970, 7.885498
3040.210, 75.00781
3041.450, 7.193359
3042.690, 87.93872
3043.920, 84.16748
3045.160, 58.98218
3046.400, 26.32764
3047.640, 22.53052
3048.870, 106.4731
3050.110, 19.27075
3051.350, 28.63354
3052.580, 54.50024
3053.820, 6.633789
3055.050, 112.2886
3056.290, 26.37744
3057.520, 84.58496
3058.760, 104.3330
3059.990, 13.61353
3061.230, 101.0305
3062.460, 96.45654
3063.700, 108.0671
3064.930, 50.77148
3066.170, 86.48364
3067.400, 114.0356
3068.630, 85.07007
3069.870, 129.0825
3071.100, 61.46851
3072.330, 177.7629
3073.560, 162.2498
3074.800, 197.1687
3076.030, 95.10400
3077.260, 177.5369
3078.490, 111.6597
3079.720, 225.8923
3080.950, 162.1370
3082.190, 128.4836
3083.420, 261.9358
3084.650, 208.5168
3085.880, 263.6521
3087.110, 194.6035
3088.340, 294.0234
3089.570, 249.8674
3090.800, 343.6802
3092.030, 235.5574
3093.260, 265.0366
3094.490, 357.3208
3095.710, 265.2075
3096.940, 327.0420
3098.170, 345.8240
3099.400, 387.2529
3100.630, 319.2214
3101.860, 372.6267
3103.080, 405.4451
3104.310, 342.6316
3105.540, 353.1755
3106.760, 430.7117
3107.990, 570.2751
3109.220, 482.8137
3110.440, 492.6018
3111.670, 523.6685
3112.900, 436.6567
3114.120, 564.1680
3115.350, 532.6750
3116.570, 572.5498
3117.800, 545.6443
3119.020, 488.7227
3120.250, 564.6294
3121.470, 426.3755
3122.700, 516.7617
3123.920, 546.4009
3125.140, 591.6304
3126.370, 516.9316
3127.590, 604.8232
3128.810, 599.0276
3130.040, 715.8896
3131.260, 651.4424
3132.480, 677.8616
3133.700, 660.2095
3134.930, 625.3442
3136.150, 596.2964
3137.370, 823.9487
3138.590, 720.9814
3139.810, 725.5806
3141.030, 687.7954
3142.260, 751.0098
3143.480, 629.8989
3144.700, 768.2683
3145.920, 807.3340
3147.140, 704.0410
3148.360, 857.9487
3149.580, 711.2397
3150.800, 860.3872
3152.020, 881.0562
3153.240, 846.9106
3154.450, 758.1118
3155.670, 923.2495
3156.890, 914.6812
3158.110, 949.2729
3159.330, 933.4038
3160.550, 851.6724
3161.760, 934.9893
3162.980, 809.6743
3164.200, 954.2534
3165.410, 958.3242
3166.630, 966.3335
3167.850, 1013.348
3169.060, 1036.290
3170.280, 820.0698
3171.500, 889.4897
3172.710, 1094.713
3173.930, 999.1455
3175.140, 1009.161
3176.360, 1060.735
3177.570, 1052.773
3178.790, 1044.557
3180.000, 1015.689
3181.220, 1182.239
3182.430, 1071.302
3183.650, 1044.938
3184.860, 1240.026
3186.070, 1198.939
3187.290, 1242.558
3188.500, 1158.337
3189.710, 1092.343
3190.930, 1307.095
3192.140, 1095.344
3193.350, 1141.398
3194.560, 1128.647
3195.770, 1009.814
3196.990, 1220.249
3198.200, 1194.403
3199.410, 1133.536
3200.620, 1126.042
3201.830, 1182.983
3203.040, 1130.558
3204.250, 1105.054
3205.460, 1191.163
3206.670, 1068.213
3207.880, 1078.039
3209.090, 1149.957
3210.300, 1124.811
3211.510, 1089.399
3212.720, 1109.885
3213.930, 1233.878
3215.140, 1146.987
3216.350, 983.5952
3217.560, 1018.892
3218.760, 1000.470
3219.970, 994.5410
3221.180, 968.0059
3222.390, 1140.332
3223.590, 884.0796
3224.800, 963.4009
3226.010, 891.5977
3227.210, 859.2290
3228.420, 901.5571
3229.630, 923.2490
3230.830, 857.9556
3232.040, 877.7622
3233.240, 717.2310
3234.450, 824.3228
3235.660, 767.6460
3236.860, 684.0713
3238.070, 828.8525
3239.270, 699.7944
3240.470, 736.8594
3241.680, 782.3433
3242.880, 697.1006
3244.090, 570.3921
3245.290, 605.7778
3246.490, 539.4673
3247.700, 637.3936
3248.900, 644.0068
3250.100, 629.9487
3251.310, 563.9995
3252.510, 533.4810
3253.710, 515.5396
3254.910, 555.9307
3256.110, 588.1250
3257.320, 516.3911
3258.520, 551.9653
3259.720, 544.9399
3260.920, 333.9858
3262.120, 468.7383
3263.320, 402.5439
3264.520, 479.2964
3265.720, 401.9746
3266.920, 441.4282
3268.120, 262.2026
3269.320, 587.8770
3270.520, 356.7300
3271.720, 473.8267
3272.920, 372.1118
3274.120, 389.3657
3275.320, 469.3403
3276.510, 358.4160
3277.710, 490.7783
3278.910, 393.7183
3280.110, 399.6445
3281.310, 409.2603
3282.500, 400.2056
3283.700, 437.2280
3284.900, 437.8394
3286.090, 439.3286
3287.290, 440.1987
3288.490, 443.0381
3289.680, 444.0830
3290.880, 445.2607
3292.070, 524.9785
3293.270, 514.9126
3294.470, 477.7773
3295.660, 534.8940
3296.860, 531.4585
3298.050, 480.0078
3299.250, 501.9189
3300.440, 488.3916
3301.630, 426.8081
3302.830, 367.4155
3304.020, 521.7695
3305.220, 464.7314
3306.410, 499.9785
3307.600, 493.4658
3308.790, 384.3525
3309.990, 524.7915
3311.180, 619.2559
3312.370, 663.5454
3313.560, 573.7466
3314.760, 626.6748
3315.950, 660.8398
3317.140, 747.5830
3318.330, 746.3364
3319.520, 690.6357
3320.710, 651.8311
3321.900, 768.5103
3323.100, 706.8472
3324.290, 796.5015
3325.480, 905.2251
3326.670, 728.3452
3327.860, 816.3208
3329.050, 923.3662
3330.230, 999.0249
3331.420, 961.2988
3332.610, 890.0127
3333.800, 978.6953
3334.990, 838.2397
3336.180, 851.4434
3337.370, 921.5796
3338.560, 903.4521
3339.740, 788.6030
3340.930, 918.0513
3342.120, 1053.967
3343.310, 1025.771
3344.490, 797.5693
3345.680, 855.9492
3346.870, 916.5688
3348.050, 796.0840
3349.240, 882.2539
3350.420, 658.6880
3351.610, 821.0117
3352.800, 907.5981
3353.980, 861.4575
3355.170, 830.1885
3356.350, 756.8320
3357.540, 824.9761
3358.720, 751.8433
3359.910, 830.7974
3361.090, 582.6226
3362.270, 754.7085
3363.460, 751.6606
3364.640, 634.6646
3365.830, 773.3984
3367.010, 565.7822
3368.190, 569.5757
3369.370, 605.2021
3370.560, 585.9878
3371.740, 537.2861
3372.920, 594.4326
3374.100, 634.7773
3375.290, 493.3022
3376.470, 290.5386
3377.650, 549.1836
3378.830, 363.5273
3380.010, 546.2759
3381.190, 426.4258
3382.370, 296.0713
3383.550, 261.1006
3384.730, 232.5923
3385.910, 282.5659
3387.090, 279.6860
3388.270, 149.7593
3389.450, 329.3994
3390.630, 220.8560
3391.810, 245.9941
3392.990, 182.1841
3394.170, 213.9019
3395.350, 158.7437
3396.530, 141.8809
3397.710, 99.64502
3398.880, 61.74707
3400.060, 90.69971
3401.240, 37.17578
3402.420, 141.8364
3403.590, 17.23779
3404.770, 79.68604
3405.950, 4.450684
3407.120, 128.2979
3408.300, 52.89258
3409.480, 54.07910
3410.650, 46.68164
3411.830, 7.847168
3413.000, 7.191895
3414.180, 30.03320
3415.350, 44.46191
3416.530, 0.5737300
3417.700, 79.59619
3418.880, 5.340820
3420.050, 32.91846
3421.230, 58.64941
3422.400, 77.71729
3423.580, 16.11475
3424.750, 3.573730
3425.920, 16.68896
3427.100, 68.13721
3428.270, 5.846680
3429.440, 126.8008
3430.610, 59.31543
3431.790, 79.23828
3432.960, 92.84424
3434.130, 29.74414
3435.300, 118.1777
3436.480, 78.69775
3437.650, 210.0200
3438.820, 179.2329
3439.990, 223.2354
3441.160, 252.3784
3442.330, 181.2290
3443.500, 287.4307
3444.670, 284.7788
3445.840, 389.0420
3447.010, 392.9590
3448.180, 463.2036
3449.350, 401.0151
3450.520, 497.0923
3451.690, 529.1113
3452.860, 595.4424
3454.030, 608.3755
3455.200, 657.7476
3456.370, 758.5703
3457.530, 765.3140
3458.700, 782.8242
3459.870, 903.1724
3461.040, 723.8301
3462.200, 932.1528
3463.370, 894.2607
3464.540, 890.6963
3465.710, 807.9546
3466.870, 1003.844
3468.040, 1013.390
3469.210, 938.7495
3470.370, 897.4570
3471.540, 904.9624
3472.700, 987.5874
3473.870, 834.3228
3475.030, 982.7085
3476.200, 863.8271
3477.360, 943.4131
3478.530, 941.0190
3479.690, 788.1040
3480.860, 794.4697
3482.020, 785.4282
3483.190, 765.6084
3484.350, 716.4990
3485.510, 768.6865
3486.680, 558.2930
3487.840, 772.5176
3489.000, 616.8965
3490.170, 527.6377
3491.330, 480.4048
3492.490, 573.8936
3493.650, 463.7036
3494.810, 430.2705
3495.980, 607.8682
3497.140, 499.3220
3498.300, 414.7891
3499.460, 556.9126
3500.620, 420.2537
3501.780, 302.6431
3502.940, 468.8196
3504.100, 410.1138
3505.260, 500.0635
3506.420, 338.1770
3507.580, 352.7332
3508.740, 499.5935
3509.900, 300.6011
3511.060, 477.4368
3512.220, 457.0325
3513.380, 529.6545
3514.540, 255.2979
3515.700, 494.9949
3516.860, 449.7153
3518.020, 354.1421
3519.170, 476.2937
3520.330, 427.3208
3521.490, 448.2456
3522.650, 412.6765
3523.800, 442.0483
3524.960, 403.7800
3526.120, 531.3032
3527.270, 457.2129
3528.430, 593.5752
3529.590, 598.2434
3530.740, 547.7903
3531.900, 544.8635
3533.060, 508.9949
3534.210, 565.0569
3535.370, 487.6619
3536.520, 536.1323
3537.680, 643.1885
3538.830, 621.3875
3539.990, 637.7527
3541.140, 673.2524
3542.290, 610.3264
3543.450, 648.0154
3544.600, 527.6707
3545.760, 638.9080
3546.910, 668.7358
3548.060, 699.6924
3549.220, 815.7383
3550.370, 660.5618
3551.520, 690.7427
3552.670, 703.6711
3553.830, 738.6704
3554.980, 814.8757
3556.130, 925.3428
3557.280, 773.0676
3558.430, 761.6572
3559.580, 722.5476
3560.740, 866.9990
3561.890, 834.0039
3563.040, 692.6338
3564.190, 734.8645
3565.340, 734.3032
3566.490, 738.6436
3567.640, 689.6650
3568.790, 791.7778
3569.940, 734.6130
3571.090, 718.2461
3572.240, 656.3140
3573.390, 605.4954
3574.530, 611.8425
3575.680, 506.3428
3576.830, 509.4917
3577.980, 486.3962
3579.130, 481.0056
3580.280, 368.2688
3581.420, 395.9790
3582.570, 501.0974
3583.720, 385.9592
3584.870, 301.1885
3586.010, 407.0959
3587.160, 242.5063
3588.310, 304.4954
3589.450, 252.4553
3590.600, 307.3667
3591.750, 246.7039
3592.890, 203.1382
3594.040, 196.9167
3595.180, 225.8577
3596.330, 171.1116
3597.470, 107.7393
3598.620, 101.9045
3599.760, 92.86475
3600.910, 70.72607
3602.050, 60.33789
3603.200, 16.11255
3604.340, 17.84619
3605.480, 17.75317
3606.630, 22.20435
3607.770, 1.279785
3608.910, 64.46216
3610.060, 122.9666
3611.200, 52.94653
3612.340, 52.81128
3613.480, 49.05029
3614.630, 1.439453
3615.770, 10.86646
3616.910, 21.12378
3618.050, 11.07959
3619.190, 25.52148
3620.340, 19.49341
3621.480, 31.63745
3622.620, 35.08130
3623.760, 25.38184
3624.900, 44.43384
3626.040, 39.38403
3627.180, 69.33350
3628.320, 32.00732
3629.460, 27.00171
3630.600, 72.75391
3631.740, 22.22888
3632.880, 22.16040
3634.020, 92.32007
3635.160, 12.76318
3636.290, 3.803467
3637.430, 27.61865
3638.570, 38.30237
3639.710, 5.286987
3640.850, 14.84985
3641.990, 46.32581
3643.120, 117.4972
3644.260, 76.53833
3645.400, 18.14795
3646.540, 1.753540
3647.670, 9.633667
3648.810, 9.041260
3649.950, 54.27271
3651.080, 46.14563
3652.220, 3.870605
3653.350, 34.00171
3654.490, 63.25085
3655.620, 21.88635
3656.760, 4.301758
3657.900, 15.05457
3659.030, 31.23914
3660.170, 8.367065
3661.300, 128.0985
3662.430, 68.37451
3663.570, 42.00684
3664.700, 70.25415
3665.840, 16.85522
3666.970, 0.7043460
3668.100, 44.95032
3669.240, 59.72571
3670.370, 96.58521
3671.500, 22.78748
3672.640, 68.23523
3673.770, 67.07751
3674.900, 107.7861
3676.030, 38.02112
3677.160, 78.56567
3678.300, 114.6276
3679.430, 82.38757
3680.560, 54.32642
3681.690, 90.34583
3682.820, 143.9469
3683.950, 100.1615
3685.080, 84.90149
3686.210, 78.38489
3687.340, 138.2379
3688.470, 136.2100
3689.600, 123.0393
3690.730, 56.60522
3691.860, 149.3521
3692.990, 115.7717
3694.120, 170.6625
3695.250, 145.7693
3696.380, 169.5175
3697.510, 168.8335
3698.640, 156.9940
3699.770, 224.8361
3700.890, 181.8191
3702.020, 242.8967
3703.150, 219.6699
3704.280, 174.1923
3705.410, 190.7942
3706.530, 227.3409
3707.660, 217.4882
3708.790, 202.7516
3709.910, 170.1698
3711.040, 219.6276
3712.170, 233.6333
3713.290, 242.9951
3714.420, 221.1953
3715.540, 272.6111
3716.670, 195.4292
3717.790, 269.0901
3718.920, 291.4719
3720.040, 304.8510
3721.170, 213.6823
3722.290, 224.6863
3723.420, 235.6144
3724.540, 288.7793
3725.670, 279.5464
3726.790, 274.7032
3727.910, 312.0494
3729.040, 280.4611
3730.160, 259.9546
3731.280, 334.9481
3732.410, 318.6143
3733.530, 244.3206
3734.650, 341.4022
3735.770, 338.2931
3736.900, 254.8093
3738.020, 367.5236
3739.140, 348.6248
3740.260, 302.7518
3741.380, 363.7953
3742.510, 349.6748
3743.630, 305.2482
3744.750, 341.7462
3745.870, 279.8907
3746.990, 354.1958
3748.110, 391.4272
3749.230, 278.1642
3750.350, 344.4785
3751.470, 324.1218
3752.590, 458.1526
3753.710, 337.1909
3754.830, 379.5121
3755.950, 357.3733
3757.070, 354.2977
3758.180, 344.1718
3759.300, 376.9398
3760.420, 356.9946
3761.540, 328.2054
3762.660, 355.6371
3763.780, 401.7249
3764.890, 353.0027
3766.010, 386.4512
3767.130, 362.2830
3768.250, 335.6936
3769.360, 423.3473
3770.480, 344.6936
3771.600, 368.3907
3772.710, 339.4214
3773.830, 292.6989
3774.940, 320.4878
3776.060, 378.3248
3777.180, 407.1312
3778.290, 323.7897
3779.410, 325.6802
3780.520, 362.4497
3781.640, 359.7576
3782.750, 289.0782
3783.870, 252.9918
3784.980, 373.6301
3786.090, 352.4425
3787.210, 297.1615
3788.320, 340.7898
3789.440, 299.5320
3790.550, 364.1669
3791.660, 294.6793
3792.780, 323.1794
3793.890, 291.2318
3795.000, 319.8588
3796.110, 344.4423
3797.230, 279.7917
3798.340, 245.1807
3799.450, 297.2035
3800.560, 184.9451
3801.670, 282.9315
3802.790, 261.6458
3803.900, 236.2856
3805.010, 292.9962
3806.120, 247.7751
3807.230, 359.6412
3808.340, 289.0127
3809.450, 300.5315
3810.560, 298.2856
3811.670, 277.1844
3812.780, 209.9609
3813.890, 242.8065
3815.000, 220.4609
3816.110, 221.7693
3817.220, 233.3340
3818.330, 270.8817
3819.440, 269.4551
3820.550, 233.8721
3821.650, 199.7954
3822.760, 199.4176
3823.870, 210.0731
3824.980, 222.9008
3826.090, 245.0815
3827.190, 322.8445
3828.300, 257.2339
3829.410, 267.7969
3830.510, 285.5487
3831.620, 235.4266
3832.730, 234.6733
3833.830, 280.1295
3834.940, 261.6050
3836.050, 241.6135
3837.150, 257.4298
3838.260, 209.1400
3839.360, 190.4408
3840.470, 147.3267
3841.570, 273.6906
3842.680, 243.6576
3843.780, 298.9613
3844.890, 180.7719
3845.990, 259.6708
3847.100, 232.1842
3848.200, 233.7872
3849.310, 143.0875
3850.410, 164.5123
3851.510, 191.4500
3852.620, 207.2158
3853.720, 200.3756
3854.820, 199.2642
3855.930, 273.0553
3857.030, 182.1962
3858.130, 211.3313
3859.230, 192.8038
3860.330, 292.1069
3861.440, 162.5045
3862.540, 150.5620
3863.640, 192.7991
3864.740, 212.9583
3865.840, 176.1670
3866.940, 222.5266
3868.040, 156.2627
3869.150, 244.3704
3870.250, 127.1202
3871.350, 131.4563
3872.450, 205.6925
3873.550, 286.6007
3874.650, 187.4166
3875.750, 230.0499
3876.850, 130.6044
3877.940, 200.1904
3879.040, 121.7290
3880.140, 188.8804
3881.240, 112.6812
3882.340, 243.3857
3883.440, 215.2273
3884.540, 125.5107
3885.630, 115.3247
3886.730, 137.2788
3887.830, 90.74829
3888.930, 191.6672
3890.020, 170.4304
3891.120, 119.2867
3892.220, 130.0753
3893.320, 169.6005
3894.410, 189.4893
3895.510, 136.1810
3896.600, 160.4482
3897.700, 187.0365
3898.800, 225.0897
3899.890, 139.8690
3900.990, 152.5963
3902.080, 196.7130
3903.180, 143.1775
3904.270, 85.32324
3905.370, 160.1514
3906.460, 143.6422
3907.560, 154.1754
3908.650, 180.6550
3909.750, 76.87305
3910.840, 122.0690
3911.930, 157.7028
3913.030, 85.75952
3914.120, 126.3027
3915.210, 173.8571
3916.310, 77.31055
3917.400, 129.4432
3918.490, 78.61646
3919.580, 107.8636
3920.680, 148.2554
3921.770, 96.76965
3922.860, 77.93115
3923.950, 95.50171
3925.040, 191.1775
3926.140, 155.4910
3927.230, 104.4712
3928.320, 74.11914
3929.410, 103.2765
3930.500, 88.97021
3931.590, 104.2522
3932.680, 101.1141
3933.770, 107.3800
3934.860, 72.22815
3935.950, 117.1481
3937.040, 72.62805
3938.130, 78.93872
3939.220, 112.5530
3940.310, 84.15991
3941.400, 113.1343
3942.490, 64.39819
3943.580, 3.750732
3944.660, 87.71509
3945.750, 101.0287
3946.840, 54.49536
3947.930, 125.3031
3949.020, 21.45410
3950.100, 78.50854
3951.190, 52.82910
3952.280, 121.4564
3953.370, 102.4760
3954.450, 5.513794
3955.540, 113.0742
3956.630, 34.53821
3957.710, 70.99060
3958.800, 93.60034
3959.880, 93.25037
3960.970, 35.43152
3962.060, 113.4923
3963.140, 58.01379
3964.230, 62.46533
3965.310, 55.40771
3966.400, 82.94592
3967.480, 103.6108
3968.570, 20.58691
3969.650, 43.65283
3970.730, 87.52844
3971.820, 115.3198
3972.900, 63.44092
3973.990, 72.85315
3975.070, 102.6674
3976.150, 6.002686
3977.240, 15.53967
3978.320, 65.78088
3979.400, 38.45667
3980.480, 105.8910
3981.570, 104.1112
3982.650, 19.24036
3983.730, 33.76270
3984.810, 6.737671
3985.900, 67.64624
3986.980, 12.30139
3988.060, 69.74231
3989.140, 1.087280
3990.220, 7.150146
3991.300, 61.96375
3992.380, 59.15381
3993.460, 102.1932
3994.540, 87.96667
3995.620, 41.24609
3996.700, 67.33691
3997.780, 17.77979
3998.860, 2.1973001E-02
3999.940, 0.0000000E+00
##END=



