##NAMES=Polylithionite
##RRUFFID=R050132
##IDEAL CHEMISTRY=KLi_2_AlSi_4_O_10_F_2_
##LOCALITY=Brown Derby mine, Ohio City, Gunnison County, Colorado, USA
##OWNER=RRUFF
##SOURCE=Dave Bunk Minerals
##DESCRIPTION=Purple scaly aggregate, polytype 2M1
##STATUS=The identification of this mineral has been confirmed by X-ray diffraction and chemical analysis
##URL=rruff.info/R050132
##MEASURED CHEMISTRY=(K_0.90_Rb_0.10_)(Li_0.62_Al_0.38_)_3_(Si_0.93_Al_0.07_)_4_O_10_(F_0.69_(OH)_0.31_)_2_
##PIN_ID=M00120
##ORIENTATION=Laser parallel to c* (0 0 1). Fiducial mark perpendicular to laser is parallel to -a [-1 0 0]
95.94800, 0.0000000E+00
97.18200, 176.7188
98.41600, 190.5820
99.64900, 304.2715
100.8830, 159.4551
102.1160, 92.40039
103.3490, 25.38672
104.5820, 38.60156
105.8150, 29.80273
107.0470, 23.70898
108.2800, 63.71875
109.5120, 242.8145
110.7440, 178.3574
111.9760, 208.1738
113.2080, 16.87109
114.4400, 326.1055
115.6710, 53.00391
116.9030, 24.73438
118.1340, 206.2188
119.3650, 102.3867
120.5960, 312.1797
121.8270, 91.53906
123.0580, 173.4277
124.2880, 116.8008
125.5190, 319.6289
126.7490, 263.8809
127.9790, 112.5547
129.2090, 274.6348
130.4390, 198.0957
131.6680, 166.9121
132.8980, 219.0625
134.1270, 386.5176
135.3560, 290.2480
136.5850, 279.2363
137.8140, 439.4570
139.0430, 360.8984
140.2710, 440.5488
141.5000, 616.3945
142.7280, 480.4316
143.9560, 388.6465
145.1840, 416.0332
146.4120, 466.5859
147.6390, 433.2969
148.8670, 500.1621
150.0940, 404.1758
151.3210, 484.3320
152.5490, 558.6289
153.7750, 513.0605
155.0020, 444.6445
156.2290, 500.3750
157.4550, 442.2539
158.6810, 523.5645
159.9080, 646.1445
161.1340, 552.8262
162.3590, 570.6035
163.5850, 797.4746
164.8110, 687.4375
166.0360, 1125.492
167.2610, 882.6484
168.4860, 1009.898
169.7110, 1330.209
170.9360, 1455.496
172.1610, 1419.779
173.3850, 1589.066
174.6100, 1364.369
175.8340, 1583.686
177.0580, 1516.029
178.2820, 1609.406
179.5050, 1614.816
180.7290, 1681.273
181.9520, 1456.771
183.1760, 1314.318
184.3990, 1415.914
185.6220, 1306.559
186.8450, 1382.254
188.0670, 1032.002
189.2900, 929.8008
190.5120, 1020.652
191.7340, 997.5586
192.9560, 1067.518
194.1780, 1109.529
195.4000, 957.5938
196.6220, 971.7148
197.8430, 980.8867
199.0640, 972.1113
200.2860, 897.3887
201.5070, 900.7285
202.7270, 985.0996
203.9480, 794.5312
205.1690, 755.0137
206.3890, 582.5469
207.6090, 742.1289
208.8290, 903.7617
210.0490, 701.4668
211.2690, 906.1973
212.4890, 932.9785
213.7080, 660.4414
214.9280, 695.2969
216.1470, 742.1992
217.3660, 692.1504
218.5850, 765.9082
219.8030, 627.3652
221.0220, 580.5430
222.2400, 572.4316
223.4590, 488.9180
224.6770, 540.8965
225.8950, 624.7246
227.1120, 463.9219
228.3300, 451.2031
229.5480, 434.6191
230.7650, 613.1191
231.9820, 555.6953
233.1990, 549.3379
234.4160, 793.0762
235.6330, 622.0000
236.8490, 824.0000
238.0660, 944.0352
239.2820, 875.1055
240.4980, 958.2051
241.7140, 1222.330
242.9300, 1151.980
244.1460, 1172.012
245.3610, 1232.303
246.5770, 1296.514
247.7920, 1408.314
249.0070, 1542.219
250.2220, 1681.141
251.4370, 1840.943
252.6510, 1993.781
253.8660, 2151.029
255.0800, 2321.445
256.2940, 2504.965
257.5080, 2803.586
258.7220, 3110.297
259.9360, 3314.840
261.1490, 3549.727
262.3630, 3657.688
263.5760, 3659.729
264.7890, 3343.840
266.0020, 3108.020
267.2150, 2699.266
268.4270, 2414.576
269.6400, 2238.947
270.8520, 1817.377
272.0640, 1369.863
273.2760, 1394.406
274.4880, 1082.998
275.7000, 1032.645
276.9120, 797.3398
278.1230, 676.4121
279.3340, 756.8672
280.5450, 533.7012
281.7560, 556.5801
282.9670, 667.5020
284.1780, 429.4629
285.3880, 550.4629
286.5980, 281.5059
287.8090, 255.5859
289.0190, 479.7031
290.2290, 288.8574
291.4380, 555.0469
292.6480, 567.2754
293.8570, 381.5391
295.0670, 359.8359
296.2760, 356.1660
297.4850, 460.5293
298.6930, 318.9238
299.9020, 359.3516
301.1110, 319.8125
302.3190, 525.3008
303.5270, 468.8203
304.7350, 491.3711
305.9430, 262.9453
307.1510, 369.5469
308.3580, 77.17188
309.5660, 298.8262
310.7730, 10.50391
311.9800, 261.2051
313.1870, 346.9336
314.3940, 231.6855
315.6010, 181.4609
316.8070, 104.2598
318.0130, 91.09180
319.2200, 143.9453
320.4260, 142.8242
321.6310, 160.7285
322.8370, 0.6562500
324.0430, 56.60547
325.2480, 12.88867
326.4540, 38.58594
327.6590, 5.615234
328.8640, 32.33008
330.0680, 18.25977
331.2730, 147.8340
332.4780, 14.94922
333.6820, 222.0879
334.8860, 143.2500
336.0900, 78.43359
337.2940, 97.63477
338.4980, 30.85938
339.7010, 66.89258
340.9050, 106.3652
342.1080, 117.3555
343.3110, 213.0781
344.5140, 128.8203
345.7170, 16.43555
346.9200, 28.97852
348.1220, 16.72852
349.3240, 5.583984
350.5270, 9.916016
351.7290, 52.26758
352.9310, 14.82422
354.1320, 1.025391
355.3340, 28.42773
356.5350, 61.84961
357.7370, 79.28516
358.9380, 107.0566
360.1390, 197.0156
361.3400, 323.5469
362.5400, 167.0449
363.7410, 100.5391
364.9410, 98.74219
366.1410, 264.9570
367.3410, 284.4102
368.5410, 354.7910
369.7410, 471.2168
370.9400, 352.5762
372.1400, 279.7949
373.3390, 277.8301
374.5380, 245.4902
375.7370, 478.5254
376.9360, 277.0898
378.1350, 386.6582
379.3330, 421.2500
380.5310, 382.8516
381.7300, 386.4648
382.9280, 458.8359
384.1260, 480.7188
385.3230, 601.3594
386.5210, 746.0117
387.7180, 795.6914
388.9160, 782.3945
390.1130, 1015.121
391.3100, 862.8691
392.5060, 1101.643
393.7030, 1049.434
394.9000, 1150.246
396.0960, 1489.080
397.2920, 1302.932
398.4880, 1267.809
399.6840, 1527.701
400.8800, 1658.611
402.0750, 1557.539
403.2710, 1728.484
404.4660, 1597.449
405.6610, 1505.432
406.8560, 1588.430
408.0510, 1546.443
409.2450, 1536.471
410.4400, 1623.516
411.6340, 1156.574
412.8280, 1268.650
414.0220, 886.7383
415.2160, 1070.842
416.4100, 944.9590
417.6030, 1035.092
418.7970, 718.2402
419.9900, 758.4004
421.1830, 616.5742
422.3760, 564.7617
423.5690, 495.9629
424.7610, 426.1797
425.9540, 403.4082
427.1460, 525.6504
428.3380, 582.9043
429.5300, 536.5605
430.7220, 557.4492
431.9140, 488.7383
433.1050, 432.0430
434.2970, 490.3594
435.4880, 563.6875
436.6790, 475.0273
437.8700, 465.3789
439.0610, 460.7402
440.2510, 429.1133
441.4420, 571.5000
442.6320, 293.8945
443.8220, 310.3027
445.0120, 616.7188
446.2020, 603.1484
447.3910, 173.5859
448.5810, 356.0332
449.7700, 421.4941
450.9600, 478.9629
452.1490, 449.4434
453.3370, 546.9316
454.5260, 632.4316
455.7150, 438.9414
456.9030, 659.4590
458.0910, 574.1680
459.2800, 372.5254
460.4670, 515.4219
461.6550, 427.9766
462.8430, 311.5410
464.0300, 435.1152
465.2180, 500.6973
466.4050, 426.2695
467.5920, 428.8672
468.7790, 457.7754
469.9650, 498.3555
471.1520, 529.9805
472.3380, 551.7324
473.5250, 650.9336
474.7110, 639.5840
475.8970, 461.2422
477.0820, 507.9082
478.2680, 462.5820
479.4540, 379.1562
480.6390, 358.9531
481.8240, 241.6484
483.0090, 365.0293
484.1940, 269.7402
485.3780, 455.8359
486.5630, 94.05273
487.7470, 165.5703
488.9320, 28.31055
490.1160, 477.0586
491.3000, 274.3281
492.4830, 186.0898
493.6670, 73.85742
494.8500, 178.3652
496.0340, 20.22070
497.2170, 139.3789
498.4000, 89.05469
499.5820, 80.73633
500.7650, 122.5723
501.9480, 19.94727
503.1300, 83.33984
504.3120, 74.22070
505.4940, 47.21094
506.6760, 15.32812
507.8580, 6.363281
509.0390, 55.41211
510.2210, 63.05469
511.4020, 27.55664
512.5830, 26.08008
513.7640, 144.6230
514.9450, 158.2441
516.1250, 145.7441
517.3060, 20.04492
518.4860, 273.3672
519.6660, 9.675781
520.8460, 140.9805
522.0260, 94.29297
523.2060, 106.6094
524.3850, 308.9336
525.5650, 130.2676
526.7440, 168.6211
527.9230, 252.9805
529.1020, 73.34766
530.2810, 348.7188
531.4590, 431.0957
532.6380, 310.4805
533.8160, 344.8691
534.9940, 372.2656
536.1720, 460.6816
537.3500, 353.1094
538.5270, 389.5586
539.7050, 438.0430
540.8820, 557.5352
542.0590, 544.0488
543.2360, 534.5684
544.4130, 351.0918
545.5900, 473.6191
546.7660, 487.1543
547.9430, 836.6973
549.1190, 657.2441
550.2950, 696.8027
551.4710, 597.3633
552.6470, 676.9453
553.8220, 866.5684
554.9980, 835.2461
556.1730, 898.9316
557.3480, 1064.621
558.5230, 1036.318
559.6980, 1188.035
560.8730, 832.7578
562.0470, 1058.545
563.2220, 961.3359
564.3960, 1072.127
565.5700, 1198.926
566.7440, 983.7344
567.9170, 946.5469
569.0910, 1025.369
570.2640, 843.1934
571.4380, 780.0195
572.6110, 574.8477
573.7840, 482.6797
574.9570, 424.6328
576.1290, 562.3516
577.3020, 387.2148
578.4740, 417.0840
579.6460, 516.9512
580.8180, 212.8262
581.9900, 187.6992
583.1620, 279.5742
584.3330, 55.45312
585.5040, 395.3320
586.6760, 196.2109
587.8470, 296.0918
589.0180, 258.9727
590.1880, 275.8594
591.3590, 155.7441
592.5290, 437.6289
593.7000, 195.5117
594.8700, 96.39648
596.0400, 265.2812
597.2090, 133.1660
598.3790, 522.0586
599.5490, 121.9512
600.7180, 1.158203
601.8870, 337.7207
603.0560, 447.5957
604.2250, 308.4727
605.3940, 181.3516
606.5620, 339.2852
607.7300, 243.2168
608.8990, 16.83008
610.0670, 327.1016
611.2350, 296.0352
612.4020, 554.9707
613.5700, 336.9121
614.7370, 411.8516
615.9050, 401.7930
617.0720, 228.7324
618.2390, 617.6719
619.4060, 469.6074
620.5720, 579.5410
621.7390, 313.4727
622.9050, 170.4102
624.0710, 474.3574
625.2370, 200.3320
626.4030, 651.3242
627.5690, 679.3555
628.7340, 381.4043
629.9000, 204.1836
631.0650, 636.2266
632.2300, 450.2676
633.3950, 123.3047
634.5600, 379.3379
635.7240, 306.8262
636.8890, 494.3906
638.0530, 114.4141
639.2170, 309.5410
640.3810, 167.5586
641.5450, 167.2461
642.7080, 303.7617
643.8720, 76.71680
645.0350, 172.7168
646.1980, 177.7227
647.3610, 239.0059
648.5240, 24.22070
649.6870, 37.20898
650.8490, 319.2773
652.0120, 36.42383
653.1740, 47.53711
654.3360, 199.7988
655.4980, 37.74414
656.6600, 36.21094
657.8210, 0.8437500
658.9830, 250.0762
660.1440, 304.0332
661.3050, 85.23242
662.4660, 21.17383
663.6270, 249.2852
664.7870, 80.30078
665.9480, 199.4688
667.1080, 333.3945
668.2680, 273.3203
669.4280, 231.5117
670.5880, 564.4297
671.7480, 309.4922
672.9070, 512.7168
674.0670, 354.9219
675.2260, 342.5879
676.3850, 191.2500
677.5440, 610.5840
678.7030, 520.8574
679.8610, 613.2461
681.0200, 593.0000
682.1780, 736.0781
683.3360, 944.9375
684.4940, 855.3750
685.6520, 1120.752
686.8090, 1131.188
687.9670, 1409.770
689.1240, 1522.598
690.2810, 1894.992
691.4380, 1767.730
692.5950, 2182.508
693.7520, 2409.945
694.9080, 2734.062
696.0650, 3004.547
697.2210, 3259.574
698.3770, 3550.246
699.5330, 3870.254
700.6880, 4260.453
701.8440, 5055.328
702.9990, 5563.348
704.1550, 6162.055
705.3100, 6805.117
706.4650, 7497.973
707.6190, 8003.820
708.7740, 8831.000
709.9290, 9077.781
711.0830, 9238.453
712.2370, 9084.508
713.3910, 8488.363
714.5450, 7405.492
715.6980, 6467.977
716.8520, 5781.301
718.0050, 4598.957
719.1580, 3905.293
720.3110, 3272.012
721.4640, 2952.922
722.6170, 2622.559
723.7700, 2159.301
724.9220, 1842.027
726.0740, 1541.805
727.2260, 1355.688
728.3780, 1322.680
729.5300, 1098.102
730.6810, 1166.508
731.8330, 1029.898
732.9840, 1027.535
734.1350, 990.2070
735.2860, 901.0000
736.4370, 891.0781
737.5880, 826.8320
738.7380, 748.1406
739.8880, 633.4102
741.0390, 889.6875
742.1890, 1003.367
743.3380, 869.2031
744.4880, 935.1367
745.6380, 996.2969
746.7870, 996.2070
747.9360, 894.8594
749.0850, 914.9844
750.2340, 830.1484
751.3830, 778.2734
752.5310, 749.9648
753.6800, 694.2344
754.8280, 693.2500
755.9760, 734.4805
757.1240, 828.8828
758.2720, 677.0508
759.4190, 822.0508
760.5670, 665.9922
761.7140, 621.7109
762.8610, 777.0312
764.0080, 736.9609
765.1550, 514.1172
766.3020, 744.0039
767.4480, 305.8750
768.5950, 521.7266
769.7410, 391.5859
770.8870, 592.4219
772.0330, 205.2422
773.1780, 462.0430
774.3240, 330.8672
775.4690, 293.7617
776.6140, 136.5664
777.7590, 300.3438
778.9040, 188.1016
780.0490, 486.8750
781.1940, 366.6367
782.3380, 272.4062
783.4820, 199.4531
784.6260, 256.2031
785.7700, 222.3008
786.9140, 466.0000
788.0580, 417.8984
789.2010, 147.8359
790.3450, 382.5273
791.4880, 240.2148
792.6310, 325.9141
793.7730, 241.9531
794.9160, 110.6602
796.0590, 111.3281
797.2010, 229.9883
798.3430, 119.6406
799.4850, 384.2617
800.6270, 141.8633
801.7690, 165.4375
802.9100, 31.00391
804.0520, 335.4961
805.1930, 325.9727
806.3340, 123.7266
807.4750, 191.5312
808.6160, 155.9414
809.7560, 116.3281
810.8970, 122.0234
812.0370, 21.97656
813.1770, 66.30078
814.3170, 32.44922
815.4570, 79.26172
816.5960, 92.83984
817.7360, 23.08594
818.8750, 148.9297
820.0140, 200.9180
821.1530, 85.89062
822.2920, 92.83203
823.4310, 85.74609
824.5690, 71.63672
825.7070, 53.50781
826.8460, 89.32031
827.9840, 22.88672
829.1220, 87.14844
830.2590, 177.5000
831.3970, 129.0039
832.5340, 76.73828
833.6710, 147.1875
834.8080, 38.38281
835.9450, 151.9844
837.0820, 189.6836
838.2190, 178.8359
839.3550, 142.0039
840.4910, 56.14062
841.6270, 35.24609
842.7630, 45.25781
843.8990, 45.35547
845.0350, 101.4570
846.1700, 182.4336
847.3060, 207.0938
848.4410, 113.3086
849.5760, 158.2070
850.7100, 100.0820
851.8450, 54.07031
852.9800, 74.69922
854.1140, 193.4414
855.2480, 71.15625
856.3820, 172.5625
857.5160, 123.5039
858.6500, 185.1406
859.7830, 156.7461
860.9170, 158.3281
862.0500, 141.8867
863.1830, 114.4180
864.3160, 94.92578
865.4480, 249.4023
866.5810, 383.8555
867.7130, 228.5547
868.8460, 154.9609
869.9780, 79.34375
871.1100, 201.6953
872.2410, 14.02734
873.3730, 112.3203
874.5050, 247.5664
875.6360, 140.8047
876.7670, 225.0234
877.8980, 119.2227
879.0290, 91.19531
880.1590, 164.3555
881.2900, 54.65625
882.4200, 37.36328
883.5500, 72.55469
884.6800, 52.45312
885.8100, 47.32031
886.9400, 125.4414
888.0690, 172.2539
889.1990, 175.2148
890.3280, 51.97266
891.4570, 175.7031
892.5860, 129.4062
893.7140, 181.1094
894.8430, 329.7891
895.9710, 4.449219
897.1000, 66.08203
898.2280, 82.31250
899.3560, 224.2188
900.4830, 155.7266
901.6110, 276.2109
902.7380, 216.7266
903.8660, 384.1641
904.9930, 322.7891
906.1200, 299.1875
907.2460, 300.5547
908.3730, 228.1445
909.5000, 243.3086
910.6260, 198.6172
911.7520, 282.8984
912.8780, 451.2383
914.0040, 228.4766
915.1290, 573.7578
916.2550, 413.0625
917.3800, 243.3008
918.5050, 143.5195
919.6300, 251.7383
920.7550, 125.2266
921.8800, 326.1172
923.0040, 165.2734
924.1290, 154.4023
925.2530, 388.4023
926.3770, 415.4844
927.5010, 373.5469
928.6250, 238.5859
929.7480, 346.6172
930.8720, 287.7461
931.9950, 428.0547
933.1180, 358.0352
934.2410, 313.7344
935.3640, 452.6680
936.4860, 270.4023
937.6090, 338.2148
938.7310, 342.8398
939.8530, 351.6836
940.9750, 130.5117
942.0970, 110.0391
943.2180, 291.8164
944.3400, 530.4219
945.4610, 372.8359
946.5820, 269.2500
947.7030, 487.1719
948.8240, 329.0703
949.9450, 288.2734
951.0650, 533.5117
952.1860, 281.6133
953.3060, 233.3164
954.4260, 714.6719
955.5460, 603.2227
956.6650, 308.1680
957.7850, 204.1484
958.9040, 325.0469
960.0230, 323.7734
961.1420, 326.2344
962.2610, 475.1055
963.3800, 379.5977
964.4990, 386.0352
965.6170, 305.7812
966.7350, 90.82031
967.8530, 429.4688
968.9710, 170.5430
970.0890, 24.05469
971.2070, 214.9844
972.3240, 50.79688
973.4410, 280.9062
974.5580, 339.8516
975.6750, 294.0781
976.7920, 148.9219
977.9090, 234.9453
979.0250, 99.94922
980.1410, 335.6016
981.2580, 340.6211
982.3740, 325.7227
983.4890, 277.4219
984.6050, 465.2930
985.7200, 265.8633
986.8360, 435.0508
987.9510, 261.3867
989.0660, 382.3633
990.1810, 146.6367
991.2950, 218.4961
992.4100, 293.1445
993.5240, 269.0430
994.6390, 433.8086
995.7530, 204.5703
996.8660, 363.2539
997.9800, 202.8086
999.0940, 449.2148
1000.207, 384.1797
1001.320, 42.12500
1002.433, 277.0586
1003.546, 448.7188
1004.659, 306.9453
1005.772, 364.7812
1006.884, 137.9219
1007.996, 38.64062
1009.108, 249.2109
1010.220, 268.7227
1011.332, 488.5547
1012.444, 70.95703
1013.555, 241.1758
1014.666, 273.3711
1015.777, 174.3086
1016.888, 241.3789
1017.999, 244.4141
1019.110, 119.2109
1020.220, 6.937500
1021.331, 150.4727
1022.441, 33.01172
1023.551, 275.5625
1024.661, 100.3281
1025.770, 207.8633
1026.880, 121.8086
1027.989, 427.9648
1029.098, 376.7812
1030.207, 333.3828
1031.316, 263.5664
1032.425, 89.50781
1033.533, 204.1914
1034.642, 195.6094
1035.750, 57.26953
1036.858, 162.0195
1037.966, 114.4375
1039.073, 142.1445
1040.181, 223.7188
1041.288, 47.28516
1042.396, 293.8477
1043.503, 389.4023
1044.610, 62.94922
1045.716, 18.49219
1046.823, 171.0820
1047.929, 357.6445
1049.036, 64.16406
1050.142, 149.6797
1051.248, 302.1875
1052.353, 410.9766
1053.459, 279.7031
1054.564, 307.8242
1055.670, 235.3086
1056.775, 435.5898
1057.880, 451.8828
1058.985, 222.3438
1060.089, 369.9023
1061.194, 243.3477
1062.298, 613.7930
1063.402, 611.2344
1064.506, 275.2383
1065.610, 79.66797
1066.713, 399.0938
1067.817, 492.5078
1068.920, 368.9219
1070.023, 727.3320
1071.126, 428.7344
1072.229, 323.1484
1073.332, 267.5625
1074.435, 659.6719
1075.537, 388.6875
1076.639, 345.0859
1077.741, 738.4805
1078.843, 586.8633
1079.945, 633.2500
1081.046, 543.6445
1082.148, 605.0430
1083.249, 697.4531
1084.350, 596.8945
1085.451, 762.3320
1086.551, 444.7773
1087.652, 745.2266
1088.752, 730.6680
1089.853, 942.1094
1090.953, 859.1289
1092.053, 757.4609
1093.152, 484.2148
1094.252, 429.6523
1095.351, 810.0938
1096.451, 601.5469
1097.550, 759.0312
1098.649, 535.5703
1099.748, 634.8633
1100.846, 538.4102
1101.945, 420.9609
1103.043, 663.5586
1104.141, 662.1250
1105.239, 492.4180
1106.337, 630.0469
1107.434, 523.6758
1108.532, 847.3047
1109.629, 769.9375
1110.726, 872.5703
1111.823, 901.3906
1112.920, 888.0938
1114.017, 814.4492
1115.113, 797.0781
1116.210, 673.7148
1117.306, 402.4258
1118.402, 458.9570
1119.498, 713.5898
1120.593, 424.2500
1121.689, 620.9102
1122.784, 582.6367
1123.879, 711.4688
1124.974, 387.8359
1126.069, 816.4961
1127.164, 606.8398
1128.259, 438.5000
1129.353, 705.1523
1130.447, 286.8125
1131.541, 337.4766
1132.635, 262.1367
1133.729, 264.5273
1134.822, 528.1836
1135.916, 401.8438
1137.009, 484.6445
1138.102, 373.1523
1139.195, 456.5469
1140.288, 256.2500
1141.380, 151.9258
1142.473, 569.6055
1143.565, 417.2852
1144.657, 219.9414
1145.749, 26.62109
1146.841, 25.35547
1147.932, 97.09766
1149.024, 409.8477
1150.115, 370.6094
1151.206, 228.3750
1152.297, 6.847656
1153.388, 299.6172
1154.479, 328.2070
1155.569, 204.9766
1156.659, 606.7461
1157.750, 96.48047
1158.839, 6.753906
1159.929, 17.96094
1161.019, 52.31641
1162.108, 2.066406
1163.198, 45.04688
1164.287, 52.71875
1165.376, 105.4883
1166.465, 222.2539
1167.553, 188.9688
1168.642, 198.5156
1169.730, 56.31250
1170.818, 133.0898
1171.906, 138.8711
1172.994, 149.5703
1174.082, 210.0078
1175.170, 32.13672
1176.257, 176.9219
1177.344, 36.52344
1178.431, 261.6797
1179.518, 216.9805
1180.605, 206.5938
1181.691, 481.2578
1182.778, 111.0781
1183.864, 19.46875
1184.950, 54.12891
1186.036, 165.7305
1187.122, 271.3281
1188.207, 33.93359
1189.292, 377.5391
1190.378, 26.14453
1191.463, 146.7539
1192.548, 135.3672
1193.632, 69.98047
1194.717, 79.41016
1195.801, 263.1641
1196.886, 205.7383
1197.970, 212.3164
1199.054, 367.8945
1200.137, 211.4727
1201.221, 260.0547
1202.305, 58.63672
1203.388, 304.2227
1204.471, 154.8086
1205.554, 175.3945
1206.637, 272.9844
1207.719, 172.5781
1208.802, 60.17578
1209.884, 127.6953
1210.966, 85.63281
1212.048, 181.9727
1213.130, 103.5742
1214.212, 160.1758
1215.293, 83.78906
1216.374, 114.1367
1217.456, 102.9023
1218.536, 116.6250
1219.617, 90.23828
1220.698, 5.140625
1221.778, 12.53516
1222.859, 1.371094
1223.939, 168.6758
1225.019, 99.28125
1226.099, 264.8828
1227.178, 374.7266
1228.258, 285.3398
1229.337, 364.9492
1230.417, 213.9023
1231.496, 145.5156
1232.574, 45.12891
1233.653, 218.7578
1234.732, 167.3867
1235.810, 52.01172
1236.888, 262.2305
1237.966, 189.8672
1239.044, 207.5039
1240.122, 343.1406
1241.199, 45.77734
1242.277, 46.42188
1243.354, 195.0586
1244.431, 266.6953
1245.508, 366.3398
1246.585, 36.98438
1247.661, 515.7461
1248.738, 67.60938
1249.814, 235.0039
1250.890, 172.4922
1251.966, 42.10547
1253.042, 15.90234
1254.117, 28.25000
1255.193, 267.1055
1256.268, 6.296875
1257.343, 148.2930
1258.418, 293.8828
1259.493, 115.4766
1260.567, 279.0742
1261.642, 208.6719
1262.716, 443.2773
1263.790, 402.8789
1264.864, 62.48828
1265.938, 170.0938
1267.011, 237.6992
1268.085, 7.691406
1269.158, 398.6680
1270.231, 292.2852
1271.304, 107.8945
1272.377, 169.5078
1273.450, 44.19141
1274.522, 308.8086
1275.594, 452.3203
1276.666, 290.8320
1277.738, 724.4492
1278.810, 638.0703
1279.882, 145.6836
1280.953, 281.2969
1282.025, 253.7344
1283.096, 146.3555
1284.167, 143.9727
1285.238, 136.5938
1286.308, 244.4922
1287.379, 469.5000
1288.449, 217.5078
1289.519, 226.0000
1290.589, 449.7422
1291.659, 102.5898
1292.729, 367.8125
1293.798, 520.3828
1294.868, 462.9609
1295.937, 292.5977
1297.006, 194.8672
1298.075, 140.7188
1299.143, 223.6484
1300.212, 129.3164
1301.280, 132.9922
1302.348, 323.6641
1303.416, 386.7500
1304.484, 176.3516
1305.552, 574.5664
1306.620, 382.3750
1307.687, 142.2969
1308.754, 291.9961
1309.821, 224.6914
1310.888, 227.3906
1311.955, 354.5078
1313.021, 404.9688
1314.088, 323.6641
1315.154, 294.3594
1316.220, 194.3281
1317.286, 430.9492
1318.352, 277.6445
1319.417, 115.2344
1320.483, 299.9141
1321.548, 115.5820
1322.613, 156.2500
1323.678, 188.9648
1324.743, 323.6367
1325.807, 329.7266
1326.872, 363.9453
1327.936, 431.6797
1329.000, 310.3672
1330.064, 407.0586
1331.128, 244.7500
1332.191, 130.4492
1333.255, 123.1484
1334.318, 385.8555
1335.381, 224.9453
1336.444, 399.9648
1337.507, 147.6836
1338.569, 533.5391
1339.632, 286.2656
1340.694, 291.9766
1341.756, 386.6914
1342.818, 330.8711
1343.880, 173.5859
1344.941, 323.3086
1346.003, 239.0312
1347.064, 363.7578
1348.125, 435.4922
1349.186, 159.0508
1350.247, 119.8945
1351.308, 331.3242
1352.368, 376.0625
1353.428, 180.8125
1354.489, 24.56250
1355.549, 234.4453
1356.608, 108.2070
1357.668, 66.69531
1358.727, 555.0625
1359.787, 594.7969
1360.846, 216.5117
1361.905, 102.2617
1362.964, 230.1289
1364.022, 8.113281
1365.081, 283.8164
1366.139, 199.5820
1367.197, 318.3555
1368.255, 436.1328
1369.313, 344.7734
1370.371, 411.9180
1371.428, 242.3867
1372.486, 310.6055
1373.543, 268.0312
1374.600, 69.64844
1375.657, 305.3477
1376.713, 216.1641
1377.770, 17.15625
1378.826, 155.5156
1379.882, 55.50000
1380.938, 317.6523
1381.994, 170.6328
1383.050, 260.4219
1384.106, 498.5742
1385.161, 139.2695
1386.216, 424.1758
1387.271, 536.8828
1388.326, 280.2930
1389.381, 292.3203
1390.435, 380.5469
1391.490, 181.2695
1392.544, 315.9883
1393.598, 203.7148
1394.652, 119.4453
1395.705, 71.30469
1396.759, 135.5469
1397.812, 323.3594
1398.866, 135.0859
1399.919, 99.81641
1400.972, 354.4688
1402.024, 363.2070
1403.077, 305.9531
1404.129, 334.6992
1405.181, 199.4531
1406.233, 192.2031
1407.285, 305.9648
1408.337, 155.7188
1409.389, 283.4805
1410.440, 389.2383
1411.491, 271.3164
1412.542, 64.08203
1413.593, 219.1172
1414.644, 381.9883
1415.695, 151.8125
1416.745, 307.6406
1417.795, 60.49219
1418.845, 223.1953
1419.895, 157.5859
1420.945, 434.6172
1421.995, 123.4180
1423.044, 32.37109
1424.093, 348.9766
1425.142, 39.80078
1426.191, 217.6328
1427.240, 267.7148
1428.289, 270.5703
1429.337, 20.55078
1430.385, 489.3281
1431.433, 33.21094
1432.481, 13.48828
1433.529, 102.1055
1434.577, 351.0898
1435.624, 300.0820
1436.672, 332.4453
1437.719, 418.7578
1438.766, 486.1367
1439.812, 263.6445
1440.859, 547.6406
1441.905, 110.3164
1442.952, 453.1797
1443.998, 638.8477
1445.044, 634.9609
1446.090, 701.0078
1447.135, 260.0117
1448.181, 449.2031
1449.226, 37.44531
1450.271, 613.6992
1451.316, 562.9609
1452.361, 602.2344
1453.405, 271.5195
1454.450, 222.8086
1455.494, 518.1055
1456.538, 362.4141
1457.582, 488.7305
1458.626, 317.0469
1459.670, 229.3750
1460.713, 110.7148
1461.757, 131.0195
1462.800, 515.4609
1463.843, 174.5820
1464.886, 403.9844
1465.928, 314.4570
1466.971, 373.8438
1468.013, 101.2383
1469.055, 332.9297
1470.097, 325.3242
1471.139, 691.7305
1472.181, 552.1562
1473.222, 581.1055
1474.263, 126.8750
1475.305, 507.2383
1476.346, 294.5039
1477.386, 418.0352
1478.427, 472.5977
1479.468, 307.1758
1480.508, 203.7656
1481.548, 517.3633
1482.588, 159.9727
1483.628, 272.6016
1484.668, 442.8750
1485.707, 547.4805
1486.747, 617.0156
1487.786, 216.6641
1488.825, 631.3359
1489.864, 31.02734
1490.902, 445.7422
1491.941, 407.4727
1492.979, 286.7969
1494.017, 244.5664
1495.055, 446.8398
1496.093, 527.5469
1497.131, 122.0508
1498.168, 79.71875
1499.206, 348.3047
1500.243, 437.6953
1501.280, 625.5977
1502.317, 410.8789
1503.354, 451.6875
1504.390, 427.9805
1505.426, 535.2969
1506.463, 534.6406
1507.499, 240.4883
1508.535, 232.8828
1509.570, 780.3867
1510.606, 220.6758
1511.641, 520.2031
1512.676, 11.73438
1513.711, 202.2734
1514.746, 157.8164
1515.781, 460.3633
1516.816, 469.3516
1517.850, 647.5586
1518.884, 318.1250
1519.918, 232.6250
1520.952, 263.2266
1521.986, 275.8281
1523.019, 575.4180
1524.053, 344.0391
1525.086, 604.6602
1526.119, 499.9258
1527.152, 522.3828
1528.185, 430.2500
1529.217, 570.9453
1530.250, 405.2852
1531.282, 418.3242
1532.314, 752.8906
1533.346, 336.2656
1534.377, 422.6953
1535.409, 259.4102
1536.440, 535.6758
1537.472, 281.1445
1538.503, 331.6797
1539.534, 499.9102
1540.564, 577.0234
1541.595, 416.9102
1542.625, 276.9414
1543.656, 485.1953
1544.686, 312.7734
1545.716, 476.2383
1546.745, 283.8359
1547.775, 141.3750
1548.804, 655.4961
1549.834, 690.5234
1550.863, 346.6602
1551.892, 415.1289
1552.920, 644.8125
1553.949, 547.5508
1554.977, 464.1172
1556.006, 112.1484
1557.034, 281.5859
1558.062, 510.3438
1559.089, 745.4805
1560.117, 352.7461
1561.144, 440.2617
1562.172, 312.9297
1563.199, 257.9570
1564.226, 264.2734
1565.252, 423.3828
1566.279, 178.8594
1567.305, 2.261719
1568.332, 371.8320
1569.358, 282.7344
1570.384, 0.0000000E+00
##END=



