##NAMES=Polylithionite
##RRUFFID=R050132
##IDEAL CHEMISTRY=KLi_2_AlSi_4_O_10_F_2_
##LOCALITY=Brown Derby mine, Ohio City, Gunnison County, Colorado, USA
##OWNER=RRUFF
##SOURCE=Dave Bunk Minerals
##DESCRIPTION=Purple scaly aggregate, polytype 2M1
##STATUS=The identification of this mineral has been confirmed by X-ray diffraction and chemical analysis
##URL=rruff.info/R050132
##MEASURED CHEMISTRY=(K_0.90_Rb_0.10_)(Li_0.62_Al_0.38_)_3_(Si_0.93_Al_0.07_)_4_O_10_(F_0.69_(OH)_0.31_)_2_
##PIN_ID=L01426
##ORIENTATION=Laser parallel to -a* (-1 0 0). Fiducial mark perpendicular to laser is parallel to -b [0 -1 0]
157.4550, 0.0000000E+00
158.6810, 1.072266
159.9080, 1.150391
161.1340, 15.14648
162.3590, 72.80859
163.5850, 102.7793
164.8110, 295.7070
166.0360, 429.3340
167.2610, 399.9844
168.4860, 680.3613
169.7110, 859.5000
170.9360, 1378.832
172.1610, 1531.871
173.3850, 1925.125
174.6100, 2117.145
175.8340, 2538.525
177.0580, 2715.920
178.2820, 3121.049
179.5050, 3310.670
180.7290, 3401.725
181.9520, 3478.469
183.1760, 3205.062
184.3990, 3152.254
185.6220, 2973.742
186.8450, 2749.289
188.0670, 2561.701
189.2900, 2284.820
190.5120, 2274.523
191.7340, 2047.699
192.9560, 2304.262
194.1780, 2347.141
195.4000, 2461.273
196.6220, 2824.609
197.8430, 2763.119
199.0640, 2763.775
200.2860, 2827.561
201.5070, 2551.469
202.7270, 2622.426
203.9480, 2284.787
205.1690, 1873.439
206.3890, 1683.863
207.6090, 1448.988
208.8290, 1461.258
210.0490, 1796.887
211.2690, 1593.924
212.4890, 1753.414
213.7080, 2060.400
214.9280, 1826.914
216.1470, 1491.984
217.3660, 1426.641
218.5850, 1289.902
219.8030, 914.7930
221.0220, 670.3281
222.2400, 520.5254
223.4590, 321.6406
224.6770, 156.9668
225.8950, 138.2363
227.1120, 159.2285
228.3300, 176.5879
229.5480, 264.4102
230.7650, 235.6211
231.9820, 331.5879
233.1990, 356.3652
234.4160, 600.9863
235.6330, 923.4863
236.8490, 922.8750
238.0660, 1082.174
239.2820, 1151.389
240.4980, 1415.535
241.7140, 1822.613
242.9300, 2037.635
244.1460, 2273.746
245.3610, 2482.660
246.5770, 3045.117
247.7920, 3421.900
249.0070, 3804.248
250.2220, 4474.592
251.4370, 5091.451
252.6510, 5852.219
253.8660, 6414.180
255.0800, 7522.309
256.2940, 8612.691
257.5080, 9892.811
258.7220, 11716.53
259.9360, 13111.65
261.1490, 13614.12
262.3630, 13861.70
263.5760, 14372.39
264.7890, 13952.19
266.0020, 12943.06
267.2150, 11661.98
268.4270, 10447.94
269.6400, 8862.898
270.8520, 7456.861
272.0640, 6267.828
273.2760, 5451.795
274.4880, 4481.758
275.7000, 3617.715
276.9120, 3365.658
278.1230, 2677.580
279.3340, 2366.467
280.5450, 2182.307
281.7560, 1797.105
282.9670, 1599.854
284.1780, 1503.559
285.3880, 1184.217
286.5980, 1292.834
287.8090, 1053.406
289.0190, 1192.938
290.2290, 898.4258
291.4380, 993.8750
292.6480, 852.2832
293.8570, 1026.650
295.0670, 807.9805
296.2760, 842.2715
297.4850, 823.5273
298.6930, 785.5234
299.9020, 827.6660
301.1110, 861.0723
302.3190, 851.1816
303.5270, 822.0781
304.7350, 754.7539
305.9430, 729.8711
307.1510, 562.3340
308.3580, 550.3789
309.5660, 457.1562
310.7730, 503.3887
311.9800, 488.2617
313.1870, 525.3320
314.3940, 668.5742
315.6010, 440.9590
316.8070, 414.4746
318.0130, 620.0938
319.2200, 279.8105
320.4260, 328.6055
321.6310, 356.4688
322.8370, 195.3887
324.0430, 229.3633
325.2480, 393.3770
326.4540, 372.4258
327.6590, 362.5020
328.8640, 144.5996
330.0680, 369.7051
331.2730, 306.8145
332.4780, 223.9277
333.6820, 92.96680
334.8860, 115.0820
336.0900, 46.11719
337.2940, 161.8770
338.4980, 126.9531
339.7010, 205.1074
340.9050, 207.3594
342.1080, 81.71289
343.3110, 99.13477
344.5140, 26.63281
345.7170, 348.1895
346.9200, 302.8867
348.1220, 209.7227
349.3240, 258.6797
350.5270, 123.7812
351.7290, 101.0098
352.9310, 246.3613
354.1320, 117.8750
355.3340, 97.51953
356.5350, 67.20898
357.7370, 63.10938
358.9380, 25.15039
360.1390, 199.3008
361.3400, 230.1973
362.5400, 323.3887
363.7410, 419.9043
364.9410, 534.5215
366.1410, 610.1855
367.3410, 713.9492
368.5410, 851.4258
369.7410, 1080.309
370.9400, 1138.055
372.1400, 1304.484
373.3390, 1555.584
374.5380, 1577.934
375.7370, 1843.990
376.9360, 2039.254
378.1350, 2076.480
379.3330, 2243.666
380.5310, 2431.809
381.7300, 2541.914
382.9280, 2652.980
384.1260, 2749.010
385.3230, 2870.998
386.5210, 3177.949
387.7180, 3374.863
388.9160, 3531.018
390.1130, 3868.576
391.3100, 3888.291
392.5060, 4158.840
393.7030, 4435.135
394.9000, 4675.199
396.0960, 5070.100
397.2920, 5353.623
398.4880, 5674.859
399.6840, 5795.900
400.8800, 6245.697
402.0750, 6185.326
403.2710, 6393.883
404.4660, 6250.418
405.6610, 6533.943
406.8560, 6369.457
408.0510, 6209.955
409.2450, 6189.441
410.4400, 5840.754
411.6340, 5824.371
412.8280, 5255.814
414.0220, 4652.242
415.2160, 4451.660
416.4100, 4160.062
417.6030, 4075.449
418.7970, 3444.824
419.9900, 3404.188
421.1830, 3126.535
422.3760, 3024.871
423.5690, 2781.195
424.7610, 2616.479
425.9540, 2461.807
427.1460, 2318.096
428.3380, 2234.375
429.5300, 2166.643
430.7220, 2122.293
431.9140, 2151.152
433.1050, 2091.389
434.2970, 2131.619
435.4880, 2112.109
436.6790, 2298.051
437.8700, 2189.254
439.0610, 2118.449
440.2510, 2150.637
441.4420, 1936.816
442.6320, 1875.988
443.8220, 1994.154
445.0120, 1842.316
446.2020, 2010.469
447.3910, 2088.617
448.5810, 1948.762
449.7700, 2000.895
450.9600, 1903.020
452.1490, 1795.135
453.3370, 1857.234
454.5260, 1580.316
455.7150, 1628.387
456.9030, 1641.438
458.0910, 1894.473
459.2800, 1648.490
460.4670, 1686.488
461.6550, 1676.467
462.8430, 1657.426
464.0300, 1725.367
465.2180, 1708.338
466.4050, 1725.178
467.5920, 1720.068
468.7790, 1744.926
469.9650, 1723.768
471.1520, 1739.586
472.3380, 1704.297
473.5250, 1801.074
474.7110, 1795.836
475.8970, 1760.574
477.0820, 1798.443
478.2680, 1621.557
479.4540, 1476.484
480.6390, 1324.684
481.8240, 1528.963
483.0090, 1429.227
484.1940, 1176.244
485.3780, 919.0430
486.5630, 919.6523
487.7470, 658.7090
488.9320, 546.4922
490.1160, 601.0254
491.3000, 340.3184
492.4830, 398.4551
493.6670, 202.9824
494.8500, 82.86328
496.0340, 117.5508
497.2170, 261.2383
498.4000, 268.8574
499.5820, 8.277344
500.7650, 38.89453
501.9480, 165.3711
503.1300, 18.50977
504.3120, 86.38867
505.4940, 54.81836
506.6760, 128.9766
507.8580, 59.82617
509.0390, 85.69727
510.2210, 81.60352
511.4020, 70.54102
512.5830, 145.5000
513.7640, 62.48047
514.9450, 57.54297
516.1250, 54.42188
517.3060, 124.6191
518.4860, 143.2988
519.6660, 125.2168
520.8460, 47.13477
522.0260, 203.0566
523.2060, 250.9785
524.3850, 264.9043
525.5650, 240.8320
526.7440, 296.8008
527.9230, 317.6953
529.1020, 418.6309
530.2810, 406.5723
531.4590, 570.5195
532.6380, 689.4688
533.8160, 835.4258
534.9940, 466.3906
536.1720, 820.4023
537.3500, 689.4258
538.5270, 643.4805
539.7050, 711.5703
540.8820, 919.6816
542.0590, 976.8047
543.2360, 1145.988
544.4130, 1207.193
545.5900, 1267.414
546.7660, 1407.668
547.9430, 1512.938
549.1190, 1556.229
550.2950, 1615.533
551.4710, 1905.867
552.6470, 1909.223
553.8220, 2389.613
554.9980, 2453.045
556.1730, 2657.504
557.3480, 2754.988
558.5230, 2820.520
559.6980, 3006.082
560.8730, 2893.709
562.0470, 2959.371
563.2220, 2800.082
564.3960, 2852.848
565.5700, 2833.645
566.7440, 2946.463
567.9170, 2601.344
569.0910, 2577.270
570.2640, 2311.219
571.4380, 2246.207
572.6110, 1895.215
573.7840, 1697.258
574.9570, 1734.320
576.1290, 1268.408
577.3020, 1125.520
578.4740, 1060.650
579.6460, 1142.803
580.8180, 881.0234
581.9900, 809.2656
583.1620, 729.5488
584.3330, 633.8477
585.5040, 546.1660
586.6760, 457.1250
587.8470, 404.3164
589.0180, 315.3223
590.1880, 310.7520
591.3590, 331.2031
592.5290, 287.7031
593.7000, 300.8867
594.8700, 505.7852
596.0400, 264.3984
597.2090, 380.0586
598.3790, 306.7695
599.5490, 594.5020
600.7180, 503.2559
601.8870, 569.0371
603.0560, 294.8398
604.2250, 717.6875
605.3940, 596.5566
606.5620, 795.4473
607.7300, 732.3555
608.8990, 677.2852
610.0670, 903.2520
611.2350, 943.2637
612.4020, 1148.367
613.5700, 985.4883
614.7370, 1053.631
615.9050, 961.7910
617.0720, 991.9707
618.2390, 1139.221
619.4060, 1099.490
620.5720, 912.7969
621.7390, 1206.188
622.9050, 1127.656
624.0710, 1295.225
625.2370, 1390.895
626.4030, 1327.629
627.5690, 1563.438
628.7340, 1329.299
629.9000, 1413.297
631.0650, 1472.420
632.2300, 1423.650
633.3950, 1637.994
634.5600, 1667.420
635.7240, 1919.918
636.8890, 1334.531
638.0530, 1453.223
639.2170, 1906.723
640.3810, 1084.551
641.5450, 984.4238
642.7080, 749.1484
643.8720, 905.0898
645.0350, 720.6973
646.1980, 687.6797
647.3610, 581.0625
648.5240, 569.0996
649.6870, 262.0039
650.8490, 427.1680
652.0120, 590.9004
653.1740, 382.7402
654.3360, 126.8613
655.4980, 370.3086
656.6600, 442.4707
657.8210, 358.9062
658.9830, 567.1094
660.1440, 508.3340
661.3050, 506.5781
662.4660, 473.8438
663.6270, 480.1289
664.7870, 982.4336
665.9480, 698.7598
667.1080, 587.1055
668.2680, 1050.469
669.4280, 804.2793
670.5880, 838.6836
671.7480, 1115.105
672.9070, 1367.947
674.0670, 1214.637
675.2260, 1568.016
676.3850, 1667.086
677.5440, 1747.242
678.7030, 2084.803
679.8610, 2195.002
681.0200, 2619.795
682.1780, 2889.971
683.3360, 2928.408
684.4940, 3093.623
685.6520, 3812.572
686.8090, 4118.646
687.9670, 4803.131
689.1240, 5029.920
690.2810, 5835.488
691.4380, 6196.898
692.5950, 7144.324
693.7520, 8280.055
694.9080, 9058.711
696.0650, 10108.80
697.2210, 11052.09
698.3770, 12323.00
699.5330, 13651.39
700.6880, 15244.90
701.8440, 16835.04
702.9990, 18785.57
704.1550, 20996.35
705.3100, 22549.07
706.4650, 24803.80
707.6190, 26522.97
708.7740, 28114.54
709.9290, 29229.90
711.0830, 29517.48
712.2370, 28951.10
713.3910, 27447.35
714.5450, 25058.35
715.6980, 22195.12
716.8520, 19299.43
718.0050, 16671.66
719.1580, 14087.89
720.3110, 12063.53
721.4640, 10202.84
722.6170, 8573.930
723.7700, 7672.170
724.9220, 6508.598
726.0740, 5523.580
727.2260, 5050.895
728.3780, 4397.768
729.5300, 4125.871
730.6810, 3582.715
731.8330, 3347.516
732.9840, 2990.688
734.1350, 2988.582
735.2860, 2910.492
736.4370, 2648.730
737.5880, 2492.818
738.7380, 2657.270
739.8880, 2625.594
741.0390, 2835.791
742.1890, 2853.195
743.3380, 2998.955
744.4880, 3116.301
745.6380, 3244.107
746.7870, 3354.436
747.9360, 3557.924
749.0850, 3712.223
750.2340, 3573.807
751.3830, 3636.844
752.5310, 3526.600
753.6800, 3600.342
754.8280, 3583.111
755.9760, 3276.096
757.1240, 3433.805
758.2720, 3154.504
759.4190, 3085.193
760.5670, 2845.869
761.7140, 2936.531
762.8610, 2409.180
764.0080, 2407.812
765.1550, 2452.434
766.3020, 2098.039
767.4480, 2067.629
768.5950, 1857.201
769.7410, 1745.758
770.8870, 1481.297
772.0330, 1713.818
773.1780, 1453.318
774.3240, 1268.803
775.4690, 1437.266
776.6140, 1224.709
777.7590, 1121.197
778.9040, 1019.668
780.0490, 957.2656
781.1940, 1243.578
782.3380, 962.0215
783.4820, 1046.457
784.6260, 1153.871
785.7700, 1023.291
786.9140, 1120.695
788.0580, 1037.094
789.2010, 1055.484
790.3450, 979.8652
791.4880, 877.6289
792.6310, 971.6074
793.7730, 653.9531
794.9160, 671.2754
796.0590, 598.5957
797.2010, 651.8906
798.3430, 425.1602
799.4850, 567.4043
800.6270, 263.6250
801.7690, 442.8184
802.9100, 302.9863
804.0520, 320.1289
805.1930, 273.2441
806.3340, 37.33594
807.4750, 187.3945
808.6160, 320.4277
809.7560, 50.43164
810.8970, 94.40820
812.0370, 142.6465
813.1770, 20.18359
814.3170, 57.01758
815.4570, 78.28906
816.5960, 7.646484
817.7360, 107.9531
818.8750, 148.4785
820.0140, 8.968750
821.1530, 30.37695
822.2920, 30.25195
823.4310, 68.89844
824.5690, 15.33789
825.7070, 147.5801
826.8460, 20.21289
827.9840, 27.93945
829.1220, 47.94531
830.2590, 51.90430
831.3970, 17.93750
832.5340, 7.968750
833.6710, 74.16992
834.8080, 29.98633
835.9450, 140.6914
837.0820, 30.10938
838.2190, 84.59570
839.3550, 106.1758
840.4910, 13.86719
841.6270, 30.38477
842.7630, 139.4043
843.8990, 50.32227
845.0350, 7.683594
846.1700, 36.36328
847.3060, 47.51758
848.4410, 23.64062
849.5760, 111.1348
850.7100, 2.875000
851.8450, 37.56055
852.9800, 105.2051
854.1140, 122.8145
855.2480, 158.6113
856.3820, 50.82227
857.5160, 31.78320
858.6500, 162.5391
859.7830, 126.8262
860.9170, 32.92383
862.0500, 9.746094
863.1830, 111.3691
864.3160, 295.4492
865.4480, 28.49414
866.5810, 70.50195
867.7130, 43.40430
868.8460, 27.72852
869.9780, 86.93555
871.1100, 71.24414
872.2410, 60.54102
873.3730, 29.85547
874.5050, 76.31445
875.6360, 1.738281
876.7670, 133.1035
877.8980, 47.56641
879.0290, 44.68359
880.1590, 92.89062
881.2900, 280.0605
882.4200, 94.19727
883.5500, 17.70117
884.6800, 62.66797
885.8100, 226.7246
886.9400, 154.0430
888.0690, 352.7773
889.1990, 219.4805
890.3280, 210.1484
891.4570, 155.7852
892.5860, 282.3887
893.7140, 322.9590
894.8430, 328.5000
895.9710, 436.0059
897.1000, 270.4824
898.2280, 430.9297
899.3560, 303.3418
900.4830, 678.7246
901.6110, 274.0762
902.7380, 497.3945
903.8660, 489.6836
904.9930, 919.9375
906.1200, 506.1641
907.2460, 907.3633
908.3730, 884.5273
909.5000, 864.6621
910.6260, 922.7676
911.7520, 965.8418
912.8780, 916.8848
914.0040, 1073.896
915.1290, 949.8789
916.2550, 1064.830
917.3800, 1025.754
918.5050, 965.6426
919.6300, 1113.502
920.7550, 1084.332
921.8800, 1020.131
923.0040, 903.9004
924.1290, 1016.639
925.2530, 940.3477
926.3770, 963.0254
927.5010, 836.6758
928.6250, 893.2930
929.7480, 894.8867
930.8720, 737.4473
931.9950, 635.0195
933.1180, 1012.584
934.2410, 662.1191
935.3640, 849.6445
936.4860, 845.1406
937.6090, 795.6074
938.7310, 787.0488
939.8530, 712.4590
940.9750, 763.8398
942.0970, 650.7793
943.2180, 726.6973
944.3400, 829.4512
945.4610, 812.3555
946.5820, 930.2852
947.7030, 1118.756
948.8240, 1076.410
949.9450, 1108.969
951.0650, 1149.109
952.1860, 1128.609
953.3060, 1199.379
954.4260, 1247.004
955.5460, 1215.234
956.6650, 1176.684
957.7850, 1010.383
958.9040, 1383.957
960.0230, 1170.105
961.1420, 1223.941
962.2610, 926.9922
963.3800, 1068.188
964.4990, 1097.359
965.6170, 936.2148
966.7350, 984.1562
967.8530, 984.6914
968.9710, 1196.020
970.0890, 823.0547
971.2070, 1044.086
972.3240, 1160.000
973.4410, 752.4414
974.5580, 921.4805
975.6750, 787.2656
976.7920, 697.0938
977.9090, 760.9023
979.0250, 671.5117
980.1410, 672.2148
981.2580, 671.3633
982.3740, 704.9727
983.4890, 758.1562
984.6050, 806.3789
985.7200, 933.8438
986.8360, 1072.527
987.9510, 946.6680
989.0660, 942.8711
990.1810, 808.0781
991.2950, 837.8711
992.4100, 870.9844
993.5240, 929.3438
994.6390, 900.5352
995.7530, 1010.531
996.8660, 939.9570
997.9800, 1167.059
999.0940, 1143.582
1000.207, 1125.867
1001.320, 1071.402
1002.433, 1049.961
1003.546, 1030.145
1004.659, 978.5898
1005.772, 1208.008
1006.884, 905.0820
1007.996, 962.3008
1009.108, 918.1719
1010.220, 1223.160
1011.332, 865.3125
1012.444, 944.2734
1013.555, 1083.875
1014.666, 799.8711
1015.777, 1000.402
1016.888, 1217.395
1017.999, 1034.215
1019.110, 1039.215
1020.220, 1065.922
1021.331, 936.1562
1022.441, 1027.664
1023.551, 915.1680
1024.661, 895.7852
1025.770, 891.0547
1026.880, 958.5859
1027.989, 869.1133
1029.098, 1019.645
1030.207, 672.1719
1031.316, 728.6953
1032.425, 882.2266
1033.533, 521.7539
1034.642, 487.2773
1035.750, 681.8086
1036.858, 480.3359
1037.966, 401.8633
1039.073, 291.3906
1040.181, 340.6445
1041.288, 457.7773
1042.396, 536.3047
1043.503, 562.8359
1044.610, 670.3672
1045.716, 655.8984
1046.823, 632.4336
1047.929, 728.9648
1049.036, 935.5078
1050.142, 720.0430
1051.248, 950.5859
1052.353, 830.1250
1053.459, 802.6719
1054.564, 949.2227
1055.670, 1138.770
1056.775, 1008.324
1057.880, 1080.883
1058.985, 854.4414
1060.089, 1076.004
1061.194, 1028.570
1062.298, 1154.836
1063.402, 1195.680
1064.506, 1092.750
1065.610, 1226.980
1066.713, 1324.559
1067.817, 1266.656
1068.920, 1092.246
1070.023, 1352.836
1071.126, 1125.426
1072.229, 1341.023
1073.332, 1596.625
1074.435, 1336.992
1075.537, 1468.695
1076.639, 1393.230
1077.741, 1406.477
1078.843, 1536.102
1079.945, 1667.734
1081.046, 1556.414
1082.148, 1574.105
1083.249, 1743.812
1084.350, 1874.023
1085.451, 2031.805
1086.551, 2102.559
1087.652, 1989.371
1088.752, 2001.191
1089.853, 1913.020
1090.953, 1918.680
1092.053, 1717.547
1093.152, 1737.426
1094.252, 1990.309
1095.351, 1803.320
1096.451, 1916.230
1097.550, 2051.164
1098.649, 2008.820
1099.748, 1913.543
1100.846, 1994.543
1101.945, 2065.574
1103.043, 2172.633
1104.141, 2280.738
1105.239, 2158.867
1106.337, 2010.180
1107.434, 2232.395
1108.532, 2123.625
1109.629, 1887.863
1110.726, 2253.160
1111.823, 2051.488
1112.920, 1886.824
1114.017, 2017.191
1115.113, 2057.605
1116.210, 2015.004
1117.306, 1966.410
1118.402, 2276.832
1119.498, 2271.266
1120.593, 2511.750
1121.689, 2286.535
1122.784, 2437.098
1123.879, 2107.617
1124.974, 2007.934
1126.069, 1956.547
1127.164, 1690.102
1128.259, 1566.844
1129.353, 1376.172
1130.447, 1227.781
1131.541, 1202.398
1132.635, 1205.027
1133.729, 1270.691
1134.822, 1103.367
1135.916, 1045.062
1137.009, 908.8047
1138.102, 979.5820
1139.195, 831.3945
1140.288, 789.0078
1141.380, 582.8359
1142.473, 442.2539
1143.565, 474.8828
1144.657, 490.7695
1145.749, 258.6758
1146.841, 560.7422
1147.932, 162.6875
1149.024, 224.6406
1150.115, 252.5742
1151.206, 391.9062
1152.297, 436.1250
1153.388, 474.1719
1154.479, 266.3008
1155.569, 8.320313
1156.659, 240.0469
1157.750, 342.1055
1158.839, 165.1758
1159.929, 247.2852
1161.019, 20.56250
1162.108, 129.9297
1163.198, 11.40625
1164.287, 34.54297
1165.376, 113.8477
1166.465, 195.9844
1167.553, 170.1250
1168.642, 10.26562
1169.730, 279.4102
1170.818, 14.43750
1171.906, 75.71094
1172.994, 223.8633
1174.082, 166.0156
1175.170, 162.1758
1176.257, 255.6172
1177.344, 197.7617
1178.431, 98.09375
1179.518, 153.3867
1180.605, 153.5625
1181.691, 82.83203
1182.778, 138.3984
1183.864, 216.2969
1184.950, 150.4805
1186.036, 118.6641
1187.122, 69.85156
1188.207, 26.03516
1189.292, 128.2305
1190.378, 133.4258
1191.463, 202.6211
1192.548, 17.17969
1193.632, 238.0156
1194.717, 152.7891
1195.801, 102.6680
1196.886, 160.4023
1197.970, 83.52344
1199.054, 130.5117
1200.137, 371.5508
1201.221, 184.5898
1202.305, 35.63281
1203.388, 133.6758
1204.471, 52.28125
1205.554, 40.02734
1206.637, 17.26172
1207.719, 48.64062
1208.802, 106.3281
1209.884, 188.3047
1210.966, 153.2773
1212.048, 27.25000
1213.130, 54.22266
1214.212, 4.796875
1215.293, 25.16797
1216.374, 181.1406
1217.456, 171.1133
1218.536, 347.0820
1219.617, 91.05859
1220.698, 9.210938
1221.778, 98.75000
1222.859, 53.72266
1223.939, 289.7773
1225.019, 15.75781
1226.099, 67.73828
1227.178, 137.7188
1228.258, 72.30469
1229.337, 136.3672
1230.417, 50.48828
1231.496, 486.3516
1232.574, 111.2148
1233.653, 557.0742
1234.732, 91.92578
1235.810, 11.21875
1236.888, 249.6250
1237.966, 398.4609
1239.044, 278.3047
1240.122, 363.1875
1241.199, 228.9688
1242.277, 273.7969
1243.354, 237.7852
1244.431, 50.44922
1245.508, 189.2695
1246.585, 135.0859
1247.661, 134.9023
1248.738, 162.7070
1249.814, 53.51562
1250.890, 26.68359
1251.966, 21.90625
1253.042, 170.9727
1254.117, 112.2812
1255.193, 54.39453
1256.268, 89.06641
1257.343, 31.73047
1258.418, 14.60547
1259.493, 112.0312
1260.567, 197.8242
1261.642, 415.2930
1262.716, 292.9219
1263.790, 574.5391
1264.864, 106.1484
1265.938, 228.7578
1267.011, 222.3594
1268.085, 131.9570
1269.158, 92.45312
1270.231, 237.4219
1271.304, 168.0625
1272.377, 107.3594
1273.450, 143.9883
1274.522, 80.32812
1275.594, 43.66406
1276.666, 74.99219
1277.738, 75.31641
1278.810, 173.7031
1279.882, 16.01172
1280.953, 44.33203
1282.025, 229.8359
1283.096, 69.11719
1284.167, 50.60938
1285.238, 18.50391
1286.308, 148.6953
1287.379, 112.8945
1288.449, 80.08203
1289.519, 41.26562
1290.589, 22.43750
1291.659, 16.36719
1292.729, 81.35938
1293.798, 41.50391
1294.868, 146.4492
1295.937, 208.8008
1297.006, 223.9570
1298.075, 280.0703
1299.143, 246.1797
1300.212, 261.7383
1301.280, 361.3672
1302.348, 202.4531
1303.416, 160.5312
1304.484, 40.59766
1305.552, 242.6602
1306.620, 73.71484
1307.687, 79.75781
1308.754, 304.7930
1309.821, 86.82031
1310.888, 86.13672
1311.955, 349.1484
1313.021, 291.1562
1314.088, 313.1836
1315.154, 430.2070
1316.220, 264.2266
1317.286, 323.2344
1318.352, 396.2305
1319.417, 321.2148
1320.483, 372.1914
1321.548, 335.4453
1322.613, 179.3984
1323.678, 197.5703
1324.743, 320.8516
1325.807, 180.7812
1326.872, 329.4258
1327.936, 352.3398
1329.000, 297.2422
1330.064, 365.1406
1331.128, 503.0273
1332.191, 277.9102
1333.255, 370.2500
1334.318, 414.0312
1335.381, 3.953125
1336.444, 116.4297
1337.507, 412.2656
1338.569, 295.0898
1339.632, 162.9883
1340.694, 319.8398
1341.756, 305.6484
1342.818, 154.9805
1343.880, 250.7422
1344.941, 243.9297
1346.003, 109.7109
1347.064, 415.7539
1348.125, 31.46875
1349.186, 255.4805
1350.247, 443.5742
1351.308, 82.31250
1352.368, 381.8164
1353.428, 301.4297
1354.489, 142.1523
1355.549, 215.0117
1356.608, 182.0273
1357.668, 107.9961
1358.727, 117.3008
1359.787, 330.0000
1360.846, 138.6836
1361.905, 412.5742
1362.964, 209.2539
1364.022, 370.7812
1365.081, 173.4531
1366.139, 105.1211
1367.197, 259.7891
1368.255, 331.4492
1369.313, 313.1250
1370.371, 374.7773
1371.428, 267.4297
1372.486, 116.9609
1373.543, 197.8945
1374.600, 277.4531
1375.657, 342.0117
1376.713, 198.5664
1377.770, 172.0703
1378.826, 375.2812
1379.882, 69.76953
1380.938, 413.6406
1381.994, 301.4023
1383.050, 106.8750
1384.106, 376.4062
1385.161, 212.7734
1386.216, 150.5781
1387.271, 246.1055
1388.326, 266.6719
1389.381, 427.1914
1390.435, 96.71094
1391.490, 477.2227
1392.544, 162.7383
1393.598, 357.2500
1394.652, 203.7539
1395.705, 310.2617
1396.759, 10.02734
1397.812, 146.5312
1398.866, 14.83594
1399.919, 260.5586
1400.972, 232.6445
1402.024, 258.4570
1403.077, 443.1289
1404.129, 315.5312
1405.181, 61.93359
1406.233, 129.3750
1407.285, 75.45312
1408.337, 27.71875
1409.389, 369.1602
1410.440, 209.9023
1411.491, 415.5078
1412.542, 139.6484
1413.593, 242.1016
1414.644, 356.9805
1415.695, 167.5234
1416.745, 271.1289
1417.795, 15.17969
1418.845, 150.8906
1419.895, 105.7266
1420.945, 188.0078
1421.995, 29.43750
1423.044, 73.88672
1424.093, 191.3359
1425.142, 87.89062
1426.191, 6.324219
1427.240, 240.7734
1428.289, 209.2383
1429.337, 520.6992
1430.385, 357.1641
1431.433, 146.3438
1432.481, 323.8242
1433.529, 100.1719
1434.577, 297.7461
1435.624, 456.2578
1436.672, 22.68359
1437.719, 379.1289
1438.766, 152.1719
1439.812, 283.2031
1440.859, 304.8438
1441.905, 273.5039
1442.952, 311.2188
1443.998, 299.3633
1445.044, 309.6094
1446.090, 302.9648
1447.135, 269.8789
1448.181, 286.2812
1449.226, 108.7734
1450.271, 376.3047
1451.316, 248.8516
1452.361, 50.38281
1453.405, 319.9141
1454.450, 369.8164
1455.494, 331.3984
1456.538, 308.9766
1457.582, 282.8672
1458.626, 57.11719
1459.670, 161.6758
1460.713, 156.1328
1461.757, 46.65234
1462.800, 229.0469
1463.843, 149.5195
1464.886, 93.00391
1465.928, 101.5977
1466.971, 321.1797
1468.013, 297.7617
1469.055, 175.3477
1470.097, 20.92969
1471.139, 190.5078
1472.181, 52.08203
1473.222, 205.6484
1474.263, 181.2148
1475.305, 34.78125
1476.346, 500.2148
1477.386, 71.12891
1478.427, 235.5742
1479.468, 278.2891
1480.508, 88.01953
1481.548, 280.7500
1482.588, 293.4883
1483.628, 1.226563
1484.668, 247.5078
1485.707, 142.9883
1486.747, 80.04688
1487.786, 272.1133
1488.825, 154.0820
1489.864, 339.1445
1490.902, 428.9141
1491.941, 338.0547
1492.979, 284.2812
1494.017, 134.5117
1495.055, 359.7852
1496.093, 236.0547
1497.131, 160.9141
1498.168, 38.89844
1499.206, 150.3945
1500.243, 200.4609
1501.280, 366.5430
1502.317, 193.6406
1503.354, 290.7500
1504.390, 456.3359
1505.426, 57.46875
1506.463, 521.5000
1507.499, 219.5430
1508.535, 367.6055
1509.570, 316.7305
1510.606, 171.8984
1511.641, 175.0898
1512.676, 135.2227
1513.711, 316.0234
1514.746, 159.2734
1515.781, 214.0469
1516.816, 292.8008
1517.850, 197.1758
1518.884, 172.2930
1519.918, 442.7148
1520.952, 148.1953
1521.986, 457.9883
1523.019, 74.46875
1524.053, 175.0742
1525.086, 30.47266
1526.119, 73.40625
1527.152, 70.75000
1528.185, 325.3711
1529.217, 466.1328
1530.250, 442.4883
1531.282, 226.8516
1532.314, 290.2227
1533.346, 203.5625
1534.377, 90.22656
1535.409, 67.90625
1536.440, 251.8906
1537.472, 626.9062
1538.503, 87.72656
1539.534, 506.8203
1540.564, 266.9766
1541.595, 518.1875
1542.625, 236.2578
1543.656, 107.6016
1544.686, 285.0430
1545.716, 364.5625
1546.745, 528.9492
1547.775, 506.7812
1548.804, 196.4062
1549.834, 354.3477
1550.863, 470.6992
1551.892, 245.2266
1552.920, 523.4375
1553.949, 485.7461
1554.977, 502.3008
1556.006, 771.1484
1557.034, 536.1914
1558.062, 228.5234
1559.089, 372.6562
1560.117, 706.0820
1561.144, 335.4258
1562.172, 201.1914
1563.199, 31.85938
1564.226, 513.0273
1565.252, 468.1875
1566.279, 593.7578
1567.305, 176.4336
1568.332, 263.5312
1569.358, 22.09375
1570.384, 0.0000000E+00
##END=



