##NAMES=Polylithionite
##RRUFFID=R050132
##IDEAL CHEMISTRY=KLi_2_AlSi_4_O_10_F_2_
##LOCALITY=Brown Derby mine, Ohio City, Gunnison County, Colorado, USA
##OWNER=RRUFF
##SOURCE=Dave Bunk Minerals
##DESCRIPTION=Purple scaly aggregate, polytype 2M1
##STATUS=The identification of this mineral has been confirmed by X-ray diffraction and chemical analysis
##URL=rruff.info/R050132
##MEASURED CHEMISTRY=(K_0.90_Rb_0.10_)(Li_0.62_Al_0.38_)_3_(Si_0.93_Al_0.07_)_4_O_10_(F_0.69_(OH)_0.31_)_2_
##PIN_ID=L01426
##ORIENTATION=Laser parallel to -a* (-1 0 0). Fiducial mark perpendicular to laser is parallel to -b [0 -1 0]
157.4550, 0.0000000E+00
158.6810, 265.0791
159.9080, 46.36035
161.1340, 79.68359
162.3590, 8.367188
163.5850, 490.5039
164.8110, 761.9453
166.0360, 1389.803
167.2610, 1879.527
168.4860, 2317.152
169.7110, 3184.105
170.9360, 4298.898
172.1610, 5379.459
173.3850, 6668.873
174.6100, 8155.461
175.8340, 9759.789
177.0580, 11490.64
178.2820, 12732.99
179.5050, 14073.33
180.7290, 14962.55
181.9520, 15423.61
183.1760, 15814.36
184.3990, 15642.19
185.6220, 15028.27
186.8450, 14359.90
188.0670, 13809.53
189.2900, 13323.71
190.5120, 12817.05
191.7340, 12630.23
192.9560, 12559.98
194.1780, 12307.09
195.4000, 12014.32
196.6220, 11403.52
197.8430, 10614.57
199.0640, 9979.834
200.2860, 9111.057
201.5070, 8181.770
202.7270, 7301.229
203.9480, 6577.148
205.1690, 6017.105
206.3890, 5263.125
207.6090, 5214.520
208.8290, 4937.025
210.0490, 4755.994
211.2690, 4969.885
212.4890, 5002.672
213.7080, 5201.438
214.9280, 4990.248
216.1470, 4826.166
217.3660, 4624.248
218.5850, 4551.029
219.8030, 4483.080
221.0220, 4449.912
222.2400, 4531.066
223.4590, 4532.572
224.6770, 4731.418
225.8950, 4958.721
227.1120, 5243.477
228.3300, 5664.656
229.5480, 6081.314
230.7650, 6660.410
231.9820, 7136.791
233.1990, 7645.730
234.4160, 8326.088
235.6330, 8716.250
236.8490, 9407.189
238.0660, 10037.96
239.2820, 10782.59
240.4980, 11320.13
241.7140, 11994.10
242.9300, 12964.37
244.1460, 13312.46
245.3610, 14266.63
246.5770, 14943.87
247.7920, 15432.76
249.0070, 16378.77
250.2220, 17074.45
251.4370, 18364.37
252.6510, 19386.14
253.8660, 20564.38
255.0800, 22603.67
256.2940, 24420.10
257.5080, 26421.08
258.7220, 29065.85
259.9360, 30972.17
261.1490, 32356.81
262.3630, 33098.24
263.5760, 32720.41
264.7890, 31578.23
266.0020, 28572.13
267.2150, 25830.10
268.4270, 22673.13
269.6400, 19106.21
270.8520, 16105.34
272.0640, 13849.50
273.2760, 11614.70
274.4880, 9749.902
275.7000, 8204.100
276.9120, 6922.273
278.1230, 5966.412
279.3340, 5246.490
280.5450, 4655.492
281.7560, 4153.410
282.9670, 3802.236
284.1780, 3315.975
285.3880, 2991.619
286.5980, 2705.176
287.8090, 2425.645
289.0190, 2238.021
290.2290, 2023.441
291.4380, 1794.514
292.6480, 1742.627
293.8570, 1672.652
295.0670, 1667.594
296.2760, 1558.600
297.4850, 1484.217
298.6930, 1314.898
299.9020, 1353.498
301.1110, 1132.012
302.3190, 1140.441
303.5270, 1247.156
304.7350, 1136.264
305.9430, 889.2305
307.1510, 886.9395
308.3580, 693.2148
309.5660, 600.7852
310.7730, 587.4434
311.9800, 530.0273
313.1870, 200.4062
314.3940, 401.4688
315.6010, 62.12695
316.8070, 73.30469
318.0130, 112.9297
319.2200, 540.9492
320.4260, 1082.309
321.6310, 960.9648
322.8370, 250.1172
324.0430, 128.0449
325.2480, 28.82617
326.4540, 143.4590
327.6590, 442.0039
328.8640, 98.56836
330.0680, 43.09180
331.2730, 386.5820
332.4780, 310.1445
333.6820, 252.7773
334.8860, 160.4844
336.0900, 186.2441
337.2940, 196.2734
338.4980, 107.0117
339.7010, 279.0137
340.9050, 373.1387
342.1080, 359.4238
343.3110, 304.8691
344.5140, 288.4668
345.7170, 242.2324
346.9200, 391.1680
348.1220, 429.3340
349.3240, 337.7617
350.5270, 486.4375
351.7290, 200.0625
352.9310, 356.3711
354.1320, 333.6445
355.3340, 287.1680
356.5350, 177.2930
357.7370, 71.84570
358.9380, 90.32812
360.1390, 115.5977
361.3400, 164.8848
362.5400, 218.7773
363.7410, 88.04492
364.9410, 331.6758
366.1410, 304.3457
367.3410, 344.5879
368.5410, 569.0723
369.7410, 637.1348
370.9400, 735.0000
372.1400, 870.5410
373.3390, 830.3672
374.5380, 1033.877
375.7370, 1165.273
376.9360, 1154.562
378.1350, 1198.744
379.3330, 1268.818
380.5310, 1552.789
381.7300, 1502.656
382.9280, 1686.422
384.1260, 1757.084
385.3230, 1865.510
386.5210, 1959.713
387.7180, 2140.504
388.9160, 2171.070
390.1130, 2345.166
391.3100, 2462.918
392.5060, 2709.330
393.7030, 2606.404
394.9000, 3056.992
396.0960, 3029.154
397.2920, 3088.873
398.4880, 3406.098
399.6840, 3523.863
400.8800, 3761.170
402.0750, 3798.102
403.2710, 3888.770
404.4660, 4029.311
405.6610, 3927.719
406.8560, 3815.057
408.0510, 3743.332
409.2450, 3647.562
410.4400, 3719.738
411.6340, 3464.865
412.8280, 3174.939
414.0220, 3113.963
415.2160, 2776.934
416.4100, 2518.855
417.6030, 2368.723
418.7970, 2211.543
419.9900, 2053.305
421.1830, 1771.020
422.3760, 1642.682
423.5690, 1424.293
424.7610, 1338.855
425.9540, 1260.369
427.1460, 1204.832
428.3380, 1164.518
429.5300, 1388.615
430.7220, 1125.936
431.9140, 1249.209
433.1050, 1265.439
434.2970, 1134.621
435.4880, 1250.758
436.6790, 1072.848
437.8700, 1199.895
439.0610, 1311.896
440.2510, 1115.854
441.4420, 1294.770
442.6320, 1217.645
443.8220, 1189.475
445.0120, 1072.264
446.2020, 1138.010
447.3910, 940.7422
448.5810, 1307.469
449.7700, 1173.184
450.9600, 1341.867
452.1490, 1244.508
453.3370, 1329.105
454.5260, 1348.652
455.7150, 1231.143
456.9030, 1169.572
458.0910, 1287.939
459.2800, 1199.238
460.4670, 1140.471
461.6550, 1379.633
462.8430, 1281.721
464.0300, 1117.734
465.2180, 1334.674
466.4050, 1195.898
467.5920, 1461.363
468.7790, 1237.627
469.9650, 1275.264
471.1520, 1359.730
472.3380, 1431.320
473.5250, 1272.959
474.7110, 1304.605
475.8970, 1246.621
477.0820, 1255.807
478.2680, 1262.363
479.4540, 1101.879
480.6390, 1119.344
481.8240, 1046.994
483.0090, 851.4355
484.1940, 771.5605
485.3780, 694.7852
486.5630, 746.7520
487.7470, 607.9961
488.9320, 545.7539
490.1160, 521.7852
491.3000, 297.0469
492.4830, 244.6895
493.6670, 6.353516
494.8500, 23.12695
496.0340, 13.56250
497.2170, 76.23438
498.4000, 19.48438
499.5820, 266.2090
500.7650, 182.2090
501.9480, 200.0742
503.1300, 131.7832
504.3120, 37.04102
505.4940, 204.8418
506.6760, 169.3965
507.8580, 9.546875
509.0390, 75.59961
510.2210, 51.65820
511.4020, 71.90625
512.5830, 33.78125
513.7640, 300.4316
514.9450, 368.0508
516.1250, 416.6309
517.3060, 256.1758
518.4860, 412.6875
519.6660, 401.1680
520.8460, 660.6133
522.0260, 500.0254
523.2060, 532.4102
524.3850, 517.7598
525.5650, 776.0781
526.7440, 889.3711
527.9230, 694.6367
529.1020, 1006.871
530.2810, 867.0859
531.4590, 1086.273
532.6380, 974.4375
533.8160, 1152.602
534.9940, 969.7500
536.1720, 1028.885
537.3500, 855.0078
538.5270, 1067.137
539.7050, 1101.266
540.8820, 1184.436
542.0590, 1239.324
543.2360, 1269.768
544.4130, 1325.932
545.5900, 1369.098
546.7660, 1530.287
547.9430, 1647.527
549.1190, 1642.838
550.2950, 1843.229
551.4710, 1991.713
552.6470, 2126.217
553.8220, 2370.727
554.9980, 2484.256
556.1730, 2888.863
557.3480, 2944.549
558.5230, 3166.242
559.6980, 2898.943
560.8730, 3106.664
562.0470, 3052.408
563.2220, 3437.209
564.3960, 3350.109
565.5700, 3089.035
566.7440, 3241.998
567.9170, 2843.977
569.0910, 2630.988
570.2640, 2602.027
571.4380, 2421.076
572.6110, 2063.137
573.7840, 1839.207
574.9570, 1600.291
576.1290, 1547.404
577.3020, 1271.564
578.4740, 1326.738
579.6460, 1196.926
580.8180, 773.1504
581.9900, 928.4102
583.1620, 786.6797
584.3330, 512.9590
585.5040, 550.2520
586.6760, 521.2422
587.8470, 471.9121
589.0180, 603.3027
590.1880, 531.7070
591.3590, 423.1270
592.5290, 463.5586
593.7000, 543.0039
594.8700, 654.4727
596.0400, 646.9551
597.2090, 693.4551
598.3790, 620.9668
599.5490, 566.5293
600.7180, 692.0996
601.8870, 709.7012
603.0560, 851.3145
604.2250, 943.9570
605.3940, 1044.611
606.5620, 1058.285
607.7300, 1276.059
608.8990, 1266.910
610.0670, 1321.807
611.2350, 1246.770
612.4020, 1363.889
613.5700, 1402.070
614.7370, 1387.307
615.9050, 1614.695
617.0720, 1427.203
618.2390, 1615.826
619.4060, 1423.551
620.5720, 1634.373
621.7390, 1401.318
622.9050, 1547.344
624.0710, 1697.498
625.2370, 1621.812
626.4030, 1804.275
627.5690, 1720.893
628.7340, 1849.645
629.9000, 1754.553
631.0650, 1860.623
632.2300, 1602.879
633.3950, 1588.289
634.5600, 1728.527
635.7240, 1560.316
636.8890, 1712.934
638.0530, 1546.658
639.2170, 1615.863
640.3810, 1232.369
641.5450, 1158.680
642.7080, 1255.463
643.8720, 1162.781
645.0350, 1070.379
646.1980, 893.5039
647.3610, 927.1621
648.5240, 892.6797
649.6870, 918.5332
650.8490, 980.0449
652.0120, 1232.883
653.1740, 1288.830
654.3360, 1257.805
655.4980, 1589.811
656.6600, 1374.846
657.8210, 1796.908
658.9830, 1759.000
660.1440, 1933.121
661.3050, 1901.273
662.4660, 1926.453
663.6270, 2070.662
664.7870, 2121.900
665.9480, 2238.168
667.1080, 2227.465
668.2680, 2226.789
669.4280, 2150.482
670.5880, 2182.867
671.7480, 2383.279
672.9070, 2533.498
674.0670, 2727.967
675.2260, 2844.348
676.3850, 2797.289
677.5440, 3089.590
678.7030, 3382.234
679.8610, 3541.152
681.0200, 3892.129
682.1780, 4147.791
683.3360, 4692.078
684.4940, 4883.514
685.6520, 5515.348
686.8090, 6110.152
687.9670, 6652.160
689.1240, 6922.188
690.2810, 7963.867
691.4380, 8778.676
692.5950, 9463.000
693.7520, 10580.74
694.9080, 11584.88
696.0650, 12897.42
697.2210, 14343.84
698.3770, 15660.29
699.5330, 17502.59
700.6880, 19274.45
701.8440, 21587.58
702.9990, 24005.74
704.1550, 26456.14
705.3100, 29419.69
706.4650, 32380.62
707.6190, 34826.61
708.7740, 37412.05
709.9290, 39269.20
711.0830, 39942.93
712.2370, 39632.71
713.3910, 38014.64
714.5450, 34855.68
715.6980, 31189.80
716.8520, 27018.59
718.0050, 23145.04
719.1580, 19438.56
720.3110, 16440.43
721.4640, 14084.64
722.6170, 11936.25
723.7700, 10264.46
724.9220, 8819.172
726.0740, 7524.135
727.2260, 6896.627
728.3780, 6236.125
729.5300, 5421.916
730.6810, 5031.820
731.8330, 4321.867
732.9840, 4061.701
734.1350, 3620.225
735.2860, 3466.145
736.4370, 3421.570
737.5880, 3468.867
738.7380, 3373.135
739.8880, 3496.586
741.0390, 3416.855
742.1890, 3543.137
743.3380, 3807.055
744.4880, 3715.418
745.6380, 3915.436
746.7870, 3971.852
747.9360, 3979.750
749.0850, 4091.488
750.2340, 4118.611
751.3830, 4147.867
752.5310, 4401.705
753.6800, 4143.617
754.8280, 4250.482
755.9760, 3974.561
757.1240, 3890.254
758.2720, 3602.219
759.4190, 3586.992
760.5670, 3278.816
761.7140, 2976.580
762.8610, 2829.818
764.0080, 2552.984
765.1550, 2369.547
766.3020, 2221.281
767.4480, 2223.705
768.5950, 1813.812
769.7410, 1510.133
770.8870, 1436.203
772.0330, 1527.398
773.1780, 1255.990
774.3240, 1229.461
775.4690, 1278.496
776.6140, 1088.680
777.7590, 1231.156
778.9040, 1189.219
780.0490, 1078.479
781.1940, 1144.166
782.3380, 1098.600
783.4820, 1000.342
784.6260, 1126.311
785.7700, 1093.498
786.9140, 1139.801
788.0580, 1105.145
789.2010, 1075.010
790.3450, 1017.291
791.4880, 946.2969
792.6310, 968.2734
793.7730, 819.2188
794.9160, 503.1328
796.0590, 624.0156
797.2010, 407.0449
798.3430, 512.8652
799.4850, 372.6523
800.6270, 267.4062
801.7690, 454.1289
802.9100, 286.8184
804.0520, 377.4727
805.1930, 391.0957
806.3340, 43.68359
807.4750, 197.2324
808.6160, 281.7500
809.7560, 58.76953
810.8970, 294.6387
812.0370, 5.988281
813.1770, 46.33789
814.3170, 52.37500
815.4570, 24.16406
816.5960, 170.0098
817.7360, 77.00586
818.8750, 188.9824
820.0140, 21.92188
821.1530, 7.816406
822.2920, 48.33594
823.4310, 173.5684
824.5690, 222.9434
825.7070, 269.4922
826.8460, 326.2363
827.9840, 24.20898
829.1220, 81.75195
830.2590, 36.33398
831.3970, 248.4980
832.5340, 253.8496
833.6710, 85.60547
834.8080, 85.01562
835.9450, 23.61914
837.0820, 31.32812
838.2190, 146.1152
839.3550, 321.0449
840.4910, 37.20312
841.6270, 86.44531
842.7630, 31.20117
843.8990, 60.20312
845.0350, 34.70117
846.1700, 23.71680
847.3060, 69.08008
848.4410, 63.39453
849.5760, 46.65820
850.7100, 25.12500
851.8450, 120.9902
852.9800, 77.01367
854.1140, 158.9668
855.2480, 78.12500
856.3820, 35.32422
857.5160, 283.3867
858.6500, 133.0527
859.7830, 255.6719
860.9170, 114.2480
862.0500, 130.2227
863.1830, 10.83203
864.3160, 26.48047
865.4480, 102.7383
866.5810, 77.10547
867.7130, 58.10547
868.8460, 19.21094
869.9780, 28.25781
871.1100, 79.24414
872.2410, 198.1816
873.3730, 84.92578
874.5050, 264.8496
875.6360, 7.419922
876.7670, 277.2363
877.8980, 11.84570
879.0290, 84.39062
880.1590, 37.88281
881.2900, 68.32031
882.4200, 22.28906
883.5500, 99.01562
884.6800, 118.2676
885.8100, 55.47266
886.9400, 292.6270
888.0690, 21.73438
889.1990, 19.78320
890.3280, 91.76953
891.4570, 57.70508
892.5860, 4.589844
893.7140, 69.42383
894.8430, 44.83008
895.9710, 91.83789
897.1000, 103.4551
898.2280, 11.02539
899.3560, 286.5312
900.4830, 11.00977
901.6110, 97.37109
902.7380, 73.29688
903.8660, 382.9277
904.9930, 7.107422
906.1200, 268.2207
907.2460, 204.2910
908.3730, 108.3125
909.5000, 134.2891
910.6260, 260.2148
911.7520, 7.097656
912.8780, 124.9492
914.0040, 281.7500
915.1290, 192.5078
916.2550, 0.7773440
917.3800, 287.8672
918.5050, 8.464844
919.6300, 48.00000
920.7550, 217.4844
921.8800, 25.92383
923.0040, 165.3027
924.1290, 218.6387
925.2530, 224.9297
926.3770, 483.1758
927.5010, 300.3770
928.6250, 315.5391
929.7480, 269.6602
930.8720, 401.7383
931.9950, 180.7734
933.1180, 427.7598
934.2410, 246.7168
935.3640, 435.6406
936.4860, 475.5234
937.6090, 330.3613
938.7310, 292.1777
939.8530, 442.9531
940.9750, 274.7148
942.0970, 312.1016
943.2180, 404.7852
944.3400, 460.4297
945.4610, 479.8008
946.5820, 512.5117
947.7030, 495.4453
948.8240, 538.5117
949.9450, 499.2070
951.0650, 542.5430
952.1860, 536.6582
953.3060, 533.0781
954.4260, 568.8613
955.5460, 573.5117
956.6650, 597.0000
957.7850, 691.0879
958.9040, 648.1953
960.0230, 728.0898
961.1420, 855.9512
962.2610, 696.1504
963.3800, 704.2031
964.4990, 802.7383
965.6170, 738.8418
966.7350, 779.5449
967.8530, 658.8242
968.9710, 670.9199
970.0890, 888.5801
971.2070, 664.0684
972.3240, 685.9961
973.4410, 727.6641
974.5580, 939.2520
975.6750, 909.6074
976.7920, 928.8105
977.9090, 849.6270
979.0250, 861.3652
980.1410, 1083.648
981.2580, 1062.230
982.3740, 1118.193
983.4890, 1180.768
984.6050, 841.8711
985.7200, 1170.486
986.8360, 1095.037
987.9510, 986.9043
989.0660, 1165.100
990.1810, 942.2520
991.2950, 1056.080
992.4100, 1031.562
993.5240, 1283.654
994.6390, 1335.121
995.7530, 1198.111
996.8660, 1262.838
997.9800, 1439.035
999.0940, 1490.221
1000.207, 1340.102
1001.320, 1354.859
1002.433, 1451.467
1003.546, 1285.287
1004.659, 1345.406
1005.772, 1197.121
1006.884, 1225.316
1007.996, 1261.797
1009.108, 1386.031
1010.220, 1352.203
1011.332, 1445.543
1012.444, 1417.865
1013.555, 1442.367
1014.666, 1492.764
1015.777, 1499.367
1016.888, 1476.600
1017.999, 1569.416
1019.110, 1776.303
1020.220, 1608.834
1021.331, 1715.217
1022.441, 1617.004
1023.551, 1767.705
1024.661, 1598.436
1025.770, 1911.941
1026.880, 1814.818
1027.989, 1715.410
1029.098, 1679.189
1030.207, 1652.896
1031.316, 1759.648
1032.425, 1806.910
1033.533, 1724.225
1034.642, 1816.590
1035.750, 1794.844
1036.858, 1920.850
1037.966, 1936.152
1039.073, 2085.223
1040.181, 2149.521
1041.288, 2304.676
1042.396, 2479.426
1043.503, 2655.275
1044.610, 2912.576
1045.716, 3128.666
1046.823, 3363.584
1047.929, 3675.238
1049.036, 3743.348
1050.142, 4343.055
1051.248, 4477.336
1052.353, 4670.652
1053.459, 4729.090
1054.564, 4966.314
1055.670, 5377.402
1056.775, 5369.422
1057.880, 5719.668
1058.985, 5485.941
1060.089, 5481.232
1061.194, 5739.496
1062.298, 5369.791
1063.402, 5646.088
1064.506, 5357.387
1065.610, 5214.510
1066.713, 4995.387
1067.817, 4878.391
1068.920, 4592.699
1070.023, 4420.014
1071.126, 4229.783
1072.229, 4197.100
1073.332, 4030.195
1074.435, 4155.490
1075.537, 3933.818
1076.639, 3730.152
1077.741, 3932.488
1078.843, 3818.848
1079.945, 3871.211
1081.046, 3852.607
1082.148, 3584.988
1083.249, 3618.393
1084.350, 3657.812
1085.451, 3582.289
1086.551, 3769.801
1087.652, 3508.318
1088.752, 3594.844
1089.853, 3734.461
1090.953, 3335.025
1092.053, 3316.646
1093.152, 3373.342
1094.252, 3371.119
1095.351, 3516.000
1096.451, 3686.900
1097.550, 3676.809
1098.649, 3795.100
1099.748, 3849.275
1100.846, 3842.215
1101.945, 4022.322
1103.043, 4002.441
1104.141, 4243.586
1105.239, 4040.754
1106.337, 4285.307
1107.434, 4497.633
1108.532, 4140.988
1109.629, 4672.383
1110.726, 4549.648
1111.823, 4841.117
1112.920, 4692.588
1114.017, 4993.074
1115.113, 5230.568
1116.210, 5282.078
1117.306, 5519.605
1118.402, 5453.152
1119.498, 5786.750
1120.593, 5718.305
1121.689, 6147.076
1122.784, 6432.793
1123.879, 6808.488
1124.974, 6885.145
1126.069, 6794.855
1127.164, 7356.941
1128.259, 7175.029
1129.353, 7596.086
1130.447, 7998.893
1131.541, 8042.783
1132.635, 8307.852
1133.729, 8578.949
1134.822, 8807.699
1135.916, 8862.580
1137.009, 8687.711
1138.102, 8602.621
1139.195, 8322.980
1140.288, 7675.938
1141.380, 6978.961
1142.473, 6574.945
1143.565, 5845.111
1144.657, 5099.367
1145.749, 3970.750
1146.841, 3451.744
1147.932, 3148.432
1149.024, 2728.811
1150.115, 2265.203
1151.206, 1737.496
1152.297, 1555.588
1153.388, 1626.682
1154.479, 1199.793
1155.569, 1124.045
1156.659, 926.1758
1157.750, 1000.494
1158.839, 591.9258
1159.929, 680.7051
1161.019, 559.9004
1162.108, 528.1035
1163.198, 442.3574
1164.287, 391.8496
1165.376, 408.2715
1166.465, 325.5762
1167.553, 237.2676
1168.642, 202.8359
1169.730, 276.4082
1170.818, 178.7246
1171.906, 165.0430
1172.994, 65.36719
1174.082, 149.6992
1175.170, 52.16797
1176.257, 157.2207
1177.344, 6.925781
1178.431, 23.32227
1179.518, 125.9746
1180.605, 169.4688
1181.691, 357.7871
1182.778, 255.1094
1183.864, 242.9062
1184.950, 84.24609
1186.036, 32.92383
1187.122, 269.2773
1188.207, 216.6367
1189.292, 76.99805
1190.378, 205.3613
1191.463, 37.19531
1192.548, 240.1660
1193.632, 132.5273
1194.717, 188.8926
1195.801, 202.2598
1196.886, 69.03320
1197.970, 50.68164
1199.054, 36.65234
1200.137, 182.0000
1201.221, 98.65039
1202.305, 109.6602
1203.388, 134.0273
1204.471, 30.77344
1205.554, 139.4727
1206.637, 72.71875
1207.719, 137.9688
1208.802, 142.4648
1209.884, 181.7422
1210.966, 13.29297
1212.048, 222.5703
1213.130, 89.85547
1214.212, 73.13281
1215.293, 124.4141
1216.374, 71.77734
1217.456, 81.05859
1218.536, 76.33594
1219.617, 43.09766
1220.698, 190.1680
1221.778, 199.4258
1222.859, 388.6875
1223.939, 133.9453
1225.019, 331.2070
1226.099, 125.4609
1227.178, 136.7188
1228.258, 24.02734
1229.337, 101.2031
1230.417, 113.4375
1231.496, 83.82422
1232.574, 335.0508
1233.653, 301.2812
1234.732, 140.5000
1235.810, 36.27734
1236.888, 176.9141
1237.966, 168.1016
1239.044, 305.2852
1240.122, 25.53516
1241.199, 65.61719
1242.277, 160.7656
1243.354, 104.1094
1244.431, 211.2422
1245.508, 205.3789
1246.585, 77.50781
1247.661, 256.9141
1248.738, 205.0312
1249.814, 19.85547
1250.890, 133.7539
1251.966, 99.71875
1253.042, 120.2461
1254.117, 64.79297
1255.193, 121.1133
1256.268, 53.98828
1257.343, 14.87109
1258.418, 35.27344
1259.493, 200.8555
1260.567, 85.70312
1261.642, 46.50000
1262.716, 49.58984
1263.790, 24.63672
1264.864, 233.1016
1265.938, 54.82812
1267.011, 121.5469
1268.085, 94.75000
1269.158, 125.8828
1270.231, 102.5039
1271.304, 268.1133
1272.377, 77.71484
1273.450, 62.30078
1274.522, 5.875000
1275.594, 146.5703
1276.666, 109.1289
1277.738, 103.3438
1278.810, 50.58984
1279.882, 77.85156
1280.953, 209.5352
1282.025, 185.0195
1283.096, 200.0508
1284.167, 101.2148
1285.238, 156.4219
1286.308, 92.11719
1287.379, 70.31641
1288.449, 8.480469
1289.519, 173.6133
1290.589, 151.7344
1291.659, 129.9609
1292.729, 77.05859
1293.798, 96.38672
1294.868, 51.35938
1295.937, 119.3281
1297.006, 80.35938
1298.075, 80.37891
1299.143, 277.3789
1300.212, 266.3672
1301.280, 250.4922
1302.348, 333.4453
1303.416, 119.3945
1304.484, 87.32031
1305.552, 180.2812
1306.620, 74.08203
1307.687, 523.5898
1308.754, 102.4531
1309.821, 174.2891
1310.888, 542.1250
1311.955, 47.93750
1313.021, 199.7383
1314.088, 74.51953
1315.154, 190.2812
1316.220, 246.0195
1317.286, 368.7422
1318.352, 410.4492
1319.417, 140.1328
1320.483, 273.8320
1321.548, 252.4766
1322.613, 456.1172
1323.678, 187.7344
1324.743, 81.56250
1325.807, 243.5781
1326.872, 351.6172
1327.936, 324.3594
1329.000, 310.2031
1330.064, 351.5586
1331.128, 208.5312
1332.191, 313.2695
1333.255, 499.7656
1334.318, 368.2188
1335.381, 232.1719
1336.444, 99.59766
1337.507, 166.5625
1338.569, 98.96094
1339.632, 292.4453
1340.694, 448.8125
1341.756, 443.1680
1342.818, 177.5039
1343.880, 71.17188
1344.941, 273.1094
1346.003, 411.3945
1347.064, 101.6445
1348.125, 329.8008
1349.186, 337.2617
1350.247, 291.8320
1351.308, 483.0156
1352.368, 362.4492
1353.428, 512.6016
1354.489, 260.7422
1355.549, 457.8711
1356.608, 457.6016
1357.668, 239.6680
1358.727, 137.0078
1359.787, 295.0430
1360.846, 210.7305
1361.905, 245.6562
1362.964, 247.7383
1364.022, 337.3906
1365.081, 320.3516
1366.139, 497.3086
1367.197, 753.2500
1368.255, 252.3164
1369.313, 297.3320
1370.371, 129.5586
1371.428, 287.7578
1372.486, 511.1211
1373.543, 294.3711
1374.600, 112.2031
1375.657, 435.7305
1376.713, 353.8594
1377.770, 47.71484
1378.826, 299.3594
1379.882, 228.0781
1380.938, 569.8438
1381.994, 429.6406
1383.050, 275.3750
1384.106, 180.0547
1385.161, 394.7695
1386.216, 92.53906
1387.271, 28.29688
1388.326, 273.9492
1389.381, 15.64062
1390.435, 404.8477
1391.490, 268.5781
1392.544, 302.1719
1393.598, 199.4648
1394.652, 346.9844
1395.705, 405.0430
1396.759, 213.5352
1397.812, 342.1289
1398.866, 206.5977
1399.919, 252.8789
1400.972, 291.0742
1402.024, 353.1445
1403.077, 380.5352
1404.129, 128.3633
1405.181, 345.4258
1406.233, 291.4727
1407.285, 42.91797
1408.337, 306.2617
1409.389, 155.0586
1410.440, 263.3711
1411.491, 258.5312
1412.542, 35.91797
1413.593, 139.3750
1414.644, 172.2031
1415.695, 303.6758
1416.745, 162.6992
1417.795, 115.6914
1418.845, 340.8438
1419.895, 149.6289
1420.945, 283.3828
1421.995, 124.9180
1423.044, 255.6016
1424.093, 191.6328
1425.142, 273.7773
1426.191, 147.6289
1427.240, 108.4336
1428.289, 175.6289
1429.337, 178.6953
1430.385, 255.2539
1431.433, 280.6406
1432.481, 242.3086
1433.529, 317.9219
1434.577, 352.2461
1435.624, 368.8281
1436.672, 366.7695
1437.719, 319.2578
1438.766, 364.4375
1439.812, 206.7734
1440.859, 379.7852
1441.905, 340.0703
1442.952, 251.2266
1443.998, 148.1992
1445.044, 331.0391
1446.090, 350.0664
1447.135, 352.2305
1448.181, 143.6875
1449.226, 187.7773
1450.271, 93.20312
1451.316, 235.6094
1452.361, 110.0234
1453.405, 11.51562
1454.450, 273.9219
1455.494, 282.0508
1456.538, 596.0938
1457.582, 314.4062
1458.626, 224.8984
1459.670, 299.0859
1460.713, 36.94531
1461.757, 426.1016
1462.800, 67.76953
1463.843, 201.3320
1464.886, 112.4219
1465.928, 333.3047
1466.971, 330.3398
1468.013, 383.3320
1469.055, 500.3320
1470.097, 198.3086
1471.139, 140.2812
1472.181, 279.9648
1473.222, 354.8750
1474.263, 86.38281
1475.305, 55.91797
1476.346, 272.7852
1477.386, 80.69531
1478.427, 339.6250
1479.468, 215.1328
1480.508, 140.6328
1481.548, 326.9570
1482.588, 318.8125
1483.628, 73.65234
1484.668, 419.5586
1485.707, 6.550781
1486.747, 216.3203
1487.786, 155.2578
1488.825, 278.2969
1489.864, 215.8477
1490.902, 272.0352
1491.941, 237.2148
1492.979, 229.5469
1494.017, 113.7070
1495.055, 67.69531
1496.093, 70.86328
1497.131, 45.90625
1498.168, 59.07422
1499.206, 212.2500
1500.243, 29.16406
1501.280, 75.33203
1502.317, 119.4805
1503.354, 353.7148
1504.390, 392.9141
1505.426, 219.1172
1506.463, 185.3438
1507.499, 169.6016
1508.535, 11.10547
1509.570, 70.25781
1510.606, 74.55469
1511.641, 140.4336
1512.676, 139.8203
1513.711, 158.0391
1514.746, 129.2461
1515.781, 228.5938
1516.816, 285.7734
1517.850, 180.2188
1518.884, 191.9883
1519.918, 158.7500
1520.952, 180.7227
1521.986, 109.1367
1523.019, 235.5742
1524.053, 276.6719
1525.086, 245.0156
1526.119, 339.0312
1527.152, 187.2227
1528.185, 354.5977
1529.217, 238.8672
1530.250, 178.9141
1531.282, 81.96484
1532.314, 274.0039
1533.346, 60.52734
1534.377, 191.7656
1535.409, 385.2773
1536.440, 127.4961
1537.472, 30.06250
1538.503, 133.6094
1539.534, 223.0273
1540.564, 316.4805
1541.595, 281.5234
1542.625, 67.94531
1543.656, 95.90625
1544.686, 115.3945
1545.716, 406.9219
1546.745, 0.3593750
1547.775, 204.3867
1548.804, 401.1602
1549.834, 108.6016
1550.863, 484.9180
1551.892, 28.87500
1552.920, 38.12500
1553.949, 271.1914
1554.977, 200.7461
1556.006, 287.0898
1557.034, 238.7969
1558.062, 409.0703
1559.089, 46.79688
1560.117, 9.269531
1561.144, 156.9414
1562.172, 162.7383
1563.199, 54.07422
1564.226, 113.7773
1565.252, 280.2500
1566.279, 56.60547
1567.305, 116.5117
1568.332, 135.5430
1569.358, 0.1875000
1570.384, 0.0000000E+00
##END=



