##NAMES=Pyrite
##RRUFFID=R050190
##IDEAL CHEMISTRY=Fe^2+^(S_2_)^2-^
##LOCALITY=Huanzala mine, Huallanca District, Dos de Mayo Province, Huanuco Department, Peru
##OWNER=RRUFF
##SOURCE=Dave Bunk Minerals
##DESCRIPTION=Brass yellow modified cubes with typical pyrite striations
##STATUS=The identification of this mineral has been confirmed by X-ray diffraction and chemical analysis
##URL=rruff.info/R050190
##MEASURED CHEMISTRY=Fe_1.00_S_2.00_
##PIN_ID=L00393
##ORIENTATION=Laser parallel to b* (0 1 0). Fiducial mark perpendicular to laser is parallel to [1 0 1]
177.974, 0.000
179.354, 146.473
180.734, 110.033
182.114, 5.793
183.493, 444.996
184.872, 35.721
186.251, 270.613
187.630, 128.189
189.008, 307.145
190.387, 402.652
191.765, 476.352
193.143, 541.717
194.520, 549.016
195.898, 566.520
197.275, 746.932
198.652, 698.270
200.029, 736.865
201.405, 909.939
202.782, 791.260
204.158, 974.094
205.534, 1151.287
206.909, 1019.840
208.285, 930.711
209.660, 682.613
211.035, 340.529
212.410, 380.812
213.784, 174.994
215.159, 227.922
216.533, 396.086
217.907, 154.254
219.281, 363.512
220.654, 203.119
222.027, 42.883
223.400, 222.666
224.773, 204.432
226.146, 257.049
227.518, 256.578
228.891, 179.697
230.263, 234.803
231.634, 49.373
233.006, 273.850
234.377, 369.420
235.748, 375.104
237.119, 177.197
238.490, 338.508
239.860, 397.656
241.231, 363.205
242.601, 433.025
243.970, 454.213
245.340, 297.318
246.709, 449.176
248.079, 491.709
249.448, 337.256
250.816, 222.988
252.185, 374.213
253.553, 345.627
254.921, 285.693
256.289, 334.871
257.657, 347.035
259.024, 216.172
260.391, 175.391
261.758, 226.018
263.125, 56.961
264.492, 137.195
265.858, 59.682
267.224, 133.391
268.590, 69.293
269.956, 72.012
271.321, 38.566
272.687, 62.883
274.052, 50.721
275.416, 54.256
276.781, 54.256
278.146, 154.775
279.510, 11.711
280.874, 61.777
282.237, 192.219
283.601, 51.414
284.964, 67.887
286.327, 41.092
287.690, 31.820
289.053, 74.168
290.416, 121.967
291.778, 88.215
293.140, 33.430
294.502, 88.213
295.863, 73.846
297.225, 166.816
298.586, 194.498
299.947, 38.305
301.308, 64.990
302.668, 33.402
304.029, 68.373
305.389, 156.883
306.749, 125.242
308.108, 160.965
309.468, 29.592
310.827, 170.242
312.186, 89.941
313.545, 3.535
314.903, 139.852
316.262, 80.064
317.620, 100.541
318.978, 17.814
320.336, 205.152
321.693, 171.117
323.051, 324.939
324.408, 256.424
325.765, 309.457
327.121, 429.602
328.478, 400.688
329.834, 538.826
331.190, 704.252
332.546, 937.779
333.902, 1583.645
335.257, 2281.480
336.612, 3508.760
337.967, 4780.242
339.322, 6110.877
340.677, 7435.777
342.031, 8458.523
343.385, 9104.582
344.739, 9105.500
346.093, 8336.771
347.446, 7509.770
348.799, 6398.029
350.153, 5553.074
351.505, 4565.613
352.858, 3816.711
354.210, 3203.672
355.563, 2783.180
356.915, 2441.352
358.267, 2177.713
359.618, 1883.426
360.969, 2036.492
362.321, 2027.496
363.672, 1893.854
365.022, 2193.361
366.373, 2391.016
367.723, 2845.312
369.073, 3665.230
370.423, 4883.488
371.773, 6862.020
373.122, 10147.520
374.471, 13670.936
375.821, 16854.348
377.169, 20703.641
378.518, 23459.854
379.866, 25469.568
381.215, 24766.732
382.563, 22731.441
383.910, 20342.564
385.258, 18172.580
386.605, 15976.805
387.952, 12402.652
389.299, 9832.588
390.646, 7877.838
391.992, 6200.320
393.339, 5097.213
394.685, 3982.516
396.031, 3205.148
397.376, 2304.383
398.722, 1863.621
400.067, 1488.314
401.412, 1284.893
402.757, 1178.340
404.101, 1095.504
405.446, 1046.865
406.790, 1005.150
408.134, 777.576
409.478, 728.637
410.821, 563.783
412.165, 715.166
413.508, 714.605
414.851, 867.053
416.193, 650.346
417.536, 626.256
418.878, 638.473
420.220, 585.727
421.562, 745.246
422.904, 976.527
424.245, 1052.920
425.586, 1298.551
426.927, 1471.092
428.268, 1702.812
429.609, 1765.293
430.949, 1895.896
432.289, 2096.676
433.629, 2138.992
434.969, 1992.811
436.309, 1856.697
437.648, 1870.820
438.987, 1809.723
440.326, 1650.326
441.665, 1589.162
443.003, 1401.539
444.342, 1341.439
445.680, 972.826
447.018, 1260.283
448.355, 1405.107
449.693, 736.301
451.030, 812.105
452.367, 571.973
453.704, 345.227
455.041, 468.994
456.377, 398.145
457.713, 291.291
459.049, 408.941
460.385, 390.822
461.721, 391.332
463.056, 361.260
464.391, 284.627
465.726, 248.049
467.061, 181.766
468.395, 175.988
469.730, 232.238
471.064, 679.189
472.398, 629.494
473.731, 638.039
475.065, 379.199
476.398, 563.229
477.731, 448.955
479.064, 118.629
480.397, 256.463
481.729, 137.385
483.062, 30.729
484.394, 108.387
485.725, 284.533
487.057, 180.207
488.389, 144.744
489.720, 74.078
491.051, 35.941
492.382, 128.916
493.712, 227.811
495.043, 262.881
496.373, 45.859
497.703, 154.436
499.032, 162.262
500.362, 192.346
501.691, 171.949
503.020, 107.211
504.349, 143.488
505.678, 105.396
507.007, 201.898
508.335, 163.762
509.663, 267.334
510.991, 262.027
512.319, 369.820
513.646, 272.791
514.973, 294.498
516.300, 303.045
517.627, 189.053
518.954, 267.047
520.280, 488.736
521.607, 264.379
522.933, 326.410
524.259, 214.123
525.584, 457.064
526.910, 365.801
528.235, 340.379
529.560, 179.012
530.885, 268.592
532.209, 204.115
533.534, 318.018
534.858, 278.781
536.182, 271.254
537.506, 265.447
538.829, 244.354
540.152, 298.787
541.476, 328.010
542.799, 223.498
544.121, 348.023
545.444, 416.736
546.766, 433.098
548.088, 238.875
549.410, 316.104
550.732, 284.510
552.053, 248.521
553.375, 364.107
554.696, 200.646
556.017, 298.836
557.337, 369.861
558.658, 440.908
559.978, 533.857
561.298, 398.254
562.618, 490.080
563.938, 313.838
565.257, 496.590
566.576, 408.318
567.895, 496.070
569.214, 530.758
570.533, 507.361
571.851, 489.158
573.170, 403.238
574.488, 376.254
575.805, 378.846
577.123, 356.117
578.440, 445.684
579.758, 222.232
581.075, 193.766
582.391, 298.287
583.708, 187.811
585.024, 317.324
586.341, 179.824
587.657, 307.314
588.972, 247.115
590.288, 212.264
591.603, 160.727
592.918, 160.178
594.233, 112.619
595.548, 260.070
596.863, 91.555
598.177, 317.027
599.491, 242.484
600.805, 241.947
602.119, 222.404
603.432, 229.846
604.746, 227.301
606.059, 20.748
607.372, 93.189
608.685, 156.619
609.997, 16.107
611.309, 190.318
612.621, 287.734
613.933, 313.285
615.245, 49.939
616.557, 159.033
617.868, 153.639
619.179, 164.941
620.490, 165.281
621.801, 183.502
623.111, 179.408
624.421, 89.170
625.731, 138.646
627.041, 217.094
628.351, 305.777
629.660, 236.182
630.970, 340.572
632.279, 66.955
633.588, 321.299
634.896, 113.666
636.205, 252.021
637.513, 242.277
638.821, 307.133
640.129, 308.488
641.437, 168.346
642.744, 85.570
644.051, 17.523
645.358, 156.025
646.665, 278.373
647.972, 117.416
649.278, 99.006
650.584, 6.254
651.890, 109.893
653.196, 171.662
654.502, 55.514
655.807, 289.807
657.113, 253.119
658.418, 24.549
659.722, 82.877
661.027, 139.920
662.331, 6.105
663.636, 88.109
664.940, 94.506
666.244, 163.734
667.547, 62.385
668.851, 87.584
670.154, 17.340
671.457, 39.520
672.760, 100.760
674.062, 141.102
675.365, 122.045
676.667, 7.225
677.969, 7.234
679.271, 50.018
680.572, 78.600
681.874, 50.867
683.175, 162.619
684.476, 12.047
685.777, 141.256
687.077, 111.891
688.378, 132.896
689.678, 4.373
690.978, 54.818
692.278, 14.508
693.577, 108.451
694.877, 14.387
696.176, 59.225
697.475, 198.324
698.774, 50.773
700.072, 54.514
701.371, 149.658
702.669, 26.764
703.967, 156.564
705.265, 292.783
706.562, 290.896
707.860, 63.641
709.157, 30.473
710.454, 23.510
711.751, 46.137
713.047, 41.150
714.344, 87.848
715.640, 86.908
716.936, 44.031
718.232, 58.807
719.527, 136.635
720.823, 64.877
722.118, 135.859
723.413, 15.338
724.708, 124.438
726.002, 150.512
727.297, 74.268
728.591, 12.018
729.885, 99.756
731.179, 182.484
732.472, 32.332
733.766, 59.045
735.059, 63.752
736.352, 49.252
737.645, 65.902
738.937, 69.219
740.230, 76.580
741.522, 74.250
742.814, 80.771
744.106, 113.240
745.397, 152.859
746.689, 313.334
747.980, 343.598
749.271, 193.861
750.562, 324.926
751.853, 199.398
753.143, 304.381
754.433, 359.986
755.723, 132.586
757.013, 364.182
758.303, 215.723
759.592, 180.295
760.881, 199.861
762.170, 134.566
763.459, 339.574
764.748, 271.852
766.036, 299.543
767.325, 218.967
768.613, 241.779
769.901, 243.322
771.188, 85.170
772.476, 217.480
773.763, 197.770
775.050, 419.109
776.337, 141.453
777.624, 106.877
778.910, 186.291
780.196, 238.332
781.482, 276.586
782.768, 214.100
784.054, 280.607
785.339, 178.113
786.625, 374.617
787.910, 294.598
789.195, 333.092
790.479, 239.277
791.764, 239.764
793.048, 122.254
794.332, 260.742
795.616, 483.232
796.900, 241.691
798.183, 344.811
799.467, 387.611
800.750, 196.041
802.033, 449.543
803.316, 342.828
804.598, 251.059
805.880, 234.596
807.163, 376.889
808.445, 247.406
809.726, 387.490
811.008, 296.594
812.289, 341.809
813.570, 143.525
814.851, 334.766
816.132, 283.254
817.413, 97.809
818.693, 319.102
819.973, 425.432
821.253, 272.980
822.533, 130.197
823.813, 135.529
825.092, 312.475
826.371, 228.623
827.650, 103.863
828.929, 297.580
830.208, 200.508
831.486, 131.164
832.764, 147.066
834.042, 115.529
835.320, 161.254
836.598, 161.697
837.875, 88.293
839.152, 68.002
840.429, 234.607
841.706, 330.217
842.983, 152.838
844.259, 358.033
845.536, 65.553
846.812, 131.016
848.088, 60.645
849.363, 122.678
850.639, 28.855
851.914, 8.215
853.189, 40.230
854.464, 29.293
855.739, 4.510
857.013, 71.717
858.288, 27.613
859.562, 105.057
860.836, 42.734
862.110, 22.326
863.383, 150.822
864.656, 224.238
865.930, 153.836
867.203, 149.430
868.475, 225.988
869.748, 145.637
871.020, 132.830
872.292, 134.574
873.564, 47.619
874.836, 66.824
876.108, 29.975
877.379, 80.746
878.650, 14.428
879.922, 111.408
881.192, 107.258
882.463, 47.521
883.733, 9.398
885.004, 68.713
886.274, 37.090
887.544, 7.992
888.813, 114.906
890.083, 45.164
891.352, 107.227
892.621, 187.691
893.890, 20.205
895.159, 82.559
896.427, 56.547
897.695, 79.529
898.964, 247.529
900.232, 337.549
901.499, 299.586
902.767, 91.639
904.034, 114.289
905.301, 110.766
906.568, 13.842
907.835, 251.932
909.102, 36.039
910.368, 462.162
911.634, 328.307
912.900, 7.467
914.166, 276.645
915.432, 116.842
916.697, 89.061
917.962, 106.297
919.227, 67.553
920.492, 17.170
921.757, 98.121
923.021, 306.432
924.285, 156.764
925.550, 353.111
926.813, 181.480
928.077, 553.865
929.341, 410.271
930.604, 414.693
931.867, 255.143
933.130, 274.605
934.393, 442.092
935.655, 397.596
936.918, 131.117
938.180, 380.656
939.442, 299.967
940.703, 360.797
941.965, 388.396
943.226, 129.014
944.488, 79.652
945.749, 193.307
947.009, 269.982
948.270, 244.680
949.530, 170.393
950.791, 299.129
952.051, 455.887
953.311, 240.664
954.570, 377.463
955.830, 542.285
957.089, 228.125
958.348, 357.986
959.607, 301.871
960.866, 247.775
962.124, 423.701
963.383, 444.645
964.641, 416.609
965.899, 432.596
967.156, 301.602
968.414, 509.629
969.671, 401.686
970.928, 273.764
972.185, 431.865
973.442, 547.988
974.699, 521.135
975.955, 366.303
977.211, 512.492
978.468, 372.703
979.723, 492.967
980.979, 237.291
982.234, 260.674
983.490, 376.080
984.745, 339.516
986.000, 471.986
987.254, 274.500
988.509, 276.053
989.763, 292.623
991.017, 624.223
992.271, 337.844
993.525, 480.480
994.779, 494.160
996.032, 293.848
997.285, 428.980
998.538, 408.723
999.791, 406.492
1001.044, 519.285
1002.296, 434.062
1003.548, 404.588
1004.800, 440.443
1006.052, 487.293
1007.304, 488.191
1008.555, 461.111
1009.807, 578.592
1011.058, 525.561
1012.309, 389.553
1013.559, 535.346
1014.810, 707.383
1016.060, 608.174
1017.310, 914.592
1018.560, 540.791
1019.810, 652.107
1021.060, 595.555
1022.309, 583.111
1023.558, 722.807
1024.807, 685.014
1026.056, 671.779
1027.305, 497.473
1028.553, 604.352
1029.801, 683.832
1031.049, 513.926
1032.297, 597.783
1033.545, 749.664
1034.793, 818.600
1036.040, 789.578
1037.287, 766.605
1038.534, 645.664
1039.781, 643.740
1041.027, 705.643
1042.274, 873.354
1043.520, 713.500
1044.766, 699.666
1046.012, 782.854
1047.257, 688.066
1048.503, 749.828
1049.748, 645.477
1050.993, 624.814
1052.238, 644.707
1053.483, 748.398
1054.727, 688.865
1055.971, 765.199
1057.216, 848.549
1058.459, 764.912
1059.703, 700.516
1060.947, 635.465
1062.190, 567.863
1063.433, 624.445
1064.676, 519.883
1065.919, 521.334
1067.162, 665.797
1068.404, 609.273
1069.646, 793.295
1070.888, 676.617
1072.130, 623.432
1073.372, 622.953
1074.613, 719.482
1075.855, 762.029
1077.096, 718.582
1078.337, 869.150
1079.578, 893.984
1080.818, 782.268
1082.059, 763.857
1083.299, 792.457
1084.539, 873.062
1085.779, 773.803
1087.018, 920.428
1088.258, 694.475
1089.497, 668.115
1090.736, 892.760
1091.975, 674.611
1093.213, 532.391
1094.452, 602.051
1095.690, 426.850
1096.928, 582.133
1098.166, 503.809
1099.404, 482.531
1100.642, 607.562
1101.879, 417.250
1103.116, 523.430
1104.353, 378.836
1105.590, 510.533
1106.827, 522.441
1108.063, 503.217
1109.299, 538.113
1110.536, 664.271
1111.771, 495.980
1113.007, 512.115
1114.243, 666.156
1115.478, 496.879
1116.713, 291.893
1117.948, 511.965
1119.183, 553.404
1120.418, 470.836
1121.652, 508.547
1122.886, 410.053
1124.120, 374.979
1125.354, 239.693
1126.588, 362.811
1127.821, 270.822
1129.055, 255.197
1130.288, 415.904
1131.521, 325.184
1132.753, 247.004
1133.986, 124.900
1135.218, 184.682
1136.450, 316.408
1137.682, 47.404
1138.914, 378.359
1140.146, 159.266
1141.377, 200.459
1142.609, 0.342
1143.840, 97.330
1145.071, 7.895
1146.301, 208.367
1147.532, 154.707
1148.762, 132.182
1149.992, 188.684
1151.222, 276.316
1152.452, 77.154
1153.682, 110.945
1154.911, 130.051
1156.140, 28.947
1157.369, 30.072
1158.598, 73.766
1159.827, 5.791
1161.055, 146.104
1162.284, 312.014
1163.512, 38.928
1164.740, 298.184
1165.967, 385.412
1167.195, 88.488
1168.422, 143.986
1169.650, 162.191
1170.877, 57.850
1172.103, 204.594
1173.330, 25.590
1174.557, 132.342
1175.783, 66.984
1177.009, 219.572
1178.235, 55.754
1179.461, 271.971
1180.686, 392.125
1181.912, 433.863
1183.137, 131.139
1184.362, 266.283
1185.587, 222.570
1186.811, 170.111
1188.036, 368.129
1189.260, 106.963
1190.484, 300.148
1191.708, 311.537
1192.932, 280.121
1194.155, 301.008
1195.378, 64.816
1196.602, 98.254
1197.825, 179.959
1199.047, 242.734
1200.270, 268.037
1201.492, 322.107
1202.715, 293.727
1203.937, 330.947
1205.159, 285.148
1206.380, 164.246
1207.602, 88.482
1208.823, 202.727
1210.044, 213.080
1211.265, 259.953
1212.486, 308.094
1213.707, 238.670
1214.927, 282.098
1216.147, 114.684
1217.367, 222.986
1218.587, 175.020
1219.807, 270.158
1221.027, 297.635
1222.246, 332.783
1223.465, 348.193
1224.684, 260.574
1225.903, 202.158
1227.121, 99.465
1228.340, 284.531
1229.558, 373.330
1230.776, 308.084
1231.994, 248.268
1233.212, 402.090
1234.429, 184.459
1235.646, 411.047
1236.864, 301.727
1238.081, 414.268
1239.297, 216.783
1240.514, 299.273
1241.730, 266.740
1242.947, 155.270
1244.163, 415.682
1245.378, 296.064
1246.594, 226.426
1247.810, 443.754
1249.025, 197.059
1250.240, 147.328
1251.455, 356.562
1252.670, 254.762
1253.885, 331.934
1255.099, 281.072
1256.313, 222.254
1257.527, 365.328
1258.741, 233.379
1259.955, 259.396
1261.168, 337.438
1262.382, 271.387
1263.595, 87.297
1264.808, 175.160
1266.021, 178.977
1267.233, 130.758
1268.446, 166.500
1269.658, 307.189
1270.870, 372.836
1272.082, 265.436
1273.294, 292.943
1274.505, 208.227
1275.716, 371.248
1276.928, 232.174
1278.139, 343.016
1279.349, 324.734
1280.560, 352.359
1281.770, 365.875
1282.981, 301.258
1284.191, 310.566
1285.401, 321.789
1286.610, 252.953
1287.820, 250.039
1289.029, 158.047
1290.239, 145.852
1291.448, 234.812
1292.656, 101.637
1293.865, 183.402
1295.073, 180.496
1296.282, 381.125
1297.490, 140.695
1298.698, 340.195
1299.906, 264.637
1301.113, 137.023
1302.320, 130.340
1303.528, 141.113
1304.735, 126.305
1305.942, 253.426
1307.148, 111.062
1308.355, 49.949
1309.561, 102.945
1310.767, 150.223
1311.973, 195.512
1313.179, 249.938
1314.384, 197.508
1315.590, 20.785
1316.795, 0.883
1318.000, 116.004
1319.205, 0.770
1320.410, 140.730
1321.614, 92.535
1322.819, 33.234
1324.023, 8.637
1325.227, 186.246
1326.431, 64.246
1327.634, 115.848
1328.838, 114.332
1330.041, 63.535
1331.244, 131.668
1332.447, 130.738
1333.650, 31.742
1334.852, 221.668
1336.055, 126.031
1337.257, 162.406
1338.459, 61.145
1339.661, 192.812
1340.862, 251.887
1342.064, 197.031
1343.265, 103.445
1344.466, 185.859
1345.667, 152.215
1346.868, 260.508
1348.068, 260.367
1349.269, 256.523
1350.469, 272.746
1351.669, 231.484
1352.869, 218.926
1354.069, 200.777
1355.268, 142.605
1356.468, 217.438
1357.667, 343.176
1358.866, 173.836
1360.065, 323.434
1361.263, 380.707
1362.462, 207.109
1363.660, 401.277
1364.858, 310.637
1366.056, 178.945
1367.254, 306.191
1368.451, 304.383
1369.649, 246.520
1370.846, 301.332
1372.043, 349.906
1373.240, 446.879
1374.436, 595.809
1375.633, 144.695
1376.829, 367.164
1378.025, 225.586
1379.221, 507.375
1380.417, 374.641
1381.613, 535.516
1382.808, 446.520
1384.003, 406.965
1385.199, 596.562
1386.393, 387.988
1387.588, 593.113
1388.783, 439.613
1389.977, 461.656
1391.171, 415.855
1392.365, 540.082
1393.559, 544.766
1394.753, 502.594
1395.946, 523.934
1397.140, 424.961
1398.333, 542.344
1399.526, 405.691
1400.719, 473.922
1401.911, 493.547
1403.104, 494.023
1404.296, 412.227
1405.488, 581.676
1406.680, 566.684
1407.872, 717.367
1409.063, 573.672
1410.255, 580.480
1411.446, 538.879
1412.637, 628.566
1413.828, 571.066
1415.018, 571.176
1416.209, 801.320
1417.399, 819.781
1418.589, 585.223
1419.779, 684.477
1420.969, 608.867
1422.159, 547.383
1423.348, 560.375
1424.537, 395.504
1425.726, 416.141
1426.915, 389.531
1428.104, 326.965
1429.293, 345.973
1430.481, 331.934
1431.669, 428.805
1432.857, 379.086
1434.045, 380.617
1435.233, 297.648
1436.420, 261.586
1437.608, 144.828
1438.795, 303.379
1439.982, 357.086
1441.169, 289.863
1442.355, 401.406
1443.542, 347.840
1444.728, 287.102
1445.914, 397.012
1447.100, 543.562
1448.286, 311.242
1449.472, 128.629
1450.657, 539.562
1451.842, 328.492
1453.027, 237.375
1454.212, 399.797
1455.397, 298.109
1456.581, 329.129
1457.766, 397.844
1458.950, 343.285
1460.134, 382.406
1461.318, 229.027
1462.501, 276.441
1463.685, 317.348
1464.868, 479.078
1466.051, 540.477
1467.234, 154.504
1468.417, 228.223
1469.600, 291.332
1470.782, 161.973
1471.965, 237.930
1473.147, 306.328
1474.329, 229.312
1475.510, 150.445
1476.692, 11.355
1477.873, 27.883
1479.055, 17.090
1480.236, 128.926
1481.416, 200.094
1482.597, 377.227
1483.778, 253.355
1484.958, 192.434
1486.138, 334.059
1487.318, 529.047
1488.498, 162.980
1489.678, 1.105
1490.857, 165.832
1492.037, 103.852
1493.216, 215.027
1494.395, 117.332
1495.574, 282.047
1496.752, 138.969
1497.931, 227.016
1499.109, 140.879
1500.287, 180.332
1501.465, 188.723
1502.643, 21.098
1503.820, 97.516
1504.998, 68.008
1506.175, 126.918
1507.352, 128.461
1508.529, 122.266
1509.706, 90.945
1510.882, 114.520
1512.059, 102.461
1513.235, 7.941
1514.411, 91.164
1515.587, 144.559
1516.762, 94.688
1517.938, 209.355
1519.113, 12.164
1520.288, 0.000
##END=



