##NAMES=Pyrite
##RRUFFID=R050190
##IDEAL CHEMISTRY=Fe^2+^(S_2_)^2-^
##LOCALITY=Huanzala mine, Huallanca District, Dos de Mayo Province, Huanuco Department, Peru
##OWNER=RRUFF
##SOURCE=Dave Bunk Minerals
##DESCRIPTION=Brass yellow modified cubes with typical pyrite striations
##STATUS=The identification of this mineral has been confirmed by X-ray diffraction and chemical analysis
##URL=rruff.info/R050190
##MEASURED CHEMISTRY=Fe_1.00_S_2.00_
##PIN_ID=L00393
##ORIENTATION=Laser parallel to b* (0 1 0). Fiducial mark perpendicular to laser is parallel to [1 0 1]
176.594, 0.000
177.974, 169.512
179.354, 310.281
180.734, 128.602
182.114, 6.914
183.493, 407.828
184.872, 322.504
186.251, 467.613
187.630, 383.852
189.008, 147.830
190.387, 358.416
191.765, 361.648
193.143, 519.908
194.520, 437.570
195.898, 652.854
197.275, 742.945
198.652, 946.234
200.029, 1067.447
201.405, 1031.672
202.782, 986.217
204.158, 1097.605
205.534, 1105.598
206.909, 1150.234
208.285, 1012.771
209.660, 763.322
211.035, 442.760
212.410, 319.461
213.784, 124.900
215.159, 266.088
216.533, 361.234
217.907, 396.764
219.281, 335.584
220.654, 360.047
222.027, 345.365
223.400, 316.443
224.773, 319.754
226.146, 400.256
227.518, 336.547
228.891, 351.512
230.263, 151.158
231.634, 329.086
233.006, 400.744
234.377, 287.201
235.748, 376.365
237.119, 398.035
238.490, 468.381
239.860, 491.578
241.231, 410.525
242.601, 477.822
243.970, 429.219
245.340, 333.584
246.709, 402.279
248.079, 301.916
249.448, 363.146
250.816, 592.055
252.185, 366.408
253.553, 422.799
254.921, 180.332
256.289, 128.783
257.657, 283.158
259.024, 295.600
260.391, 213.457
261.758, 119.672
263.125, 154.650
264.492, 115.031
265.858, 177.105
267.224, 229.396
268.590, 232.451
269.956, 5.506
271.321, 72.225
272.687, 34.033
274.052, 203.094
275.416, 27.812
276.781, 13.275
278.146, 5.619
279.510, 50.477
280.874, 71.291
282.237, 27.701
283.601, 7.957
284.964, 78.756
286.327, 90.346
287.690, 132.076
289.053, 26.961
290.416, 101.012
291.778, 38.160
293.140, 228.521
294.502, 28.049
295.863, 11.508
297.225, 48.742
298.586, 72.834
299.947, 126.740
301.308, 124.484
302.668, 257.053
304.029, 291.465
305.389, 109.709
306.749, 142.754
308.108, 11.453
309.468, 5.941
310.827, 145.256
312.186, 207.426
313.545, 79.900
314.903, 97.156
316.262, 219.885
317.620, 213.395
318.978, 204.676
320.336, 389.846
321.693, 238.166
323.051, 357.525
324.408, 345.559
325.765, 532.887
327.121, 368.768
328.478, 680.463
329.834, 816.900
331.190, 1036.729
332.546, 1591.436
333.902, 2409.898
335.257, 3609.979
336.612, 5481.141
337.967, 7422.758
339.322, 9736.488
340.677, 12357.832
342.031, 14880.387
343.385, 16601.484
344.739, 17082.549
346.093, 16574.982
347.446, 15670.980
348.799, 14186.270
350.153, 12301.029
351.505, 10261.668
352.858, 8320.980
354.210, 6810.109
355.563, 5438.326
356.915, 4574.346
358.267, 3740.361
359.618, 3158.951
360.969, 2758.996
362.321, 2692.186
363.672, 2502.629
365.022, 2596.711
366.373, 2770.367
367.723, 3057.842
369.073, 3950.971
370.423, 5413.680
371.773, 7781.773
373.122, 10905.539
374.471, 14887.242
375.821, 18588.229
377.169, 23258.141
378.518, 26051.797
379.866, 28249.875
381.215, 27475.260
382.563, 25143.389
383.910, 22331.445
385.258, 18629.684
386.605, 15399.428
387.952, 12196.328
389.299, 9547.367
390.646, 7513.730
391.992, 5830.883
393.339, 5188.277
394.685, 3784.301
396.031, 3253.340
397.376, 2364.025
398.722, 1937.287
400.067, 1705.512
401.412, 1687.885
402.757, 1355.355
404.101, 1277.182
405.446, 992.242
406.790, 1112.949
408.134, 1042.918
409.478, 694.309
410.821, 824.859
412.165, 846.873
413.508, 640.867
414.851, 758.850
416.193, 731.078
417.536, 667.363
418.878, 637.984
420.220, 653.816
421.562, 658.146
422.904, 979.051
424.245, 1133.533
425.586, 1206.465
426.927, 1378.121
428.268, 1448.443
429.609, 1463.098
430.949, 1474.168
432.289, 1303.111
433.629, 1257.102
434.969, 1173.500
436.309, 968.410
437.648, 810.840
438.987, 875.363
440.326, 886.184
441.665, 847.582
443.003, 604.234
444.342, 624.334
445.680, 536.787
447.018, 440.588
448.355, 491.756
449.693, 366.512
451.030, 537.822
452.367, 370.244
453.704, 137.744
455.041, 205.029
456.377, 245.598
457.713, 242.547
459.049, 287.406
460.385, 248.676
461.721, 207.889
463.056, 219.828
464.391, 160.945
465.726, 183.312
467.061, 148.283
468.395, 49.736
469.730, 87.740
471.064, 50.939
472.398, 3.379
473.731, 15.639
475.065, 74.139
476.398, 21.564
477.731, 51.973
479.064, 3.641
480.397, 99.043
481.729, 22.566
483.062, 86.068
484.394, 229.545
485.725, 156.076
487.057, 255.434
488.389, 157.580
489.720, 195.984
491.051, 279.549
492.382, 203.141
493.712, 228.838
495.043, 196.102
496.373, 125.934
497.703, 146.393
499.032, 129.727
500.362, 243.193
501.691, 249.383
503.020, 168.475
504.349, 332.469
505.678, 79.369
507.007, 167.180
508.335, 246.996
509.663, 279.932
510.991, 215.264
512.319, 162.689
513.646, 151.096
514.973, 276.328
516.300, 229.867
517.627, 130.389
518.954, 369.582
520.280, 162.531
521.607, 276.986
522.933, 432.318
524.259, 355.107
525.584, 454.146
526.910, 297.215
528.235, 280.188
529.560, 288.695
530.885, 404.354
532.209, 658.686
533.534, 247.238
534.858, 201.766
536.182, 127.309
537.506, 320.270
538.829, 218.352
540.152, 385.346
541.476, 275.105
542.799, 231.029
544.121, 399.805
545.444, 435.215
546.766, 230.553
548.088, 453.961
549.410, 361.652
550.732, 387.309
552.053, 286.947
553.375, 451.533
554.696, 299.406
556.017, 486.098
557.337, 507.588
558.658, 495.045
559.978, 565.641
561.298, 408.086
562.618, 327.148
563.938, 536.486
565.257, 492.906
566.576, 360.188
567.895, 433.447
569.214, 472.777
570.533, 578.129
571.851, 434.326
573.170, 420.309
574.488, 398.447
575.805, 396.561
577.123, 348.662
578.440, 155.725
579.758, 306.783
581.075, 225.828
582.391, 370.850
583.708, 305.861
585.024, 336.855
586.341, 187.834
587.657, 322.789
588.972, 177.727
590.288, 343.645
591.603, 182.561
592.918, 281.463
594.233, 345.357
595.548, 394.303
596.863, 114.238
598.177, 283.172
599.491, 133.102
600.805, 159.016
602.119, 238.914
603.432, 221.805
604.746, 186.664
606.059, 111.182
607.372, 107.447
608.685, 97.791
609.997, 97.277
611.309, 121.670
612.621, 186.127
613.933, 200.857
615.245, 337.766
616.557, 233.678
617.868, 308.785
619.179, 172.639
620.490, 247.418
621.801, 357.242
623.111, 256.811
624.421, 254.465
625.731, 61.973
627.041, 194.055
628.351, 150.314
629.660, 136.434
630.970, 249.176
632.279, 139.020
633.588, 209.447
634.896, 253.139
636.205, 296.246
637.513, 252.006
638.821, 231.160
640.129, 219.562
641.437, 121.783
642.744, 87.598
644.051, 67.090
645.358, 181.982
646.665, 210.453
647.972, 200.072
649.278, 162.025
650.584, 125.645
651.890, 77.646
653.196, 72.838
654.502, 14.988
655.807, 218.232
657.113, 126.369
658.418, 227.965
659.722, 279.572
661.027, 180.826
662.331, 217.896
663.636, 163.965
664.940, 130.828
666.244, 78.363
667.547, 10.023
668.851, 13.607
670.154, 3.506
671.457, 13.449
672.760, 60.088
674.062, 42.434
675.365, 69.662
676.667, 176.156
677.969, 42.885
679.271, 24.500
680.572, 116.215
681.874, 37.881
683.175, 5.445
684.476, 5.053
685.777, 2.244
687.077, 57.561
688.378, 125.131
689.678, 49.688
690.978, 39.809
692.278, 92.264
693.577, 13.734
694.877, 35.422
696.176, 134.424
697.475, 143.494
698.774, 147.555
700.072, 7.324
701.371, 42.445
702.669, 42.260
703.967, 44.600
705.265, 130.498
706.562, 130.582
707.860, 86.654
709.157, 95.500
710.454, 22.549
711.751, 37.561
713.047, 143.434
714.344, 143.418
715.640, 38.389
716.936, 65.348
718.232, 65.703
719.527, 138.197
720.823, 42.094
722.118, 111.971
723.413, 75.037
724.708, 39.896
726.002, 27.344
727.297, 153.900
728.591, 52.271
729.885, 111.516
731.179, 105.207
732.472, 98.455
733.766, 56.213
735.059, 327.838
736.352, 288.654
737.645, 107.109
738.937, 330.016
740.230, 137.732
741.522, 81.441
742.814, 325.748
744.106, 586.586
745.397, 91.168
746.689, 376.848
747.980, 167.145
749.271, 250.811
750.562, 131.471
751.853, 410.121
753.143, 230.143
754.433, 308.779
755.723, 184.887
757.013, 247.105
758.303, 193.662
759.592, 91.148
760.881, 185.492
762.170, 126.523
763.459, 255.543
764.748, 99.527
766.036, 204.516
767.325, 381.607
768.613, 138.980
769.901, 160.420
771.188, 219.000
772.476, 116.576
773.763, 3.848
775.050, 381.488
776.337, 254.055
777.624, 295.619
778.910, 200.182
780.196, 162.076
781.482, 173.664
782.768, 152.146
784.054, 92.455
785.339, 248.719
786.625, 371.295
787.910, 273.594
789.195, 157.180
790.479, 170.768
791.764, 226.361
793.048, 167.957
794.332, 163.559
795.616, 345.164
796.900, 300.582
798.183, 301.016
799.467, 364.775
800.750, 285.375
802.033, 286.990
803.316, 437.607
804.598, 274.154
805.880, 507.559
807.163, 291.363
808.445, 203.566
809.726, 257.109
811.008, 218.746
812.289, 166.213
813.570, 141.855
814.851, 143.500
816.132, 325.150
817.413, 288.803
818.693, 370.463
819.973, 347.963
821.253, 187.375
822.533, 265.250
823.813, 196.945
825.092, 191.582
826.371, 334.305
827.650, 9.648
828.929, 270.932
830.208, 218.469
831.486, 85.176
832.764, 91.305
834.042, 339.494
835.320, 172.158
836.598, 291.508
837.875, 188.766
839.152, 225.059
840.429, 153.760
841.706, 124.248
842.983, 103.010
844.259, 165.496
845.536, 268.961
846.812, 104.355
848.088, 257.287
849.363, 38.055
850.639, 154.135
851.914, 2.162
853.189, 154.605
854.464, 125.479
855.739, 219.682
857.013, 206.354
858.288, 105.055
859.562, 187.900
860.836, 42.779
862.110, 89.645
863.383, 195.562
864.656, 195.170
865.930, 175.936
867.203, 51.887
868.475, 205.852
869.748, 13.662
871.020, 206.607
872.292, 173.914
873.564, 1.932
874.836, 52.850
876.108, 46.107
877.379, 95.938
878.650, 16.100
879.922, 69.170
881.192, 80.898
882.463, 91.104
883.733, 39.797
885.004, 24.691
886.274, 117.424
887.544, 24.447
888.813, 73.301
890.083, 141.842
891.352, 49.000
892.621, 26.164
893.890, 40.344
895.159, 105.541
896.427, 10.242
897.695, 54.010
898.964, 151.227
900.232, 123.486
901.499, 224.768
902.767, 132.068
904.034, 163.393
905.301, 78.734
906.568, 171.096
907.835, 234.475
909.102, 260.873
910.368, 139.293
911.634, 302.730
912.900, 108.188
914.166, 187.662
915.432, 125.160
916.697, 24.678
917.962, 233.219
919.227, 336.779
920.492, 280.824
921.757, 241.969
923.021, 253.590
924.285, 161.232
925.550, 191.895
926.813, 304.668
928.077, 329.369
929.341, 176.090
930.604, 259.828
931.867, 361.590
933.130, 295.369
934.393, 374.170
935.655, 239.990
936.918, 278.271
938.180, 226.691
939.442, 267.572
940.703, 265.475
941.965, 225.398
943.226, 311.338
944.488, 74.299
945.749, 374.277
947.009, 453.275
948.270, 270.293
949.530, 309.332
950.791, 250.393
952.051, 245.475
953.311, 306.574
954.570, 395.695
955.830, 247.836
957.089, 356.994
958.348, 494.176
959.607, 319.402
960.866, 481.652
962.124, 534.930
963.383, 559.230
964.641, 364.551
965.899, 312.895
967.156, 210.262
968.414, 174.305
969.671, 337.047
970.928, 236.473
972.185, 315.922
973.442, 509.391
974.699, 466.887
975.955, 339.406
977.211, 247.953
978.468, 330.523
979.723, 287.098
980.979, 267.711
982.234, 465.363
983.490, 243.035
984.745, 221.746
986.000, 413.484
987.254, 363.246
988.509, 368.027
989.763, 224.828
991.017, 459.664
992.271, 364.000
993.525, 702.406
994.779, 368.312
996.032, 505.242
997.285, 524.191
998.538, 666.191
999.791, 550.219
1001.044, 339.277
1002.296, 310.645
1003.548, 379.695
1004.800, 419.855
1006.052, 593.043
1007.304, 548.289
1008.555, 588.316
1009.807, 552.328
1011.058, 566.590
1012.309, 488.934
1013.559, 456.738
1014.810, 520.145
1016.060, 676.609
1017.310, 426.168
1018.560, 657.129
1019.810, 642.844
1021.060, 847.941
1022.309, 708.766
1023.558, 760.660
1024.807, 522.723
1026.056, 537.730
1027.305, 601.574
1028.553, 794.656
1029.801, 672.684
1031.049, 626.816
1032.297, 775.008
1033.545, 800.246
1034.793, 769.590
1036.040, 748.395
1037.287, 761.695
1038.534, 737.547
1039.781, 734.820
1041.027, 734.070
1042.274, 713.828
1043.520, 713.855
1044.766, 697.277
1046.012, 653.051
1047.257, 665.465
1048.503, 750.953
1049.748, 847.117
1050.993, 841.434
1052.238, 734.500
1053.483, 714.348
1054.727, 690.895
1055.971, 830.465
1057.216, 757.039
1058.459, 759.062
1059.703, 768.938
1060.947, 716.559
1062.190, 913.293
1063.433, 605.945
1064.676, 529.926
1065.919, 482.598
1067.162, 712.555
1068.404, 569.391
1069.646, 768.754
1070.888, 737.473
1072.130, 783.199
1073.372, 793.438
1074.613, 812.184
1075.855, 792.230
1077.096, 718.035
1078.337, 835.809
1079.578, 829.859
1080.818, 746.230
1082.059, 933.109
1083.299, 844.898
1084.539, 847.695
1085.779, 821.285
1087.018, 645.574
1088.258, 696.574
1089.497, 641.703
1090.736, 642.840
1091.975, 619.664
1093.213, 667.488
1094.452, 585.223
1095.690, 462.145
1096.928, 503.051
1098.166, 609.379
1099.404, 713.395
1100.642, 510.305
1101.879, 510.164
1103.116, 480.000
1104.353, 489.273
1105.590, 674.117
1106.827, 583.820
1108.063, 682.449
1109.299, 489.922
1110.536, 543.102
1111.771, 408.484
1113.007, 511.680
1114.243, 627.227
1115.478, 391.699
1116.713, 443.555
1117.948, 450.520
1119.183, 401.473
1120.418, 441.738
1121.652, 530.238
1122.886, 440.113
1124.120, 417.125
1125.354, 381.934
1126.588, 273.750
1127.821, 406.555
1129.055, 449.355
1130.288, 333.164
1131.521, 268.094
1132.753, 178.105
1133.986, 372.410
1135.218, 235.473
1136.450, 271.391
1137.682, 174.133
1138.914, 137.242
1140.146, 185.391
1141.377, 95.199
1142.609, 205.969
1143.840, 155.301
1145.071, 232.641
1146.301, 199.461
1147.532, 224.316
1148.762, 154.508
1149.992, 105.680
1151.222, 144.746
1152.452, 84.031
1153.682, 139.242
1154.911, 0.414
1156.140, 14.641
1157.369, 147.617
1158.598, 120.645
1159.827, 101.203
1161.055, 108.859
1162.284, 104.648
1163.512, 197.910
1164.740, 95.406
1165.967, 1.418
1167.195, 150.152
1168.422, 20.219
1169.650, 221.148
1170.877, 190.809
1172.103, 87.957
1173.330, 123.289
1174.557, 270.008
1175.783, 214.414
1177.009, 101.098
1178.235, 274.914
1179.461, 183.020
1180.686, 263.742
1181.912, 282.270
1183.137, 324.656
1184.362, 401.953
1185.587, 389.785
1186.811, 285.750
1188.036, 309.973
1189.260, 388.426
1190.484, 172.613
1191.708, 298.371
1192.932, 119.047
1194.155, 179.281
1195.378, 130.633
1196.602, 49.129
1197.825, 21.461
1199.047, 86.289
1200.270, 6.500
1201.492, 356.082
1202.715, 222.055
1203.937, 368.199
1205.159, 125.316
1206.380, 165.723
1207.602, 389.266
1208.823, 213.762
1210.044, 429.941
1211.265, 167.309
1212.486, 349.789
1213.707, 182.625
1214.927, 217.336
1216.147, 97.625
1217.367, 278.645
1218.587, 314.270
1219.807, 142.348
1221.027, 430.617
1222.246, 198.395
1223.465, 259.129
1224.684, 379.242
1225.903, 209.895
1227.121, 136.719
1228.340, 258.285
1229.558, 335.871
1230.776, 410.359
1231.994, 235.523
1233.212, 278.426
1234.429, 248.711
1235.646, 219.465
1236.864, 221.766
1238.081, 304.039
1239.297, 302.285
1240.514, 399.508
1241.730, 323.699
1242.947, 290.867
1244.163, 194.059
1245.378, 270.164
1246.594, 299.238
1247.810, 314.391
1249.025, 393.398
1250.240, 219.562
1251.455, 502.738
1252.670, 207.652
1253.885, 296.734
1255.099, 182.641
1256.313, 254.461
1257.527, 208.238
1258.741, 254.984
1259.955, 172.699
1261.168, 193.363
1262.382, 340.984
1263.595, 317.562
1264.808, 114.109
1266.021, 248.613
1267.233, 194.074
1268.446, 345.480
1269.658, 314.836
1270.870, 470.129
1272.082, 364.824
1273.294, 398.801
1274.505, 399.434
1275.716, 365.441
1276.928, 337.973
1278.139, 317.535
1279.349, 246.828
1280.560, 304.027
1281.770, 336.195
1282.981, 480.254
1284.191, 289.250
1285.401, 278.176
1286.610, 76.023
1287.820, 151.793
1289.029, 230.496
1290.239, 226.133
1291.448, 255.754
1292.656, 192.238
1293.865, 256.680
1295.073, 258.059
1296.282, 288.367
1297.490, 232.613
1298.698, 248.789
1299.906, 156.902
1301.113, 85.926
1302.320, 151.906
1303.528, 119.355
1304.735, 286.281
1305.942, 7.922
1307.148, 144.441
1308.355, 79.902
1309.561, 131.352
1310.767, 221.910
1311.973, 116.926
1313.179, 156.734
1314.384, 54.027
1315.590, 70.988
1316.795, 63.102
1318.000, 34.449
1319.205, 56.773
1320.410, 4.246
1321.614, 8.996
1322.819, 4.590
1324.023, 17.793
1325.227, 26.008
1326.431, 62.469
1327.634, 67.066
1328.838, 131.145
1330.041, 137.051
1331.244, 103.898
1332.447, 130.672
1333.650, 110.078
1334.852, 129.305
1336.055, 46.547
1337.257, 177.066
1338.459, 63.191
1339.661, 89.488
1340.862, 277.496
1342.064, 186.098
1343.265, 138.500
1344.466, 216.227
1345.667, 355.008
1346.868, 253.047
1348.068, 201.055
1349.269, 205.668
1350.469, 162.426
1351.669, 76.641
1352.869, 142.391
1354.069, 174.984
1355.268, 147.625
1356.468, 298.898
1357.667, 205.441
1358.866, 225.660
1360.065, 139.094
1361.263, 163.840
1362.462, 215.188
1363.660, 335.492
1364.858, 127.133
1366.056, 414.227
1367.254, 384.977
1368.451, 284.926
1369.649, 396.859
1370.846, 331.602
1372.043, 476.840
1373.240, 365.652
1374.436, 541.402
1375.633, 206.609
1376.829, 259.043
1378.025, 299.949
1379.221, 372.348
1380.417, 392.859
1381.613, 508.625
1382.808, 499.250
1384.003, 597.180
1385.199, 745.652
1386.393, 402.691
1387.588, 373.574
1388.783, 491.094
1389.977, 565.410
1391.171, 363.438
1392.365, 446.828
1393.559, 346.469
1394.753, 335.164
1395.946, 541.766
1397.140, 345.570
1398.333, 380.301
1399.526, 410.785
1400.719, 536.477
1401.911, 603.445
1403.104, 517.461
1404.296, 506.785
1405.488, 490.980
1406.680, 568.703
1407.872, 566.145
1409.063, 665.988
1410.255, 611.383
1411.446, 498.121
1412.637, 549.488
1413.828, 602.445
1415.018, 264.281
1416.209, 792.090
1417.399, 269.660
1418.589, 476.211
1419.779, 518.645
1420.969, 230.711
1422.159, 277.328
1423.348, 291.285
1424.537, 234.824
1425.726, 461.031
1426.915, 254.152
1428.104, 341.188
1429.293, 270.590
1430.481, 454.836
1431.669, 257.949
1432.857, 328.859
1434.045, 394.801
1435.233, 558.191
1436.420, 372.309
1437.608, 239.105
1438.795, 361.879
1439.982, 365.746
1441.169, 367.770
1442.355, 690.223
1443.542, 314.574
1444.728, 252.688
1445.914, 471.062
1447.100, 333.621
1448.286, 555.754
1449.472, 175.520
1450.657, 434.648
1451.842, 657.574
1453.027, 527.230
1454.212, 328.492
1455.397, 412.602
1456.581, 438.180
1457.766, 367.758
1458.950, 421.504
1460.134, 443.434
1461.318, 396.750
1462.501, 506.941
1463.685, 421.836
1464.868, 374.387
1466.051, 305.613
1467.234, 468.609
1468.417, 345.719
1469.600, 632.840
1470.782, 507.695
1471.965, 199.559
1473.147, 385.430
1474.329, 257.461
1475.510, 224.629
1476.692, 361.812
1477.873, 337.941
1479.055, 223.164
1480.236, 402.410
1481.416, 689.723
1482.597, 464.055
1483.778, 271.266
1484.958, 289.203
1486.138, 64.359
1487.318, 191.457
1488.498, 219.555
1489.678, 77.734
1490.857, 42.980
1492.037, 264.473
1493.216, 146.164
1494.395, 118.207
1495.574, 203.539
1496.752, 137.027
1497.931, 201.648
1499.109, 175.402
1500.287, 130.312
1501.465, 42.383
1502.643, 128.680
1503.820, 106.211
1504.998, 155.719
1506.175, 65.902
1507.352, 218.793
1508.529, 175.504
1509.706, 119.871
1510.882, 177.531
1512.059, 13.121
1513.235, 171.672
1514.411, 17.254
1515.587, 50.387
1516.762, 1.324
1517.938, 48.262
1519.113, 0.000
##END=



