##NAMES=Pyrope
##RRUFFID=R050113
##IDEAL CHEMISTRY=Mg_3_Al_2_(SiO_4_)_3_
##LOCALITY=Warsik, Pakistan
##OWNER=RRUFF
##SOURCE=Farooq and Nazia Sawal
##DESCRIPTION=Reddish-purple fragment
##STATUS=The identification of this mineral has been confirmed by X-ray diffraction and chemical analysis
##URL=rruff.info/R050113
##MEASURED CHEMISTRY=(Mg_1.83_Fe^2+^_1.12_Ca_0.03_Mn_0.02_)_Σ=3_(Al_1.82_Fe^3+^_0.18_)_Σ=2_((Si_0.99_Al_0.01_)_Σ=1_O_4_)_3_
##PIN_ID=L00210
##ORIENTATION=Laser parallel to -a* (-1 0 0). Fiducial mark perpendicular to laser is parallel to b [0 1 0]
100.418, 0.000
101.812, 1.048
103.206, 19.722
104.600, 36.604
105.994, 47.189
107.387, 31.038
108.781, 50.417
110.174, 55.348
111.566, 61.896
112.959, 90.155
114.351, 79.684
115.744, 101.488
117.136, 104.603
118.527, 112.438
119.919, 102.680
121.310, 99.883
122.701, 91.076
124.092, 113.839
125.482, 89.652
126.873, 160.192
128.263, 90.991
129.653, 150.456
131.042, 159.312
132.432, 176.057
133.821, 180.008
135.210, 193.695
136.599, 162.252
137.987, 197.093
139.376, 203.019
140.764, 155.104
142.152, 187.663
143.539, 176.197
144.927, 125.810
146.314, 193.225
147.701, 255.808
149.088, 231.322
150.474, 344.496
151.861, 369.703
153.247, 475.496
154.633, 516.633
156.018, 559.249
157.404, 665.671
158.789, 976.547
160.174, 1381.825
161.559, 1912.129
162.943, 2451.445
164.327, 2461.016
165.711, 2194.168
167.095, 1617.667
168.479, 1123.208
169.862, 728.072
171.246, 563.068
172.628, 397.179
174.011, 331.536
175.394, 316.485
176.776, 203.022
178.158, 203.239
179.540, 169.747
180.922, 101.656
182.303, 73.436
183.684, 41.426
185.065, 0.153
186.446, 57.247
187.826, 15.875
189.207, 3.003
190.587, 84.582
191.967, 0.641
193.346, 62.332
194.726, 35.083
196.105, 25.771
197.484, 1.409
198.862, 58.012
200.241, 45.588
201.619, 2.146
202.997, 9.697
204.375, 21.746
205.753, 82.164
207.130, 86.534
208.507, 105.847
209.884, 211.106
211.261, 267.320
212.638, 327.494
214.014, 378.627
215.390, 396.720
216.766, 415.882
218.141, 368.774
219.517, 389.733
220.892, 358.633
222.267, 287.462
223.642, 316.208
225.016, 211.849
226.391, 179.358
227.765, 205.722
229.139, 172.890
230.512, 216.874
231.886, 234.705
233.259, 173.367
234.632, 183.899
236.005, 180.343
237.377, 167.730
238.749, 147.079
240.122, 157.406
241.493, 126.716
242.865, 145.010
244.237, 163.285
245.608, 162.954
246.979, 172.665
248.350, 183.954
249.720, 162.124
251.090, 156.265
252.461, 120.380
253.830, 109.612
255.200, 105.101
256.570, 133.832
257.939, 100.838
259.308, 134.009
260.677, 117.316
262.045, 106.676
263.414, 136.049
264.782, 76.610
266.150, 152.848
267.517, 90.461
268.885, 169.138
270.252, 137.445
271.619, 170.746
272.986, 156.606
274.353, 191.188
275.719, 248.426
277.085, 239.438
278.451, 272.366
279.817, 286.994
281.182, 304.340
282.548, 330.333
283.913, 356.295
285.278, 395.677
286.642, 434.841
288.007, 457.499
289.371, 524.183
290.735, 546.432
292.099, 583.741
293.462, 681.587
294.826, 704.423
296.189, 812.068
297.552, 876.602
298.914, 945.958
300.277, 1058.273
301.639, 1036.212
303.001, 1047.143
304.363, 1020.824
305.724, 1091.092
307.086, 1146.219
308.447, 1240.032
309.808, 1384.792
311.168, 1600.527
312.529, 2041.168
313.889, 2366.906
315.249, 2820.960
316.609, 3320.828
317.969, 3816.354
319.328, 4426.970
320.687, 4974.617
322.046, 5186.320
323.405, 5051.047
324.764, 4798.801
326.122, 4429.369
327.480, 4065.950
328.838, 3761.395
330.196, 3704.798
331.553, 3641.165
332.910, 3818.495
334.267, 4299.786
335.624, 4771.037
336.981, 5776.811
338.337, 6977.286
339.693, 8749.681
341.049, 10381.371
342.405, 12333.045
343.760, 13884.422
345.116, 14455.034
346.471, 13595.202
347.826, 12154.726
349.180, 9962.692
350.535, 8232.592
351.889, 6485.623
353.243, 5374.504
354.597, 4497.302
355.950, 4021.423
357.304, 3564.721
358.657, 3344.779
360.010, 3398.460
361.362, 3459.720
362.715, 3850.473
364.067, 4334.047
365.419, 4946.398
366.771, 6043.323
368.123, 6980.773
369.474, 8000.339
370.825, 8560.985
372.176, 8591.879
373.527, 7973.663
374.877, 6943.688
376.228, 5762.961
377.578, 4566.455
378.928, 3646.025
380.277, 2912.676
381.627, 2302.141
382.976, 1836.714
384.325, 1469.163
385.674, 1216.315
387.023, 1036.595
388.371, 864.431
389.719, 753.118
391.067, 653.938
392.415, 559.598
393.762, 434.479
395.110, 424.445
396.457, 361.152
397.804, 383.923
399.150, 303.683
400.497, 261.385
401.843, 243.924
403.189, 180.555
404.535, 187.938
405.881, 161.480
407.226, 138.042
408.571, 136.855
409.916, 96.581
411.261, 98.351
412.605, 60.028
413.950, 73.676
415.294, 33.052
416.638, 39.341
417.981, 19.594
419.325, 8.087
420.668, 22.301
422.011, 7.790
423.354, 3.498
424.697, 11.612
426.039, 4.124
427.381, 1.864
428.723, 20.354
430.065, 1.647
431.406, 27.808
432.748, 8.921
434.089, 11.438
435.430, 28.688
436.770, 50.036
438.111, 40.579
439.451, 6.039
440.791, 4.593
442.131, 26.164
443.471, 49.767
444.810, 4.439
446.149, 76.180
447.488, 96.963
448.827, 77.711
450.166, 55.426
451.504, 63.106
452.842, 54.755
454.180, 31.371
455.518, 52.957
456.855, 61.511
458.193, 62.037
459.530, 68.533
460.867, 55.000
462.203, 76.439
463.540, 73.852
464.876, 95.237
466.212, 96.597
467.548, 100.933
468.883, 94.247
470.219, 150.538
471.554, 209.812
472.889, 226.071
474.224, 239.313
475.558, 277.541
476.892, 223.753
478.227, 206.952
479.561, 164.134
480.894, 153.300
482.228, 123.449
483.561, 110.581
484.894, 95.695
486.227, 131.791
487.559, 118.870
488.892, 204.056
490.224, 212.366
491.556, 278.659
492.888, 355.956
494.220, 478.377
495.551, 614.563
496.882, 746.992
498.213, 800.229
499.544, 778.453
500.874, 731.688
502.205, 639.863
503.535, 542.111
504.865, 447.546
506.194, 381.883
507.524, 330.034
508.853, 247.330
510.182, 281.734
511.511, 257.246
512.840, 282.827
514.168, 242.127
515.496, 282.393
516.824, 254.890
518.152, 281.645
519.480, 342.238
520.807, 420.683
522.134, 377.432
523.461, 383.438
524.788, 392.271
526.114, 411.417
527.441, 405.871
528.767, 428.519
530.093, 462.161
531.418, 460.221
532.744, 527.469
534.069, 558.405
535.394, 582.080
536.719, 632.130
538.044, 693.853
539.368, 769.200
540.693, 876.616
542.017, 1059.479
543.340, 1221.766
544.664, 1470.614
545.987, 1788.724
547.311, 2260.985
548.634, 2717.050
549.956, 3219.495
551.279, 3780.025
552.601, 4213.498
553.923, 4203.803
555.245, 4008.498
556.567, 3490.964
557.889, 3204.850
559.210, 2453.906
560.531, 2031.771
561.852, 1663.484
563.173, 1306.221
564.493, 1117.926
565.813, 986.855
567.133, 884.513
568.453, 793.980
569.773, 701.548
571.092, 618.499
572.412, 580.534
573.731, 533.578
575.049, 546.447
576.368, 492.321
577.686, 475.149
579.005, 436.794
580.323, 468.488
581.640, 429.108
582.958, 489.698
584.275, 468.104
585.593, 480.875
586.909, 531.150
588.226, 542.763
589.543, 636.256
590.859, 764.876
592.175, 845.253
593.491, 820.779
594.807, 745.366
596.122, 608.028
597.438, 585.638
598.753, 459.090
600.068, 444.522
601.382, 377.031
602.697, 363.625
604.011, 338.326
605.325, 270.691
606.639, 306.439
607.952, 275.092
609.266, 263.637
610.579, 271.201
611.892, 292.715
613.205, 322.118
614.518, 271.597
615.830, 277.099
617.142, 317.588
618.454, 290.092
619.766, 295.525
621.078, 332.035
622.389, 354.521
623.700, 328.083
625.011, 351.638
626.322, 359.198
627.632, 451.718
628.943, 442.460
630.253, 412.197
631.563, 404.917
632.872, 369.620
634.182, 338.083
635.491, 305.978
636.800, 265.633
638.109, 242.271
639.418, 211.892
640.726, 162.408
642.035, 172.857
643.343, 161.232
644.651, 151.745
645.958, 106.193
647.266, 71.717
648.573, 71.223
649.880, 65.712
651.187, 31.182
652.494, 82.634
653.800, 20.068
655.106, 61.484
656.412, 60.881
657.718, 54.261
659.024, 65.625
660.329, 44.740
661.634, 11.299
662.939, 18.607
664.244, 0.896
665.549, 9.161
666.853, 11.404
668.157, 8.469
669.461, 9.337
670.765, 25.002
672.069, 51.844
673.372, 23.742
674.675, 27.679
675.978, 7.345
677.281, 38.653
678.583, 27.696
679.886, 15.778
681.188, 44.894
682.490, 50.058
683.792, 23.273
685.093, 58.525
686.394, 58.832
687.696, 2.193
688.997, 21.580
690.297, 49.002
691.598, 2.527
692.898, 51.965
694.198, 15.508
695.498, 26.082
696.798, 59.692
698.097, 99.355
699.397, 43.092
700.696, 20.873
701.995, 41.685
703.293, 4.459
704.592, 42.415
705.890, 17.330
707.188, 51.275
708.486, 19.266
709.784, 33.286
711.081, 24.342
712.378, 37.429
713.675, 12.829
714.972, 1.839
716.269, 17.133
717.565, 47.954
718.862, 15.763
720.158, 26.558
721.453, 2.659
722.749, 0.399
724.045, 17.860
725.340, 25.601
726.635, 15.331
727.930, 29.371
729.224, 35.762
730.519, 32.463
731.813, 33.157
733.107, 19.842
734.401, 55.519
735.694, 141.189
736.988, 378.853
738.281, 252.510
739.574, 265.162
740.867, 91.808
742.160, 87.448
743.452, 143.083
744.744, 135.712
746.036, 144.335
747.328, 152.952
748.620, 167.565
749.911, 196.830
751.202, 224.061
752.493, 262.371
753.784, 313.961
755.075, 342.547
756.365, 360.252
757.655, 405.705
758.945, 356.276
760.235, 365.844
761.525, 315.405
762.814, 243.962
764.103, 264.513
765.392, 216.060
766.681, 194.602
767.969, 186.140
769.258, 147.674
770.546, 154.204
771.834, 157.731
773.122, 137.253
774.409, 93.772
775.697, 160.287
776.984, 128.798
778.271, 130.306
779.558, 163.811
780.844, 117.311
782.131, 144.809
783.417, 184.303
784.703, 148.792
785.989, 170.278
787.274, 168.760
788.560, 137.237
789.845, 192.712
791.130, 214.182
792.415, 196.650
793.699, 244.115
794.983, 226.576
796.268, 263.034
797.552, 205.492
798.835, 200.951
800.119, 231.411
801.402, 236.746
802.686, 271.933
803.969, 326.171
805.251, 358.381
806.534, 392.450
807.816, 456.741
809.098, 455.779
810.380, 480.009
811.662, 492.251
812.944, 468.480
814.225, 425.771
815.506, 477.990
816.787, 414.021
818.068, 447.157
819.349, 395.675
820.629, 374.661
821.909, 348.740
823.189, 331.281
824.469, 321.619
825.749, 307.816
827.028, 293.076
828.307, 269.114
829.586, 322.938
830.865, 301.938
832.144, 340.116
833.422, 312.007
834.700, 369.667
835.978, 330.517
837.256, 360.074
838.534, 401.337
839.811, 413.413
841.088, 452.492
842.365, 500.148
843.642, 541.613
844.919, 618.382
846.195, 698.406
847.472, 656.042
848.748, 786.995
850.023, 846.312
851.299, 885.551
852.575, 1034.331
853.850, 1114.676
855.125, 1140.451
856.400, 1285.954
857.674, 1313.297
858.949, 1341.830
860.223, 1364.975
861.497, 1282.029
862.771, 1278.133
864.045, 1269.398
865.318, 1175.267
866.591, 1217.358
867.864, 1284.023
869.137, 1252.511
870.410, 1302.185
871.682, 1309.007
872.955, 1432.713
874.227, 1503.482
875.499, 1593.915
876.770, 1660.521
878.042, 1777.312
879.313, 1907.116
880.584, 2115.974
881.855, 2267.872
883.126, 2511.815
884.396, 2837.766
885.667, 3061.740
886.937, 3395.677
888.207, 3773.750
889.476, 4053.835
890.746, 4555.935
892.015, 4996.046
893.284, 5377.171
894.553, 6015.310
895.822, 6774.461
897.090, 7764.626
898.359, 8852.804
899.627, 10350.997
900.895, 12119.205
902.163, 14267.424
903.430, 17575.656
904.698, 20913.910
905.965, 25322.170
907.232, 30240.447
908.499, 35558.738
909.765, 40457.043
911.032, 43605.363
912.298, 44553.699
913.564, 43242.043
914.830, 39440.410
916.095, 34258.797
917.361, 29127.184
918.626, 24665.590
919.891, 20324.012
921.156, 17312.447
922.420, 14330.902
923.685, 12399.373
924.949, 10377.853
926.213, 8966.353
927.477, 7634.866
928.740, 6579.396
930.004, 5605.940
931.267, 4919.501
932.530, 4272.076
933.793, 3740.667
935.056, 3259.273
936.318, 2904.896
937.581, 2510.533
938.843, 2281.187
940.104, 2033.960
941.366, 1875.542
942.628, 1721.243
943.889, 1600.960
945.150, 1482.104
946.411, 1398.442
947.672, 1300.207
948.932, 1238.060
950.193, 1191.459
951.453, 1177.860
952.713, 1119.797
953.973, 1096.094
955.232, 1035.900
956.491, 1027.098
957.751, 1013.337
959.010, 959.941
960.268, 984.347
961.527, 1014.766
962.785, 1001.519
964.044, 1030.166
965.302, 1086.474
966.559, 1159.029
967.817, 1222.811
969.075, 1277.236
970.332, 1314.655
971.589, 1376.426
972.846, 1433.525
974.102, 1470.641
975.359, 1564.775
976.615, 1632.931
977.871, 1636.118
979.127, 1538.713
980.383, 1438.986
981.638, 1341.302
982.893, 1112.366
984.149, 1033.893
985.404, 859.465
986.658, 832.817
987.913, 792.374
989.167, 656.021
990.421, 625.635
991.675, 596.107
992.929, 525.612
994.183, 515.410
995.436, 487.053
996.689, 547.681
997.942, 481.274
999.195, 458.898
1000.448, 504.543
1001.700, 449.212
1002.952, 424.914
1004.204, 478.659
1005.456, 494.432
1006.708, 521.229
1007.959, 500.054
1009.210, 529.895
1010.461, 534.762
1011.712, 529.649
1012.963, 547.567
1014.213, 565.507
1015.464, 571.477
1016.714, 613.469
1017.964, 636.487
1019.214, 692.532
1020.463, 761.138
1021.712, 821.543
1022.962, 876.474
1024.210, 926.116
1025.459, 954.926
1026.708, 935.128
1027.956, 1048.282
1029.204, 1110.450
1030.452, 1165.636
1031.700, 1199.836
1032.948, 1318.048
1034.195, 1239.276
1035.442, 1277.516
1036.689, 1120.769
1037.936, 1082.033
1039.183, 925.311
1040.429, 908.600
1041.676, 786.908
1042.922, 659.239
1044.168, 561.584
1045.413, 499.942
1046.659, 495.311
1047.904, 388.690
1049.149, 371.086
1050.394, 307.495
1051.639, 277.378
1052.884, 295.349
1054.128, 254.791
1055.372, 230.252
1056.616, 251.723
1057.860, 193.203
1059.104, 168.693
1060.347, 184.202
1061.590, 135.722
1062.833, 153.253
1064.076, 118.794
1065.319, 117.346
1066.561, 125.906
1067.803, 107.083
1069.046, 109.365
1070.287, 98.665
1071.529, 92.273
1072.771, 97.049
1074.012, 75.514
1075.253, 91.146
1076.494, 81.786
1077.735, 84.434
1078.975, 44.089
1080.216, 100.753
1081.456, 39.423
1082.696, 55.102
1083.936, 61.787
1085.175, 35.480
1086.415, 45.179
1087.654, 96.885
1088.893, 47.598
1090.132, 30.316
1091.371, 77.041
1092.609, 59.770
1093.847, 60.059
1095.085, 36.250
1096.323, 43.000
1097.561, 2.246
1098.799, 16.487
1100.036, 15.730
1101.273, 2.975
1102.510, 56.215
1103.747, 71.476
1104.983, 47.765
1106.220, 8.071
1107.456, 15.378
1108.692, 30.689
1109.928, 65.010
1111.163, 53.359
1112.399, 50.730
1113.634, 44.121
1114.869, 47.531
1116.104, 32.960
1117.339, 51.404
1118.573, 15.870
1119.808, 11.343
1121.042, 102.179
1122.276, 191.703
1123.509, 211.229
1124.743, 99.757
1125.976, 5.287
1127.210, 3.182
1128.443, 81.654
1129.675, 4.831
1130.908, 60.684
1132.141, 35.232
1133.373, 17.799
1134.605, 19.622
1135.837, 48.957
1137.068, 16.563
1138.300, 15.183
1139.531, 30.185
1140.762, 19.552
1141.993, 2.919
1143.224, 55.281
1144.455, 6.641
1145.685, 68.998
1146.915, 31.352
1148.145, 36.704
1149.375, 38.054
1150.605, 121.402
1151.834, 93.909
1153.063, 117.529
1154.292, 154.208
1155.521, 154.693
1156.750, 136.110
1157.978, 152.466
1159.207, 137.836
1160.435, 128.386
1161.663, 147.052
1162.891, 169.912
1164.118, 126.434
1165.345, 169.136
1166.573, 136.405
1167.800, 214.915
1169.026, 161.835
1170.253, 221.333
1171.480, 112.905
1172.706, 152.829
1173.932, 198.280
1175.158, 200.598
1176.383, 230.248
1177.609, 239.745
1178.834, 198.634
1180.059, 226.006
1181.284, 231.563
1182.509, 174.976
1183.734, 211.449
1184.958, 163.961
1186.182, 175.795
1187.406, 174.244
1188.630, 161.541
1189.854, 173.625
1191.077, 183.797
1192.301, 194.499
1193.524, 149.069
1194.747, 172.408
1195.969, 211.107
1197.192, 203.027
1198.414, 145.010
1199.636, 115.355
1200.858, 163.723
1202.080, 148.069
1203.302, 170.464
1204.523, 159.722
1205.744, 144.794
1206.966, 154.456
1208.186, 134.067
1209.407, 145.835
1210.628, 167.337
1211.848, 144.788
1213.068, 138.898
1214.288, 126.119
1215.508, 96.962
1216.727, 166.230
1217.947, 116.958
1219.166, 154.080
1220.385, 131.127
1221.604, 118.314
1222.822, 130.428
1224.041, 137.548
1225.259, 145.734
1226.477, 153.905
1227.695, 173.985
1228.913, 165.171
1230.130, 154.135
1231.348, 152.266
1232.565, 169.188
1233.782, 149.497
1234.999, 149.354
1236.215, 159.249
1237.432, 148.137
1238.648, 163.009
1239.864, 182.772
1241.080, 176.448
1242.296, 175.301
1243.511, 187.063
1244.726, 218.947
1245.942, 213.916
1247.156, 234.674
1248.371, 208.366
1249.586, 254.450
1250.800, 217.486
1252.014, 213.851
1253.228, 221.124
1254.442, 239.065
1255.656, 237.181
1256.869, 253.403
1258.083, 212.449
1259.296, 249.406
1260.509, 213.779
1261.722, 264.774
1262.934, 224.647
1264.147, 198.359
1265.359, 240.952
1266.571, 252.752
1267.783, 208.336
1268.994, 215.948
1270.206, 225.400
1271.417, 214.849
1272.628, 196.462
1273.839, 198.467
1275.050, 186.274
1276.260, 180.681
1277.471, 179.166
1278.681, 180.348
1279.891, 173.503
1281.101, 163.381
1282.310, 153.097
1283.520, 131.074
1284.729, 131.120
1285.938, 123.385
1287.147, 123.635
1288.356, 135.604
1289.564, 122.723
1290.773, 125.470
1291.981, 142.837
1293.189, 113.985
1294.397, 100.114
1295.604, 84.175
1296.812, 41.135
1298.019, 28.074
1299.226, 23.994
1300.433, 45.000
1301.640, 60.888
1302.846, 74.751
1304.053, 70.738
1305.259, 33.563
1306.465, 24.372
1307.671, 6.762
1308.876, 35.997
1310.082, 21.738
1311.287, 13.516
1312.492, 36.174
1313.697, 8.156
1314.902, 36.489
1316.106, 29.117
1317.310, 10.722
1318.515, 40.304
1319.719, 0.866
1320.922, 22.405
1322.126, 7.078
1323.329, 25.412
1324.533, 49.878
1325.736, 3.678
1326.939, 39.736
1328.141, 32.127
1329.344, 28.495
1330.546, 10.841
1331.748, 32.164
1332.950, 16.536
1334.152, 29.265
1335.354, 0.971
1336.555, 14.184
1337.757, 20.376
1338.958, 38.546
1340.159, 8.305
1341.359, 4.833
1342.560, 2.934
1343.760, 33.068
1344.960, 30.126
1346.160, 19.836
1347.360, 26.175
1348.560, 38.165
1349.759, 75.136
1350.959, 25.910
1352.158, 11.014
1353.357, 4.919
1354.555, 14.804
1355.754, 16.670
1356.952, 48.525
1358.151, 4.643
1359.349, 14.832
1360.546, 25.037
1361.744, 2.807
1362.941, 36.559
1364.139, 45.298
1365.336, 27.022
1366.533, 32.831
1367.730, 30.331
1368.926, 23.761
1370.123, 27.345
1371.319, 27.056
1372.515, 20.689
1373.711, 41.151
1374.906, 22.384
1376.102, 44.032
1377.297, 10.651
1378.492, 55.245
1379.687, 43.813
1380.882, 43.347
1382.077, 44.855
1383.271, 68.347
1384.465, 2.173
1385.659, 42.341
1386.853, 61.851
1388.047, 32.373
1389.240, 65.928
1390.434, 26.509
1391.627, 16.114
1392.820, 41.726
1394.013, 61.320
1395.205, 65.564
1396.398, 79.818
1397.590, 74.034
1398.782, 81.654
1399.974, 55.280
1401.166, 31.930
1402.357, 68.586
1403.549, 52.229
1404.740, 85.860
1405.931, 62.478
1407.122, 79.081
1408.313, 91.096
1409.503, 89.019
1410.693, 64.418
1411.883, 55.580
1413.073, 87.505
1414.263, 85.130
1415.453, 39.521
1416.642, 84.306
1417.831, 43.303
1419.020, 28.823
1420.209, 68.250
1421.398, 62.767
1422.587, 58.688
1423.775, 34.993
1424.963, 98.755
1426.151, 102.019
1427.339, 69.559
1428.526, 55.509
1429.714, 49.581
1430.901, 45.597
1432.088, 65.165
1433.275, 49.759
1434.462, 56.195
1435.648, 36.503
1436.835, 35.406
1438.021, 44.478
1439.207, 78.953
1440.393, 82.533
1441.579, 57.104
1442.764, 31.537
1443.949, 54.662
1445.135, 64.647
1446.320, 20.890
1447.504, 104.692
1448.689, 106.307
1449.873, 34.750
1451.058, 78.563
1452.242, 81.957
1453.426, 44.115
1454.609, 55.196
1455.793, 89.247
1456.976, 57.609
1458.159, 107.969
1459.342, 93.385
1460.525, 97.122
1461.708, 109.541
1462.890, 101.998
1464.073, 97.689
1465.255, 130.170
1466.437, 96.360
1467.619, 73.663
1468.800, 106.415
1469.982, 96.584
1471.163, 75.584
1472.344, 87.322
1473.525, 111.535
1474.706, 99.953
1475.886, 38.424
1477.066, 67.529
1478.247, 88.236
1479.427, 60.235
1480.607, 119.779
1481.786, 33.149
1482.966, 28.051
1484.145, 37.604
1485.324, 17.352
1486.503, 45.226
1487.682, 76.061
1488.860, 30.898
1490.039, 63.725
1491.217, 39.557
1492.395, 103.437
1493.573, 86.401
1494.751, 43.438
1495.928, 59.539
1497.106, 40.720
1498.283, 26.960
1499.460, 59.273
1500.637, 36.527
1501.814, 9.456
1502.990, 61.969
1504.166, 71.589
1505.342, 57.337
1506.518, 65.220
1507.694, 12.143
1508.870, 39.333
1510.045, 43.006
1511.221, 1.620
1512.396, 23.576
1513.571, 69.109
1514.745, 15.634
1515.920, 0.000
##END=



