##NAMES=Pyromorphite
##RRUFFID=R050027
##IDEAL CHEMISTRY=Pb^2+^_5_(PO_4_)_3_Cl
##LOCALITY=Yangshuo, Guangxi Autonomous Region, China
##OWNER=RRUFF
##SOURCE=Eugene Schlepp
##DESCRIPTION=Light green hexagonal prismatic hoppered single crystals
##STATUS=The identification of this mineral has been confirmed by X-ray diffraction and chemical analysis
##URL=rruff.info/R050027
##MEASURED CHEMISTRY=Pb_5.00_(P_1.00_O_4_)_3_Cl_1.00_
##PIN_ID=L00481
##ORIENTATION=Laser parallel to -a* (-1 0 0). Fiducial mark perpendicular to laser is parallel to -c [0 0 -1]
46.637, 0.000
48.043, 36.082
49.450, 26.698
50.856, 30.430
52.261, 134.115
53.667, 323.969
55.072, 469.876
56.477, 506.491
57.882, 463.667
59.287, 587.081
60.691, 683.693
62.095, 873.608
63.499, 1019.229
64.903, 980.755
66.306, 760.016
67.709, 550.141
69.112, 464.055
70.515, 363.686
71.917, 280.969
73.319, 198.836
74.721, 95.229
76.123, 41.094
77.525, 33.615
78.926, 90.931
80.327, 90.853
81.728, 46.322
83.128, 86.684
84.529, 382.124
85.929, 808.944
87.329, 1534.097
88.728, 2361.540
90.128, 3113.248
91.527, 3377.200
92.926, 3322.376
94.324, 3338.750
95.723, 3215.301
97.121, 3257.000
98.519, 3566.814
99.917, 4282.733
101.314, 6022.747
102.712, 8979.845
104.109, 12082.029
105.505, 15144.286
106.902, 15996.614
108.298, 16069.015
109.694, 15401.520
111.090, 13974.161
112.486, 10517.138
113.881, 9110.705
115.277, 7974.991
116.672, 7209.832
118.066, 6584.033
119.461, 6370.310
120.855, 6078.554
122.249, 5932.734
123.643, 5783.835
125.036, 5850.864
126.430, 5817.816
127.823, 5708.702
129.216, 6016.517
130.608, 6076.288
132.001, 6200.119
133.393, 6322.999
134.785, 6637.910
136.176, 6843.832
137.568, 7054.751
138.959, 7549.642
140.350, 7954.477
141.741, 8049.261
143.131, 8343.993
144.521, 8578.646
145.911, 8803.167
147.301, 8797.409
148.691, 8951.461
150.080, 8725.486
151.469, 8739.503
152.858, 8663.509
154.247, 8527.504
155.635, 8441.491
157.024, 8355.471
158.411, 8109.445
159.799, 8073.411
161.187, 7927.373
162.574, 7781.328
163.961, 7935.280
165.348, 7812.686
166.734, 8053.167
168.121, 7787.133
169.507, 7951.439
170.893, 7936.432
172.278, 8181.634
173.664, 8417.308
175.049, 8573.854
176.434, 8853.132
177.819, 9227.772
179.203, 9612.647
180.587, 10073.664
181.971, 10674.257
183.355, 11274.354
184.739, 11710.317
186.122, 12157.883
187.505, 12530.346
188.888, 12571.508
190.271, 12468.131
191.653, 12097.682
193.035, 11656.640
194.417, 10790.593
195.799, 9924.398
197.180, 8947.393
198.562, 8090.501
199.943, 7403.560
201.324, 6650.963
202.704, 6109.789
204.084, 5652.699
205.465, 5299.728
206.844, 4925.835
208.224, 4707.949
209.603, 4395.720
210.983, 4205.489
212.362, 3981.480
213.740, 3836.853
215.119, 3626.800
216.497, 3455.609
217.875, 3353.216
219.253, 3229.580
220.631, 3147.706
222.008, 3013.503
223.385, 2908.567
224.762, 2804.956
226.139, 2685.217
227.515, 2601.957
228.891, 2499.197
230.267, 2417.614
231.643, 2221.756
233.018, 2135.950
234.394, 2076.191
235.769, 2034.475
237.144, 1885.533
238.518, 1825.323
239.893, 1846.720
241.267, 1638.186
242.641, 1639.827
244.014, 1584.993
245.388, 1483.823
246.761, 1407.906
248.134, 1419.015
249.507, 1308.048
250.879, 1251.630
252.252, 1244.226
253.624, 1142.834
254.996, 1111.454
256.367, 1147.083
257.739, 1071.721
259.110, 941.366
260.481, 954.018
261.852, 882.674
263.222, 821.336
264.592, 808.001
265.962, 788.670
267.332, 765.342
268.702, 718.555
270.071, 662.693
271.440, 593.371
272.809, 589.049
274.178, 492.728
275.546, 540.407
276.915, 480.086
278.283, 461.762
279.650, 388.433
281.018, 368.095
282.385, 335.746
283.752, 319.385
285.119, 318.010
286.486, 268.621
287.852, 240.220
289.218, 258.805
290.584, 178.377
291.950, 165.936
293.316, 131.480
294.681, 131.011
296.046, 122.528
297.411, 99.030
298.775, 60.517
300.140, 36.987
301.504, 6.442
302.868, 21.123
304.231, 13.711
305.595, 58.322
306.958, 45.965
308.321, 52.639
309.684, 57.344
311.047, 115.082
312.409, 76.866
313.771, 94.605
315.133, 96.465
316.495, 72.209
317.856, 116.846
319.217, 78.483
320.578, 60.223
321.939, 85.899
323.299, 77.722
324.660, 36.402
326.020, 62.120
327.380, 70.883
328.739, 11.785
330.099, 14.327
331.458, 10.625
332.817, 16.568
334.176, 27.551
335.534, 34.445
336.892, 39.532
338.251, 64.544
339.608, 103.499
340.966, 85.177
342.323, 107.936
343.681, 188.473
345.037, 175.049
346.394, 160.427
347.751, 173.764
349.107, 141.281
350.463, 198.540
351.819, 124.836
353.174, 132.860
354.530, 201.850
355.885, 176.863
357.240, 167.876
358.594, 186.015
359.949, 157.970
361.303, 163.027
362.657, 148.057
364.011, 147.992
365.365, 152.938
366.718, 134.885
368.071, 179.794
369.424, 181.744
370.777, 185.640
372.129, 170.530
373.481, 261.415
374.833, 269.298
376.185, 323.188
377.537, 463.053
378.888, 471.905
380.239, 565.734
381.590, 593.546
382.941, 780.343
384.291, 869.123
385.642, 1115.883
386.992, 1302.635
388.341, 1585.377
389.691, 1807.110
391.040, 2188.829
392.389, 2412.535
393.738, 2675.230
395.087, 2789.920
396.435, 3159.598
397.784, 3400.264
399.132, 4075.917
400.479, 5147.575
401.827, 6604.228
403.174, 8570.887
404.521, 10792.539
405.868, 13294.205
407.215, 15025.895
408.561, 15477.617
409.908, 14949.368
411.254, 13191.147
412.599, 10812.923
413.945, 8454.693
415.290, 6820.465
416.636, 5304.236
417.980, 4330.009
419.325, 3515.777
420.670, 2847.543
422.014, 2408.305
423.358, 2025.061
424.702, 1760.815
426.045, 1432.562
427.389, 1340.305
428.732, 1176.040
430.075, 1034.771
431.417, 893.497
432.760, 815.215
434.102, 764.918
435.444, 676.602
436.786, 606.276
438.127, 650.946
439.469, 598.607
440.810, 561.258
442.151, 510.891
443.492, 495.548
444.832, 454.147
446.172, 447.725
447.512, 434.770
448.852, 421.821
450.192, 420.333
451.531, 436.844
452.870, 422.062
454.209, 414.211
455.548, 454.194
456.887, 432.153
458.225, 445.097
459.563, 415.877
460.901, 437.611
462.238, 395.042
463.576, 339.196
464.913, 365.473
466.250, 313.841
467.587, 314.599
468.923, 262.109
470.259, 242.278
471.596, 235.028
472.931, 212.040
474.267, 154.714
475.603, 182.964
476.938, 125.362
478.273, 87.208
479.608, 69.149
480.942, 80.525
482.276, 54.155
483.611, 75.045
484.944, 27.335
486.278, 28.390
487.612, 27.596
488.945, 48.307
490.278, 39.842
491.611, 51.055
492.943, 11.550
494.276, 57.750
495.608, 73.984
496.940, 23.209
498.271, 37.094
499.603, 44.518
500.934, 102.886
502.265, 70.482
503.596, 109.554
504.927, 81.445
506.257, 108.527
507.587, 100.051
508.917, 40.871
510.247, 85.634
511.577, 64.843
512.906, 119.925
514.235, 124.299
515.564, 115.469
516.892, 114.260
518.221, 84.777
519.549, 136.912
520.877, 102.814
522.205, 107.904
523.533, 155.898
524.860, 124.628
526.187, 122.156
527.514, 146.858
528.841, 119.141
530.167, 140.009
531.493, 189.557
532.820, 233.389
534.145, 235.950
535.471, 180.107
536.796, 243.572
538.122, 228.518
539.447, 229.403
540.771, 248.324
542.096, 256.488
543.420, 297.900
544.744, 273.652
546.068, 404.558
547.392, 460.837
548.715, 595.867
550.039, 705.085
551.362, 897.622
552.684, 1124.019
554.007, 1079.072
555.329, 970.358
556.652, 865.171
557.973, 609.015
559.295, 494.883
560.617, 374.881
561.938, 307.410
563.259, 255.059
564.580, 238.632
565.901, 250.594
567.221, 224.088
568.541, 202.175
569.861, 248.037
571.181, 225.930
572.501, 274.543
573.820, 272.823
575.139, 262.328
576.458, 269.611
577.777, 263.009
579.095, 249.692
580.414, 255.085
581.732, 251.186
583.049, 242.953
584.367, 237.162
585.685, 218.945
587.002, 220.427
588.319, 212.093
589.636, 214.065
590.952, 232.531
592.268, 221.334
593.585, 221.459
594.900, 198.430
596.216, 201.839
597.532, 205.248
598.847, 259.125
600.162, 249.350
601.477, 194.438
602.792, 242.239
604.106, 205.951
605.420, 225.647
606.734, 229.469
608.048, 254.834
609.361, 242.196
610.675, 229.296
611.988, 211.417
613.301, 214.677
614.614, 208.904
615.926, 190.097
617.238, 225.258
618.550, 167.195
619.862, 198.291
621.174, 196.356
622.485, 117.391
623.797, 191.633
625.108, 146.617
626.418, 144.587
627.729, 118.538
629.039, 140.471
630.349, 160.390
631.659, 90.309
632.969, 157.136
634.279, 87.040
635.588, 97.780
636.897, 115.368
638.206, 101.909
639.515, 74.507
640.823, 92.994
642.131, 113.581
643.439, 71.978
644.747, 115.368
646.055, 95.756
647.362, 64.236
648.669, 69.656
649.976, 69.091
651.283, 66.335
652.589, 69.740
653.896, 75.181
655.202, 34.378
656.508, 62.593
657.814, 25.804
659.119, 17.216
660.424, 33.444
661.729, 18.794
663.034, 40.978
664.339, 23.235
665.643, 50.413
666.947, 44.306
668.251, 34.349
669.555, 27.266
670.859, 19.371
672.162, 32.448
673.465, 12.448
674.768, 1.606
676.071, 5.156
677.373, 30.049
678.676, 23.793
679.978, 23.518
681.280, 30.291
682.581, 37.006
683.883, 26.676
685.184, 15.338
686.485, 24.912
687.786, 8.494
689.087, 22.031
690.387, 1.470
691.687, 24.021
692.987, 36.366
694.287, 16.280
695.586, 19.017
696.886, 1.725
698.185, 6.514
699.484, 4.646
700.783, 16.763
702.081, 21.158
703.379, 12.135
704.677, 9.164
705.975, 2.759
707.273, 14.794
708.570, 16.623
709.868, 2.446
711.165, 16.213
712.462, 41.946
713.758, 27.650
715.055, 46.654
716.351, 2.044
717.647, 43.477
718.943, 36.029
720.238, 46.493
721.533, 6.078
722.829, 31.704
724.124, 5.617
725.418, 24.097
726.713, 25.858
728.007, 22.669
729.301, 50.526
730.595, 55.443
731.889, 53.259
733.182, 47.464
734.476, 39.561
735.769, 43.287
737.061, 40.104
738.354, 52.167
739.647, 37.477
740.939, 46.835
742.231, 36.245
743.523, 56.701
744.814, 47.212
746.106, 40.773
747.397, 14.380
748.688, 3.018
749.978, 37.681
751.269, 62.385
752.559, 48.144
753.849, 40.947
755.139, 12.790
756.429, 30.659
757.719, 5.600
759.008, 4.525
760.297, 5.471
761.586, 10.437
762.875, 77.426
764.163, 16.533
765.451, 42.525
766.739, 23.616
768.027, 13.268
769.315, 25.137
770.602, 27.991
771.890, 25.788
773.177, 26.387
774.463, 30.283
775.750, 19.072
777.036, 53.846
778.323, 10.718
779.609, 74.017
780.894, 33.556
782.180, 108.079
783.465, 36.486
784.750, 46.979
786.035, 115.548
787.320, 62.818
788.605, 96.362
789.889, 51.607
791.173, 86.892
792.457, 63.247
793.741, 73.635
795.024, 138.695
796.307, 97.945
797.591, 125.279
798.873, 139.410
800.156, 123.746
801.439, 98.999
802.721, 66.066
804.003, 85.180
805.285, 34.291
806.566, 72.381
807.848, 61.502
809.129, 24.664
810.410, 56.181
811.691, 79.253
812.971, 30.516
814.252, 101.448
815.532, 119.975
816.812, 213.996
818.092, 300.744
819.371, 329.967
820.651, 337.928
821.930, 265.787
823.209, 193.419
824.488, 119.848
825.766, 126.000
827.045, 146.626
828.323, 124.507
829.601, 100.606
830.878, 153.143
832.156, 95.778
833.433, 84.228
834.710, 109.693
835.987, 48.406
837.264, 42.323
838.540, 125.974
839.817, 88.215
841.093, 89.863
842.369, 71.830
843.644, 134.434
844.920, 71.875
846.195, 169.934
847.470, 165.051
848.745, 197.669
850.020, 256.332
851.294, 267.941
852.568, 257.463
853.842, 209.376
855.116, 182.106
856.390, 149.665
857.663, 64.836
858.936, 80.241
860.209, 17.558
861.482, 24.310
862.755, 34.303
864.027, 33.626
865.299, 44.703
866.571, 20.238
867.843, 0.271
869.115, 62.183
870.386, 18.494
871.657, 38.262
872.928, 30.897
874.199, 111.596
875.470, 48.894
876.740, 53.648
878.010, 170.798
879.280, 92.161
880.550, 98.481
881.820, 113.070
883.089, 171.982
884.358, 192.657
885.627, 190.545
886.896, 233.873
888.164, 255.220
889.433, 284.524
890.701, 335.554
891.969, 352.909
893.236, 422.285
894.504, 513.163
895.771, 533.793
897.038, 527.233
898.305, 672.361
899.572, 771.990
900.838, 841.281
902.105, 995.252
903.371, 1166.379
904.637, 1374.070
905.902, 1682.763
907.168, 2056.987
908.433, 2465.862
909.698, 3059.872
910.963, 3796.162
912.228, 4828.548
913.492, 6321.955
914.757, 8673.231
916.021, 11833.974
917.285, 16958.709
918.548, 21161.727
919.812, 23385.729
921.075, 21940.594
922.338, 19285.500
923.601, 16760.457
924.864, 14785.444
926.126, 13639.666
927.388, 13254.735
928.650, 13019.840
929.912, 13514.980
931.174, 14529.929
932.435, 15945.146
933.697, 18170.402
934.958, 20755.707
936.218, 24051.049
937.479, 28576.438
938.739, 33571.871
940.000, 39467.344
941.260, 46122.844
942.520, 52798.391
943.779, 58943.969
945.039, 61949.594
946.298, 61945.262
947.557, 61940.980
948.816, 55756.742
950.074, 50632.551
951.333, 43238.398
952.591, 36864.293
953.849, 31030.230
955.107, 25926.211
956.365, 21912.238
957.622, 18548.309
958.879, 15834.412
960.136, 13790.569
961.393, 11636.763
962.650, 10413.009
963.906, 9079.310
965.162, 8115.651
966.418, 7362.040
967.674, 6332.493
968.930, 5942.991
970.185, 5483.533
971.441, 4979.129
972.696, 4733.770
973.950, 4359.454
975.205, 4206.186
976.459, 3970.975
977.714, 3812.814
978.968, 3698.704
980.222, 3637.646
981.475, 3346.639
982.729, 3420.698
983.982, 3124.815
985.235, 3032.979
986.488, 2969.186
987.740, 2783.441
988.993, 2770.742
990.245, 2587.096
991.497, 2498.500
992.749, 2407.948
994.000, 2312.447
995.252, 2309.000
996.503, 2183.616
997.754, 2161.293
999.005, 2232.012
1000.256, 2232.788
1001.506, 2285.615
1002.756, 2378.489
1004.006, 2460.421
1005.256, 2633.404
1006.506, 2695.435
1007.755, 2983.523
1009.005, 3235.663
1010.254, 3496.856
1011.502, 3894.943
1012.751, 4292.230
1014.000, 4885.566
1015.248, 5465.949
1016.496, 6097.377
1017.744, 6777.852
1018.991, 7256.343
1020.239, 7804.916
1021.486, 8303.537
1022.733, 8542.216
1023.980, 8440.936
1025.227, 8319.716
1026.473, 7988.541
1027.719, 7587.417
1028.965, 7176.338
1030.211, 6565.310
1031.457, 6304.336
1032.702, 5733.414
1033.948, 5395.548
1035.193, 5027.818
1036.438, 4734.066
1037.682, 4445.371
1038.927, 4292.725
1040.171, 4091.135
1041.415, 3912.599
1042.659, 3827.022
1043.903, 3715.879
1045.146, 3587.499
1046.390, 3525.841
1047.633, 3313.565
1048.876, 3097.371
1050.118, 2943.221
1051.361, 2665.988
1052.603, 2557.697
1053.845, 2396.401
1055.087, 2261.303
1056.329, 2046.498
1057.571, 1973.467
1058.812, 1858.984
1060.053, 1772.161
1061.294, 1752.658
1062.535, 1669.102
1063.775, 1609.799
1065.016, 1503.248
1066.256, 1451.626
1067.496, 1452.628
1068.736, 1378.265
1069.975, 1353.902
1071.214, 1346.538
1072.454, 1411.364
1073.693, 1385.953
1074.931, 1396.184
1076.170, 1273.275
1077.408, 1189.705
1078.647, 1158.523
1079.885, 1246.815
1081.122, 1178.435
1082.360, 1210.436
1083.597, 1174.882
1084.835, 1106.595
1086.072, 1123.773
1087.308, 1079.496
1088.545, 1044.164
1089.781, 999.148
1091.018, 977.159
1092.254, 941.932
1093.490, 1038.250
1094.725, 896.831
1095.961, 917.626
1097.196, 920.010
1098.431, 824.828
1099.666, 870.724
1100.900, 725.681
1102.135, 691.562
1103.369, 733.523
1104.603, 665.275
1105.837, 588.338
1107.071, 471.668
1108.304, 481.143
1109.538, 457.520
1110.771, 396.697
1112.004, 362.919
1113.236, 281.354
1114.469, 270.202
1115.701, 332.392
1116.933, 248.914
1118.165, 235.717
1119.397, 236.562
1120.629, 199.850
1121.860, 197.382
1123.091, 190.734
1124.322, 187.678
1125.553, 182.628
1126.783, 200.233
1128.014, 184.643
1129.244, 209.703
1130.474, 153.224
1131.704, 193.430
1132.933, 251.604
1134.163, 230.336
1135.392, 297.822
1136.621, 283.554
1137.850, 362.169
1139.079, 321.011
1140.307, 302.921
1141.535, 459.374
1142.763, 431.494
1143.991, 534.700
1145.219, 609.646
1146.446, 571.533
1147.674, 674.207
1148.901, 715.427
1150.128, 802.350
1151.354, 766.760
1152.581, 719.133
1153.807, 714.670
1155.033, 598.982
1156.259, 513.970
1157.485, 439.756
1158.710, 465.275
1159.936, 388.445
1161.161, 366.608
1162.386, 318.725
1163.611, 273.166
1164.835, 213.132
1166.060, 135.337
1167.284, 158.354
1168.508, 194.750
1169.732, 105.710
1170.955, 143.825
1172.179, 109.010
1173.402, 116.965
1174.625, 33.179
1175.848, 65.180
1177.070, 23.307
1178.293, 12.924
1179.515, 25.133
1180.737, 3.341
1181.959, 5.721
1183.181, 10.270
1184.402, 3.392
1185.624, 40.364
1186.845, 12.469
1188.066, 14.799
1189.286, 77.207
1190.507, 14.165
1191.727, 54.801
1192.947, 25.323
1194.167, 5.885
1195.387, 33.076
1196.607, 32.238
1197.826, 50.292
1199.045, 47.407
1200.264, 45.468
1201.483, 47.401
1202.702, 31.020
1203.920, 24.323
1205.138, 11.518
1206.356, 33.145
1207.574, 49.840
1208.792, 47.195
1210.009, 9.960
1211.227, 43.917
1212.444, 8.090
1213.661, 67.224
1214.877, 42.101
1216.094, 0.305
1217.310, 55.836
1218.526, 57.155
1219.742, 35.595
1220.958, 27.013
1222.173, 22.819
1223.389, 9.177
1224.604, 5.105
1225.819, 3.656
1227.034, 8.378
1228.248, 13.962
1229.463, 20.089
1230.677, 22.710
1231.891, 28.608
1233.105, 3.434
1234.318, 1.109
1235.532, 41.123
1236.745, 37.139
1237.958, 25.127
1239.171, 1.784
1240.384, 8.764
1241.596, 26.705
1242.809, 18.741
1244.021, 8.208
1245.233, 8.369
1246.444, 7.844
1247.656, 12.003
1248.867, 5.272
1250.079, 18.547
1251.290, 13.217
1252.500, 39.864
1253.711, 8.400
1254.921, 42.259
1256.132, 1.227
1257.342, 16.681
1258.552, 87.993
1259.761, 62.410
1260.971, 50.802
1262.180, 51.533
1263.389, 39.859
1264.598, 3.571
1265.807, 28.654
1267.015, 55.951
1268.223, 17.200
1269.432, 6.670
1270.640, 18.479
1271.847, 6.736
1273.055, 35.405
1274.262, 49.541
1275.470, 21.203
1276.677, 15.278
1277.883, 50.673
1279.090, 97.896
1280.296, 42.766
1281.503, 36.590
1282.709, 16.351
1283.915, 36.075
1285.120, 77.985
1286.326, 51.649
1287.531, 10.333
1288.736, 7.073
1289.941, 39.482
1291.146, 97.256
1292.350, 50.747
1293.555, 35.222
1294.759, 99.851
1295.963, 32.235
1297.167, 68.581
1298.370, 30.892
1299.574, 75.396
1300.777, 102.720
1301.980, 56.970
1303.183, 69.131
1304.386, 90.257
1305.588, 47.347
1306.790, 97.400
1307.993, 77.421
1309.195, 56.409
1310.396, 94.361
1311.598, 117.280
1312.799, 84.166
1314.000, 134.019
1315.201, 106.840
1316.402, 101.629
1317.603, 159.386
1318.803, 101.111
1320.003, 130.800
1321.203, 110.459
1322.403, 79.074
1323.603, 104.654
1324.802, 115.201
1326.002, 124.708
1327.201, 136.418
1328.400, 114.540
1329.599, 140.943
1330.797, 117.314
1331.995, 98.651
1333.194, 134.955
1334.392, 119.320
1335.589, 130.267
1336.787, 151.467
1337.985, 101.964
1339.182, 117.081
1340.379, 170.133
1341.576, 123.158
1342.772, 128.276
1343.969, 144.459
1345.165, 117.661
1346.361, 184.688
1347.557, 156.437
1348.753, 116.427
1349.949, 146.875
1351.144, 93.675
1352.339, 138.160
1353.534, 71.704
1354.729, 82.001
1355.924, 80.552
1357.118, 108.196
1358.312, 67.220
1359.506, 84.624
1360.700, 128.038
1361.894, 86.460
1363.088, 74.698
1364.281, 117.181
1365.474, 47.030
1366.667, 75.033
1367.860, 39.707
1369.052, 147.007
1370.245, 112.845
1371.437, 66.374
1372.629, 109.543
1373.821, 53.345
1375.013, 129.858
1376.204, 94.925
1377.395, 73.485
1378.586, 81.935
1379.777, 140.052
1380.968, 92.582
1382.159, 122.498
1383.349, 99.002
1384.539, 84.354
1385.729, 94.850
1386.919, 92.773
1388.109, 63.152
1389.298, 126.759
1390.487, 93.283
1391.676, 146.053
1392.865, 76.512
1394.054, 118.894
1395.242, 99.572
1396.431, 69.918
1397.619, 78.646
1398.807, 153.002
1399.995, 79.315
1401.182, 51.055
1402.370, 89.259
1403.557, 34.963
1404.744, 80.505
1405.931, 75.520
1407.118, 0.844
1408.304, 113.437
1409.490, 50.915
1410.676, 56.415
1411.862, 86.549
1413.048, 58.577
1414.234, 35.572
1415.419, 9.670
1416.604, 39.734
1417.789, 25.383
1418.974, 67.527
1420.159, 50.676
1421.343, 17.985
1422.528, 53.826
1423.712, 57.001
1424.896, 79.993
1426.079, 74.924
1427.263, 24.239
1428.446, 73.272
1429.629, 46.551
1430.812, 79.417
1431.995, 56.294
1433.178, 16.113
1434.360, 90.925
1435.543, 49.291
1436.725, 16.103
1437.907, 115.404
1439.088, 47.891
1440.270, 64.097
1441.451, 14.257
1442.632, 21.861
1443.813, 27.073
1444.994, 81.703
1446.175, 63.393
1447.355, 125.819
1448.535, 124.733
1449.715, 33.863
1450.895, 120.149
1452.075, 114.173
1453.255, 69.223
1454.434, 113.908
1455.613, 89.113
1456.792, 119.207
1457.971, 76.256
1459.149, 91.484
1460.328, 192.257
1461.506, 165.735
1462.684, 84.151
1463.862, 170.328
1465.040, 156.301
1466.217, 159.599
1467.395, 185.711
1468.572, 127.842
1469.749, 121.919
1470.925, 91.938
1472.102, 104.036
1473.278, 147.525
1474.455, 38.469
1475.631, 110.531
1476.807, 88.702
1477.982, 47.897
1479.158, 133.883
1480.333, 138.345
1481.508, 69.703
1482.683, 55.605
1483.858, 88.526
1485.033, 15.431
1486.207, 87.320
1487.381, 93.205
1488.555, 76.069
1489.729, 174.913
1490.903, 88.759
1492.076, 73.709
1493.250, 139.683
1494.423, 73.739
1495.596, 59.843
1496.769, 164.980
1497.941, 44.150
1499.114, 145.410
1500.286, 123.021
1501.458, 48.741
1502.630, 127.571
1503.802, 49.541
1504.973, 42.691
1506.145, 58.055
1507.316, 57.671
1508.487, 60.604
1509.657, 65.327
1510.828, 27.674
1511.999, 54.980
1513.169, 33.011
1514.339, 1.989
1515.509, 65.378
1516.678, 61.451
1517.848, 0.000
##END=



