##NAMES=Pyrope
##RRUFFID=R050112
##IDEAL CHEMISTRY=Mg_3_Al_2_(SiO_4_)_3_
##LOCALITY=Cruzeiro mine, San Jose, Minas Gerais, Brazil
##OWNER=RRUFF
##SOURCE=Carlos and Paulo Vasconcelos
##DESCRIPTION=Dark red crystal fragment
##STATUS=The identification of this mineral has been confirmed by X-ray diffraction and chemical analysis
##URL=rruff.info/R050112
##MEASURED CHEMISTRY=(Mg_1.49_Fe^2+^_1.18_Ca_0.29_Mn_0.04_)_Σ=3_(Al_1.99_Fe^3+^_0.01_)_Σ=2_(Si_1.00_O_4_)_3_
##PIN_ID=L00493
##ORIENTATION=Laser parallel to -a* (-1 0 0). Fiducial mark perpendicular to laser is parallel to -b [0 -1 0]
79.474, 0.000
80.872, 11.634
82.270, 31.269
83.667, 1.464
85.064, 98.683
86.461, 89.960
87.858, 7.526
89.254, 28.580
90.650, 70.577
92.046, 114.308
93.442, 110.726
94.838, 82.415
96.233, 58.406
97.628, 156.008
99.023, 64.248
100.418, 79.650
101.812, 42.530
103.206, 31.824
104.600, 93.110
105.994, 17.775
107.387, 119.501
108.781, 177.593
110.174, 192.315
111.566, 49.554
112.959, 111.078
114.351, 89.969
115.744, 66.240
117.136, 155.456
118.527, 34.750
119.919, 156.927
121.310, 150.424
122.701, 162.945
124.092, 179.250
125.482, 148.954
126.873, 163.478
128.263, 123.267
129.653, 111.929
131.042, 162.475
132.432, 133.916
133.821, 122.714
135.210, 176.550
136.599, 153.084
137.987, 156.323
139.376, 218.491
140.764, 222.765
142.152, 177.791
143.539, 146.597
144.927, 163.645
146.314, 167.939
147.701, 142.253
149.088, 144.612
150.474, 132.904
151.861, 87.098
153.247, 154.993
154.633, 86.205
156.018, 86.870
157.404, 64.301
158.789, 35.117
160.174, 38.919
161.559, 4.296
162.943, 4.476
164.327, 0.504
165.711, 36.401
167.095, 13.201
168.479, 58.917
169.862, 22.554
171.246, 54.873
172.628, 106.355
174.011, 184.879
175.394, 331.431
176.776, 403.004
178.158, 434.611
179.540, 502.231
180.922, 499.866
182.303, 412.503
183.684, 365.141
185.065, 282.793
186.446, 236.444
187.826, 160.084
189.207, 125.705
190.587, 51.306
191.967, 56.883
193.346, 28.440
194.726, 18.969
196.105, 15.534
197.484, 47.929
198.862, 3.356
200.241, 18.257
201.619, 45.087
202.997, 24.380
204.375, 84.595
205.753, 48.722
207.130, 44.736
208.507, 2.656
209.884, 56.549
211.261, 42.430
212.638, 42.300
214.014, 39.160
215.390, 79.009
216.766, 51.844
218.141, 50.657
219.517, 60.438
220.892, 92.174
222.267, 60.868
223.642, 80.509
225.016, 144.123
226.391, 103.713
227.765, 133.272
229.139, 174.807
230.512, 166.322
231.886, 190.817
233.259, 164.296
234.632, 209.760
236.005, 223.214
237.377, 229.660
238.749, 216.101
240.122, 235.539
241.493, 230.976
242.865, 282.412
244.237, 304.848
245.608, 292.417
246.979, 323.185
248.350, 322.419
249.720, 361.859
251.090, 347.678
252.461, 363.308
253.830, 379.274
255.200, 324.313
256.570, 362.318
257.939, 391.322
259.308, 331.172
260.677, 404.778
262.045, 395.061
263.414, 414.549
264.782, 421.750
266.150, 442.850
267.517, 449.577
268.885, 439.056
270.252, 439.779
271.619, 450.833
272.986, 463.459
274.353, 507.449
275.719, 503.161
277.085, 495.048
278.451, 541.264
279.817, 506.721
281.182, 537.464
282.548, 528.547
283.913, 522.843
285.278, 536.701
286.642, 564.535
288.007, 554.708
289.371, 583.213
290.735, 583.208
292.099, 582.265
293.462, 576.326
294.826, 595.136
296.189, 639.030
297.552, 634.103
298.914, 657.861
300.277, 675.812
301.639, 694.446
303.001, 746.117
304.363, 710.036
305.724, 774.784
307.086, 748.306
308.447, 830.500
309.808, 799.680
311.168, 807.968
312.529, 861.112
313.889, 884.250
315.249, 968.196
316.609, 991.841
317.969, 1028.888
319.328, 1109.457
320.687, 1196.033
322.046, 1232.453
323.405, 1332.411
324.764, 1420.447
326.122, 1573.022
327.480, 1689.614
328.838, 1882.545
330.196, 2050.186
331.553, 2306.308
332.910, 2603.584
334.267, 2862.166
335.624, 3066.500
336.981, 3394.293
338.337, 3688.413
339.693, 4010.862
341.049, 4320.304
342.405, 4643.737
343.760, 5038.162
345.116, 5598.580
346.471, 6064.991
347.826, 6949.392
349.180, 7755.786
350.535, 8754.090
351.889, 9696.070
353.243, 10847.901
354.597, 11709.239
355.950, 11950.621
357.304, 11741.680
358.657, 11172.588
360.010, 10301.932
361.362, 9013.241
362.715, 8178.769
364.067, 7297.988
365.419, 6538.279
366.771, 6023.317
368.123, 5534.947
369.474, 5207.280
370.825, 5004.588
372.176, 4739.211
373.527, 4489.641
374.877, 4224.968
376.228, 4029.306
377.578, 3692.634
378.928, 3395.310
380.277, 3181.782
381.627, 2803.261
382.976, 2505.844
384.325, 2237.635
385.674, 1950.254
387.023, 1777.016
388.371, 1543.055
389.719, 1354.931
391.067, 1189.949
392.415, 1048.155
393.762, 963.334
395.110, 806.628
396.457, 683.816
397.804, 632.209
399.150, 555.641
400.497, 486.073
401.843, 457.508
403.189, 403.940
404.535, 373.375
405.881, 313.806
407.226, 312.233
408.571, 269.631
409.916, 254.004
411.261, 240.352
412.605, 200.682
413.950, 178.994
415.294, 142.291
416.638, 92.574
417.981, 92.839
419.325, 78.083
420.668, 64.311
422.011, 60.527
423.354, 70.724
424.697, 56.903
426.039, 17.064
427.381, 24.206
428.723, 28.330
430.065, 23.439
431.406, 13.533
432.748, 2.612
434.089, 2.678
435.430, 9.272
436.770, 0.242
438.111, 8.770
439.451, 1.231
440.791, 15.247
442.131, 1.717
443.471, 1.668
444.810, 2.396
446.149, 4.527
447.488, 7.564
448.827, 20.670
450.166, 30.794
451.504, 0.058
452.842, 27.101
454.180, 10.280
455.518, 5.473
456.855, 19.324
458.193, 8.891
459.530, 0.118
460.867, 4.645
462.203, 46.396
463.540, 19.138
464.876, 9.871
466.212, 36.592
467.548, 38.304
468.883, 79.006
470.219, 89.702
471.554, 62.391
472.889, 66.072
474.224, 64.747
475.558, 95.414
476.892, 81.075
478.227, 87.732
479.561, 96.381
480.894, 113.027
482.228, 82.668
483.561, 105.305
484.894, 129.940
486.227, 109.573
487.559, 130.209
488.892, 132.849
490.224, 127.492
491.556, 131.146
492.888, 138.806
494.220, 109.484
495.551, 163.169
496.882, 205.850
498.213, 182.525
499.544, 224.192
500.874, 258.851
502.205, 298.501
503.535, 358.141
504.865, 395.773
506.194, 388.396
507.524, 408.009
508.853, 403.712
510.182, 386.326
511.511, 398.024
512.840, 383.669
514.168, 431.396
515.496, 444.239
516.824, 461.994
518.152, 493.838
519.480, 559.513
520.807, 576.333
522.134, 587.233
523.461, 644.145
524.788, 714.994
526.114, 650.747
527.441, 698.253
528.767, 698.566
530.093, 745.090
531.418, 708.782
532.744, 742.335
534.069, 753.938
535.394, 819.330
536.719, 858.899
538.044, 916.078
539.368, 991.999
540.693, 1047.715
542.017, 1166.300
543.340, 1365.620
544.664, 1429.806
545.987, 1639.855
547.311, 1881.525
548.634, 2109.373
549.956, 2498.789
551.279, 2968.448
552.601, 3543.660
553.923, 4173.751
555.245, 4969.394
556.567, 5598.670
557.889, 6289.501
559.210, 6406.834
560.531, 6194.858
561.852, 5572.320
563.173, 4702.225
564.493, 3738.697
565.813, 3170.115
567.133, 2467.679
568.453, 2032.112
569.773, 1612.462
571.092, 1339.334
572.412, 1169.716
573.731, 969.547
575.049, 875.760
576.368, 741.233
577.686, 656.474
579.005, 598.200
580.323, 545.009
581.640, 488.051
582.958, 494.081
584.275, 465.005
585.593, 436.775
586.909, 390.468
588.226, 409.589
589.543, 384.244
590.859, 401.447
592.175, 379.021
593.491, 357.855
594.807, 382.197
596.122, 339.738
597.438, 384.334
598.753, 338.862
600.068, 341.907
601.382, 348.393
602.697, 356.837
604.011, 361.213
605.325, 391.646
606.639, 447.866
607.952, 456.865
609.266, 448.991
610.579, 456.350
611.892, 452.668
613.205, 403.740
614.518, 378.949
615.830, 339.354
617.142, 290.436
618.454, 251.726
619.766, 198.037
621.078, 222.511
622.389, 186.860
623.700, 183.160
625.011, 235.561
626.322, 151.958
627.632, 199.514
628.943, 186.105
630.253, 185.571
631.563, 249.041
632.872, 219.495
634.182, 275.066
635.491, 282.567
636.800, 366.085
638.109, 272.589
639.418, 322.795
640.726, 369.627
642.035, 367.137
643.343, 316.634
644.651, 320.120
645.958, 303.593
647.266, 289.054
648.573, 262.538
649.880, 331.939
651.187, 249.364
652.494, 229.776
653.800, 195.175
655.106, 198.563
656.412, 180.938
657.718, 165.300
659.024, 163.651
660.329, 154.989
661.634, 111.315
662.939, 131.629
664.244, 102.931
665.549, 74.222
666.853, 92.499
668.157, 69.764
669.461, 80.017
670.765, 58.257
672.069, 28.484
673.372, 47.697
674.675, 24.897
675.978, 64.083
677.281, 29.256
678.583, 17.415
679.886, 16.559
681.188, 19.689
682.490, 40.804
683.792, 1.906
685.093, 4.987
686.394, 1.050
687.696, 1.907
688.997, 15.887
690.297, 32.896
691.598, 13.943
692.898, 33.018
694.198, 27.130
695.498, 55.276
696.798, 36.472
698.097, 50.706
699.397, 30.986
700.696, 29.302
701.995, 11.652
703.293, 22.026
704.592, 9.432
705.890, 50.859
707.188, 39.332
708.486, 16.843
709.784, 31.381
711.081, 8.952
712.378, 35.544
713.675, 2.828
714.972, 5.814
716.269, 17.476
717.565, 26.838
718.862, 16.859
720.158, 15.421
721.453, 23.689
722.749, 2.948
724.045, 11.194
725.340, 26.430
726.635, 4.344
727.930, 13.133
729.224, 20.941
730.519, 11.774
731.813, 1.624
733.107, 4.513
734.401, 8.359
735.694, 27.246
736.988, 6.843
738.281, 15.924
739.574, 22.997
740.867, 16.063
742.160, 37.123
743.452, 5.824
744.744, 37.220
746.036, 9.743
747.328, 27.283
748.620, 4.695
749.911, 18.317
751.202, 17.326
752.493, 11.330
753.784, 8.328
755.075, 18.322
756.365, 18.313
757.655, 25.301
758.945, 23.284
760.235, 40.263
761.525, 53.239
762.814, 8.788
764.103, 52.181
765.392, 30.153
766.681, 16.121
767.969, 75.091
769.258, 77.059
770.546, 54.025
771.834, 56.987
773.122, 41.948
774.409, 48.907
775.697, 64.863
776.984, 19.815
778.271, 67.765
779.558, 13.712
780.844, 24.656
782.131, 21.598
783.417, 32.536
784.703, 48.471
785.989, 18.403
787.274, 34.332
788.560, 37.259
789.845, 50.182
791.130, 60.102
792.415, 68.020
793.699, 61.935
794.983, 43.847
796.268, 99.757
797.552, 77.664
798.835, 87.569
800.119, 124.471
801.402, 120.372
802.686, 134.271
803.969, 130.167
805.251, 167.062
806.534, 234.955
807.816, 209.847
809.098, 198.738
810.380, 260.627
811.662, 237.517
812.944, 318.405
814.225, 303.296
815.506, 328.193
816.787, 344.090
818.068, 317.996
819.349, 338.903
820.629, 366.712
821.909, 379.601
823.189, 368.397
824.469, 357.239
825.749, 382.992
827.028, 378.624
828.307, 348.345
829.586, 381.980
830.865, 386.784
832.144, 379.452
833.422, 354.038
834.700, 439.621
835.978, 450.283
837.256, 442.049
838.534, 430.071
839.811, 511.284
841.088, 514.291
842.365, 552.134
843.642, 611.126
844.919, 629.079
846.195, 686.244
847.472, 732.237
848.748, 814.622
850.023, 824.267
851.299, 904.120
852.575, 996.102
853.850, 1089.346
855.125, 1179.727
856.400, 1309.240
857.674, 1340.127
858.949, 1547.838
860.223, 1700.977
861.497, 1736.867
862.771, 1816.202
864.045, 1837.654
865.318, 1831.544
866.591, 1809.796
867.864, 1780.486
869.137, 1707.669
870.410, 1626.153
871.682, 1590.193
872.955, 1622.784
874.227, 1595.801
875.499, 1614.865
876.770, 1593.777
878.042, 1619.814
879.313, 1724.927
880.584, 1737.513
881.855, 1865.583
883.126, 1916.199
884.396, 2062.426
885.667, 2178.299
886.937, 2371.402
888.207, 2471.953
889.476, 2698.361
890.746, 2855.515
892.015, 3114.722
893.284, 3378.974
894.553, 3644.211
895.822, 4035.550
897.090, 4386.476
898.359, 4800.846
899.627, 5362.625
900.895, 6009.982
902.163, 6664.078
903.430, 7796.429
904.698, 8843.792
905.965, 10193.145
907.232, 12042.500
908.499, 14521.914
909.765, 17191.342
911.032, 20950.809
912.298, 24930.287
913.564, 30099.779
914.830, 35629.270
916.095, 40298.469
917.361, 44917.992
918.626, 47457.523
919.891, 47167.055
921.156, 45286.617
922.420, 39966.176
923.685, 35565.742
924.949, 29565.330
926.213, 24794.926
927.477, 20864.527
928.740, 17294.145
930.004, 14623.771
931.267, 12303.408
932.530, 10533.057
933.793, 9182.716
935.056, 7829.384
936.318, 6944.064
937.581, 6019.756
938.843, 5309.459
940.104, 4786.173
941.366, 4148.900
942.628, 3700.637
943.889, 3346.385
945.150, 2980.145
946.411, 2731.916
947.672, 2496.698
948.932, 2331.493
950.193, 2088.298
951.453, 1952.116
952.713, 1749.954
953.973, 1655.795
955.232, 1566.647
956.491, 1534.511
957.751, 1414.387
959.010, 1370.365
960.268, 1320.265
961.527, 1242.176
962.785, 1197.380
964.044, 1166.315
965.302, 1124.058
966.559, 1060.400
967.817, 1041.501
969.075, 992.469
970.332, 999.884
971.589, 964.889
972.846, 907.111
974.102, 902.139
975.359, 903.180
976.615, 881.232
977.871, 872.297
979.127, 858.856
980.383, 832.145
981.638, 868.419
982.893, 869.055
984.149, 889.502
985.404, 818.697
986.658, 834.485
987.913, 787.113
989.167, 813.209
990.421, 741.233
991.675, 725.139
992.929, 688.079
994.183, 641.994
995.436, 608.388
996.689, 563.068
997.942, 579.101
999.195, 538.425
1000.448, 547.294
1001.700, 520.528
1002.952, 526.923
1004.204, 494.519
1005.456, 491.641
1006.708, 501.107
1007.959, 549.589
1009.210, 534.649
1010.461, 513.412
1011.712, 534.956
1012.963, 545.095
1014.213, 537.679
1015.464, 581.283
1016.714, 583.903
1017.964, 643.544
1019.214, 654.196
1020.463, 707.862
1021.712, 726.544
1022.962, 715.236
1024.210, 757.943
1025.459, 740.659
1026.708, 730.385
1027.956, 758.121
1029.204, 759.866
1030.452, 749.620
1031.700, 785.386
1032.948, 794.166
1034.195, 807.961
1035.442, 788.770
1036.689, 814.589
1037.936, 786.417
1039.183, 750.257
1040.429, 805.114
1041.676, 824.981
1042.922, 857.858
1044.168, 857.742
1045.413, 829.635
1046.659, 891.537
1047.904, 943.449
1049.149, 919.370
1050.394, 934.302
1051.639, 902.241
1052.884, 796.190
1054.128, 814.148
1055.372, 770.116
1056.616, 687.096
1057.860, 606.084
1059.104, 538.080
1060.347, 495.083
1061.590, 413.093
1062.833, 341.111
1064.076, 332.138
1065.319, 321.171
1066.561, 257.215
1067.803, 236.268
1069.046, 197.328
1070.287, 239.394
1071.529, 168.467
1072.771, 164.548
1074.012, 150.640
1075.253, 116.740
1076.494, 125.853
1077.735, 147.975
1078.975, 90.106
1080.216, 143.245
1081.456, 83.390
1082.696, 69.541
1083.936, 78.699
1085.175, 79.862
1086.415, 78.031
1087.654, 126.211
1088.893, 49.404
1090.132, 59.602
1091.371, 77.810
1092.609, 69.023
1093.847, 45.242
1095.085, 33.469
1096.323, 73.705
1097.561, 39.946
1098.799, 26.193
1100.036, 40.446
1101.273, 0.702
1102.510, 7.968
1103.747, 32.237
1104.983, 26.509
1106.220, 12.787
1107.456, 3.932
1108.692, 4.351
1109.928, 17.638
1111.163, 9.072
1112.399, 16.218
1113.634, 19.489
1114.869, 30.200
1116.104, 3.920
1117.339, 39.639
1118.573, 10.373
1119.808, 26.890
1121.042, 4.844
1122.276, 94.421
1123.509, 119.688
1124.743, 62.959
1125.976, 20.232
1127.210, 27.493
1128.443, 22.231
1129.675, 1.977
1130.908, 26.726
1132.141, 4.486
1133.373, 34.247
1134.605, 43.025
1135.837, 39.826
1137.068, 46.647
1138.300, 12.494
1139.531, 26.348
1140.762, 26.216
1141.993, 41.100
1143.224, 48.007
1144.455, 19.941
1145.685, 24.888
1146.915, 12.851
1148.145, 20.823
1149.375, 25.810
1150.605, 9.185
1151.834, 3.180
1153.063, 21.829
1154.292, 19.145
1155.521, 31.118
1156.750, 18.910
1157.978, 3.046
1159.207, 33.997
1160.435, 2.054
1161.663, 15.887
1162.891, 44.825
1164.118, 55.761
1165.345, 44.694
1166.573, 35.626
1167.800, 88.554
1169.026, 73.480
1170.253, 87.402
1171.480, 92.321
1172.706, 68.236
1173.932, 141.147
1175.158, 132.090
1176.383, 141.994
1177.609, 158.893
1178.834, 154.927
1180.059, 118.838
1181.284, 155.724
1182.509, 151.637
1183.734, 134.514
1184.958, 169.497
1186.182, 151.370
1187.406, 169.538
1188.630, 142.728
1189.854, 139.859
1191.077, 157.717
1192.301, 138.685
1193.524, 127.784
1194.747, 162.961
1195.969, 132.939
1197.192, 183.860
1198.414, 144.894
1199.636, 119.890
1200.858, 155.860
1202.080, 141.670
1203.302, 152.314
1204.523, 151.306
1205.744, 165.379
1206.966, 171.370
1208.186, 159.236
1209.407, 129.298
1210.628, 145.593
1211.848, 153.484
1213.068, 146.859
1214.288, 123.986
1215.508, 113.152
1216.727, 149.972
1217.947, 119.957
1219.166, 114.063
1220.385, 129.177
1221.604, 127.134
1222.822, 131.757
1224.041, 148.286
1225.259, 98.978
1226.477, 139.060
1227.695, 127.944
1228.913, 134.847
1230.130, 110.846
1231.348, 115.659
1232.565, 136.557
1233.782, 154.523
1234.999, 152.220
1236.215, 166.094
1237.432, 123.742
1238.648, 88.726
1239.864, 109.422
1241.080, 90.139
1242.296, 71.736
1243.511, 129.334
1244.726, 98.753
1245.942, 91.610
1247.156, 122.110
1248.371, 127.981
1249.586, 136.512
1250.800, 135.163
1252.014, 152.963
1253.228, 166.553
1254.442, 132.113
1255.656, 156.748
1256.869, 164.291
1258.083, 116.546
1259.296, 152.220
1260.509, 155.999
1261.722, 135.432
1262.934, 142.913
1264.147, 185.412
1265.359, 174.498
1266.571, 184.910
1267.783, 152.189
1268.994, 211.703
1270.206, 184.298
1271.417, 177.829
1272.628, 189.315
1273.839, 194.231
1275.050, 177.439
1276.260, 211.612
1277.471, 203.459
1278.681, 192.168
1279.891, 182.417
1281.101, 170.152
1282.310, 175.978
1283.520, 173.448
1284.729, 166.929
1285.938, 172.656
1287.147, 129.193
1288.356, 149.922
1289.564, 163.165
1290.773, 120.062
1291.981, 160.591
1293.189, 133.824
1294.397, 116.537
1295.604, 150.876
1296.812, 131.076
1298.019, 126.067
1299.226, 143.530
1300.433, 119.662
1301.640, 157.863
1302.846, 132.391
1304.053, 125.209
1305.259, 137.260
1306.465, 121.731
1307.671, 111.758
1308.876, 85.747
1310.082, 104.716
1311.287, 91.983
1312.492, 93.911
1313.697, 71.821
1314.902, 98.786
1316.106, 97.661
1317.310, 87.522
1318.515, 61.370
1319.719, 48.205
1320.922, 66.026
1322.126, 67.831
1323.329, 27.630
1324.533, 52.408
1325.736, 63.172
1326.939, 49.920
1328.141, 69.653
1329.344, 31.373
1330.546, 56.070
1331.748, 15.754
1332.950, 14.421
1334.152, 17.069
1335.354, 54.701
1336.555, 29.314
1337.757, 17.911
1338.958, 13.490
1340.159, 26.052
1341.359, 32.597
1342.560, 20.125
1343.760, 22.637
1344.960, 24.132
1346.160, 2.388
1347.360, 0.067
1348.560, 20.502
1349.759, 14.922
1350.959, 19.327
1352.158, 30.716
1353.357, 14.091
1354.555, 5.450
1355.754, 24.792
1356.952, 3.119
1358.151, 9.429
1359.349, 7.724
1360.546, 29.003
1361.744, 14.268
1362.941, 8.520
1364.139, 10.244
1365.336, 13.975
1366.533, 18.818
1367.730, 1.627
1368.926, 4.454
1370.123, 6.704
1371.319, 14.851
1372.515, 12.989
1373.711, 8.120
1374.906, 17.243
1376.102, 11.361
1377.297, 10.522
1378.492, 22.408
1379.687, 10.708
1380.882, 6.154
1382.077, 5.663
1383.271, 21.458
1384.465, 7.779
1385.659, 6.042
1386.853, 33.671
1388.047, 3.640
1389.240, 8.029
1390.434, 63.678
1391.627, 11.690
1392.820, 40.927
1394.013, 18.540
1395.205, 8.157
1396.398, 23.760
1397.590, 16.344
1398.782, 16.907
1399.974, 26.473
1401.166, 26.038
1402.357, 11.601
1403.549, 19.199
1404.740, 3.828
1405.931, 14.473
1407.122, 29.156
1408.313, 23.866
1409.503, 43.594
1410.693, 25.339
1411.883, 21.084
1413.073, 12.829
1414.263, 17.583
1415.453, 22.334
1416.642, 38.080
1417.831, 33.816
1419.020, 47.543
1420.209, 40.262
1421.398, 2.025
1422.587, 60.632
1423.775, 35.135
1424.963, 54.802
1426.151, 27.447
1427.339, 43.962
1428.526, 20.683
1429.714, 58.907
1430.901, 20.964
1432.088, 22.830
1433.275, 35.953
1434.462, 42.005
1435.648, 41.581
1436.835, 38.320
1438.021, 45.337
1439.207, 41.446
1440.393, 46.621
1441.579, 51.659
1442.764, 60.465
1443.949, 23.655
1445.135, 78.031
1446.320, 46.888
1447.504, 65.934
1448.689, 36.996
1449.873, 40.321
1451.058, 54.714
1452.242, 77.103
1453.426, 2.957
1454.609, 45.462
1455.793, 55.374
1456.976, 6.545
1458.159, 38.281
1459.342, 25.947
1460.525, 33.943
1461.708, 38.952
1462.890, 41.742
1464.073, 68.942
1465.255, 13.692
1466.437, 44.729
1467.619, 58.418
1468.800, 31.602
1469.982, 43.246
1471.163, 59.069
1472.344, 46.905
1473.525, 15.557
1474.706, 52.008
1475.886, 54.074
1477.066, 48.160
1478.247, 72.972
1479.427, 38.125
1480.607, 36.252
1481.786, 26.401
1482.966, 30.631
1484.145, 8.564
1485.324, 23.885
1486.503, 35.133
1487.682, 44.565
1488.860, 8.749
1490.039, 40.960
1491.217, 20.504
1492.395, 18.015
1493.573, 44.508
1494.751, 36.944
1495.928, 61.395
1497.106, 57.831
1498.283, 42.331
1499.460, 39.837
1500.637, 67.393
1501.814, 55.004
1502.990, 51.666
1504.166, 26.396
1505.342, 55.179
1506.518, 48.117
1507.694, 38.125
1508.870, 0.784
1510.045, 35.421
1511.221, 18.767
1512.396, 20.282
1513.571, 38.004
1514.745, 28.980
1515.920, 46.161
1517.094, 10.839
1518.269, 0.075
1519.443, 25.147
1520.616, 48.627
1521.790, 0.000
##END=



