##NAMES=Pyromorphite
##RRUFFID=R050027
##IDEAL CHEMISTRY=Pb^2+^_5_(PO_4_)_3_Cl
##LOCALITY=Yangshuo, Guangxi Autonomous Region, China
##OWNER=RRUFF
##SOURCE=Eugene Schlepp
##DESCRIPTION=Light green hexagonal prismatic hoppered single crystals
##STATUS=The identification of this mineral has been confirmed by X-ray diffraction and chemical analysis
##URL=rruff.info/R050027
##MEASURED CHEMISTRY=Pb_5.00_(P_1.00_O_4_)_3_Cl_1.00_
##PIN_ID=L00481
##ORIENTATION=Laser parallel to -a* (-1 0 0). Fiducial mark perpendicular to laser is parallel to -c [0 0 -1]
46.637, 0.000
48.043, 25.591
49.450, 142.646
50.856, 293.503
52.261, 370.866
53.667, 567.015
55.072, 688.423
56.477, 830.216
57.882, 883.119
59.287, 996.001
60.691, 1156.737
62.095, 1374.801
63.499, 1375.329
64.903, 1224.599
66.306, 934.750
67.709, 678.897
69.112, 551.963
70.515, 265.877
71.917, 243.569
73.319, 1.971
74.721, 44.979
76.123, 71.333
77.525, 42.140
78.926, 85.439
80.327, 10.261
81.728, 89.403
83.128, 394.555
84.529, 782.167
85.929, 1501.203
87.329, 2409.630
88.728, 3592.418
90.128, 4358.548
91.527, 4744.000
92.926, 4602.755
94.324, 4380.787
95.723, 4381.071
97.121, 4455.569
98.519, 4914.256
99.917, 5755.122
101.314, 7672.158
102.712, 10548.358
104.109, 13744.714
105.505, 16671.225
106.902, 17197.879
108.298, 17294.666
109.694, 16481.600
111.090, 14048.658
112.486, 11295.878
113.881, 10083.410
115.277, 8881.368
116.672, 8139.694
118.066, 7538.285
119.461, 7117.088
120.855, 6797.973
122.249, 6560.918
123.643, 6379.925
125.036, 6250.990
126.430, 6237.113
127.823, 6292.292
129.216, 6350.530
130.608, 6424.842
132.001, 6430.291
133.393, 6504.862
134.785, 6681.529
136.176, 6958.271
137.568, 7058.064
138.959, 7317.869
140.350, 7617.670
141.741, 7727.473
143.131, 8087.266
144.521, 8306.944
145.911, 8576.412
147.301, 8685.712
148.691, 9114.995
150.080, 9144.321
151.469, 9453.688
152.858, 9493.100
154.247, 9722.557
155.635, 9782.060
157.024, 9851.603
158.411, 9771.196
159.799, 10080.831
161.187, 9980.513
162.574, 9950.237
163.961, 10090.010
165.348, 10349.828
166.734, 10619.690
168.121, 10659.596
169.507, 11119.543
170.893, 11269.533
172.278, 11989.568
173.664, 12469.642
175.049, 12659.759
176.434, 12720.522
177.819, 12811.702
179.203, 12845.862
180.587, 12473.079
181.971, 12329.952
183.355, 11978.345
184.739, 11783.210
186.122, 11540.858
187.505, 11284.148
188.888, 10928.119
190.271, 10520.833
191.653, 10103.827
193.035, 9484.618
194.417, 8835.224
195.799, 8095.726
197.180, 7556.266
198.562, 6868.840
199.943, 6352.445
201.324, 5928.083
202.704, 5550.750
204.084, 5098.443
205.465, 4960.165
206.844, 4640.912
208.224, 4521.683
209.603, 4261.479
210.983, 4071.296
212.362, 3945.136
213.740, 3850.902
215.119, 3736.739
216.497, 3514.439
217.875, 3418.903
219.253, 3158.097
220.631, 3114.992
222.008, 2945.475
223.385, 2833.636
224.762, 2755.574
226.139, 2728.272
227.515, 2584.268
228.891, 2421.559
230.267, 2271.361
231.643, 2158.198
233.018, 2120.126
234.394, 2037.139
235.769, 2012.234
237.144, 1925.042
238.518, 1785.032
239.893, 1782.638
241.267, 1634.707
242.641, 1603.512
244.014, 1519.521
245.388, 1413.165
246.761, 1402.865
248.134, 1333.052
249.507, 1340.775
250.879, 1282.546
252.252, 1173.365
253.624, 1225.228
254.996, 1150.133
256.367, 1112.081
257.739, 1077.067
259.110, 974.092
260.481, 935.153
261.852, 941.250
263.222, 861.382
264.592, 866.546
265.962, 833.743
267.332, 814.972
268.702, 686.231
270.071, 645.521
271.440, 669.839
272.809, 589.186
274.178, 639.561
275.546, 522.962
276.915, 502.390
278.283, 503.843
279.650, 468.320
281.018, 409.819
282.385, 412.338
283.752, 359.875
285.119, 352.428
286.486, 314.000
287.852, 287.587
289.218, 273.190
290.584, 208.809
291.950, 198.443
293.316, 134.092
294.681, 144.756
296.046, 124.434
297.411, 79.126
298.775, 71.831
300.140, 74.548
301.504, 49.278
302.868, 63.070
304.231, 14.176
305.595, 11.589
306.958, 21.636
308.321, 30.798
309.684, 56.692
311.047, 64.121
312.409, 78.396
313.771, 68.569
315.133, 68.517
316.495, 58.171
317.856, 99.101
319.217, 63.246
320.578, 35.049
321.939, 103.522
323.299, 34.259
324.660, 35.213
326.020, 31.757
327.380, 47.768
328.739, 29.923
330.099, 53.937
331.458, 25.732
332.817, 7.834
334.176, 4.477
335.534, 7.675
336.892, 22.046
338.251, 31.828
339.608, 46.850
340.966, 57.976
342.323, 75.189
343.681, 85.421
345.037, 96.637
346.394, 97.813
347.751, 149.939
349.107, 157.010
350.463, 160.104
351.819, 143.208
353.174, 156.264
354.530, 127.308
355.885, 116.305
357.240, 133.209
358.594, 145.918
359.949, 180.239
361.303, 201.092
362.657, 260.077
364.011, 270.908
365.365, 285.890
366.718, 307.897
368.071, 393.758
369.424, 467.613
370.777, 519.472
372.129, 620.332
373.481, 707.206
374.833, 880.080
376.185, 1047.969
377.537, 1289.851
378.888, 1573.732
380.239, 1953.610
381.590, 2409.479
382.941, 3035.349
384.291, 3842.221
385.642, 5104.090
386.992, 6450.958
388.341, 8000.837
389.691, 9842.732
391.040, 11304.649
392.389, 11806.573
393.738, 11298.506
395.087, 10080.445
396.435, 8622.395
397.784, 6996.344
399.132, 6098.300
400.479, 5816.260
401.827, 5860.234
403.174, 6514.227
404.521, 7344.266
405.868, 8466.358
407.215, 9398.487
408.561, 9480.662
409.908, 9172.869
411.254, 8225.084
412.599, 7200.310
413.945, 6006.544
415.290, 5310.771
416.636, 4475.008
417.980, 3929.242
419.325, 3417.482
420.670, 2774.729
422.014, 2318.967
423.358, 1844.210
424.702, 1540.461
426.045, 1230.723
427.389, 1062.988
428.732, 929.249
430.075, 725.504
431.417, 613.746
432.760, 548.989
434.102, 525.228
435.444, 467.471
436.786, 387.712
438.127, 362.007
439.469, 348.242
440.810, 272.460
442.151, 307.662
443.492, 280.861
444.832, 244.045
446.172, 224.224
447.512, 194.394
448.852, 218.542
450.192, 157.673
451.531, 205.787
452.870, 177.932
454.209, 168.009
455.548, 202.137
456.887, 184.289
458.225, 224.366
459.563, 170.437
460.901, 216.417
462.238, 207.515
463.576, 122.711
464.913, 150.754
466.250, 136.427
467.587, 147.366
468.923, 125.664
470.259, 63.976
471.596, 68.110
472.931, 41.232
474.267, 12.404
475.603, 6.968
476.938, 22.045
478.273, 11.198
479.608, 9.791
480.942, 0.200
482.276, 5.531
483.611, 17.705
484.944, 0.193
486.278, 10.658
487.612, 0.543
488.945, 45.552
490.278, 16.038
491.611, 36.238
492.943, 0.456
494.276, 22.159
495.608, 18.397
496.940, 15.088
498.271, 10.290
499.603, 65.020
500.934, 48.721
502.265, 54.256
503.596, 47.762
504.927, 46.253
506.257, 50.777
507.587, 56.351
508.917, 67.140
510.247, 57.057
511.577, 54.149
512.906, 65.314
514.235, 69.146
515.564, 82.513
516.892, 85.668
518.221, 99.646
519.549, 96.664
520.877, 133.703
522.205, 112.107
523.533, 158.057
524.860, 133.558
526.187, 134.165
527.514, 176.079
528.841, 202.729
530.167, 204.412
531.493, 186.317
532.820, 236.823
534.145, 266.713
535.471, 288.972
536.796, 392.157
538.122, 420.169
539.447, 548.750
540.771, 610.356
542.096, 762.337
543.420, 789.333
544.744, 749.771
546.068, 855.879
547.392, 908.004
548.715, 1145.033
550.039, 1401.656
551.362, 1625.354
552.684, 1737.839
554.007, 1601.543
555.329, 1397.037
556.652, 1204.425
557.973, 923.056
559.295, 695.399
560.617, 571.319
561.938, 486.395
563.259, 463.356
564.580, 421.310
565.901, 457.751
567.221, 491.182
568.541, 560.745
569.861, 704.544
571.181, 854.547
572.501, 1166.544
573.820, 1450.677
575.139, 1521.253
576.458, 1433.340
577.777, 1079.561
579.095, 861.831
580.414, 699.673
581.732, 583.318
583.049, 464.731
584.367, 467.296
585.685, 391.001
587.002, 360.271
588.319, 324.900
589.636, 313.363
590.952, 330.555
592.268, 343.901
593.585, 343.226
594.900, 296.707
596.216, 267.775
597.532, 283.635
598.847, 298.631
600.162, 297.711
601.477, 310.413
602.792, 300.484
604.106, 307.983
605.420, 284.886
606.734, 316.124
608.048, 297.976
609.361, 314.712
610.675, 271.400
611.988, 306.038
613.301, 264.626
614.614, 253.166
615.926, 265.655
617.238, 261.094
618.550, 285.484
619.862, 242.825
621.174, 213.115
622.485, 243.305
623.797, 212.494
625.108, 237.633
626.418, 232.725
627.729, 156.715
629.039, 164.396
630.349, 130.055
631.659, 144.560
632.969, 189.406
634.279, 172.989
635.588, 174.238
636.897, 186.727
638.206, 136.393
639.515, 128.677
640.823, 143.592
642.131, 106.730
643.439, 114.044
644.747, 116.906
646.055, 133.194
647.362, 134.585
648.669, 98.794
649.976, 111.743
651.283, 61.956
652.589, 83.664
653.896, 104.532
655.202, 70.139
656.508, 89.528
657.814, 91.263
659.119, 99.874
660.424, 98.454
661.729, 96.001
663.034, 90.727
664.339, 84.796
665.643, 72.169
666.947, 64.528
668.251, 56.139
669.555, 51.567
670.859, 26.137
672.162, 48.246
673.465, 45.348
674.768, 48.399
676.071, 20.447
677.373, 18.408
678.676, 22.551
679.978, 16.675
681.280, 42.767
682.581, 1.950
683.883, 4.413
685.184, 39.311
686.485, 35.994
687.786, 59.622
689.087, 3.796
690.387, 53.716
691.687, 18.820
692.987, 37.569
694.287, 2.093
695.586, 3.180
696.886, 48.390
698.185, 6.446
699.484, 8.347
700.783, 16.686
702.081, 21.666
703.379, 31.405
704.677, 47.551
705.975, 58.781
707.273, 2.419
708.570, 4.070
709.868, 16.642
711.165, 0.389
712.462, 18.860
713.758, 11.205
715.055, 14.635
716.351, 14.001
717.647, 15.276
718.943, 34.489
720.238, 52.322
721.533, 30.229
722.829, 16.199
724.124, 52.224
725.418, 10.320
726.713, 63.465
728.007, 33.686
729.301, 17.033
730.595, 47.280
731.889, 9.656
733.182, 46.077
734.476, 49.126
735.769, 11.899
737.061, 59.674
738.354, 58.312
739.647, 79.012
740.939, 51.786
742.231, 30.615
743.523, 21.490
744.814, 12.597
746.106, 53.343
747.397, 41.335
748.688, 76.372
749.978, 48.471
751.269, 23.616
752.559, 59.860
753.849, 26.095
755.139, 49.644
756.429, 64.639
757.719, 2.970
759.008, 66.325
760.297, 25.274
761.586, 17.155
762.875, 2.602
764.163, 58.929
765.451, 38.441
766.739, 6.885
768.027, 61.359
769.315, 58.746
770.602, 73.072
771.890, 81.438
773.177, 52.773
774.463, 98.163
775.750, 119.399
777.036, 157.502
778.323, 146.723
779.609, 66.806
780.894, 166.986
782.180, 109.138
783.465, 181.917
784.750, 162.759
786.035, 183.225
787.320, 234.891
788.605, 240.847
789.889, 227.739
791.173, 273.636
792.457, 303.600
793.741, 317.272
795.024, 372.870
796.307, 344.652
797.591, 359.942
798.873, 404.390
800.156, 379.904
801.439, 380.649
802.721, 251.456
804.003, 247.817
805.285, 197.467
806.566, 176.031
807.848, 212.257
809.129, 208.933
810.410, 154.918
811.691, 98.383
812.971, 87.908
814.252, 176.601
815.532, 200.295
816.812, 277.974
818.092, 306.592
819.371, 391.132
820.651, 363.428
821.930, 288.570
823.209, 346.509
824.488, 325.350
825.766, 316.260
827.045, 373.082
828.323, 268.854
829.601, 215.778
830.878, 187.638
832.156, 175.453
833.433, 142.879
834.710, 83.736
835.987, 103.018
837.264, 67.172
838.540, 91.996
839.817, 113.063
841.093, 100.075
842.369, 133.259
843.644, 95.991
844.920, 180.734
846.195, 188.088
847.470, 233.494
848.745, 297.055
850.020, 396.028
851.294, 400.955
852.568, 437.490
853.842, 295.990
855.116, 295.032
856.390, 201.384
857.663, 123.702
858.936, 83.099
860.209, 50.115
861.482, 0.575
862.755, 33.463
864.027, 27.885
865.299, 34.960
866.571, 32.896
867.843, 12.572
869.115, 17.521
870.386, 19.878
871.657, 101.064
872.928, 57.352
874.199, 140.630
875.470, 143.408
876.740, 105.181
878.010, 214.808
879.280, 194.188
880.550, 208.352
881.820, 246.506
883.089, 397.517
884.358, 390.072
885.627, 431.103
886.896, 391.988
888.164, 552.812
889.433, 620.056
890.701, 678.490
891.969, 780.155
893.236, 765.664
894.504, 925.032
895.771, 970.827
897.038, 1096.256
898.305, 1313.846
899.572, 1413.700
900.838, 1572.404
902.105, 1893.122
903.371, 2262.683
904.637, 2640.648
905.902, 3210.836
907.168, 3952.902
908.433, 4996.888
909.698, 6251.265
910.963, 8084.265
912.228, 10474.817
913.492, 14108.001
914.757, 19540.836
916.021, 27194.057
917.285, 37507.402
918.548, 45270.816
919.812, 47624.273
921.075, 42287.770
922.338, 34431.328
923.601, 27494.953
924.864, 21888.631
926.126, 17932.367
927.388, 15646.168
928.650, 13750.025
929.912, 12913.950
931.174, 12917.930
932.435, 13341.966
933.697, 14436.069
934.958, 16000.217
936.218, 18276.449
937.479, 21128.727
938.739, 24513.062
940.000, 28427.463
941.260, 32901.910
942.520, 37676.414
943.779, 42000.977
945.039, 44775.582
946.298, 45580.254
947.557, 44515.000
948.816, 40179.785
950.074, 36714.633
951.333, 31269.531
952.591, 26944.490
953.849, 22639.500
955.107, 19144.568
956.365, 16459.701
957.622, 13924.889
958.879, 12100.142
960.136, 10605.453
961.393, 9030.820
962.650, 8236.248
963.906, 7191.739
965.162, 6507.283
966.418, 6182.879
967.674, 5518.546
968.930, 5454.263
970.185, 5074.038
971.441, 4937.876
972.696, 4837.771
973.950, 4844.722
975.205, 4881.735
976.459, 4756.816
977.714, 4832.963
978.968, 4854.168
980.222, 4808.458
981.475, 4647.807
982.729, 4688.227
983.982, 4223.720
985.235, 4013.287
986.488, 3814.932
987.740, 3593.662
988.993, 3424.463
990.245, 3135.334
991.497, 3014.261
992.749, 2931.248
994.000, 2832.296
995.252, 2897.417
996.503, 2738.598
997.754, 2813.850
999.005, 2936.160
1000.256, 2930.543
1001.506, 3178.989
1002.756, 3266.488
1004.006, 3499.060
1005.256, 3754.701
1006.506, 3966.405
1007.755, 4193.168
1009.005, 4540.000
1010.254, 4710.907
1011.502, 5036.378
1012.751, 5195.404
1014.000, 5503.517
1015.248, 5591.464
1016.496, 5899.692
1017.744, 6247.977
1018.991, 6396.319
1020.239, 6574.715
1021.486, 6793.172
1022.733, 6701.686
1023.980, 6740.262
1025.227, 6388.910
1026.473, 6107.622
1027.719, 5836.392
1028.965, 5385.917
1030.211, 5038.815
1031.457, 4826.785
1032.702, 4363.744
1033.948, 4165.822
1035.193, 3774.968
1036.438, 3655.167
1037.682, 3414.468
1038.927, 3308.863
1040.171, 3257.794
1041.415, 3218.336
1042.659, 3043.350
1043.903, 2997.381
1045.146, 2975.010
1046.390, 2844.491
1047.633, 2752.187
1048.876, 2447.717
1050.118, 2400.044
1051.361, 2102.337
1052.603, 2034.087
1053.845, 1995.094
1055.087, 1860.218
1056.329, 1701.397
1057.571, 1716.545
1058.812, 1553.504
1060.053, 1637.753
1061.294, 1499.706
1062.535, 1444.657
1063.775, 1493.625
1065.016, 1270.750
1066.256, 1325.441
1067.496, 1314.804
1068.736, 1274.250
1069.975, 1280.368
1071.214, 1287.834
1072.454, 1380.855
1073.693, 1414.737
1074.931, 1353.400
1076.170, 1322.354
1077.408, 1317.069
1078.647, 1200.085
1079.885, 1209.631
1081.122, 1208.451
1082.360, 1130.061
1083.597, 1174.043
1084.835, 1166.601
1086.072, 1185.401
1087.308, 1102.483
1088.545, 1120.822
1089.781, 1115.967
1091.018, 1080.203
1092.254, 1074.148
1093.490, 1038.380
1094.725, 1073.248
1095.961, 1074.985
1097.196, 928.300
1098.431, 932.199
1099.666, 990.568
1100.900, 841.686
1102.135, 789.768
1103.369, 746.047
1104.603, 746.156
1105.837, 677.797
1107.071, 584.212
1108.304, 522.829
1109.538, 582.290
1110.771, 491.994
1112.004, 456.842
1113.236, 452.475
1114.469, 369.480
1115.701, 394.460
1116.933, 306.152
1118.165, 344.618
1119.397, 326.527
1120.629, 302.542
1121.860, 409.479
1123.091, 384.427
1124.322, 298.242
1125.553, 333.548
1126.783, 236.453
1128.014, 326.825
1129.244, 304.771
1130.474, 198.141
1131.704, 387.666
1132.933, 299.575
1134.163, 268.977
1135.392, 393.389
1136.621, 206.875
1137.850, 467.833
1139.079, 355.869
1140.307, 377.128
1141.535, 548.590
1142.763, 437.571
1143.991, 537.522
1145.219, 616.497
1146.446, 565.847
1147.674, 693.869
1148.901, 786.904
1150.128, 797.099
1151.354, 799.793
1152.581, 725.539
1153.807, 703.003
1155.033, 629.154
1156.259, 533.344
1157.485, 530.543
1158.710, 488.408
1159.936, 314.539
1161.161, 367.483
1162.386, 271.922
1163.611, 253.997
1164.835, 240.904
1166.060, 134.154
1167.284, 131.227
1168.508, 104.855
1169.732, 49.946
1170.955, 114.034
1172.179, 76.351
1173.402, 25.484
1174.625, 100.707
1175.848, 30.862
1177.070, 66.292
1178.293, 19.663
1179.515, 36.305
1180.737, 15.038
1181.959, 49.417
1183.181, 14.490
1184.402, 0.436
1185.624, 36.084
1186.845, 21.130
1188.066, 58.027
1189.286, 44.119
1190.507, 63.064
1191.727, 16.961
1192.947, 24.203
1194.167, 27.356
1195.387, 21.440
1196.607, 57.667
1197.826, 10.674
1199.045, 41.516
1200.264, 36.202
1201.483, 97.127
1202.702, 95.471
1203.920, 40.888
1205.138, 87.302
1206.356, 7.155
1207.574, 31.095
1208.792, 8.573
1210.009, 7.176
1211.227, 62.489
1212.444, 53.317
1213.661, 45.973
1214.877, 9.803
1216.094, 20.623
1217.310, 25.228
1218.526, 48.120
1219.742, 27.955
1220.958, 38.412
1222.173, 72.921
1223.389, 19.323
1224.604, 54.082
1225.819, 12.835
1227.034, 15.298
1228.248, 57.893
1229.463, 32.767
1230.677, 53.343
1231.891, 39.564
1233.105, 88.105
1234.318, 28.754
1235.532, 38.050
1236.745, 8.518
1237.958, 16.271
1239.171, 102.623
1240.384, 29.034
1241.596, 9.432
1242.809, 93.867
1244.021, 7.275
1245.233, 72.534
1246.444, 27.676
1247.656, 30.891
1248.867, 27.992
1250.079, 4.938
1251.290, 23.481
1252.500, 9.511
1253.711, 65.441
1254.921, 11.855
1256.132, 65.696
1257.342, 7.808
1258.552, 115.914
1259.761, 59.601
1260.971, 6.746
1262.180, 127.872
1263.389, 49.553
1264.598, 15.371
1265.807, 73.846
1267.015, 82.308
1268.223, 42.776
1269.432, 4.129
1270.640, 70.120
1271.847, 109.381
1273.055, 49.391
1274.262, 112.143
1275.470, 18.372
1276.677, 16.521
1277.883, 145.314
1279.090, 45.316
1280.296, 22.365
1281.503, 82.467
1282.709, 64.341
1283.915, 134.852
1285.120, 103.822
1286.326, 52.581
1287.531, 39.445
1288.736, 73.116
1289.941, 73.746
1291.146, 108.478
1292.350, 43.026
1293.555, 169.585
1294.759, 133.094
1295.963, 55.521
1297.167, 55.103
1298.370, 111.427
1299.574, 77.711
1300.777, 149.020
1301.980, 149.217
1303.183, 56.369
1304.386, 170.489
1305.588, 92.545
1306.790, 124.550
1307.993, 203.564
1309.195, 97.484
1310.396, 150.360
1311.598, 267.197
1312.799, 115.993
1314.000, 191.749
1315.201, 193.466
1316.402, 146.142
1317.603, 183.777
1318.803, 162.370
1320.003, 135.917
1321.203, 176.740
1322.403, 141.209
1323.603, 205.637
1324.802, 143.097
1326.002, 139.440
1327.201, 190.745
1328.400, 190.006
1329.599, 142.181
1330.797, 213.287
1331.995, 173.861
1333.194, 245.842
1334.392, 170.373
1335.589, 167.916
1336.787, 245.881
1337.985, 204.009
1339.182, 181.932
1340.379, 225.027
1341.576, 152.344
1342.772, 131.711
1343.969, 201.645
1345.165, 250.340
1346.361, 194.930
1347.557, 193.482
1348.753, 183.079
1349.949, 195.870
1351.144, 132.391
1352.339, 168.214
1353.534, 192.059
1354.729, 128.894
1355.924, 82.580
1357.118, 173.710
1358.312, 71.176
1359.506, 193.566
1360.700, 129.295
1361.894, 215.685
1363.088, 157.531
1364.281, 117.527
1365.474, 74.755
1366.667, 73.703
1367.860, 99.906
1369.052, 88.824
1370.245, 63.229
1371.437, 67.380
1372.629, 177.763
1373.821, 35.107
1375.013, 114.599
1376.204, 123.882
1377.395, 61.934
1378.586, 85.328
1379.777, 145.537
1380.968, 84.529
1382.159, 161.599
1383.349, 149.736
1384.539, 86.695
1385.729, 141.747
1386.919, 105.517
1388.109, 129.618
1389.298, 168.749
1390.487, 123.365
1391.676, 145.057
1392.865, 140.430
1394.054, 65.089
1395.242, 130.428
1396.431, 138.459
1397.619, 53.474
1398.807, 132.436
1399.995, 62.911
1401.182, 57.486
1402.370, 149.133
1403.557, 153.983
1404.744, 123.906
1405.931, 96.278
1407.118, 60.540
1408.304, 185.818
1409.490, 114.217
1410.676, 101.114
1411.862, 169.025
1413.048, 17.902
1414.234, 133.975
1415.419, 170.704
1416.604, 40.480
1417.789, 87.770
1418.974, 95.679
1420.159, 9.115
1421.343, 115.153
1422.528, 87.242
1423.712, 62.416
1424.896, 126.338
1426.079, 8.159
1427.263, 62.363
1428.446, 126.520
1429.629, 66.635
1430.812, 120.726
1431.995, 104.608
1433.178, 63.099
1434.360, 181.241
1435.543, 82.333
1436.725, 84.087
1437.907, 138.097
1439.088, 42.242
1440.270, 126.622
1441.451, 149.352
1442.632, 71.325
1443.813, 113.595
1444.994, 105.813
1446.175, 76.741
1447.355, 150.646
1448.535, 81.011
1449.715, 63.623
1450.895, 174.949
1452.075, 88.291
1453.255, 199.625
1454.434, 145.077
1455.613, 126.841
1456.792, 179.465
1457.971, 154.325
1459.149, 165.089
1460.328, 197.535
1461.506, 169.760
1462.684, 152.665
1463.862, 167.237
1465.040, 159.412
1466.217, 221.078
1467.395, 252.202
1468.572, 235.561
1469.749, 248.688
1470.925, 216.199
1472.102, 153.685
1473.278, 168.844
1474.455, 85.948
1475.631, 168.084
1476.807, 208.639
1477.982, 102.701
1479.158, 162.863
1480.333, 184.639
1481.508, 55.154
1482.683, 152.424
1483.858, 204.932
1485.033, 92.604
1486.207, 210.133
1487.381, 143.901
1488.555, 177.682
1489.729, 213.482
1490.903, 165.325
1492.076, 221.253
1493.250, 294.206
1494.423, 204.221
1495.596, 209.312
1496.769, 246.573
1497.941, 141.980
1499.114, 219.559
1500.286, 197.279
1501.458, 97.187
1502.630, 205.271
1503.802, 173.538
1504.973, 122.011
1506.145, 220.720
1507.316, 156.704
1508.487, 113.017
1509.657, 161.707
1510.828, 103.823
1511.999, 148.435
1513.169, 159.641
1514.339, 8.421
1515.509, 97.424
1516.678, 178.420
1517.848, 10.407
1519.017, 56.148
1520.187, 0.000
##END=



