##NAMES=Pyrope
##RRUFFID=R050113
##IDEAL CHEMISTRY=Mg_3_Al_2_(SiO_4_)_3_
##LOCALITY=Warsik, Pakistan
##OWNER=RRUFF
##SOURCE=Farooq and Nazia Sawal
##DESCRIPTION=Reddish-purple fragment
##STATUS=The identification of this mineral has been confirmed by X-ray diffraction and chemical analysis
##URL=rruff.info/R050113
##MEASURED CHEMISTRY=(Mg_1.83_Fe^2+^_1.12_Ca_0.03_Mn_0.02_)_Σ=3_(Al_1.82_Fe^3+^_0.18_)_Σ=2_((Si_0.99_Al_0.01_)_Σ=1_O_4_)_3_
##PIN_ID=L00210
##ORIENTATION=Laser parallel to -a* (-1 0 0). Fiducial mark perpendicular to laser is parallel to b [0 1 0]
110.174, 0.000
111.566, 74.666
112.959, 54.945
114.351, 37.530
115.744, 141.998
117.136, 3.382
118.527, 102.816
119.919, 107.786
121.310, 153.189
122.701, 86.981
124.092, 51.480
125.482, 13.073
126.873, 63.503
128.263, 68.118
129.653, 39.329
131.042, 111.782
132.432, 81.948
133.821, 41.809
135.210, 37.307
136.599, 89.548
137.987, 82.672
139.376, 122.793
140.764, 68.015
142.152, 52.487
143.539, 19.396
144.927, 40.960
146.314, 27.525
147.701, 16.886
149.088, 65.817
150.474, 110.868
151.861, 197.193
153.247, 256.277
154.633, 320.356
156.018, 404.361
157.404, 502.399
158.789, 630.333
160.174, 915.980
161.559, 1156.364
162.943, 1392.503
164.327, 1372.760
165.711, 1418.114
167.095, 1195.613
168.479, 1152.925
169.862, 984.060
171.246, 912.027
172.628, 820.451
174.011, 729.917
175.394, 701.457
176.776, 570.820
178.158, 505.259
179.540, 405.529
180.922, 278.682
182.303, 238.411
183.684, 189.736
185.065, 115.507
186.446, 73.223
187.826, 41.549
189.207, 18.152
190.587, 0.341
191.967, 1.203
193.346, 51.019
194.726, 23.976
196.105, 2.086
197.484, 15.487
198.862, 3.736
200.241, 84.877
201.619, 128.513
202.997, 197.768
204.375, 263.621
205.753, 350.487
207.130, 482.362
208.507, 660.244
209.884, 878.121
211.261, 1145.984
212.638, 1345.829
214.014, 1531.660
215.390, 1647.477
216.766, 1681.275
218.141, 1577.054
219.517, 1406.811
220.892, 1198.547
222.267, 986.260
223.642, 846.951
225.016, 693.619
226.391, 599.261
227.765, 513.879
229.139, 446.471
230.512, 392.027
231.886, 358.532
233.259, 278.942
234.632, 219.240
236.005, 196.438
237.377, 181.535
238.749, 195.577
240.122, 149.586
241.493, 134.572
242.865, 104.534
244.237, 81.474
245.608, 72.393
246.979, 50.689
248.350, 14.167
249.720, 34.022
251.090, 16.859
252.461, 32.675
253.830, 52.512
255.200, 12.621
256.570, 8.300
257.939, 0.067
259.308, 19.294
260.677, 2.605
262.045, 2.880
263.414, 2.537
264.782, 11.198
266.150, 35.025
267.517, 22.148
268.885, 7.392
270.252, 52.453
271.619, 18.847
272.986, 20.376
274.353, 25.042
275.719, 20.053
277.085, 3.439
278.451, 7.513
279.817, 27.539
281.182, 45.200
282.548, 77.456
283.913, 103.883
285.278, 101.264
286.642, 98.392
288.007, 95.363
289.371, 114.818
290.735, 115.414
292.099, 159.849
293.462, 217.118
294.826, 243.512
296.189, 280.005
297.552, 299.677
298.914, 318.062
300.277, 331.291
301.639, 358.677
303.001, 372.923
304.363, 454.247
305.724, 510.257
307.086, 560.102
308.447, 661.545
309.808, 852.129
311.168, 927.586
312.529, 1084.645
313.889, 1185.132
315.249, 1309.557
316.609, 1466.025
317.969, 1569.440
319.328, 1751.710
320.687, 1909.915
322.046, 1957.076
323.405, 1972.202
324.764, 1932.293
326.122, 2008.352
327.480, 1947.378
328.838, 2011.373
330.196, 2106.338
331.553, 2330.273
332.910, 2706.180
334.267, 3152.060
335.624, 3818.911
336.981, 4841.735
338.337, 5995.525
339.693, 7602.282
341.049, 9289.004
342.405, 11022.683
343.760, 12326.313
345.116, 12829.894
346.471, 11993.355
347.826, 10576.560
349.180, 8659.362
350.535, 6861.746
351.889, 5356.721
353.243, 4374.310
354.597, 3504.726
355.950, 2938.053
357.304, 2419.984
358.657, 2168.057
360.010, 2038.276
361.362, 1850.405
362.715, 1774.728
364.067, 1898.668
365.419, 2052.971
366.771, 2252.571
368.123, 2506.439
369.474, 2811.413
370.825, 2913.388
372.176, 2800.360
373.527, 2679.333
374.877, 2386.303
376.228, 1993.268
377.578, 1645.229
378.928, 1299.187
380.277, 1041.143
381.627, 805.087
382.976, 671.018
384.325, 577.942
385.674, 487.862
387.023, 432.769
388.371, 315.669
389.719, 314.560
391.067, 249.443
392.415, 258.326
393.762, 238.199
395.110, 197.059
396.457, 156.916
397.804, 182.530
399.150, 123.042
400.497, 86.480
401.843, 123.970
403.189, 84.256
404.535, 98.469
405.881, 67.547
407.226, 72.429
408.571, 52.226
409.916, 93.834
411.261, 98.946
412.605, 105.347
413.950, 92.656
415.294, 77.987
416.638, 49.456
417.981, 36.524
419.325, 35.500
420.668, 30.224
422.011, 25.741
423.354, 52.565
424.697, 9.111
426.039, 10.923
427.381, 6.900
428.723, 56.192
430.065, 2.522
431.406, 17.775
432.748, 25.195
434.089, 26.277
435.430, 42.149
436.770, 15.753
438.111, 18.209
439.451, 57.864
440.791, 11.945
442.131, 67.889
443.471, 58.980
444.810, 54.309
446.149, 30.750
447.488, 62.145
448.827, 64.496
450.166, 113.801
451.504, 73.159
452.842, 92.489
454.180, 98.977
455.518, 110.675
456.855, 141.457
458.193, 172.278
459.530, 171.076
460.867, 163.850
462.203, 154.603
463.540, 208.332
464.876, 266.038
466.212, 276.722
467.548, 429.383
468.883, 508.024
470.219, 637.646
471.554, 839.247
472.889, 939.828
474.224, 1052.392
475.558, 975.935
476.892, 951.459
478.227, 793.963
479.561, 623.447
480.894, 544.912
482.228, 430.357
483.561, 410.784
484.894, 422.191
486.227, 428.580
487.559, 472.950
488.892, 538.362
490.224, 708.695
491.556, 852.015
492.888, 1163.549
494.220, 1434.920
495.551, 1946.380
496.882, 2421.806
498.213, 2697.358
499.544, 2686.865
500.874, 2504.244
502.205, 2096.770
503.535, 1679.184
504.865, 1398.929
506.194, 1100.358
507.524, 851.452
508.853, 732.871
510.182, 631.518
511.511, 541.028
512.840, 488.745
514.168, 444.802
515.496, 439.518
516.824, 447.820
518.152, 393.292
519.480, 395.801
520.807, 410.382
522.134, 382.727
523.461, 392.461
524.788, 371.730
526.114, 413.346
527.441, 488.415
528.767, 445.788
530.093, 461.283
531.418, 443.264
532.744, 461.221
534.069, 535.083
535.394, 567.777
536.719, 631.263
538.044, 716.766
539.368, 776.909
540.693, 877.521
542.017, 976.812
543.340, 1172.704
544.664, 1385.269
545.987, 1705.357
547.311, 2135.199
548.634, 2610.400
549.956, 3116.964
551.279, 3497.147
552.601, 3830.060
553.923, 3939.201
555.245, 3767.755
556.567, 3233.942
557.889, 2930.427
559.210, 2238.754
560.531, 1894.136
561.852, 1590.498
563.173, 1271.462
564.493, 1145.509
565.813, 945.075
567.133, 825.075
568.453, 759.163
569.773, 660.076
571.092, 659.082
572.412, 574.184
573.731, 598.397
575.049, 554.360
576.368, 521.104
577.686, 590.836
579.005, 545.463
580.323, 559.053
581.640, 533.611
582.958, 496.296
584.275, 471.707
585.593, 426.173
586.909, 395.552
588.226, 425.218
589.543, 442.561
590.859, 436.032
592.175, 459.588
593.491, 443.008
594.807, 452.640
596.122, 394.625
597.438, 368.152
598.753, 299.839
600.068, 342.312
601.382, 325.027
602.697, 291.695
604.011, 290.330
605.325, 308.854
606.639, 285.495
607.952, 289.135
609.266, 273.967
610.579, 304.617
611.892, 282.336
613.205, 342.068
614.518, 347.835
615.830, 365.716
617.142, 377.660
618.454, 413.587
619.766, 425.497
621.078, 463.143
622.389, 509.003
623.700, 535.113
625.011, 662.958
626.322, 702.320
627.632, 886.598
628.943, 887.393
630.253, 862.173
631.563, 836.937
632.872, 733.685
634.182, 610.417
635.491, 495.134
636.800, 437.834
638.109, 367.520
639.418, 319.189
640.726, 275.844
642.035, 219.483
643.343, 209.106
644.651, 163.715
645.958, 108.309
647.266, 159.887
648.573, 119.450
649.880, 62.998
651.187, 96.530
652.494, 70.046
653.800, 72.546
655.106, 37.030
656.412, 42.497
657.718, 67.947
659.024, 27.382
660.329, 48.799
661.634, 10.201
662.939, 34.583
664.244, 1.949
665.549, 3.708
666.853, 9.609
668.157, 6.093
669.461, 9.822
670.765, 0.421
672.069, 26.359
673.372, 4.175
674.675, 7.017
675.978, 39.885
677.281, 7.204
678.583, 20.274
679.886, 12.671
681.188, 37.644
682.490, 59.659
683.792, 3.726
685.093, 25.815
686.394, 42.939
687.696, 36.105
688.997, 52.311
690.297, 35.563
691.598, 28.852
692.898, 30.176
694.198, 37.534
695.498, 42.930
696.798, 3.367
698.097, 1.178
699.397, 25.294
700.696, 36.796
701.995, 2.667
703.293, 26.885
704.592, 17.467
705.890, 24.073
707.188, 50.707
708.486, 15.381
709.784, 3.078
711.081, 43.790
712.378, 25.538
713.675, 13.311
714.972, 21.897
716.269, 19.904
717.565, 3.275
718.862, 5.555
720.158, 6.397
721.453, 10.251
722.749, 16.881
724.045, 2.993
725.340, 16.876
726.635, 28.225
727.930, 7.320
729.224, 4.592
730.519, 4.486
731.813, 23.558
733.107, 9.625
734.401, 29.688
735.694, 27.745
736.988, 35.799
738.281, 48.849
739.574, 47.896
740.867, 10.939
742.160, 52.979
743.452, 52.016
744.744, 95.050
746.036, 53.081
747.328, 87.109
748.620, 101.135
749.911, 147.162
751.202, 200.187
752.493, 158.211
753.784, 192.233
755.075, 209.251
756.365, 254.267
757.655, 235.280
758.945, 195.290
760.235, 189.297
761.525, 190.302
762.814, 162.305
764.103, 137.304
765.392, 137.301
766.681, 95.295
767.969, 102.286
769.258, 89.275
770.546, 79.261
771.834, 70.244
773.122, 70.056
774.409, 71.556
775.697, 74.174
776.984, 82.145
778.271, 83.113
779.558, 83.078
780.844, 92.042
782.131, 141.003
783.417, 117.961
784.703, 146.918
785.989, 149.873
787.274, 140.827
788.560, 164.778
789.845, 153.729
791.130, 225.600
792.415, 210.121
793.699, 209.135
794.983, 204.520
796.268, 190.466
797.552, 210.453
798.835, 174.759
800.119, 252.300
801.402, 261.184
802.686, 292.129
803.969, 282.073
805.251, 350.786
806.534, 356.645
807.816, 400.404
809.098, 420.185
810.380, 404.832
811.662, 389.516
812.944, 428.323
814.225, 384.975
815.506, 408.737
816.787, 382.166
818.068, 396.907
819.349, 350.973
820.629, 340.705
821.909, 353.200
823.189, 305.821
824.469, 347.226
825.749, 302.293
827.028, 304.703
828.307, 349.532
829.586, 351.215
830.865, 311.858
832.144, 380.443
833.422, 363.268
834.700, 391.715
835.978, 415.627
837.256, 448.192
838.534, 492.299
839.811, 548.062
841.088, 546.786
842.365, 633.973
843.642, 661.186
844.919, 792.482
846.195, 864.238
847.472, 957.946
848.748, 1108.227
850.023, 1218.205
851.299, 1398.703
852.575, 1583.512
853.850, 1789.710
855.125, 1937.225
856.400, 2098.206
857.674, 2215.424
858.949, 2237.273
860.223, 2208.750
861.497, 2006.596
862.771, 1910.704
864.045, 1848.575
865.318, 1654.989
866.591, 1665.594
867.864, 1599.004
869.137, 1607.316
870.410, 1579.415
871.682, 1556.686
872.955, 1641.674
874.227, 1736.655
875.499, 1794.475
876.770, 1897.879
878.042, 2004.109
879.313, 2245.687
880.584, 2426.198
881.855, 2660.641
883.126, 2883.922
884.396, 3305.393
885.667, 3531.965
886.937, 4044.498
888.207, 4354.136
889.476, 4743.786
890.746, 5170.453
892.015, 5462.134
893.284, 6006.827
894.553, 6450.489
895.822, 6975.209
897.090, 7703.944
898.359, 8742.690
899.627, 10061.453
900.895, 11680.230
902.163, 13659.019
903.430, 16597.820
904.698, 19736.639
905.965, 23605.469
907.232, 28094.314
908.499, 33353.176
909.765, 37622.051
911.032, 40610.938
912.298, 41089.836
913.564, 39958.754
914.830, 36427.680
916.095, 31566.637
917.361, 26675.588
918.626, 22564.568
919.891, 18803.555
921.156, 15812.561
922.420, 13131.581
923.685, 11150.611
924.949, 9519.662
926.213, 8018.726
927.477, 6838.805
928.740, 5973.899
930.004, 5115.008
931.267, 4463.132
932.530, 3890.272
933.793, 3343.427
935.056, 2953.598
936.318, 2683.784
937.581, 2364.984
938.843, 2092.201
940.104, 1927.432
941.366, 1724.680
942.628, 1550.943
943.889, 1417.222
945.150, 1348.516
946.411, 1321.825
947.672, 1143.151
948.932, 1139.491
950.193, 1073.848
951.453, 1068.220
952.713, 1009.608
953.973, 970.011
955.232, 946.560
956.491, 918.999
957.751, 899.427
959.010, 894.314
960.268, 875.298
961.527, 864.644
962.785, 861.280
964.044, 911.311
965.302, 999.778
966.559, 1033.509
967.817, 1111.040
969.075, 1125.622
970.332, 1184.319
971.589, 1277.904
972.846, 1320.029
974.102, 1407.702
975.359, 1460.395
976.615, 1499.111
977.871, 1478.594
979.127, 1479.663
980.383, 1375.680
981.638, 1165.940
982.893, 1004.707
984.149, 942.628
985.404, 859.125
986.658, 738.804
987.913, 688.423
989.167, 597.406
990.421, 604.788
991.675, 570.294
992.929, 526.219
994.183, 509.923
995.436, 519.993
996.689, 496.461
997.942, 494.995
999.195, 493.721
1000.448, 484.887
1001.700, 495.080
1002.952, 496.290
1004.204, 514.514
1005.456, 548.760
1006.708, 529.030
1007.959, 561.318
1009.210, 524.627
1010.461, 533.956
1011.712, 567.866
1012.963, 620.682
1014.213, 649.081
1015.464, 720.494
1016.714, 779.938
1017.964, 834.403
1019.214, 862.885
1020.463, 924.382
1021.712, 1002.898
1022.962, 1078.428
1024.210, 1204.977
1025.459, 1390.541
1026.708, 1474.123
1027.956, 1768.721
1029.204, 1894.333
1030.452, 2098.964
1031.700, 2318.606
1032.948, 2449.260
1034.195, 2413.929
1035.442, 2319.611
1036.689, 2192.302
1037.936, 1992.008
1039.183, 1706.724
1040.429, 1497.454
1041.676, 1281.193
1042.922, 1103.943
1044.168, 1014.702
1045.413, 776.473
1046.659, 675.254
1047.904, 633.049
1049.149, 534.854
1050.394, 494.668
1051.639, 397.495
1052.884, 382.333
1054.128, 363.188
1055.372, 315.053
1056.616, 336.927
1057.860, 235.812
1059.104, 256.707
1060.347, 243.613
1061.590, 190.527
1062.833, 204.451
1064.076, 133.383
1065.319, 103.330
1066.561, 117.286
1067.803, 106.256
1069.046, 127.233
1070.287, 108.216
1071.529, 67.210
1072.771, 66.276
1074.012, 77.285
1075.253, 60.301
1076.494, 81.323
1077.735, 41.355
1078.975, 73.456
1080.216, 35.511
1081.456, 12.577
1082.696, 7.650
1083.936, 51.791
1085.175, 84.881
1086.415, 71.977
1087.654, 122.079
1088.893, 103.188
1090.132, 70.303
1091.371, 96.423
1092.609, 69.549
1093.847, 33.681
1095.085, 66.818
1096.323, 66.958
1097.561, 42.105
1098.799, 44.255
1100.036, 12.411
1101.273, 17.570
1102.510, 24.734
1103.747, 27.099
1104.983, 2.061
1106.220, 4.777
1107.456, 27.614
1108.692, 32.460
1109.928, 38.317
1111.163, 42.557
1112.399, 48.456
1113.634, 37.987
1114.869, 57.911
1116.104, 53.862
1117.339, 53.838
1118.573, 20.839
1119.808, 17.848
1121.042, 7.865
1122.276, 15.814
1123.509, 4.446
1124.743, 45.076
1125.976, 11.943
1127.210, 21.970
1128.443, 37.008
1129.675, 5.067
1130.908, 47.131
1132.141, 3.779
1133.373, 41.314
1134.605, 27.432
1135.837, 25.568
1137.068, 13.721
1138.300, 51.886
1139.531, 21.083
1140.762, 10.296
1141.993, 38.520
1143.224, 18.230
1144.455, 17.023
1145.685, 36.709
1146.915, 36.438
1148.145, 17.163
1149.375, 33.885
1150.605, 50.603
1151.834, 84.428
1153.063, 132.162
1154.292, 86.910
1155.521, 145.350
1156.750, 119.173
1157.978, 123.050
1159.207, 120.832
1160.435, 155.827
1161.663, 144.269
1162.891, 134.172
1164.118, 172.136
1165.345, 152.392
1166.573, 165.190
1167.800, 144.439
1169.026, 130.597
1170.253, 151.864
1171.480, 112.619
1172.706, 142.691
1173.932, 150.279
1175.158, 142.930
1176.383, 177.071
1177.609, 177.421
1178.834, 169.413
1180.059, 162.267
1181.284, 184.700
1182.509, 119.462
1183.734, 169.244
1184.958, 169.865
1186.182, 127.537
1187.406, 165.925
1188.630, 165.623
1189.854, 123.521
1191.077, 106.196
1192.301, 156.273
1193.524, 120.062
1194.747, 168.731
1195.969, 110.325
1197.192, 158.169
1198.414, 148.736
1199.636, 127.626
1200.858, 125.386
1202.080, 121.065
1203.302, 114.031
1204.523, 123.128
1205.744, 122.921
1206.966, 95.866
1208.186, 122.773
1209.407, 135.603
1210.628, 126.135
1211.848, 109.300
1213.068, 111.101
1214.288, 124.093
1215.508, 105.496
1216.727, 122.847
1217.947, 87.900
1219.166, 66.402
1220.385, 100.136
1221.604, 132.477
1222.822, 88.027
1224.041, 125.109
1225.259, 76.502
1226.477, 144.149
1227.695, 124.722
1228.913, 116.311
1230.130, 79.794
1231.348, 137.248
1232.565, 106.711
1233.782, 141.872
1234.999, 159.806
1236.215, 192.952
1237.432, 147.332
1238.648, 189.999
1239.864, 153.375
1241.080, 202.517
1242.296, 189.586
1243.511, 196.202
1244.726, 242.380
1245.942, 168.608
1247.156, 213.875
1248.371, 196.003
1249.586, 230.149
1250.800, 225.104
1252.014, 221.126
1253.228, 249.995
1254.442, 247.474
1255.656, 209.365
1256.869, 247.476
1258.083, 236.318
1259.296, 192.760
1260.509, 234.812
1261.722, 183.628
1262.934, 180.627
1264.147, 197.610
1265.359, 205.465
1266.571, 175.437
1267.783, 214.843
1268.994, 230.724
1270.206, 188.536
1271.417, 278.295
1272.628, 185.228
1273.839, 204.635
1275.050, 198.235
1276.260, 204.525
1277.471, 182.299
1278.681, 179.796
1279.891, 171.718
1281.101, 167.455
1282.310, 170.260
1283.520, 159.758
1284.729, 114.863
1285.938, 166.878
1287.147, 120.506
1288.356, 133.411
1289.564, 107.801
1290.773, 141.845
1291.981, 105.268
1293.189, 86.597
1294.397, 90.898
1295.604, 87.169
1296.812, 59.425
1298.019, 80.783
1299.226, 76.999
1300.433, 7.190
1301.640, 57.482
1302.846, 43.602
1304.053, 65.693
1305.259, 28.764
1306.465, 6.810
1307.671, 37.829
1308.876, 3.174
1310.082, 12.795
1311.287, 54.758
1312.492, 12.681
1313.697, 16.581
1314.902, 11.562
1316.106, 0.365
1317.310, 20.357
1318.515, 2.161
1319.719, 0.937
1320.922, 15.686
1322.126, 7.408
1323.329, 23.104
1324.533, 33.951
1325.736, 4.424
1326.939, 43.043
1328.141, 39.641
1329.344, 0.216
1330.546, 56.764
1331.748, 4.287
1332.950, 45.782
1334.152, 24.254
1335.354, 46.702
1336.555, 13.127
1337.757, 30.526
1338.958, 2.100
1340.159, 56.248
1341.359, 23.476
1342.560, 1.122
1343.760, 19.156
1344.960, 20.589
1346.160, 33.633
1347.360, 29.830
1348.560, 1.005
1349.759, 21.155
1350.959, 12.282
1352.158, 13.387
1353.357, 16.468
1354.555, 40.527
1355.754, 13.434
1356.952, 15.892
1358.151, 11.118
1359.349, 54.869
1360.546, 63.812
1361.744, 3.737
1362.941, 32.640
1364.139, 14.459
1365.336, 52.325
1366.533, 24.151
1367.730, 1.057
1368.926, 20.163
1370.123, 14.532
1371.319, 7.743
1372.515, 15.936
1373.711, 21.646
1374.906, 6.869
1376.102, 21.015
1377.297, 60.867
1378.492, 0.689
1379.687, 59.478
1380.882, 24.238
1382.077, 6.967
1383.271, 22.664
1384.465, 50.332
1385.659, 64.982
1386.853, 6.613
1388.047, 38.246
1389.240, 30.894
1390.434, 25.562
1391.627, 40.264
1392.820, 36.972
1394.013, 43.357
1395.205, 54.331
1396.398, 48.991
1397.590, 48.659
1398.782, 40.339
1399.974, 61.038
1401.166, 57.752
1402.357, 60.498
1403.549, 51.260
1404.740, 46.027
1405.931, 52.170
1407.122, 45.528
1408.313, 50.079
1409.503, 49.730
1410.693, 58.029
1411.883, 54.145
1413.073, 66.429
1414.263, 72.426
1415.453, 86.953
1416.642, 73.872
1417.831, 41.125
1419.020, 52.670
1420.209, 56.184
1421.398, 85.546
1422.587, 83.678
1423.775, 93.622
1424.963, 89.360
1426.151, 73.710
1427.339, 72.718
1428.526, 63.474
1429.714, 58.769
1430.901, 44.266
1432.088, 84.967
1433.275, 63.790
1434.462, 57.019
1435.648, 107.104
1436.835, 73.339
1438.021, 77.191
1439.207, 70.539
1440.393, 37.280
1441.579, 112.750
1442.764, 98.000
1443.949, 27.315
1445.135, 75.067
1446.320, 71.014
1447.504, 85.390
1448.689, 89.641
1449.873, 57.746
1451.058, 62.762
1452.242, 87.213
1453.426, 45.063
1454.609, 89.724
1455.793, 58.545
1456.976, 22.531
1458.159, 117.224
1459.342, 18.118
1460.525, 62.802
1461.708, 99.190
1462.890, 56.385
1464.073, 122.585
1465.255, 85.798
1466.437, 79.436
1467.619, 119.481
1468.800, 89.494
1469.982, 78.191
1471.163, 83.865
1472.344, 83.192
1473.525, 52.167
1474.706, 65.185
1475.886, 51.270
1477.066, 72.759
1478.247, 88.288
1479.427, 54.288
1480.607, 59.237
1481.786, 92.860
1482.966, 93.490
1484.145, 101.135
1485.324, 101.626
1486.503, 99.310
1487.682, 86.397
1488.860, 63.355
1490.039, 56.885
1491.217, 56.398
1492.395, 54.623
1493.573, 63.609
1494.751, 63.203
1495.928, 60.851
1497.106, 55.549
1498.283, 4.722
1499.460, 29.080
1500.637, 11.896
1501.814, 21.733
1502.990, 28.667
1504.166, 51.687
1505.342, 30.780
1506.518, 24.962
1507.694, 28.212
1508.870, 0.612
1510.045, 16.782
1511.221, 33.824
1512.396, 31.848
1513.571, 32.951
1514.745, 0.015
1515.920, 0.000
##END=



