##NAMES=Rhodonite
##RRUFFID=R040041
##IDEAL CHEMISTRY=CaMn^2+^_3_Mn^2+^Si_5_O_15_
##LOCALITY=Franklin, Sussex County, New Jersey, USA
##OWNER=RRUFF
##SOURCE=University of Arizona Mineral Museum
##DESCRIPTION=Pink prismatic crystals
##STATUS=The identification of this mineral has been confirmed by X-ray diffraction and chemical analysis
##URL=rruff.info/R040041
##MEASURED CHEMISTRY=(Mn_0.63_Ca_0.21_Zn_0.12_Mg_0.02_Fe_0.02_)_Î£=1_Si_1.00_O_3_
##PIN_ID=L00227
##ORIENTATION=Laser parallel to c* (0 0 1). Fiducial mark perpendicular to laser is parallel to a [1 0 0]
116.470, 0.000
117.861, 36.678
119.251, 12.649
120.642, 181.034
122.032, 508.226
123.422, 888.521
124.811, 1047.639
126.201, 1192.505
127.590, 1303.011
128.979, 1179.729
130.367, 1299.482
131.756, 1250.449
133.144, 1422.369
134.532, 2174.503
135.920, 1855.985
137.307, 2113.553
138.695, 2445.212
140.082, 2286.471
141.469, 2023.065
142.856, 1545.771
144.242, 1155.393
145.628, 582.373
147.014, 486.951
148.400, 292.464
149.786, 307.754
151.171, 379.910
152.556, 336.880
153.941, 432.720
155.325, 448.196
156.710, 412.465
158.094, 706.576
159.478, 716.497
160.862, 866.448
162.245, 731.580
163.629, 880.227
165.012, 819.141
166.395, 858.314
167.777, 967.733
169.160, 997.385
170.542, 1019.051
171.924, 952.617
173.306, 893.946
174.687, 714.609
176.068, 705.066
177.449, 615.688
178.830, 466.454
180.211, 187.331
181.591, 198.294
182.972, 189.342
184.351, 60.479
185.731, 321.702
187.111, 413.011
188.490, 444.518
189.869, 386.481
191.248, 378.500
192.626, 309.278
194.005, 232.688
195.383, 94.862
196.761, 22.901
198.139, 240.597
199.516, 228.211
200.893, 145.684
202.271, 312.993
203.647, 240.138
205.024, 47.120
206.400, 43.948
207.777, 159.367
209.152, 272.816
210.528, 556.391
211.904, 760.075
213.279, 723.857
214.654, 677.729
216.029, 691.682
217.403, 595.707
218.778, 459.799
220.152, 283.943
221.526, 318.109
222.900, 172.284
224.273, 136.467
225.646, 70.658
227.019, 144.859
228.392, 209.070
229.765, 133.292
231.137, 187.521
232.509, 231.748
233.881, 365.949
235.253, 410.164
236.625, 604.392
237.996, 758.633
239.367, 1122.835
240.738, 1156.685
242.108, 1250.164
243.479, 1443.285
244.849, 1326.339
246.219, 1569.461
247.589, 1392.647
248.958, 1395.920
250.328, 1259.279
251.697, 1162.694
253.065, 1076.144
254.434, 1089.621
255.803, 1163.122
257.171, 1296.888
258.539, 1351.648
259.906, 1643.988
261.274, 1682.509
262.641, 1596.547
264.008, 1659.970
265.375, 1513.424
266.742, 1226.914
268.108, 1120.441
269.475, 1124.014
270.840, 1167.660
272.206, 981.392
273.572, 1025.283
274.937, 1079.309
276.302, 1013.454
277.667, 1097.773
279.032, 982.128
280.396, 916.567
281.760, 792.976
283.125, 760.118
284.488, 677.679
285.852, 665.491
287.215, 633.427
288.578, 501.533
289.941, 629.648
291.304, 587.781
292.666, 645.906
294.029, 723.994
295.391, 1002.033
296.753, 1150.012
298.114, 1397.930
299.476, 1665.781
300.837, 1753.567
302.198, 1841.260
303.558, 1928.801
304.919, 2056.188
306.279, 2103.441
307.639, 2010.578
308.999, 2087.610
310.359, 2034.551
311.718, 1851.406
313.077, 1738.175
314.436, 1654.854
315.795, 1911.415
317.154, 1767.925
318.512, 2044.387
319.870, 2150.806
321.228, 2127.049
322.586, 2302.610
323.943, 2087.552
325.300, 2182.081
326.657, 2136.521
328.014, 2260.987
329.371, 2225.480
330.727, 2409.997
332.083, 2574.539
333.439, 2679.103
334.795, 2983.680
336.150, 3118.264
337.506, 3202.860
338.861, 3177.477
340.215, 3192.109
341.570, 3106.762
342.924, 3081.430
344.279, 3135.521
345.633, 3119.759
346.986, 3153.974
348.340, 2785.860
349.693, 2610.606
351.046, 2375.367
352.399, 2200.141
353.752, 2144.924
355.104, 2239.719
356.457, 2174.523
357.809, 2399.189
359.160, 2302.800
360.512, 2551.361
361.863, 2736.371
363.214, 2542.271
364.565, 2503.456
365.916, 2454.285
367.267, 2349.745
368.617, 2287.595
369.967, 2106.308
371.317, 1931.554
372.666, 1587.801
374.016, 1464.306
375.365, 1230.248
376.714, 976.253
378.063, 771.677
379.411, 682.964
380.760, 628.116
382.108, 625.217
383.456, 580.724
384.803, 496.471
386.151, 581.160
387.498, 506.137
388.845, 463.271
390.192, 505.478
391.539, 320.337
392.885, 234.884
394.231, 119.209
395.577, 104.564
396.923, 0.532
398.269, 34.366
399.614, 69.262
400.959, 135.849
402.304, 220.993
403.649, 13.807
404.993, 18.604
406.337, 123.402
407.681, 248.203
409.025, 293.043
410.369, 348.378
411.712, 373.182
413.055, 518.792
414.398, 713.598
415.741, 839.321
417.084, 994.735
418.426, 1340.306
419.768, 1307.362
421.110, 1252.697
422.452, 1244.397
423.793, 810.889
425.134, 708.436
426.475, 482.112
427.816, 376.902
429.157, 344.652
430.497, 348.542
431.837, 297.278
433.177, 358.400
434.517, 396.918
435.857, 504.011
437.196, 599.936
438.535, 495.833
439.874, 538.169
441.213, 533.536
442.551, 419.680
443.889, 335.024
445.227, 324.128
446.565, 261.198
447.903, 368.731
449.240, 434.080
450.577, 339.354
451.914, 564.385
453.251, 539.846
454.588, 674.938
455.924, 550.316
457.260, 555.128
458.596, 660.240
459.932, 345.362
461.267, 380.099
462.602, 372.811
463.938, 509.346
465.272, 393.665
466.607, 317.960
467.941, 272.229
469.276, 486.485
470.610, 560.764
471.943, 595.018
473.277, 669.249
474.610, 743.456
475.944, 787.680
477.276, 711.881
478.609, 826.092
479.942, 710.312
481.274, 594.510
482.606, 628.708
483.938, 582.910
485.270, 257.117
486.601, 581.307
487.932, 625.529
489.263, 489.769
490.594, 1023.989
491.925, 1188.200
493.255, 1352.398
494.585, 1416.592
495.915, 1190.768
497.245, 1264.928
498.575, 1039.069
499.904, 873.193
501.233, 637.299
502.562, 701.400
503.891, 685.482
505.219, 589.593
506.548, 773.684
507.876, 797.757
509.203, 881.821
510.531, 1315.862
511.859, 1299.883
513.186, 1403.881
514.513, 1367.854
515.840, 1171.807
517.166, 1195.733
518.493, 949.640
519.819, 763.526
521.145, 677.419
522.470, 731.370
523.796, 425.380
525.121, 249.424
526.446, 393.545
527.771, 217.725
529.096, 81.909
530.421, 96.092
531.745, 11.146
533.069, 4.358
534.393, 38.431
535.716, 32.467
537.040, 146.467
538.363, 69.564
539.686, 214.321
541.009, 1.822
542.331, 131.985
543.654, 75.760
544.976, 299.499
546.298, 173.212
547.620, 106.895
548.941, 400.547
550.263, 284.173
551.584, 327.770
552.905, 401.340
554.225, 554.812
555.546, 898.190
556.866, 911.060
558.186, 704.084
559.506, 997.223
560.826, 513.233
562.145, 413.871
563.465, 426.685
564.784, 319.487
566.103, 282.697
567.421, 265.943
568.740, 149.159
570.058, 282.340
571.376, 85.490
572.694, 278.604
574.011, 61.686
575.329, 134.729
576.646, 97.735
577.963, 0.886
579.279, 154.114
580.596, 73.006
581.912, 10.116
583.228, 7.146
584.544, 104.467
585.860, 121.896
587.175, 9.446
588.491, 107.059
589.806, 24.756
591.121, 62.549
592.435, 180.256
593.750, 1.856
595.064, 34.342
596.378, 35.637
597.692, 81.552
599.006, 110.821
600.319, 23.124
601.632, 120.081
602.945, 28.103
604.258, 4.071
605.571, 3.526
606.883, 98.385
608.195, 110.474
609.507, 162.282
610.819, 64.611
612.131, 136.151
613.442, 67.954
614.753, 209.410
616.064, 130.569
617.375, 121.948
618.685, 219.543
619.995, 371.281
621.306, 181.703
622.615, 423.052
623.925, 394.540
625.235, 405.794
626.544, 389.335
627.853, 421.195
629.162, 452.491
630.471, 484.489
631.779, 555.297
633.087, 655.311
634.395, 686.498
635.703, 904.977
637.011, 843.003
638.318, 1084.233
639.625, 1110.113
640.932, 1386.178
642.239, 1351.802
643.546, 1662.416
644.852, 1644.070
646.158, 1922.155
647.464, 2182.557
648.770, 2454.317
650.076, 2645.280
651.381, 2928.521
652.686, 3898.929
653.991, 4359.602
655.296, 5319.865
656.600, 6620.184
657.905, 8160.643
659.209, 10283.888
660.513, 12763.952
661.817, 15824.520
663.120, 20204.250
664.423, 24374.016
665.726, 28193.662
667.029, 30593.275
668.332, 31082.842
669.635, 29442.367
670.937, 25781.850
672.239, 22081.293
673.541, 18210.689
674.842, 15630.051
676.144, 12719.371
677.445, 11178.645
678.746, 9677.883
680.047, 8547.078
681.348, 7276.230
682.648, 6305.303
683.948, 5184.369
685.248, 4223.217
686.548, 3621.443
687.848, 2789.684
689.147, 2417.234
690.447, 2214.488
691.746, 1682.266
693.044, 1679.941
694.343, 1348.160
695.641, 1280.475
696.940, 1198.883
698.238, 1115.305
699.535, 963.277
700.833, 1000.973
702.130, 879.457
703.427, 1027.467
704.724, 1155.154
706.021, 1103.520
707.318, 1161.844
708.614, 1320.125
709.910, 1828.371
711.206, 1966.574
712.502, 2484.742
713.798, 2262.869
715.093, 2440.963
716.388, 2329.014
717.683, 1797.062
718.978, 1755.127
720.272, 1023.154
721.567, 1151.146
722.861, 819.100
724.155, 746.977
725.448, 694.324
726.742, 572.164
728.035, 649.160
729.328, 646.924
730.621, 373.730
731.914, 440.809
733.206, 287.697
734.499, 253.777
735.791, 430.092
737.083, 240.686
738.374, 456.385
739.666, 510.988
740.957, 409.426
742.248, 436.713
743.539, 381.002
744.830, 279.113
746.120, 422.340
747.410, 233.146
748.701, 226.520
749.990, 121.277
751.280, 157.166
752.570, 393.037
753.859, 92.432
755.148, 98.752
756.437, 45.744
757.725, 190.486
759.014, 82.908
760.302, 27.309
761.590, 111.189
762.878, 57.197
764.166, 113.225
765.453, 19.438
766.740, 155.160
768.027, 81.197
769.314, 133.109
770.601, 213.051
771.887, 148.857
773.174, 75.400
774.460, 40.646
775.745, 122.961
777.031, 112.756
778.316, 69.014
779.602, 115.242
780.887, 18.555
782.172, 152.402
783.456, 73.631
784.741, 29.635
786.025, 35.609
787.309, 128.443
788.593, 57.396
789.876, 106.789
791.160, 101.066
792.443, 14.566
793.726, 69.828
795.009, 74.293
796.291, 68.832
797.574, 116.562
798.856, 168.068
800.138, 112.820
801.420, 132.342
802.702, 12.518
803.983, 2.588
805.264, 42.336
806.545, 82.688
807.826, 7.691
809.107, 92.668
810.387, 67.625
811.667, 22.559
812.947, 52.529
814.227, 92.334
815.507, 172.820
816.786, 171.908
818.065, 126.623
819.344, 301.320
820.623, 312.498
821.902, 170.662
823.180, 265.309
824.459, 229.941
825.737, 234.555
827.014, 179.156
828.292, 283.742
829.569, 328.314
830.847, 422.871
832.124, 457.414
833.401, 651.943
834.677, 556.500
835.954, 1071.043
837.230, 975.572
838.506, 1260.117
839.782, 1244.650
841.057, 1289.176
842.333, 1103.691
843.608, 908.203
844.883, 812.713
846.158, 692.777
847.433, 631.717
848.707, 526.205
849.981, 400.713
851.255, 285.215
852.529, 579.719
853.803, 394.217
855.076, 628.711
856.350, 453.197
857.623, 377.676
858.895, 502.152
860.168, 516.621
861.441, 571.084
862.713, 295.568
863.985, 430.043
865.257, 864.555
866.528, 409.061
867.800, 683.562
869.071, 918.061
870.342, 792.555
871.613, 1337.051
872.884, 941.586
874.154, 1316.117
875.425, 1250.715
876.695, 1215.305
877.965, 1089.896
879.234, 854.488
880.504, 895.281
881.773, 723.674
883.042, 928.285
884.311, 912.896
885.580, 1037.512
886.848, 871.951
888.117, 906.271
889.385, 710.914
890.653, 915.254
891.920, 949.932
893.188, 894.629
894.455, 709.363
895.722, 494.189
896.989, 619.027
898.256, 603.885
899.523, 448.812
900.789, 793.596
902.055, 628.467
903.321, 472.930
904.587, 947.557
905.852, 672.664
907.118, 867.156
908.383, 971.684
909.648, 1241.533
910.913, 1526.488
912.177, 1581.031
913.442, 1775.305
914.706, 1790.021
915.970, 1754.529
917.233, 1639.281
918.497, 1590.340
919.760, 1358.436
921.024, 1323.096
922.287, 1198.062
923.550, 1123.539
924.812, 1198.281
926.075, 1087.016
927.337, 1011.574
928.599, 1107.422
929.861, 1322.307
931.122, 1287.020
932.384, 1461.939
933.645, 1874.539
934.906, 2238.793
936.167, 2113.582
937.428, 2158.201
938.688, 1932.859
939.948, 1808.840
941.208, 1743.621
942.468, 1221.084
943.728, 1158.965
944.987, 983.615
946.247, 1003.586
947.506, 1113.340
948.765, 963.506
950.023, 1268.656
951.282, 832.736
952.540, 1170.729
953.798, 1366.008
955.056, 1200.105
956.314, 1384.766
957.572, 1527.117
958.829, 1732.275
960.086, 2277.137
961.343, 2442.379
962.600, 3137.551
963.856, 3472.541
965.113, 4694.717
966.369, 5890.336
967.625, 7255.129
968.881, 9420.777
970.136, 10816.324
971.392, 12511.953
972.647, 13127.598
973.902, 12673.258
975.157, 11768.936
976.411, 11024.625
977.666, 9870.324
978.920, 9356.438
980.174, 8992.162
981.428, 8807.928
982.682, 9733.984
983.935, 9839.996
985.188, 11834.811
986.441, 12800.691
987.694, 15196.531
988.947, 17948.498
990.199, 19384.391
991.452, 20930.660
992.704, 20466.764
993.956, 19052.697
995.207, 18739.285
996.459, 18335.250
997.710, 19771.289
998.961, 20977.334
1000.212, 22303.398
1001.463, 24070.107
1002.714, 23606.980
1003.964, 21823.090
1005.214, 18859.746
1006.464, 15295.895
1007.714, 12662.289
1008.964, 10279.141
1010.213, 8405.613
1011.462, 7212.375
1012.711, 6164.332
1013.960, 5840.543
1015.209, 5466.852
1016.457, 4833.381
1017.705, 4610.617
1018.954, 4217.637
1020.201, 4044.438
1021.449, 3691.854
1022.697, 3639.439
1023.944, 3655.896
1025.191, 3369.086
1026.438, 3285.555
1027.685, 3212.746
1028.931, 3320.432
1030.177, 3175.111
1031.423, 3064.539
1032.669, 2976.117
1033.915, 3002.994
1035.161, 2840.295
1036.406, 2718.188
1037.651, 2905.219
1038.896, 2974.314
1040.141, 2931.416
1041.386, 3648.086
1042.630, 3925.887
1043.874, 4195.312
1045.118, 4840.555
1046.362, 4687.576
1047.606, 5174.633
1048.849, 5168.062
1050.092, 4795.307
1051.336, 4731.988
1052.578, 4101.066
1053.821, 3567.746
1055.064, 2858.256
1056.306, 2424.934
1057.548, 2321.619
1058.790, 1312.129
1060.032, 1539.152
1061.273, 1345.875
1062.515, 1112.922
1063.756, 1169.607
1064.997, 947.475
1066.237, 964.744
1067.478, 841.463
1068.718, 798.887
1069.959, 1025.922
1071.199, 742.588
1072.438, 680.441
1073.678, 787.275
1074.918, 524.352
1076.157, 781.986
1077.396, 688.695
1078.635, 675.443
1079.873, 632.477
1081.112, 379.271
1082.350, 486.455
1083.588, 543.428
1084.826, 421.400
1086.064, 598.256
1087.301, 545.105
1088.539, 492.676
1089.776, 459.557
1091.013, 176.766
1092.250, 373.996
1093.486, 510.918
1094.723, 187.832
1095.959, 374.762
1097.195, 81.703
1098.431, 460.059
1099.666, 297.006
1100.902, 5.783
1102.137, 442.115
1103.372, 19.107
1104.607, 156.090
1105.842, 233.328
1107.076, 430.301
1108.311, 137.820
1109.545, 295.535
1110.779, 82.463
1112.012, 239.379
1113.246, 346.279
1114.479, 23.576
1115.712, 250.457
1116.945, 87.363
1118.178, 255.826
1119.411, 332.699
1120.643, 169.553
1121.875, 337.973
1123.108, 575.340
1124.339, 272.152
1125.571, 329.354
1126.802, 26.125
1128.034, 432.869
1129.265, 119.969
1130.496, 56.840
1131.727, 73.986
1132.957, 177.898
1134.187, 121.805
1135.418, 172.447
1136.648, 126.207
1137.877, 362.828
1139.107, 70.674
1140.336, 117.920
1141.566, 214.770
1142.795, 12.316
1144.023, 259.705
1145.252, 230.031
1146.480, 286.871
1147.709, 303.943
1148.937, 42.814
1150.165, 9.920
1151.392, 357.811
1152.620, 74.443
1153.847, 201.176
1155.074, 149.189
1156.301, 46.207
1157.528, 142.570
1158.755, 78.697
1159.981, 94.828
1161.207, 271.910
1162.433, 161.670
1163.659, 154.225
1164.885, 51.826
1166.110, 107.285
1167.336, 164.547
1168.561, 38.213
1169.786, 156.334
1171.010, 361.047
1172.235, 243.312
1173.459, 321.641
1174.683, 141.971
1175.907, 26.883
1177.131, 81.693
1178.355, 290.799
1179.578, 44.484
1180.801, 241.523
1182.024, 150.775
1183.247, 25.301
1184.470, 240.725
1185.692, 5.631
1186.915, 229.979
1188.137, 345.729
1189.359, 70.438
1190.580, 315.107
1191.802, 129.914
1193.023, 264.229
1194.244, 259.219
1195.465, 56.619
1196.686, 217.754
1197.907, 442.217
1199.127, 15.896
1200.347, 480.199
1201.567, 165.697
1202.787, 437.693
1204.007, 361.125
1205.226, 4.428
1206.446, 288.830
1207.665, 362.770
1208.884, 286.301
1210.102, 419.355
1211.321, 92.662
1212.539, 236.230
1213.758, 369.135
1214.976, 203.273
1216.193, 296.076
1217.411, 399.535
1218.628, 112.555
1219.846, 355.240
1221.063, 298.287
1222.280, 172.016
1223.496, 444.836
1224.713, 418.943
1225.929, 336.416
1227.145, 448.430
1228.361, 325.539
1229.577, 378.098
1230.793, 153.025
1232.008, 425.607
1233.223, 648.496
1234.438, 252.244
1235.653, 545.648
1236.868, 348.033
1238.082, 350.889
1239.297, 452.898
1240.511, 454.859
1241.725, 437.875
1242.938, 519.736
1244.152, 122.811
1245.365, 534.570
1246.578, 386.283
1247.791, 229.125
1249.004, 490.664
1250.217, 601.922
1251.429, 383.596
1252.642, 464.943
1253.854, 316.160
1255.066, 267.371
1256.277, 628.443
1257.489, 640.035
1258.700, 530.980
1259.911, 361.869
1261.122, 512.914
1262.333, 813.682
1263.544, 124.148
1264.754, 575.834
1265.964, 516.150
1267.174, 131.740
1268.384, 342.006
1269.594, 482.012
1270.803, 373.012
1272.013, 582.859
1273.222, 528.459
1274.431, 381.811
1275.640, 431.355
1276.848, 360.559
1278.057, 149.752
1279.265, 50.088
1280.473, 28.594
1281.681, 14.871
1282.888, 61.609
1284.096, 141.207
1285.303, 249.828
1286.510, 338.564
1287.717, 167.930
1288.924, 196.062
1290.131, 135.227
1291.337, 313.350
1292.543, 251.848
1293.749, 60.139
1294.955, 227.682
1296.161, 104.975
1297.366, 323.645
1298.571, 290.996
1299.777, 88.787
1300.981, 206.254
1302.186, 353.188
1303.391, 400.436
1304.595, 307.312
1305.799, 218.922
1307.003, 286.207
1308.207, 373.332
1309.411, 429.842
1310.614, 516.209
1311.818, 92.406
1313.021, 51.266
1314.224, 424.314
1315.426, 59.641
1316.629, 326.027
1317.831, 515.621
1319.033, 178.131
1320.235, 417.330
1321.437, 472.229
1322.639, 2.732
1323.840, 553.061
1325.042, 113.842
1326.243, 10.744
1327.444, 674.174
1328.644, 111.574
1329.845, 303.475
1331.045, 456.396
1332.245, 101.252
1333.445, 306.477
1334.645, 300.514
1335.845, 215.502
1337.044, 369.340
1338.244, 153.988
1339.443, 338.551
1340.642, 256.689
1341.840, 220.971
1343.039, 455.771
1344.237, 228.473
1345.435, 263.211
1346.633, 574.096
1347.831, 358.932
1349.029, 103.609
1350.226, 364.463
1351.424, 188.834
1352.621, 273.504
1353.818, 598.457
1355.014, 303.244
1356.211, 226.932
1357.407, 554.205
1358.604, 85.941
1359.800, 623.598
1360.995, 211.117
1362.191, 309.180
1363.387, 596.734
1364.582, 284.840
1365.777, 112.617
1366.972, 319.316
1368.167, 57.260
1369.361, 35.686
1370.556, 108.680
1371.750, 31.041
1372.944, 336.500
1374.138, 2.375
1375.331, 308.439
1376.525, 225.674
1377.718, 62.512
1378.911, 98.014
1380.104, 314.969
1381.297, 191.359
1382.490, 738.137
1383.682, 512.914
1384.874, 117.545
1386.066, 633.309
1387.258, 99.119
1388.450, 444.881
1389.641, 460.209
1390.833, 60.340
1392.024, 404.637
1393.215, 625.127
1394.406, 308.984
1395.596, 501.432
1396.787, 356.859
1397.977, 337.086
1399.167, 458.254
1400.357, 211.363
1401.547, 411.773
1402.736, 405.471
1403.925, 227.750
1405.115, 410.916
1406.304, 697.457
1407.492, 16.143
1408.681, 426.508
1409.870, 80.242
1411.058, 229.352
1412.246, 506.094
1413.434, 17.438
1414.622, 683.283
1415.809, 367.564
1416.997, 408.219
1418.184, 599.629
1419.371, 420.949
1420.558, 251.658
1421.744, 652.340
1422.931, 404.062
1424.117, 216.088
1425.303, 716.803
1426.489, 98.246
1427.675, 560.363
1428.861, 431.410
1430.046, 101.566
1431.231, 642.730
1432.416, 474.500
1433.601, 353.453
1434.786, 711.410
1435.970, 251.129
1437.155, 511.008
1438.339, 454.746
1439.523, 9.590
1440.707, 615.547
1441.890, 1002.867
1443.074, 289.086
1444.257, 804.535
1445.440, 812.766
1446.623, 516.801
1447.806, 914.102
1448.989, 452.055
1450.171, 319.879
1451.353, 935.992
1452.535, 342.016
1453.717, 639.816
1454.899, 904.328
1456.080, 395.324
1457.262, 850.191
1458.443, 698.676
1459.624, 407.246
1460.805, 1065.656
1461.985, 413.891
1463.166, 621.633
1464.346, 877.223
1465.526, 332.555
1466.706, 739.645
1467.886, 696.555
1469.065, 304.648
1470.245, 669.875
1471.424, 678.441
1472.603, 347.184
1473.782, 626.113
1474.960, 665.242
1476.139, 564.504
1477.317, 464.039
1478.495, 634.383
1479.673, 335.645
1480.851, 697.207
1482.029, 229.156
1483.206, 481.875
1484.383, 615.449
1485.560, 39.992
1486.737, 825.617
1487.914, 622.402
1489.091, 110.617
1490.267, 570.492
1491.443, 272.320
1492.619, 556.578
1493.795, 646.625
1494.971, 82.523
1496.146, 625.230
1497.322, 483.719
1498.497, 3.410
1499.672, 0.000
##END=



