##NAMES=Rhodochrosite
##RRUFFID=R050116
##IDEAL CHEMISTRY=Mn^2+^CO_3_
##LOCALITY=Wudong mine, Liubao, Guangxi Autonomous Region, China
##OWNER=RRUFF
##SOURCE=He Xin Jian
##DESCRIPTION=Pink crystal associated with colorless quartz
##STATUS=The identification of this mineral has been confirmed by X-ray diffraction and chemical analysis
##URL=rruff.info/R050116
##MEASURED CHEMISTRY=(Mn_0.81_Fe_0.17_Mg_0.01_Ca_0.01_)CO_3_
##PIN_ID=L00524
##ORIENTATION=Laser parallel to a* (1 0 0). Fiducial mark perpendicular to laser is parallel to c [0 0 1]
47.490, 0.000
48.899, 22.207
50.308, 17.568
51.717, 22.818
53.126, 22.656
54.534, 21.982
55.942, 20.362
57.350, 25.306
58.758, 19.703
60.165, 29.805
61.572, 42.802
62.979, 29.606
64.386, 36.901
65.792, 16.543
67.198, 28.969
68.604, 29.314
70.010, 25.135
71.415, 28.837
72.820, 36.002
74.225, 15.891
75.630, 35.013
77.034, 39.032
78.438, 0.941
79.842, 5.846
81.246, 6.821
82.649, 13.787
84.053, 16.786
85.455, 2.107
86.858, 1.035
88.260, 8.931
89.663, 0.962
91.065, 2.933
92.466, 5.861
93.868, 2.883
95.269, 1.030
96.670, 26.090
98.070, 17.198
99.471, 19.295
100.871, 0.626
102.271, 18.426
103.670, 15.445
105.070, 11.434
106.469, 26.394
107.868, 40.327
109.267, 51.235
110.665, 44.120
112.063, 48.982
113.461, 39.824
114.859, 35.645
116.256, 48.447
117.653, 35.231
119.050, 37.998
120.447, 33.751
121.843, 25.489
123.240, 41.214
124.636, 38.927
126.031, 21.630
127.427, 26.357
128.822, 49.229
130.217, 30.267
131.612, 46.627
133.006, 48.117
134.400, 46.380
135.794, 47.654
137.188, 53.604
138.581, 64.054
139.975, 55.019
141.368, 66.070
142.760, 66.527
144.153, 63.532
145.545, 70.604
146.937, 71.497
148.329, 79.392
149.720, 96.285
151.112, 95.219
152.503, 92.965
153.893, 114.609
155.284, 117.198
156.674, 142.626
158.064, 139.031
159.454, 157.431
160.843, 167.828
162.233, 209.224
163.622, 201.619
165.011, 247.013
166.399, 241.406
167.787, 263.796
169.175, 339.185
170.563, 388.572
171.951, 462.957
173.338, 559.339
174.725, 721.719
176.112, 913.097
177.499, 1175.473
178.885, 1429.846
180.271, 1718.215
181.657, 1844.582
183.043, 1840.944
184.428, 1770.304
185.813, 1418.662
187.198, 1111.016
188.583, 800.366
189.967, 574.748
191.351, 436.180
192.735, 315.553
194.119, 233.935
195.502, 167.302
196.885, 140.673
198.268, 107.118
199.651, 78.506
201.033, 72.880
202.415, 61.281
203.797, 48.312
205.179, 42.487
206.561, 33.622
207.942, 27.005
209.323, 25.358
210.703, 17.698
212.084, 12.021
213.464, 4.396
214.844, 2.451
216.224, 1.520
217.603, 7.457
218.983, 3.550
220.362, 6.501
221.741, 5.475
223.119, 3.372
224.497, 2.263
225.875, 3.908
227.253, 3.093
228.631, 4.301
230.008, 7.582
231.385, 4.879
232.762, 0.758
234.139, 5.598
235.515, 3.964
236.891, 1.525
238.267, 5.920
239.643, 0.592
241.018, 4.083
242.393, 3.625
243.768, 7.085
245.143, 12.229
246.517, 6.477
247.891, 9.767
249.265, 4.116
250.639, 11.479
252.012, 4.499
253.386, 4.669
254.759, 8.249
256.131, 13.312
257.504, 13.508
258.876, 19.760
260.248, 18.976
261.620, 20.029
262.991, 29.459
264.363, 41.683
265.734, 51.165
267.104, 62.215
268.475, 80.556
269.845, 93.740
271.215, 97.076
272.585, 128.383
273.955, 136.750
275.324, 156.154
276.693, 193.505
278.062, 224.852
279.431, 272.213
280.799, 342.538
282.167, 444.903
283.535, 534.227
284.903, 637.554
286.270, 674.877
287.638, 739.176
289.005, 733.428
290.371, 726.850
291.738, 661.120
293.104, 562.385
294.470, 464.708
295.836, 360.984
297.201, 309.289
298.567, 240.584
299.932, 212.874
301.296, 158.158
302.661, 132.435
304.025, 115.701
305.389, 100.954
306.753, 80.200
308.117, 80.439
309.480, 49.669
310.843, 72.896
312.206, 48.119
313.569, 48.338
314.931, 47.554
316.293, 42.766
317.655, 34.975
319.017, 32.182
320.378, 28.171
321.740, 26.590
323.101, 28.793
324.461, 26.994
325.822, 40.194
327.182, 42.392
328.542, 34.589
329.902, 18.785
331.261, 17.979
332.621, 15.171
333.980, 21.362
335.339, 22.551
336.697, 17.739
338.056, 22.925
339.414, 20.109
340.772, 22.294
342.129, 20.477
343.487, 19.658
344.844, 15.838
346.201, 7.016
347.557, 19.193
348.914, 14.368
350.270, 21.542
351.626, 13.714
352.982, 15.885
354.337, 12.054
355.693, 1.779
357.048, 8.387
358.402, 10.550
359.757, 17.712
361.111, 9.872
362.465, 14.031
363.819, 6.187
365.173, 19.342
366.526, 13.496
367.879, 17.647
369.232, 19.797
370.585, 12.928
371.937, 18.031
373.290, 17.126
374.642, 8.188
375.993, 13.226
377.345, 25.200
378.696, 14.146
380.047, 19.072
381.398, 14.462
382.748, 24.407
384.099, 6.377
385.449, 16.334
386.799, 9.266
388.148, 14.179
389.497, 8.768
390.847, 5.405
392.196, 12.963
393.544, 7.314
394.893, 8.831
396.241, 4.696
397.589, 4.166
398.936, 6.081
400.284, 3.194
401.631, 5.251
402.978, 2.897
404.325, 1.988
405.672, 10.915
407.018, 11.847
408.364, 11.817
409.710, 3.746
411.055, 4.702
412.401, 6.611
413.746, 0.425
415.091, 4.490
416.435, 0.407
417.780, 4.362
419.124, 7.342
420.468, 3.323
421.812, 0.330
423.155, 2.334
424.498, 6.344
425.842, 18.392
427.184, 4.547
428.527, 3.512
429.869, 0.429
431.211, 22.628
432.553, 5.684
433.895, 14.740
435.236, 8.794
436.577, 0.153
437.918, 18.898
439.259, 11.948
440.599, 6.997
441.940, 27.044
443.280, 4.091
444.619, 9.135
445.959, 15.190
447.298, 6.252
448.637, 3.418
449.976, 3.588
451.315, 17.630
452.653, 4.841
453.991, 23.923
455.329, 8.185
456.667, 15.226
458.004, 19.260
459.341, 14.292
460.678, 20.324
462.015, 16.354
463.352, 13.390
464.688, 28.418
466.024, 21.460
467.360, 23.487
468.695, 25.512
470.031, 21.539
471.366, 16.563
472.701, 24.586
474.035, 25.644
475.370, 33.666
476.704, 32.687
478.038, 28.707
479.372, 30.745
480.705, 38.829
482.038, 25.114
483.371, 35.134
484.704, 28.172
486.037, 33.213
487.369, 50.233
488.701, 39.336
490.033, 50.353
491.365, 42.362
492.696, 41.355
494.027, 41.329
495.358, 36.329
496.689, 45.334
498.019, 55.337
499.350, 32.344
500.680, 50.627
502.009, 49.636
503.339, 44.646
504.668, 48.640
505.997, 54.617
507.326, 45.558
508.655, 63.550
509.983, 47.522
511.311, 49.526
512.639, 52.523
513.967, 41.503
515.295, 52.494
516.622, 60.335
517.949, 51.287
519.276, 44.247
520.602, 45.263
521.929, 38.227
523.255, 47.223
524.581, 58.166
525.906, 43.183
527.232, 55.174
528.557, 47.168
529.882, 46.173
531.207, 45.149
532.531, 54.146
533.855, 50.139
535.179, 53.097
536.503, 43.076
537.827, 51.088
539.150, 39.077
540.473, 47.087
541.796, 43.084
543.119, 27.104
544.441, 33.070
545.764, 43.079
547.086, 41.060
548.407, 30.063
549.729, 35.048
551.050, 28.021
552.371, 43.030
553.692, 32.022
555.013, 25.024
556.333, 37.010
557.653, 33.999
558.973, 31.996
560.293, 25.881
561.612, 26.005
562.932, 23.790
564.251, 24.728
565.569, 20.757
566.888, 20.789
568.206, 19.609
569.524, 25.827
570.842, 15.834
572.160, 20.852
573.477, 15.836
574.795, 19.847
576.112, 15.843
577.428, 19.856
578.745, 25.882
580.061, 11.892
581.377, 16.890
582.693, 25.897
584.009, 7.920
585.324, 9.966
586.639, 17.829
587.954, 15.841
589.269, 10.830
590.583, 7.875
591.897, 16.895
593.212, 16.938
594.525, 17.970
595.839, 15.963
597.152, 7.004
598.465, 9.045
599.778, 9.069
601.091, 16.108
602.403, 8.120
603.716, 3.153
605.028, 1.190
606.339, 2.791
607.651, 2.868
608.962, 5.221
610.273, 3.746
611.584, 0.738
612.895, 4.705
614.205, 4.313
615.515, 12.380
616.825, 17.415
618.135, 10.463
619.444, 6.488
620.754, 4.534
622.063, 6.576
623.372, 2.598
624.680, 11.619
625.989, 12.639
627.297, 5.659
628.605, 19.677
629.912, 7.695
631.220, 0.267
632.527, 7.762
633.834, 6.786
635.141, 7.828
636.447, 1.847
637.754, 0.952
639.060, 4.685
640.366, 10.722
641.671, 2.761
642.977, 1.766
644.282, 6.791
645.587, 1.198
646.892, 8.808
648.196, 1.889
649.501, 5.013
650.805, 13.375
652.109, 12.511
653.412, 16.665
654.716, 3.683
656.019, 8.690
657.322, 4.312
658.625, 6.678
659.927, 4.868
661.230, 14.856
662.532, 19.843
663.834, 14.952
665.135, 13.937
666.437, 10.119
667.738, 16.563
669.039, 2.545
670.340, 17.699
671.640, 2.762
672.940, 11.066
674.241, 10.144
675.540, 11.121
676.840, 3.272
678.139, 7.803
679.439, 4.440
680.738, 12.422
682.036, 6.000
683.335, 7.341
684.633, 14.310
685.931, 20.551
687.229, 31.517
688.527, 20.482
689.824, 30.445
691.121, 25.675
692.418, 29.636
693.715, 21.828
695.012, 31.662
696.308, 32.619
697.604, 37.580
698.900, 50.889
700.195, 41.848
701.491, 58.094
702.786, 58.044
704.081, 67.346
705.376, 80.350
706.670, 96.295
707.964, 128.240
709.259, 182.346
710.552, 216.287
711.846, 308.227
713.139, 405.165
714.433, 626.102
715.726, 891.037
717.018, 1324.293
718.311, 1600.227
719.603, 1677.158
720.895, 1504.088
722.187, 1117.016
723.479, 814.158
724.770, 605.629
726.061, 438.552
727.352, 344.802
728.643, 259.721
729.934, 211.939
731.224, 174.108
732.514, 150.023
733.804, 112.100
735.094, 95.133
736.383, 79.042
737.672, 62.950
738.961, 53.496
740.250, 48.760
741.539, 38.809
742.827, 37.710
744.115, 34.610
745.403, 27.508
746.691, 28.037
747.978, 31.297
749.265, 24.190
750.552, 24.080
751.839, 18.968
753.126, 21.985
754.412, 20.869
755.698, 18.636
756.984, 16.644
758.270, 16.523
759.555, 17.389
760.840, 19.245
762.125, 17.384
763.410, 19.941
764.695, 14.808
765.979, 13.502
767.263, 12.323
768.547, 14.960
769.831, 5.950
771.114, 10.962
772.398, 7.650
773.681, 17.676
774.964, 7.530
776.246, 8.375
777.529, 14.225
778.811, 14.059
780.093, 16.666
781.375, 15.749
782.656, 17.589
783.937, 12.430
785.219, 7.268
786.499, 9.069
787.780, 9.903
789.060, 6.207
790.341, 10.567
791.621, 1.377
792.901, 0.138
794.180, 2.307
795.459, 5.509
796.739, 12.305
798.017, 6.095
799.296, 9.206
800.575, 9.626
801.853, 3.432
803.131, 2.214
804.409, 1.994
805.686, 1.802
806.964, 1.362
808.241, 5.384
809.518, 7.155
810.795, 8.941
812.071, 15.437
813.347, 0.215
814.623, 9.981
815.899, 10.758
817.175, 1.533
818.450, 14.306
819.726, 0.077
821.001, 4.155
822.275, 11.607
823.550, 0.342
824.824, 2.100
826.098, 2.171
827.372, 1.580
828.646, 12.327
829.920, 0.074
831.193, 4.792
832.466, 13.527
833.739, 0.754
835.011, 7.017
836.284, 3.305
837.556, 8.407
838.828, 1.869
840.100, 14.850
841.371, 8.569
842.642, 10.285
843.914, 1.999
845.184, 13.712
846.455, 1.578
847.726, 11.871
848.996, 6.827
850.266, 3.523
851.536, 3.782
852.805, 2.908
854.075, 2.970
855.344, 4.283
856.613, 4.033
857.881, 0.646
859.150, 6.324
860.418, 8.000
861.686, 1.325
862.954, 5.348
864.222, 3.019
865.489, 7.689
866.756, 21.358
868.023, 12.026
869.290, 4.307
870.557, 1.355
871.823, 12.017
873.089, 4.677
874.355, 7.337
875.621, 3.005
876.886, 8.349
878.152, 4.300
879.417, 5.051
880.682, 5.594
881.946, 4.762
883.211, 4.122
884.475, 3.515
885.739, 2.849
887.003, 2.216
888.266, 7.416
889.530, 2.047
890.793, 4.677
892.056, 4.306
893.318, 3.066
894.581, 5.560
895.843, 4.186
897.105, 0.811
898.367, 4.435
899.629, 8.059
900.890, 1.681
902.152, 15.304
903.413, 12.926
904.673, 3.453
905.934, 1.166
907.194, 6.785
908.454, 0.596
909.714, 1.021
910.974, 3.639
912.234, 2.256
913.493, 8.873
914.752, 5.510
916.011, 10.105
917.270, 7.720
918.528, 3.335
919.786, 9.947
921.044, 4.437
922.302, 4.863
923.560, 10.741
924.817, 0.331
926.074, 5.944
927.331, 7.534
928.588, 18.128
929.844, 15.561
931.101, 16.900
932.357, 11.966
933.613, 15.579
934.868, 11.192
936.124, 14.805
937.379, 6.397
938.634, 8.997
939.889, 7.352
941.144, 12.187
942.398, 9.795
943.652, 9.219
944.906, 10.797
946.160, 12.794
947.414, 11.379
948.667, 10.995
949.920, 10.591
951.173, 9.202
952.426, 11.815
953.678, 9.354
954.931, 19.849
956.183, 18.105
957.435, 10.587
958.686, 8.051
959.938, 18.650
961.189, 0.260
962.440, 10.879
963.691, 6.505
964.941, 6.930
966.192, 14.558
967.442, 3.186
968.692, 5.691
969.942, 19.321
971.191, 12.754
972.441, 11.925
973.690, 18.557
974.939, 14.017
976.187, 2.568
977.436, 9.879
978.684, 9.415
979.932, 20.053
981.180, 12.518
982.428, 22.147
983.675, 20.788
984.922, 20.213
986.169, 26.249
987.416, 34.523
988.663, 33.169
989.909, 30.543
991.155, 28.192
992.401, 31.942
993.647, 34.493
994.893, 40.880
996.138, 48.536
997.383, 54.959
998.628, 45.746
999.873, 68.409
1001.117, 73.068
1002.362, 80.379
1003.606, 103.040
1004.850, 99.414
1006.093, 114.085
1007.337, 114.404
1008.580, 123.021
1009.823, 144.697
1011.066, 153.374
1012.308, 156.891
1013.551, 167.573
1014.793, 170.258
1016.035, 178.944
1017.277, 186.631
1018.518, 195.321
1019.760, 215.691
1021.001, 234.385
1022.242, 238.081
1023.483, 236.780
1024.723, 259.481
1025.964, 259.032
1027.204, 252.128
1028.444, 272.835
1029.683, 271.216
1030.923, 277.926
1032.162, 283.341
1033.401, 273.802
1034.640, 291.520
1035.879, 293.076
1037.117, 294.677
1038.355, 318.404
1039.593, 336.135
1040.831, 360.868
1042.069, 375.795
1043.306, 368.195
1044.544, 406.936
1045.781, 422.680
1047.017, 440.428
1048.254, 495.178
1049.490, 530.931
1050.726, 547.687
1051.962, 609.445
1053.198, 610.208
1054.434, 714.844
1055.669, 693.613
1056.904, 789.385
1058.139, 881.149
1059.374, 962.929
1060.608, 1090.711
1061.843, 1231.496
1063.077, 1303.285
1064.311, 1392.871
1065.544, 1392.667
1066.778, 1487.467
1068.011, 1655.270
1069.244, 1820.078
1070.477, 2054.754
1071.710, 2347.416
1072.942, 2856.233
1074.174, 3687.056
1075.406, 4617.884
1076.638, 6545.712
1077.870, 9598.546
1079.101, 14348.383
1080.332, 22778.225
1081.563, 33108.062
1082.794, 44477.906
1084.025, 52127.758
1085.255, 46217.605
1086.485, 33607.461
1087.715, 21577.318
1088.945, 13627.177
1090.175, 9518.038
1091.404, 6265.904
1092.633, 4300.773
1093.862, 3100.644
1095.091, 2264.520
1096.319, 1758.399
1097.548, 1387.281
1098.776, 1089.165
1100.004, 940.053
1101.231, 773.943
1102.459, 675.835
1103.686, 588.731
1104.913, 489.632
1106.140, 487.535
1107.367, 422.442
1108.593, 397.352
1109.819, 375.264
1111.046, 301.436
1112.271, 302.354
1113.497, 279.275
1114.722, 229.199
1115.948, 249.126
1117.173, 222.056
1118.398, 207.988
1119.622, 207.924
1120.847, 189.865
1122.071, 192.809
1123.295, 182.908
1124.519, 157.858
1125.742, 156.819
1126.966, 136.776
1128.189, 136.736
1129.412, 126.957
1130.635, 121.665
1131.857, 111.633
1133.080, 112.606
1134.302, 104.583
1135.524, 106.564
1136.746, 93.549
1137.967, 111.537
1139.188, 91.527
1140.410, 100.520
1141.631, 92.782
1142.851, 78.781
1144.072, 92.783
1145.292, 87.536
1146.512, 91.547
1147.732, 82.562
1148.952, 80.438
1150.172, 86.599
1151.391, 69.622
1152.610, 63.649
1153.829, 53.678
1155.048, 58.711
1156.266, 62.747
1157.484, 61.785
1158.702, 62.142
1159.920, 69.185
1161.138, 59.231
1162.356, 48.278
1163.573, 50.328
1164.790, 49.380
1166.007, 43.665
1167.224, 54.722
1168.440, 46.782
1169.656, 40.000
1170.872, 46.064
1172.088, 36.130
1173.304, 50.199
1174.519, 45.273
1175.735, 43.304
1176.950, 30.428
1178.165, 34.509
1179.379, 35.593
1180.594, 25.681
1181.808, 32.771
1183.022, 26.104
1184.236, 24.688
1185.449, 28.144
1186.663, 28.243
1187.876, 27.385
1189.089, 28.487
1190.302, 22.814
1191.515, 27.956
1192.727, 32.531
1193.939, 23.642
1195.151, 28.753
1196.363, 12.075
1197.575, 18.190
1198.786, 20.011
1199.997, 20.130
1201.208, 19.279
1202.419, 16.722
1203.630, 17.846
1204.840, 10.601
1206.051, 22.728
1207.261, 31.857
1208.470, 7.547
1209.680, 16.678
1210.889, 17.180
1212.099, 10.431
1213.308, 11.058
1214.516, 18.558
1215.725, 1.697
1216.933, 22.839
1218.142, 26.402
1219.350, 25.404
1220.557, 10.550
1221.765, 15.697
1222.972, 8.258
1224.180, 15.407
1225.387, 17.717
1226.593, 16.973
1227.800, 9.230
1229.006, 8.384
1230.213, 5.557
1231.419, 19.903
1232.624, 6.061
1233.830, 5.225
1235.035, 14.385
1236.241, 2.546
1237.446, 5.711
1238.650, 7.876
1239.855, 9.042
1241.059, 10.215
1242.264, 17.383
1243.468, 9.554
1244.671, 14.726
1245.875, 11.899
1247.078, 8.074
1248.282, 3.250
1249.485, 11.428
1250.687, 2.607
1251.890, 23.787
1253.092, 6.968
1254.295, 14.151
1255.497, 7.665
1256.699, 16.519
1257.900, 13.705
1259.102, 17.892
1260.303, 5.080
1261.504, 4.268
1262.705, 2.454
1263.905, 12.641
1265.106, 15.829
1266.306, 2.018
1267.506, 4.792
1268.706, 15.399
1269.905, 0.411
1271.105, 12.781
1272.304, 16.973
1273.503, 8.165
1274.702, 19.357
1275.900, 3.550
1277.099, 22.744
1278.297, 7.939
1279.495, 7.135
1280.693, 10.332
1281.891, 1.526
1283.088, 13.717
1284.285, 12.909
1285.482, 5.900
1286.679, 20.288
1287.876, 8.474
1289.072, 13.344
1290.268, 2.836
1291.464, 5.013
1292.660, 16.187
1293.856, 2.357
1295.051, 7.525
1296.247, 13.688
1297.442, 1.848
1298.637, 3.006
1299.831, 1.156
1301.026, 12.304
1302.220, 5.550
1303.414, 6.592
1304.608, 7.734
1305.802, 6.874
1306.995, 14.014
1308.188, 14.153
1309.381, 3.708
1310.574, 14.429
1311.767, 8.566
1312.960, 2.298
1314.152, 10.837
1315.344, 10.971
1316.536, 14.104
1317.728, 11.236
1318.919, 9.343
1320.110, 7.558
1321.301, 3.627
1322.492, 1.756
1323.683, 2.883
1324.874, 2.009
1326.064, 2.867
1327.254, 6.745
1328.444, 4.626
1329.634, 5.489
1330.823, 0.602
1332.013, 10.714
1333.202, 2.176
1334.391, 0.932
1335.580, 5.962
1336.768, 6.140
1337.956, 11.241
1339.145, 1.659
1340.333, 6.439
1341.520, 9.463
1342.708, 5.631
1343.895, 1.724
1345.083, 3.185
1346.270, 9.905
1347.456, 8.006
1348.643, 7.079
1349.829, 8.164
1351.016, 6.753
1352.202, 5.328
1353.387, 3.592
1354.573, 0.486
1355.759, 5.437
1356.944, 3.357
1358.129, 5.716
1359.314, 4.788
1360.498, 4.139
1361.683, 11.065
1362.867, 8.003
1364.051, 9.071
1365.235, 3.861
1366.419, 10.207
1367.602, 0.275
1368.785, 1.355
1369.968, 1.425
1371.151, 6.496
1372.334, 8.700
1373.517, 0.223
1374.699, 14.855
1375.881, 5.904
1377.063, 12.894
1378.245, 19.108
1379.426, 7.322
1380.608, 10.536
1381.789, 23.751
1382.970, 18.965
1384.150, 8.180
1385.331, 29.394
1386.511, 26.608
1387.691, 18.544
1388.871, 27.756
1390.051, 16.967
1391.231, 29.178
1392.410, 37.388
1393.589, 38.426
1394.768, 42.625
1395.947, 48.833
1397.126, 40.040
1398.304, 71.247
1399.483, 43.453
1400.661, 75.659
1401.838, 91.863
1403.016, 107.742
1404.194, 122.018
1405.371, 162.208
1406.548, 205.398
1407.725, 218.587
1408.901, 274.777
1410.078, 327.966
1411.254, 352.736
1412.430, 348.921
1413.606, 373.106
1414.782, 354.976
1415.958, 354.942
1417.133, 320.121
1418.308, 275.301
1419.483, 259.480
1420.658, 226.660
1421.832, 195.841
1423.007, 185.938
1424.181, 175.565
1425.355, 156.664
1426.529, 158.428
1427.702, 137.854
1428.876, 125.672
1430.049, 127.685
1431.222, 115.765
1432.395, 117.364
1433.567, 108.431
1434.740, 107.585
1435.912, 103.534
1437.084, 112.066
1438.256, 92.488
1439.428, 110.785
1440.599, 100.260
1441.770, 91.508
1442.942, 97.206
1444.112, 88.797
1445.283, 93.776
1446.454, 87.339
1447.624, 91.291
1448.794, 88.240
1449.964, 85.183
1451.134, 58.108
1452.303, 63.028
1453.473, 52.941
1454.642, 44.840
1455.811, 44.728
1456.980, 42.604
1458.148, 44.465
1459.317, 33.311
1460.485, 26.143
1461.653, 39.981
1462.821, 25.803
1463.989, 14.607
1465.156, 29.401
1466.323, 23.179
1467.490, 17.947
1468.657, 9.692
1469.824, 6.414
1470.991, 5.146
1472.157, 20.871
1473.323, 9.602
1474.489, 21.347
1475.655, 25.100
1476.820, 16.884
1477.986, 25.703
1479.151, 10.565
1480.316, 8.472
1481.481, 16.391
1482.645, 18.320
1483.810, 16.246
1484.974, 11.170
1486.138, 13.160
1487.302, 8.425
1488.465, 14.943
1489.629, 8.876
1490.792, 12.816
1491.955, 27.768
1493.118, 11.737
1494.281, 14.729
1495.443, 11.747
1496.606, 2.794
1497.768, 17.870
1498.930, 9.970
1500.091, 19.092
1501.253, 4.237
1502.414, 14.412
1503.575, 9.624
1504.736, 15.880
1505.897, 14.188
1507.058, 24.462
1508.218, 4.878
1509.379, 12.298
1510.539, 15.861
1511.698, 0.476
1512.858, 32.977
1514.018, 26.831
1515.177, 3.492
1516.336, 0.000
##END=



