##NAMES=Rhodonite
##RRUFFID=R040041
##IDEAL CHEMISTRY=CaMn^2+^_3_Mn^2+^Si_5_O_15_
##LOCALITY=Franklin, Sussex County, New Jersey, USA
##OWNER=RRUFF
##SOURCE=University of Arizona Mineral Museum
##DESCRIPTION=Pink prismatic crystals
##STATUS=The identification of this mineral has been confirmed by X-ray diffraction and chemical analysis
##URL=rruff.info/R040041
##MEASURED CHEMISTRY=(Mn_0.63_Ca_0.21_Zn_0.12_Mg_0.02_Fe_0.02_)_Î£=1_Si_1.00_O_3_
##PIN_ID=L00464
##ORIENTATION=Laser parallel to (1 0 1). Fiducial mark perpendicular to laser is parallel to b [0 1 0]
103.943, 0.000
105.336, 14.108
106.729, 313.521
108.121, 1225.359
109.513, 2366.598
110.905, 3170.019
112.297, 3900.117
113.688, 3291.980
115.079, 2542.559
116.470, 1700.693
117.861, 1607.410
119.251, 1579.675
120.642, 2015.163
122.032, 2622.482
123.422, 3360.771
124.811, 3762.225
126.201, 3733.836
127.590, 3118.392
128.979, 2376.983
130.367, 1892.812
131.756, 1546.881
133.144, 1361.563
134.532, 1268.617
135.920, 1431.010
137.307, 1821.007
138.695, 2098.924
140.082, 2355.020
141.469, 2459.521
142.856, 2052.624
144.242, 1675.506
145.628, 1186.673
147.014, 916.292
148.400, 754.776
149.786, 823.134
151.171, 1036.120
152.556, 1278.079
153.941, 1402.717
155.325, 1540.510
156.710, 1543.176
158.094, 1384.536
159.478, 1194.255
160.862, 1276.309
162.245, 1092.680
163.629, 1100.348
165.012, 1059.298
166.395, 1050.535
167.777, 1212.998
169.160, 1256.690
170.542, 1430.580
171.924, 1194.625
173.306, 1208.813
174.687, 951.152
176.068, 858.640
177.449, 708.273
178.830, 432.050
180.211, 321.100
181.591, 203.290
182.972, 60.606
184.351, 40.955
185.731, 13.605
187.111, 170.292
188.490, 131.114
189.869, 140.129
191.248, 169.357
192.626, 108.808
194.005, 128.482
195.383, 13.627
196.761, 112.530
198.139, 195.236
199.516, 278.758
200.893, 349.108
202.271, 366.302
203.647, 370.349
205.024, 292.259
206.400, 160.038
207.777, 127.700
209.152, 161.745
210.528, 238.287
211.904, 588.896
213.279, 655.545
214.654, 636.228
216.029, 848.945
217.403, 605.698
218.778, 649.487
220.152, 395.312
221.526, 489.177
222.900, 277.077
224.273, 241.015
225.646, 211.990
227.019, 193.946
228.392, 97.860
229.765, 103.811
231.137, 173.799
232.509, 210.801
233.881, 306.628
235.253, 549.069
236.625, 651.031
237.996, 891.070
239.367, 1336.270
240.738, 1353.954
242.108, 1591.828
243.479, 1799.836
244.849, 1777.976
246.219, 1886.196
247.589, 1864.474
248.958, 1732.807
250.328, 1731.195
251.697, 1659.636
253.065, 1628.128
254.434, 1772.943
255.803, 1861.787
257.171, 1990.658
258.539, 2389.289
259.906, 2607.971
261.274, 2996.700
262.641, 2895.477
264.008, 2874.325
265.375, 2613.275
266.742, 2252.279
268.108, 1981.345
269.475, 1691.893
270.840, 1551.472
272.206, 1322.936
273.572, 1434.979
274.937, 1377.485
276.302, 1280.298
277.667, 1253.362
279.032, 1186.626
280.396, 1100.134
281.760, 913.711
283.125, 852.089
284.488, 721.003
285.852, 634.563
287.215, 658.113
288.578, 531.668
289.941, 645.188
291.304, 638.671
292.666, 852.104
294.029, 935.426
295.391, 1138.625
296.753, 1451.695
298.114, 1764.650
299.476, 2067.510
300.837, 2350.281
302.198, 2502.976
303.558, 2755.601
304.919, 2648.162
306.279, 2751.060
307.639, 2583.518
308.999, 2555.781
310.359, 2477.949
311.718, 2230.084
313.077, 2042.188
314.436, 1764.202
315.795, 1855.818
317.154, 1776.784
318.512, 1787.048
319.870, 1936.889
321.228, 1996.634
322.586, 2017.644
323.943, 2006.256
325.300, 2026.202
326.657, 1986.114
328.014, 1926.065
329.371, 1946.053
330.727, 1941.734
332.083, 1976.130
333.439, 1996.219
334.795, 2096.340
336.150, 2136.494
337.506, 2096.678
338.861, 2366.891
340.215, 2287.134
341.570, 2447.406
342.924, 2507.705
344.279, 2628.032
345.633, 2848.385
346.986, 2787.549
348.340, 2801.510
349.693, 2629.056
351.046, 2409.475
352.399, 2439.772
353.752, 2210.146
355.104, 2420.663
356.457, 2400.984
357.809, 2631.421
359.160, 2718.366
360.512, 2969.232
361.863, 3102.452
363.214, 3265.709
364.565, 3312.081
365.916, 3397.791
367.267, 3303.045
368.617, 3423.777
369.967, 3199.393
371.317, 3060.439
372.666, 2721.529
374.016, 2294.148
375.365, 1935.270
376.714, 1697.291
378.063, 1468.650
379.411, 1175.647
380.760, 1116.700
382.108, 902.444
383.456, 866.310
384.803, 947.570
386.151, 868.551
387.498, 909.392
388.845, 880.243
390.192, 771.102
391.539, 751.963
392.885, 502.839
394.231, 423.725
395.577, 214.618
396.923, 185.521
398.269, 36.435
399.614, 57.359
400.959, 21.701
402.304, 140.750
403.649, 70.188
404.993, 18.861
406.337, 17.899
407.681, 233.069
409.025, 244.050
410.369, 375.040
411.712, 246.040
413.055, 437.244
414.398, 608.263
415.741, 809.578
417.084, 990.584
418.426, 1141.595
419.768, 1355.465
421.110, 1296.489
422.452, 1313.570
423.793, 1065.055
425.134, 736.956
426.475, 508.878
427.816, 350.818
429.157, 93.312
430.497, 114.415
431.837, 5.565
433.177, 76.777
434.517, 68.829
435.857, 180.769
437.196, 222.508
438.535, 70.783
439.874, 190.367
441.213, 42.018
442.551, 61.092
443.889, 62.428
445.227, 54.372
446.565, 86.173
447.903, 87.514
449.240, 253.655
450.577, 184.888
451.914, 466.066
453.251, 437.483
454.588, 588.429
455.924, 684.846
457.260, 645.636
458.596, 756.470
459.932, 638.038
461.267, 319.312
462.602, 410.201
463.938, 120.930
465.272, 241.643
466.607, 12.344
467.941, 263.029
469.276, 253.695
470.610, 174.397
471.943, 235.084
473.277, 125.754
474.610, 266.411
475.944, 367.054
477.276, 227.683
478.609, 478.305
479.942, 238.920
481.274, 329.546
482.606, 340.165
483.938, 270.784
485.270, 101.414
486.601, 262.033
487.932, 542.663
489.263, 413.288
490.594, 713.906
491.925, 844.515
493.255, 1085.114
494.585, 1305.732
495.915, 1226.340
497.245, 1226.959
498.575, 1097.569
499.904, 828.168
501.233, 528.801
502.562, 509.423
503.891, 500.032
505.219, 380.665
506.548, 271.285
507.876, 359.423
509.203, 392.538
510.531, 533.178
511.859, 383.806
513.186, 474.421
514.513, 565.025
515.840, 555.617
517.166, 636.195
518.493, 626.765
519.819, 497.335
521.145, 457.976
522.470, 458.667
523.796, 219.431
525.121, 80.290
526.446, 271.240
527.771, 42.322
529.096, 96.527
530.421, 94.602
531.745, 75.758
533.069, 13.105
534.393, 77.996
535.716, 160.922
537.040, 30.048
538.363, 78.995
539.686, 111.889
541.009, 57.246
542.331, 26.415
543.654, 74.367
544.976, 145.129
546.298, 195.868
547.620, 277.331
548.941, 277.336
550.263, 368.041
551.584, 328.728
552.905, 279.395
554.225, 540.041
555.546, 640.667
556.866, 901.271
558.186, 661.856
559.506, 952.421
560.826, 702.631
562.145, 587.738
563.465, 518.238
564.784, 298.433
566.103, 398.622
567.421, 349.057
568.740, 239.469
570.058, 359.858
571.376, 160.227
572.694, 410.569
574.011, 140.890
575.329, 281.186
576.646, 221.458
577.963, 8.294
579.279, 341.905
580.596, 57.920
581.912, 112.177
583.228, 42.246
584.544, 42.284
585.860, 42.288
587.175, 22.261
588.491, 117.806
589.806, 117.984
591.121, 118.397
592.435, 41.198
593.750, 129.240
595.064, 70.202
596.378, 70.387
597.692, 91.065
599.006, 78.156
600.319, 82.776
601.632, 146.949
602.945, 46.520
604.258, 55.438
605.571, 134.918
606.883, 35.778
608.195, 153.724
609.507, 162.590
610.819, 102.069
612.131, 211.077
613.442, 40.135
614.753, 250.764
616.064, 229.438
617.375, 68.843
618.685, 118.004
619.995, 206.589
621.306, 390.773
622.615, 349.304
623.925, 339.633
625.235, 348.271
626.544, 316.721
627.853, 397.284
629.162, 465.679
630.471, 594.047
631.779, 623.154
633.087, 702.138
634.395, 680.452
635.703, 829.371
637.011, 808.142
638.318, 900.301
639.625, 918.473
640.932, 1268.074
642.239, 1019.851
643.546, 1367.862
644.852, 1599.603
646.158, 1448.533
647.464, 1996.532
648.770, 2084.832
650.076, 2412.771
651.381, 2696.642
652.686, 3344.574
653.991, 3897.172
655.296, 4725.500
656.600, 5753.291
657.905, 7051.213
659.209, 8798.964
660.513, 11176.661
661.817, 13652.389
663.120, 17750.027
664.423, 21748.064
665.726, 25605.635
667.029, 29473.695
668.332, 30321.529
669.635, 30009.000
670.937, 27316.939
672.239, 23444.697
673.541, 19932.191
674.842, 16949.965
676.144, 14007.282
677.445, 12343.769
678.746, 10491.047
680.047, 9738.437
681.348, 8107.168
682.648, 7304.012
683.948, 6089.658
685.248, 4936.638
686.548, 4267.156
687.848, 3194.309
689.147, 3090.942
690.447, 2516.377
691.746, 1983.353
693.044, 1909.254
694.343, 1477.633
695.641, 1428.598
696.940, 1295.377
698.238, 1203.551
699.535, 1147.196
700.833, 1163.466
702.130, 1170.454
703.427, 1311.304
704.724, 1288.139
706.021, 1344.662
707.318, 1411.346
708.614, 1767.801
709.910, 2294.222
711.206, 2660.608
712.502, 3136.961
713.798, 3243.281
715.093, 3439.565
716.388, 3495.817
717.683, 2612.037
718.978, 2708.248
720.272, 1924.427
721.567, 1780.573
722.861, 1326.688
724.155, 1152.771
725.448, 1118.819
726.742, 884.836
728.035, 900.623
729.328, 876.572
730.621, 682.202
731.914, 868.087
733.206, 613.939
734.499, 926.905
735.791, 772.693
737.083, 592.400
738.374, 997.678
739.666, 872.515
740.957, 607.305
742.248, 972.049
743.539, 746.215
744.830, 781.744
746.120, 557.196
747.410, 482.562
748.701, 557.053
749.990, 311.619
751.280, 406.347
752.570, 464.497
753.859, 271.296
755.148, 235.988
756.437, 53.210
757.725, 76.315
759.014, 252.385
760.302, 96.743
761.590, 131.517
762.878, 61.440
764.166, 256.229
765.453, 51.028
766.740, 155.542
768.027, 200.483
769.314, 0.090
770.601, 324.911
771.887, 29.825
773.174, 63.961
774.460, 298.346
775.745, 56.921
777.031, 287.905
778.316, 2.710
779.602, 57.473
780.887, 222.212
782.172, 163.071
783.456, 201.521
784.741, 276.090
786.025, 20.639
787.309, 155.158
788.593, 39.655
789.876, 24.127
791.160, 48.570
792.443, 37.010
793.726, 217.353
795.009, 1.695
796.291, 33.998
797.574, 270.255
798.856, 35.510
800.138, 8.671
801.420, 192.823
802.702, 86.955
803.983, 171.066
805.264, 74.843
806.545, 149.178
807.826, 56.820
809.107, 37.119
810.387, 171.036
811.667, 145.063
812.947, 148.730
814.227, 202.506
815.507, 113.734
816.786, 189.937
818.065, 43.591
819.344, 317.224
820.623, 20.840
821.902, 64.436
823.180, 188.011
824.459, 21.570
825.737, 55.110
827.014, 108.631
828.292, 32.143
829.569, 275.637
830.847, 140.886
832.124, 122.497
833.401, 85.865
834.677, 20.778
835.954, 162.548
837.230, 134.140
838.506, 29.094
839.782, 12.312
841.057, 15.545
842.333, 108.762
843.608, 21.967
844.883, 5.166
846.158, 38.350
847.433, 38.433
848.707, 14.754
849.981, 37.954
851.255, 108.851
852.529, 114.299
853.803, 87.450
855.076, 210.594
856.350, 86.274
857.623, 26.803
858.895, 259.868
860.168, 42.924
861.441, 315.966
862.713, 109.045
863.985, 92.112
865.257, 495.170
866.528, 88.219
867.800, 421.259
869.071, 604.290
870.342, 607.313
871.613, 1080.327
872.884, 623.354
874.154, 996.373
875.425, 1009.426
876.695, 882.471
877.965, 805.509
879.234, 688.548
880.504, 741.581
881.773, 654.608
883.042, 617.633
884.311, 620.653
885.580, 763.667
886.848, 496.676
888.117, 809.692
889.385, 552.711
890.653, 625.751
891.920, 688.789
893.188, 521.825
894.455, 654.861
895.722, 417.897
896.989, 510.935
898.256, 684.011
899.523, 387.151
900.789, 930.332
902.055, 593.514
903.321, 706.742
904.587, 1199.971
905.852, 843.268
907.118, 1226.597
908.383, 1349.926
909.648, 1642.662
910.913, 2225.524
912.177, 2278.968
913.442, 2451.940
914.706, 2475.063
915.970, 2177.967
917.233, 2161.477
918.497, 1524.345
919.760, 1917.657
921.024, 1471.162
922.287, 1272.507
923.550, 1276.047
924.812, 1128.833
926.075, 1201.830
927.337, 1135.376
928.599, 943.297
929.861, 1306.846
931.122, 1158.568
932.384, 1321.568
933.645, 1825.121
934.906, 1996.534
936.167, 2370.093
937.428, 2323.654
938.688, 1996.451
939.948, 2149.909
941.208, 1622.893
942.468, 1435.807
943.728, 1108.846
944.987, 948.472
946.247, 1142.061
947.506, 894.196
948.765, 804.131
950.023, 1337.735
951.282, 727.663
952.540, 1230.537
953.798, 1034.158
955.056, 1047.454
956.314, 1341.086
957.572, 1328.771
958.829, 1572.369
960.086, 1771.277
961.343, 1824.432
962.600, 2698.299
963.856, 2581.814
965.113, 3575.477
966.369, 4669.168
967.625, 5394.808
968.881, 7538.516
970.136, 8511.801
971.392, 9975.527
972.647, 10457.260
973.902, 10682.172
975.157, 10395.928
976.411, 9779.199
977.666, 8642.629
978.920, 8168.043
980.174, 7471.406
981.428, 7265.203
982.682, 7889.809
983.935, 7593.598
985.188, 9028.152
986.441, 9680.438
987.694, 11034.279
988.947, 13221.541
990.199, 14125.020
991.452, 15558.449
992.704, 15691.910
993.956, 14495.773
995.207, 14579.559
996.459, 13993.023
997.710, 14836.652
998.961, 16228.633
1000.212, 16982.191
1001.463, 19257.578
1002.714, 19435.156
1003.964, 18219.133
1005.214, 17343.070
1006.464, 14087.066
1007.714, 12196.328
1008.964, 9830.158
1010.213, 8094.209
1011.462, 7468.113
1012.711, 5982.379
1013.960, 5716.465
1015.209, 4970.559
1016.457, 4764.664
1017.705, 4518.824
1018.954, 4143.078
1020.201, 3907.264
1021.449, 3761.457
1022.697, 3520.141
1023.944, 3664.359
1025.191, 3358.203
1026.438, 3142.439
1027.685, 3286.689
1028.931, 2952.908
1030.177, 2927.174
1031.423, 2981.449
1032.669, 2526.545
1033.915, 2680.836
1035.161, 2295.131
1036.406, 2249.801
1037.651, 2374.109
1038.896, 1979.961
1040.141, 2104.273
1041.386, 2518.598
1042.630, 2383.363
1043.874, 2887.688
1045.118, 2912.018
1046.362, 3216.357
1047.606, 3490.717
1048.849, 3860.549
1050.092, 4084.938
1051.336, 4119.344
1052.578, 3844.613
1053.821, 4029.045
1055.064, 2862.434
1056.306, 2546.893
1057.548, 2231.371
1058.790, 1334.557
1060.032, 1729.061
1061.273, 1423.582
1062.515, 1170.836
1063.756, 1165.389
1064.997, 927.082
1066.237, 1131.666
1067.478, 916.264
1068.718, 591.504
1069.959, 1086.133
1071.199, 930.777
1072.438, 775.477
1073.678, 960.156
1074.918, 494.857
1076.157, 989.572
1077.396, 744.303
1078.635, 529.070
1079.873, 963.854
1081.112, 518.660
1082.350, 683.484
1083.588, 758.322
1084.826, 423.668
1086.064, 578.590
1087.301, 533.516
1088.539, 709.154
1089.776, 674.107
1091.013, 189.080
1092.250, 534.057
1093.486, 689.049
1094.723, 174.082
1095.959, 549.123
1097.195, 164.186
1098.431, 379.492
1099.666, 444.590
1100.902, 0.277
1102.137, 394.873
1103.372, 159.967
1104.607, 75.076
1105.842, 681.303
1107.076, 306.467
1108.311, 311.613
1109.545, 456.719
1110.779, 1.842
1112.012, 406.957
1113.246, 352.123
1114.479, 57.303
1115.712, 502.494
1116.945, 97.717
1118.178, 303.494
1119.411, 538.744
1120.643, 174.008
1121.875, 439.656
1123.108, 484.895
1124.339, 260.062
1125.571, 575.242
1126.802, 49.742
1128.034, 555.246
1129.265, 170.170
1130.496, 105.098
1131.727, 270.068
1132.957, 24.959
1134.187, 160.045
1135.418, 415.029
1136.648, 49.986
1137.877, 455.029
1139.107, 200.043
1140.336, 195.061
1141.566, 440.072
1142.795, 25.082
1144.023, 400.090
1145.252, 275.900
1146.480, 50.908
1147.709, 335.916
1148.937, 39.074
1150.165, 155.906
1151.392, 382.303
1152.620, 127.305
1153.847, 332.303
1155.074, 132.822
1156.301, 97.822
1157.528, 432.809
1158.755, 107.791
1159.981, 167.229
1161.207, 428.428
1162.433, 173.373
1163.659, 188.322
1164.885, 304.816
1166.110, 119.773
1167.336, 214.736
1168.561, 169.793
1169.786, 65.254
1171.010, 469.686
1172.235, 145.408
1173.459, 369.459
1174.683, 204.469
1175.907, 20.852
1177.131, 333.787
1178.355, 248.414
1179.578, 2.475
1180.801, 226.451
1182.024, 200.336
1183.247, 74.107
1184.470, 278.004
1185.692, 8.539
1186.915, 234.805
1188.137, 288.574
1189.359, 61.652
1190.580, 494.422
1191.802, 176.920
1193.023, 303.137
1194.244, 299.359
1195.465, 64.410
1196.686, 351.842
1197.907, 258.041
1199.127, 24.186
1200.347, 460.270
1201.567, 113.645
1202.787, 302.398
1204.007, 498.459
1205.226, 265.455
1206.446, 610.650
1207.665, 316.781
1208.884, 7.066
1210.102, 719.111
1211.321, 74.691
1212.539, 281.525
1213.758, 637.762
1214.976, 84.016
1216.193, 480.289
1217.411, 396.584
1218.628, 222.900
1219.846, 409.031
1221.063, 355.383
1222.280, 291.752
1223.496, 708.133
1224.713, 294.281
1225.929, 530.705
1227.145, 347.148
1228.361, 263.611
1229.577, 790.094
1230.793, 156.594
1232.008, 633.115
1233.223, 777.230
1234.438, 123.785
1235.653, 689.078
1236.868, 315.682
1238.082, 389.471
1239.297, 666.102
1240.511, 282.365
1241.725, 519.055
1242.938, 545.494
1244.152, 239.574
1245.365, 726.311
1246.578, 413.043
1247.791, 379.672
1249.004, 709.574
1250.217, 496.141
1251.429, 112.664
1252.642, 789.000
1253.854, 357.689
1255.066, 607.080
1256.277, 523.277
1257.489, 355.926
1258.700, 650.633
1259.911, 596.881
1261.122, 552.488
1262.333, 945.873
1263.544, 181.406
1264.754, 917.904
1265.964, 774.432
1267.174, 209.607
1268.384, 714.125
1269.594, 501.160
1270.803, 617.082
1272.013, 901.217
1273.222, 370.111
1274.431, 468.477
1275.640, 412.979
1276.848, 365.873
1278.057, 460.082
1279.265, 254.264
1280.473, 468.330
1281.681, 652.279
1282.888, 316.096
1284.096, 328.559
1285.303, 622.072
1286.510, 333.467
1287.717, 646.689
1288.924, 589.736
1290.131, 122.596
1291.337, 834.596
1292.543, 417.039
1293.749, 429.707
1294.955, 518.311
1296.161, 80.852
1297.366, 563.465
1298.571, 525.941
1299.777, 21.787
1300.981, 548.059
1302.186, 538.133
1303.391, 450.178
1304.595, 573.055
1305.799, 147.148
1307.003, 291.543
1308.207, 685.766
1309.411, 109.863
1310.614, 994.541
1311.818, 549.064
1313.021, 283.715
1314.224, 993.346
1315.426, 448.076
1316.629, 493.180
1317.831, 917.961
1319.033, 207.562
1320.235, 709.898
1321.437, 635.172
1322.639, 436.180
1323.840, 805.025
1325.042, 379.199
1326.243, 260.141
1327.444, 945.750
1328.644, 63.375
1329.845, 376.412
1331.045, 623.570
1332.245, 1.889
1333.445, 453.170
1334.645, 173.441
1335.845, 0.000
##END=



