##NAMES=Rhodizite
##RRUFFID=R050099
##IDEAL CHEMISTRY=KAl_4_Be_5_B_11_O_28_
##LOCALITY=Mont Ibity, Antsirabe, Madagascar
##OWNER=RRUFF
##SOURCE=Rock Currier
##DESCRIPTION=Pale green single crystals
##STATUS=The identification of this mineral has been confirmed by X-ray diffraction and chemical analysis
##URL=rruff.info/R050099
##MEASURED CHEMISTRY=([box]_0.49_K_0.32_Rb_0.17_Na_0.02_)(Al_3.96_Si_0.04_)_Σ=4_Be_4.00_(B_11.45_Be_0.55_)_Σ=12_O_28_
##PIN_ID=L00516
##ORIENTATION=Laser parallel to a* (1 0 0). Fiducial mark perpendicular to laser is parallel to b [0 1 0]
103.820, 0.000
105.212, 55.691
106.604, 272.976
107.995, 70.007
109.387, 180.072
110.777, 179.382
112.168, 33.579
113.559, 534.552
114.949, 1158.892
116.339, 1799.573
117.729, 1600.801
119.119, 1117.996
120.508, 600.744
121.897, 715.707
123.286, 344.631
124.675, 460.299
126.063, 441.486
127.452, 312.975
128.840, 433.568
130.228, 491.113
131.615, 474.500
133.003, 511.764
134.390, 494.957
135.777, 615.969
137.164, 590.668
138.550, 643.062
139.937, 581.047
141.323, 459.623
142.709, 507.082
144.094, 644.906
145.480, 624.961
146.865, 805.559
148.250, 732.250
149.635, 731.021
151.019, 680.867
152.403, 633.785
153.788, 706.766
155.171, 791.811
156.555, 529.916
157.939, 484.078
159.322, 601.775
160.705, 616.684
162.088, 371.699
163.470, 604.535
164.853, 377.406
166.235, 488.084
167.617, 408.582
168.998, 446.928
170.380, 364.162
171.761, 459.279
173.142, 409.033
174.523, 433.818
175.904, 310.494
177.284, 461.238
178.664, 370.973
180.044, 360.287
181.424, 469.365
182.803, 435.307
184.183, 449.096
185.562, 401.705
186.940, 454.230
188.319, 356.410
189.698, 414.557
191.076, 287.662
192.454, 413.742
193.831, 312.805
195.209, 472.865
196.586, 554.926
197.963, 372.994
199.340, 329.072
200.717, 312.164
202.093, 356.271
203.470, 285.396
204.846, 259.537
206.221, 321.695
207.597, 387.869
208.972, 179.059
210.347, 157.266
211.722, 192.486
213.097, 248.604
214.472, 156.566
215.846, 205.746
217.220, 178.570
218.594, 113.896
219.967, 146.082
221.341, 38.000
222.714, 93.494
224.087, 199.494
225.460, 117.969
226.832, 152.467
228.204, 106.986
229.577, 173.525
230.948, 58.328
232.320, 108.900
233.692, 131.041
235.063, 210.078
236.434, 88.170
237.805, 32.773
239.175, 240.389
240.545, 55.988
241.916, 197.141
243.286, 245.393
244.655, 105.709
246.025, 179.463
247.394, 85.037
248.763, 179.600
250.132, 0.146
251.501, 181.678
252.869, 90.797
254.237, 90.279
255.605, 112.232
256.973, 51.260
258.340, 71.250
259.708, 81.764
261.075, 1.270
262.442, 281.752
263.808, 27.734
265.175, 99.854
266.541, 211.510
267.907, 80.186
269.273, 151.727
270.639, 101.434
272.004, 126.004
273.369, 57.268
274.734, 84.850
276.099, 164.742
277.463, 284.840
278.828, 321.113
280.192, 207.547
281.556, 353.139
282.919, 121.924
284.283, 249.805
285.646, 429.797
287.009, 528.885
288.372, 698.035
289.734, 605.254
291.097, 1295.521
292.459, 1649.869
293.821, 2275.256
295.183, 3017.678
296.544, 3508.160
297.905, 3788.664
299.266, 3254.225
300.627, 2941.805
301.988, 2132.396
303.348, 1538.000
304.709, 1448.607
306.069, 918.225
307.428, 795.836
308.788, 586.445
310.147, 443.488
311.507, 566.678
312.865, 328.342
314.224, 333.994
315.583, 212.652
316.941, 179.297
318.299, 115.928
319.657, 115.549
321.015, 82.846
322.372, 138.285
323.729, 8.213
325.086, 150.320
326.443, 134.932
327.800, 12.621
329.156, 95.168
330.512, 110.160
331.868, 124.033
333.224, 69.984
334.579, 152.996
335.935, 97.090
337.290, 33.275
338.645, 159.512
339.999, 55.168
341.354, 46.812
342.708, 472.389
344.062, 278.896
345.416, 367.357
346.769, 510.789
348.123, 272.182
349.476, 396.549
350.829, 334.889
352.182, 306.150
353.534, 366.387
354.887, 127.600
356.239, 351.783
357.591, 335.303
358.942, 210.436
360.294, 84.049
361.645, 236.127
362.996, 271.176
364.347, 115.197
365.698, 351.189
367.048, 33.830
368.398, 281.756
369.748, 324.658
371.098, 288.869
372.448, 296.092
373.797, 346.908
375.146, 390.697
376.495, 256.412
377.844, 134.027
379.192, 454.473
380.540, 112.844
381.889, 424.064
383.236, 102.150
384.584, 216.129
385.932, 414.002
387.279, 320.850
388.626, 478.670
389.973, 359.469
391.319, 414.244
392.666, 536.992
394.012, 511.766
395.358, 758.459
396.704, 547.154
398.049, 735.443
399.394, 955.039
400.740, 958.061
402.084, 1087.602
403.429, 1046.027
404.774, 1171.617
406.118, 966.189
407.462, 1160.332
408.806, 1223.795
410.150, 1351.949
411.493, 1670.723
412.836, 1610.240
414.179, 2197.594
415.522, 2463.557
416.865, 2976.449
418.207, 3609.887
419.549, 4321.879
420.891, 5525.809
422.233, 6548.332
423.575, 8717.186
424.916, 10841.098
426.257, 13764.914
427.598, 17552.066
428.939, 20825.127
430.279, 24158.688
431.619, 25222.244
432.959, 23754.830
434.299, 19521.938
435.639, 14370.258
436.978, 11786.867
438.318, 8500.225
439.657, 6530.672
440.996, 5411.051
442.334, 4319.367
443.673, 4038.111
445.011, 3563.191
446.349, 3129.729
447.687, 3163.172
449.024, 2738.684
450.361, 2976.598
451.699, 2735.811
453.036, 3229.332
454.372, 3708.818
455.709, 4211.736
457.045, 4906.867
458.381, 5630.629
459.717, 7096.570
461.053, 8898.756
462.388, 10842.520
463.724, 14289.145
465.059, 17590.090
466.394, 22617.875
467.728, 27129.014
469.063, 31066.887
470.397, 33259.512
471.731, 32511.176
473.065, 29895.463
474.398, 25604.523
475.732, 21380.156
477.065, 17284.998
478.398, 14554.400
479.731, 12384.648
481.063, 9746.934
482.396, 8781.594
483.728, 6744.619
485.060, 5652.543
486.391, 4743.514
487.723, 3424.303
489.054, 3111.623
490.385, 2431.619
491.716, 1819.533
493.047, 1568.438
494.377, 1230.592
495.708, 1351.404
497.038, 766.592
498.368, 855.654
499.697, 833.664
501.027, 514.811
502.356, 865.723
503.685, 476.086
505.014, 837.395
506.342, 548.879
507.671, 500.082
508.999, 560.234
510.327, 810.332
511.655, 800.377
512.982, 592.176
514.310, 604.115
515.637, 586.992
516.964, 371.826
518.291, 946.605
519.617, 339.328
520.944, 594.561
522.270, 882.174
523.596, 497.736
524.921, 728.891
526.247, 121.029
527.572, 586.408
528.897, 518.209
530.222, 386.486
531.547, 377.711
532.871, 494.199
534.196, 627.564
535.520, 668.623
536.844, 535.064
538.167, 837.596
539.491, 559.578
540.814, 1059.891
542.137, 978.971
543.460, 974.490
544.783, 1693.041
546.105, 1360.684
547.427, 1642.275
548.749, 1027.422
550.071, 826.912
551.393, 958.354
552.714, 470.740
554.035, 656.080
555.356, 477.363
556.677, 329.602
557.998, 518.781
559.318, 154.906
560.638, 523.973
561.958, 49.984
563.278, 464.227
564.597, 222.121
565.917, 221.629
567.236, 210.402
568.555, 189.514
569.874, 159.416
571.192, 185.926
572.511, 93.266
573.829, 153.986
575.147, 159.805
576.464, 38.754
577.782, 120.725
579.099, 16.152
580.416, 163.930
581.733, 129.047
583.050, 295.727
584.366, 65.473
585.683, 222.598
586.999, 238.215
588.315, 111.484
589.630, 345.893
590.946, 127.234
592.261, 196.846
593.576, 158.398
594.891, 177.662
596.206, 369.906
597.520, 338.836
598.834, 17.990
600.148, 49.033
601.462, 248.137
602.776, 409.119
604.089, 34.502
605.402, 2.369
606.715, 273.965
608.028, 26.117
609.341, 322.611
610.653, 72.377
611.965, 233.504
613.277, 138.789
614.589, 54.262
615.901, 370.453
617.212, 69.887
618.523, 242.449
619.834, 122.914
621.145, 132.312
622.456, 508.748
623.766, 99.064
625.076, 428.311
626.386, 238.504
627.696, 12.361
629.006, 505.674
630.315, 169.303
631.624, 377.537
632.933, 2.678
634.242, 402.084
635.551, 615.791
636.859, 276.492
638.167, 766.133
639.475, 604.719
640.783, 567.285
642.090, 1179.844
643.398, 696.357
644.705, 1615.867
646.012, 1539.369
647.318, 1394.834
648.625, 2657.281
649.931, 2250.715
651.237, 3417.141
652.543, 3035.545
653.849, 2865.947
655.155, 2766.338
656.460, 1811.695
657.765, 1557.139
659.070, 1402.531
660.375, 727.877
661.679, 981.170
662.984, 424.410
664.288, 934.619
665.592, 627.777
666.895, 542.885
668.199, 861.941
669.502, 283.943
670.805, 939.895
672.108, 431.791
673.411, 596.637
674.713, 846.072
676.016, 488.820
677.318, 772.014
678.620, 722.664
679.921, 612.266
681.223, 837.852
682.524, 306.391
683.825, 840.211
685.126, 356.664
686.427, 487.064
687.727, 588.137
689.028, 150.117
690.328, 405.418
691.628, 576.791
692.927, 121.115
694.227, 680.463
695.526, 22.236
696.825, 600.977
698.124, 156.146
699.423, 371.256
700.721, 980.340
702.020, 468.377
703.318, 608.363
704.616, 316.357
705.913, 628.299
707.211, 774.188
708.508, 564.025
709.805, 669.764
711.102, 598.609
712.399, 795.373
713.695, 735.467
714.992, 676.168
716.288, 791.365
717.584, 645.969
718.879, 144.594
720.175, 781.988
721.470, 68.424
722.765, 522.797
724.060, 357.070
725.355, 167.527
726.649, 523.438
727.944, 261.449
729.238, 148.621
730.532, 352.324
731.825, 19.029
733.119, 388.873
734.412, 221.137
735.705, 451.330
736.998, 199.852
738.291, 210.660
739.584, 610.631
740.876, 88.598
742.168, 480.158
743.460, 241.738
744.752, 176.734
746.043, 538.660
747.334, 78.512
748.626, 333.625
749.916, 224.539
751.207, 24.941
752.498, 476.754
753.788, 86.277
755.078, 345.629
756.368, 330.113
757.658, 182.914
758.947, 561.883
760.237, 154.844
761.526, 101.273
762.815, 706.074
764.104, 25.395
765.392, 413.637
766.680, 359.160
767.969, 283.930
769.257, 347.879
770.544, 394.523
771.832, 698.449
773.119, 167.105
774.406, 401.922
775.693, 861.676
776.980, 93.375
778.267, 643.434
779.553, 589.785
780.839, 812.754
782.125, 1282.875
783.411, 605.125
784.697, 1480.000
785.982, 1123.398
787.267, 1066.922
788.552, 2024.012
789.837, 1569.570
791.122, 2190.578
792.406, 2076.551
793.690, 2443.387
794.974, 3270.973
796.258, 2672.730
797.542, 3597.035
798.825, 3037.719
800.108, 3070.371
801.391, 3326.883
802.674, 2652.457
803.957, 2852.992
805.239, 2681.035
806.522, 2610.496
807.804, 2884.234
809.085, 2130.617
810.367, 2632.965
811.649, 2036.672
812.930, 1977.945
814.211, 3015.453
815.492, 2100.707
816.772, 1808.859
818.053, 2115.922
819.333, 1337.996
820.613, 2317.836
821.893, 1545.832
823.173, 1503.789
824.452, 1761.582
825.732, 1419.465
827.011, 1781.129
828.290, 1364.133
829.568, 1121.910
830.847, 1520.543
832.125, 1093.238
833.403, 1274.898
834.681, 1127.770
835.959, 857.352
837.236, 1539.152
838.514, 547.332
839.791, 1336.344
841.068, 1200.855
842.345, 906.352
843.621, 1037.414
844.898, 740.316
846.174, 1062.621
847.450, 1159.977
848.726, 914.203
850.001, 1772.312
851.277, 1106.699
852.552, 1392.527
853.827, 1506.109
855.102, 1111.672
856.376, 2012.664
857.651, 1285.527
858.925, 1438.848
860.199, 1547.730
861.473, 1279.582
862.746, 1424.391
864.020, 1265.773
865.293, 972.504
866.566, 1587.195
867.839, 700.539
869.112, 1193.160
870.384, 936.746
871.656, 458.297
872.928, 1659.527
874.200, 472.391
875.472, 884.172
876.744, 1291.590
878.015, 371.145
879.286, 1161.305
880.557, 637.625
881.828, 946.117
883.098, 933.109
884.369, 554.090
885.639, 1226.203
886.909, 772.160
888.178, 1161.391
889.448, 1192.543
890.717, 253.660
891.987, 999.879
893.256, 831.977
894.524, 560.684
895.793, 1212.754
897.061, 560.047
898.330, 699.121
899.598, 746.145
900.865, 511.059
902.133, 861.707
903.401, 188.875
904.668, 486.254
905.935, 811.180
907.202, 217.793
908.468, 517.473
909.735, 535.113
911.001, 336.227
912.267, 788.117
913.533, 122.855
914.799, 529.809
916.064, 439.562
917.330, 86.879
918.595, 1007.578
919.860, 280.719
921.124, 683.398
922.389, 422.762
923.653, 160.234
924.918, 564.676
926.182, 276.316
927.445, 369.734
928.709, 699.129
929.972, 83.602
931.236, 919.660
932.499, 136.902
933.761, 140.109
935.024, 502.281
936.286, 85.559
937.549, 592.496
938.811, 403.586
940.073, 205.348
941.334, 642.566
942.596, 124.547
943.857, 679.215
945.118, 623.953
946.379, 188.660
947.640, 494.340
948.900, 234.992
950.161, 378.609
951.421, 963.207
952.681, 153.770
953.940, 1038.301
955.200, 436.809
956.459, 236.293
957.719, 878.742
958.978, 287.168
960.236, 467.566
961.495, 805.941
962.753, 264.707
964.012, 1214.453
965.270, 289.586
966.527, 339.695
967.785, 1160.785
969.043, 25.148
970.300, 1139.852
971.557, 156.836
972.814, 411.785
974.071, 963.719
975.327, 183.629
976.583, 711.516
977.840, 379.383
979.095, 53.230
980.351, 661.051
981.607, 120.859
982.862, 548.641
984.117, 397.402
985.372, 97.855
986.627, 679.797
987.882, 6.434
989.136, 170.035
990.390, 626.613
991.644, 193.816
992.898, 301.609
994.152, 398.035
995.405, 445.520
996.659, 745.652
997.912, 283.184
999.165, 520.809
1000.417, 659.789
1001.670, 20.777
1002.922, 943.738
1004.174, 54.297
1005.426, 180.637
1006.678, 981.559
1007.930, 184.527
1009.181, 624.273
1010.432, 358.062
1011.683, 294.852
1012.934, 1059.633
1014.185, 359.594
1015.435, 699.969
1016.685, 757.523
1017.935, 121.078
1019.185, 1156.637
1020.435, 297.195
1021.684, 581.723
1022.934, 1274.234
1024.183, 395.371
1025.432, 1455.891
1026.680, 669.145
1027.929, 133.379
1029.177, 1493.270
1030.425, 741.469
1031.673, 737.660
1032.921, 1307.832
1034.169, 6.000
1035.416, 1585.145
1036.663, 715.281
1037.911, 880.406
1039.157, 1694.520
1040.404, 496.613
1041.650, 1313.930
1042.897, 1265.012
1044.143, 870.074
1045.389, 1728.125
1046.634, 1002.172
1047.880, 1000.203
1049.125, 1816.227
1050.371, 168.242
1051.615, 1310.273
1052.860, 1364.289
1054.105, 721.324
1055.349, 1327.340
1056.593, 1049.348
1057.837, 1370.504
1059.081, 1489.504
1060.325, 718.492
1061.568, 1908.223
1062.812, 1514.250
1064.055, 950.805
1065.298, 1962.820
1066.540, 676.836
1067.783, 1633.523
1069.025, 1863.531
1070.267, 1061.234
1071.509, 2238.238
1072.751, 1144.234
1073.993, 1057.242
1075.234, 2110.234
1076.475, 1084.730
1077.716, 1897.617
1078.957, 1450.609
1080.198, 803.836
1081.438, 1886.828
1082.679, 823.750
1083.919, 1712.688
1085.159, 1810.672
1086.398, 546.883
1087.638, 2074.875
1088.877, 1041.871
1090.116, 1414.645
1091.355, 2484.656
1092.594, 777.570
1093.833, 1658.594
1095.071, 1428.629
1096.309, 678.883
1097.547, 2257.938
1098.785, 672.422
1100.023, 1005.496
1101.260, 1941.590
1102.498, 677.793
1103.735, 1871.918
1104.972, 1084.066
1106.208, 305.684
1107.445, 1643.867
1108.681, 725.754
1109.918, 1029.973
1111.154, 1322.223
1112.389, 149.098
1113.625, 1525.395
1114.860, 837.441
1116.096, 596.738
1117.331, 1404.121
1118.566, 410.363
1119.800, 1243.812
1121.035, 1398.496
1122.269, 587.020
1123.503, 1694.582
1124.737, 946.512
1125.971, 520.156
1127.205, 1971.840
1128.438, 288.379
1129.671, 1322.059
1130.904, 1249.988
1132.137, 689.875
1133.370, 1561.816
1134.602, 1034.574
1135.834, 815.637
1137.066, 2178.828
1138.298, 101.367
1139.530, 1249.629
1140.762, 1567.906
1141.993, 90.758
1143.224, 2322.266
1144.455, 532.035
1145.686, 731.711
1146.917, 1525.785
1148.147, 679.660
1149.377, 1701.641
1150.607, 943.680
1151.837, 371.863
1153.067, 2182.008
1154.296, 600.934
1155.526, 917.520
1156.755, 1722.605
1157.984, 765.039
1159.213, 1685.539
1160.441, 1444.133
1161.670, 244.367
1162.898, 2039.184
1164.126, 678.367
1165.354, 1332.504
1166.581, 1446.191
1167.809, 648.359
1169.036, 1519.324
1170.263, 1213.598
1171.490, 956.062
1172.717, 1679.543
1173.943, 1161.598
1175.170, 1427.660
1176.396, 1728.500
1177.622, 810.551
1178.848, 1820.602
1180.073, 1727.668
1181.299, 774.738
1182.524, 2199.809
1183.749, 652.598
1184.974, 1587.676
1186.199, 2285.766
1187.423, 448.863
1188.648, 2320.969
1189.872, 1572.082
1191.096, 1141.316
1192.320, 2385.570
1193.543, 1135.949
1194.767, 2444.445
1195.990, 2625.965
1197.213, 1387.504
1198.436, 3168.105
1199.659, 2843.773
1200.881, 2409.473
1202.104, 3788.293
1203.326, 2700.230
1204.548, 4163.344
1205.770, 4477.551
1206.991, 3489.785
1208.213, 5056.059
1209.434, 4540.367
1210.655, 3933.703
1211.876, 5034.070
1213.096, 4538.477
1214.317, 4730.020
1215.537, 5828.727
1216.757, 4260.465
1217.977, 5569.289
1219.197, 5449.164
1220.417, 4889.062
1221.636, 6543.000
1222.855, 5146.969
1224.074, 5440.969
1225.293, 6920.055
1226.512, 4938.238
1227.731, 6340.473
1228.949, 6435.520
1230.167, 5158.047
1231.385, 6310.941
1232.603, 5428.008
1233.820, 5143.105
1235.038, 7170.215
1236.255, 4266.430
1237.472, 5693.754
1238.689, 5424.082
1239.906, 4009.820
1241.122, 5926.551
1242.338, 3806.312
1243.555, 3953.434
1244.771, 5317.934
1245.986, 2570.605
1247.202, 5013.438
1248.417, 3484.445
1249.633, 2947.637
1250.848, 4273.008
1252.063, 2547.578
1253.277, 2789.355
1254.492, 3922.344
1255.706, 1788.535
1256.920, 3019.961
1258.134, 3075.613
1259.348, 1252.512
1260.562, 2881.648
1261.775, 2271.035
1262.988, 1608.684
1264.201, 2478.609
1265.414, 652.828
1266.627, 1960.340
1267.839, 2196.172
1269.052, 709.332
1270.264, 2352.855
1271.476, 1380.754
1272.688, 725.164
1273.899, 2405.973
1275.111, 20.781
1276.322, 1576.918
1277.533, 1700.109
1278.744, 325.812
1279.955, 1653.055
1281.165, 989.859
1282.376, 281.250
1283.586, 2158.270
1284.796, 321.949
1286.006, 623.332
1287.215, 1802.473
1288.425, 165.582
1289.634, 1820.230
1290.843, 1342.973
1292.052, 154.723
1293.261, 1647.570
1294.469, 1160.582
1295.678, 366.953
1296.886, 2013.133
1298.094, 45.250
1299.302, 1929.934
1300.509, 1514.828
1301.717, 317.504
1302.924, 1224.121
1304.131, 582.898
1305.338, 578.098
1306.545, 1528.062
1307.752, 480.102
1308.958, 970.473
1310.164, 1555.410
1311.370, 3.016
1312.576, 1327.715
1313.782, 0.000
##END=



