##NAMES=Rhodochrosite
##RRUFFID=R040133
##IDEAL CHEMISTRY=Mn^2+^CO_3_
##LOCALITY=Imuris, Sonora, Mexico
##OWNER=RRUFF
##SOURCE=University of Arizona Mineral Museum
##DESCRIPTION=Pink cleavage fragment
##STATUS=The identification of this mineral has been confirmed by X-ray diffraction and chemical analysis
##URL=rruff.info/R040133
##MEASURED CHEMISTRY=(Mn_0.92_Mg_0.02_Ca_0.01_)C_1.02_O_3_
##PIN_ID=L00279
##ORIENTATION=Laser parallel to a* (1 0 0). Fiducial mark perpendicular to laser is parallel to c [0 0 1]
128.187, 0.000
129.570, 26.867
130.953, 0.155
132.335, 17.526
133.717, 22.186
135.100, 0.967
136.481, 11.904
137.863, 10.061
139.245, 12.059
140.626, 11.137
142.007, 9.626
143.388, 12.485
144.768, 3.707
146.149, 8.942
147.529, 1.186
148.909, 8.465
150.289, 10.774
151.669, 6.192
153.048, 7.701
154.427, 9.198
155.806, 13.658
157.185, 23.086
158.564, 5.488
159.942, 17.866
161.320, 38.225
162.698, 24.568
164.076, 20.897
165.454, 36.213
166.831, 46.519
168.209, 59.268
169.586, 84.552
170.962, 104.825
172.339, 122.138
173.715, 158.507
175.092, 219.437
176.468, 336.884
177.843, 548.971
179.219, 770.149
180.594, 1087.332
181.970, 1295.461
183.345, 1527.595
184.719, 1641.734
186.094, 1580.877
187.468, 1295.025
188.843, 907.176
190.217, 580.331
191.590, 377.490
192.964, 263.652
194.337, 173.817
195.711, 138.984
197.084, 111.154
198.456, 80.325
199.829, 57.499
201.201, 60.676
202.574, 32.857
203.946, 29.040
205.317, 31.225
206.689, 11.413
208.060, 1.396
209.432, 6.798
210.803, 5.999
212.173, 6.204
213.544, 8.410
214.914, 3.617
216.285, 4.172
217.655, 3.042
219.024, 4.743
220.394, 7.473
221.763, 3.307
223.133, 3.086
224.502, 2.862
225.870, 4.226
227.239, 0.594
228.607, 1.825
229.976, 7.057
231.344, 14.290
232.711, 1.523
234.079, 22.762
235.446, 11.001
236.814, 12.240
238.181, 39.483
239.547, 14.725
240.914, 16.967
242.280, 45.210
243.647, 34.455
245.013, 39.700
246.378, 41.945
247.744, 43.314
249.109, 51.044
250.475, 55.678
251.840, 65.920
253.204, 77.162
254.569, 86.402
255.933, 93.640
257.298, 97.874
258.662, 117.105
260.025, 149.331
261.389, 147.594
262.753, 162.820
264.116, 196.046
265.479, 236.289
266.842, 272.519
268.204, 323.753
269.567, 358.987
270.929, 456.220
272.291, 524.494
273.653, 650.764
275.014, 837.025
276.376, 1054.301
277.737, 1338.532
279.098, 1847.820
280.459, 2467.083
281.820, 3314.340
283.180, 4473.572
284.540, 6020.867
285.900, 7355.147
287.260, 8771.420
288.620, 9517.670
289.979, 9755.946
291.339, 9315.391
292.698, 7919.938
294.056, 6495.209
295.415, 4944.391
296.774, 3700.661
298.132, 2833.925
299.490, 2094.173
300.848, 1687.430
302.206, 1298.877
303.563, 1086.156
304.920, 876.444
306.277, 738.705
307.634, 669.965
308.991, 595.262
310.347, 498.540
311.704, 463.788
313.060, 393.166
314.416, 387.433
315.772, 344.734
317.127, 303.018
318.482, 286.296
319.837, 235.693
321.192, 231.959
322.547, 213.211
323.902, 223.707
325.256, 168.982
326.610, 163.248
327.964, 171.496
329.318, 160.755
330.671, 170.038
332.025, 129.317
333.378, 135.588
334.731, 113.845
336.084, 107.083
337.436, 120.677
338.789, 98.010
340.141, 90.263
341.493, 79.490
342.844, 89.733
344.196, 65.975
345.547, 81.457
346.899, 58.676
348.250, 73.930
349.600, 51.175
350.951, 52.394
352.302, 45.622
353.652, 45.870
355.002, 32.376
356.352, 39.627
357.701, 49.845
359.051, 37.100
360.400, 46.485
361.749, 36.600
363.098, 45.886
364.446, 41.118
365.795, 31.334
367.143, 38.550
368.491, 12.793
369.839, 22.009
371.187, 25.152
372.534, 34.366
373.882, 21.588
375.229, 13.822
376.576, 9.036
377.922, 16.266
379.269, 20.251
380.615, 16.502
381.961, 16.446
383.307, 17.690
384.653, 18.757
385.998, 21.790
387.344, 19.862
388.689, 21.793
390.034, 14.977
391.379, 7.218
392.723, 0.457
394.068, 20.682
395.412, 7.923
396.756, 14.139
398.099, 15.503
399.443, 4.768
400.786, 15.006
402.130, 19.208
403.473, 24.063
404.815, 21.859
406.158, 9.511
407.501, 14.741
408.843, 13.962
410.185, 17.220
411.527, 17.415
412.868, 2.610
414.210, 5.803
415.551, 3.996
416.892, 5.459
418.233, 14.650
419.574, 2.840
420.914, 0.061
422.254, 13.249
423.595, 24.472
424.934, 13.670
426.274, 5.892
427.614, 0.096
428.953, 5.312
430.292, 5.522
431.631, 3.719
432.970, 9.374
434.308, 11.552
435.647, 9.738
436.985, 1.915
438.323, 3.146
439.661, 4.337
440.998, 3.887
442.336, 4.777
443.673, 4.947
445.010, 8.115
446.347, 6.277
447.683, 4.839
449.020, 3.650
450.356, 0.187
451.692, 2.005
453.028, 2.838
454.364, 5.606
455.699, 6.806
457.034, 6.036
458.369, 8.252
459.704, 6.403
461.039, 13.562
462.374, 2.229
463.708, 5.931
465.042, 4.102
466.376, 11.255
467.710, 13.396
469.043, 1.536
470.377, 6.675
471.710, 13.812
473.043, 1.040
474.376, 9.102
475.708, 1.234
477.041, 4.364
478.373, 5.493
479.705, 1.380
481.037, 7.764
482.368, 12.887
483.700, 2.988
485.031, 5.130
486.362, 7.247
487.693, 12.363
489.024, 8.477
490.354, 2.629
491.684, 2.765
493.014, 4.890
494.344, 8.028
495.674, 17.140
497.004, 4.738
498.333, 0.630
499.662, 4.478
500.991, 9.584
502.320, 5.697
503.648, 5.801
504.977, 3.097
506.305, 12.002
507.633, 3.099
508.961, 5.198
510.288, 17.295
511.616, 9.391
512.943, 4.487
514.270, 3.419
515.597, 3.672
516.924, 12.762
518.250, 2.851
519.576, 2.938
520.902, 5.038
522.228, 0.126
523.554, 8.217
524.880, 13.304
526.205, 13.425
527.530, 5.537
528.855, 11.790
530.180, 2.755
531.504, 14.839
532.829, 9.920
534.153, 7.000
535.477, 12.078
536.801, 5.156
538.124, 2.231
539.448, 1.306
540.771, 3.379
542.094, 4.311
543.417, 0.521
544.740, 7.590
546.062, 10.658
547.384, 6.726
548.707, 14.793
550.028, 1.859
551.350, 4.923
552.672, 7.958
553.993, 1.641
555.314, 10.080
556.635, 0.862
557.956, 1.193
559.277, 4.234
560.597, 18.285
561.917, 8.666
563.237, 2.376
564.557, 30.416
565.877, 5.453
567.196, 7.489
568.515, 1.523
569.835, 20.555
571.153, 14.585
572.472, 27.588
573.791, 19.603
575.109, 2.392
576.427, 13.615
577.745, 23.634
579.063, 5.625
580.380, 15.601
581.698, 4.614
583.015, 10.625
584.332, 4.635
585.649, 8.628
586.965, 5.594
588.282, 6.581
589.598, 9.881
590.914, 5.456
592.230, 16.537
593.546, 11.529
594.861, 14.519
596.176, 2.475
597.492, 9.458
598.807, 1.419
600.121, 9.376
601.436, 16.334
602.750, 15.291
604.064, 7.260
605.378, 13.218
606.692, 12.168
608.006, 20.111
609.319, 9.024
610.632, 11.828
611.946, 2.423
613.258, 3.517
614.571, 1.460
615.884, 2.030
617.196, 14.341
618.508, 11.306
619.820, 2.274
621.132, 10.055
622.443, 6.983
623.755, 10.900
625.066, 13.866
626.377, 22.831
627.688, 15.779
628.998, 17.699
630.309, 10.679
631.619, 11.497
632.929, 14.421
634.239, 22.308
635.548, 34.235
636.858, 21.152
638.167, 8.988
639.476, 21.897
640.785, 12.825
642.094, 22.548
643.403, 23.440
644.711, 17.338
646.019, 15.254
647.327, 4.167
648.635, 7.326
649.943, 10.438
651.250, 7.600
652.557, 19.106
653.864, 12.329
655.171, 16.885
656.478, 25.227
657.785, 20.096
659.091, 13.082
660.397, 16.954
661.703, 24.822
663.009, 18.472
664.314, 20.365
665.620, 27.022
666.925, 16.877
668.230, 24.756
669.535, 26.865
670.839, 18.711
672.144, 18.704
673.448, 31.549
674.752, 26.501
676.056, 23.429
677.360, 12.257
678.664, 19.974
679.967, 16.607
681.270, 21.453
682.573, 10.065
683.876, 11.922
685.178, 15.272
686.481, 8.640
687.783, 25.451
689.085, 27.298
690.387, 33.134
691.689, 32.956
692.990, 32.823
694.292, 30.725
695.593, 28.532
696.894, 36.313
698.194, 34.108
699.495, 35.905
700.795, 44.667
702.096, 47.510
703.396, 55.336
704.695, 60.203
705.995, 84.176
707.295, 88.057
708.594, 113.102
709.893, 152.895
711.192, 211.651
712.491, 307.449
713.789, 519.095
715.087, 921.837
716.386, 1616.603
717.684, 2428.404
718.981, 2918.547
720.279, 2720.292
721.576, 1772.087
722.874, 993.847
724.171, 569.614
725.468, 357.339
726.764, 264.125
728.061, 171.909
729.357, 140.691
730.653, 109.470
731.949, 68.976
733.245, 82.784
734.541, 64.558
735.836, 50.297
737.131, 27.068
738.426, 38.799
739.721, 45.553
741.016, 26.281
742.310, 42.023
743.605, 16.750
744.899, 34.479
746.193, 41.406
747.487, 36.686
748.780, 21.439
750.074, 30.181
751.367, 21.930
752.660, 8.621
753.953, 28.348
755.245, 24.015
756.538, 21.738
757.830, 25.478
759.122, 37.216
760.414, 18.926
761.706, 19.658
762.997, 27.384
764.289, 20.116
765.580, 16.946
766.871, 21.667
768.162, 18.106
769.452, 16.449
770.743, 15.434
772.033, 13.093
773.323, 5.813
774.613, 8.523
775.903, 8.720
777.193, 16.422
778.482, 14.109
779.771, 7.836
781.060, 7.547
782.349, 4.638
783.638, 16.963
784.926, 4.668
786.214, 12.360
787.502, 20.053
788.790, 12.754
790.078, 6.453
791.366, 9.150
792.653, 3.845
793.940, 15.521
795.227, 10.214
796.514, 3.902
797.801, 16.592
799.087, 14.280
800.373, 10.967
801.659, 8.652
802.945, 0.298
804.231, 2.334
805.517, 1.384
806.802, 6.738
808.087, 2.073
809.372, 6.579
810.657, 5.760
811.942, 9.895
813.226, 1.549
814.510, 9.193
815.794, 9.971
817.078, 4.620
818.362, 8.268
819.646, 10.085
820.929, 15.553
822.212, 19.191
823.495, 1.173
824.778, 9.459
826.061, 3.909
827.343, 7.719
828.625, 1.345
829.907, 1.006
831.189, 9.628
832.471, 11.450
833.753, 10.838
835.034, 8.993
836.315, 9.404
837.596, 17.160
838.877, 16.730
840.158, 2.314
841.438, 9.868
842.718, 14.458
843.999, 15.048
845.278, 11.636
846.558, 0.224
847.838, 7.809
849.117, 3.393
850.396, 17.977
851.675, 8.559
852.954, 8.141
854.233, 5.721
855.511, 1.301
856.790, 3.880
858.068, 0.458
859.346, 0.966
860.624, 0.393
861.901, 2.821
863.179, 12.748
864.456, 15.316
865.733, 20.883
867.010, 23.519
868.286, 17.016
869.563, 20.582
870.839, 18.147
872.115, 12.712
873.391, 13.279
874.667, 14.845
875.943, 3.410
877.218, 22.975
878.493, 18.540
879.768, 15.104
881.043, 5.667
882.318, 12.230
883.593, 12.792
884.867, 2.354
886.141, 0.084
887.415, 6.477
888.689, 7.038
889.962, 8.598
891.236, 8.533
892.509, 6.737
893.782, 4.277
895.055, 4.836
896.328, 1.395
897.601, 6.953
898.873, 3.489
900.145, 10.067
901.417, 8.625
902.689, 18.182
903.961, 17.203
905.232, 16.778
906.503, 12.828
907.775, 12.385
909.045, 8.942
910.316, 5.498
911.587, 1.055
912.857, 13.611
914.128, 19.167
915.398, 8.723
916.667, 1.279
917.937, 3.165
919.207, 20.390
920.476, 8.945
921.745, 9.501
923.014, 4.057
924.283, 0.613
925.552, 5.170
926.820, 11.695
928.088, 10.767
929.356, 0.766
930.624, 6.318
931.892, 1.129
933.160, 18.401
934.427, 12.930
935.694, 3.436
936.961, 13.989
938.228, 3.498
939.495, 9.050
940.761, 18.604
942.028, 15.159
943.294, 29.689
944.560, 35.232
945.825, 11.733
947.091, 18.290
948.356, 18.839
949.622, 5.348
950.887, 11.905
952.152, 16.464
953.416, 3.019
954.681, 13.566
955.945, 7.682
957.210, 19.159
958.474, 5.436
959.737, 2.380
961.001, 5.620
962.265, 7.164
963.528, 22.178
964.791, 12.738
966.054, 20.202
967.317, 5.237
968.579, 29.325
969.842, 13.867
971.104, 14.425
972.366, 18.184
973.628, 8.753
974.890, 16.325
976.151, 16.658
977.412, 6.233
978.674, 4.402
979.935, 17.973
981.195, 2.531
982.456, 17.951
983.717, 10.469
984.977, 11.228
986.237, 9.032
987.497, 14.546
988.757, 15.373
990.016, 7.953
991.276, 20.535
992.535, 27.079
993.794, 24.663
995.053, 21.249
996.312, 24.835
997.570, 38.423
998.829, 49.894
1000.087, 47.484
1001.345, 64.062
1002.603, 63.656
1003.860, 62.255
1005.118, 71.854
1006.375, 79.452
1007.632, 99.017
1008.889, 105.611
1010.146, 99.147
1011.402, 122.602
1012.659, 115.098
1013.915, 132.447
1015.171, 135.060
1016.427, 139.675
1017.683, 140.292
1018.938, 143.909
1020.194, 144.529
1021.449, 176.155
1022.704, 166.783
1023.959, 183.412
1025.213, 175.044
1026.468, 190.678
1027.722, 198.313
1028.976, 208.949
1030.230, 202.587
1031.484, 204.227
1032.738, 202.868
1033.991, 206.029
1035.245, 211.446
1036.498, 216.801
1037.751, 224.417
1039.003, 232.066
1040.256, 236.717
1041.508, 248.369
1042.760, 234.023
1044.013, 260.678
1045.264, 275.335
1046.516, 278.994
1047.768, 334.654
1049.019, 311.316
1050.270, 346.794
1051.521, 352.464
1052.772, 358.138
1054.023, 404.813
1055.273, 426.492
1056.523, 445.173
1057.774, 496.856
1059.023, 520.541
1060.273, 549.227
1061.523, 594.915
1062.772, 689.605
1064.022, 778.296
1065.271, 908.991
1066.520, 1039.687
1067.768, 1102.385
1069.017, 1008.965
1070.265, 978.668
1071.513, 1027.378
1072.761, 1140.089
1074.009, 1290.802
1075.257, 1452.517
1076.505, 1734.234
1077.752, 2120.952
1078.999, 2577.133
1080.246, 3423.858
1081.493, 4776.585
1082.740, 7545.290
1083.986, 13134.021
1085.232, 24863.752
1086.478, 45813.492
1087.724, 59453.223
1088.970, 51332.965
1090.216, 31902.707
1091.461, 17092.570
1092.706, 10232.493
1093.952, 6320.241
1095.196, 3986.990
1096.441, 2782.739
1097.686, 1986.491
1098.930, 1519.244
1100.174, 1196.999
1101.418, 929.756
1102.662, 790.515
1103.906, 672.276
1105.150, 562.038
1106.393, 462.803
1107.636, 441.571
1108.879, 404.342
1110.122, 369.118
1111.365, 293.896
1112.607, 302.676
1113.849, 276.461
1115.092, 238.357
1116.334, 249.145
1117.575, 198.807
1118.817, 199.599
1120.058, 191.392
1121.300, 158.186
1122.541, 171.347
1123.782, 142.428
1125.023, 141.529
1126.263, 135.414
1127.504, 111.375
1128.744, 122.186
1129.984, 116.998
1131.224, 86.776
1132.464, 108.592
1133.703, 92.095
1134.943, 90.918
1136.182, 76.518
1137.421, 63.347
1138.660, 89.181
1139.898, 86.016
1141.137, 84.853
1142.375, 87.691
1143.613, 77.260
1144.851, 77.145
1146.089, 60.218
1147.327, 67.061
1148.565, 63.906
1149.802, 55.127
1151.039, 59.975
1152.276, 53.413
1153.513, 40.275
1154.749, 27.126
1155.986, 44.979
1157.222, 44.833
1158.458, 41.716
1159.694, 40.057
1160.930, 31.915
1162.166, 49.776
1163.401, 20.852
1164.636, 38.715
1165.872, 46.580
1167.106, 27.445
1168.341, 36.312
1169.576, 34.471
1170.810, 13.340
1172.044, 30.240
1173.279, 19.444
1174.512, 36.315
1175.746, 25.187
1176.980, 34.060
1178.213, 26.933
1179.446, 29.807
1180.679, 15.682
1181.912, 20.612
1183.145, 20.534
1184.378, 26.412
1185.610, 24.341
1186.842, 20.220
1188.074, 32.100
1189.306, 35.980
1190.538, 17.861
1191.769, 26.743
1193.001, 24.652
1194.232, 28.536
1195.463, 5.421
1196.694, 27.323
1197.924, 21.209
1199.155, 8.388
1200.385, 39.644
1201.615, 14.533
1202.845, 10.013
1204.075, 11.929
1205.305, 5.820
1206.534, 0.788
1207.763, 28.521
1208.993, 18.232
1210.222, 20.796
1211.450, 12.394
1212.679, 24.683
1213.907, 3.581
1215.136, 27.479
1216.364, 34.801
1217.592, 25.703
1218.820, 5.738
1220.047, 14.642
1221.275, 21.547
1222.502, 3.453
1223.729, 19.599
1224.956, 13.505
1226.183, 1.514
1227.409, 15.886
1228.636, 15.798
1229.862, 5.864
1231.088, 21.778
1232.314, 18.697
1233.540, 1.613
1234.765, 9.530
1235.991, 5.574
1237.216, 7.492
1238.441, 3.589
1239.666, 4.669
1240.891, 17.244
1242.115, 14.157
1243.339, 5.070
1244.564, 19.985
1245.788, 17.900
1247.012, 2.816
1248.235, 28.733
1249.459, 20.650
1250.682, 12.568
1251.905, 14.487
1253.128, 20.404
1254.351, 19.318
1255.574, 1.233
1256.797, 15.148
1258.019, 10.061
1259.241, 23.972
1260.463, 32.884
1261.685, 2.203
1262.907, 24.700
1264.128, 10.602
1265.350, 19.504
1266.571, 10.406
1267.792, 11.309
1269.013, 5.788
1270.233, 4.406
1271.454, 4.635
1272.674, 1.090
1273.894, 2.192
1275.114, 14.706
1276.334, 10.604
1277.554, 16.488
1278.773, 16.368
1279.993, 16.247
1281.212, 29.127
1282.431, 15.006
1283.650, 10.883
1284.868, 17.759
1286.087, 16.631
1287.305, 15.757
1288.523, 14.071
1289.741, 13.209
1290.959, 8.060
1292.177, 5.908
1293.394, 8.754
1294.612, 17.599
1295.829, 4.558
1297.046, 28.281
1298.263, 7.881
1299.479, 4.953
1300.696, 20.786
1301.912, 11.617
1303.128, 33.446
1304.344, 2.273
1305.560, 5.901
1306.776, 11.920
1307.991, 11.740
1309.207, 1.442
1310.422, 19.373
1311.637, 10.186
1312.852, 9.997
1314.066, 9.806
1315.281, 18.387
1316.495, 15.412
1317.709, 3.209
1318.923, 2.995
1320.137, 15.796
1321.351, 12.587
1322.564, 18.375
1323.777, 16.163
1324.991, 15.949
1326.204, 10.735
1327.416, 2.519
1328.629, 2.943
1329.841, 11.083
1331.054, 2.863
1332.266, 12.643
1333.478, 20.421
1334.690, 13.199
1335.901, 14.977
1337.113, 19.804
1338.324, 5.582
1339.535, 15.359
1340.746, 15.309
1341.957, 8.087
1343.168, 23.866
1344.378, 17.301
1345.589, 2.529
1346.799, 14.243
1348.009, 6.004
1349.219, 6.735
1350.428, 26.488
1351.638, 3.206
1352.847, 41.889
1354.056, 8.841
1355.265, 9.793
1356.474, 15.742
1357.683, 2.310
1358.891, 34.631
1360.100, 22.567
1361.308, 2.497
1362.516, 35.437
1363.724, 13.635
1364.931, 17.293
1366.139, 19.220
1367.346, 22.146
1368.553, 0.934
1369.760, 21.652
1370.967, 4.573
1372.174, 2.506
1373.380, 20.414
1374.587, 3.334
1375.793, 24.254
1376.999, 16.172
1378.205, 23.090
1379.410, 27.008
1380.616, 4.790
1381.821, 24.706
1383.026, 34.622
1384.231, 16.719
1385.436, 35.137
1386.641, 54.837
1387.846, 37.735
1389.050, 62.633
1390.254, 69.530
1391.458, 62.427
1392.662, 61.324
1393.866, 55.222
1395.069, 56.114
1396.273, 65.012
1397.476, 65.370
1398.679, 36.383
1399.882, 40.266
1401.085, 54.108
1402.287, 53.254
1403.490, 70.800
1404.692, 77.672
1405.894, 86.544
1407.096, 127.346
1408.297, 142.599
1409.499, 191.438
1410.700, 245.278
1411.902, 330.119
1413.103, 410.789
1414.304, 623.540
1415.504, 905.379
1416.705, 1314.220
1417.905, 1781.012
1419.106, 2243.852
1420.306, 2268.660
1421.506, 2143.328
1422.705, 1731.970
1423.905, 1206.688
1425.105, 972.301
1426.304, 709.994
1427.503, 533.931
1428.702, 464.660
1429.901, 368.473
1431.099, 300.685
1432.298, 306.324
1433.496, 220.411
1434.694, 227.717
1435.892, 194.927
1437.090, 164.464
1438.288, 171.995
1439.485, 179.193
1440.682, 149.682
1441.879, 169.188
1443.076, 124.677
1444.273, 130.146
1445.470, 142.593
1446.666, 132.017
1447.863, 121.440
1449.059, 123.851
1450.255, 111.335
1451.451, 96.650
1452.646, 97.076
1453.842, 85.487
1455.037, 81.554
1456.233, 64.236
1457.428, 64.568
1458.622, 55.867
1459.817, 55.255
1461.012, 49.641
1462.206, 48.196
1463.400, 43.281
1464.594, 46.870
1465.788, 34.374
1466.982, 32.915
1468.176, 30.461
1469.369, 21.017
1470.562, 31.576
1471.755, 29.143
1472.948, 28.296
1474.141, 9.318
1475.333, 37.930
1476.526, 6.566
1477.718, 31.237
1478.910, 40.946
1480.102, 0.303
1481.294, 28.488
1482.486, 20.315
1483.677, 1.816
1484.868, 32.102
1486.059, 25.079
1487.250, 1.126
1488.441, 19.327
1489.632, 20.364
1490.822, 17.864
1492.013, 14.811
1493.203, 0.008
1494.393, 11.364
1495.583, 0.000
##END=



