##NAMES=Rhodochrosite
##RRUFFID=R050019
##IDEAL CHEMISTRY=Mn^2+^CO_3_
##LOCALITY=Home Sweet Home mine, Colorado, USA
##OWNER=RRUFF
##SOURCE=Eugene Schlepp
##DESCRIPTION=Pink single crystal rhombs on quartz
##STATUS=The identification of this mineral has been confirmed by X-ray diffraction and chemical analysis
##URL=rruff.info/R050019
##MEASURED CHEMISTRY=Mn_1.00_CO_3_
##PIN_ID=L00297
##ORIENTATION=Laser parallel to a* (1 0 0). Fiducial mark perpendicular to laser is parallel to c [0 0 1]
112.063, 0.000
113.461, 12.798
114.859, 9.988
116.256, 3.216
117.653, 2.612
119.050, 0.825
120.447, 0.118
121.843, 6.711
123.240, 4.643
124.636, 28.657
126.031, 11.744
127.427, 27.901
128.822, 22.119
130.217, 15.391
131.612, 42.712
133.006, 24.069
134.400, 13.452
135.794, 9.855
137.188, 27.274
138.581, 22.737
139.975, 29.235
141.368, 35.287
142.760, 27.369
144.153, 41.938
145.545, 41.558
146.937, 41.163
148.329, 40.846
149.720, 40.511
151.112, 54.159
152.503, 33.792
153.893, 53.413
155.284, 65.023
156.674, 46.624
158.064, 72.217
159.454, 77.802
160.843, 58.380
162.233, 75.952
163.622, 96.519
165.011, 106.276
166.399, 132.254
167.787, 138.334
169.175, 186.285
170.563, 221.918
171.951, 262.407
173.338, 330.898
174.725, 476.389
176.112, 686.459
177.499, 1023.026
178.885, 1529.487
180.271, 2028.949
181.657, 2680.414
183.043, 2945.259
184.428, 2807.703
185.813, 2131.152
187.198, 1433.602
188.583, 905.054
189.967, 580.509
191.351, 430.965
192.735, 288.433
194.119, 205.904
195.502, 139.377
196.885, 114.853
198.268, 98.329
199.651, 45.805
201.033, 87.282
202.415, 37.761
203.797, 73.243
205.179, 49.726
206.561, 38.211
207.942, 35.699
209.323, 12.189
210.703, 39.684
212.084, 30.182
213.464, 28.681
214.844, 28.182
216.224, 12.685
217.603, 5.810
218.983, 9.697
220.362, 14.212
221.741, 1.729
223.119, 5.247
224.497, 4.765
225.875, 7.715
227.253, 1.806
228.631, 0.672
230.008, 3.169
231.385, 5.249
232.762, 13.899
234.139, 7.424
235.515, 8.949
236.891, 10.475
238.267, 0.002
239.643, 3.471
241.018, 6.943
242.393, 8.586
243.768, 14.116
245.143, 27.646
246.517, 17.177
247.891, 20.707
249.265, 36.236
250.639, 21.766
252.012, 16.297
253.386, 32.225
254.759, 4.317
256.131, 6.972
257.504, 26.495
258.876, 5.017
260.248, 15.536
261.620, 11.055
262.991, 35.576
264.363, 23.098
265.734, 32.611
267.104, 29.125
268.475, 36.640
269.845, 51.156
271.215, 48.294
272.585, 75.807
273.955, 57.320
275.324, 106.911
276.693, 110.429
278.062, 151.014
279.431, 210.581
280.799, 296.131
282.167, 404.645
283.535, 570.169
284.903, 758.612
286.270, 953.129
287.638, 1061.678
289.005, 1122.231
290.371, 1055.787
291.738, 926.345
293.104, 688.906
294.470, 563.469
295.836, 415.034
297.201, 334.601
298.567, 255.169
299.932, 184.738
301.296, 146.308
302.661, 142.880
304.025, 96.452
305.389, 101.024
306.753, 76.856
308.117, 54.429
309.480, 49.003
310.843, 55.577
312.206, 53.150
313.569, 66.724
314.931, 71.297
316.293, 29.871
317.655, 37.444
319.017, 49.017
320.378, 27.591
321.740, 45.164
323.101, 24.810
324.461, 28.383
325.822, 16.451
327.182, 13.026
328.542, 32.602
329.902, 21.172
331.261, 23.743
332.621, 22.314
333.980, 20.880
335.339, 16.445
336.697, 30.011
338.056, 38.577
339.414, 21.144
340.772, 34.708
342.129, 7.318
343.487, 37.879
344.844, 30.440
346.201, 10.003
347.557, 15.555
348.914, 23.109
350.270, 28.663
351.626, 14.218
352.982, 36.773
354.337, 12.330
355.693, 5.890
357.048, 41.451
358.402, 20.012
359.757, 30.575
361.111, 22.137
362.465, 0.701
363.819, 14.265
365.173, 10.829
366.526, 31.394
367.879, 48.960
369.232, 33.526
370.585, 24.093
371.937, 31.660
373.290, 22.228
374.642, 11.807
375.993, 13.376
377.345, 26.946
378.696, 7.516
380.047, 10.086
381.398, 21.283
382.748, 7.854
384.099, 18.427
385.449, 17.071
386.799, 35.644
388.148, 21.218
389.497, 5.703
390.847, 18.870
392.196, 34.394
393.544, 8.032
394.893, 6.998
396.241, 14.571
397.589, 1.856
398.936, 6.717
400.284, 28.291
401.631, 11.855
402.978, 22.215
404.325, 19.358
405.672, 40.971
407.018, 25.547
408.364, 14.123
409.710, 39.699
411.055, 31.276
412.401, 28.854
413.746, 20.431
415.091, 2.986
416.435, 28.563
417.780, 13.138
419.124, 17.713
420.468, 35.288
421.812, 1.864
423.155, 15.440
424.498, 11.017
425.842, 10.405
427.184, 3.170
428.527, 22.745
429.869, 14.322
431.211, 8.898
432.553, 15.476
433.895, 1.949
435.236, 37.626
436.577, 2.202
437.918, 23.230
439.259, 34.807
440.599, 13.383
441.940, 16.983
443.280, 32.561
444.619, 38.144
445.959, 14.724
447.298, 19.304
448.637, 11.884
449.976, 32.465
451.315, 27.052
452.653, 16.635
453.991, 25.218
455.329, 18.928
456.667, 18.325
458.004, 18.446
459.341, 17.711
460.678, 17.300
462.015, 19.889
463.352, 25.478
464.688, 6.068
466.024, 13.659
467.360, 4.750
468.695, 22.839
470.031, 12.428
471.366, 14.017
472.701, 19.607
474.035, 25.197
475.370, 21.787
476.704, 2.377
478.038, 7.968
479.372, 1.559
480.705, 14.150
482.038, 2.741
483.371, 1.668
484.704, 8.923
486.037, 8.487
487.369, 3.364
488.701, 19.951
490.033, 2.539
491.365, 31.126
492.696, 22.714
494.027, 31.302
495.358, 26.890
496.689, 29.479
498.019, 12.069
499.350, 44.658
500.680, 5.249
502.009, 1.161
503.339, 22.430
504.668, 49.021
505.997, 37.612
507.326, 21.203
508.655, 22.795
509.983, 16.387
511.311, 13.979
512.639, 30.571
513.967, 38.178
515.295, 36.659
516.622, 40.544
517.949, 32.743
519.276, 28.337
520.602, 24.933
521.929, 21.296
523.255, 24.127
524.581, 20.726
525.906, 35.325
527.232, 43.928
528.557, 46.531
529.882, 39.134
531.207, 17.741
532.531, 28.348
533.855, 0.033
535.179, 19.574
536.503, 27.181
537.827, 6.792
539.150, 20.404
540.473, 0.021
541.796, 12.640
543.119, 8.260
544.441, 1.118
545.764, 18.503
547.086, 11.125
548.407, 2.746
549.729, 25.024
551.050, 14.648
552.371, 52.271
553.692, 7.595
555.013, 26.024
556.333, 26.644
557.653, 9.148
558.973, 27.767
560.293, 7.387
561.612, 6.006
562.932, 33.626
564.251, 0.752
565.569, 45.870
566.888, 11.491
568.206, 23.112
569.524, 18.733
570.842, 26.354
572.160, 19.977
573.477, 17.601
574.795, 15.231
576.112, 15.446
577.428, 10.717
578.745, 19.121
580.061, 8.753
581.377, 9.384
582.693, 22.015
584.009, 16.646
585.324, 18.677
586.639, 20.308
587.954, 36.938
589.269, 8.568
590.583, 35.203
591.897, 22.839
593.212, 34.399
594.525, 30.035
595.839, 7.330
597.152, 14.307
598.465, 26.938
599.778, 0.310
601.091, 10.320
602.403, 0.950
603.716, 2.579
605.028, 10.207
606.339, 14.836
607.651, 13.989
608.962, 1.255
610.273, 10.891
611.584, 2.518
612.895, 1.847
614.205, 22.809
615.515, 0.436
616.825, 6.062
618.135, 10.696
619.444, 24.321
620.754, 10.946
622.063, 29.570
623.372, 40.429
624.680, 40.052
625.989, 19.415
627.297, 39.056
628.605, 19.677
629.912, 9.297
631.220, 19.917
632.527, 7.536
633.834, 37.155
635.141, 5.773
636.447, 8.391
637.754, 36.007
639.060, 8.624
640.366, 28.239
641.671, 22.782
642.977, 18.396
644.282, 3.484
645.587, 33.223
646.892, 49.833
648.196, 23.442
649.501, 32.050
650.805, 28.686
652.109, 19.293
653.412, 47.036
654.716, 14.641
656.019, 9.246
657.322, 31.063
658.625, 13.667
659.927, 25.220
661.230, 22.924
662.532, 32.526
663.834, 34.136
665.135, 30.736
666.437, 40.381
667.738, 10.979
669.039, 35.576
670.340, 2.191
671.640, 11.212
672.940, 43.378
674.241, 3.140
675.540, 20.729
676.840, 7.682
678.139, 32.269
679.439, 25.537
680.738, 10.123
682.036, 14.708
683.335, 14.204
684.633, 26.787
685.931, 45.369
687.229, 10.843
688.527, 29.424
689.824, 6.003
691.121, 31.570
692.418, 11.146
693.715, 39.797
695.012, 63.371
696.308, 40.407
697.604, 48.969
698.900, 36.540
700.195, 57.867
701.491, 75.364
702.786, 72.931
704.081, 66.496
705.376, 82.061
706.670, 78.625
707.964, 84.188
709.259, 115.750
710.552, 163.859
711.846, 277.420
713.139, 441.997
714.433, 887.557
715.726, 1601.128
717.018, 2849.684
718.311, 3280.241
719.603, 2650.814
720.895, 1556.343
722.187, 870.894
723.479, 514.444
724.770, 315.993
726.061, 205.540
727.352, 173.637
728.643, 103.457
729.934, 102.190
731.224, 49.731
732.514, 88.352
733.804, 40.447
735.094, 52.984
736.383, 68.531
737.672, 63.065
738.961, 29.609
740.250, 67.140
741.539, 26.672
742.827, 55.217
744.115, 62.746
745.403, 33.247
746.691, 50.284
747.978, 40.808
749.265, 30.331
750.552, 24.853
751.839, 12.920
753.126, 15.883
754.412, 3.955
755.698, 25.447
756.984, 17.959
758.270, 27.465
759.555, 33.974
760.840, 21.482
762.125, 5.987
763.410, 4.491
764.695, 11.987
765.979, 23.487
767.263, 11.985
768.547, 11.646
769.831, 34.437
771.114, 29.903
772.398, 12.386
773.681, 40.867
774.964, 23.351
776.246, 37.829
777.529, 1.305
778.811, 23.777
780.093, 17.248
781.375, 9.719
782.656, 24.188
783.937, 24.655
785.219, 27.121
786.499, 25.585
787.780, 32.117
789.060, 43.509
790.341, 39.969
791.621, 38.410
792.901, 36.539
794.180, 32.233
795.459, 24.792
796.739, 21.244
798.017, 15.695
799.296, 3.883
800.575, 26.333
801.853, 38.780
803.131, 35.227
804.409, 6.672
805.686, 41.115
806.964, 2.557
808.241, 25.996
809.518, 36.434
810.795, 0.870
812.071, 30.303
813.347, 14.735
814.623, 3.165
815.899, 33.594
817.175, 10.020
818.450, 20.446
819.726, 4.870
821.001, 12.292
822.275, 16.713
823.550, 8.528
824.824, 41.932
826.098, 16.574
827.372, 0.994
828.646, 39.427
829.920, 2.162
831.193, 38.550
832.466, 7.045
833.739, 36.353
835.011, 22.750
836.284, 10.854
837.556, 13.533
838.828, 13.918
840.100, 10.698
841.371, 18.678
842.642, 12.052
843.914, 13.413
845.184, 17.718
846.455, 13.844
847.726, 24.516
848.996, 20.124
850.266, 21.221
851.536, 11.566
852.805, 9.090
854.075, 14.246
855.344, 27.581
856.613, 37.915
857.881, 37.248
859.150, 17.581
860.418, 13.912
861.686, 14.242
862.954, 7.792
864.222, 11.901
865.489, 4.231
866.756, 13.559
868.023, 4.886
869.290, 26.212
870.557, 7.537
871.823, 2.861
873.089, 4.185
874.355, 43.507
875.621, 46.829
876.886, 17.149
878.152, 43.469
879.417, 7.212
880.682, 2.898
881.946, 1.588
883.211, 28.719
884.475, 0.026
885.739, 7.670
887.003, 14.630
888.266, 2.928
889.530, 23.226
890.793, 2.523
892.056, 29.819
893.318, 17.115
894.581, 1.410
895.843, 40.704
897.105, 15.002
898.367, 7.717
899.629, 38.563
900.890, 12.842
902.152, 28.121
903.413, 24.399
904.673, 23.673
905.934, 22.953
907.194, 25.110
908.454, 18.389
909.714, 20.946
910.974, 14.946
912.234, 27.224
913.493, 13.501
914.752, 27.717
916.011, 20.892
917.270, 7.161
918.528, 24.437
919.786, 5.705
921.044, 11.049
922.302, 17.223
923.560, 13.495
924.817, 8.759
926.074, 0.031
927.331, 29.302
928.588, 14.575
929.844, 22.611
931.101, 13.883
932.357, 36.156
933.613, 12.409
934.868, 14.682
936.124, 27.955
937.379, 6.228
938.634, 51.504
939.889, 56.781
941.144, 12.058
942.398, 46.335
943.652, 18.613
944.906, 44.892
946.160, 1.172
947.414, 24.453
948.667, 24.737
949.920, 4.023
951.173, 44.212
952.426, 14.499
953.678, 36.787
954.931, 48.074
956.183, 35.335
957.435, 14.625
958.686, 2.778
959.938, 20.068
961.189, 19.359
962.440, 25.438
963.691, 36.729
964.941, 2.021
966.192, 3.211
967.442, 10.507
968.692, 13.793
969.942, 13.846
971.191, 15.102
972.441, 14.640
973.690, 11.061
974.939, 14.219
976.187, 10.516
977.436, 0.183
978.684, 2.055
979.932, 3.247
981.180, 9.816
982.428, 35.487
983.675, 16.111
984.922, 29.416
986.169, 56.724
987.416, 3.121
988.663, 29.431
989.909, 39.743
991.155, 22.162
992.401, 71.475
993.647, 67.790
994.893, 43.105
996.138, 69.422
997.383, 57.665
998.628, 89.983
999.873, 89.841
1001.117, 100.161
1002.362, 107.483
1003.606, 118.900
1004.850, 131.421
1006.093, 143.698
1007.337, 155.024
1008.580, 159.028
1009.823, 160.683
1011.066, 173.015
1012.308, 189.349
1013.551, 192.681
1014.793, 185.018
1016.035, 233.338
1017.277, 194.677
1018.518, 190.005
1019.760, 233.347
1021.001, 230.689
1022.242, 280.015
1023.483, 250.348
1024.723, 234.696
1025.964, 277.048
1027.204, 251.402
1028.444, 254.757
1029.683, 221.563
1030.923, 220.645
1032.162, 283.820
1033.401, 233.186
1034.640, 249.472
1035.879, 240.284
1037.117, 237.654
1038.355, 298.015
1039.593, 291.388
1040.831, 311.752
1042.069, 365.131
1043.306, 400.516
1044.544, 400.889
1045.781, 435.281
1047.017, 441.703
1048.254, 510.590
1049.490, 524.992
1050.726, 542.395
1051.962, 604.808
1053.198, 575.223
1054.434, 660.640
1055.669, 665.060
1056.904, 736.482
1058.139, 832.906
1059.374, 875.332
1060.608, 1015.760
1061.843, 1264.190
1063.077, 1389.626
1064.311, 1375.060
1065.544, 1268.500
1066.778, 1271.944
1068.011, 1361.389
1069.244, 1423.855
1070.477, 1657.710
1071.710, 1908.164
1072.942, 2294.639
1074.174, 2821.102
1075.406, 3386.563
1076.638, 4566.056
1077.870, 6556.525
1079.101, 10018.996
1080.332, 18598.477
1081.563, 37427.949
1082.794, 64407.445
1084.025, 64406.922
1085.255, 61206.402
1086.485, 34386.680
1087.715, 18576.170
1088.945, 10205.653
1090.175, 6447.143
1091.404, 3998.632
1092.633, 2740.442
1093.862, 2152.108
1095.091, 1544.602
1096.319, 1302.012
1097.548, 1065.509
1098.776, 886.008
1100.004, 802.514
1101.231, 680.016
1102.459, 647.520
1103.686, 612.025
1104.913, 484.732
1106.140, 495.239
1107.367, 373.749
1108.593, 328.260
1109.819, 382.772
1111.046, 296.287
1112.271, 320.802
1113.497, 265.319
1114.722, 233.439
1115.948, 265.959
1117.173, 217.480
1118.398, 213.005
1119.622, 229.650
1120.847, 208.175
1122.071, 198.355
1123.295, 174.883
1124.519, 180.411
1125.742, 198.966
1126.966, 138.466
1128.189, 152.999
1129.412, 153.880
1130.635, 113.416
1131.857, 141.029
1133.080, 141.016
1134.302, 137.559
1135.524, 137.313
1136.746, 116.862
1137.967, 107.422
1139.188, 141.039
1140.410, 91.636
1141.631, 76.192
1142.851, 129.749
1144.072, 106.307
1145.292, 89.870
1146.512, 87.434
1147.732, 71.004
1148.952, 91.576
1150.172, 54.148
1151.391, 79.724
1152.610, 63.300
1153.829, 38.877
1155.048, 29.455
1156.266, 63.537
1157.484, 56.116
1158.702, 94.750
1159.920, 69.330
1161.138, 80.960
1162.356, 37.539
1163.573, 57.120
1164.790, 58.731
1166.007, 56.419
1167.224, 65.000
1168.440, 55.725
1169.656, 24.306
1170.872, 43.948
1172.088, 34.036
1173.304, 27.686
1174.519, 50.401
1175.735, 45.041
1176.950, 35.626
1178.165, 54.258
1179.379, 23.845
1180.594, 13.469
1181.808, 11.127
1183.022, 43.745
1184.236, 12.358
1185.449, 17.974
1186.663, 19.659
1187.876, 12.853
1189.089, 31.347
1190.302, 35.005
1191.515, 22.532
1192.727, 36.481
1193.939, 38.356
1195.151, 0.284
1196.363, 53.877
1197.575, 53.531
1198.786, 28.255
1199.997, 22.854
1201.208, 32.705
1202.419, 24.318
1203.630, 49.938
1204.840, 12.933
1206.051, 19.522
1207.261, 24.111
1208.470, 2.842
1209.680, 19.429
1210.889, 9.179
1212.099, 20.886
1213.308, 43.471
1214.516, 1.131
1215.725, 29.767
1216.933, 29.351
1218.142, 4.166
1219.350, 36.748
1220.557, 41.455
1221.765, 2.261
1222.972, 31.871
1224.180, 12.499
1225.387, 8.384
1226.593, 28.005
1227.800, 5.634
1229.006, 58.206
1230.213, 37.790
1231.419, 13.602
1232.624, 34.998
1233.830, 24.559
1235.035, 15.212
1236.241, 38.770
1237.446, 5.622
1238.650, 3.070
1239.855, 23.482
1241.059, 14.865
1242.264, 44.719
1243.468, 30.265
1244.671, 11.860
1245.875, 49.405
1247.078, 15.052
1248.282, 14.593
1249.485, 2.867
1250.687, 17.672
1251.890, 47.211
1253.092, 38.749
1254.295, 39.282
1255.497, 32.813
1256.699, 21.342
1257.900, 18.871
1259.102, 8.602
1260.303, 29.922
1261.504, 26.445
1262.705, 15.967
1263.905, 0.511
1265.106, 20.010
1266.306, 5.529
1267.506, 28.047
1268.706, 42.563
1269.905, 11.079
1271.105, 31.593
1272.304, 55.106
1273.503, 8.382
1274.702, 36.123
1275.900, 2.626
1277.099, 4.873
1278.297, 54.619
1279.495, 0.891
1280.693, 27.596
1281.891, 18.082
1283.088, 5.556
1284.285, 11.022
1285.482, 25.481
1286.679, 31.937
1287.876, 34.376
1289.072, 40.057
1290.268, 39.856
1291.464, 32.671
1292.660, 35.095
1293.856, 33.670
1295.051, 23.920
1296.247, 37.328
1297.442, 37.723
1298.637, 38.686
1299.831, 4.497
1301.026, 40.882
1302.220, 10.258
1303.414, 38.631
1304.608, 12.000
1305.802, 35.366
1306.995, 54.728
1308.188, 17.088
1309.381, 3.443
1310.574, 26.794
1311.767, 2.141
1312.960, 30.484
1314.152, 10.824
1315.344, 3.839
1316.536, 9.491
1317.728, 2.818
1318.919, 12.141
1320.110, 35.481
1321.301, 12.204
1322.492, 28.103
1323.683, 17.405
1324.874, 9.703
1326.064, 19.997
1327.254, 21.287
1328.444, 20.572
1329.634, 6.853
1330.823, 4.871
1332.013, 9.601
1333.202, 10.661
1334.391, 10.080
1335.580, 0.829
1336.768, 0.417
1337.956, 0.341
1339.145, 40.953
1340.333, 27.813
1341.520, 4.409
1342.708, 26.883
1343.895, 1.155
1345.083, 23.367
1346.270, 21.608
1347.456, 1.170
1348.643, 64.032
1349.829, 29.240
1351.016, 4.437
1352.202, 32.676
1353.387, 13.125
1354.573, 6.060
1355.759, 36.243
1356.944, 11.424
1358.129, 16.583
1359.314, 42.749
1360.498, 14.088
1361.683, 58.051
1362.867, 6.202
1364.051, 2.349
1365.235, 22.481
1366.419, 17.665
1367.602, 0.803
1368.785, 18.935
1369.968, 17.070
1371.151, 34.180
1372.334, 27.558
1373.517, 21.686
1374.699, 20.773
1375.881, 42.219
1377.063, 10.661
1378.245, 54.596
1379.426, 17.082
1380.608, 36.503
1381.789, 79.915
1382.970, 9.329
1384.150, 21.525
1385.331, 42.931
1386.511, 19.334
1387.691, 69.734
1388.871, 9.463
1390.051, 48.848
1391.231, 40.095
1392.410, 39.419
1393.589, 53.761
1394.768, 47.133
1395.947, 46.737
1397.126, 48.480
1398.304, 37.581
1399.483, 55.911
1400.661, 110.122
1401.838, 76.457
1403.016, 89.788
1404.194, 168.117
1405.371, 201.443
1406.548, 350.767
1407.725, 515.088
1408.901, 648.741
1410.078, 784.975
1411.254, 771.214
1412.430, 625.476
1413.606, 547.630
1414.782, 349.727
1415.958, 322.220
1417.133, 278.215
1418.308, 196.409
1419.483, 184.151
1420.658, 185.244
1421.832, 142.418
1423.007, 139.479
1424.181, 124.394
1425.355, 92.029
1426.529, 151.198
1427.702, 111.835
1428.876, 118.430
1430.049, 122.099
1431.222, 63.110
1432.395, 104.514
1433.567, 130.343
1434.740, 92.381
1435.912, 140.197
1437.084, 81.988
1438.256, 90.755
1439.428, 117.495
1440.599, 73.974
1441.770, 96.236
1442.942, 134.968
1444.112, 69.861
1445.283, 68.623
1446.454, 84.341
1447.624, 52.133
1448.794, 71.022
1449.964, 62.591
1451.134, 47.330
1452.303, 49.575
1453.473, 52.737
1454.642, 33.527
1455.811, 35.301
1456.980, 27.074
1458.148, 71.827
1459.317, 70.555
1460.485, 14.255
1461.653, 52.926
1462.821, 32.583
1463.989, 41.212
1465.156, 78.814
1466.323, 31.408
1467.490, 28.991
1468.657, 83.564
1469.824, 27.137
1470.991, 19.765
1472.157, 33.441
1473.323, 35.157
1474.489, 54.875
1475.655, 42.641
1476.820, 36.435
1477.986, 32.268
1479.151, 3.127
1480.316, 20.987
1481.481, 56.853
1482.645, 5.277
1483.810, 3.607
1484.974, 65.500
1486.138, 9.400
1487.302, 13.311
1488.465, 56.124
1489.629, 15.069
1490.792, 55.045
1491.955, 6.058
1493.118, 16.114
1494.281, 71.211
1495.443, 48.347
1496.606, 22.522
1497.768, 68.262
1498.930, 20.232
1500.091, 47.787
1501.253, 33.357
1502.414, 33.293
1503.575, 43.715
1504.736, 16.547
1505.897, 10.386
1507.058, 90.337
1508.218, 22.547
1509.379, 54.921
1510.539, 47.521
1511.698, 0.287
1512.858, 64.048
1514.018, 0.000
##END=



