##NAMES=Scholzite
##RRUFFID=R050238
##IDEAL CHEMISTRY=CaZn^2+^_2_(PO_4_)_2_&#183;2H_2_O
##LOCALITY=near Blinman, South Australia, Australia
##OWNER=RRUFF
##SOURCE=Marcus Origlieri
##DESCRIPTION=Colorless bladed crystals
##STATUS=The identification of this mineral has been confirmed by X-ray diffraction and chemical analysis
##URL=rruff.info/R050238
##MEASURED CHEMISTRY=Ca_1.00_Zn_2.00_(P_1.00_O_4_)_2_Â·2H_2_O
##PIN_ID=M00305
##ORIENTATION=Laser parallel to b* (0 1 0). Fiducial mark perpendicular to laser is parallel to -b [0 -1 0]
100.8830, 0.0000000E+00
102.1160, 1.928223
103.3490, 29.63403
104.5820, 136.2646
105.8150, 474.8958
107.0470, 696.7720
108.2800, 901.6792
109.5120, 1344.809
110.7440, 1310.624
111.9760, 2187.438
113.2080, 2796.453
114.4400, 3231.018
115.6710, 3375.078
116.9030, 2664.376
118.1340, 1760.362
119.3650, 1512.674
120.5960, 1037.177
121.8270, 647.7820
123.0580, 426.4321
124.2880, 188.1165
125.5190, 164.8452
126.7490, 11.83472
127.9790, 8.692871
129.2090, 24.43335
130.4390, 3.823242
131.6680, 63.57788
132.8980, 35.21631
134.1270, 38.51050
135.3560, 50.81714
136.5850, 110.7524
137.8140, 241.3594
139.0430, 355.6750
140.2710, 475.7329
141.5000, 503.5625
142.7280, 515.1895
143.9560, 488.6362
145.1840, 532.9224
146.4120, 292.0625
147.6390, 217.0715
148.8670, 280.2126
150.0940, 219.5977
151.3210, 328.4089
152.5490, 393.3730
153.7750, 582.9026
155.0020, 817.5000
156.2290, 1103.817
157.4550, 1339.401
158.6810, 1534.016
159.9080, 1830.724
161.1340, 2144.523
162.3590, 2451.410
163.5850, 2613.375
164.8110, 2609.406
166.0360, 2468.490
167.2610, 2399.621
168.4860, 2209.798
169.7110, 1938.017
170.9360, 1694.275
172.1610, 1510.571
173.3850, 1311.425
174.6100, 1129.265
175.8340, 1022.673
177.0580, 904.1328
178.2820, 838.6445
179.5050, 799.2085
180.7290, 750.8225
181.9520, 668.4841
183.1760, 665.1890
184.3990, 609.9351
185.6220, 620.7205
186.8450, 546.5437
188.0670, 455.3960
189.2900, 396.2791
190.5120, 392.1792
191.7340, 245.0955
192.9560, 307.0383
194.1780, 224.0068
195.4000, 113.9995
196.6220, 64.01440
197.8430, 47.05054
199.0640, 12.10669
200.2860, 17.82056
201.5070, 24.73364
202.7270, 51.63037
203.9480, 49.50708
205.1690, 78.82959
206.3890, 75.23901
207.6090, 121.7693
208.8290, 55.28687
210.0490, 51.72632
211.2690, 7.065918
212.4890, 73.70776
213.7080, 179.5793
214.9280, 372.5078
216.1470, 543.4773
217.3660, 716.5103
218.5850, 882.5762
219.8030, 1041.708
221.0220, 1173.882
222.2400, 1299.055
223.4590, 1302.205
224.6770, 1217.286
225.8950, 1126.258
227.1120, 1077.094
228.3300, 805.7712
229.5480, 704.3555
230.7650, 597.9209
231.9820, 417.4785
233.1990, 348.0276
234.4160, 283.5676
235.6330, 288.0994
236.8490, 224.6223
238.0660, 172.1357
239.2820, 177.6404
240.4980, 154.3848
241.7140, 207.6218
242.9300, 188.0991
244.1460, 208.5667
245.3610, 275.0254
246.5770, 331.4741
247.7920, 356.0076
249.0070, 431.6797
250.2220, 461.5286
251.4370, 570.7837
252.6510, 724.0945
253.8660, 829.4438
255.0800, 866.8169
256.2940, 1160.197
257.5080, 1210.584
258.7220, 1458.977
259.9360, 1701.373
261.1490, 1944.743
262.3630, 2231.112
263.5760, 2456.405
264.7890, 2886.697
266.0020, 3025.987
267.2150, 3384.274
268.4270, 3496.556
269.6400, 3692.834
270.8520, 3806.106
272.0640, 3849.374
273.2760, 3867.345
274.4880, 3821.373
275.7000, 3805.572
276.9120, 3721.744
278.1230, 3664.893
279.3340, 3503.257
280.5450, 3428.364
281.7560, 3392.453
282.9670, 3396.526
284.1780, 3324.583
285.3880, 3269.494
286.5980, 3098.657
287.8090, 3086.676
289.0190, 2908.684
290.2290, 2748.680
291.4380, 2627.668
292.6480, 2410.646
293.8570, 2293.615
295.0670, 2081.575
296.2760, 2024.509
297.4850, 1802.357
298.6930, 1771.135
299.9020, 1636.913
301.1110, 1465.637
302.3190, 1524.603
303.5270, 1379.311
304.7350, 1347.213
305.9430, 1243.584
307.1510, 1245.833
308.3580, 1153.294
309.5660, 1137.192
310.7730, 1144.687
311.9800, 1018.476
313.1870, 1087.736
314.3940, 1016.288
315.6010, 1052.708
316.8070, 983.3835
318.0130, 987.6772
319.2200, 998.8899
320.4260, 1091.642
321.6310, 1011.139
322.8370, 1062.869
324.0430, 1038.591
325.2480, 943.7800
326.4540, 915.8464
327.6590, 971.6533
328.8640, 945.4004
330.0680, 896.2646
331.2730, 893.6809
332.4780, 861.4265
333.6820, 813.1421
334.8860, 778.4128
336.0900, 758.8916
337.2940, 689.2380
338.4980, 559.7495
339.7010, 528.3115
340.9050, 516.0325
342.1080, 432.4302
343.3110, 419.7368
344.5140, 401.1165
345.7170, 353.7676
346.9200, 351.6907
348.1220, 327.2610
349.3240, 324.8250
350.5270, 298.5667
351.7290, 280.5496
352.9310, 259.6248
354.1320, 258.2747
355.3340, 247.3662
356.5350, 255.6572
357.7370, 290.8381
358.9380, 268.5259
360.1390, 328.2175
361.3400, 349.3921
362.5400, 368.5559
363.7410, 530.7090
364.9410, 516.8511
366.1410, 390.9817
367.3410, 528.1011
368.5410, 501.2092
369.7410, 590.3062
370.9400, 666.3928
372.1400, 643.4692
373.3390, 806.5366
374.5380, 762.5952
375.7370, 858.6445
376.9360, 967.6851
378.1350, 1004.717
379.3330, 1104.740
380.5310, 1194.754
381.7300, 1417.760
382.9280, 1379.756
384.1260, 1539.744
385.3230, 1675.723
386.5210, 1687.693
387.7180, 2027.655
388.9160, 2164.607
390.1130, 2408.552
391.3100, 2769.488
392.5060, 3086.414
393.7030, 3394.329
394.9000, 3940.233
396.0960, 4427.126
397.2920, 5096.007
398.4880, 5808.876
399.6840, 6749.732
400.8800, 7667.577
402.0750, 8806.408
403.2710, 9852.227
404.4660, 11129.03
405.6610, 12351.83
406.8560, 13251.61
408.0510, 13931.38
409.2450, 14186.14
410.4400, 13760.88
411.6340, 13114.61
412.8280, 12119.34
414.0220, 10582.04
415.2160, 9234.741
416.4100, 7834.425
417.6030, 6411.101
418.7970, 5252.764
419.9900, 4373.415
421.1830, 3612.055
422.3760, 2870.684
423.5690, 2325.310
424.7610, 1960.924
425.9540, 1618.526
427.1460, 1198.118
428.3380, 1108.699
429.5300, 878.2690
430.7220, 841.8279
431.9140, 565.3765
433.1050, 442.9141
434.2970, 379.4414
435.4880, 295.9583
436.6790, 273.4646
437.8700, 280.9609
439.0610, 160.4468
440.2510, 156.9229
441.4420, 106.3894
442.6320, 68.84619
443.8220, 49.29272
445.0120, 19.72876
446.2020, 42.15112
447.3910, 23.56274
448.5810, 5.961914
449.7700, 8.331299
450.9600, 11.82910
452.1490, 18.95850
453.3370, 28.65430
454.5260, 65.38623
455.7150, 57.17358
456.9030, 78.01196
458.0910, 76.18677
459.2800, 0.8723140
460.4670, 58.85327
461.6550, 57.88550
462.8430, 34.96826
464.0300, 79.08911
465.2180, 67.27075
466.4050, 83.50684
467.5920, 4.194092
468.7790, 42.12109
469.9650, 38.47705
471.1520, 25.12891
472.3380, 72.27563
473.5250, 49.73608
474.7110, 20.76050
475.8970, 23.75342
477.0820, 38.29688
478.2680, 47.87671
479.4540, 51.49756
480.6390, 38.82031
481.8240, 32.13867
483.0090, 11.56982
484.1940, 45.70044
485.3780, 37.96313
486.5630, 57.21899
487.7470, 47.47241
488.9320, 100.7310
490.1160, 127.9980
491.3000, 134.2803
492.4830, 151.5771
493.6670, 148.8962
494.8500, 228.2373
496.0340, 257.6116
497.2170, 257.0020
498.4000, 314.4077
499.5820, 341.8164
500.7650, 345.2202
501.9480, 331.6184
503.1300, 490.0117
504.3120, 521.4001
505.4940, 582.7832
506.6760, 550.1616
507.8580, 687.5344
509.0390, 681.9019
510.2210, 743.2668
511.4020, 772.6270
512.5830, 838.9819
513.7640, 921.3318
514.9450, 975.6770
516.1250, 1100.018
517.3060, 1019.354
518.4860, 974.6846
519.6660, 1056.011
520.8460, 1092.338
522.0260, 1187.661
523.2060, 1232.851
524.3850, 1316.292
525.5650, 1331.602
526.7440, 1432.906
527.9230, 1470.208
529.1020, 1509.504
530.2810, 1590.797
531.4590, 1836.087
532.6380, 2067.371
533.8160, 2306.653
534.9940, 2782.931
536.1720, 3265.205
537.3500, 3781.475
538.5270, 4597.741
539.7050, 5529.005
540.8820, 7106.268
542.0590, 8924.525
543.2360, 10959.79
544.4130, 13494.06
545.5900, 16230.31
546.7660, 19252.57
547.9430, 22067.82
549.1190, 25050.07
550.2950, 27079.32
551.4710, 27814.56
552.6470, 27080.80
553.8220, 24682.05
554.9980, 21236.30
556.1730, 17513.56
557.3480, 13882.82
558.5230, 10944.09
559.6980, 8666.360
560.8730, 6809.627
562.0470, 5553.893
563.2220, 4559.158
564.3960, 3728.434
565.5700, 3261.729
566.7440, 2690.025
567.9170, 2325.323
569.0910, 2081.632
570.2640, 1824.954
571.4380, 1754.290
572.6110, 1529.624
573.7840, 1440.974
574.9570, 1365.330
576.1290, 1205.703
577.3020, 1147.095
578.4740, 1143.496
579.6460, 1120.577
580.8180, 1148.736
581.9900, 1220.772
583.1620, 1249.154
584.3330, 1360.381
585.5040, 1445.498
586.6760, 1494.300
587.8470, 1623.366
589.0180, 1715.256
590.1880, 1793.681
591.3590, 1893.233
592.5290, 2035.582
593.7000, 2201.495
594.8700, 2393.820
596.0400, 2449.878
597.2090, 2555.473
598.3790, 2567.793
599.5490, 2696.265
600.7180, 2735.485
601.8870, 2755.088
603.0560, 2683.774
604.2250, 2481.936
605.3940, 2355.371
606.5620, 2216.575
607.7300, 2066.805
608.8990, 1943.583
610.0670, 1821.485
611.2350, 1694.119
612.4020, 1572.872
613.5700, 1473.978
614.7370, 1393.533
615.9050, 1325.760
617.0720, 1255.017
618.2390, 1276.397
619.4060, 1223.213
620.5720, 1155.840
621.7390, 1099.302
622.9050, 1234.714
624.0710, 1155.967
625.2370, 1196.460
626.4030, 1239.933
627.5690, 1266.499
628.7340, 1210.035
629.9000, 1314.733
631.0650, 1210.438
632.2300, 1165.148
633.3950, 1299.866
634.5600, 1234.588
635.7240, 1218.317
636.8890, 1149.052
638.0530, 1036.792
639.2170, 951.5376
640.3810, 752.2896
641.5450, 785.0464
642.7080, 638.8491
643.8720, 551.6865
645.0350, 517.4604
646.1980, 441.2397
647.3610, 435.0249
648.5240, 336.8154
649.6870, 279.9194
650.8490, 322.7212
652.0120, 220.5288
653.1740, 226.3423
654.3360, 132.1611
655.4980, 237.9854
656.6600, 174.8159
657.8210, 247.6519
658.9830, 165.4927
660.1440, 95.15918
661.3050, 125.0122
662.4660, 155.8706
663.6270, 168.7344
664.7870, 124.6045
665.9480, 172.4795
667.1080, 69.36035
668.2680, 48.24756
669.4280, 130.1396
670.5880, 113.0381
671.7480, 129.9419
672.9070, 78.85156
674.0670, 77.76660
675.2260, 143.6875
676.3850, 33.61377
677.5440, 89.54639
678.7030, 146.4849
679.8610, 143.8921
681.0200, 122.8413
682.1780, 44.70996
683.3360, 80.67041
684.4940, 55.29590
685.6520, 122.6084
686.8090, 84.58594
687.9670, 127.5693
689.1240, 187.5576
690.2810, 195.5518
691.4380, 205.5518
692.5950, 150.9204
693.7520, 236.4644
694.9080, 253.6846
696.0650, 314.8735
697.2210, 261.3867
698.3770, 190.4185
699.5330, 291.4546
700.6880, 264.4961
701.8440, 258.8511
702.9990, 288.5513
704.1550, 396.5620
705.3100, 336.1606
706.4650, 404.6421
707.6190, 267.6763
708.7740, 438.9521
709.9290, 456.4702
711.0830, 542.5518
712.2370, 597.3047
713.3910, 508.1050
714.5450, 538.4087
715.6980, 533.9570
716.8520, 557.4297
718.0050, 574.8872
719.1580, 589.3555
720.3110, 591.1035
721.4640, 614.3789
722.6170, 572.4897
723.7700, 561.6045
724.9220, 574.2427
726.0740, 541.3657
727.2260, 563.7578
728.3780, 592.8892
729.5300, 530.0288
730.6810, 555.0781
731.8330, 437.2368
732.9840, 475.4229
734.1350, 431.1099
735.2860, 423.3926
736.4370, 365.9268
737.5880, 417.1157
738.7380, 424.4092
739.8880, 449.7705
741.0390, 300.0947
742.1890, 302.9194
743.3380, 343.2041
744.4880, 297.5942
745.6380, 360.9966
746.7870, 335.1108
747.9360, 262.5581
749.0850, 299.0215
750.2340, 226.5010
751.3830, 193.9819
752.5310, 270.4878
753.6800, 152.0117
754.8280, 101.5371
755.9760, 177.0737
757.1240, 177.6250
758.2720, 151.1929
759.4190, 191.7798
760.5670, 157.3799
761.7140, 141.9814
762.8610, 93.58984
764.0080, 128.1982
765.1550, 98.80811
766.3020, 99.41748
767.4480, 120.0269
768.5950, 84.63574
769.7410, 148.2441
770.8870, 44.85156
772.0330, 99.45898
773.1780, 89.06494
774.3240, 15.67090
775.4690, 61.27539
776.6140, 16.87988
777.7590, 57.48291
778.9040, 37.08545
780.0490, 0.3129880
781.1940, 1.713867
782.3380, 65.88379
783.4820, 45.47949
784.6260, 53.07471
785.7700, 37.66846
786.9140, 7.738281
788.0580, 20.84961
789.2010, 35.43604
790.3450, 70.02197
791.4880, 50.60645
792.6310, 14.18994
793.7730, 71.77246
794.9160, 16.35352
796.0590, 103.9341
797.2010, 15.48730
798.3430, 80.08154
799.4850, 47.64893
800.6270, 56.21533
801.7690, 25.78027
802.9100, 81.34473
804.0520, 30.90771
805.1930, 41.46973
806.3340, 89.03076
807.4750, 63.59082
808.6160, 54.14893
809.7560, 63.27051
810.8970, 19.26270
812.0370, 56.81885
813.1770, 58.37305
814.3170, 62.92676
815.4570, 37.47900
816.5960, 4.969238
817.7360, 15.57568
818.8750, 28.88037
820.0140, 12.64404
821.1530, 57.16797
822.2920, 38.69043
823.4310, 43.21240
824.5690, 9.733398
825.7070, 65.25342
826.8460, 25.77344
827.9840, 60.29199
829.1220, 18.18994
830.2590, 20.68555
831.3970, 31.19824
832.5340, 3.268555
833.6710, 51.26904
834.8080, 15.16162
835.9450, 14.59131
837.0820, 11.02051
838.2190, 1.449219
839.3550, 37.12842
840.4910, 73.72998
841.6270, 2.375977
842.7630, 2.9785000E-02
843.8990, 41.68896
845.0350, 45.37646
846.1700, 49.09326
847.3060, 33.15820
848.4410, 52.59082
849.5760, 21.37256
850.7100, 61.17236
851.8450, 65.01025
852.9800, 31.88770
854.1140, 38.78809
855.2480, 66.71484
856.3820, 27.31787
857.5160, 12.64990
858.6500, 75.36963
859.7830, 62.38916
860.9170, 1.588867
862.0500, 112.4277
863.1830, 46.55713
864.3160, 21.42822
865.4480, 53.41406
866.5810, 8.600586
867.7130, 52.37500
868.8460, 10.64941
869.9780, 82.68506
871.1100, 11.76904
872.2410, 47.86426
873.3730, 57.98975
874.5050, 37.84863
875.6360, 6.687012
876.7670, 43.52295
877.8980, 35.64209
879.0290, 58.83057
880.1590, 49.94531
881.2900, 60.28027
882.4200, 39.54199
883.5500, 23.17041
884.6800, 105.8823
885.8100, 93.59375
886.9400, 103.3037
888.0690, 63.01318
889.1990, 62.72168
890.3280, 103.4292
891.4570, 91.41309
892.5860, 114.8423
893.7140, 124.5469
894.8430, 121.2510
895.9710, 142.9551
897.1000, 238.6572
898.2280, 189.3589
899.3560, 300.0596
900.4830, 298.7598
901.6110, 430.4585
902.7380, 488.3433
903.8660, 447.8550
904.9930, 604.5522
906.1200, 689.2490
907.2460, 665.9453
908.3730, 841.6411
909.5000, 1146.336
910.6260, 1291.032
911.7520, 1473.728
912.8780, 1838.422
914.0040, 2316.117
915.1290, 2838.811
916.2550, 3343.466
917.3800, 4086.092
918.5050, 4866.786
919.6300, 5678.482
920.7550, 6177.177
921.8800, 6594.872
923.0040, 6947.262
924.1290, 7058.958
925.2530, 7032.656
926.3770, 6576.354
927.5010, 6163.052
928.6250, 5561.752
929.7480, 5037.453
930.8720, 4340.157
931.9950, 3979.863
933.1180, 3417.766
934.2410, 3057.486
935.3640, 2819.217
936.4860, 2521.956
937.6090, 2257.695
938.7310, 2123.436
939.8530, 1907.195
940.9750, 1774.959
942.0970, 1746.735
943.2180, 1670.514
944.3400, 1601.319
945.4610, 1571.125
946.5820, 1460.949
947.7030, 1509.779
948.8240, 1566.610
949.9450, 1446.443
951.0650, 1389.285
952.1860, 1384.678
953.3060, 1302.538
954.4260, 1298.698
955.5460, 1329.363
956.6650, 1290.237
957.7850, 1274.141
958.9040, 1306.550
960.0230, 1508.023
961.1420, 1445.971
962.2610, 1520.922
963.3800, 1656.875
964.4990, 1545.467
965.6170, 1723.910
966.7350, 1794.690
967.8530, 1942.520
968.9710, 2090.036
970.0890, 2300.045
971.2070, 2454.059
972.3240, 2650.074
973.4410, 2846.786
974.5580, 3025.161
975.6750, 3419.234
976.7920, 3771.729
977.9090, 4306.351
979.0250, 4865.428
980.1410, 5568.272
981.2580, 6423.884
982.3740, 7558.941
983.4890, 8815.339
984.6050, 10626.69
985.7200, 12469.56
986.8360, 15064.18
987.9510, 17651.89
989.0660, 20519.19
990.1810, 23864.73
991.2950, 27313.83
992.4100, 31077.78
993.5240, 34982.91
994.6390, 39505.69
995.7530, 43695.31
996.8660, 47781.46
997.9800, 51222.36
999.0940, 53749.54
1000.207, 54728.73
1001.320, 54657.02
1002.433, 52087.22
1003.546, 48262.41
1004.659, 42797.13
1005.772, 37409.29
1006.884, 31320.23
1007.996, 25554.54
1009.108, 20485.80
1010.220, 16669.01
1011.332, 13033.28
1012.444, 10600.08
1013.555, 8603.447
1014.666, 7085.747
1015.777, 5915.069
1016.888, 5198.714
1017.999, 4582.045
1019.110, 4165.384
1020.220, 3863.734
1021.331, 3783.094
1022.441, 3521.464
1023.551, 3459.848
1024.661, 3302.240
1025.770, 2985.645
1026.880, 2654.059
1027.989, 2346.482
1029.098, 2127.918
1030.207, 1814.361
1031.316, 1596.816
1032.425, 1367.282
1033.533, 1353.758
1034.642, 1206.248
1035.750, 1114.748
1036.858, 1066.259
1037.966, 1044.781
1039.073, 872.3125
1040.181, 931.8545
1041.288, 874.4082
1042.396, 918.9717
1043.503, 844.5459
1044.610, 849.1313
1045.716, 774.7271
1046.823, 817.3330
1047.929, 806.9502
1049.036, 822.5776
1050.142, 964.2168
1051.248, 992.8672
1052.353, 1145.528
1053.459, 1162.200
1054.564, 1166.883
1055.670, 1108.576
1056.775, 1179.283
1057.880, 1045.999
1058.985, 854.7271
1060.089, 840.4658
1061.194, 669.2158
1062.298, 538.9761
1063.402, 561.4365
1064.506, 509.2183
1065.610, 457.1309
1066.713, 465.9375
1067.817, 378.3179
1068.920, 339.4946
1070.023, 354.3335
1071.126, 268.1821
1072.229, 287.6377
1073.332, 284.1934
1074.435, 262.5547
1075.537, 252.4438
1076.639, 235.1689
1077.741, 346.0776
1078.843, 285.3945
1079.945, 295.0010
1081.046, 361.9385
1082.148, 301.8853
1083.249, 350.2764
1084.350, 382.1001
1085.451, 392.1660
1086.551, 413.5718
1087.652, 417.3872
1088.752, 410.3999
1089.853, 410.0176
1090.953, 376.6904
1092.053, 356.1484
1093.152, 313.1938
1094.252, 420.2471
1095.351, 409.3081
1096.451, 317.3765
1097.550, 417.1982
1098.649, 401.6377
1099.748, 324.3970
1100.846, 286.4214
1101.945, 246.7891
1103.043, 223.9502
1104.141, 198.1182
1105.239, 229.2939
1106.337, 223.4795
1107.434, 201.6841
1108.532, 116.9360
1109.629, 132.2773
1110.726, 201.5303
1111.823, 269.8042
1112.920, 220.0996
1114.017, 262.4170
1115.113, 174.7422
1116.210, 158.0898
1117.306, 197.4531
1118.402, 169.8413
1119.498, 153.2559
1120.593, 110.6885
1121.689, 44.14795
1122.784, 26.76025
1123.879, 132.2554
1124.974, 61.76270
1126.069, 31.38818
1127.164, 104.1250
1128.259, 82.64746
1129.353, 103.5034
1130.447, 61.59717
1131.541, 160.1606
1132.635, 244.7295
1133.729, 208.3096
1134.822, 310.8955
1135.916, 108.4927
1137.009, 142.4058
1138.102, 118.0728
1139.195, 81.73242
1140.288, 111.4209
1141.380, 117.1812
1142.473, 78.88135
1143.565, 97.62451
1144.657, 59.34570
1145.749, 48.08984
1146.841, 74.83838
1147.932, 66.60986
1149.024, 71.39941
1150.115, 161.3149
1151.206, 132.1133
1152.297, 100.9175
1153.388, 166.7261
1154.479, 157.0557
1155.569, 223.8721
1156.659, 192.6938
1157.750, 215.5205
1158.839, 187.3516
1159.929, 229.7632
1161.019, 291.0239
1162.108, 317.8662
1163.198, 381.7124
1164.287, 427.5615
1165.376, 540.1089
1166.465, 656.9648
1167.553, 792.8237
1168.642, 834.6865
1169.730, 948.5537
1170.818, 1121.426
1171.906, 1094.301
1172.994, 1041.179
1174.082, 887.0596
1175.170, 866.9429
1176.257, 696.8286
1177.344, 472.7178
1178.431, 441.6084
1179.518, 353.5020
1180.605, 403.3979
1181.691, 321.2959
1182.778, 217.1958
1183.864, 387.0972
1184.950, 255.0015
1186.036, 61.90723
1187.122, 85.81445
1188.207, 94.72412
1189.292, 158.6348
1190.378, 157.5469
1191.463, 32.46094
1192.548, 118.3760
1193.632, 15.70801
1194.717, 15.20215
1195.801, 53.88721
1196.886, 56.99658
1197.970, 28.11865
1199.054, 24.24805
1200.137, 20.60986
1201.221, 10.46826
1202.305, 58.67236
1203.388, 11.84521
1204.471, 40.02490
1205.554, 20.77246
1206.637, 92.42969
1207.719, 53.31787
1208.802, 52.93506
1209.884, 9.217773
1210.966, 5.492188
1212.048, 7.200684
1213.130, 20.09033
1214.212, 42.39551
1215.293, 2.272949
1216.374, 6.062012
1217.456, 5.403809
1218.536, 15.24658
1219.617, 100.1035
1220.698, 100.5117
1221.778, 16.97754
1222.859, 21.54443
1223.939, 131.0664
1225.019, 22.58643
1226.099, 16.10547
1227.178, 52.37695
1228.258, 13.89307
1229.337, 18.42383
1230.417, 5.761719
1231.496, 5.768066
1232.574, 52.11670
1233.653, 21.55127
1234.732, 35.99316
1235.810, 56.42676
1236.888, 39.85498
1237.966, 16.28076
1239.044, 11.70410
1240.122, 72.12305
1241.199, 53.53955
1242.277, 122.9873
1243.354, 81.40869
1244.431, 78.82715
1245.508, 75.12646
1246.585, 43.65527
1247.661, 39.06445
1248.738, 49.47070
1249.814, 48.87305
1250.890, 101.9814
1251.966, 17.85645
1253.042, 78.24561
1254.117, 59.63086
1255.193, 5.988281
1256.268, 105.7256
1257.343, 85.08643
1258.418, 21.55811
1259.493, 7.856445
1260.567, 68.92139
1261.642, 119.2373
1262.716, 78.74805
1263.790, 98.05469
1264.864, 79.10059
1265.938, 17.68213
1267.011, 36.21924
1268.085, 83.63916
1269.158, 81.21436
1270.231, 32.49512
1271.304, 74.76270
1272.377, 38.02539
1273.450, 102.2817
1274.522, 146.6133
1275.594, 97.85840
1276.666, 172.1289
1277.738, 143.9473
1278.810, 31.84082
1279.882, 136.0615
1280.953, 106.4067
1282.025, 132.6162
1283.096, 16.82129
1284.167, 169.0166
1285.238, 82.40527
1286.308, 127.7822
1287.379, 110.9580
1288.449, 57.12793
1289.519, 128.2900
1290.589, 109.4468
1291.659, 66.59668
1292.729, 115.7402
1293.798, 14.87695
1294.868, 71.00000
1295.937, 142.1172
1297.006, 175.2275
1298.075, 118.7114
1299.143, 217.1143
1300.212, 130.2119
1301.280, 199.3115
1302.348, 136.3945
1303.416, 168.4717
1304.484, 138.5415
1305.552, 131.6045
1306.620, 200.6602
1307.687, 143.7090
1308.754, 184.7505
1309.821, 78.84912
1310.888, 242.8774
1311.955, 176.8975
1313.021, 122.9097
1314.088, 132.9150
1315.154, 105.9111
1316.220, 129.9014
1317.286, 160.0234
1318.352, 260.8574
1319.417, 238.8237
1320.483, 220.7808
1321.548, 235.7290
1322.613, 173.9790
1323.678, 212.9443
1324.743, 270.7495
1325.807, 201.6670
1326.872, 228.0166
1327.936, 137.5713
1329.000, 191.4683
1330.064, 202.3584
1331.128, 234.6465
1332.191, 244.8379
1333.255, 244.2275
1334.318, 221.0928
1335.381, 90.12646
1336.444, 175.9795
1337.507, 156.4307
1338.569, 225.5947
1339.632, 229.4321
1340.694, 161.2583
1341.756, 156.6455
1342.818, 143.6035
1343.880, 75.32617
1344.941, 163.5073
1346.003, 139.7026
1347.064, 112.5000
1348.125, 106.6958
1349.186, 161.8398
1350.247, 160.8970
1351.308, 172.6631
1352.368, 78.42480
1353.428, 97.23096
1354.489, 49.98438
1355.549, 120.9844
1356.608, 188.3765
1357.668, 13.53809
1358.727, 64.28564
1359.787, 84.77588
1360.846, 66.47559
1361.905, 118.1714
1362.964, 32.86279
1364.022, 142.5474
1365.081, 78.22852
1366.139, 52.88574
1367.197, 145.4595
1368.255, 106.1240
1369.313, 32.96387
1370.371, 94.95605
1371.428, 82.60889
1372.486, 96.25684
1373.543, 93.93652
1374.600, 76.57080
1375.657, 74.20068
1376.713, 138.8271
1377.770, 20.55176
1378.826, 0.9418950
1379.882, 61.53662
1380.938, 132.1353
1381.994, 104.7588
1383.050, 97.01465
1384.106, 61.60449
1385.161, 76.19141
1386.216, 18.44678
1387.271, 22.51904
1388.326, 222.0474
1389.381, 5.611328
1390.435, 106.1709
1391.490, 82.72656
1392.544, 32.27930
1393.598, 2.541504
1394.652, 11.75635
1395.705, 15.40234
1396.759, 37.12939
1397.812, 66.58984
1398.866, 68.11475
1399.919, 86.40820
1400.972, 20.15332
1402.024, 74.66016
1403.077, 32.16455
1404.129, 2.665039
1405.181, 64.16211
1406.233, 103.5361
1407.285, 13.20654
1408.337, 106.7690
1409.389, 159.8804
1410.440, 54.90967
1411.491, 6.355469
1412.542, 6.797852
1413.593, 85.23633
1414.644, 41.67188
1415.695, 166.1040
1416.745, 124.5332
1417.795, 126.9600
1418.845, 102.3877
1419.895, 85.80859
1420.945, 107.5322
1421.995, 57.94873
1423.044, 43.36133
1424.093, 1.228516
1425.142, 7.0800997E-02
1426.191, 54.37109
1427.240, 39.76953
1428.289, 42.15967
1429.337, 125.6196
1430.385, 154.9824
1431.433, 185.3926
1432.481, 149.7515
1433.529, 53.10645
1434.577, 72.45996
1435.624, 26.84717
1436.672, 87.25781
1437.719, 58.51611
1438.766, 59.37402
1439.812, 52.02051
1440.859, 50.23242
1441.905, 139.6104
1442.952, 141.8525
1443.998, 159.9907
1445.044, 173.3613
1446.090, 68.15527
1447.135, 133.3364
1448.181, 105.0991
1449.226, 33.44092
1450.271, 147.7979
1451.316, 130.1650
1452.361, 184.5264
1453.405, 76.91357
1454.450, 136.3169
1455.494, 146.7632
1456.538, 65.23584
1457.582, 197.7031
1458.626, 145.1904
1459.670, 123.6895
1460.713, 111.1919
1461.757, 97.99219
1462.800, 147.4062
1463.843, 95.02490
1464.886, 132.6562
1465.928, 119.9160
1466.971, 139.5898
1468.013, 139.8887
1469.055, 160.9170
1470.097, 124.5840
1471.139, 119.2510
1472.181, 91.85889
1473.222, 105.4922
1474.263, 62.12305
1475.305, 6.249512
1476.346, 116.5469
1477.386, 57.14111
1478.427, 30.74121
1479.468, 121.3462
1480.508, 120.5137
1481.548, 101.8516
1482.588, 97.45605
1483.628, 57.67773
1484.668, 147.2554
1485.707, 117.8223
1486.747, 122.3994
1487.786, 71.85693
1488.825, 117.0122
1489.864, 115.5811
1490.902, 56.94824
1491.941, 74.50488
1492.979, 113.4492
1494.017, 30.99756
1495.055, 1.444336
1496.093, 120.1108
1497.131, 65.67090
1498.168, 34.23828
1499.206, 72.64258
1500.243, 95.15527
1501.280, 99.68359
1502.317, 69.21387
1503.354, 173.7451
1504.390, 136.1621
1505.426, 79.69629
1506.463, 37.23633
1507.499, 164.7832
1508.535, 129.3359
1509.570, 139.9004
1510.606, 53.47949
1511.641, 107.9995
1512.676, 92.59180
1513.711, 137.1880
1514.746, 136.3013
1515.781, 61.38721
1516.816, 129.9873
1517.850, 88.58350
1518.884, 69.17480
1519.918, 118.7896
1520.952, 94.39844
1521.986, 213.0000
1523.019, 161.5957
1524.053, 35.40479
1525.086, 176.0156
1526.119, 89.49268
1527.152, 49.15527
1528.185, 177.8237
1529.217, 133.5469
1530.250, 127.2749
1531.282, 17.01807
1532.314, 34.26514
1533.346, 4.396973
1534.377, 23.09473
1535.409, 84.53076
1536.440, 106.1182
1537.472, 71.70361
1538.503, 108.4771
1539.534, 94.76270
1540.564, 94.33887
1541.595, 104.9077
1542.625, 48.47119
1543.656, 108.0249
1544.686, 127.5674
1545.716, 55.09766
1546.745, 84.61426
1547.775, 149.1157
1548.804, 59.39990
1549.834, 19.05859
1550.863, 97.46338
1551.892, 125.8589
1552.920, 28.74268
1553.949, 115.6523
1554.977, 40.17041
1556.006, 134.6694
1557.034, 73.14502
1558.062, 75.55420
1559.089, 45.95947
1560.117, 40.32324
1561.144, 89.22559
1562.172, 31.39453
1563.199, 54.34961
1564.226, 147.0303
1565.252, 3.402344
1566.279, 11.06885
1567.305, 86.96436
1568.332, 76.96191
1569.358, 55.29297
1570.384, 0.2153320
1571.409, 0.0000000E+00
##END=



