##NAMES=Scholzite
##RRUFFID=R050238
##IDEAL CHEMISTRY=CaZn^2+^_2_(PO_4_)_2_&#183;2H_2_O
##LOCALITY=near Blinman, South Australia, Australia
##OWNER=RRUFF
##SOURCE=Marcus Origlieri
##DESCRIPTION=Colorless bladed crystals
##STATUS=The identification of this mineral has been confirmed by X-ray diffraction and chemical analysis
##URL=rruff.info/R050238
##MEASURED CHEMISTRY=Ca_1.00_Zn_2.00_(P_1.00_O_4_)_2_Â·2H_2_O
##PIN_ID=M00218
##ORIENTATION=Laser parallel to c* (0 0 1). Fiducial mark perpendicular to laser is parallel to a [1 0 0]
135.3560, 0.0000000E+00
136.5850, 26.63379
137.8140, 16.72070
139.0430, 55.80273
140.2710, 265.2617
141.5000, 100.1562
142.7280, 156.9639
143.9560, 195.8467
145.1840, 55.75586
146.4120, 316.2383
147.6390, 381.4541
148.8670, 378.5234
150.0940, 604.5938
151.3210, 709.3193
152.5490, 812.7490
153.7750, 1057.233
155.0020, 1133.347
156.2290, 1257.836
157.4550, 1524.431
158.6810, 1835.899
159.9080, 2146.398
161.1340, 2390.018
162.3590, 2857.166
163.5850, 3071.303
164.8110, 3309.965
166.0360, 3215.148
167.2610, 2623.567
168.4860, 2507.780
169.7110, 2026.303
170.9360, 1659.757
172.1610, 1519.172
173.3850, 1072.139
174.6100, 796.7480
175.8340, 581.6611
177.0580, 449.7500
178.2820, 384.0020
179.5050, 372.4082
180.7290, 167.9541
181.9520, 169.6279
183.1760, 284.4209
184.3990, 164.3193
185.6220, 217.3086
186.8450, 330.3789
188.0670, 226.5176
189.2900, 229.7168
190.5120, 342.9668
191.7340, 430.2910
192.9560, 341.7705
194.1780, 476.5947
195.4000, 353.9736
196.6220, 444.8008
197.8430, 341.9268
199.0640, 636.3486
200.2860, 767.9385
201.5070, 979.5449
202.7270, 936.0117
203.9480, 864.3047
205.1690, 159.4287
206.3890, 278.6104
207.6090, 302.8086
208.8290, 252.1152
210.0490, 135.3848
211.2690, 61.40332
212.4890, 364.2510
213.7080, 692.1475
214.9280, 1020.104
216.1470, 1410.094
217.3660, 1827.113
218.5850, 2316.161
219.8030, 2716.234
221.0220, 3155.323
222.2400, 3553.422
223.4590, 3779.529
224.6770, 3929.627
225.8950, 4138.707
227.1120, 4283.581
228.3300, 4208.818
229.5480, 4610.883
230.7650, 4953.904
231.9820, 5232.636
233.1990, 5785.758
234.4160, 6141.605
235.6330, 6462.384
236.8490, 6688.098
238.0660, 6675.232
239.2820, 6605.275
240.4980, 6294.877
241.7140, 5984.343
242.9300, 5398.744
244.1460, 4702.160
245.3610, 4028.504
246.5770, 3857.204
247.7920, 3290.427
249.0070, 3036.547
250.2220, 2797.714
251.4370, 2608.018
252.6510, 2348.132
253.8660, 2137.805
255.0800, 2181.316
256.2940, 1926.528
257.5080, 2419.127
258.7220, 2179.313
259.9360, 2966.178
261.1490, 2121.492
262.3630, 2051.183
263.5760, 2152.045
264.7890, 2683.048
266.0020, 2527.012
267.2150, 2812.931
268.4270, 2892.704
269.6400, 3062.382
270.8520, 3200.004
272.0640, 3503.566
273.2760, 3605.072
274.4880, 3947.520
275.7000, 3932.910
276.9120, 4112.800
278.1230, 4260.644
279.3340, 4320.730
280.5450, 4490.891
281.7560, 4590.761
282.9670, 4682.816
284.1780, 4960.093
285.3880, 5151.035
286.5980, 5189.600
287.8090, 5084.459
289.0190, 5042.291
290.2290, 4882.652
291.4380, 4679.014
292.6480, 4512.168
293.8570, 4182.904
295.0670, 3911.121
296.2760, 3832.662
297.4850, 3601.568
298.6930, 3636.914
299.9020, 3546.902
301.1110, 3566.654
302.3190, 3557.841
303.5270, 3599.541
304.7350, 3624.973
305.9430, 3727.553
307.1510, 3742.016
308.3580, 3890.327
309.5660, 3906.126
310.7730, 3800.898
311.9800, 3932.714
313.1870, 3573.218
314.3940, 3384.539
315.6010, 3192.198
316.8070, 3152.089
318.0130, 2887.437
319.2200, 2647.512
320.4260, 2626.646
321.6310, 2463.633
322.8370, 2369.047
324.0430, 2244.635
325.2480, 2139.279
326.4540, 1884.881
327.6590, 2004.432
328.8640, 1915.317
330.0680, 1678.980
331.2730, 1762.044
332.4780, 1603.353
333.6820, 1571.153
334.8860, 1525.975
336.0900, 1365.039
337.2940, 1384.486
338.4980, 1281.418
339.7010, 1177.713
340.9050, 1043.606
342.1080, 1075.676
343.3110, 941.2402
344.5140, 861.0938
345.7170, 852.8545
346.9200, 742.2090
348.1220, 608.9502
349.3240, 724.7432
350.5270, 671.8867
351.7290, 498.7002
352.9310, 420.0195
354.1320, 456.8486
355.3340, 332.1006
356.5350, 365.2393
357.7370, 213.5029
358.9380, 180.0674
360.1390, 267.3311
361.3400, 139.5439
362.5400, 187.7002
363.7410, 1.802734
364.9410, 1.160156
366.1410, 66.80957
367.3410, 69.72070
368.5410, 80.42676
369.7410, 53.66211
370.9400, 52.45703
372.1400, 60.14453
373.3390, 42.31152
374.5380, 9.601563
375.7370, 41.99707
376.9360, 132.1074
378.1350, 18.52051
379.3330, 53.90527
380.5310, 2.004883
381.7300, 33.17383
382.9280, 15.15039
384.1260, 22.95020
385.3230, 46.71094
386.5210, 63.66699
387.7180, 96.03906
388.9160, 24.88770
390.1130, 69.98145
391.3100, 37.54785
392.5060, 121.1826
393.7030, 39.50879
394.9000, 35.75391
396.0960, 189.9150
397.2920, 290.9727
398.4880, 264.9121
399.6840, 443.7627
400.8800, 490.5234
402.0750, 758.1602
403.2710, 706.7275
404.4660, 853.2266
405.6610, 1127.629
406.8560, 1227.970
408.0510, 1385.248
409.2450, 1546.457
410.4400, 1559.608
411.6340, 1698.716
412.8280, 1634.782
414.0220, 1597.813
415.2160, 1627.837
416.4100, 1259.823
417.6030, 1069.775
418.7970, 941.6895
419.9900, 741.4004
421.1830, 646.4150
422.3760, 489.2256
423.5690, 545.0020
424.7610, 404.7451
425.9540, 449.4277
427.1460, 430.0625
428.3380, 285.6348
429.5300, 378.1426
430.7220, 298.5879
431.9140, 290.9824
433.1050, 384.3125
434.2970, 361.5801
435.4880, 144.7861
436.6790, 212.9551
437.8700, 305.0742
439.0610, 439.1289
440.2510, 317.1436
441.4420, 183.0928
442.6320, 227.9941
443.8220, 237.8291
445.0120, 91.62402
446.2020, 166.3779
447.3910, 175.0645
448.5810, 94.68848
449.7700, 86.24512
450.9600, 85.73730
452.1490, 10.16211
453.3370, 163.5156
454.5260, 129.8066
455.7150, 181.0312
456.9030, 204.1934
458.0910, 103.2959
459.2800, 164.3320
460.4670, 91.30762
461.6550, 62.77539
462.8430, 61.04590
464.0300, 63.19336
465.2180, 18.47656
466.4050, 8.916016
467.5920, 79.65039
468.7790, 20.16016
469.9650, 27.61816
471.1520, 44.97656
472.3380, 26.65137
473.5250, 20.61035
474.7110, 71.81836
475.8970, 53.96973
477.0820, 72.06836
478.2680, 92.65430
479.4540, 90.06641
480.6390, 128.0420
481.8240, 104.9248
483.0090, 127.7520
484.1940, 135.2949
485.3780, 169.7383
486.5630, 127.9170
487.7470, 203.5352
488.9320, 254.0996
490.1160, 148.6104
491.3000, 123.0859
492.4830, 168.5068
493.6670, 172.0586
494.8500, 162.3145
496.0340, 319.3857
497.2170, 292.7373
498.4000, 168.6299
499.5820, 344.6289
500.7650, 314.9482
501.9480, 400.0791
503.1300, 454.5303
504.3120, 481.3281
505.4940, 459.3564
506.6760, 375.8848
507.8580, 480.2041
509.0390, 380.2129
510.2210, 470.2227
511.4020, 466.5068
512.5830, 224.4521
513.7640, 384.4658
514.9450, 349.2021
516.1250, 229.7900
517.3060, 374.5693
518.4860, 194.1367
519.6660, 232.0254
520.8460, 250.0234
522.0260, 432.4668
523.2060, 327.4688
524.3850, 358.5879
525.5650, 264.7324
526.7440, 203.3682
527.9230, 226.4941
529.1020, 281.5391
530.2810, 179.1211
531.4590, 206.9004
532.6380, 312.1875
533.8160, 200.9775
534.9940, 445.0303
536.1720, 297.5127
537.3500, 316.0908
538.5270, 371.7812
539.7050, 526.6875
540.8820, 609.5850
542.0590, 772.8945
543.2360, 885.3350
544.4130, 1047.703
545.5900, 1259.135
546.7660, 1628.133
547.9430, 1827.643
549.1190, 2217.841
550.2950, 2628.385
551.4710, 2652.666
552.6470, 2779.797
553.8220, 2767.156
554.9980, 2547.146
556.1730, 2122.156
557.3480, 1803.197
558.5230, 1528.388
559.6980, 1168.929
560.8730, 1049.958
562.0470, 962.6592
563.2220, 691.7207
564.3960, 794.8643
565.5700, 741.8662
566.7440, 733.0996
567.9170, 588.9893
569.0910, 731.3584
570.2640, 747.4668
571.4380, 663.1211
572.6110, 750.3799
573.7840, 820.7129
574.9570, 805.2539
576.1290, 871.5840
577.3020, 869.6660
578.4740, 910.0879
579.6460, 959.2305
580.8180, 915.5713
581.9900, 886.1650
583.1620, 979.2129
584.3330, 995.7725
585.5040, 1019.393
586.6760, 1014.488
587.8470, 1113.340
589.0180, 1002.642
590.1880, 1129.354
591.3590, 1077.152
592.5290, 1256.336
593.7000, 1211.062
594.8700, 1187.019
596.0400, 1163.169
597.2090, 1142.529
598.3790, 1167.386
599.5490, 1201.720
600.7180, 1218.961
601.8870, 1165.264
603.0560, 1118.855
604.2250, 1016.764
605.3940, 1068.461
606.5620, 1084.049
607.7300, 912.7939
608.8990, 692.9805
610.0670, 707.9961
611.2350, 662.9141
612.4020, 688.6191
613.5700, 610.3857
614.7370, 624.9082
615.9050, 542.0967
617.0720, 594.4883
618.2390, 466.6953
619.4060, 382.0488
620.5720, 544.9893
621.7390, 399.3242
622.9050, 374.2461
624.0710, 409.5430
625.2370, 344.1338
626.4030, 413.2920
627.5690, 288.4277
628.7340, 277.5068
629.9000, 305.4932
631.0650, 430.3965
632.2300, 327.2217
633.3950, 216.1309
634.5600, 367.2803
635.7240, 300.9814
636.8890, 414.1943
638.0530, 599.0703
639.2170, 459.3701
640.3810, 522.5801
641.5450, 395.6260
642.7080, 515.0225
643.8720, 396.8057
645.0350, 411.9873
646.1980, 313.1826
647.3610, 502.7227
648.5240, 345.0674
649.6870, 402.3193
650.8490, 486.7188
652.0120, 340.9141
653.1740, 248.3096
654.3360, 329.1387
655.4980, 275.2734
656.6600, 337.9990
657.8210, 493.2832
658.9830, 440.0215
660.1440, 338.8438
661.3050, 436.9746
662.4660, 334.9531
663.6270, 377.3477
664.7870, 305.0137
665.9480, 310.5996
667.1080, 427.9053
668.2680, 312.5713
669.4280, 308.5908
670.5880, 170.6885
671.7480, 305.8975
672.9070, 209.4141
674.0670, 151.5732
675.2260, 102.4111
676.3850, 60.83887
677.5440, 53.23047
678.7030, 93.58008
679.8610, 60.88867
681.0200, 132.1553
682.1780, 114.3770
683.3360, 129.6748
684.4940, 14.53125
685.6520, 199.5488
686.8090, 65.04590
687.9670, 28.54492
689.1240, 41.45898
690.2810, 94.30469
691.4380, 123.8076
692.5950, 60.35352
693.7520, 139.7910
694.9080, 90.92871
696.0650, 113.0068
697.2210, 68.28613
698.3770, 214.4092
699.5330, 88.51074
700.6880, 157.4033
701.8440, 66.18164
702.9990, 36.85449
704.1550, 61.18066
705.3100, 192.5371
706.4650, 27.53027
707.6190, 168.9248
708.7740, 78.66406
709.9290, 34.07031
711.0830, 44.29980
712.2370, 6.672852
713.3910, 41.86230
714.5450, 41.66113
715.6980, 115.5576
716.8520, 54.35742
718.0050, 24.32812
719.1580, 55.12793
720.3110, 149.3613
721.4640, 52.23828
722.6170, 50.08789
723.7700, 74.63086
724.9220, 92.43652
726.0740, 129.6631
727.2260, 21.72363
728.3780, 72.74023
729.5300, 35.06152
730.6810, 172.1504
731.8330, 130.0518
732.9840, 47.17773
734.1350, 197.2891
735.2860, 189.0781
736.4370, 85.22363
737.5880, 100.3867
738.7380, 188.0449
739.8880, 92.31836
741.0390, 240.3232
742.1890, 132.9053
743.3380, 8.778320
744.4880, 130.1729
745.6380, 67.78613
746.7870, 114.4434
747.9360, 62.44336
749.0850, 117.2803
750.2340, 76.89648
751.3830, 98.06445
752.5310, 101.0703
753.6800, 124.9824
754.8280, 100.4541
755.9760, 87.54004
757.1240, 77.18164
758.2720, 178.3467
759.4190, 113.7334
760.5670, 188.7695
761.7140, 113.7256
762.8610, 57.72363
764.0080, 171.5029
765.1550, 126.2402
766.3020, 207.2061
767.4480, 276.6729
768.5950, 12.49414
769.7410, 167.0391
770.8870, 183.5303
772.0330, 120.8037
773.1780, 209.2090
774.3240, 235.5742
775.4690, 279.8965
776.6140, 287.5576
777.7590, 234.4219
778.9040, 235.6230
780.0490, 201.7822
781.1940, 99.89648
782.3380, 234.9639
783.4820, 221.9893
784.6260, 133.9727
785.7700, 18.90918
786.9140, 187.7822
788.0580, 144.6113
789.2010, 191.3955
790.3450, 255.1367
791.4880, 331.8164
792.6310, 191.4766
793.7730, 178.0928
794.9160, 144.6689
796.0590, 135.1982
797.2010, 164.6865
798.3430, 107.1318
799.4850, 122.5322
800.6270, 173.8877
801.7690, 261.2002
802.9100, 231.4717
804.0520, 235.7529
805.1930, 173.8965
806.3340, 147.0488
807.4750, 353.1572
808.6160, 299.8965
809.7560, 282.2588
810.8970, 303.7549
812.0370, 163.3018
813.1770, 487.6006
814.3170, 481.6875
815.4570, 298.7051
816.5960, 746.8545
817.7360, 718.8291
818.8750, 299.0645
820.0140, 17.81055
821.1530, 85.29102
822.2920, 279.2490
823.4310, 152.5664
824.5690, 105.2949
825.7070, 206.2568
826.8460, 259.7979
827.9840, 16.52734
829.1220, 44.32617
830.2590, 53.81836
831.3970, 79.60254
832.5340, 0.2919920
833.6710, 39.86719
834.8080, 63.21582
835.9450, 57.13867
837.0820, 94.79883
838.2190, 2.888672
839.3550, 123.2822
840.4910, 193.2949
841.6270, 173.3799
842.7630, 32.98340
843.8990, 120.0332
845.0350, 40.46777
846.1700, 11.49121
847.3060, 42.28223
848.4410, 178.0654
849.5760, 113.6787
850.7100, 274.4102
851.8450, 16.11035
852.9800, 52.24219
854.1140, 152.1729
855.2480, 173.7061
856.3820, 162.5176
857.5160, 237.5225
858.6500, 254.4482
859.7830, 201.9883
860.9170, 207.4463
862.0500, 405.7588
863.1830, 349.5625
864.3160, 262.8926
865.4480, 67.41406
866.5810, 111.7539
867.7130, 179.6455
868.8460, 83.33789
869.9780, 75.66113
871.1100, 207.5889
872.2410, 47.23145
873.3730, 31.87598
874.5050, 106.6709
875.6360, 3.043945
876.7670, 38.33105
877.8980, 135.2139
879.0290, 98.37305
880.1590, 75.84570
881.2900, 54.49121
882.4200, 253.9121
883.5500, 140.0312
884.6800, 202.4941
885.8100, 37.10059
886.9400, 76.49512
888.0690, 4.924805
889.1990, 41.66504
890.3280, 28.79688
891.4570, 202.1367
892.5860, 113.5938
893.7140, 123.4658
894.8430, 3.979492
895.9710, 75.47559
897.1000, 79.53711
898.2280, 56.60938
899.3560, 105.3662
900.4830, 176.6504
901.6110, 26.73145
902.7380, 56.86523
903.8660, 34.77930
904.9930, 185.0146
906.1200, 235.1719
907.2460, 373.3887
908.3730, 462.3281
909.5000, 654.6289
910.6260, 748.0293
911.7520, 795.6016
912.8780, 1154.186
914.0040, 1198.547
915.1290, 1908.902
916.2550, 1935.107
917.3800, 2745.875
918.5050, 3219.199
919.6300, 3647.461
920.7550, 4073.344
921.8800, 4504.383
923.0040, 4953.475
924.1290, 5173.377
925.2530, 5241.469
926.3770, 5030.820
927.5010, 4862.238
928.6250, 4548.311
929.7480, 4343.324
930.8720, 4081.463
931.9950, 3767.076
933.1180, 3597.059
934.2410, 3276.824
935.3640, 3119.646
936.4860, 2914.680
937.6090, 2831.086
938.7310, 2520.854
939.8530, 2362.672
940.9750, 1929.725
942.0970, 1866.662
943.2180, 1588.074
944.3400, 1492.484
945.4610, 1349.910
946.5820, 1143.336
947.7030, 950.4141
948.8240, 1032.879
949.9450, 857.3613
951.0650, 964.8438
952.1860, 927.3340
953.3060, 549.8594
954.4260, 522.3828
955.5460, 629.7949
956.6650, 562.6953
957.7850, 734.2617
958.9040, 497.4688
960.0230, 428.5586
961.1420, 614.1191
962.2610, 702.8320
963.3800, 676.8496
964.4990, 564.8047
965.6170, 711.8340
966.7350, 552.0000
967.8530, 901.4434
968.9710, 801.5020
970.0890, 999.7070
971.2070, 1196.893
972.3240, 1183.244
973.4410, 1413.666
974.5580, 1423.148
975.6750, 1762.957
976.7920, 1939.723
977.9090, 2064.871
979.0250, 2527.445
980.1410, 2863.697
981.2580, 3594.240
982.3740, 4098.518
983.4890, 4768.400
984.6050, 5813.021
985.7200, 7070.994
986.8360, 8592.941
987.9510, 10012.40
989.0660, 11876.32
990.1810, 13663.34
991.2950, 15417.36
992.4100, 17754.43
993.5240, 20087.51
994.6390, 22156.61
995.7530, 24778.73
996.8660, 26941.89
997.9800, 29742.05
999.0940, 31756.21
1000.207, 33501.04
1001.320, 33737.06
1002.433, 32876.24
1003.546, 31356.17
1004.659, 28054.07
1005.772, 24909.26
1006.884, 21078.06
1007.996, 17380.81
1009.108, 14028.05
1010.220, 11387.63
1011.332, 9023.434
1012.444, 7464.650
1013.555, 6075.547
1014.666, 5145.904
1015.777, 4342.584
1016.888, 3836.021
1017.999, 3468.660
1019.110, 3160.432
1020.220, 3052.395
1021.331, 3260.174
1022.441, 3009.035
1023.551, 3217.906
1024.661, 2971.906
1025.770, 2995.264
1026.880, 2451.031
1027.989, 2220.244
1029.098, 1763.211
1030.207, 1742.490
1031.316, 1397.820
1032.425, 1014.078
1033.533, 973.5195
1034.642, 821.9727
1035.750, 856.1680
1036.858, 665.8281
1037.966, 904.0918
1039.073, 561.6055
1040.181, 689.1328
1041.288, 395.6680
1042.396, 741.2168
1043.503, 382.7754
1044.610, 650.3477
1045.716, 526.9238
1046.823, 499.5117
1047.929, 510.1055
1049.036, 375.7109
1050.142, 431.8164
1051.248, 553.9512
1052.353, 519.5859
1053.459, 615.2305
1054.564, 763.8848
1055.670, 667.5547
1056.775, 946.2402
1057.880, 830.9355
1058.985, 768.9590
1060.089, 771.8223
1061.194, 578.9199
1062.298, 606.3379
1063.402, 661.3691
1064.506, 964.8359
1065.610, 862.4922
1066.713, 854.0723
1067.817, 871.8398
1068.920, 681.6211
1070.023, 775.5742
1071.126, 898.9688
1072.229, 795.6113
1073.332, 968.2148
1074.435, 892.7031
1075.537, 1009.229
1076.639, 1040.707
1077.741, 1121.449
1078.843, 1163.168
1079.945, 1310.109
1081.046, 1376.285
1082.148, 1527.732
1083.249, 1402.344
1084.350, 1550.621
1085.451, 1759.039
1086.551, 1979.861
1087.652, 1736.818
1088.752, 1876.223
1089.853, 1966.129
1090.953, 1747.084
1092.053, 1943.311
1093.152, 1789.129
1094.252, 1671.396
1095.351, 1637.045
1096.451, 1615.777
1097.550, 1585.672
1098.649, 1640.656
1099.748, 1639.959
1100.846, 1555.824
1101.945, 1673.658
1103.043, 1651.062
1104.141, 1569.191
1105.239, 1733.336
1106.337, 1836.299
1107.434, 2168.605
1108.532, 2651.191
1109.629, 3101.750
1110.726, 3700.686
1111.823, 4421.988
1112.920, 5242.162
1114.017, 6327.504
1115.113, 7123.463
1116.210, 7253.529
1117.306, 7074.943
1118.402, 6395.328
1119.498, 5334.502
1120.593, 4094.959
1121.689, 3399.084
1122.784, 2593.133
1123.879, 2021.709
1124.974, 1422.178
1126.069, 1396.637
1127.164, 1035.920
1128.259, 664.9746
1129.353, 766.2637
1130.447, 371.2852
1131.541, 457.2949
1132.635, 341.0625
1133.729, 377.1133
1134.822, 234.4043
1135.916, 302.3770
1137.009, 357.3418
1138.102, 393.2969
1139.195, 324.2441
1140.288, 93.18750
1141.380, 326.1484
1142.473, 129.2656
1143.565, 158.5312
1144.657, 257.4805
1145.749, 327.1484
1146.841, 263.1289
1147.932, 408.2676
1149.024, 645.8574
1150.115, 435.4336
1151.206, 450.5449
1152.297, 341.3027
1153.388, 654.4297
1154.479, 512.9824
1155.569, 752.0801
1156.659, 897.6445
1157.750, 916.8809
1158.839, 1156.166
1159.929, 1185.195
1161.019, 1590.279
1162.108, 1588.111
1163.198, 1893.434
1164.287, 1926.881
1165.376, 2452.928
1166.465, 2886.186
1167.553, 3297.371
1168.642, 3995.578
1169.730, 4635.557
1170.818, 5064.102
1171.906, 5322.041
1172.994, 5031.072
1174.082, 4675.834
1175.170, 3740.705
1176.257, 3150.557
1177.344, 2632.383
1178.431, 2045.748
1179.518, 1662.168
1180.605, 1200.926
1181.691, 1091.658
1182.778, 793.3633
1183.864, 577.0469
1184.950, 546.7148
1186.036, 442.3438
1187.122, 247.4004
1188.207, 293.9766
1189.292, 108.5293
1190.378, 185.0508
1191.463, 116.5449
1192.548, 45.00781
1193.632, 60.56250
1194.717, 66.42188
1195.801, 56.09180
1196.886, 85.65039
1197.970, 260.6270
1199.054, 287.8145
1200.137, 21.06836
1201.221, 84.99414
1202.305, 45.97656
1203.388, 42.91602
1204.471, 75.82617
1205.554, 41.03320
1206.637, 84.79102
1207.719, 74.42188
1208.802, 34.61523
1209.884, 107.5996
1210.966, 30.72852
1212.048, 50.10547
1213.130, 73.39844
1214.212, 13.74219
1215.293, 110.7109
1216.374, 36.80664
1217.456, 5.505859
1218.536, 91.24023
1219.617, 28.78711
1220.698, 2.896484
1221.778, 133.9609
1222.859, 94.82812
1223.939, 101.3242
1225.019, 11.18164
1226.099, 59.52539
1227.178, 1.554688
1228.258, 58.41406
1229.337, 15.17773
1230.417, 63.64844
1231.496, 89.91016
1232.574, 129.2109
1233.653, 53.25000
1234.732, 242.6348
1235.810, 333.4785
1236.888, 59.56641
1237.966, 69.52930
1239.044, 153.1602
1240.122, 64.34375
1241.199, 216.0469
1242.277, 248.0215
1243.354, 219.2949
1244.431, 73.90234
1245.508, 287.6172
1246.585, 204.9102
1247.661, 214.9453
1248.738, 279.9902
1249.814, 230.4844
1250.890, 311.5605
1251.966, 352.2715
1253.042, 214.9121
1254.117, 243.9902
1255.193, 245.5137
1256.268, 287.2188
1257.343, 340.9844
1258.418, 283.7871
1259.493, 451.3145
1260.567, 376.7773
1261.642, 168.0664
1262.716, 338.5176
1263.790, 279.5938
1264.864, 424.9863
1265.938, 450.7754
1267.011, 368.2090
1268.085, 569.4727
1269.158, 359.6250
1270.231, 474.5859
1271.304, 323.8965
1272.377, 286.8301
1273.450, 380.5645
1274.522, 204.4980
1275.594, 497.4688
1276.666, 336.0996
1277.738, 242.4395
1278.810, 253.4258
1279.882, 391.3770
1280.953, 219.5801
1282.025, 373.1055
1283.096, 270.3555
1284.167, 427.7012
1285.238, 266.4980
1286.308, 342.3887
1287.379, 335.5898
1288.449, 161.6934
1289.519, 587.1348
1290.589, 208.5801
1291.659, 330.1289
1292.729, 297.4199
1293.798, 544.5566
1294.868, 335.9336
1295.937, 349.3320
1297.006, 343.5684
1298.075, 628.6777
1299.143, 254.7969
1300.212, 419.5684
1301.280, 368.8047
1302.348, 190.8516
1303.416, 495.8887
1304.484, 613.6816
1305.552, 546.6191
1306.620, 352.3027
1307.687, 809.9336
1308.754, 530.5098
1309.821, 796.0312
1310.888, 539.5000
1311.955, 458.9219
1313.021, 401.2910
1314.088, 650.6074
1315.154, 297.8691
1316.220, 677.0703
1317.286, 504.2207
1318.352, 565.9238
1319.417, 516.8789
1320.483, 500.4824
1321.548, 437.7207
1322.613, 582.3027
1323.678, 559.3926
1324.743, 695.4883
1325.807, 375.1660
1326.872, 389.8457
1327.936, 415.4766
1329.000, 538.8906
1330.064, 582.8262
1331.128, 176.4707
1332.191, 164.1133
1333.255, 339.8301
1334.318, 444.4473
1335.381, 415.0723
1336.444, 314.3926
1337.507, 365.6953
1338.569, 313.7324
1339.632, 356.4883
1340.694, 127.9336
1341.756, 270.1699
1342.818, 214.6934
1343.880, 10.02148
1344.941, 221.8926
1346.003, 480.5840
1347.064, 459.7969
1348.125, 290.4316
1349.186, 367.9668
1350.247, 282.1348
1351.308, 212.7695
1352.368, 165.5430
1353.428, 88.42969
1354.489, 215.7910
1355.549, 160.7012
1356.608, 266.5781
1357.668, 283.2168
1358.727, 279.3828
1359.787, 85.65234
1360.846, 94.83984
1361.905, 43.65039
1362.964, 13.11914
1364.022, 85.94336
1365.081, 60.37109
1366.139, 92.08008
1367.197, 202.9453
1368.255, 72.53711
1369.313, 35.38086
1370.371, 52.19141
1371.428, 85.40234
1372.486, 66.57227
1373.543, 132.4863
1374.600, 1.521484
1375.657, 83.85742
1376.713, 121.4043
1377.770, 17.00391
1378.826, 30.83398
1379.882, 14.59375
1380.938, 6.458984
1381.994, 232.7266
1383.050, 177.8711
1384.106, 152.1387
1385.161, 131.5820
1386.216, 25.73242
1387.271, 191.1035
1388.326, 221.6016
1389.381, 225.1133
1390.435, 164.2871
1391.490, 189.0859
1392.544, 71.38086
1393.598, 128.4746
1394.652, 157.5234
1395.705, 21.54883
1396.759, 200.4961
1397.812, 111.4043
1398.866, 190.0996
1399.919, 48.41016
1400.972, 19.33984
1402.024, 143.3457
1403.077, 213.1816
1404.129, 59.63672
1405.181, 102.6465
1406.233, 97.65625
1407.285, 56.65039
1408.337, 174.4238
1409.389, 38.39258
1410.440, 26.17773
1411.491, 310.2891
1412.542, 60.86523
1413.593, 186.6973
1414.644, 196.4531
1415.695, 101.4395
1416.745, 87.31250
1417.795, 1.396484
1418.845, 96.29102
1419.895, 119.2695
1420.945, 286.9688
1421.995, 268.3828
1423.044, 293.8086
1424.093, 340.1660
1425.142, 299.4180
1426.191, 129.4570
1427.240, 243.8887
1428.289, 275.1641
1429.337, 262.6367
1430.385, 418.9121
1431.433, 259.1543
1432.481, 559.3613
1433.529, 349.3379
1434.577, 785.4805
1435.624, 563.5938
1436.672, 693.8418
1437.719, 629.5898
1438.766, 687.8613
1439.812, 771.6953
1440.859, 1038.510
1441.905, 941.8320
1442.952, 1058.566
1443.998, 1148.549
1445.044, 1040.953
1446.090, 905.2695
1447.135, 967.3867
1448.181, 1039.010
1449.226, 1063.254
1450.271, 997.0879
1451.316, 935.7578
1452.361, 867.5195
1453.405, 1056.283
1454.450, 1147.674
1455.494, 1031.316
1456.538, 867.4746
1457.582, 877.6719
1458.626, 831.6523
1459.670, 921.9375
1460.713, 731.8359
1461.757, 906.0957
1462.800, 896.3633
1463.843, 831.5820
1464.886, 663.4766
1465.928, 564.0664
1466.971, 536.3145
1468.013, 487.7715
1469.055, 484.8613
1470.097, 494.3066
1471.139, 528.7266
1472.181, 508.4609
1473.222, 533.6875
1474.263, 449.5547
1475.305, 482.9551
1476.346, 384.8828
1477.386, 360.6719
1478.427, 160.1602
1479.468, 459.0859
1480.508, 253.5352
1481.548, 103.7637
1482.588, 450.8047
1483.628, 221.9355
1484.668, 192.2266
1485.707, 506.5352
1486.747, 376.4238
1487.786, 210.7285
1488.825, 384.0254
1489.864, 503.8711
1490.902, 330.5449
1491.941, 356.3652
1492.979, 204.7246
1494.017, 49.73633
1495.055, 101.8320
1496.093, 76.45312
1497.131, 244.5391
1498.168, 40.49023
1499.206, 137.7500
1500.243, 228.6895
1501.280, 69.22266
1502.317, 277.1055
1503.354, 334.9297
1504.390, 367.0664
1505.426, 410.1660
1506.463, 425.0137
1507.499, 439.1953
1508.535, 401.1816
1509.570, 449.1250
1510.606, 355.0547
1511.641, 356.9570
1512.676, 191.7949
1513.711, 294.5352
1514.746, 365.1973
1515.781, 425.7559
1516.816, 215.2754
1517.850, 274.7305
1518.884, 342.0820
1519.918, 226.3574
1520.952, 344.5312
1521.986, 288.6836
1523.019, 329.7734
1524.053, 384.9512
1525.086, 293.0195
1526.119, 238.2910
1527.152, 187.1621
1528.185, 362.3125
1529.217, 409.0820
1530.250, 325.9434
1531.282, 107.6133
1532.314, 290.7891
1533.346, 90.58203
1534.377, 328.8594
1535.409, 287.8906
1536.440, 240.7500
1537.472, 335.3438
1538.503, 213.3984
1539.534, 224.3750
1540.564, 399.2773
1541.595, 338.0938
1542.625, 214.8242
1543.656, 271.7227
1544.686, 397.2422
1545.716, 341.3477
1546.745, 284.5820
1547.775, 251.8164
1548.804, 34.04297
1549.834, 530.9766
1550.863, 365.8594
1551.892, 705.5703
1552.920, 985.8477
1553.949, 715.6875
1554.977, 589.8789
1556.006, 270.3125
1557.034, 548.7656
1558.062, 854.2539
1559.089, 845.8633
1560.117, 171.6250
1561.144, 14.25391
1562.172, 104.1797
1563.199, 420.6602
1564.226, 269.5195
1565.252, 255.7891
1566.279, 220.1094
1567.305, 73.47266
1568.332, 216.0039
1569.358, 266.2148
1570.384, 485.9844
1571.409, 0.8593750
1572.435, 0.0000000E+00
##END=



