##NAMES=Scolecite
##RRUFFID=R040111
##IDEAL CHEMISTRY=Ca(Si_3_Al_2_)O_10_&#183;3H_2_O
##LOCALITY=Bombay-Poona area, Mahahashtra Province, India
##OWNER=RRUFF
##SOURCE=National Museums of Canada
##DESCRIPTION=Pale pink prismatic crystals in parallel or near parallel aggregates
##STATUS=The identification of this mineral has been confirmed by X-ray diffraction and chemical analysis
##URL=rruff.info/R040111
##MEASURED CHEMISTRY=Ca_0.98_(Si_3.05_Al_1.95_)O_10_Â·3H_2_O
##PIN_ID=M00095
##ORIENTATION=Laser parallel to -b* (0 -1 0). Fiducial mark perpendicular to laser is parallel to -c [0 0 -1]
79.427, 0.000
80.823, 20.509
82.218, 163.945
83.614, 346.829
85.009, 771.399
86.404, 1254.664
87.798, 2019.432
89.193, 2978.429
90.587, 3803.473
91.981, 4862.503
93.375, 5739.348
94.768, 6331.809
96.161, 7218.835
97.554, 7620.025
98.947, 7865.059
100.340, 8322.597
101.732, 9742.290
103.124, 11790.797
104.516, 14527.805
105.908, 17693.014
107.300, 21291.826
108.691, 25941.164
110.082, 28403.771
111.473, 26968.316
112.864, 21933.086
114.254, 15869.608
115.644, 11247.632
117.034, 9541.944
118.424, 6931.359
119.813, 4513.752
121.203, 2984.974
122.592, 2379.840
123.981, 2542.189
125.369, 2480.900
126.758, 2437.871
128.146, 2054.020
129.534, 1648.271
130.922, 903.559
132.309, 345.828
133.696, 124.821
135.083, 192.729
136.470, 432.513
137.857, 218.306
139.243, 261.809
140.630, 1.015
142.016, 74.910
143.401, 2.524
144.787, 114.305
146.172, 261.437
147.557, 547.914
148.942, 1326.733
150.327, 2333.887
151.711, 3508.373
153.096, 5397.182
154.480, 7245.339
155.863, 9371.838
157.247, 11354.865
158.630, 12285.612
160.013, 12318.652
161.396, 11585.943
162.779, 10417.321
164.161, 8887.398
165.544, 7365.369
166.926, 5775.326
168.308, 4528.340
169.689, 3247.451
171.070, 2899.694
172.452, 2829.091
173.833, 3136.654
175.213, 3957.403
176.594, 4782.343
177.974, 6287.466
179.354, 7811.773
180.734, 8964.272
182.114, 9655.965
183.493, 9609.858
184.872, 7990.956
186.251, 6471.256
187.630, 4583.486
189.008, 3429.373
190.387, 2420.401
191.765, 1649.865
193.143, 1285.046
194.520, 832.788
195.898, 889.786
197.275, 890.048
198.652, 1168.570
200.029, 1278.354
201.405, 1489.417
202.782, 1605.880
204.158, 1705.743
205.534, 1717.036
206.909, 1175.802
208.285, 927.908
209.660, 766.358
211.035, 636.019
212.410, 808.874
213.784, 1355.923
215.159, 2304.160
216.533, 3499.580
217.907, 4962.180
219.281, 6799.935
220.654, 8517.842
222.027, 10347.899
223.400, 10647.106
224.773, 9911.458
226.146, 8516.988
227.518, 7222.712
228.891, 5974.480
230.263, 5256.471
231.634, 4620.162
233.006, 3837.256
234.377, 2972.390
235.748, 2089.317
237.119, 1264.917
238.490, 828.301
239.860, 391.810
241.231, 312.440
242.601, 164.192
243.970, 395.062
245.340, 636.104
246.709, 1008.213
248.079, 1928.525
249.448, 2639.666
250.816, 4063.248
252.185, 5285.011
253.553, 6445.754
254.921, 6815.332
256.289, 6291.639
257.657, 4990.600
259.024, 3570.129
260.391, 2451.124
261.758, 1448.537
263.125, 874.348
264.492, 556.531
265.858, 292.067
267.224, 361.937
268.590, 304.120
269.956, 489.601
271.321, 653.365
272.687, 895.203
274.052, 729.853
275.416, 901.599
276.781, 1155.559
278.146, 1463.768
279.510, 2077.213
280.874, 2421.883
282.237, 2463.585
283.601, 2594.852
284.964, 2241.132
286.327, 2207.599
287.690, 1741.243
289.053, 1263.062
290.416, 1040.046
291.778, 503.192
293.140, 256.495
294.502, 87.052
295.863, 278.482
297.225, 491.836
298.586, 519.683
299.947, 457.425
301.308, 559.443
302.668, 464.021
304.029, 296.094
305.389, 140.542
306.749, 49.222
308.108, 366.479
309.468, 605.351
310.827, 967.317
312.186, 1080.381
313.545, 1652.531
314.903, 1912.797
316.262, 1909.431
317.620, 2297.940
318.978, 2230.011
320.336, 2369.181
321.693, 2189.278
323.051, 2150.310
324.408, 1997.344
325.765, 2185.149
327.121, 1799.292
328.478, 1815.994
329.834, 1563.821
331.190, 1584.858
332.546, 1219.541
333.902, 1340.669
335.257, 1320.900
336.612, 1608.571
337.967, 1730.828
339.322, 1851.469
340.677, 2077.172
342.031, 2008.938
343.385, 2118.764
344.739, 1988.650
346.093, 1776.598
347.446, 1666.604
348.799, 1593.667
350.153, 1562.786
351.505, 1259.912
352.858, 1118.806
354.210, 1081.407
355.563, 1099.716
356.915, 1038.923
358.267, 1232.164
359.618, 1231.473
360.969, 1281.848
362.321, 978.286
363.672, 752.788
365.022, 555.354
366.373, 378.979
367.723, 312.661
369.073, 205.401
370.423, 263.194
371.773, 141.042
373.122, 270.934
374.471, 557.877
375.821, 241.869
377.169, 453.925
378.518, 145.027
379.866, 246.174
381.215, 169.367
382.563, 91.604
383.910, 27.872
385.258, 78.162
386.605, 125.479
387.952, 143.171
389.299, 61.159
390.646, 79.506
391.992, 217.878
393.339, 385.282
394.685, 646.722
396.031, 1062.161
397.376, 1424.614
398.722, 1951.021
400.067, 2507.447
401.412, 3065.913
402.757, 3905.414
404.101, 4261.953
405.446, 4305.527
406.790, 4127.137
408.134, 3709.863
409.478, 3159.695
410.821, 2446.617
412.165, 1724.621
413.508, 1348.699
414.851, 998.846
416.193, 775.057
417.536, 598.329
418.878, 636.657
420.220, 821.039
421.562, 810.471
422.904, 1382.952
424.245, 1928.479
425.586, 2441.053
426.927, 3382.668
428.268, 4012.324
429.609, 5082.021
430.949, 6364.756
432.289, 7627.527
433.629, 8160.332
434.969, 9097.174
436.309, 9202.051
437.648, 9547.963
438.987, 9244.909
440.326, 9004.891
441.665, 8681.899
443.003, 8727.939
444.342, 8545.013
445.680, 8217.110
447.018, 8033.236
448.355, 7458.391
449.693, 6998.760
451.030, 6604.086
452.367, 6225.085
453.704, 5038.761
455.041, 4623.510
456.377, 3960.801
457.713, 3481.000
459.049, 2937.916
460.385, 2693.246
461.721, 2274.874
463.056, 1823.657
464.391, 1405.119
465.726, 1196.350
467.061, 857.033
468.395, 699.171
469.730, 672.996
471.064, 319.782
472.398, 479.197
473.731, 178.832
475.065, 272.424
476.398, 120.077
477.731, 218.363
479.064, 111.769
480.397, 111.490
481.729, 29.304
483.062, 65.465
484.394, 82.277
485.725, 58.145
487.057, 26.027
488.389, 89.939
489.720, 145.889
491.051, 129.894
492.382, 121.981
493.712, 0.089
495.043, 0.678
496.373, 99.359
497.703, 59.443
499.032, 180.244
500.362, 184.070
501.691, 459.955
503.020, 459.864
504.349, 761.789
505.678, 977.749
507.007, 1072.721
508.335, 1405.704
509.663, 1492.699
510.991, 2030.705
512.319, 2330.719
513.646, 2767.744
514.973, 3309.782
516.300, 4009.829
517.627, 4597.893
518.954, 5139.964
520.280, 6546.043
521.607, 7514.135
522.933, 9095.240
524.259, 11021.355
525.584, 13427.479
526.910, 17231.605
528.235, 21338.744
529.560, 26894.857
530.885, 32419.004
532.209, 38282.184
533.534, 43929.336
534.858, 45784.500
536.182, 44331.629
537.506, 39264.793
538.829, 32035.629
540.152, 25274.803
541.476, 19421.922
542.799, 14721.607
544.121, 11664.874
545.444, 8979.053
546.766, 6954.609
548.088, 5693.797
549.410, 4780.289
550.732, 3841.395
552.053, 3242.470
553.375, 2647.650
554.696, 2187.828
556.017, 1962.009
557.337, 1680.188
558.658, 1480.367
559.978, 1195.544
561.298, 1185.721
562.618, 839.896
563.938, 731.069
565.257, 818.242
566.576, 530.415
567.895, 684.584
569.214, 629.750
570.533, 428.911
571.851, 323.067
573.170, 265.489
574.488, 248.365
575.805, 187.505
577.123, 232.639
578.440, 261.765
579.758, 292.884
581.075, 249.996
582.391, 457.099
583.708, 318.194
585.024, 212.281
586.341, 461.359
587.657, 535.427
588.972, 648.484
590.288, 462.532
591.603, 422.568
592.918, 497.596
594.233, 491.610
595.548, 535.613
596.863, 502.608
598.177, 516.590
599.491, 464.559
600.805, 445.516
602.119, 376.459
603.432, 450.389
604.746, 373.306
606.059, 307.208
607.372, 146.097
608.685, 154.118
609.997, 91.822
611.309, 117.655
612.621, 111.468
613.933, 76.260
615.245, 21.060
616.557, 34.213
617.868, 4.709
619.179, 10.156
620.490, 44.866
621.801, 174.469
623.111, 150.031
624.421, 355.088
625.731, 81.203
627.041, 233.877
628.351, 47.557
629.660, 25.403
630.970, 127.149
632.279, 69.247
633.588, 52.667
634.896, 143.322
636.205, 48.360
637.513, 83.633
638.821, 34.264
640.129, 254.039
641.437, 325.552
642.744, 247.282
644.051, 395.646
645.358, 568.509
646.665, 653.159
647.972, 703.976
649.278, 754.043
650.584, 793.736
651.890, 1068.215
653.196, 1014.202
654.502, 1264.555
655.807, 1161.898
657.113, 1326.066
658.418, 1626.630
659.722, 1621.846
661.027, 1926.699
662.331, 2110.296
663.636, 2541.726
664.940, 2686.967
666.244, 3090.548
667.547, 3137.230
668.851, 3723.585
670.154, 3663.736
671.457, 3775.139
672.760, 3758.455
674.062, 3429.801
675.365, 3345.766
676.667, 2946.701
677.969, 2490.608
679.271, 1929.596
680.572, 1554.386
681.874, 1433.385
683.175, 1239.297
684.476, 760.037
685.777, 688.261
687.077, 442.937
688.378, 375.579
689.678, 235.198
690.978, 228.779
692.278, 7.630
693.577, 394.115
694.877, 130.567
696.176, 283.985
697.475, 144.369
698.774, 377.730
700.072, 496.058
701.371, 655.374
702.669, 658.672
703.967, 964.944
705.265, 1292.244
706.562, 1174.529
707.860, 1020.793
709.157, 1296.025
710.454, 1017.223
711.751, 1187.386
713.047, 897.514
714.344, 1086.604
715.640, 805.662
716.936, 1005.685
718.232, 1238.674
719.527, 1101.626
720.823, 1232.543
722.118, 1172.928
723.413, 1091.772
724.708, 878.585
726.002, 1084.360
727.297, 1049.100
728.591, 1191.803
729.885, 1379.471
731.179, 1305.102
732.472, 1209.697
733.766, 1100.352
735.059, 1068.871
736.352, 1072.541
737.645, 920.990
738.937, 927.404
740.230, 807.783
741.522, 819.123
742.814, 854.426
744.106, 943.693
745.397, 946.926
746.689, 836.117
747.980, 1229.275
749.271, 1225.395
750.562, 1578.479
751.853, 1377.035
753.143, 1712.045
754.433, 1728.016
755.723, 1516.949
757.013, 1828.846
758.303, 1252.707
759.592, 1339.527
760.881, 993.312
762.170, 918.061
763.459, 736.578
764.748, 571.188
766.036, 656.055
767.325, 401.227
768.613, 423.312
769.901, 272.797
771.188, 78.098
772.476, 261.811
773.763, 18.426
775.050, 89.400
776.337, 35.023
777.624, 45.088
778.910, 87.980
780.196, 24.984
781.482, 50.275
782.768, 2.459
784.054, 54.637
785.339, 22.492
786.625, 116.609
787.910, 92.252
789.195, 92.973
790.479, 21.895
791.764, 122.027
793.048, 31.396
794.332, 207.959
795.616, 32.963
796.900, 95.861
798.183, 84.250
799.467, 82.566
800.750, 70.643
802.033, 90.908
803.316, 193.768
804.598, 197.545
805.880, 144.025
807.163, 18.430
808.445, 13.934
809.726, 58.721
811.008, 27.852
812.289, 146.494
813.570, 30.268
814.851, 61.883
816.132, 69.947
817.413, 90.061
818.693, 109.027
819.973, 72.205
821.253, 61.074
822.533, 217.895
823.813, 104.674
825.092, 74.412
826.371, 206.100
827.650, 72.752
828.929, 283.357
830.208, 320.926
831.486, 109.461
832.764, 95.953
834.042, 115.398
835.320, 231.807
836.598, 245.176
837.875, 284.518
839.152, 165.822
840.429, 431.090
841.706, 391.354
842.983, 278.619
844.259, 439.852
845.536, 208.055
846.812, 490.260
848.088, 345.396
849.363, 516.844
850.639, 486.916
851.914, 274.443
853.189, 357.500
854.464, 321.535
855.739, 361.518
857.013, 458.629
858.288, 505.637
859.562, 719.629
860.836, 730.600
862.110, 563.539
863.383, 764.449
864.656, 540.326
865.930, 565.180
867.203, 466.000
868.475, 463.824
869.748, 295.617
871.020, 420.381
872.292, 404.115
873.564, 403.830
874.836, 159.520
876.108, 328.178
877.379, 507.803
878.650, 359.398
879.922, 560.971
881.192, 361.512
882.463, 307.025
883.733, 299.508
885.004, 469.961
886.274, 256.385
887.544, 491.777
888.813, 235.141
890.083, 486.477
891.352, 366.779
892.621, 513.055
893.890, 412.301
895.159, 370.520
896.427, 431.709
897.695, 356.723
898.964, 481.006
900.232, 316.113
901.499, 336.199
902.767, 324.252
904.034, 153.285
905.301, 360.283
906.568, 508.268
907.835, 508.225
909.102, 356.154
910.368, 333.059
911.634, 491.945
912.900, 306.811
914.166, 625.650
915.432, 377.473
916.697, 258.268
917.962, 570.041
919.227, 411.795
920.492, 416.523
921.757, 357.229
923.021, 643.910
924.285, 537.688
925.550, 629.324
926.813, 687.521
928.077, 566.512
929.341, 502.691
930.604, 613.979
931.867, 386.803
933.130, 467.564
934.393, 563.740
935.655, 296.869
936.918, 536.777
938.180, 442.730
939.442, 399.779
940.703, 342.773
941.965, 473.668
943.226, 394.385
944.488, 480.980
945.749, 755.148
947.009, 790.273
948.270, 878.750
949.530, 985.029
950.791, 976.928
952.051, 731.006
953.311, 734.764
954.570, 604.250
955.830, 554.301
957.089, 369.104
958.348, 382.699
959.607, 384.707
960.866, 105.932
962.124, 321.604
963.383, 222.090
964.641, 290.141
965.899, 399.500
967.156, 116.180
968.414, 159.072
969.671, 443.086
970.928, 63.246
972.185, 409.021
973.442, 399.648
974.699, 527.559
975.955, 562.629
977.211, 378.400
978.468, 879.213
979.723, 888.334
980.979, 1162.408
982.234, 1916.625
983.490, 1989.666
984.745, 2832.977
986.000, 3122.654
987.254, 2822.469
988.509, 2789.488
989.763, 2259.473
991.017, 1841.529
992.271, 1489.449
993.525, 1047.336
994.779, 1271.148
996.032, 1051.787
997.285, 1127.836
998.538, 1053.582
999.791, 1481.777
1001.044, 1386.354
1002.296, 1945.652
1003.548, 1761.055
1004.800, 1731.189
1006.052, 1842.705
1007.304, 1591.061
1008.555, 1890.514
1009.807, 1474.518
1011.058, 1382.070
1012.309, 1436.340
1013.559, 1207.938
1014.810, 986.807
1016.060, 1305.180
1017.310, 1390.176
1018.560, 1298.152
1019.810, 1657.506
1021.060, 1764.699
1022.309, 1411.744
1023.558, 1818.312
1024.807, 1356.859
1026.056, 1468.719
1027.305, 1398.523
1028.553, 1431.695
1029.801, 1626.291
1031.049, 1640.457
1032.297, 1759.779
1033.545, 2252.715
1034.793, 2011.314
1036.040, 2132.361
1037.287, 1863.049
1038.534, 1790.195
1039.781, 2175.020
1041.027, 1996.637
1042.274, 2161.596
1043.520, 2778.164
1044.766, 3118.205
1046.012, 3508.152
1047.257, 3904.227
1048.503, 4291.975
1049.748, 3485.078
1050.993, 3389.686
1052.238, 2631.332
1053.483, 2071.996
1054.727, 1684.910
1055.971, 1332.551
1057.216, 1247.133
1058.459, 961.914
1059.703, 940.805
1060.947, 833.064
1062.190, 759.281
1063.433, 756.123
1064.676, 634.770
1065.919, 600.697
1067.162, 864.145
1068.404, 600.922
1069.646, 572.389
1070.888, 722.783
1072.130, 520.244
1073.372, 595.770
1074.613, 811.248
1075.855, 542.139
1077.096, 517.711
1078.337, 877.898
1079.578, 742.494
1080.818, 821.428
1082.059, 941.801
1083.299, 1003.012
1084.539, 967.887
1085.779, 1008.428
1087.018, 982.871
1088.258, 1208.631
1089.497, 1331.086
1090.736, 1555.332
1091.975, 1789.682
1093.213, 1841.947
1094.452, 2201.197
1095.690, 2224.447
1096.928, 2507.834
1098.166, 2581.121
1099.404, 2700.395
1100.642, 2461.680
1101.879, 2405.955
1103.116, 2040.236
1104.353, 1938.537
1105.590, 1877.139
1106.827, 1452.576
1108.063, 1224.379
1109.299, 1081.102
1110.536, 1050.068
1111.771, 704.311
1113.007, 787.348
1114.243, 654.180
1115.478, 514.906
1116.713, 586.547
1117.948, 601.127
1119.183, 327.414
1120.418, 382.578
1121.652, 659.836
1122.886, 527.078
1124.120, 396.311
1125.354, 520.559
1126.588, 235.750
1127.821, 101.922
1129.055, 271.492
1130.288, 157.625
1131.521, 272.428
1132.753, 103.520
1133.986, 52.590
1135.218, 299.771
1136.450, 9.160
1137.682, 226.895
1138.914, 58.611
1140.146, 113.973
1141.377, 128.240
1142.609, 4.193
1143.840, 47.045
1145.071, 113.965
1146.301, 20.252
1147.532, 150.213
1148.762, 56.906
1149.992, 130.494
1151.222, 33.986
1152.452, 28.352
1153.682, 228.834
1154.911, 96.848
1156.140, 13.633
1157.369, 60.846
1158.598, 36.385
1159.827, 110.551
1161.055, 29.115
1162.284, 200.135
1163.512, 11.238
1164.740, 163.715
1165.967, 122.299
1167.195, 71.922
1168.422, 106.781
1169.650, 139.553
1170.877, 35.402
1172.103, 15.715
1173.330, 52.969
1174.557, 182.586
1175.783, 91.172
1177.009, 7.834
1178.235, 85.355
1179.461, 44.848
1180.686, 133.537
1181.912, 211.217
1183.137, 104.119
1184.362, 165.852
1185.587, 81.779
1186.811, 112.193
1188.036, 210.068
1189.260, 131.229
1190.484, 222.100
1191.708, 115.928
1192.932, 134.529
1194.155, 105.539
1195.378, 187.627
1196.602, 99.367
1197.825, 22.725
1199.047, 213.885
1200.270, 16.416
1201.492, 274.713
1202.715, 24.387
1203.937, 306.553
1205.159, 165.082
1206.380, 134.865
1207.602, 15.086
1208.823, 56.342
1210.044, 137.004
1211.265, 0.490
1212.486, 127.211
1213.707, 28.762
1214.927, 155.449
1216.147, 225.928
1217.367, 238.799
1218.587, 220.555
1219.807, 200.963
1221.027, 210.602
1222.246, 20.047
1223.465, 185.244
1224.684, 326.502
1225.903, 179.734
1227.121, 96.936
1228.340, 236.102
1229.558, 383.238
1230.776, 120.375
1231.994, 199.451
1233.212, 225.641
1234.429, 151.652
1235.646, 230.625
1236.864, 394.562
1238.081, 258.471
1239.297, 375.359
1240.514, 309.223
1241.730, 349.061
1242.947, 257.869
1244.163, 292.656
1245.378, 386.414
1246.594, 346.143
1247.810, 306.836
1249.025, 335.492
1250.240, 315.119
1251.455, 203.715
1252.670, 254.281
1253.885, 162.822
1255.099, 181.334
1256.313, 82.861
1257.527, 70.137
1258.741, 101.986
1259.955, 27.096
1261.168, 182.432
1262.382, 183.717
1263.595, 216.941
1264.808, 309.844
1266.021, 246.334
1267.233, 389.467
1268.446, 357.568
1269.658, 281.639
1270.870, 273.678
1272.082, 342.668
1273.294, 292.625
1274.505, 184.209
1275.716, 344.107
1276.928, 118.818
1278.139, 348.656
1279.349, 427.076
1280.560, 253.250
1281.770, 275.006
1282.981, 63.547
1284.191, 107.191
1285.401, 173.178
1286.610, 1.742
1287.820, 115.258
1289.029, 37.244
1290.239, 223.338
1291.448, 129.162
1292.656, 198.559
1293.865, 257.459
1295.073, 387.934
1296.282, 317.078
1297.490, 220.115
1298.698, 235.824
1299.906, 148.107
1301.113, 179.500
1302.320, 105.752
1303.528, 165.404
1304.735, 15.531
1305.942, 119.771
1307.148, 263.697
1308.355, 90.309
1309.561, 240.373
1310.767, 225.768
1311.973, 139.137
1313.179, 218.082
1314.384, 447.145
1315.590, 159.314
1316.795, 366.912
1318.000, 219.482
1319.205, 257.197
1320.410, 301.420
1321.614, 203.230
1322.819, 331.574
1324.023, 244.297
1325.227, 171.822
1326.431, 166.688
1327.634, 15.152
1328.838, 29.510
1330.041, 39.273
1331.244, 200.869
1332.447, 48.561
1333.650, 37.646
1334.852, 68.883
1336.055, 65.238
1337.257, 118.129
1338.459, 21.453
1339.661, 39.201
1340.862, 61.344
1342.064, 76.504
1343.265, 182.109
1344.466, 85.648
1345.667, 132.131
1346.868, 316.816
1348.068, 194.066
1349.269, 49.719
1350.469, 252.953
1351.669, 144.043
1352.869, 45.734
1354.069, 312.438
1355.268, 135.514
1356.468, 181.703
1357.667, 224.250
1358.866, 167.559
1360.065, 269.035
1361.263, 116.768
1362.462, 137.117
1363.660, 325.389
1364.858, 149.883
1366.056, 213.109
1367.254, 210.918
1368.451, 249.090
1369.649, 254.777
1370.846, 271.650
1372.043, 217.084
1373.240, 286.256
1374.436, 199.326
1375.633, 227.908
1376.829, 171.488
1378.025, 247.074
1379.221, 398.859
1380.417, 330.439
1381.613, 219.777
1382.808, 385.150
1384.003, 284.391
1385.199, 215.672
1386.393, 260.910
1387.588, 347.105
1388.783, 324.789
1389.977, 248.906
1391.171, 242.994
1392.365, 221.492
1393.559, 246.271
1394.753, 281.031
1395.946, 312.666
1397.140, 332.416
1398.333, 303.076
1399.526, 188.262
1400.719, 385.074
1401.911, 299.641
1403.104, 384.965
1404.296, 254.295
1405.488, 460.721
1406.680, 197.164
1407.872, 181.584
1409.063, 449.498
1410.255, 249.881
1411.446, 435.953
1412.637, 401.613
1413.828, 372.990
1415.018, 377.143
1416.209, 271.832
1417.399, 178.268
1418.589, 214.047
1419.779, 341.387
1420.969, 313.922
1422.159, 237.514
1423.348, 405.947
1424.537, 448.193
1425.726, 341.723
1426.915, 370.887
1428.104, 460.236
1429.293, 307.607
1430.481, 346.445
1431.669, 492.789
1432.857, 530.637
1434.045, 491.238
1435.233, 729.385
1436.420, 744.803
1437.608, 582.021
1438.795, 772.518
1439.982, 1065.045
1441.169, 957.207
1442.355, 964.906
1443.542, 1197.670
1444.728, 992.482
1445.914, 1123.783
1447.100, 1114.045
1448.286, 1288.283
1449.472, 1116.424
1450.657, 1392.301
1451.842, 1246.469
1453.027, 1360.576
1454.212, 1559.604
1455.397, 1175.547
1456.581, 1278.424
1457.766, 1535.287
1458.950, 1232.111
1460.134, 1344.861
1461.318, 1187.418
1462.501, 1151.025
1463.685, 1421.578
1464.868, 1046.230
1466.051, 1202.807
1467.234, 908.406
1468.417, 963.955
1469.600, 1007.531
1470.782, 1052.922
1471.965, 1001.949
1473.147, 988.625
1474.329, 895.863
1475.510, 692.322
1476.692, 685.084
1477.873, 740.354
1479.055, 693.781
1480.236, 936.234
1481.416, 562.961
1482.597, 508.969
1483.778, 674.039
1484.958, 647.156
1486.138, 541.320
1487.318, 882.549
1488.498, 541.846
1489.678, 345.227
1490.857, 345.707
1492.037, 551.305
1493.216, 613.055
1494.395, 432.971
1495.574, 522.068
1496.752, 343.383
1497.931, 552.961
1499.109, 18.848
1500.287, 235.031
1501.465, 45.492
1502.643, 52.762
1503.820, 445.275
1504.998, 365.648
1506.175, 84.402
1507.352, 298.600
1508.529, 187.291
1509.706, 164.549
1510.882, 430.426
1512.059, 413.525
1513.235, 256.186
1514.411, 82.277
1515.587, 332.066
1516.762, 0.688
1517.938, 544.936
1519.113, 327.365
1520.288, 51.178
1521.463, 0.000
##END=



