##NAMES=Scolecite
##RRUFFID=R040111
##IDEAL CHEMISTRY=Ca(Si_3_Al_2_)O_10_&#183;3H_2_O
##LOCALITY=Bombay-Poona area, Mahahashtra Province, India
##OWNER=RRUFF
##SOURCE=National Museums of Canada
##DESCRIPTION=Pale pink prismatic crystals in parallel or near parallel aggregates
##STATUS=The identification of this mineral has been confirmed by X-ray diffraction and chemical analysis
##URL=rruff.info/R040111
##MEASURED CHEMISTRY=Ca_0.98_(Si_3.05_Al_1.95_)O_10_Â·3H_2_O
##PIN_ID=L00238
##ORIENTATION=Laser parallel to (-1 0 -1). Fiducial mark perpendicular to laser is parallel to b [0 1 0]
79.427, 0.000
80.823, 101.190
82.218, 25.171
83.614, 180.429
85.009, 401.333
86.404, 818.324
87.798, 1335.695
89.193, 2088.761
90.587, 2892.186
91.981, 3748.688
93.375, 4223.603
94.768, 4316.481
96.161, 4609.065
97.554, 4616.303
98.947, 4756.323
100.340, 4667.704
101.732, 4871.336
103.124, 5271.614
104.516, 6148.609
105.908, 7508.921
107.300, 8922.940
108.691, 10819.199
110.082, 11600.332
111.473, 10471.034
112.864, 7782.062
114.254, 5384.227
115.644, 3514.368
117.034, 2243.355
118.424, 1357.081
119.813, 947.501
121.203, 588.266
122.592, 412.986
123.981, 614.544
125.369, 1013.083
126.758, 855.659
128.146, 709.291
129.534, 942.437
130.922, 847.867
132.309, 926.589
133.696, 776.677
135.083, 1507.320
136.470, 2231.493
137.857, 3399.198
139.243, 4471.483
140.630, 5592.393
142.016, 5830.961
143.401, 5376.222
144.787, 4282.203
146.172, 3311.928
147.557, 2806.419
148.942, 2707.697
150.327, 3042.776
151.711, 3701.675
153.096, 4919.408
154.480, 6237.989
155.863, 7892.430
157.247, 9465.740
158.630, 10261.021
160.013, 10317.000
161.396, 9298.474
162.779, 7990.362
164.161, 6694.760
165.544, 5535.071
166.926, 4643.364
168.308, 4086.681
169.689, 3590.047
171.070, 3656.192
172.452, 3798.939
173.833, 3989.796
175.213, 4510.842
176.594, 4963.117
177.974, 5690.473
179.354, 6299.028
180.734, 6782.719
182.114, 7090.616
183.493, 7487.711
184.872, 7119.999
186.251, 6503.477
187.630, 5542.138
189.008, 4462.988
190.387, 3422.953
191.765, 2528.064
193.143, 1916.332
194.520, 1416.747
195.898, 1192.308
197.275, 891.008
198.652, 1012.846
200.029, 1019.816
201.405, 1131.913
202.782, 1150.134
204.158, 1382.460
205.534, 1340.698
206.909, 1408.400
208.285, 1316.010
209.660, 1170.704
211.035, 1099.465
212.410, 1011.284
213.784, 1020.160
215.159, 1195.092
216.533, 1619.080
217.907, 2083.125
219.281, 2687.223
220.654, 3196.377
222.027, 3667.585
223.400, 3493.849
224.773, 2871.167
226.146, 2111.538
227.518, 1505.963
228.891, 1299.442
230.263, 1148.974
231.634, 993.559
233.006, 846.196
234.377, 653.886
235.748, 406.627
237.119, 31.582
238.490, 89.738
239.860, 285.845
241.231, 410.914
242.601, 385.074
243.970, 301.556
245.340, 203.116
246.709, 10.056
248.079, 328.464
249.448, 622.108
250.816, 1115.568
252.185, 1649.709
253.553, 2077.426
254.921, 2065.637
256.289, 1655.277
257.657, 1159.293
259.024, 594.639
260.391, 354.276
261.758, 49.828
263.125, 218.721
264.492, 350.463
265.858, 398.109
267.224, 387.692
268.590, 490.228
269.956, 322.758
271.321, 218.260
272.687, 300.720
274.052, 305.169
275.416, 135.620
276.781, 9.037
278.146, 145.601
279.510, 447.300
280.874, 655.076
282.237, 1012.927
283.601, 1004.852
284.964, 1036.820
286.327, 1236.815
287.690, 1159.845
289.053, 992.923
290.416, 942.014
291.778, 567.142
293.140, 417.253
294.502, 183.351
295.863, 127.426
297.225, 34.485
298.586, 53.519
299.947, 59.272
301.308, 105.527
302.668, 191.517
304.029, 279.497
305.389, 429.473
306.749, 564.442
308.108, 857.438
309.468, 951.432
310.827, 1052.446
312.186, 1051.486
313.545, 1133.527
314.903, 1011.568
316.262, 971.621
317.620, 897.694
318.978, 741.770
320.336, 756.848
321.693, 689.931
323.051, 618.990
324.408, 471.854
325.765, 538.328
327.121, 247.566
328.478, 260.816
329.834, 290.090
331.190, 239.389
332.546, 204.710
333.902, 351.055
335.257, 260.389
336.612, 378.482
337.967, 318.248
339.322, 275.681
340.677, 387.909
342.031, 239.969
343.385, 316.048
344.739, 399.167
346.093, 369.326
347.446, 385.525
348.799, 458.764
350.153, 331.040
351.505, 316.352
352.858, 289.688
354.210, 268.857
355.563, 251.438
356.915, 337.865
358.267, 362.327
359.618, 495.822
360.969, 608.351
362.321, 605.912
363.672, 623.505
365.022, 699.130
366.373, 698.786
367.723, 853.473
369.073, 850.191
370.423, 1047.938
371.773, 914.715
373.122, 867.521
374.471, 1035.357
375.821, 862.223
377.169, 768.116
378.518, 653.037
379.866, 611.987
381.215, 516.964
382.563, 440.971
383.910, 399.810
385.258, 352.064
386.605, 349.153
387.952, 303.269
389.299, 363.410
390.646, 349.579
391.992, 421.774
393.339, 496.996
394.685, 697.244
396.031, 852.518
397.376, 872.817
398.722, 1121.142
400.067, 1203.045
401.412, 1360.057
402.757, 1784.291
404.101, 1816.227
405.446, 1949.707
406.790, 1774.121
408.134, 1750.187
409.478, 1644.264
410.821, 1256.897
412.165, 933.572
413.508, 878.281
414.851, 762.024
416.193, 550.798
417.536, 483.599
418.878, 578.426
420.220, 615.276
421.562, 701.149
422.904, 960.043
424.245, 1344.225
425.586, 1421.289
426.927, 1811.597
428.268, 1996.033
429.609, 2079.001
430.949, 2541.883
432.289, 2975.498
433.629, 3076.159
434.969, 3297.916
436.309, 3192.338
437.648, 3475.355
438.987, 3751.042
440.326, 3869.183
441.665, 4209.250
443.003, 4665.024
444.342, 4939.506
445.680, 5505.973
447.018, 5780.715
448.355, 5820.760
449.693, 5970.737
451.030, 5968.020
452.367, 5896.831
453.704, 5335.167
455.041, 4969.045
456.377, 4510.391
457.713, 3797.230
459.049, 3164.265
460.385, 2674.928
461.721, 2145.727
463.056, 1778.417
464.391, 1405.778
465.726, 1189.324
467.061, 887.798
468.395, 710.411
469.730, 665.925
471.064, 406.805
472.398, 551.368
473.731, 387.964
475.065, 407.622
476.398, 328.614
477.731, 440.613
479.064, 444.376
480.397, 457.160
481.729, 435.979
483.062, 567.817
484.394, 591.687
485.725, 685.615
487.057, 858.613
488.389, 902.634
489.720, 956.692
491.051, 1162.826
492.382, 1226.980
493.712, 1335.220
495.043, 1368.477
496.373, 1464.768
497.703, 1551.085
499.032, 1613.748
500.362, 1678.821
501.691, 1790.264
503.020, 1861.743
504.349, 2003.250
505.678, 2080.798
507.007, 2318.389
508.335, 2584.004
509.663, 2720.739
510.991, 3005.514
512.319, 3113.023
513.646, 3624.744
514.973, 3884.514
516.300, 4455.312
517.627, 4990.156
518.954, 5467.021
520.280, 6483.906
521.607, 7224.832
522.933, 8965.779
524.259, 10539.751
525.584, 12754.743
526.910, 15933.761
528.235, 19679.805
529.560, 24853.873
530.885, 30099.959
532.209, 35640.059
533.534, 40793.184
534.858, 42656.324
536.182, 41056.473
537.506, 36589.652
538.829, 30211.844
540.152, 24024.047
541.476, 19026.273
542.799, 14656.520
544.121, 11817.784
545.444, 9430.067
546.766, 7725.367
548.088, 6629.686
549.410, 5507.020
550.732, 4827.367
552.053, 4363.729
553.375, 3717.105
554.696, 3405.498
556.017, 3236.903
557.337, 3012.323
558.658, 2687.756
559.978, 2437.217
561.298, 2513.717
562.618, 2119.303
563.938, 2048.005
565.257, 2088.814
566.576, 1792.715
567.895, 1820.682
569.214, 1706.663
570.533, 1448.658
571.851, 1287.663
573.170, 1310.680
574.488, 1004.708
575.805, 1056.744
577.123, 845.792
578.440, 775.850
579.758, 852.916
581.075, 579.992
582.391, 657.077
583.708, 437.189
585.024, 434.369
586.341, 458.647
587.657, 466.037
588.972, 395.536
590.288, 282.170
591.603, 247.865
592.918, 172.229
594.233, 123.571
595.548, 72.544
596.863, 52.564
598.177, 31.604
599.491, 86.349
600.805, 98.333
602.119, 110.354
603.432, 8.419
604.746, 38.482
606.059, 99.557
607.372, 149.671
608.685, 23.151
609.997, 162.022
611.309, 4.731
612.621, 55.512
613.933, 17.224
615.245, 13.038
616.557, 77.697
617.868, 66.444
619.179, 108.200
620.490, 21.038
621.801, 169.718
623.111, 8.525
624.421, 60.228
625.731, 130.873
627.041, 39.513
628.351, 97.657
629.660, 108.346
630.970, 133.312
632.279, 41.955
633.588, 38.771
634.896, 55.227
636.205, 75.845
637.513, 59.870
638.821, 151.897
640.129, 204.044
641.437, 354.783
642.744, 303.334
644.051, 480.298
645.358, 497.640
646.665, 573.572
647.972, 548.830
649.278, 583.498
650.584, 607.724
651.890, 783.482
653.196, 684.442
654.502, 773.560
655.807, 646.813
657.113, 669.859
658.418, 785.002
659.722, 700.621
661.027, 791.543
662.331, 608.488
663.636, 775.502
664.940, 756.352
666.244, 840.703
667.547, 962.500
668.851, 1021.635
670.154, 1132.254
671.457, 1153.579
672.760, 1268.859
674.062, 1165.761
675.365, 1099.359
676.667, 1072.738
677.969, 758.470
679.271, 707.350
680.572, 541.912
681.874, 554.228
683.175, 508.345
684.476, 389.159
685.777, 397.637
687.077, 298.763
688.378, 454.869
689.678, 402.959
690.978, 514.029
692.278, 251.112
693.577, 610.252
694.877, 483.361
696.176, 750.357
697.475, 513.334
698.774, 776.504
700.072, 824.750
701.371, 969.232
702.669, 1079.758
703.967, 1362.932
705.265, 1619.962
706.562, 1649.800
707.860, 1528.618
709.157, 1579.415
710.454, 1259.190
711.751, 1212.946
713.047, 985.680
714.344, 1002.392
715.640, 867.113
716.936, 606.752
718.232, 692.487
719.527, 608.111
720.823, 548.712
722.118, 653.652
723.413, 622.583
724.708, 574.140
726.002, 619.644
727.297, 498.122
728.591, 591.816
729.885, 651.244
731.179, 478.650
732.472, 429.078
733.766, 354.431
735.059, 324.757
736.352, 370.058
737.645, 233.333
738.937, 408.580
740.230, 265.803
741.522, 233.997
742.814, 294.167
744.106, 325.309
745.397, 404.421
746.689, 409.504
747.980, 473.558
749.271, 440.581
750.562, 690.575
751.853, 579.537
753.143, 749.470
754.433, 816.370
755.723, 660.332
757.013, 915.575
758.303, 846.098
759.592, 837.621
760.881, 730.854
762.170, 755.772
763.459, 792.746
764.748, 603.400
766.036, 811.511
767.325, 555.084
768.613, 767.101
769.901, 667.634
771.188, 479.660
772.476, 612.135
773.763, 353.578
775.050, 506.992
776.337, 247.472
777.624, 254.825
778.910, 257.780
780.196, 169.072
781.482, 40.211
782.768, 25.574
784.054, 37.238
785.339, 60.345
786.625, 125.602
787.910, 32.327
789.195, 14.099
790.479, 72.566
791.764, 35.157
793.048, 24.163
794.332, 41.446
795.616, 7.986
796.900, 112.480
798.183, 151.092
799.467, 75.161
800.750, 23.623
802.033, 172.478
803.316, 160.521
804.598, 204.512
805.880, 136.291
807.163, 9.938
808.445, 26.770
809.726, 15.566
811.008, 28.034
812.289, 94.411
813.570, 6.961
814.851, 106.431
816.132, 29.211
817.413, 30.924
818.693, 110.293
819.973, 11.475
821.253, 30.611
822.533, 73.704
823.813, 136.762
825.092, 63.212
826.371, 24.727
827.650, 50.376
828.929, 127.443
830.208, 176.231
831.486, 34.013
832.764, 83.677
834.042, 120.330
835.320, 40.954
836.598, 54.538
837.875, 11.087
839.152, 25.591
840.429, 288.056
841.706, 243.498
842.983, 227.913
844.259, 223.304
845.536, 194.567
846.812, 176.002
848.088, 178.309
849.363, 217.587
850.639, 250.838
851.914, 24.063
853.189, 125.259
854.464, 82.714
855.739, 74.651
857.013, 126.667
858.288, 155.744
859.562, 206.796
860.836, 275.824
862.110, 278.825
863.383, 240.802
864.656, 203.753
865.930, 250.678
867.203, 231.576
868.475, 262.477
869.748, 222.352
871.020, 169.202
872.292, 192.029
873.564, 213.832
874.836, 101.611
876.108, 97.365
877.379, 180.093
878.650, 335.794
879.922, 247.481
881.192, 127.143
882.463, 249.780
883.733, 182.396
885.004, 169.990
886.274, 217.560
887.544, 205.837
888.813, 192.632
890.083, 242.137
891.352, 309.633
892.621, 285.108
893.890, 294.563
895.159, 174.995
896.427, 238.405
897.695, 353.794
898.964, 244.178
900.232, 310.539
901.499, 303.882
902.767, 428.203
904.034, 428.284
905.301, 384.785
906.568, 432.044
907.835, 464.283
909.102, 367.519
910.368, 321.756
911.634, 459.005
912.900, 413.251
914.166, 570.484
915.432, 472.720
916.697, 340.971
917.962, 595.202
919.227, 585.451
920.492, 785.682
921.757, 706.905
923.021, 910.113
924.285, 1132.304
925.550, 1220.478
926.813, 1476.634
928.077, 1746.771
929.341, 2294.897
930.604, 3022.005
931.867, 3675.102
933.130, 4128.037
934.393, 4212.438
935.655, 3571.377
936.918, 3165.798
938.180, 2380.828
939.442, 1829.858
940.703, 1581.239
941.965, 1119.321
943.226, 755.844
944.488, 838.397
945.749, 859.932
947.009, 683.590
948.270, 569.119
949.530, 619.081
950.791, 500.613
952.051, 559.752
953.311, 526.283
954.570, 577.471
955.830, 601.233
957.089, 608.422
958.348, 637.972
959.607, 690.480
960.866, 713.728
962.124, 808.836
963.383, 957.139
964.641, 964.328
965.899, 1278.055
967.156, 1586.481
968.414, 1999.868
969.671, 2470.168
970.928, 2754.616
972.185, 2702.545
973.442, 2363.012
974.699, 2136.125
975.955, 1617.737
977.211, 1285.153
978.468, 1329.539
979.723, 1090.816
980.979, 979.376
982.234, 1145.144
983.490, 936.551
984.745, 1256.792
986.000, 1165.334
987.254, 1164.107
988.509, 1564.059
989.763, 1343.293
991.017, 1295.847
992.271, 1588.773
993.525, 1474.787
994.779, 1552.438
996.032, 1559.324
997.285, 1558.180
998.538, 1286.962
999.791, 1431.754
1001.044, 1241.638
1002.296, 1322.718
1003.548, 1480.160
1004.800, 1526.782
1006.052, 1873.892
1007.304, 1926.149
1008.555, 2289.099
1009.807, 2807.185
1011.058, 3315.537
1012.309, 4022.488
1013.559, 4720.664
1014.810, 5593.638
1016.060, 6439.631
1017.310, 6966.619
1018.560, 6771.510
1019.810, 6532.498
1021.060, 6097.021
1022.309, 5431.952
1023.558, 4962.242
1024.807, 4556.596
1026.056, 4694.645
1027.305, 4703.660
1028.553, 4710.670
1029.801, 4128.301
1031.049, 3329.379
1032.297, 2798.565
1033.545, 2526.132
1034.793, 2096.256
1036.040, 1936.309
1037.287, 2067.546
1038.534, 2092.046
1039.781, 2402.332
1041.027, 2251.980
1042.274, 2291.057
1043.520, 2191.199
1044.766, 2082.878
1046.012, 1941.131
1047.257, 1694.266
1048.503, 1787.374
1049.748, 1410.517
1050.993, 1528.010
1052.238, 1393.150
1053.483, 1260.587
1054.727, 1199.731
1055.971, 1166.583
1057.216, 1201.012
1058.459, 1234.148
1059.703, 1189.283
1060.947, 1336.309
1062.190, 1439.287
1063.433, 1456.432
1064.676, 1719.748
1065.919, 1672.869
1067.162, 1933.989
1068.404, 1780.106
1069.646, 1790.220
1070.888, 1890.342
1072.130, 1848.933
1073.372, 1685.034
1074.613, 1687.338
1075.855, 1488.868
1077.096, 1305.070
1078.337, 1405.156
1079.578, 1063.253
1080.818, 1087.414
1082.059, 1055.488
1083.299, 1026.560
1084.539, 1038.184
1085.779, 1046.809
1087.018, 1072.066
1088.258, 1123.574
1089.497, 1218.886
1090.736, 1304.031
1091.975, 1401.190
1093.213, 1638.378
1094.452, 1960.754
1095.690, 1998.112
1096.928, 2302.497
1098.166, 2428.065
1099.404, 2658.322
1100.642, 2444.836
1101.879, 2540.525
1103.116, 2410.842
1104.353, 2325.788
1105.590, 1993.337
1106.827, 2100.212
1108.063, 1656.637
1109.299, 1592.245
1110.536, 1512.343
1111.771, 1207.791
1113.007, 1187.713
1114.243, 1005.208
1115.478, 935.577
1116.713, 736.375
1117.948, 628.146
1119.183, 502.177
1120.418, 618.233
1121.652, 691.125
1122.886, 585.452
1124.120, 634.417
1125.354, 343.566
1126.588, 500.445
1127.821, 184.299
1129.055, 211.294
1130.288, 331.393
1131.521, 256.497
1132.753, 157.758
1133.986, 104.319
1135.218, 255.397
1136.450, 47.463
1137.682, 299.160
1138.914, 41.321
1140.146, 40.854
1141.377, 9.079
1142.609, 30.768
1143.840, 59.351
1145.071, 147.502
1146.301, 125.887
1147.532, 93.716
1148.762, 71.316
1149.992, 1.978
1151.222, 58.425
1152.452, 37.345
1153.682, 28.927
1154.911, 127.822
1156.140, 7.838
1157.369, 6.459
1158.598, 11.607
1159.827, 134.189
1161.055, 23.417
1162.284, 139.999
1163.512, 125.931
1164.740, 110.117
1165.967, 114.935
1167.195, 191.497
1168.422, 5.649
1169.650, 161.504
1170.877, 31.202
1172.103, 16.434
1173.330, 7.809
1174.557, 17.820
1175.783, 118.533
1177.009, 30.366
1178.235, 112.558
1179.461, 37.733
1180.686, 4.617
1181.912, 110.617
1183.137, 181.278
1184.362, 95.068
1185.587, 39.677
1186.811, 91.925
1188.036, 53.977
1189.260, 18.972
1190.484, 128.825
1191.708, 166.020
1192.932, 108.969
1194.155, 138.336
1195.378, 56.490
1196.602, 160.576
1197.825, 61.421
1199.047, 214.427
1200.270, 78.201
1201.492, 271.925
1202.715, 183.361
1203.937, 233.775
1205.159, 308.608
1206.380, 183.980
1207.602, 17.669
1208.823, 32.358
1210.044, 149.981
1211.265, 109.707
1212.486, 168.925
1213.707, 203.196
1214.927, 183.645
1216.147, 171.803
1217.367, 155.939
1218.587, 44.055
1219.807, 167.144
1221.027, 112.211
1222.246, 58.256
1223.465, 136.275
1224.684, 296.272
1225.903, 161.403
1227.121, 3.359
1228.340, 219.283
1229.558, 242.188
1230.776, 65.097
1231.994, 74.969
1233.212, 238.825
1234.429, 239.790
1235.646, 244.617
1236.864, 274.428
1238.081, 218.582
1239.297, 200.997
1240.514, 128.756
1241.730, 137.494
1242.947, 132.214
1244.163, 91.896
1245.378, 269.517
1246.594, 127.096
1247.810, 85.651
1249.025, 321.184
1250.240, 50.690
1251.455, 136.170
1252.670, 73.625
1253.885, 222.036
1255.099, 140.419
1256.313, 42.228
1257.527, 198.082
1258.741, 70.366
1259.955, 94.381
1261.168, 44.023
1262.382, 110.117
1263.595, 120.232
1264.808, 65.319
1266.021, 62.355
1267.233, 95.338
1268.446, 34.219
1269.658, 77.252
1270.870, 51.791
1272.082, 101.486
1273.294, 107.150
1274.505, 77.770
1275.716, 14.334
1276.928, 3.189
1278.139, 44.219
1279.349, 28.564
1280.560, 63.963
1281.770, 64.729
1282.981, 141.264
1284.191, 52.414
1285.401, 108.508
1286.610, 76.520
1287.820, 48.395
1289.029, 49.906
1290.239, 45.525
1291.448, 32.422
1292.656, 84.281
1293.865, 136.105
1295.073, 118.092
1296.282, 129.809
1297.490, 81.400
1298.698, 88.039
1299.906, 18.898
1301.113, 9.488
1302.320, 26.271
1303.528, 58.896
1304.735, 129.068
1305.942, 8.670
1307.148, 14.531
1308.355, 36.229
1309.561, 223.016
1310.767, 40.225
1311.973, 95.498
1313.179, 87.369
1314.384, 152.193
1315.590, 44.221
1316.795, 123.938
1318.000, 1.451
1319.205, 11.934
1320.410, 36.559
1321.614, 109.633
1322.819, 168.547
1324.023, 32.758
1325.227, 206.555
1326.431, 132.689
1327.634, 41.766
1328.838, 25.770
1330.041, 25.863
1331.244, 58.213
1332.447, 15.475
1333.650, 100.342
1334.852, 1.775
1336.055, 45.518
1337.257, 81.816
1338.459, 28.965
1339.661, 8.799
1340.862, 6.625
1342.064, 71.609
1343.265, 41.408
1344.466, 10.531
1345.667, 81.334
1346.868, 254.406
1348.068, 171.463
1349.269, 45.498
1350.469, 476.518
1351.669, 209.518
1352.869, 289.615
1354.069, 116.744
1355.268, 33.693
1356.468, 182.459
1357.667, 92.396
1358.866, 91.344
1360.065, 240.289
1361.263, 219.242
1362.462, 278.188
1363.660, 327.674
1364.858, 170.662
1366.056, 158.393
1367.254, 332.910
1368.451, 153.777
1369.649, 86.783
1370.846, 243.834
1372.043, 230.916
1373.240, 239.258
1374.436, 116.621
1375.633, 144.975
1376.829, 196.684
1378.025, 92.354
1379.221, 361.785
1380.417, 144.021
1381.613, 220.191
1382.808, 343.055
1384.003, 304.887
1385.199, 400.609
1386.393, 372.439
1387.588, 316.918
1388.783, 280.627
1389.977, 284.844
1391.171, 215.939
1392.365, 235.814
1393.559, 246.219
1394.753, 231.865
1395.946, 199.701
1397.140, 214.439
1398.333, 293.934
1399.526, 245.143
1400.719, 333.609
1401.911, 229.109
1403.104, 210.832
1404.296, 52.078
1405.488, 292.615
1406.680, 150.254
1407.872, 127.453
1409.063, 381.730
1410.255, 288.578
1411.446, 331.156
1412.637, 230.801
1413.828, 298.375
1415.018, 179.611
1416.209, 296.078
1417.399, 134.836
1418.589, 460.723
1419.779, 98.453
1420.969, 241.145
1422.159, 159.600
1423.348, 165.100
1424.537, 269.006
1425.726, 200.891
1426.915, 251.150
1428.104, 229.297
1429.293, 139.736
1430.481, 279.117
1431.669, 167.961
1432.857, 266.438
1434.045, 188.607
1435.233, 242.182
1436.420, 271.066
1437.608, 320.334
1438.795, 301.307
1439.982, 281.217
1441.169, 217.059
1442.355, 334.842
1443.542, 417.242
1444.728, 254.873
1445.914, 480.338
1447.100, 410.443
1448.286, 446.645
1449.472, 247.699
1450.657, 572.613
1451.842, 375.418
1453.027, 431.340
1454.212, 652.188
1455.397, 333.924
1456.581, 569.576
1457.766, 537.178
1458.950, 367.656
1460.134, 478.596
1461.318, 315.834
1462.501, 390.990
1463.685, 497.396
1464.868, 212.150
1466.051, 503.068
1467.234, 273.037
1468.417, 227.395
1469.600, 329.053
1470.782, 355.889
1471.965, 348.990
1473.147, 338.996
1474.329, 341.205
1475.510, 200.424
1476.692, 164.686
1477.873, 289.973
1479.055, 103.285
1480.236, 513.646
1481.416, 111.070
1482.597, 290.586
1483.778, 302.225
1484.958, 196.998
1486.138, 146.936
1487.318, 179.721
1488.498, 188.471
1489.678, 293.164
1490.857, 122.145
1492.037, 268.418
1493.216, 156.969
1494.395, 207.799
1495.574, 219.932
1496.752, 129.412
1497.931, 278.303
1499.109, 36.326
1500.287, 31.607
1501.465, 30.184
1502.643, 19.492
1503.820, 143.629
1504.998, 112.734
1506.175, 102.020
1507.352, 156.619
1508.529, 65.877
1509.706, 54.004
1510.882, 194.553
1512.059, 206.973
1513.235, 289.699
1514.411, 0.000
##END=



