##NAMES=Scolecite
##RRUFFID=R050083
##IDEAL CHEMISTRY=Ca(Si_3_Al_2_)O_10_&#183;3H_2_O
##LOCALITY=near Ahmednagar, Maharashtra, India
##OWNER=RRUFF
##SOURCE=Rock Currier
##DESCRIPTION=Colorless acicular single crystals associated with fluorapophyllite
##STATUS=The identification of this mineral has been confirmed by X-ray diffraction and chemical analysis
##URL=rruff.info/R050083
##MEASURED CHEMISTRY=(Ca_.992_Na_.008_)[Al_2_Si_3_O_10_]Â·3H_2_O
##PIN_ID=M00346
##ORIENTATION=Laser parallel to b* (0 1 0). Fiducial mark perpendicular to laser is parallel to c [0 0 1]
89.863, 0.000
91.262, 5.312
92.661, 72.518
94.059, 112.643
95.458, 374.065
96.856, 537.712
98.254, 745.865
99.652, 875.181
101.049, 885.532
102.446, 1029.847
103.843, 1185.652
105.240, 1421.619
106.637, 1835.436
108.033, 2656.812
109.429, 3544.568
110.825, 4886.859
112.220, 5712.163
113.616, 5253.876
115.011, 4085.532
116.406, 2760.102
117.800, 1791.541
119.195, 990.756
120.589, 551.581
121.983, 357.887
123.377, 256.572
124.770, 399.554
126.163, 398.772
127.556, 511.172
128.949, 500.573
130.342, 366.099
131.734, 287.323
133.126, 81.264
134.518, 37.597
135.909, 103.228
137.301, 12.805
138.692, 152.285
140.083, 411.030
141.473, 770.462
142.864, 1020.898
144.254, 1129.445
145.644, 861.469
147.034, 634.110
148.423, 468.391
149.812, 441.339
151.201, 576.980
152.590, 864.338
153.979, 1372.432
155.367, 2057.279
156.755, 2909.896
158.143, 3626.297
159.530, 3939.495
160.918, 3985.502
162.305, 3457.328
163.692, 3056.984
165.078, 2504.477
166.465, 2103.970
167.851, 1656.588
169.237, 1301.130
170.623, 1030.141
172.008, 835.077
173.393, 740.939
174.778, 744.740
176.163, 897.517
177.548, 1020.288
178.932, 1311.107
180.316, 1826.838
181.700, 2214.772
183.083, 2626.760
184.467, 2591.009
185.850, 2482.805
187.233, 2124.645
188.616, 1697.526
189.998, 1439.446
191.380, 1051.404
192.762, 850.399
194.144, 540.914
195.525, 441.131
196.907, 350.101
198.288, 318.855
199.669, 381.917
201.049, 371.400
202.429, 485.382
203.810, 558.405
205.189, 653.467
206.569, 661.566
207.949, 536.699
209.328, 459.864
210.707, 333.059
212.085, 190.278
213.464, 117.514
214.842, 109.763
216.220, 221.026
217.598, 347.301
218.976, 664.582
220.353, 981.867
221.730, 1497.155
223.107, 1922.446
224.483, 2196.741
225.860, 2262.037
227.236, 1838.332
228.612, 1626.619
229.988, 1256.901
231.363, 1189.177
232.738, 1015.447
234.113, 846.711
235.488, 749.970
236.863, 481.223
238.237, 318.471
239.611, 83.714
240.985, 7.048
242.359, 101.776
243.732, 157.491
245.105, 149.106
246.478, 173.051
247.851, 40.837
249.223, 66.303
250.595, 210.240
251.967, 469.986
253.339, 702.713
254.711, 1142.444
256.082, 1356.312
257.453, 1385.493
258.824, 1190.357
260.195, 898.568
261.565, 494.041
262.935, 248.717
264.305, 111.555
265.675, 48.475
267.044, 114.422
268.414, 83.332
269.783, 66.209
271.151, 31.059
272.520, 18.136
273.888, 67.317
275.256, 6.550
276.624, 41.797
277.992, 47.040
279.359, 147.216
280.726, 321.406
282.093, 428.606
283.460, 616.812
284.827, 625.021
286.193, 562.229
287.559, 657.435
288.925, 558.635
290.290, 558.829
291.656, 440.015
293.021, 343.192
294.386, 193.352
295.750, 106.484
297.115, 52.590
298.479, 31.333
299.843, 36.819
301.207, 109.230
302.570, 97.455
303.933, 78.618
305.296, 110.833
306.659, 51.112
308.022, 30.441
309.384, 82.185
310.746, 156.784
312.108, 202.362
313.470, 304.916
314.831, 330.454
316.193, 448.975
317.554, 494.477
318.914, 503.966
320.275, 526.429
321.635, 525.868
322.995, 531.282
324.355, 456.674
325.715, 469.044
327.074, 427.392
328.434, 432.719
329.792, 401.026
331.151, 343.201
332.510, 301.139
333.868, 269.899
335.226, 264.650
336.584, 247.392
337.941, 271.125
339.299, 296.851
340.656, 355.567
342.013, 414.277
343.370, 398.853
344.726, 391.307
346.082, 462.688
347.438, 411.043
348.794, 449.381
350.150, 433.715
351.505, 422.045
352.860, 390.371
354.215, 368.693
355.570, 385.010
356.924, 314.323
358.278, 377.624
359.632, 358.842
360.986, 408.926
362.339, 413.883
363.693, 371.760
365.046, 364.633
366.399, 295.506
367.751, 233.379
369.104, 221.252
370.456, 247.124
371.808, 269.995
373.159, 244.864
374.511, 258.733
375.862, 258.600
377.213, 250.467
378.564, 263.331
379.914, 218.194
381.265, 238.056
382.615, 177.916
383.965, 191.774
385.315, 167.631
386.664, 146.486
388.013, 163.339
389.362, 148.190
390.711, 136.040
392.060, 171.888
393.408, 131.733
394.756, 237.577
396.104, 236.420
397.451, 352.260
398.799, 420.099
400.146, 532.937
401.493, 677.773
402.840, 794.607
404.186, 1083.566
405.533, 1215.589
406.879, 1316.125
408.225, 1348.197
409.570, 1226.777
410.916, 1121.665
412.261, 864.491
413.606, 733.318
414.951, 546.146
416.295, 466.977
417.639, 397.808
418.983, 358.643
420.327, 397.478
421.671, 358.311
423.014, 446.140
424.357, 522.963
425.700, 686.781
427.043, 876.590
428.386, 1075.430
429.728, 1280.051
431.070, 1591.093
432.412, 1893.160
433.753, 2239.386
435.095, 2558.375
436.436, 2874.076
437.777, 2734.510
439.118, 2778.475
440.458, 2711.563
441.798, 2384.282
443.138, 2428.993
444.478, 2176.696
445.818, 2105.390
447.157, 2140.076
448.496, 2082.752
449.835, 2079.422
451.174, 1875.082
452.513, 1920.734
453.851, 1755.377
455.189, 1629.012
456.527, 1557.638
457.864, 1348.256
459.202, 1265.977
460.539, 1091.681
461.876, 996.844
463.212, 891.451
464.549, 678.766
465.885, 656.046
467.221, 527.060
468.557, 482.795
469.893, 419.800
471.228, 342.094
472.563, 317.453
473.898, 234.786
475.233, 268.673
476.567, 271.772
477.902, 246.518
479.236, 232.048
480.570, 270.650
481.903, 301.337
483.237, 284.927
484.570, 313.550
485.903, 358.110
487.235, 354.683
488.568, 444.271
489.900, 452.856
491.232, 489.449
492.564, 536.041
493.896, 517.641
495.227, 598.245
496.558, 527.847
497.889, 586.447
499.220, 573.052
500.551, 520.658
501.881, 550.270
503.211, 507.884
504.541, 578.506
505.870, 552.132
507.200, 565.758
508.529, 606.386
509.858, 649.013
511.187, 794.644
512.515, 807.275
513.844, 924.911
515.172, 1086.547
516.500, 1157.181
517.827, 1408.818
519.155, 1506.454
520.482, 1836.089
521.809, 2142.727
523.136, 2442.365
524.462, 2984.011
525.789, 3528.657
527.115, 4475.307
528.441, 5413.959
529.766, 6781.610
531.092, 9251.263
532.417, 10731.916
533.742, 13812.569
535.067, 15523.224
536.391, 17093.879
537.716, 17054.539
539.040, 14695.191
540.364, 12625.847
541.688, 9716.509
543.011, 7533.165
544.334, 6005.824
545.657, 4514.484
546.980, 3709.143
548.303, 2931.802
549.625, 2375.461
550.947, 2069.085
552.269, 1714.745
553.591, 1520.353
554.913, 1229.012
556.234, 1117.672
557.555, 982.332
558.876, 823.992
560.197, 834.652
561.517, 686.312
562.837, 640.972
564.157, 568.645
565.477, 518.356
566.797, 457.121
568.116, 402.935
569.435, 428.806
570.754, 372.699
572.073, 375.592
573.391, 354.485
574.709, 321.376
576.027, 332.268
577.345, 269.159
578.663, 257.049
579.980, 242.939
581.297, 198.829
582.614, 223.717
583.931, 210.605
585.248, 200.493
586.564, 224.380
587.880, 150.290
589.196, 202.241
590.511, 155.225
591.827, 190.238
593.142, 212.270
594.457, 149.318
595.772, 157.366
597.086, 158.424
598.401, 211.485
599.715, 146.549
601.029, 129.610
602.343, 130.671
603.656, 97.730
604.969, 128.788
606.282, 102.845
607.595, 126.900
608.908, 141.953
610.220, 112.005
611.532, 64.056
612.844, 70.105
614.156, 58.153
615.468, 53.199
616.779, 3.244
618.090, 13.709
619.401, 7.644
620.712, 26.558
622.022, 26.334
623.332, 55.085
624.642, 35.575
625.952, 35.000
627.262, 50.749
628.571, 39.750
629.880, 50.797
631.189, 34.299
632.498, 58.931
633.807, 46.124
635.115, 38.946
636.423, 51.166
637.731, 17.238
639.039, 0.642
640.346, 22.879
641.653, 17.867
642.960, 35.154
644.267, 75.283
645.574, 70.356
646.880, 73.637
648.186, 119.651
649.492, 115.476
650.798, 162.129
652.103, 140.537
653.409, 208.828
654.714, 268.951
656.019, 252.580
657.323, 246.595
658.628, 286.313
659.932, 313.293
661.236, 383.794
662.540, 424.806
663.843, 476.036
665.147, 541.581
666.450, 537.693
667.753, 639.904
669.056, 712.920
670.358, 750.298
671.660, 763.389
672.963, 788.438
674.264, 845.942
675.566, 723.998
676.868, 749.021
678.169, 631.346
679.470, 547.393
680.771, 512.962
682.071, 390.920
683.372, 360.225
684.672, 276.241
685.972, 270.239
687.271, 256.119
688.571, 191.128
689.870, 253.945
691.169, 143.976
692.468, 170.874
693.767, 199.863
695.065, 179.827
696.364, 205.760
697.662, 223.766
698.960, 157.593
700.257, 270.456
701.555, 254.223
702.852, 372.979
704.149, 408.811
705.446, 450.637
706.742, 509.525
708.038, 516.333
709.335, 576.152
710.631, 550.859
711.926, 539.572
713.222, 661.455
714.517, 527.009
715.812, 481.974
717.107, 356.653
718.402, 409.410
719.696, 384.145
720.990, 378.793
722.284, 330.445
723.578, 351.077
724.872, 357.755
726.165, 354.440
727.458, 317.214
728.751, 329.877
730.044, 345.465
731.336, 387.211
732.629, 376.684
733.921, 401.487
735.213, 365.150
736.504, 309.840
737.796, 288.516
739.087, 281.177
740.378, 247.791
741.669, 252.906
742.960, 218.894
744.250, 260.381
745.540, 246.859
746.830, 258.327
748.120, 288.785
749.410, 305.233
750.699, 277.671
751.988, 377.099
753.277, 349.516
754.566, 403.923
755.854, 429.320
757.143, 469.706
758.431, 469.082
759.719, 391.447
761.006, 423.802
762.294, 380.146
763.581, 347.479
764.868, 313.802
766.155, 287.114
767.442, 271.416
768.728, 236.964
770.014, 162.987
771.300, 177.257
772.586, 131.466
773.872, 96.287
775.157, 128.284
776.442, 57.363
777.727, 73.431
779.012, 24.670
780.297, 0.896
781.581, 70.515
782.865, 15.910
784.149, 31.964
785.433, 20.298
786.716, 23.641
787.999, 3.412
789.282, 36.050
790.565, 0.812
791.848, 5.869
793.130, 5.838
794.413, 24.298
795.695, 20.362
796.977, 10.516
798.258, 54.560
799.540, 69.681
800.821, 10.143
802.102, 37.045
803.382, 2.270
804.663, 31.514
805.943, 11.791
807.224, 7.909
808.504, 29.595
809.783, 15.730
811.063, 6.080
812.342, 17.451
813.621, 5.847
814.900, 30.263
816.179, 6.712
817.457, 7.820
818.736, 0.338
820.014, 19.840
821.292, 10.670
822.569, 39.799
823.847, 13.744
825.124, 18.690
826.401, 27.113
827.678, 0.476
828.954, 21.919
830.231, 28.303
831.507, 1.675
832.783, 19.033
834.059, 18.620
835.334, 36.701
836.610, 1.012
837.885, 19.308
839.160, 21.593
840.435, 47.866
841.709, 15.130
842.983, 76.382
844.258, 8.624
845.532, 35.855
846.805, 12.076
848.079, 16.285
849.352, 21.483
850.625, 5.671
851.898, 42.847
853.171, 32.013
854.443, 53.169
855.715, 53.317
856.988, 33.455
858.259, 32.583
859.531, 15.701
860.803, 32.808
862.074, 27.906
863.345, 65.994
864.616, 49.073
865.886, 6.144
867.157, 29.206
868.427, 35.258
869.697, 48.300
870.967, 27.334
872.236, 30.358
873.506, 49.373
874.775, 45.380
876.044, 62.378
877.313, 34.368
878.581, 30.348
879.849, 6.320
881.118, 30.282
882.386, 46.235
883.653, 5.179
884.921, 35.114
886.188, 19.045
887.455, 16.967
888.722, 7.880
889.989, 8.783
891.255, 9.474
892.522, 18.012
893.788, 17.439
895.054, 43.307
896.319, 52.169
897.585, 64.023
898.850, 57.870
900.115, 64.710
901.380, 46.543
902.645, 46.369
903.909, 49.187
905.174, 64.998
906.438, 37.802
907.701, 45.598
908.965, 54.388
910.229, 53.170
911.492, 64.946
912.755, 50.714
914.018, 81.475
915.280, 107.230
916.543, 87.978
917.805, 125.720
919.067, 128.454
920.329, 152.183
921.590, 135.904
922.852, 162.620
924.113, 269.329
925.374, 223.032
926.635, 353.731
927.895, 410.426
929.156, 425.979
930.416, 538.603
931.676, 609.948
932.936, 669.257
934.195, 710.905
935.454, 578.164
936.714, 579.675
937.973, 458.108
939.231, 361.590
940.490, 354.612
941.748, 250.243
943.006, 225.255
944.264, 200.622
945.522, 229.982
946.780, 211.500
948.037, 211.262
949.294, 289.716
950.551, 239.327
951.808, 243.985
953.064, 273.429
954.320, 194.132
955.577, 140.018
956.832, 186.073
958.088, 114.366
959.344, 132.769
960.599, 75.334
961.854, 78.386
963.109, 59.046
964.364, 63.995
965.618, 65.676
966.872, 53.828
968.127, 80.463
969.380, 50.874
970.634, 126.963
971.888, 128.477
973.141, 152.886
974.394, 134.484
975.647, 145.713
976.900, 165.223
978.152, 170.768
979.404, 283.852
980.656, 310.376
981.908, 444.927
983.160, 461.169
984.411, 735.683
985.663, 854.668
986.914, 877.258
988.165, 853.494
989.415, 795.013
990.666, 620.543
991.916, 544.184
993.166, 420.690
994.416, 433.381
995.665, 379.852
996.915, 363.449
998.164, 427.951
999.413, 409.473
1000.662, 444.025
1001.911, 534.505
1003.159, 529.159
1004.407, 596.772
1005.655, 719.636
1006.903, 761.343
1008.151, 885.970
1009.398, 867.596
1010.646, 845.159
1011.893, 789.796
1013.139, 649.416
1014.386, 658.143
1015.633, 574.200
1016.879, 487.904
1018.125, 558.555
1019.371, 432.234
1020.616, 459.975
1021.862, 476.631
1023.107, 419.407
1024.352, 464.161
1025.597, 457.905
1026.842, 459.666
1028.086, 515.373
1029.330, 465.067
1030.574, 583.666
1031.818, 684.367
1033.062, 711.136
1034.305, 877.741
1035.548, 783.442
1036.791, 800.112
1038.034, 882.777
1039.277, 800.408
1040.519, 928.051
1041.762, 1016.702
1043.004, 1207.392
1044.246, 1539.085
1045.487, 1643.274
1046.729, 1737.388
1047.970, 1770.472
1049.211, 1670.963
1050.452, 1569.765
1051.692, 1268.591
1052.933, 954.405
1054.173, 867.222
1055.413, 635.042
1056.653, 596.865
1057.893, 490.695
1059.132, 462.527
1060.371, 437.362
1061.610, 325.204
1062.849, 339.051
1064.088, 322.900
1065.326, 270.751
1066.565, 295.605
1067.803, 231.461
1069.041, 203.319
1070.278, 298.179
1071.516, 173.063
1072.753, 237.928
1073.990, 231.796
1075.227, 236.666
1076.464, 261.539
1077.700, 251.415
1078.936, 246.625
1080.173, 206.507
1081.408, 187.399
1082.644, 252.299
1083.880, 258.202
1085.115, 284.147
1086.350, 341.061
1087.585, 359.005
1088.820, 386.927
1090.054, 435.853
1091.288, 433.808
1092.522, 602.757
1093.756, 589.710
1094.990, 678.667
1096.224, 818.841
1097.457, 802.847
1098.690, 851.761
1099.923, 901.763
1101.156, 856.790
1102.388, 851.819
1103.621, 727.864
1104.853, 704.991
1106.085, 652.055
1107.316, 469.128
1108.548, 450.359
1109.779, 405.438
1111.010, 303.526
1112.241, 332.625
1113.472, 280.731
1114.703, 207.917
1115.933, 245.043
1117.163, 149.176
1118.393, 195.393
1119.623, 161.535
1120.853, 124.691
1122.082, 180.933
1123.311, 103.087
1124.540, 125.317
1125.769, 120.482
1126.997, 116.650
1128.226, 147.823
1129.454, 111.998
1130.682, 54.175
1131.910, 80.395
1133.138, 46.639
1134.365, 99.932
1135.592, 71.157
1136.819, 20.356
1138.046, 73.558
1139.273, 69.761
1140.499, 64.967
1141.725, 71.175
1142.951, 68.878
1144.177, 44.649
1145.403, 57.591
1146.628, 73.808
1147.854, 37.524
1149.079, 41.697
1150.304, 24.919
1151.528, 13.882
1152.753, 10.820
1153.977, 6.531
1155.201, 1.810
1156.425, 13.036
1157.649, 23.307
1158.872, 22.889
1160.096, 27.142
1161.319, 15.054
1162.542, 16.715
1163.764, 10.315
1164.987, 59.859
1166.209, 4.130
1167.431, 10.080
1168.653, 33.389
1169.875, 7.028
1171.097, 65.302
1172.318, 41.029
1173.539, 20.780
1174.760, 5.149
1175.981, 16.501
1177.202, 70.988
1178.422, 20.220
1179.642, 22.452
1180.862, 78.992
1182.082, 27.775
1183.302, 25.448
1184.521, 32.780
1185.740, 7.076
1186.959, 44.575
1188.178, 25.893
1189.397, 47.117
1190.615, 22.786
1191.834, 13.989
1193.052, 50.330
1194.269, 18.563
1195.487, 11.127
1196.705, 97.157
1197.922, 0.556
1199.139, 31.656
1200.356, 31.102
1201.573, 24.515
1202.789, 18.728
1204.006, 34.391
1205.222, 26.602
1206.438, 24.264
1207.653, 33.459
1208.869, 20.211
1210.084, 36.416
1211.299, 48.685
1212.514, 31.887
1213.729, 55.145
1214.944, 35.353
1216.158, 81.551
1217.372, 4.746
1218.586, 34.026
1219.800, 56.277
1221.014, 25.549
1222.227, 39.845
1223.440, 78.095
1224.654, 7.620
1225.866, 70.596
1227.079, 17.182
1228.292, 36.408
1229.504, 21.580
1230.716, 6.829
1231.928, 20.806
1233.139, 10.598
1234.351, 24.253
1235.562, 30.412
1236.773, 15.657
1237.984, 63.081
1239.195, 26.234
1240.406, 46.469
1241.616, 2.383
1242.826, 14.762
1244.036, 15.092
1245.246, 54.043
1246.456, 31.187
1247.665, 49.320
1248.874, 89.453
1250.083, 16.416
1251.292, 69.709
1252.501, 37.855
1253.709, 0.106
1254.917, 67.226
1256.125, 37.345
1257.333, 25.673
1258.541, 39.789
1259.748, 9.903
1260.956, 41.046
1262.163, 46.157
1263.370, 9.265
1264.576, 83.505
1265.783, 26.597
1266.989, 8.725
1268.195, 71.799
1269.401, 14.868
1270.607, 43.929
1271.813, 102.986
1273.018, 38.036
1274.223, 43.071
1275.428, 52.094
1276.633, 24.154
1277.838, 19.165
1279.042, 10.168
1280.246, 27.247
1281.450, 53.241
1282.654, 50.282
1283.858, 36.371
1285.061, 54.344
1286.265, 43.317
1287.468, 24.355
1288.671, 58.313
1289.873, 4.734
1291.076, 49.410
1292.278, 16.664
1293.480, 23.760
1294.682, 45.132
1295.884, 3.995
1297.086, 19.934
1298.287, 9.635
1299.488, 27.490
1300.689, 73.426
1301.890, 12.730
1303.091, 21.102
1304.291, 35.928
1305.491, 2.263
1306.691, 47.556
1307.891, 8.004
1309.091, 38.378
1310.290, 32.569
1311.490, 2.677
1312.689, 24.099
1313.888, 3.923
1315.086, 19.551
1316.285, 1.276
1317.483, 0.993
1318.681, 12.700
1319.879, 15.434
1321.077, 7.125
1322.275, 56.807
1323.472, 63.481
1324.669, 6.147
1325.866, 62.805
1327.063, 60.489
1328.260, 19.133
1329.456, 27.770
1330.653, 10.600
1331.849, 23.017
1333.045, 46.624
1334.240, 3.224
1335.436, 45.815
1336.631, 22.001
1337.826, 42.575
1339.021, 24.143
1340.216, 29.406
1341.411, 23.042
1342.605, 63.482
1343.799, 10.167
1344.993, 11.689
1346.187, 96.201
1347.381, 12.293
1348.574, 91.198
1349.767, 18.683
1350.961, 9.840
1352.153, 2.625
1353.346, 65.082
1354.539, 33.532
1355.731, 48.977
1356.923, 35.517
1358.115, 47.182
1359.307, 52.791
1360.498, 52.600
1361.690, 29.294
1362.881, 35.745
1364.072, 30.255
1365.263, 24.267
1366.453, 34.888
1367.644, 25.959
1368.834, 40.962
1370.024, 10.713
1371.214, 37.593
1372.404, 86.889
1373.593, 31.180
1374.783, 0.426
1375.972, 67.700
1377.161, 14.124
1378.349, 54.393
1379.538, 29.701
1380.726, 11.741
1381.915, 63.627
1383.103, 31.298
1384.290, 87.188
1385.478, 59.046
1386.665, 63.897
1387.853, 64.608
1389.040, 49.272
1390.227, 81.092
1391.413, 61.900
1392.600, 89.625
1393.786, 67.331
1394.972, 48.105
1396.158, 24.785
1397.344, 74.481
1398.530, 66.246
1399.715, 18.004
1400.900, 70.639
1402.085, 123.229
1403.270, 47.964
1404.455, 112.691
1405.639, 56.348
1406.824, 26.167
1408.008, 132.008
1409.192, 41.235
1410.375, 92.845
1411.559, 117.237
1412.742, 66.154
1413.925, 79.603
1415.108, 105.284
1416.291, 46.694
1417.474, 83.182
1418.656, 37.092
1419.839, 96.753
1421.021, 86.301
1422.202, 27.219
1423.384, 52.655
1424.566, 77.638
1425.747, 15.909
1426.928, 52.329
1428.109, 44.576
1429.290, 27.277
1430.470, 113.470
1431.651, 89.580
1432.831, 8.653
1434.011, 58.255
1435.191, 78.170
1436.370, 53.190
1437.550, 91.311
1438.729, 23.371
1439.908, 106.430
1441.087, 49.562
1442.266, 17.547
1443.444, 98.418
1444.623, 78.219
1445.801, 40.063
1446.979, 83.403
1448.157, 31.289
1449.334, 49.917
1450.512, 83.489
1451.689, 3.743
1452.866, 51.509
1454.043, 26.429
1455.220, 13.325
1456.396, 71.179
1457.573, 39.017
1458.749, 75.771
1459.925, 74.242
1461.100, 23.472
1462.276, 51.140
1463.451, 82.688
1464.627, 65.935
1465.802, 83.421
1466.977, 60.030
1468.151, 48.635
1469.326, 99.252
1470.500, 106.803
1471.674, 39.466
1472.848, 107.881
1474.022, 56.033
1475.195, 46.637
1476.369, 80.000
1477.542, 54.926
1478.715, 78.565
1479.888, 39.254
1481.061, 63.745
1482.233, 76.112
1483.405, 64.764
1484.577, 15.558
1485.749, 107.094
1486.921, 45.089
1488.093, 63.692
1489.264, 112.035
1490.435, 97.721
1491.606, 66.250
1492.777, 71.953
1493.948, 65.681
1495.118, 93.419
1496.288, 54.167
1497.459, 84.927
1498.628, 118.726
1499.798, 14.574
1500.968, 20.459
1502.137, 115.382
1503.306, 53.724
1504.475, 85.665
1505.644, 75.230
1506.813, 66.587
1507.981, 83.877
1509.149, 39.066
1510.318, 21.112
1511.485, 80.859
1512.653, 24.832
1513.821, 28.290
1514.988, 82.736
1516.155, 36.231
1517.322, 0.744
1518.489, 34.634
1519.656, 0.233
1520.822, 0.000
##END=



