##NAMES=Scolecite
##RRUFFID=R040111
##IDEAL CHEMISTRY=Ca(Si_3_Al_2_)O_10_&#183;3H_2_O
##LOCALITY=Bombay-Poona area, Mahahashtra Province, India
##OWNER=RRUFF
##SOURCE=National Museums of Canada
##DESCRIPTION=Pale pink prismatic crystals in parallel or near parallel aggregates
##STATUS=The identification of this mineral has been confirmed by X-ray diffraction and chemical analysis
##URL=rruff.info/R040111
##MEASURED CHEMISTRY=Ca_0.98_(Si_3.05_Al_1.95_)O_10_Â·3H_2_O
##PIN_ID=L00237
##ORIENTATION=Laser parallel to a* (1 0 0). Fiducial mark perpendicular to laser is parallel to b [0 1 0]
79.427, 0.000
80.823, 11.438
82.218, 114.672
83.614, 219.720
85.009, 411.917
86.404, 633.803
87.798, 922.479
89.193, 1307.404
90.587, 1500.455
91.981, 1797.938
93.375, 1888.131
94.768, 1869.965
96.161, 1861.889
97.554, 1995.698
98.947, 1995.355
100.340, 2196.969
101.732, 2559.775
103.124, 2951.123
104.516, 3600.607
105.908, 4590.787
107.300, 5533.197
108.691, 6785.631
110.082, 6678.889
111.473, 6012.839
112.864, 4978.390
114.254, 4779.312
115.644, 4538.284
117.034, 3048.030
118.424, 1494.312
119.813, 709.960
121.203, 364.922
122.592, 355.906
123.981, 549.746
125.369, 430.421
126.758, 633.377
128.146, 847.988
129.534, 1288.783
130.922, 1226.924
132.309, 1661.373
133.696, 2342.112
135.083, 3484.482
136.470, 4982.830
137.857, 7176.574
139.243, 8900.683
140.630, 9411.938
142.016, 8376.723
143.401, 7123.134
144.787, 5812.787
146.172, 4926.158
147.557, 4587.609
148.942, 4873.729
150.327, 5756.457
151.711, 7103.816
153.096, 8921.826
154.480, 9909.509
155.863, 10486.879
157.247, 9970.948
158.630, 8553.735
160.013, 7015.107
161.396, 5388.139
162.779, 4237.482
164.161, 3273.858
165.544, 2826.916
166.926, 2431.742
168.308, 2092.398
169.689, 1925.929
171.070, 2051.455
172.452, 2006.064
173.833, 2109.662
175.213, 2338.350
176.594, 2425.625
177.974, 2972.910
179.354, 3324.271
180.734, 3732.449
182.114, 4151.648
183.493, 4788.869
184.872, 5094.110
186.251, 5227.375
187.630, 4677.661
189.008, 4261.967
190.387, 3370.054
191.765, 2693.426
193.143, 2165.178
194.520, 1622.908
195.898, 1541.866
197.275, 1360.613
198.652, 1490.053
200.029, 1580.953
201.405, 1847.884
202.782, 1975.391
204.158, 2160.293
205.534, 2229.219
206.909, 1847.538
208.285, 1682.471
209.660, 1573.977
211.035, 1302.797
212.410, 1423.287
213.784, 1345.929
215.159, 1669.316
216.533, 2028.688
217.907, 2354.084
219.281, 2715.500
220.654, 2592.929
222.027, 2460.367
223.400, 1956.810
224.773, 1419.248
226.146, 1047.676
227.518, 750.088
228.891, 649.474
230.263, 606.835
231.634, 615.169
233.006, 510.476
234.377, 551.755
235.748, 225.009
237.119, 158.232
238.490, 207.431
239.860, 22.398
241.231, 23.255
242.601, 23.142
243.970, 36.067
245.340, 101.213
246.709, 173.215
248.079, 561.228
249.448, 609.664
250.816, 895.218
252.185, 1144.682
253.553, 1137.902
254.921, 1088.767
256.289, 746.184
257.657, 473.079
259.024, 211.394
260.391, 239.074
261.758, 71.921
263.125, 75.360
264.492, 72.105
265.858, 176.358
267.224, 146.442
268.590, 227.377
269.956, 30.198
271.321, 3.885
272.687, 71.446
274.052, 180.911
275.416, 82.317
276.781, 64.342
278.146, 11.075
279.510, 270.868
280.874, 401.714
282.237, 564.604
283.601, 594.529
284.964, 788.484
286.327, 1164.464
287.690, 1008.462
289.053, 1009.474
290.416, 922.494
291.778, 481.519
293.140, 506.539
294.502, 226.549
295.863, 130.545
297.225, 67.529
298.586, 111.503
299.947, 113.594
301.308, 137.751
302.668, 221.991
304.029, 137.337
305.389, 151.773
306.749, 227.312
308.108, 36.021
309.468, 16.719
310.827, 45.546
312.186, 700.529
313.545, 1090.541
314.903, 866.491
316.262, 75.620
317.620, 79.833
318.978, 64.146
320.336, 120.558
321.693, 119.080
323.051, 41.713
324.408, 248.441
325.765, 62.326
327.121, 107.313
328.478, 276.405
329.834, 116.644
331.190, 87.988
332.546, 160.430
333.902, 13.990
335.257, 185.651
336.612, 128.461
337.967, 81.488
339.322, 78.706
340.677, 61.949
342.031, 67.556
343.385, 39.843
344.739, 108.176
346.093, 122.452
347.446, 70.677
348.799, 194.838
350.153, 360.953
351.505, 1037.029
352.858, 401.064
354.210, 434.938
355.563, 402.610
356.915, 448.097
358.267, 538.479
359.618, 575.786
360.969, 756.060
362.321, 660.241
363.672, 780.283
365.022, 869.161
366.373, 874.838
367.723, 1075.354
369.073, 967.633
370.423, 1009.724
371.773, 885.641
373.122, 896.380
374.471, 970.004
375.821, 684.507
377.169, 755.954
378.518, 640.348
379.866, 570.721
381.215, 766.074
382.563, 601.408
383.910, 683.723
385.258, 829.018
386.605, 811.290
387.952, 668.545
389.299, 818.778
390.646, 836.992
391.992, 800.185
393.339, 857.358
394.685, 972.512
396.031, 1398.646
397.376, 1287.761
398.722, 1669.855
400.067, 1763.930
401.412, 2018.986
402.757, 2591.602
404.101, 2831.174
405.446, 2798.725
406.790, 2932.959
408.134, 2809.963
409.478, 2742.991
410.821, 2362.021
412.165, 1972.043
413.508, 1720.115
414.851, 1551.175
416.193, 1396.216
417.536, 1280.247
418.878, 1273.291
420.220, 1376.318
421.562, 1207.328
422.904, 1634.311
424.245, 1956.998
425.586, 2220.931
426.927, 2717.462
428.268, 3235.037
429.609, 3668.919
430.949, 4408.406
432.289, 4846.109
433.629, 4674.602
434.969, 4570.377
436.309, 3954.475
437.648, 3432.413
438.987, 2798.113
440.326, 2176.654
441.665, 2066.275
443.003, 1881.857
444.342, 1795.396
445.680, 1899.896
447.018, 2101.354
448.355, 2114.772
449.693, 2362.148
451.030, 2465.482
452.367, 2645.780
453.704, 2407.036
455.041, 2512.277
456.377, 2495.479
457.713, 2357.639
459.049, 2236.777
460.385, 2140.373
461.721, 2096.623
463.056, 1835.189
464.391, 1590.555
465.726, 1611.618
467.061, 1509.581
468.395, 1412.865
469.730, 1535.863
471.064, 1310.023
472.398, 1492.307
473.731, 1397.158
475.065, 1500.017
476.398, 1732.840
477.731, 1833.463
479.064, 2120.611
480.397, 2324.453
481.729, 2800.799
483.062, 3004.013
484.394, 3517.547
485.725, 3827.474
487.057, 4394.403
488.389, 4648.497
489.720, 4762.977
491.051, 5081.168
492.382, 5194.852
493.712, 4960.988
495.043, 4711.652
496.373, 4431.783
497.703, 4228.299
499.032, 4020.501
500.362, 3568.709
501.691, 3548.528
503.020, 3139.097
504.349, 2987.615
505.678, 3054.836
507.007, 2935.403
508.335, 2912.895
509.663, 2977.232
510.991, 3256.497
512.319, 3430.743
513.646, 3816.974
514.973, 3988.732
516.300, 4598.932
517.627, 5020.228
518.954, 5718.605
520.280, 6766.760
521.607, 8176.901
522.933, 9612.485
524.259, 11616.869
525.584, 14386.966
526.910, 18380.053
528.235, 22823.129
529.560, 28608.193
530.885, 33844.246
532.209, 38558.293
533.534, 41860.332
534.858, 40752.363
536.182, 37093.387
537.506, 31422.404
538.829, 25663.414
540.152, 20138.420
541.476, 16094.419
542.799, 12422.411
544.121, 10229.396
545.444, 8112.375
546.766, 6525.349
548.088, 5658.315
549.410, 4722.277
550.732, 4064.232
552.053, 3691.182
553.375, 3131.127
554.696, 2881.065
556.017, 2669.998
557.337, 2462.926
558.658, 2317.848
559.978, 2024.766
561.298, 2059.677
562.618, 1666.587
563.938, 1706.495
565.257, 1700.400
566.576, 1547.306
567.895, 1689.825
569.214, 1600.721
570.533, 1353.611
571.851, 1249.152
573.170, 1402.376
574.488, 1202.249
575.805, 1246.856
577.123, 1195.794
578.440, 1062.519
579.758, 1140.682
581.075, 950.906
582.391, 1069.636
583.708, 799.578
585.024, 783.314
586.341, 853.282
587.657, 798.294
588.972, 790.698
590.288, 636.627
591.603, 441.444
592.918, 641.368
594.233, 553.301
595.548, 658.266
596.863, 470.435
598.177, 556.406
599.491, 533.373
600.805, 375.334
602.119, 479.287
603.432, 450.236
604.746, 425.178
606.059, 219.115
607.372, 255.047
608.685, 288.973
609.997, 151.375
611.309, 199.291
612.621, 140.418
613.933, 433.324
615.245, 407.227
616.557, 443.531
617.868, 446.424
619.179, 686.338
620.490, 658.303
621.801, 951.309
623.111, 1110.383
624.421, 1347.668
625.731, 1105.859
627.041, 1252.375
628.351, 919.668
629.660, 672.818
630.970, 908.217
632.279, 491.924
633.588, 599.201
634.896, 537.557
636.205, 634.867
637.513, 624.215
638.821, 640.957
640.129, 929.393
641.437, 964.881
642.744, 902.398
644.051, 1053.584
645.358, 1255.230
646.665, 1234.926
647.972, 1128.449
649.278, 1256.297
650.584, 1272.621
651.890, 1300.586
653.196, 1299.580
654.502, 1102.652
655.807, 855.227
657.113, 706.412
658.418, 732.713
659.722, 520.965
661.027, 511.266
662.331, 185.592
663.636, 382.926
664.940, 73.271
666.244, 282.635
667.547, 66.002
668.851, 129.361
670.154, 125.721
671.457, 6.926
672.760, 188.406
674.062, 175.266
675.365, 113.045
676.667, 89.098
677.969, 56.236
679.271, 5.629
680.572, 50.516
681.874, 148.555
683.175, 183.623
684.476, 54.686
685.777, 1435.746
687.077, 226.805
688.378, 365.857
689.678, 537.910
690.978, 438.959
692.278, 309.008
693.577, 482.055
694.877, 370.100
696.176, 619.143
697.475, 425.182
698.774, 562.221
700.072, 619.258
701.371, 672.291
702.669, 527.324
703.967, 1058.355
705.265, 1248.387
706.562, 1093.418
707.860, 802.445
709.157, 1099.473
710.454, 675.498
711.751, 842.523
713.047, 411.549
714.344, 450.572
715.640, 195.596
716.936, 262.619
718.232, 376.643
719.527, 148.666
720.823, 133.684
722.118, 89.705
723.413, 26.277
724.708, 209.719
726.002, 161.709
727.297, 202.301
728.591, 14.570
729.885, 116.438
731.179, 28.695
732.472, 113.857
733.766, 15.090
735.059, 22.344
736.352, 11.377
737.645, 31.904
738.937, 29.781
740.230, 223.535
741.522, 83.979
742.814, 25.521
744.106, 10.980
745.397, 81.500
746.689, 113.020
747.980, 100.387
749.271, 55.797
750.562, 105.205
751.853, 7.389
753.143, 45.004
754.433, 500.395
755.723, 188.785
757.013, 387.176
758.303, 167.564
759.592, 229.955
760.881, 245.346
762.170, 99.736
763.459, 180.125
764.748, 1.512
766.036, 340.895
767.325, 90.725
768.613, 62.600
769.901, 158.924
771.188, 62.750
772.476, 132.535
773.763, 168.180
775.050, 109.012
776.337, 87.201
777.624, 53.389
778.910, 13.578
780.196, 35.766
781.482, 143.051
782.768, 91.951
784.054, 57.904
785.339, 18.104
786.625, 146.891
787.910, 93.029
789.195, 19.949
790.479, 69.867
791.764, 96.783
793.048, 100.303
794.332, 106.553
795.616, 98.408
796.900, 127.260
798.183, 57.891
799.467, 57.924
800.750, 135.736
802.033, 125.453
803.316, 336.283
804.598, 41.984
805.880, 168.723
807.163, 96.426
808.445, 147.125
809.726, 7.180
811.008, 195.506
812.289, 22.816
813.570, 77.844
814.851, 138.502
816.132, 53.152
817.413, 62.799
818.693, 209.441
819.973, 79.078
821.253, 282.713
822.533, 341.342
823.813, 253.965
825.092, 239.584
826.371, 263.652
827.650, 219.262
828.929, 485.752
830.208, 470.145
831.486, 166.740
832.764, 194.336
834.042, 401.473
835.320, 421.795
836.598, 504.385
837.875, 383.016
839.152, 449.643
840.429, 666.312
841.706, 427.010
842.983, 541.719
844.259, 692.482
845.536, 607.275
846.812, 611.072
848.088, 529.881
849.363, 651.695
850.639, 844.510
851.914, 627.359
853.189, 676.217
854.464, 918.072
855.739, 1113.979
857.013, 984.883
858.288, 1121.818
859.562, 1286.752
860.836, 1177.688
862.110, 1155.619
863.383, 1233.586
864.656, 964.553
865.930, 792.514
867.203, 836.477
868.475, 820.498
869.748, 580.520
871.020, 675.537
872.292, 604.557
873.564, 567.578
874.836, 598.600
876.108, 837.617
877.379, 774.012
878.650, 777.027
879.922, 514.051
881.192, 454.416
882.463, 551.094
883.733, 529.117
885.004, 597.400
886.274, 342.346
887.544, 706.508
888.813, 498.227
890.083, 540.877
891.352, 706.018
892.621, 521.957
893.890, 725.096
895.159, 531.006
896.427, 540.906
897.695, 768.438
898.964, 559.488
900.232, 577.654
901.499, 526.715
902.767, 637.779
904.034, 531.846
905.301, 596.725
906.568, 714.803
907.835, 710.885
909.102, 711.971
910.368, 689.059
911.634, 683.219
912.900, 668.387
914.166, 835.559
915.432, 696.734
916.697, 412.914
917.962, 817.617
919.227, 628.805
920.492, 833.779
921.757, 767.973
923.021, 1014.170
924.285, 1182.965
925.550, 1259.172
926.813, 1270.396
928.077, 1497.611
929.341, 1878.832
930.604, 2491.057
931.867, 2941.115
933.130, 3867.326
934.393, 5232.279
935.655, 5801.471
936.918, 6569.830
938.180, 5393.967
939.442, 4351.803
940.703, 3543.066
941.965, 2650.250
943.226, 1847.523
944.488, 1567.797
945.749, 1497.721
947.009, 1229.008
948.270, 1132.301
949.530, 981.598
950.791, 953.322
952.051, 785.629
953.311, 623.949
954.570, 754.541
955.830, 783.871
957.089, 771.777
958.348, 512.121
959.607, 561.469
960.866, 441.824
962.124, 375.746
963.383, 460.113
964.641, 408.426
965.899, 611.809
967.156, 546.199
968.414, 434.600
969.671, 648.008
970.928, 263.744
972.185, 614.479
973.442, 556.902
974.699, 832.334
975.955, 883.770
977.211, 786.213
978.468, 1140.670
979.723, 1436.158
980.979, 1709.680
982.234, 2642.242
983.490, 2486.189
984.745, 3381.344
986.000, 3471.479
987.254, 3047.092
988.509, 2910.008
989.763, 2496.637
991.017, 1923.508
992.271, 1633.529
993.525, 1523.008
994.779, 1675.891
996.032, 1714.736
997.285, 1708.426
998.538, 1828.674
999.791, 2887.367
1001.044, 3107.578
1002.296, 3716.965
1003.548, 3849.525
1004.800, 3779.852
1006.052, 4422.715
1007.304, 4545.428
1008.555, 4905.965
1009.807, 4873.629
1011.058, 4408.777
1012.309, 3996.865
1013.559, 3264.475
1014.810, 2686.131
1016.060, 2763.791
1017.310, 2335.551
1018.560, 1894.129
1019.810, 1920.779
1021.060, 1937.809
1022.309, 1762.857
1023.558, 2014.307
1024.807, 1756.242
1026.056, 1902.998
1027.305, 1812.633
1028.553, 2323.279
1029.801, 2406.076
1031.049, 2540.717
1032.297, 2818.029
1033.545, 2976.039
1034.793, 2781.764
1036.040, 2803.898
1037.287, 2704.896
1038.534, 2941.637
1039.781, 3238.574
1041.027, 3384.826
1042.274, 4337.188
1043.520, 5680.947
1044.766, 6512.787
1046.012, 7544.197
1047.257, 7709.531
1048.503, 7350.748
1049.748, 5901.104
1050.993, 4923.635
1052.238, 3776.555
1053.483, 2866.959
1054.727, 2244.873
1055.971, 2126.338
1057.216, 1609.250
1058.459, 1332.738
1059.703, 1103.770
1060.947, 1152.168
1062.190, 1040.975
1063.433, 850.176
1064.676, 736.570
1065.919, 548.662
1067.162, 933.871
1068.404, 667.205
1069.646, 539.369
1070.888, 643.258
1072.130, 497.139
1073.372, 634.545
1074.613, 761.430
1075.855, 473.990
1077.096, 536.213
1078.337, 1012.119
1079.578, 716.607
1080.818, 936.768
1082.059, 1059.654
1083.299, 1087.529
1084.539, 921.535
1085.779, 912.959
1087.018, 939.893
1088.258, 959.818
1089.497, 969.773
1090.736, 1085.719
1091.975, 1016.654
1093.213, 1174.580
1094.452, 1567.496
1095.690, 1322.426
1096.928, 1498.344
1098.166, 1609.250
1099.404, 1762.143
1100.642, 1511.043
1101.879, 1491.766
1103.116, 1178.639
1104.353, 1135.533
1105.590, 863.691
1106.827, 965.572
1108.063, 688.439
1109.299, 813.293
1110.536, 614.781
1111.771, 478.611
1113.007, 574.424
1114.243, 410.773
1115.478, 194.121
1116.713, 352.545
1117.948, 303.596
1119.183, 85.359
1120.418, 89.104
1121.652, 202.842
1122.886, 357.562
1124.120, 350.266
1125.354, 243.953
1126.588, 369.625
1127.821, 171.277
1129.055, 284.914
1130.288, 308.531
1131.521, 94.129
1132.753, 47.703
1133.986, 57.254
1135.218, 453.777
1136.450, 133.391
1137.682, 397.963
1138.914, 146.664
1140.146, 100.412
1141.377, 27.125
1142.609, 192.066
1143.840, 95.068
1145.071, 6.854
1146.301, 36.203
1147.532, 9.572
1148.762, 79.295
1149.992, 131.998
1151.222, 30.420
1152.452, 60.020
1153.682, 169.467
1154.911, 205.980
1156.140, 99.359
1157.369, 252.576
1158.598, 105.947
1159.827, 122.285
1161.055, 98.191
1162.284, 486.080
1163.512, 315.453
1164.740, 204.678
1165.967, 207.111
1167.195, 261.014
1168.422, 143.164
1169.650, 138.252
1170.877, 62.316
1172.103, 167.355
1173.330, 210.373
1174.557, 276.279
1175.783, 243.164
1177.009, 1.023
1178.235, 242.850
1179.461, 96.658
1180.686, 170.439
1181.912, 238.197
1183.137, 144.512
1184.362, 2.219
1185.587, 388.000
1186.811, 205.652
1188.036, 131.811
1189.260, 110.105
1190.484, 275.525
1191.708, 327.836
1192.932, 131.189
1194.155, 157.482
1195.378, 190.041
1196.602, 156.068
1197.825, 124.471
1199.047, 316.783
1200.270, 155.602
1201.492, 472.811
1202.715, 31.205
1203.937, 322.129
1205.159, 142.641
1206.380, 251.859
1207.602, 211.633
1208.823, 92.459
1210.044, 209.518
1211.265, 163.811
1212.486, 236.301
1213.707, 206.262
1214.927, 177.297
1216.147, 216.195
1217.367, 475.482
1218.587, 328.773
1219.807, 163.594
1221.027, 393.453
1222.246, 129.219
1223.465, 219.961
1224.684, 486.674
1225.903, 155.713
1227.121, 232.375
1228.340, 460.014
1229.558, 340.629
1230.776, 275.223
1231.994, 179.793
1233.212, 396.340
1234.429, 365.121
1235.646, 336.617
1236.864, 629.090
1238.081, 446.525
1239.297, 529.863
1240.514, 604.104
1241.730, 333.291
1242.947, 389.422
1244.163, 447.510
1245.378, 681.555
1246.594, 352.521
1247.810, 128.449
1249.025, 322.322
1250.240, 444.156
1251.455, 245.184
1252.670, 377.930
1253.885, 332.643
1255.099, 454.318
1256.313, 157.932
1257.527, 474.502
1258.741, 413.266
1259.955, 185.012
1261.168, 182.887
1262.382, 161.275
1263.595, 253.295
1264.808, 490.596
1266.021, 345.535
1267.233, 359.711
1268.446, 640.898
1269.658, 343.059
1270.870, 588.164
1272.082, 597.236
1273.294, 478.252
1274.505, 551.270
1275.716, 535.971
1276.928, 439.389
1278.139, 643.318
1279.349, 370.734
1280.560, 584.219
1281.770, 248.158
1282.981, 125.576
1284.191, 430.795
1285.401, 337.328
1286.610, 274.730
1287.820, 369.537
1289.029, 86.168
1290.239, 559.828
1291.448, 258.988
1292.656, 323.572
1293.865, 399.125
1295.073, 328.463
1296.282, 88.232
1297.490, 476.939
1298.698, 485.061
1299.906, 269.123
1301.113, 192.209
1302.320, 115.137
1303.528, 315.488
1304.735, 301.314
1305.942, 201.480
1307.148, 421.135
1308.355, 218.602
1309.561, 559.855
1310.767, 331.160
1311.973, 489.420
1313.179, 242.281
1314.384, 606.684
1315.590, 447.748
1316.795, 392.383
1318.000, 323.174
1319.205, 576.939
1320.410, 412.502
1321.614, 286.641
1322.819, 461.590
1324.023, 411.131
1325.227, 543.287
1326.431, 368.156
1327.634, 97.484
1328.838, 248.953
1330.041, 211.566
1331.244, 341.244
1332.447, 110.727
1333.650, 84.152
1334.852, 66.512
1336.055, 44.184
1337.257, 69.064
1338.459, 44.744
1339.661, 41.053
1340.862, 97.662
1342.064, 49.656
1343.265, 56.506
1344.466, 127.369
1345.667, 61.275
1346.868, 211.346
1348.068, 86.918
1349.269, 21.615
1350.469, 230.791
1351.669, 154.133
1352.869, 264.412
1354.069, 359.643
1355.268, 22.836
1356.468, 107.531
1357.667, 361.885
1358.866, 202.350
1360.065, 425.064
1361.263, 126.914
1362.462, 120.102
1363.660, 261.598
1364.858, 211.041
1366.056, 312.631
1367.254, 471.924
1368.451, 313.703
1369.649, 20.621
1370.846, 346.785
1372.043, 373.801
1373.240, 306.891
1374.436, 241.178
1375.633, 259.703
1376.829, 372.232
1378.025, 170.756
1379.221, 463.617
1380.417, 328.807
1381.613, 285.613
1382.808, 465.641
1384.003, 320.695
1385.199, 270.713
1386.393, 378.586
1387.588, 336.055
1388.783, 243.320
1389.977, 414.078
1391.171, 292.207
1392.365, 370.490
1393.559, 399.508
1394.753, 147.977
1395.946, 270.992
1397.140, 205.141
1398.333, 281.373
1399.526, 255.766
1400.719, 205.158
1401.911, 145.184
1403.104, 138.752
1404.296, 97.332
1405.488, 318.883
1406.680, 26.676
1407.872, 259.270
1409.063, 437.332
1410.255, 17.072
1411.446, 326.691
1412.637, 200.438
1413.828, 371.027
1415.018, 355.059
1416.209, 356.619
1417.399, 191.115
1418.589, 424.066
1419.779, 201.705
1420.969, 304.961
1422.159, 6.096
1423.348, 85.865
1424.537, 55.430
1425.726, 10.336
1426.915, 133.818
1428.104, 0.000
##END=



