##NAMES=Scolecite
##RRUFFID=R040111
##IDEAL CHEMISTRY=Ca(Si_3_Al_2_)O_10_&#183;3H_2_O
##LOCALITY=Bombay-Poona area, Mahahashtra Province, India
##OWNER=RRUFF
##SOURCE=National Museums of Canada
##DESCRIPTION=Pale pink prismatic crystals in parallel or near parallel aggregates
##STATUS=The identification of this mineral has been confirmed by X-ray diffraction and chemical analysis
##URL=rruff.info/R040111
##MEASURED CHEMISTRY=Ca_0.98_(Si_3.05_Al_1.95_)O_10_Â·3H_2_O
##PIN_ID=L00237
##ORIENTATION=Laser parallel to a* (1 0 0). Fiducial mark perpendicular to laser is parallel to b [0 1 0]
76.635, 0.000
78.031, 35.244
79.427, 125.438
80.823, 671.443
82.218, 1546.057
83.614, 1971.590
85.009, 2908.640
86.404, 4157.979
87.798, 5666.445
89.193, 7861.611
90.587, 9624.992
91.981, 11264.921
93.375, 12187.483
94.768, 12098.417
96.161, 10922.920
97.554, 9087.444
98.947, 7911.086
100.340, 7005.336
101.732, 7008.658
103.124, 7303.871
104.516, 8016.047
105.908, 8532.447
107.300, 8185.471
108.691, 7777.819
110.082, 6636.238
111.473, 5326.322
112.864, 4374.717
114.254, 4196.180
115.644, 3524.437
117.034, 2995.655
118.424, 2981.812
119.813, 2052.212
121.203, 1520.178
122.592, 1117.344
123.981, 1151.802
125.369, 918.640
126.758, 1088.933
128.146, 1281.752
129.534, 1640.161
130.922, 1766.209
132.309, 2294.945
133.696, 2958.406
135.083, 4572.629
136.470, 5868.641
137.857, 7613.600
139.243, 8107.114
140.630, 7694.545
142.016, 6337.914
143.401, 5178.900
144.787, 3815.529
146.172, 2975.826
147.557, 2427.807
148.942, 2418.527
150.327, 3122.403
151.711, 4088.809
153.096, 5604.389
154.480, 6612.533
155.863, 7442.304
157.247, 7330.071
158.630, 6761.610
160.013, 5984.490
161.396, 5041.280
162.779, 4110.621
164.161, 3433.873
165.544, 3021.198
166.926, 3050.650
168.308, 3183.263
169.689, 3325.064
171.070, 4132.067
172.452, 4693.285
173.833, 5386.720
175.213, 6354.373
176.594, 6636.244
177.974, 7324.326
179.354, 7564.619
180.734, 7634.115
182.114, 7510.803
183.493, 7526.672
184.872, 7284.715
186.251, 6946.922
187.630, 6046.288
189.008, 5259.805
190.387, 4635.459
191.765, 4100.246
193.143, 3759.156
194.520, 3068.181
195.898, 2668.313
197.275, 2193.677
198.652, 2027.498
200.029, 1780.965
201.405, 1642.821
202.782, 1625.878
204.158, 1744.991
205.534, 1729.618
206.909, 1103.123
208.285, 1097.652
209.660, 714.204
211.035, 505.778
212.410, 543.373
213.784, 400.982
215.159, 543.606
216.533, 711.246
217.907, 952.897
219.281, 1174.558
220.654, 1127.663
222.027, 1080.290
223.400, 816.746
224.773, 475.767
226.146, 101.493
227.518, 30.429
228.891, 157.735
230.263, 294.785
231.634, 136.422
233.006, 426.956
234.377, 347.380
235.748, 420.382
237.119, 649.578
238.490, 518.068
239.860, 709.962
241.231, 609.389
242.601, 793.378
243.970, 711.971
245.340, 620.866
246.709, 628.609
248.079, 148.688
249.448, 64.329
250.816, 364.233
252.185, 709.823
253.553, 1037.289
254.921, 1586.509
256.289, 1490.379
257.657, 1534.814
259.024, 1213.746
260.391, 1042.112
261.758, 713.863
263.125, 569.950
264.492, 477.326
265.858, 453.946
267.224, 717.779
268.590, 655.795
269.956, 1129.970
271.321, 1110.283
272.687, 822.717
274.052, 589.255
275.416, 837.882
276.781, 1053.586
278.146, 1227.353
279.510, 1892.174
280.874, 2333.033
282.237, 2723.898
283.601, 2729.727
284.964, 2822.484
286.327, 2766.167
287.690, 2649.802
289.053, 2263.437
290.416, 2274.014
291.778, 1656.576
293.140, 1869.107
294.502, 1078.611
295.863, 959.053
297.225, 784.435
298.586, 480.756
299.947, 450.018
301.308, 304.219
302.668, 354.360
304.029, 369.436
305.389, 377.434
306.749, 364.354
308.108, 622.199
309.468, 497.971
310.827, 563.669
312.186, 371.295
313.545, 369.849
314.903, 377.330
316.262, 215.735
317.620, 221.002
318.978, 39.018
320.336, 67.396
321.693, 107.402
323.051, 106.072
324.408, 346.479
325.765, 150.625
327.121, 175.201
328.478, 117.912
329.834, 104.273
331.190, 273.414
332.546, 354.529
333.902, 582.621
335.257, 769.684
336.612, 832.721
337.967, 956.730
339.322, 1036.709
340.677, 1246.656
342.031, 994.574
343.385, 1211.457
344.739, 1188.307
346.093, 998.123
347.446, 963.904
348.799, 1002.674
350.153, 998.406
351.505, 863.105
352.858, 638.764
354.210, 768.383
355.563, 617.980
356.915, 418.539
358.267, 510.055
359.618, 395.531
360.969, 392.965
362.321, 249.311
363.672, 169.432
365.022, 159.469
366.373, 94.711
367.723, 135.998
369.073, 106.217
370.423, 114.363
371.773, 66.564
373.122, 48.387
374.471, 186.252
375.821, 19.053
377.169, 78.758
378.518, 127.621
379.866, 35.863
381.215, 133.250
382.563, 153.564
383.910, 223.795
385.258, 337.910
386.605, 487.902
387.952, 398.779
389.299, 500.467
390.646, 600.031
391.992, 600.074
393.339, 673.455
394.685, 707.033
396.031, 739.154
397.376, 766.434
398.722, 909.637
400.067, 933.691
401.412, 1208.314
402.757, 1452.582
404.101, 1495.641
405.446, 1402.945
406.790, 1399.102
408.134, 1401.527
409.478, 1079.396
410.821, 1057.961
412.165, 614.836
413.508, 785.826
414.851, 631.789
416.193, 443.717
417.536, 426.609
418.878, 601.465
420.220, 663.281
421.562, 561.055
422.904, 943.779
424.245, 1091.459
425.586, 1485.086
426.927, 1971.668
428.268, 2051.199
429.609, 2507.676
430.949, 3094.096
432.289, 3608.455
433.629, 3403.760
434.969, 3320.000
436.309, 2779.182
437.648, 2360.299
438.987, 1947.357
440.326, 1399.354
441.665, 1146.285
443.003, 1009.154
444.342, 900.959
445.680, 1061.701
447.018, 1098.539
448.355, 1120.939
449.693, 1336.883
451.030, 1312.814
452.367, 1471.057
453.704, 1251.662
455.041, 1342.592
456.377, 1358.822
457.713, 1176.260
459.049, 1129.365
460.385, 1123.402
461.721, 1053.381
463.056, 803.297
464.391, 702.152
465.726, 961.947
467.061, 730.678
468.395, 531.350
469.730, 682.998
471.064, 372.615
472.398, 625.174
473.731, 476.674
475.065, 504.176
476.398, 700.625
477.731, 857.959
479.064, 806.236
480.397, 913.381
481.729, 1236.117
483.062, 1274.084
484.394, 1629.867
485.725, 1755.320
487.057, 1978.895
488.389, 2181.752
489.720, 2267.014
491.051, 2454.805
492.382, 2621.779
493.712, 2585.906
495.043, 2443.994
496.373, 2138.049
497.703, 2227.104
499.032, 2083.168
500.362, 2089.219
501.691, 1907.268
503.020, 1708.275
504.349, 1837.387
505.678, 1845.564
507.007, 1691.561
508.335, 1792.262
509.663, 1901.109
510.991, 2215.027
512.319, 2307.889
513.646, 2814.895
514.973, 2949.219
516.300, 3751.865
517.627, 4195.174
518.954, 4670.805
520.280, 5983.830
521.607, 7007.824
522.933, 8419.402
524.259, 10397.734
525.584, 13069.014
526.910, 16627.381
528.235, 20762.559
529.560, 26450.189
530.885, 30897.057
532.209, 35311.457
533.534, 38034.773
534.858, 37099.137
536.182, 34151.520
537.506, 28850.088
538.829, 23580.053
540.152, 18399.078
541.476, 14868.811
542.799, 11153.281
544.121, 9054.127
545.444, 7110.680
546.766, 5733.521
548.088, 4851.832
549.410, 4217.615
550.732, 3629.375
552.053, 3071.133
553.375, 2487.924
554.696, 2216.711
556.017, 2139.561
557.337, 1870.453
558.658, 1638.404
559.978, 1442.469
561.298, 1474.619
562.618, 1215.904
563.938, 1093.295
565.257, 1250.221
566.576, 915.977
567.895, 1100.742
569.214, 1042.916
570.533, 933.105
571.851, 639.041
573.170, 1037.480
574.488, 754.377
575.805, 730.053
577.123, 666.400
578.440, 616.092
579.758, 739.551
581.075, 472.648
582.391, 698.234
583.708, 600.541
585.024, 434.461
586.341, 555.555
587.657, 639.473
588.972, 633.117
590.288, 483.639
591.603, 487.236
592.918, 282.568
594.233, 300.996
595.548, 341.395
596.863, 193.770
598.177, 152.119
599.491, 234.443
600.805, 136.738
602.119, 155.010
603.432, 139.260
604.746, 39.486
606.059, 109.316
607.372, 294.191
608.685, 47.230
609.997, 221.311
611.309, 148.520
612.621, 154.818
613.933, 196.789
615.245, 18.375
616.557, 338.662
617.868, 389.199
619.179, 370.844
620.490, 554.676
621.801, 1211.822
623.111, 962.967
624.421, 1614.064
625.731, 1085.100
627.041, 1383.887
628.351, 770.949
629.660, 548.484
630.970, 816.645
632.279, 326.002
633.588, 402.195
634.896, 128.762
636.205, 347.361
637.513, 292.021
638.821, 364.895
640.129, 649.924
641.437, 622.111
642.744, 724.082
644.051, 673.113
645.358, 832.156
646.665, 1095.006
647.972, 913.738
649.278, 995.504
650.584, 708.016
651.890, 1103.334
653.196, 975.416
654.502, 753.125
655.807, 659.008
657.113, 513.109
658.418, 376.322
659.722, 275.795
661.027, 185.791
662.331, 164.068
663.636, 207.150
664.940, 68.084
666.244, 331.391
667.547, 27.059
668.851, 205.434
670.154, 162.576
671.457, 48.617
672.760, 411.428
674.062, 72.359
675.365, 31.344
676.667, 114.293
677.969, 112.430
679.271, 15.314
680.572, 107.621
681.874, 246.471
683.175, 297.322
684.476, 211.184
685.777, 423.051
687.077, 323.926
688.378, 658.809
689.678, 772.746
690.978, 765.709
692.278, 322.670
693.577, 831.664
694.877, 544.678
696.176, 850.762
697.475, 560.879
698.774, 1001.004
700.072, 1046.137
701.371, 1243.264
702.669, 1034.375
703.967, 1493.465
705.265, 1779.529
706.562, 1600.576
707.860, 1216.598
709.157, 1535.596
710.454, 1072.572
711.751, 1165.527
713.047, 780.455
714.344, 889.365
715.640, 344.246
716.936, 511.105
718.232, 537.938
719.527, 336.744
720.823, 177.525
722.118, 251.275
723.413, 60.998
724.708, 206.684
726.002, 204.340
727.297, 141.037
728.591, 137.463
729.885, 260.924
731.179, 78.359
732.472, 142.758
733.766, 71.123
735.059, 105.453
736.352, 185.748
737.645, 76.010
738.937, 125.236
740.230, 32.428
741.522, 16.580
742.814, 202.689
744.106, 261.764
745.397, 286.814
746.689, 307.832
747.980, 570.826
749.271, 458.789
750.562, 750.727
751.853, 580.637
753.143, 840.518
754.433, 1165.369
755.723, 949.197
757.013, 1453.994
758.303, 1193.764
759.592, 1313.510
760.881, 1289.064
762.170, 1360.969
763.459, 1236.238
764.748, 738.430
766.036, 1029.223
767.325, 516.562
768.613, 541.482
769.901, 536.020
771.188, 93.256
772.476, 448.738
773.763, 25.195
775.050, 187.617
776.337, 108.014
777.624, 104.379
778.910, 110.715
780.196, 121.023
781.482, 128.699
782.768, 85.529
784.054, 21.559
785.339, 73.613
786.625, 218.365
787.910, 7.498
789.195, 126.672
790.479, 31.955
791.764, 3.709
793.048, 1.666
794.332, 102.080
795.616, 67.410
796.900, 130.869
798.183, 146.701
799.467, 50.391
800.750, 15.855
802.033, 218.938
803.316, 251.113
804.598, 263.861
805.880, 107.982
807.163, 1.793
808.445, 125.438
809.726, 160.775
811.008, 85.238
812.289, 108.787
813.570, 109.568
814.851, 140.893
816.132, 8.955
817.413, 56.945
818.693, 174.156
819.973, 10.484
821.253, 166.598
822.533, 227.572
823.813, 318.535
825.092, 110.289
826.371, 292.656
827.650, 52.637
828.929, 401.895
830.208, 455.766
831.486, 218.180
832.764, 287.559
834.042, 163.162
835.320, 354.477
836.598, 364.305
837.875, 278.117
839.152, 491.801
840.429, 593.582
841.706, 449.354
842.983, 466.143
844.259, 668.975
845.536, 451.807
846.812, 724.615
848.088, 386.449
849.363, 901.262
850.639, 918.080
851.914, 712.922
853.189, 771.756
854.464, 951.564
855.739, 1323.428
857.013, 1052.285
858.288, 1301.178
859.562, 1483.055
860.836, 1324.947
862.110, 1109.816
863.383, 1356.693
864.656, 973.543
865.930, 1000.377
867.203, 773.191
868.475, 876.016
869.748, 617.820
871.020, 786.600
872.292, 722.355
873.564, 638.090
874.836, 635.416
876.108, 418.029
877.379, 696.717
878.650, 667.086
879.922, 713.457
881.192, 566.047
882.463, 695.086
883.733, 434.623
885.004, 588.328
886.274, 546.316
887.544, 763.910
888.813, 471.689
890.083, 634.779
891.352, 732.340
892.621, 545.133
893.890, 629.266
895.159, 593.176
896.427, 536.232
897.695, 765.512
898.964, 711.875
900.232, 739.234
901.499, 877.576
902.767, 914.895
904.034, 956.205
905.301, 801.475
906.568, 901.734
907.835, 997.973
909.102, 737.193
910.368, 679.389
911.634, 979.564
912.900, 824.721
914.166, 1108.857
915.432, 696.000
916.697, 411.195
917.962, 807.383
919.227, 616.605
920.492, 855.838
921.757, 678.082
923.021, 913.307
924.285, 1003.787
925.550, 998.977
926.813, 1181.014
928.077, 1151.826
929.341, 1368.277
930.604, 2023.689
931.867, 2074.100
933.130, 2655.531
934.393, 3557.172
935.655, 4052.490
936.918, 4511.309
938.180, 3682.453
939.442, 3071.359
940.703, 2598.387
941.965, 1982.998
943.226, 1514.533
944.488, 1439.971
945.749, 1745.182
947.009, 1631.256
948.270, 1715.199
949.530, 1804.389
950.791, 1819.615
952.051, 1438.869
953.311, 1164.367
954.570, 1361.016
955.830, 1023.615
957.089, 1016.430
958.348, 717.395
959.607, 745.551
960.866, 553.045
962.124, 507.318
963.383, 677.338
964.641, 545.883
965.899, 743.770
967.156, 432.773
968.414, 419.451
969.671, 633.283
970.928, 276.391
972.185, 688.725
973.442, 560.816
974.699, 815.162
975.955, 747.697
977.211, 491.979
978.468, 1000.510
979.723, 994.127
980.979, 1093.635
982.234, 2084.189
983.490, 1633.971
984.745, 2455.523
986.000, 2573.666
987.254, 2034.273
988.509, 2217.346
989.763, 1720.396
991.017, 1645.900
992.271, 1419.381
993.525, 1558.129
994.779, 1858.582
996.032, 2067.844
997.285, 2335.973
998.538, 2427.057
999.791, 3444.516
1001.044, 3461.979
1002.296, 4317.031
1003.548, 4286.887
1004.800, 4131.840
1006.052, 4378.863
1007.304, 4260.111
1008.555, 4450.492
1009.807, 4390.490
1011.058, 3895.619
1012.309, 3869.236
1013.559, 3256.928
1014.810, 2728.438
1016.060, 2749.490
1017.310, 2654.197
1018.560, 2291.672
1019.810, 2182.990
1021.060, 2213.371
1022.309, 2013.283
1023.558, 2191.385
1024.807, 1762.943
1026.056, 2175.613
1027.305, 2071.592
1028.553, 2486.080
1029.801, 2360.219
1031.049, 2613.281
1032.297, 2686.004
1033.545, 3200.416
1034.793, 2905.152
1036.040, 2890.100
1037.287, 2691.779
1038.534, 2612.184
1039.781, 2892.369
1041.027, 2931.408
1042.274, 3231.471
1043.520, 4163.654
1044.766, 4687.277
1046.012, 5270.561
1047.257, 5499.143
1048.503, 5463.795
1049.748, 4346.367
1050.993, 3840.016
1052.238, 3090.016
1053.483, 2419.160
1054.727, 1797.225
1055.971, 1513.928
1057.216, 1259.131
1058.459, 1212.062
1059.703, 1116.641
1060.947, 1139.447
1062.190, 1126.148
1063.433, 973.582
1064.676, 1077.754
1065.919, 704.609
1067.162, 1139.133
1068.404, 666.525
1069.646, 719.254
1070.888, 762.441
1072.130, 611.842
1073.372, 754.680
1074.613, 938.537
1075.855, 550.244
1077.096, 543.615
1078.337, 1257.641
1079.578, 856.822
1080.818, 1205.799
1082.059, 1155.037
1083.299, 1218.270
1084.539, 1104.752
1085.779, 1112.416
1087.018, 1059.592
1088.258, 1062.467
1089.497, 1057.377
1090.736, 1052.266
1091.975, 994.160
1093.213, 1128.039
1094.452, 1222.980
1095.690, 1370.723
1096.928, 1608.553
1098.166, 1605.428
1099.404, 1891.195
1100.642, 1803.977
1101.879, 1581.744
1103.116, 1411.482
1104.353, 1441.248
1105.590, 1048.980
1106.827, 1112.752
1108.063, 764.490
1109.299, 922.203
1110.536, 819.430
1111.771, 432.158
1113.007, 780.881
1114.243, 388.996
1115.478, 413.686
1116.713, 416.338
1117.948, 470.963
1119.183, 538.664
1120.418, 467.150
1121.652, 638.693
1122.886, 825.223
1124.120, 721.732
1125.354, 270.215
1126.588, 431.684
1127.821, 7.121
1129.055, 500.529
1130.288, 369.902
1131.521, 261.230
1132.753, 127.420
1133.986, 118.557
1135.218, 112.402
1136.450, 53.557
1137.682, 55.645
1138.914, 13.193
1140.146, 7.170
1141.377, 106.627
1142.609, 213.188
1143.840, 34.469
1145.071, 204.764
1146.301, 126.689
1147.532, 118.424
1148.762, 68.502
1149.992, 125.543
1151.222, 10.670
1152.452, 223.146
1153.682, 236.076
1154.911, 32.406
1156.140, 177.811
1157.369, 44.691
1158.598, 109.877
1159.827, 275.467
1161.055, 55.004
1162.284, 291.229
1163.512, 34.551
1164.740, 233.699
1165.967, 99.195
1167.195, 315.820
1168.422, 295.777
1169.650, 404.699
1170.877, 123.586
1172.103, 236.422
1173.330, 55.207
1174.557, 364.945
1175.783, 238.641
1177.009, 93.707
1178.235, 114.852
1179.461, 177.371
1180.686, 73.844
1181.912, 435.273
1183.137, 346.660
1184.362, 167.004
1185.587, 228.125
1186.811, 276.379
1188.036, 113.207
1189.260, 113.973
1190.484, 281.586
1191.708, 182.504
1192.932, 7.707
1194.155, 197.547
1195.378, 182.691
1196.602, 195.848
1197.825, 172.371
1199.047, 321.363
1200.270, 280.098
1201.492, 292.734
1202.715, 328.211
1203.937, 292.543
1205.159, 305.586
1206.380, 384.098
1207.602, 322.707
1208.823, 340.988
1210.044, 167.391
1211.265, 225.887
1212.486, 296.199
1213.707, 65.480
1214.927, 392.715
1216.147, 304.910
1217.367, 524.668
1218.587, 370.797
1219.807, 258.891
1221.027, 247.945
1222.246, 111.965
1223.465, 350.945
1224.684, 486.895
1225.903, 382.812
1227.121, 479.523
1228.340, 356.418
1229.558, 351.035
1230.776, 292.496
1231.994, 85.699
1233.212, 596.832
1234.429, 576.164
1235.646, 443.180
1236.864, 846.137
1238.081, 557.047
1239.297, 777.902
1240.514, 755.555
1241.730, 599.152
1242.947, 520.656
1244.163, 174.090
1245.378, 841.449
1246.594, 758.719
1247.810, 461.902
1249.025, 840.996
1250.240, 728.020
1251.455, 586.965
1252.670, 610.832
1253.885, 636.633
1255.099, 511.355
1256.313, 282.023
1257.527, 562.617
1258.741, 596.152
1259.955, 305.789
1261.168, 554.230
1262.382, 742.645
1263.595, 639.035
1264.808, 555.387
1266.021, 723.750
1267.233, 784.188
1268.446, 867.234
1269.658, 866.598
1270.870, 897.340
1272.082, 809.473
1273.294, 888.645
1274.505, 913.023
1275.716, 886.262
1276.928, 703.344
1278.139, 710.344
1279.349, 691.355
1280.560, 659.344
1281.770, 618.328
1282.981, 428.191
1284.191, 557.914
1285.401, 428.887
1286.610, 357.859
1287.820, 554.578
1289.029, 51.203
1290.239, 557.250
1291.448, 204.297
1292.656, 574.516
1293.865, 616.539
1295.073, 664.473
1296.282, 699.891
1297.490, 640.504
1298.698, 558.332
1299.906, 506.648
1301.113, 422.777
1302.320, 396.367
1303.528, 303.660
1304.735, 295.184
1305.942, 212.227
1307.148, 551.609
1308.355, 233.168
1309.561, 827.031
1310.767, 852.645
1311.973, 737.414
1313.179, 298.746
1314.384, 1073.086
1315.590, 712.953
1316.795, 788.875
1318.000, 799.898
1319.205, 967.523
1320.410, 925.875
1321.614, 587.211
1322.819, 943.578
1324.023, 568.078
1325.227, 755.500
1326.431, 483.848
1327.634, 341.121
1328.838, 241.441
1330.041, 72.367
1331.244, 339.570
1332.447, 61.473
1333.650, 29.582
1334.852, 111.281
1336.055, 54.730
1337.257, 60.926
1338.459, 82.480
1339.661, 24.594
1340.862, 153.355
1342.064, 74.477
1343.265, 164.402
1344.466, 223.203
1345.667, 92.379
1346.868, 601.832
1348.068, 319.621
1349.269, 93.965
1350.469, 515.199
1351.669, 376.953
1352.869, 349.465
1354.069, 449.176
1355.268, 54.148
1356.468, 500.512
1357.667, 549.230
1358.866, 213.391
1360.065, 483.801
1361.263, 80.555
1362.462, 289.391
1363.660, 429.270
1364.858, 377.215
1366.056, 285.195
1367.254, 443.266
1368.451, 388.395
1369.649, 261.543
1370.846, 449.863
1372.043, 262.754
1373.240, 418.945
1374.436, 597.363
1375.633, 366.383
1376.829, 320.547
1378.025, 39.586
1379.221, 152.922
1380.417, 475.133
1381.613, 340.199
1382.808, 489.859
1384.003, 557.449
1385.199, 414.566
1386.393, 460.273
1387.588, 210.680
1388.783, 323.828
1389.977, 289.680
1391.171, 203.055
1392.365, 182.953
1393.559, 142.777
1394.753, 30.008
1395.946, 141.922
1397.140, 232.953
1398.333, 361.164
1399.526, 242.637
1400.719, 130.566
1401.911, 99.719
1403.104, 7.926
1404.296, 51.996
1405.488, 307.824
1406.680, 76.270
1407.872, 140.551
1409.063, 718.238
1410.255, 0.000
##END=



