##NAMES=Scolecite
##RRUFFID=R040111
##IDEAL CHEMISTRY=Ca(Si_3_Al_2_)O_10_&#183;3H_2_O
##LOCALITY=Bombay-Poona area, Mahahashtra Province, India
##OWNER=RRUFF
##SOURCE=National Museums of Canada
##DESCRIPTION=Pale pink prismatic crystals in parallel or near parallel aggregates
##STATUS=The identification of this mineral has been confirmed by X-ray diffraction and chemical analysis
##URL=rruff.info/R040111
##MEASURED CHEMISTRY=Ca_0.98_(Si_3.05_Al_1.95_)O_10_Â·3H_2_O
##PIN_ID=L00238
##ORIENTATION=Laser parallel to (-1 0 -1). Fiducial mark perpendicular to laser is parallel to b [0 1 0]
75.239, 0.000
76.635, 193.657
78.031, 16.021
79.427, 109.554
80.823, 327.772
82.218, 714.731
83.614, 1121.829
85.009, 1654.579
86.404, 2351.983
87.798, 3154.500
89.193, 4271.429
90.587, 5310.365
91.981, 6554.260
93.375, 7514.720
94.768, 8310.844
96.161, 9069.550
97.554, 9352.729
98.947, 9560.227
100.340, 9521.894
101.732, 10476.572
103.124, 12283.121
104.516, 14897.258
105.908, 18777.416
107.300, 23558.828
108.691, 29108.672
110.082, 31805.154
111.473, 30197.506
112.864, 23977.299
114.254, 16719.607
115.644, 10845.421
117.034, 6743.617
118.424, 3967.052
119.813, 2465.595
121.203, 1412.149
122.592, 793.631
123.981, 559.975
125.369, 351.118
126.758, 327.012
128.146, 276.610
129.534, 164.453
130.922, 121.703
132.309, 55.456
133.696, 54.153
135.083, 39.252
136.470, 182.862
137.857, 158.999
139.243, 115.679
140.630, 164.919
142.016, 129.731
143.401, 26.130
144.787, 103.872
146.172, 297.264
147.557, 703.034
148.942, 1302.207
150.327, 2168.018
151.711, 3500.806
153.096, 5419.959
154.480, 7570.512
155.863, 10313.173
157.247, 13297.947
158.630, 15473.748
160.013, 16059.331
161.396, 15058.775
162.779, 13382.157
164.161, 11125.514
165.544, 8944.880
166.926, 6686.282
168.308, 4993.738
169.689, 3735.260
171.070, 3225.862
172.452, 2995.555
173.833, 3032.347
175.213, 3430.235
176.594, 3749.223
177.974, 4694.318
179.354, 5643.526
180.734, 6685.849
182.114, 7955.294
183.493, 8933.858
184.872, 8829.552
186.251, 8081.368
187.630, 6399.808
189.008, 4861.159
190.387, 3421.521
191.765, 2331.522
193.143, 1663.641
194.520, 1130.905
195.898, 936.315
197.275, 1013.874
198.652, 1171.580
200.029, 1332.434
201.405, 1621.431
202.782, 1876.573
204.158, 2217.855
205.534, 2465.279
206.909, 2163.842
208.285, 2025.542
209.660, 1690.377
211.035, 1399.347
212.410, 1378.450
213.784, 1548.685
215.159, 2186.050
216.533, 3218.542
217.907, 4544.160
219.281, 6425.903
220.654, 8331.770
222.027, 10041.558
223.400, 10698.022
224.773, 10011.872
226.146, 8725.930
227.518, 7332.627
228.891, 6270.911
230.263, 5553.720
231.634, 4909.059
233.006, 4047.927
234.377, 3177.913
235.748, 2374.010
237.119, 1568.213
238.490, 1139.523
239.860, 704.939
241.231, 551.668
242.601, 532.317
243.970, 727.778
245.340, 1008.628
246.709, 1559.290
248.079, 2537.642
249.448, 3575.591
250.816, 5047.062
252.185, 6548.998
253.553, 7835.356
254.921, 8113.100
256.289, 7169.190
257.657, 5568.581
259.024, 3909.250
260.391, 2704.185
261.758, 1683.372
263.125, 1087.801
264.492, 750.462
265.858, 567.344
267.224, 537.438
268.590, 412.736
269.956, 647.202
271.321, 752.734
272.687, 763.315
274.052, 679.938
275.416, 979.732
276.781, 1332.705
278.146, 1864.847
279.510, 2679.154
280.874, 3380.617
282.237, 3756.230
283.601, 3570.989
284.964, 3189.887
286.327, 3068.921
287.690, 2525.086
289.053, 2043.377
290.416, 1787.792
291.778, 1088.327
293.140, 863.979
294.502, 416.745
295.863, 202.622
297.225, 44.608
298.586, 6.837
299.947, 38.544
301.308, 44.441
302.668, 24.520
304.029, 139.826
305.389, 299.853
306.749, 615.053
308.108, 939.646
309.468, 1174.688
310.827, 1543.894
312.186, 1909.245
313.545, 2210.719
314.903, 2425.303
316.262, 2579.002
317.620, 2609.817
318.978, 2442.703
320.336, 2315.688
321.693, 2036.744
323.051, 1994.861
324.408, 1574.039
325.765, 1672.279
327.121, 1256.580
328.478, 1266.943
329.834, 1212.368
331.190, 1289.856
332.546, 1238.406
333.902, 1525.018
335.257, 1517.691
336.612, 1710.427
337.967, 2124.223
339.322, 2404.080
340.677, 2660.997
342.031, 2962.975
343.385, 3333.011
344.739, 3429.107
346.093, 3378.262
347.446, 3232.475
348.799, 2920.745
350.153, 2570.072
351.505, 2185.445
352.858, 1613.829
354.210, 1444.265
355.563, 1331.758
356.915, 1419.307
358.267, 1530.912
359.618, 1601.571
360.969, 1601.286
362.321, 1176.055
363.672, 777.877
365.022, 385.751
366.373, 2.678
367.723, 210.358
369.073, 327.403
370.423, 392.485
371.773, 472.620
373.122, 362.826
374.471, 280.079
375.821, 390.362
377.169, 184.700
378.518, 290.048
379.866, 197.430
381.215, 201.825
382.563, 48.235
383.910, 4.371
385.258, 74.990
386.605, 350.485
387.952, 397.779
389.299, 674.932
390.646, 820.960
391.992, 1110.887
393.339, 1281.771
394.685, 1611.684
396.031, 2017.645
397.376, 2317.654
398.722, 2751.713
400.067, 3178.819
401.412, 3577.972
402.757, 4075.172
404.101, 4267.462
405.446, 4110.841
406.790, 3985.309
408.134, 3738.856
409.478, 3180.479
410.821, 2721.172
412.165, 2059.935
413.508, 1740.763
414.851, 1408.655
416.193, 1165.610
417.536, 1015.626
418.878, 1047.699
420.220, 1259.830
421.562, 1297.018
422.904, 1761.259
424.245, 2363.555
425.586, 3070.902
426.927, 3920.301
428.268, 4631.752
429.609, 5611.250
430.949, 6422.799
432.289, 7434.394
433.629, 7657.037
434.969, 7957.725
436.309, 7673.463
437.648, 7475.246
438.987, 7266.073
440.326, 7028.946
441.665, 6905.863
443.003, 7000.823
444.342, 7105.826
445.680, 7065.869
447.018, 7115.115
448.355, 7195.081
449.693, 7009.247
451.030, 6777.452
452.367, 6513.693
453.704, 5792.973
455.041, 5504.293
456.377, 4900.646
457.713, 4259.418
459.049, 3754.988
460.385, 3356.664
461.721, 2882.861
463.056, 2429.437
464.391, 2116.445
465.726, 1937.099
467.061, 1615.629
468.395, 1446.810
469.730, 1292.143
471.064, 1081.434
472.398, 1013.438
473.731, 921.312
475.065, 856.755
476.398, 865.118
477.731, 813.409
479.064, 765.510
480.397, 707.034
481.729, 896.262
483.062, 816.490
484.394, 796.747
485.725, 855.042
487.057, 770.383
488.389, 821.752
489.720, 887.172
491.051, 923.651
492.382, 869.152
493.712, 945.719
495.043, 967.315
496.373, 1019.932
497.703, 1084.576
499.032, 1180.246
500.362, 1216.954
501.691, 1345.697
503.020, 1395.461
504.349, 1598.240
505.678, 1703.040
507.007, 1946.889
508.335, 2163.750
509.663, 2381.631
510.991, 2805.547
512.319, 3152.477
513.646, 3648.430
514.973, 4037.398
516.300, 4875.381
517.627, 5571.393
518.954, 6227.417
520.280, 7756.452
521.607, 9065.506
522.933, 10851.572
524.259, 13041.655
525.584, 15919.749
526.910, 20145.355
528.235, 25092.324
529.560, 31629.857
530.885, 38229.789
532.209, 45023.289
533.534, 51220.707
534.858, 53345.582
536.182, 49940.391
537.506, 43300.336
538.829, 35113.512
540.152, 27211.682
541.476, 21060.559
542.799, 16083.315
544.121, 12632.669
545.444, 9976.427
546.766, 7910.696
548.088, 6568.979
549.410, 5509.276
550.732, 4703.590
552.053, 3924.917
553.375, 3363.260
554.696, 2869.616
556.017, 2579.988
557.337, 2413.373
558.658, 1980.772
559.978, 1782.186
561.298, 1763.610
562.618, 1482.049
563.938, 1251.499
565.257, 1235.962
566.576, 1053.435
567.895, 1003.918
569.214, 1007.413
570.533, 857.917
571.851, 754.431
573.170, 834.952
574.488, 673.482
575.805, 670.020
577.123, 575.564
578.440, 597.117
579.758, 640.676
581.075, 514.240
582.391, 560.811
583.708, 490.387
585.024, 465.968
586.341, 579.554
587.657, 591.145
588.972, 648.739
590.288, 537.336
591.603, 629.938
592.918, 501.541
594.233, 593.146
595.548, 548.755
596.863, 492.363
598.177, 557.974
599.491, 511.435
600.805, 525.196
602.119, 513.807
603.432, 492.419
604.746, 515.031
606.059, 407.640
607.372, 295.249
608.685, 458.855
609.997, 223.461
611.309, 304.063
612.621, 190.663
613.933, 220.261
615.245, 94.854
616.557, 52.439
617.868, 52.009
619.179, 37.433
620.490, 164.917
621.801, 6.028
623.111, 168.373
624.421, 76.158
625.731, 171.593
627.041, 19.648
628.351, 235.404
629.660, 175.406
630.970, 84.701
632.279, 67.722
633.588, 113.104
634.896, 143.879
636.205, 42.471
637.513, 77.536
638.821, 16.979
640.129, 190.900
641.437, 203.873
642.744, 300.752
644.051, 281.564
645.358, 387.763
646.665, 474.117
647.972, 473.099
649.278, 514.743
650.584, 666.438
651.890, 851.111
653.196, 781.754
654.502, 975.650
655.807, 1008.577
657.113, 1240.773
658.418, 1484.306
659.722, 1566.535
661.027, 1803.885
662.331, 1987.349
663.636, 2407.205
664.940, 2617.174
666.244, 3240.758
667.547, 3557.530
668.851, 4184.873
670.154, 4441.872
671.457, 4727.710
672.760, 4867.160
674.062, 4976.885
675.365, 4715.859
676.667, 4377.965
677.969, 3892.569
679.271, 3378.591
680.572, 2734.157
681.874, 2408.089
683.175, 1974.750
684.476, 1576.401
685.777, 1330.528
687.077, 868.279
688.378, 868.218
689.678, 728.331
690.978, 614.327
692.278, 348.377
693.577, 722.503
694.877, 362.873
696.176, 628.084
697.475, 538.331
698.774, 778.626
700.072, 832.909
701.371, 1078.182
702.669, 1149.433
703.967, 1446.873
705.265, 1823.072
706.562, 1729.243
707.860, 1628.390
709.157, 1722.512
710.454, 1451.604
711.751, 1467.777
713.047, 1242.814
714.344, 1196.824
715.640, 1118.806
716.936, 1151.813
718.232, 1242.848
719.527, 1254.896
720.823, 1201.615
722.118, 1429.574
723.413, 1488.571
724.708, 1658.356
726.002, 1818.175
727.297, 1768.901
728.591, 1863.663
729.885, 1891.331
731.179, 1660.002
732.472, 1589.714
733.766, 1404.316
735.059, 1250.867
736.352, 1285.386
737.645, 1184.890
738.937, 1121.543
740.230, 1053.155
741.522, 1000.564
742.814, 1007.933
744.106, 1231.350
745.397, 1248.657
746.689, 1332.932
747.980, 1534.314
749.271, 1595.528
750.562, 1922.724
751.853, 1866.875
753.143, 2023.995
754.433, 2200.084
755.723, 2075.141
757.013, 2062.166
758.303, 1712.384
759.592, 1714.345
760.881, 1478.275
762.170, 1268.174
763.459, 1127.041
764.748, 869.874
766.036, 1005.676
767.325, 626.444
768.613, 693.182
769.901, 616.887
771.188, 400.180
772.476, 410.648
773.763, 304.053
775.050, 319.137
776.337, 189.701
777.624, 240.520
778.910, 230.994
780.196, 203.609
781.482, 79.584
782.768, 59.400
784.054, 49.249
785.339, 45.782
786.625, 47.386
787.910, 109.741
789.195, 14.064
790.479, 55.337
791.764, 27.551
793.048, 79.996
794.332, 40.283
795.616, 12.403
796.900, 33.951
798.183, 62.369
799.467, 2.134
800.750, 81.407
802.033, 123.759
803.316, 95.502
804.598, 152.269
805.880, 9.163
807.163, 89.894
808.445, 14.080
809.726, 2.913
811.008, 52.104
812.289, 42.242
813.570, 34.554
814.851, 111.315
816.132, 17.050
817.413, 98.256
818.693, 166.348
819.973, 4.926
821.253, 51.535
822.533, 95.935
823.813, 8.623
825.092, 44.775
826.371, 65.140
827.650, 37.524
828.929, 124.751
830.208, 106.002
831.486, 5.774
832.764, 16.410
834.042, 48.558
835.320, 113.676
836.598, 161.767
837.875, 185.103
839.152, 88.917
840.429, 218.954
841.706, 133.969
842.983, 116.960
844.259, 294.923
845.536, 165.862
846.812, 183.777
848.088, 111.667
849.363, 192.529
850.639, 219.367
851.914, 155.181
853.189, 201.968
854.464, 256.730
855.739, 285.468
857.013, 106.180
858.288, 175.863
859.562, 189.523
860.836, 291.157
862.110, 154.768
863.383, 224.360
864.656, 128.929
865.930, 264.470
867.203, 186.987
868.475, 192.521
869.748, 140.029
871.020, 126.517
872.292, 213.978
873.564, 199.416
874.836, 122.849
876.108, 106.257
877.379, 253.640
878.650, 134.001
879.922, 266.340
881.192, 132.656
882.463, 204.950
883.733, 139.223
885.004, 121.472
886.274, 139.699
887.544, 223.904
888.813, 158.090
890.083, 140.252
891.352, 96.394
892.621, 98.263
893.890, 138.611
895.159, 157.690
896.427, 120.751
897.695, 227.794
898.964, 181.817
900.232, 104.820
901.499, 201.808
902.767, 132.774
904.034, 215.724
905.301, 183.651
906.568, 166.564
907.835, 148.457
909.102, 149.333
910.368, 77.188
911.634, 167.032
912.900, 158.858
914.166, 240.666
915.432, 151.453
916.697, 206.414
917.962, 292.978
919.227, 250.716
920.492, 161.438
921.757, 191.142
923.021, 205.834
924.285, 242.512
925.550, 172.181
926.813, 255.839
928.077, 156.507
929.341, 298.738
930.604, 331.421
931.867, 301.015
933.130, 322.451
934.393, 535.429
935.655, 308.061
936.918, 575.838
938.180, 327.823
939.442, 308.474
940.703, 392.427
941.965, 287.704
943.226, 335.365
944.488, 292.172
945.749, 294.980
947.009, 216.346
948.270, 72.635
949.530, 244.405
950.791, 232.397
952.051, 96.389
953.311, 4.798
954.570, 128.361
955.830, 196.833
957.089, 91.229
958.348, 67.620
959.607, 31.017
960.866, 20.137
962.124, 10.740
963.383, 97.970
964.641, 37.378
965.899, 75.076
967.156, 167.631
968.414, 88.046
969.671, 231.043
970.928, 77.903
972.185, 224.123
973.442, 224.129
974.699, 271.538
975.955, 166.266
977.211, 188.128
978.468, 283.251
979.723, 315.279
980.979, 441.935
982.234, 512.434
983.490, 350.423
984.745, 594.971
986.000, 838.944
987.254, 700.529
988.509, 852.153
989.763, 855.978
991.017, 816.785
992.271, 785.707
993.525, 487.412
994.779, 653.035
996.032, 460.846
997.285, 603.652
998.538, 522.459
999.791, 744.060
1001.044, 507.900
1002.296, 681.149
1003.548, 611.956
1004.800, 606.774
1006.052, 768.935
1007.304, 711.751
1008.555, 966.356
1009.807, 1162.227
1011.058, 1338.049
1012.309, 1577.296
1013.559, 1993.552
1014.810, 2489.385
1016.060, 2889.108
1017.310, 3282.938
1018.560, 3339.302
1019.810, 3440.150
1021.060, 3431.225
1022.309, 3115.979
1023.558, 3275.271
1024.807, 3309.001
1026.056, 3642.789
1027.305, 3916.478
1028.553, 3876.330
1029.801, 3530.678
1031.049, 2727.680
1032.297, 2390.664
1033.545, 1988.880
1034.793, 1565.750
1036.040, 1481.714
1037.287, 1428.808
1038.534, 1381.914
1039.781, 1502.832
1041.027, 1325.880
1042.274, 1378.605
1043.520, 1451.021
1044.766, 1173.170
1046.012, 984.850
1047.257, 798.588
1048.503, 958.657
1049.748, 634.592
1050.993, 851.834
1052.238, 784.784
1053.483, 675.913
1054.727, 690.860
1055.971, 640.311
1057.216, 641.535
1058.459, 624.818
1059.703, 647.274
1060.947, 724.761
1062.190, 723.877
1063.433, 785.813
1064.676, 830.750
1065.919, 830.739
1067.162, 1043.279
1068.404, 788.680
1069.646, 744.973
1070.888, 884.349
1072.130, 665.246
1073.372, 849.460
1074.613, 834.746
1075.855, 636.030
1077.096, 626.942
1078.337, 761.854
1079.578, 741.924
1080.818, 763.223
1082.059, 663.126
1083.299, 804.027
1084.539, 879.003
1085.779, 892.083
1087.018, 960.999
1088.258, 1122.097
1089.497, 1158.043
1090.736, 1263.030
1091.975, 1487.088
1093.213, 1741.107
1094.452, 2222.129
1095.690, 2219.483
1096.928, 2564.547
1098.166, 2838.130
1099.404, 2825.208
1100.642, 2628.421
1101.879, 2694.105
1103.116, 2423.955
1104.353, 2363.328
1105.590, 1872.507
1106.827, 1864.713
1108.063, 1535.061
1109.299, 1428.624
1110.536, 1273.838
1111.771, 918.408
1113.007, 923.722
1114.243, 882.408
1115.478, 754.934
1116.713, 651.569
1117.948, 649.324
1119.183, 561.423
1120.418, 591.397
1121.652, 466.058
1122.886, 507.337
1124.120, 435.864
1125.354, 208.313
1126.588, 385.021
1127.821, 153.600
1129.055, 243.792
1130.288, 350.312
1131.521, 158.766
1132.753, 217.202
1133.986, 79.790
1135.218, 250.246
1136.450, 98.206
1137.682, 245.142
1138.914, 14.224
1140.146, 17.342
1141.377, 173.803
1142.609, 83.167
1143.840, 120.966
1145.071, 108.281
1146.301, 58.180
1147.532, 81.111
1148.762, 42.346
1149.992, 12.322
1151.222, 110.085
1152.452, 165.601
1153.682, 5.830
1154.911, 85.666
1156.140, 132.380
1157.369, 50.640
1158.598, 77.347
1159.827, 6.674
1161.055, 38.383
1162.284, 111.026
1163.512, 150.258
1164.740, 133.342
1165.967, 171.079
1167.195, 88.189
1168.422, 19.145
1169.650, 200.305
1170.877, 3.185
1172.103, 77.235
1173.330, 74.809
1174.557, 82.594
1175.783, 92.697
1177.009, 6.125
1178.235, 58.788
1179.461, 48.856
1180.686, 8.761
1181.912, 85.009
1183.137, 56.043
1184.362, 50.367
1185.587, 61.000
1186.811, 153.681
1188.036, 79.326
1189.260, 172.220
1190.484, 3.616
1191.708, 58.146
1192.932, 5.179
1194.155, 8.330
1195.378, 81.077
1196.602, 124.405
1197.825, 15.842
1199.047, 158.249
1200.270, 84.604
1201.492, 178.578
1202.715, 0.135
1203.937, 158.608
1205.159, 55.366
1206.380, 210.589
1207.602, 27.089
1208.823, 96.078
1210.044, 186.227
1211.265, 161.480
1212.486, 126.591
1213.707, 11.684
1214.927, 28.751
1216.147, 54.796
1217.367, 35.190
1218.587, 0.085
1219.807, 74.025
1221.027, 59.125
1222.246, 59.321
1223.465, 168.233
1224.684, 227.129
1225.903, 111.105
1227.121, 56.963
1228.340, 198.968
1229.558, 220.784
1230.776, 136.580
1231.994, 113.356
1233.212, 228.172
1234.429, 113.540
1235.646, 168.651
1236.864, 177.841
1238.081, 144.563
1239.297, 220.229
1240.514, 243.881
1241.730, 87.516
1242.947, 197.133
1244.163, 43.735
1245.378, 295.321
1246.594, 136.890
1247.810, 38.441
1249.025, 272.958
1250.240, 116.458
1251.455, 162.938
1252.670, 181.397
1253.885, 135.840
1255.099, 84.263
1256.313, 165.655
1257.527, 74.009
1258.741, 152.341
1259.955, 26.348
1261.168, 105.929
1262.382, 79.183
1263.595, 56.412
1264.808, 107.616
1266.021, 112.790
1267.233, 81.224
1268.446, 176.327
1269.658, 116.416
1270.870, 136.447
1272.082, 74.443
1273.294, 13.413
1274.505, 23.324
1275.716, 120.182
1276.928, 32.987
1278.139, 139.802
1279.349, 103.564
1280.560, 134.284
1281.770, 110.977
1282.981, 145.811
1284.191, 75.368
1285.401, 89.448
1286.610, 111.821
1287.820, 133.450
1289.029, 49.871
1290.239, 141.196
1291.448, 36.492
1292.656, 6.755
1293.865, 153.970
1295.073, 128.126
1296.282, 33.154
1297.490, 77.965
1298.698, 69.057
1299.906, 76.778
1301.113, 10.814
1302.320, 20.808
1303.528, 47.721
1304.735, 26.348
1305.942, 111.127
1307.148, 76.562
1308.355, 115.388
1309.561, 148.178
1310.767, 53.060
1311.973, 70.138
1313.179, 33.181
1314.384, 89.191
1315.590, 36.798
1316.795, 131.941
1318.000, 94.617
1319.205, 153.085
1320.410, 73.554
1321.614, 23.992
1322.819, 110.874
1324.023, 70.113
1325.227, 105.272
1326.431, 44.229
1327.634, 54.531
1328.838, 27.488
1330.041, 32.610
1331.244, 17.649
1332.447, 18.507
1333.650, 78.430
1334.852, 40.465
1336.055, 99.790
1337.257, 116.527
1338.459, 69.717
1339.661, 206.740
1340.862, 62.513
1342.064, 37.660
1343.265, 31.723
1344.466, 158.508
1345.667, 38.075
1346.868, 216.809
1348.068, 59.735
1349.269, 8.423
1350.469, 199.744
1351.669, 135.380
1352.869, 193.714
1354.069, 171.132
1355.268, 130.705
1356.468, 230.257
1357.667, 224.732
1358.866, 200.639
1360.065, 177.663
1361.263, 196.788
1362.462, 135.800
1363.660, 124.532
1364.858, 16.004
1366.056, 94.055
1367.254, 166.093
1368.451, 222.377
1369.649, 132.765
1370.846, 203.983
1372.043, 114.967
1373.240, 241.292
1374.436, 281.607
1375.633, 273.743
1376.829, 139.735
1378.025, 37.846
1379.221, 63.730
1380.417, 51.802
1381.613, 142.610
1382.808, 165.442
1384.003, 301.927
1385.199, 301.154
1386.393, 333.474
1387.588, 283.616
1388.783, 277.244
1389.977, 345.328
1391.171, 171.442
1392.365, 224.135
1393.559, 238.853
1394.753, 197.388
1395.946, 341.021
1397.140, 261.059
1398.333, 300.650
1399.526, 220.328
1400.719, 345.339
1401.911, 364.852
1403.104, 218.316
1404.296, 184.679
1405.488, 346.894
1406.680, 177.846
1407.872, 270.633
1409.063, 292.120
1410.255, 68.217
1411.446, 332.769
1412.637, 137.747
1413.828, 198.893
1415.018, 288.842
1416.209, 341.395
1417.399, 215.046
1418.589, 378.269
1419.779, 193.152
1420.969, 345.809
1422.159, 161.463
1423.348, 185.407
1424.537, 302.618
1425.726, 249.896
1426.915, 207.346
1428.104, 182.831
1429.293, 154.999
1430.481, 50.934
1431.669, 342.977
1432.857, 271.301
1434.045, 198.477
1435.233, 390.764
1436.420, 358.809
1437.608, 213.862
1438.795, 229.102
1439.982, 414.088
1441.169, 381.249
1442.355, 259.380
1443.542, 406.071
1444.728, 345.563
1445.914, 416.539
1447.100, 284.272
1448.286, 369.820
1449.472, 290.641
1450.657, 486.043
1451.842, 464.953
1453.027, 381.441
1454.212, 617.912
1455.397, 285.279
1456.581, 293.531
1457.766, 588.711
1458.950, 336.816
1460.134, 592.820
1461.318, 281.734
1462.501, 352.652
1463.685, 351.463
1464.868, 234.174
1466.051, 534.803
1467.234, 153.676
1468.417, 190.262
1469.600, 321.895
1470.782, 246.660
1471.965, 323.545
1473.147, 194.131
1474.329, 340.920
1475.510, 235.096
1476.692, 162.758
1477.873, 77.133
1479.055, 175.721
1480.236, 144.607
1481.416, 169.000
1482.597, 252.588
1483.778, 208.188
1484.958, 318.801
1486.138, 229.408
1487.318, 369.074
1488.498, 232.775
1489.678, 224.494
1490.857, 153.246
1492.037, 283.049
1493.216, 250.918
1494.395, 271.881
1495.574, 198.984
1496.752, 89.213
1497.931, 132.580
1499.109, 31.084
1500.287, 52.740
1501.465, 67.502
1502.643, 15.385
1503.820, 165.408
1504.998, 110.602
1506.175, 8.018
1507.352, 95.588
1508.529, 112.453
1509.706, 9.396
1510.882, 85.064
1512.059, 61.873
1513.235, 119.902
1514.411, 106.258
1515.587, 181.949
1516.762, 60.447
1517.938, 43.990
1519.113, 22.707
1520.288, 81.482
1521.463, 0.000
##END=



