##NAMES=Scolecite
##RRUFFID=R040111
##IDEAL CHEMISTRY=Ca(Si_3_Al_2_)O_10_&#183;3H_2_O
##LOCALITY=Bombay-Poona area, Mahahashtra Province, India
##OWNER=RRUFF
##SOURCE=National Museums of Canada
##DESCRIPTION=Pale pink prismatic crystals in parallel or near parallel aggregates
##STATUS=The identification of this mineral has been confirmed by X-ray diffraction and chemical analysis
##URL=rruff.info/R040111
##MEASURED CHEMISTRY=Ca_0.98_(Si_3.05_Al_1.95_)O_10_Â·3H_2_O
##PIN_ID=M00095
##ORIENTATION=Laser parallel to -b* (0 -1 0). Fiducial mark perpendicular to laser is parallel to -c [0 0 -1]
80.823, 0.000
82.218, 17.801
83.614, 117.639
85.009, 364.797
86.404, 1015.886
87.798, 1502.137
89.193, 2418.845
90.587, 3226.637
91.981, 4137.821
93.375, 4909.275
94.768, 5539.365
96.161, 6384.266
97.554, 6573.005
98.947, 6856.615
100.340, 7491.181
101.732, 8703.672
103.124, 10656.999
104.516, 13197.982
105.908, 16109.453
107.300, 19236.170
108.691, 23443.768
110.082, 25828.508
111.473, 25054.811
112.864, 20293.514
114.254, 14774.040
115.644, 10541.096
117.034, 10099.436
118.424, 9027.843
119.813, 5240.134
121.203, 3225.234
122.592, 2857.172
123.981, 2935.499
125.369, 3009.085
126.758, 2798.830
128.146, 2322.648
129.534, 1842.475
130.922, 989.244
132.309, 444.899
133.696, 167.609
135.083, 140.725
136.470, 449.906
137.857, 312.271
139.243, 195.178
140.630, 68.001
142.016, 45.719
143.401, 37.698
144.787, 37.289
146.172, 134.079
147.557, 587.075
148.942, 1028.279
150.327, 1983.689
151.711, 3202.308
153.096, 4880.131
154.480, 6456.154
155.863, 8412.380
157.247, 10252.802
158.630, 11009.425
160.013, 10981.255
161.396, 10375.877
162.779, 9449.273
164.161, 7991.396
165.544, 6524.271
166.926, 5160.080
168.308, 4069.908
169.689, 3057.812
171.070, 2824.827
172.452, 2796.977
173.833, 3070.272
175.213, 3790.729
176.594, 4708.352
177.974, 6099.143
179.354, 7635.079
180.734, 8681.169
182.114, 9465.415
183.493, 9333.820
184.872, 7940.393
186.251, 6325.129
187.630, 4486.033
189.008, 3247.842
190.387, 2338.746
191.765, 1591.130
193.143, 1208.401
194.520, 914.056
195.898, 879.324
197.275, 873.828
198.652, 1108.593
200.029, 1395.604
201.405, 1502.907
202.782, 1700.531
204.158, 1754.623
205.534, 1769.187
206.909, 1189.301
208.285, 869.858
209.660, 758.752
211.035, 571.870
212.410, 782.151
213.784, 1159.593
215.159, 1997.188
216.533, 3125.938
217.907, 4524.838
219.281, 6191.871
220.654, 7706.020
222.027, 9233.286
223.400, 9707.660
224.773, 8921.145
226.146, 7682.742
227.518, 6398.444
228.891, 5487.256
230.263, 4695.172
231.634, 4097.190
233.006, 3344.314
234.377, 2588.541
235.748, 1913.247
237.119, 992.053
238.490, 719.568
239.860, 190.179
241.231, 53.882
242.601, 42.679
243.970, 285.556
245.340, 419.489
246.709, 922.128
248.079, 1757.827
249.448, 2431.219
250.816, 3505.326
252.185, 4715.750
253.553, 5670.227
254.921, 6196.553
256.289, 5648.588
257.657, 4565.234
259.024, 3220.420
260.391, 2241.038
261.758, 1223.988
263.125, 741.244
264.492, 475.794
265.858, 327.624
267.224, 401.719
268.590, 248.067
269.956, 505.655
271.321, 843.470
272.687, 882.348
274.052, 806.892
275.416, 1025.222
276.781, 1124.674
278.146, 1421.349
279.510, 1936.231
280.874, 2338.312
282.237, 2581.577
283.601, 2307.019
284.964, 2052.629
286.327, 2005.397
287.690, 1495.317
289.053, 1105.381
290.416, 953.583
291.778, 468.918
293.140, 226.380
294.502, 108.023
295.863, 224.359
297.225, 481.651
298.586, 456.341
299.947, 503.128
301.308, 582.018
302.668, 434.314
304.029, 328.314
305.389, 155.060
306.749, 33.169
308.108, 189.309
309.468, 480.847
310.827, 830.450
312.186, 1044.131
313.545, 1501.279
314.903, 1722.084
316.262, 1907.609
317.620, 2026.834
318.978, 2264.135
320.336, 2069.946
321.693, 2216.092
323.051, 2235.107
324.408, 1953.312
325.765, 2089.350
327.121, 1954.950
328.478, 1850.981
329.834, 1827.725
331.190, 1644.257
332.546, 1368.726
333.902, 1573.282
335.257, 1435.610
336.612, 1643.528
337.967, 1744.601
339.322, 1779.587
340.677, 1999.332
342.031, 1970.121
343.385, 2121.955
344.739, 1898.829
346.093, 1698.746
347.446, 1756.703
348.799, 1582.701
350.153, 1420.737
351.505, 1281.813
352.858, 1128.729
354.210, 1107.914
355.563, 1156.443
356.915, 1135.330
358.267, 1239.141
359.618, 1337.006
360.969, 1337.924
362.321, 1180.895
363.672, 1034.916
365.022, 787.986
366.373, 605.107
367.723, 621.273
369.073, 511.145
370.423, 609.736
371.773, 571.029
373.122, 776.358
374.471, 977.725
375.821, 620.129
377.169, 788.623
378.518, 682.151
379.866, 666.730
381.215, 554.343
382.563, 393.987
383.910, 401.664
385.258, 400.373
386.605, 459.113
387.952, 285.885
389.299, 361.683
390.646, 287.511
391.992, 366.365
393.339, 515.248
394.685, 738.159
396.031, 1056.357
397.376, 1403.064
398.722, 1913.054
400.067, 2410.066
401.412, 3010.105
402.757, 3798.168
404.101, 4031.495
405.446, 4126.490
406.790, 3882.627
408.134, 3507.786
409.478, 2928.039
410.821, 2299.370
412.165, 1538.767
413.508, 1405.219
414.851, 1046.721
416.193, 766.270
417.536, 601.858
418.878, 680.573
420.220, 976.234
421.562, 833.928
422.904, 1314.653
424.245, 2025.406
425.586, 2551.184
426.927, 3437.994
428.268, 4116.822
429.609, 4914.672
430.949, 6320.543
432.289, 7381.436
433.629, 7896.348
434.969, 8700.278
436.309, 8702.231
437.648, 9065.201
438.987, 8611.192
440.326, 8434.207
441.665, 8306.237
443.003, 8287.285
444.342, 8049.348
445.680, 7933.430
447.018, 7734.525
448.355, 7342.634
449.693, 6857.818
451.030, 6243.953
452.367, 5866.174
453.704, 4862.334
455.041, 4530.850
456.377, 3714.770
457.713, 3312.520
459.049, 2832.657
460.385, 2297.972
461.721, 2130.701
463.056, 1615.446
464.391, 1277.987
465.726, 1316.226
467.061, 820.979
468.395, 673.431
469.730, 551.104
471.064, 301.613
472.398, 444.894
473.731, 76.677
475.065, 191.009
476.398, 115.471
477.731, 142.723
479.064, 12.701
480.397, 64.661
481.729, 98.157
483.062, 138.851
484.394, 140.950
485.725, 33.145
487.057, 163.359
488.389, 152.663
489.720, 215.064
491.051, 210.564
492.382, 106.198
493.712, 89.849
495.043, 33.923
496.373, 43.344
497.703, 80.852
499.032, 147.066
500.362, 235.289
501.691, 391.541
503.020, 405.809
504.349, 687.100
505.678, 906.397
507.007, 908.712
508.335, 1300.032
509.663, 1549.360
510.991, 1811.703
512.319, 2226.045
513.646, 2563.396
514.973, 2999.750
516.300, 3784.111
517.627, 4374.481
518.954, 4764.859
520.280, 5993.242
521.607, 7119.633
522.933, 8540.033
524.259, 10286.440
525.584, 12738.854
526.910, 16195.277
528.235, 20020.701
529.560, 25453.131
530.885, 30393.566
532.209, 35942.000
533.534, 41164.477
534.858, 43040.926
536.182, 41551.980
537.506, 36628.418
538.829, 29894.146
540.152, 23482.596
541.476, 18309.045
542.799, 13768.491
544.121, 10895.940
545.444, 8482.386
546.766, 6497.836
548.088, 5422.922
549.410, 4372.365
550.732, 3627.442
552.053, 3002.883
553.375, 2430.321
554.696, 2081.758
556.017, 1706.722
557.337, 1588.623
558.658, 1266.053
559.978, 1211.479
561.298, 1133.899
562.618, 983.318
563.938, 794.742
565.257, 773.175
566.576, 512.603
567.895, 676.024
569.214, 691.442
570.533, 384.854
571.851, 325.260
573.170, 566.659
574.488, 364.052
575.805, 286.436
577.123, 166.812
578.440, 282.180
579.758, 401.539
581.075, 184.891
582.391, 391.232
583.708, 383.565
585.024, 183.890
586.341, 355.204
587.657, 558.508
588.972, 535.801
590.288, 463.086
591.603, 396.359
592.918, 479.622
594.233, 445.875
595.548, 535.115
596.863, 528.854
598.177, 480.562
599.491, 489.768
600.805, 426.961
602.119, 302.143
603.432, 514.312
604.746, 462.467
606.059, 356.611
607.372, 165.742
608.685, 358.857
609.997, 161.962
611.309, 312.051
612.621, 13.127
613.933, 145.168
615.245, 31.244
616.557, 125.137
617.868, 77.377
619.179, 86.605
620.490, 43.637
621.801, 293.328
623.111, 105.297
624.421, 442.160
625.731, 122.545
627.041, 355.037
628.351, 118.160
629.660, 6.387
630.970, 313.225
632.279, 86.703
633.588, 83.592
634.896, 51.402
636.205, 242.738
637.513, 232.914
638.821, 95.518
640.129, 385.221
641.437, 417.850
642.744, 496.016
644.051, 443.244
645.358, 566.102
646.665, 606.932
647.972, 657.471
649.278, 673.051
650.584, 818.400
651.890, 1060.326
653.196, 1021.488
654.502, 1087.047
655.807, 1039.467
657.113, 1286.715
658.418, 1567.732
659.722, 1588.176
661.027, 1773.695
662.331, 1994.744
663.636, 2348.490
664.940, 2550.125
666.244, 2943.986
667.547, 3037.314
668.851, 3237.303
670.154, 3398.115
671.457, 3408.416
672.760, 3367.969
674.062, 3094.902
675.365, 3010.766
676.667, 2631.602
677.969, 2242.701
679.271, 1803.137
680.572, 1392.111
681.874, 1401.844
683.175, 1001.650
684.476, 853.582
685.777, 667.514
687.077, 340.139
688.378, 470.738
689.678, 182.311
690.978, 215.855
692.278, 158.627
693.577, 358.752
694.877, 9.895
696.176, 349.396
697.475, 235.664
698.774, 477.902
700.072, 546.113
701.371, 624.295
702.669, 568.451
703.967, 892.580
705.265, 1304.680
706.562, 969.754
707.860, 849.803
709.157, 1266.822
710.454, 797.812
711.751, 1060.777
713.047, 852.713
714.344, 1023.617
715.640, 695.496
716.936, 902.344
718.232, 1101.164
719.527, 1133.957
720.823, 1093.719
722.118, 1031.453
723.413, 931.225
724.708, 1016.898
726.002, 1169.547
727.297, 870.162
728.591, 1184.750
729.885, 1303.309
731.179, 1281.838
732.472, 1198.340
733.766, 1142.721
735.059, 1074.162
736.352, 1077.574
737.645, 895.955
738.937, 923.311
740.230, 687.633
741.522, 817.922
742.814, 859.188
744.106, 938.422
745.397, 920.627
746.689, 788.801
747.980, 1113.949
749.271, 1123.062
750.562, 1398.152
751.853, 1258.209
753.143, 1488.236
754.433, 1439.230
755.723, 1210.201
757.013, 1584.141
758.303, 1173.047
759.592, 1186.928
760.881, 925.775
762.170, 933.596
763.459, 772.324
764.748, 377.326
766.036, 574.984
767.325, 306.684
768.613, 386.008
769.901, 285.512
771.188, 125.225
772.476, 258.436
773.763, 35.955
775.050, 56.584
776.337, 26.582
777.624, 77.197
778.910, 74.615
780.196, 54.572
781.482, 179.836
782.768, 78.848
784.054, 45.260
785.339, 57.432
786.625, 221.674
787.910, 47.564
789.195, 121.629
790.479, 125.555
791.764, 90.727
793.048, 9.020
794.332, 82.348
795.616, 87.766
796.900, 63.895
798.183, 63.971
799.467, 44.891
800.750, 3.168
802.033, 105.764
803.316, 164.268
804.598, 225.662
805.880, 126.279
807.163, 128.227
808.445, 44.836
809.726, 76.943
811.008, 55.869
812.289, 65.361
813.570, 3.676
814.851, 43.043
816.132, 93.520
817.413, 13.957
818.693, 87.510
819.973, 44.938
821.253, 6.678
822.533, 263.654
823.813, 101.957
825.092, 166.221
826.371, 296.451
827.650, 119.650
828.929, 390.814
830.208, 328.949
831.486, 184.057
832.764, 122.133
834.042, 54.170
835.320, 254.176
836.598, 229.148
837.875, 193.115
839.152, 187.047
840.429, 481.949
841.706, 391.840
842.983, 359.730
844.259, 497.578
845.536, 375.439
846.812, 322.664
848.088, 254.469
849.363, 276.361
850.639, 504.727
851.914, 370.461
853.189, 503.176
854.464, 542.867
855.739, 565.537
857.013, 488.178
858.288, 607.801
859.562, 771.402
860.836, 778.980
862.110, 642.533
863.383, 766.062
864.656, 425.568
865.930, 462.047
867.203, 461.502
868.475, 492.932
869.748, 333.332
871.020, 480.713
872.292, 397.066
873.564, 333.434
874.836, 419.775
876.108, 219.105
877.379, 514.406
878.650, 496.684
879.922, 403.982
881.192, 389.262
882.463, 417.516
883.733, 443.766
885.004, 298.992
886.274, 530.195
887.544, 432.377
888.813, 286.535
890.083, 366.670
891.352, 462.779
892.621, 374.871
893.890, 391.938
895.159, 324.982
896.427, 385.010
897.695, 352.955
898.964, 300.000
900.232, 386.971
901.499, 354.922
902.767, 479.852
904.034, 462.762
905.301, 389.650
906.568, 437.568
907.835, 420.924
909.102, 290.338
910.368, 442.191
911.634, 490.047
912.900, 477.883
914.166, 629.697
915.432, 357.494
916.697, 166.273
917.962, 498.029
919.227, 470.766
920.492, 532.482
921.757, 377.188
923.021, 494.877
924.285, 654.785
925.550, 533.447
926.813, 771.232
928.077, 731.316
929.341, 566.854
930.604, 580.201
931.867, 513.713
933.130, 345.730
934.393, 673.629
935.655, 334.867
936.918, 575.734
938.180, 469.387
939.442, 398.732
940.703, 543.027
941.965, 424.701
943.226, 414.174
944.488, 503.668
945.749, 706.398
947.009, 833.637
948.270, 844.090
949.530, 859.246
950.791, 976.678
952.051, 843.322
953.311, 515.572
954.570, 661.420
955.830, 516.455
957.089, 364.801
958.348, 305.492
959.607, 336.193
960.866, 216.920
962.124, 269.650
963.383, 128.650
964.641, 317.131
965.899, 309.178
967.156, 255.111
968.414, 77.488
969.671, 334.135
970.928, 251.443
972.185, 233.311
973.442, 262.271
974.699, 452.539
975.955, 518.947
977.211, 382.830
978.468, 611.070
979.723, 940.139
980.979, 1045.357
982.234, 1883.564
983.490, 1829.570
984.745, 2689.533
986.000, 2983.523
987.254, 2849.699
988.509, 2890.436
989.763, 2193.338
991.017, 1825.543
992.271, 1437.400
993.525, 1303.027
994.779, 1140.840
996.032, 1061.604
997.285, 1142.734
998.538, 923.520
999.791, 1531.279
1001.044, 1609.193
1002.296, 1995.578
1003.548, 1842.613
1004.800, 1840.477
1006.052, 1743.295
1007.304, 1680.664
1008.555, 1632.715
1009.807, 1392.967
1011.058, 1345.771
1012.309, 1331.281
1013.559, 1028.000
1014.810, 971.598
1016.060, 1293.168
1017.310, 1398.240
1018.560, 1319.367
1019.810, 1522.559
1021.060, 1671.986
1022.309, 1589.361
1023.558, 1687.293
1024.807, 1290.559
1026.056, 1298.955
1027.305, 1260.875
1028.553, 1559.852
1029.801, 1655.746
1031.049, 1587.676
1032.297, 1768.125
1033.545, 1811.736
1034.793, 1919.160
1036.040, 1939.088
1037.287, 1927.574
1038.534, 1852.650
1039.781, 2084.543
1041.027, 2198.049
1042.274, 2321.719
1043.520, 2718.822
1044.766, 3128.836
1046.012, 3535.781
1047.257, 3951.639
1048.503, 4182.957
1049.748, 3624.000
1050.993, 3223.076
1052.238, 2605.979
1053.483, 1989.438
1054.727, 1704.318
1055.971, 1360.234
1057.216, 1319.561
1058.459, 1041.072
1059.703, 879.902
1060.947, 902.303
1062.190, 849.969
1063.433, 814.332
1064.676, 612.719
1065.919, 606.096
1067.162, 867.012
1068.404, 378.074
1069.646, 547.078
1070.888, 624.334
1072.130, 339.797
1073.372, 502.074
1074.613, 725.324
1075.855, 533.031
1077.096, 495.045
1078.337, 967.748
1079.578, 849.717
1080.818, 904.760
1082.059, 790.049
1083.299, 916.789
1084.539, 868.355
1085.779, 1043.590
1087.018, 1098.383
1088.258, 1125.611
1089.497, 1217.871
1090.736, 1430.760
1091.975, 1452.096
1093.213, 1753.113
1094.452, 2150.047
1095.690, 1973.164
1096.928, 2301.111
1098.166, 2234.852
1099.404, 2489.777
1100.642, 2128.711
1101.879, 2323.816
1103.116, 1889.752
1104.353, 1787.355
1105.590, 1455.295
1106.827, 1413.289
1108.063, 1020.930
1109.299, 908.775
1110.536, 890.623
1111.771, 670.604
1113.007, 582.574
1114.243, 623.248
1115.478, 465.250
1116.713, 509.797
1117.948, 452.758
1119.183, 440.676
1120.418, 362.918
1121.652, 429.234
1122.886, 463.158
1124.120, 387.160
1125.354, 209.049
1126.588, 400.920
1127.821, 45.771
1129.055, 188.604
1130.288, 180.418
1131.521, 153.229
1132.753, 76.002
1133.986, 10.910
1135.218, 372.965
1136.450, 85.326
1137.682, 247.725
1138.914, 103.354
1140.146, 67.896
1141.377, 111.777
1142.609, 98.303
1143.840, 45.361
1145.071, 194.738
1146.301, 51.637
1147.532, 56.072
1148.762, 21.641
1149.992, 9.172
1151.222, 24.672
1152.452, 29.828
1153.682, 40.008
1154.911, 145.633
1156.140, 23.992
1157.369, 4.645
1158.598, 39.414
1159.827, 109.162
1161.055, 58.682
1162.284, 85.633
1163.512, 94.434
1164.740, 211.330
1165.967, 196.818
1167.195, 180.643
1168.422, 123.061
1169.650, 134.854
1170.877, 133.348
1172.103, 157.312
1173.330, 26.986
1174.557, 304.600
1175.783, 266.160
1177.009, 162.680
1178.235, 10.736
1179.461, 103.611
1180.686, 59.037
1181.912, 68.482
1183.137, 229.342
1184.362, 93.852
1185.587, 190.049
1186.811, 240.244
1188.036, 118.201
1189.260, 59.916
1190.484, 202.541
1191.708, 234.461
1192.932, 33.939
1194.155, 49.945
1195.378, 165.213
1196.602, 3.908
1197.825, 23.340
1199.047, 281.953
1200.270, 127.031
1201.492, 447.539
1202.715, 163.650
1203.937, 212.014
1205.159, 105.738
1206.380, 336.279
1207.602, 54.992
1208.823, 66.441
1210.044, 116.840
1211.265, 146.180
1212.486, 131.510
1213.707, 181.248
1214.927, 202.051
1216.147, 213.307
1217.367, 167.084
1218.587, 114.500
1219.807, 155.682
1221.027, 161.066
1222.246, 35.746
1223.465, 213.270
1224.684, 289.539
1225.903, 225.559
1227.121, 33.580
1228.340, 160.604
1229.558, 345.449
1230.776, 104.262
1231.994, 188.039
1233.212, 386.781
1234.429, 200.568
1235.646, 206.240
1236.864, 470.010
1238.081, 197.627
1239.297, 280.217
1240.514, 437.777
1241.730, 254.312
1242.947, 328.342
1244.163, 108.816
1245.378, 322.256
1246.594, 352.660
1247.810, 66.039
1249.025, 406.598
1250.240, 148.887
1251.455, 449.143
1252.670, 338.369
1253.885, 146.568
1255.099, 223.732
1256.313, 44.867
1257.527, 368.967
1258.741, 385.035
1259.955, 33.928
1261.168, 300.189
1262.382, 171.135
1263.595, 342.346
1264.808, 327.191
1266.021, 246.006
1267.233, 216.783
1268.446, 360.529
1269.658, 286.240
1270.870, 338.674
1272.082, 342.555
1273.294, 351.150
1274.505, 380.182
1275.716, 337.711
1276.928, 307.488
1278.139, 322.119
1279.349, 232.590
1280.560, 277.965
1281.770, 336.332
1282.981, 212.973
1284.191, 456.256
1285.401, 276.080
1286.610, 171.439
1287.820, 372.949
1289.029, 61.773
1290.239, 349.498
1291.448, 167.350
1292.656, 271.564
1293.865, 232.760
1295.073, 272.775
1296.282, 279.322
1297.490, 224.020
1298.698, 292.916
1299.906, 179.752
1301.113, 233.988
1302.320, 228.504
1303.528, 82.766
1304.735, 117.422
1305.942, 165.328
1307.148, 446.986
1308.355, 30.678
1309.561, 325.354
1310.767, 226.482
1311.973, 216.506
1313.179, 149.420
1314.384, 505.055
1315.590, 283.701
1316.795, 437.740
1318.000, 268.402
1319.205, 429.889
1320.410, 521.742
1321.614, 132.557
1322.819, 366.402
1324.023, 154.172
1325.227, 288.369
1326.431, 211.521
1327.634, 13.506
1328.838, 199.076
1330.041, 267.051
1331.244, 260.391
1332.447, 176.133
1333.650, 120.723
1334.852, 133.295
1336.055, 65.570
1337.257, 154.609
1338.459, 36.186
1339.661, 186.070
1340.862, 65.818
1342.064, 29.807
1343.265, 85.719
1344.466, 193.771
1345.667, 90.227
1346.868, 241.223
1348.068, 232.701
1349.269, 210.947
1350.469, 329.885
1351.669, 193.789
1352.869, 257.088
1354.069, 276.088
1355.268, 43.504
1356.468, 255.773
1357.667, 318.727
1358.866, 46.141
1360.065, 267.359
1361.263, 99.152
1362.462, 186.064
1363.660, 233.053
1364.858, 176.316
1366.056, 214.480
1367.254, 457.174
1368.451, 165.541
1369.649, 35.172
1370.846, 209.279
1372.043, 28.295
1373.240, 273.080
1374.436, 366.266
1375.633, 283.295
1376.829, 335.906
1378.025, 45.346
1379.221, 327.719
1380.417, 198.316
1381.613, 396.738
1382.808, 535.418
1384.003, 344.406
1385.199, 607.172
1386.393, 100.660
1387.588, 252.629
1388.783, 283.516
1389.977, 485.156
1391.171, 385.629
1392.365, 163.750
1393.559, 546.428
1394.753, 248.387
1395.946, 300.150
1397.140, 244.184
1398.333, 425.273
1399.526, 344.320
1400.719, 465.295
1401.911, 285.686
1403.104, 259.131
1404.296, 184.861
1405.488, 419.092
1406.680, 130.080
1407.872, 224.109
1409.063, 518.445
1410.255, 237.752
1411.446, 511.871
1412.637, 229.904
1413.828, 429.297
1415.018, 492.238
1416.209, 427.332
1417.399, 292.078
1418.589, 379.766
1419.779, 430.250
1420.969, 532.723
1422.159, 247.379
1423.348, 472.309
1424.537, 498.611
1425.726, 331.492
1426.915, 460.018
1428.104, 346.605
1429.293, 415.406
1430.481, 358.918
1431.669, 630.836
1432.857, 458.291
1434.045, 375.498
1435.233, 839.172
1436.420, 818.873
1437.608, 674.467
1438.795, 692.893
1439.982, 980.729
1441.169, 1163.789
1442.355, 1021.711
1443.542, 1247.623
1444.728, 1092.875
1445.914, 1333.770
1447.100, 1255.762
1448.286, 1341.078
1449.472, 1190.363
1450.657, 1716.430
1451.842, 1432.207
1453.027, 1547.141
1454.212, 1732.871
1455.397, 1577.619
1456.581, 1577.303
1457.766, 1722.473
1458.950, 1441.078
1460.134, 1798.586
1461.318, 1224.988
1462.501, 1369.293
1463.685, 1487.166
1464.868, 1089.619
1466.051, 1465.797
1467.234, 945.883
1468.417, 1149.908
1469.600, 1087.887
1470.782, 923.764
1471.965, 787.516
1473.147, 717.207
1474.329, 936.777
1475.510, 626.982
1476.692, 724.494
1477.873, 852.068
1479.055, 551.592
1480.236, 944.160
1481.416, 625.795
1482.597, 773.885
1483.778, 837.996
1484.958, 700.193
1486.138, 688.553
1487.318, 997.111
1488.498, 553.744
1489.678, 454.441
1490.857, 385.217
1492.037, 702.084
1493.216, 422.100
1494.395, 325.275
1495.574, 433.623
1496.752, 50.188
1497.931, 561.016
1499.109, 0.898
1500.287, 96.438
1501.465, 45.932
1502.643, 158.986
1503.820, 117.219
1504.998, 159.781
1506.175, 89.719
1507.352, 123.092
1508.529, 147.957
1509.706, 154.887
1510.882, 261.662
1512.059, 338.594
1513.235, 223.469
1514.411, 67.545
1515.587, 366.797
1516.762, 1.104
1517.938, 171.656
1519.113, 140.605
1520.288, 0.000
##END=



