##NAMES=Scolecite
##RRUFFID=R050083
##IDEAL CHEMISTRY=Ca(Si_3_Al_2_)O_10_&#183;3H_2_O
##LOCALITY=near Ahmednagar, Maharashtra, India
##OWNER=RRUFF
##SOURCE=Rock Currier
##DESCRIPTION=Colorless acicular single crystals associated with fluorapophyllite
##STATUS=The identification of this mineral has been confirmed by X-ray diffraction and chemical analysis
##URL=rruff.info/R050083
##MEASURED CHEMISTRY=(Ca_.992_Na_.008_)[Al_2_Si_3_O_10_]Â·3H_2_O
##PIN_ID=M00106
##ORIENTATION=Laser parallel to (1 0 1). Fiducial mark perpendicular to laser is parallel to b [0 1 0]
49.184, 0.000
50.590, 84.291
51.996, 183.281
53.401, 123.506
54.807, 156.508
56.212, 291.998
57.617, 371.593
59.021, 454.746
60.426, 513.318
61.830, 484.645
63.234, 588.601
64.637, 592.914
66.041, 547.290
67.444, 612.067
68.847, 517.178
70.250, 549.602
71.652, 430.563
73.054, 352.006
74.456, 299.848
75.858, 225.050
77.260, 201.574
78.661, 84.402
80.062, 71.501
81.463, 5.161
82.863, 12.601
84.264, 7.167
85.664, 68.823
87.064, 53.518
88.463, 32.901
89.863, 23.023
91.262, 121.074
92.661, 262.367
94.059, 384.845
95.458, 548.916
96.856, 732.284
98.254, 869.205
99.652, 1066.231
101.049, 1234.333
102.446, 1674.489
103.843, 1993.699
105.240, 2575.048
106.637, 3057.532
108.033, 4208.042
109.429, 5348.561
110.825, 6670.089
112.220, 7356.624
113.616, 6678.183
115.011, 5749.863
116.406, 4638.570
117.800, 3734.294
119.195, 3168.260
120.589, 2686.760
121.983, 2554.579
123.377, 2518.040
124.770, 2901.200
126.163, 3093.314
127.556, 3348.282
128.949, 3044.113
130.342, 2507.812
131.734, 2299.387
133.126, 2135.893
134.518, 2413.477
135.909, 3004.122
137.301, 4235.804
138.692, 5988.503
140.083, 8448.196
141.473, 10928.864
142.864, 12079.477
144.254, 12050.021
145.644, 9860.482
147.034, 7674.855
148.423, 6205.115
149.812, 5447.207
151.201, 5527.116
152.590, 6115.796
153.979, 7770.331
155.367, 9429.823
156.755, 11919.287
158.143, 13909.459
159.530, 14350.684
160.918, 13623.160
162.305, 11224.329
163.692, 9244.365
165.078, 7305.597
166.465, 6263.810
167.851, 5597.006
169.237, 5146.186
170.623, 4877.351
172.008, 4593.497
173.393, 4577.629
174.778, 4436.746
176.163, 4680.030
177.548, 4937.157
178.932, 5541.111
180.316, 6462.042
181.700, 7159.756
183.083, 8259.052
184.467, 8918.616
185.850, 9238.238
187.233, 9092.706
188.616, 8061.734
189.998, 7008.862
191.380, 5477.613
192.762, 4614.830
194.144, 3556.615
195.525, 2968.530
196.907, 2536.454
198.288, 2320.623
199.669, 2366.963
201.049, 2168.714
202.429, 2296.234
203.810, 2510.753
205.189, 2646.271
206.569, 2780.785
207.949, 2633.294
209.328, 2552.794
210.707, 2218.289
212.085, 2066.777
213.464, 1940.260
214.842, 1974.738
216.220, 2206.268
217.598, 2377.701
218.976, 2996.914
220.353, 3481.855
221.730, 4021.487
223.107, 4193.808
224.483, 3831.796
225.860, 3322.408
227.236, 2401.671
228.612, 1834.615
229.988, 1491.256
231.363, 1368.543
232.738, 1430.340
234.113, 1395.641
235.488, 1405.479
236.863, 1147.124
238.237, 931.580
239.611, 679.764
240.985, 523.783
242.359, 430.493
243.732, 352.081
245.105, 358.574
246.478, 337.973
247.851, 479.285
249.223, 628.298
250.595, 877.632
251.967, 1279.428
253.339, 1561.325
254.711, 1882.646
256.082, 1759.708
257.453, 1566.178
258.824, 1200.510
260.195, 759.359
261.565, 546.211
262.935, 325.066
264.305, 231.923
265.675, 88.782
267.044, 88.641
268.414, 42.498
269.783, 14.353
271.151, 52.201
272.520, 25.045
273.888, 116.885
275.256, 122.722
276.624, 123.558
277.992, 260.392
279.359, 285.226
280.726, 432.059
282.093, 565.890
283.460, 790.721
284.827, 1059.549
286.193, 1237.372
287.559, 1617.189
288.925, 1724.997
290.290, 1835.793
291.656, 1513.578
293.021, 1265.351
294.386, 966.114
295.750, 621.869
297.115, 489.616
298.479, 268.359
299.843, 201.099
301.207, 114.829
302.570, 58.551
303.933, 40.262
305.296, 18.033
306.659, 48.650
308.022, 22.323
309.384, 76.986
310.746, 83.639
312.108, 42.283
313.470, 102.920
314.831, 89.550
316.193, 73.174
317.554, 54.794
318.914, 70.409
320.275, 33.021
321.635, 26.371
322.995, 10.782
324.355, 15.213
325.715, 86.670
327.074, 92.167
328.434, 83.699
329.792, 71.260
331.151, 64.845
332.510, 36.453
333.868, 15.076
335.226, 76.707
336.584, 56.364
337.941, 125.039
339.299, 99.752
340.656, 172.494
342.013, 173.291
343.370, 156.153
344.726, 174.065
346.082, 54.027
347.438, 71.006
348.794, 21.992
350.150, 96.989
351.505, 194.962
352.860, 250.891
354.215, 303.755
355.570, 375.324
356.924, 357.361
358.278, 504.107
359.632, 523.781
360.986, 610.350
362.339, 755.822
363.693, 827.260
365.046, 931.707
366.399, 1008.165
367.751, 1181.634
369.104, 1254.114
370.456, 1290.605
371.808, 1322.857
373.159, 1255.623
374.511, 1243.149
375.862, 1142.687
377.213, 1010.237
378.564, 993.799
379.914, 775.348
381.265, 728.884
382.615, 639.409
383.965, 563.923
385.315, 583.428
386.664, 522.925
388.013, 516.416
389.362, 519.902
390.711, 555.385
392.060, 584.867
393.408, 612.348
394.756, 784.830
396.104, 778.316
397.451, 988.808
398.799, 1171.307
400.146, 1294.816
401.493, 1615.333
402.840, 1793.862
404.186, 2196.402
405.533, 2319.956
406.879, 2468.523
408.225, 2482.107
409.570, 2220.712
410.916, 2116.343
412.261, 1727.005
413.606, 1584.689
414.951, 1225.418
416.295, 1030.185
417.639, 961.985
418.983, 853.814
420.327, 840.759
421.671, 836.514
423.014, 915.379
424.357, 1004.255
425.700, 1115.141
427.043, 1483.036
428.386, 1581.464
429.728, 2007.910
431.070, 2241.104
432.412, 2630.579
433.753, 3187.908
435.095, 3346.914
436.436, 3854.582
437.777, 4064.294
439.118, 4328.028
440.458, 4982.037
441.798, 5154.056
443.138, 5947.086
444.478, 6407.125
445.818, 7229.176
447.157, 7952.238
448.496, 8390.312
449.835, 9078.396
451.174, 9116.490
452.513, 9364.597
453.851, 9192.712
455.189, 8640.844
456.527, 8339.417
457.864, 7223.667
459.202, 6472.864
460.539, 5332.227
461.876, 4484.414
463.212, 3717.695
464.549, 2940.538
465.885, 2536.241
467.221, 2044.996
468.557, 1782.863
469.893, 1531.642
471.228, 1300.681
472.563, 1214.787
473.898, 1004.758
475.233, 1064.029
476.567, 1046.282
477.902, 972.525
479.236, 1042.739
480.570, 1001.050
481.903, 1148.250
483.237, 1197.026
484.570, 1195.852
485.903, 1414.472
487.235, 1388.677
488.568, 1523.608
489.900, 1668.136
491.232, 1786.517
492.564, 1969.370
493.896, 2015.076
495.227, 2291.199
496.558, 2358.512
497.889, 2594.173
499.220, 2787.593
500.551, 2851.661
501.881, 3166.237
503.211, 3120.825
504.541, 3448.566
505.870, 3581.258
507.200, 3751.549
508.529, 4093.849
509.858, 4177.899
511.187, 4543.185
512.515, 4704.493
513.844, 5101.829
515.172, 5636.194
516.500, 5869.585
517.827, 6608.002
519.155, 7020.443
520.482, 7975.905
521.809, 9035.394
523.136, 9754.905
524.462, 11644.438
525.789, 13434.004
527.115, 16123.592
528.441, 19813.203
529.766, 24252.836
531.092, 31722.486
532.417, 37582.164
533.742, 47011.875
535.067, 52921.602
536.391, 55211.336
537.716, 54021.113
539.040, 45700.906
540.364, 38040.723
541.688, 29680.547
543.011, 22630.410
544.334, 18630.283
545.657, 14180.183
546.980, 11840.104
548.303, 9710.046
549.625, 8020.009
550.947, 7189.996
552.269, 5847.003
553.591, 5427.031
554.913, 4786.082
556.234, 4353.154
557.555, 3975.247
558.876, 3660.362
560.197, 3480.498
561.517, 3206.656
562.837, 3106.834
564.157, 2967.033
565.477, 2723.254
566.797, 2739.495
568.116, 2430.758
569.435, 2455.041
570.754, 2306.345
572.073, 2076.668
573.391, 2015.013
574.709, 1811.377
576.027, 1679.761
577.345, 1594.165
578.663, 1434.588
579.980, 1433.031
581.297, 1243.492
582.614, 1162.294
583.931, 1015.794
585.248, 925.313
586.564, 879.311
587.880, 748.870
589.196, 708.822
590.511, 656.423
591.827, 546.517
593.142, 541.165
594.457, 396.836
595.772, 386.526
597.086, 347.236
598.401, 273.965
599.715, 296.711
601.029, 178.476
602.343, 226.258
603.656, 83.056
604.969, 67.873
606.282, 102.707
607.595, 11.558
608.908, 64.426
610.220, 9.310
611.532, 8.212
612.844, 22.130
614.156, 34.936
615.468, 9.990
616.779, 63.028
618.090, 69.060
619.401, 55.912
620.712, 21.100
622.022, 40.948
623.332, 57.860
624.642, 17.784
625.952, 54.356
627.262, 5.501
628.571, 91.674
629.880, 83.634
631.189, 98.435
632.498, 148.025
633.807, 122.515
635.115, 279.374
636.423, 208.320
637.731, 294.665
639.039, 397.937
640.346, 378.503
641.653, 488.816
642.960, 588.244
644.267, 605.852
645.574, 662.853
646.880, 629.051
648.186, 800.647
649.492, 753.569
650.798, 807.632
652.103, 832.835
653.409, 727.350
654.714, 798.201
656.019, 731.192
657.323, 734.902
658.628, 683.843
659.932, 577.332
661.236, 577.004
662.540, 544.723
663.843, 524.067
665.147, 513.053
666.450, 424.389
667.753, 458.045
669.056, 398.193
670.358, 366.805
671.660, 378.870
672.963, 299.863
674.264, 384.777
675.566, 244.426
676.868, 269.454
678.169, 213.324
679.470, 200.359
680.771, 220.409
682.071, 146.485
683.372, 245.434
684.672, 232.383
685.972, 260.461
687.271, 402.444
688.571, 355.622
689.870, 541.572
691.169, 623.636
692.468, 693.586
693.767, 783.536
695.065, 782.625
696.364, 936.573
697.662, 916.596
698.960, 829.541
700.257, 1035.484
701.555, 1017.556
702.852, 1308.495
704.149, 1428.433
705.446, 1451.368
706.742, 1637.301
708.038, 1486.231
709.335, 1530.158
710.631, 1418.083
711.926, 1223.004
713.222, 1144.922
714.517, 875.878
715.812, 798.789
717.107, 645.696
718.402, 527.599
719.696, 498.497
720.990, 355.391
722.284, 411.281
723.578, 384.166
724.872, 345.107
726.165, 348.982
727.458, 293.853
728.751, 291.718
730.044, 265.577
731.336, 195.430
732.629, 215.278
733.921, 111.120
735.213, 109.955
736.504, 117.784
737.796, 2.393
739.087, 58.418
740.378, 14.222
741.669, 3.980
742.960, 16.804
744.250, 19.419
745.540, 41.336
746.830, 1.917
748.120, 23.817
749.410, 104.542
750.699, 21.259
751.988, 157.968
753.277, 158.668
754.566, 141.360
755.854, 246.043
757.143, 225.717
758.431, 254.382
759.719, 225.038
761.006, 225.684
762.294, 265.321
763.581, 185.948
764.868, 210.566
766.155, 151.174
767.442, 139.771
768.728, 172.358
770.014, 92.502
771.300, 122.972
772.586, 87.495
773.872, 60.854
775.157, 76.389
776.442, 31.690
777.727, 19.203
779.012, 33.788
780.297, 26.094
781.581, 30.568
782.865, 13.972
784.149, 41.541
785.433, 38.157
786.716, 65.818
787.999, 31.539
789.282, 116.303
790.565, 69.154
791.848, 11.069
793.130, 57.016
794.413, 61.020
795.695, 72.084
796.977, 73.190
798.258, 59.412
799.540, 64.669
800.821, 34.989
802.102, 56.357
803.382, 44.784
804.663, 46.266
805.943, 63.802
807.224, 12.597
808.504, 41.028
809.783, 26.706
811.063, 11.571
812.342, 40.178
813.621, 19.019
814.900, 33.806
816.179, 17.683
817.457, 28.399
818.736, 4.541
820.014, 25.516
821.292, 21.461
822.569, 39.415
823.847, 2.350
825.124, 4.748
826.401, 14.118
827.678, 15.956
828.954, 22.769
830.231, 57.558
831.507, 17.331
832.783, 57.077
834.059, 53.807
835.334, 4.481
836.610, 80.195
837.885, 81.855
839.160, 48.499
840.435, 71.125
841.709, 10.734
842.983, 96.317
844.258, 51.882
845.532, 87.431
846.805, 103.964
848.079, 46.481
849.352, 105.980
850.625, 60.464
851.898, 116.931
853.171, 120.382
854.443, 47.817
855.715, 91.236
856.988, 79.637
858.259, 99.024
859.531, 106.396
860.803, 120.753
862.074, 99.094
863.345, 125.420
864.616, 92.730
865.886, 157.024
867.157, 67.304
868.427, 125.567
869.697, 86.818
870.967, 121.054
872.236, 107.275
873.506, 143.489
874.775, 124.688
876.044, 160.871
877.313, 61.040
878.581, 142.193
879.849, 114.331
881.118, 83.454
882.386, 185.562
883.653, 83.655
884.921, 156.733
886.188, 105.797
887.455, 117.846
888.722, 182.880
889.989, 128.900
891.255, 171.584
892.522, 141.575
893.788, 154.552
895.054, 139.054
896.319, 153.002
897.585, 155.408
898.850, 176.374
900.115, 161.924
901.380, 225.817
902.645, 216.697
903.909, 226.563
905.174, 318.415
906.438, 186.254
907.701, 286.080
908.965, 314.892
910.229, 289.692
911.492, 350.478
912.755, 358.252
914.018, 400.012
915.280, 425.760
916.543, 399.495
917.805, 586.217
919.067, 586.926
920.329, 722.624
921.590, 864.308
922.852, 906.983
924.113, 1290.648
925.374, 1451.307
926.635, 1781.959
927.895, 2298.599
929.156, 2667.183
930.416, 3550.635
931.676, 4414.204
932.936, 5227.725
934.195, 5179.222
935.454, 5208.746
936.714, 4544.464
937.973, 3378.347
939.231, 2439.445
940.490, 1967.648
941.748, 1389.488
943.006, 1141.245
944.264, 1006.610
945.522, 750.052
946.780, 779.207
948.037, 667.631
949.294, 598.953
950.551, 676.109
951.808, 515.907
953.064, 603.540
954.320, 579.807
955.577, 576.776
956.832, 670.631
958.088, 600.366
959.344, 720.800
960.599, 816.928
961.854, 866.941
963.109, 1086.276
964.364, 1213.419
965.618, 1539.067
966.872, 2050.586
968.127, 2452.107
969.380, 3230.055
970.634, 3830.383
971.888, 4209.387
973.141, 4188.074
974.394, 3403.279
975.647, 2871.022
976.900, 2243.315
978.152, 1751.683
979.404, 1680.131
980.656, 1358.848
981.908, 1306.200
983.160, 1315.712
984.411, 1318.069
985.663, 1494.414
986.914, 1491.733
988.165, 1551.193
989.415, 1694.654
990.666, 1629.989
991.916, 1841.420
993.166, 1911.787
994.416, 1870.254
995.665, 2032.610
996.915, 1727.093
998.164, 1743.572
999.413, 1721.913
1000.662, 1487.523
1001.911, 1575.951
1003.159, 1559.458
1004.407, 1606.970
1005.655, 1819.357
1006.903, 1814.876
1008.151, 2301.406
1009.398, 2576.351
1010.646, 3015.887
1011.893, 3783.434
1013.139, 4450.030
1014.386, 5550.592
1015.633, 6787.163
1016.879, 7451.742
1018.125, 8510.285
1019.371, 8619.534
1020.616, 7998.177
1021.862, 7556.854
1023.107, 6445.204
1024.352, 6195.829
1025.597, 5888.459
1026.842, 5693.092
1028.086, 6043.671
1029.330, 5175.314
1030.574, 4591.963
1031.818, 3910.615
1033.062, 2924.272
1034.305, 2608.935
1035.548, 2335.614
1036.791, 2138.298
1038.034, 2364.990
1039.277, 2355.686
1040.519, 2752.387
1041.762, 2899.107
1043.004, 2894.832
1044.246, 2923.562
1045.487, 2383.304
1046.729, 2083.052
1047.970, 1835.811
1049.211, 1482.581
1050.452, 1416.359
1051.692, 1276.144
1052.933, 1092.936
1054.173, 1208.733
1055.413, 1021.539
1056.653, 1058.350
1057.893, 1066.167
1059.132, 1039.998
1060.371, 1206.834
1061.610, 1187.681
1062.849, 1267.535
1064.088, 1500.395
1065.326, 1518.262
1066.565, 1655.136
1067.803, 1808.016
1069.041, 1808.902
1070.278, 2121.795
1071.516, 2012.694
1072.753, 2016.094
1073.990, 2087.008
1075.227, 1792.939
1076.464, 1791.876
1077.700, 1557.820
1078.936, 1347.158
1080.173, 1310.118
1081.408, 1116.085
1082.644, 1072.072
1083.880, 1058.066
1085.115, 879.078
1086.350, 983.115
1087.585, 1030.176
1088.820, 1038.277
1090.054, 1161.593
1091.288, 1091.762
1092.522, 1400.251
1093.756, 1536.468
1094.990, 1641.716
1096.224, 1971.994
1097.457, 2062.307
1098.690, 2137.653
1099.923, 2293.030
1101.156, 2114.440
1102.388, 2117.898
1103.621, 1967.363
1104.853, 1641.854
1106.085, 1662.491
1107.316, 1345.043
1108.548, 1220.606
1109.779, 1129.458
1111.010, 905.072
1112.241, 891.731
1113.472, 762.384
1114.703, 577.049
1115.933, 580.836
1117.163, 486.545
1118.393, 468.338
1119.623, 392.076
1120.853, 284.835
1122.082, 330.242
1123.311, 237.022
1124.540, 226.817
1125.769, 217.629
1126.997, 159.453
1128.226, 126.381
1129.454, 170.981
1130.682, 45.833
1131.910, 72.522
1133.138, 136.463
1134.365, 65.339
1135.592, 95.666
1136.819, 2.565
1138.046, 51.593
1139.273, 49.587
1140.499, 12.496
1141.725, 62.574
1142.951, 42.558
1144.177, 0.503
1145.403, 64.956
1146.628, 24.956
1147.854, 12.029
1149.079, 26.464
1150.304, 22.431
1151.528, 38.688
1152.753, 44.209
1153.977, 4.191
1155.201, 68.044
1156.425, 24.907
1157.649, 57.223
1158.872, 15.869
1160.096, 5.027
1161.319, 37.737
1162.542, 14.689
1163.764, 1.707
1164.987, 34.965
1166.209, 31.998
1167.431, 4.930
1168.653, 6.533
1169.875, 58.473
1171.097, 37.262
1172.318, 32.453
1173.539, 19.464
1174.760, 37.921
1175.981, 26.017
1177.202, 31.088
1178.422, 4.372
1179.642, 17.396
1180.862, 27.731
1182.082, 8.656
1183.302, 3.702
1184.521, 72.317
1185.740, 16.475
1186.959, 49.510
1188.178, 32.308
1189.397, 4.346
1190.615, 40.477
1191.834, 33.294
1193.052, 22.499
1194.269, 19.640
1195.487, 10.656
1196.705, 28.703
1197.922, 26.108
1199.139, 24.093
1200.356, 46.551
1201.573, 26.129
1202.789, 43.342
1204.006, 63.459
1205.222, 49.251
1206.438, 15.374
1207.653, 54.375
1208.869, 13.622
1210.084, 114.669
1211.299, 4.213
1212.514, 12.260
1213.729, 83.332
1214.944, 5.377
1216.158, 58.445
1217.372, 15.488
1218.586, 17.038
1219.800, 114.997
1221.014, 7.661
1222.227, 52.725
1223.440, 111.757
1224.654, 32.836
1225.866, 92.180
1227.079, 91.222
1228.292, 37.240
1229.504, 142.275
1230.716, 30.526
1231.928, 28.830
1233.139, 40.834
1234.351, 23.134
1235.562, 3.726
1236.773, 75.270
1237.984, 5.696
1239.195, 92.295
1240.406, 76.287
1241.616, 53.507
1242.826, 74.502
1244.036, 16.568
1245.246, 47.666
1246.456, 62.662
1247.665, 12.741
1248.874, 77.731
1250.083, 38.720
1251.292, 1.808
1252.501, 49.796
1253.709, 28.774
1254.917, 0.979
1256.125, 89.996
1257.333, 13.911
1258.541, 47.031
1259.748, 42.960
1260.956, 6.959
1262.163, 55.882
1263.370, 14.801
1264.576, 52.972
1265.783, 61.877
1266.989, 20.245
1268.195, 51.101
1269.401, 78.949
1270.607, 56.792
1271.813, 86.622
1273.018, 18.426
1274.223, 35.709
1275.428, 82.065
1276.633, 20.180
1277.838, 27.746
1279.042, 54.462
1280.246, 28.823
1281.450, 72.915
1282.654, 18.582
1283.858, 29.296
1285.061, 92.945
1286.265, 16.442
1287.468, 39.151
1288.671, 57.754
1289.873, 11.668
1291.076, 42.087
1292.278, 40.647
1293.480, 58.928
1294.682, 82.161
1295.884, 11.656
1297.086, 6.137
1298.287, 59.620
1299.488, 14.917
1300.689, 46.609
1301.890, 27.610
1303.091, 10.987
1304.291, 37.419
1305.491, 12.277
1306.691, 14.946
1307.891, 62.417
1309.091, 3.305
1310.290, 60.959
1311.490, 52.549
1312.689, 21.261
1313.888, 56.883
1315.086, 27.652
1316.285, 25.529
1317.483, 66.709
1318.681, 11.861
1319.879, 48.997
1321.077, 56.120
1322.275, 20.229
1323.472, 101.321
1324.669, 18.400
1325.866, 28.542
1327.063, 67.491
1328.260, 10.510
1329.456, 42.513
1330.653, 73.500
1331.849, 25.527
1333.045, 82.420
1334.240, 52.638
1335.436, 7.557
1336.631, 36.457
1337.826, 52.343
1339.021, 4.206
1340.216, 104.132
1341.411, 20.962
1342.605, 22.777
1343.799, 72.576
1344.993, 15.362
1346.187, 39.133
1347.381, 61.890
1348.574, 7.365
1349.767, 61.358
1350.961, 6.069
1352.153, 36.763
1353.346, 117.444
1354.539, 18.112
1355.731, 112.766
1356.923, 74.444
1358.115, 86.067
1359.307, 75.678
1360.498, 95.293
1361.690, 21.879
1362.881, 116.959
1364.072, 20.450
1365.263, 75.093
1366.453, 125.626
1367.644, 25.151
1368.834, 95.280
1370.024, 75.797
1371.214, 26.705
1372.404, 76.775
1373.593, 35.250
1374.783, 30.721
1375.972, 131.189
1377.161, 14.787
1378.349, 51.680
1379.538, 120.779
1380.726, 74.904
1381.915, 164.144
1383.103, 114.659
1384.290, 41.163
1385.478, 156.653
1386.665, 72.104
1387.853, 65.444
1389.040, 148.894
1390.227, 71.049
1391.413, 143.351
1392.600, 119.637
1393.786, 68.935
1394.972, 139.297
1396.158, 139.807
1397.344, 42.120
1398.530, 165.313
1399.715, 60.419
1400.900, 104.448
1402.085, 166.787
1403.270, 72.802
1404.455, 151.849
1405.639, 163.745
1406.824, 40.005
1408.008, 153.952
1409.192, 118.346
1410.375, 21.286
1411.559, 102.865
1412.742, 105.538
1413.925, 97.159
1415.108, 165.139
1416.291, 62.273
1417.474, 135.951
1418.656, 129.413
1419.839, 33.130
1421.021, 128.190
1422.202, 74.662
1423.384, 64.926
1424.566, 90.904
1425.747, 58.577
1426.928, 95.917
1428.109, 152.274
1429.290, 45.393
1430.470, 85.398
1431.651, 120.260
1432.831, 28.517
1434.011, 114.948
1435.191, 84.853
1436.370, 2.118
1437.550, 126.395
1438.729, 93.711
1439.908, 60.793
1441.087, 153.860
1442.266, 43.185
1443.444, 156.531
1444.623, 153.452
1445.801, 53.720
1446.979, 179.960
1448.157, 75.283
1449.334, 40.506
1450.512, 127.454
1451.689, 83.028
1452.866, 112.631
1454.043, 136.691
1455.220, 85.778
1456.396, 115.966
1457.573, 148.279
1458.749, 42.289
1459.925, 159.854
1461.100, 144.657
1462.276, 120.782
1463.451, 158.678
1464.627, 63.034
1465.802, 67.013
1466.977, 151.772
1468.151, 75.717
1469.326, 133.532
1470.500, 129.518
1471.674, 77.997
1472.848, 133.818
1474.022, 81.659
1475.195, 4.347
1476.369, 176.361
1477.542, 35.764
1478.715, 58.705
1479.888, 168.739
1481.061, 11.606
1482.233, 42.150
1483.405, 100.066
1484.577, 43.947
1485.749, 123.757
1486.921, 92.891
1488.093, 40.996
1489.264, 134.096
1490.435, 58.122
1491.606, 91.230
1492.777, 139.343
1493.948, 58.490
1495.118, 70.703
1496.288, 156.940
1497.459, 17.224
1498.628, 102.803
1499.798, 82.086
1500.968, 21.472
1502.137, 89.401
1503.306, 101.950
1504.475, 19.574
1505.644, 113.259
1506.813, 58.026
1507.981, 72.886
1509.149, 90.847
1510.318, 26.568
1511.485, 161.751
1512.653, 77.389
1513.821, 38.797
1514.988, 43.924
1516.155, 113.177
1517.322, 1.754
1518.489, 157.106
1519.656, 30.956
1520.822, 0.000
##END=



