##NAMES=Scolecite
##RRUFFID=R050083
##IDEAL CHEMISTRY=Ca(Si_3_Al_2_)O_10_&#183;3H_2_O
##LOCALITY=near Ahmednagar, Maharashtra, India
##OWNER=RRUFF
##SOURCE=Rock Currier
##DESCRIPTION=Colorless acicular single crystals associated with fluorapophyllite
##STATUS=The identification of this mineral has been confirmed by X-ray diffraction and chemical analysis
##URL=rruff.info/R050083
##MEASURED CHEMISTRY=(Ca_.992_Na_.008_)[Al_2_Si_3_O_10_]Â·3H_2_O
##PIN_ID=M00476
##ORIENTATION=Laser parallel to a* (1 0 0). Fiducial mark perpendicular to laser is parallel to b [0 1 0]
98.254, 0.000
99.652, 16.129
101.049, 323.245
102.446, 321.737
103.843, 666.965
105.240, 996.619
106.637, 1000.630
108.033, 2088.740
109.429, 2666.271
110.825, 4811.575
112.220, 4396.800
113.616, 4229.236
115.011, 3986.482
116.406, 2384.155
117.800, 1749.181
119.195, 697.846
120.589, 793.639
121.983, 374.234
123.377, 417.112
124.770, 742.893
126.163, 583.375
127.556, 1211.432
128.949, 1078.947
130.342, 1539.757
131.734, 1635.583
133.126, 1922.149
134.518, 2422.225
135.909, 2697.615
137.301, 4317.159
138.692, 5327.719
140.083, 7639.178
141.473, 8871.791
142.864, 9586.890
144.254, 9062.927
145.644, 7319.296
147.034, 6385.975
148.423, 5122.946
149.812, 5380.539
151.201, 5659.280
152.590, 6669.113
153.979, 8289.824
155.367, 9072.035
156.755, 10525.730
158.143, 10080.271
159.530, 10015.905
160.918, 8252.271
162.305, 6778.577
163.692, 5554.779
165.078, 4110.699
166.465, 3866.361
167.851, 3027.787
169.237, 3011.997
170.623, 2648.004
172.008, 2573.827
173.393, 2598.477
174.778, 2360.966
176.163, 2892.304
177.548, 2578.502
178.932, 3125.571
180.316, 3492.518
181.700, 3746.288
183.083, 4481.337
184.467, 4581.396
185.850, 5480.327
187.233, 5224.216
188.616, 5740.504
189.998, 5102.175
191.380, 4253.855
192.762, 3945.567
194.144, 2655.316
195.525, 2722.113
196.907, 1856.965
198.288, 1942.877
199.669, 1842.854
201.049, 1793.295
202.429, 2240.881
203.810, 2053.444
205.189, 2751.481
206.569, 2297.030
207.949, 2463.530
209.328, 2214.385
210.707, 1909.067
212.085, 2069.085
213.464, 1478.673
214.842, 1988.071
216.220, 1789.700
217.598, 2160.466
218.976, 2455.950
220.353, 2643.176
221.730, 3034.153
223.107, 2699.839
224.483, 2828.330
225.860, 2186.595
227.236, 1745.995
228.612, 1512.189
229.988, 862.467
231.363, 1254.824
232.738, 738.260
234.113, 1118.769
235.488, 870.345
236.863, 675.984
238.237, 833.680
239.611, 235.427
240.985, 609.217
242.359, 112.048
243.732, 441.913
245.105, 296.811
246.478, 223.739
247.851, 631.700
249.223, 268.691
250.595, 1067.713
251.967, 853.766
253.339, 1226.850
254.711, 1411.963
256.082, 1213.107
257.453, 1494.280
258.824, 747.483
260.195, 901.717
261.565, 399.980
262.935, 284.273
264.305, 434.036
265.675, 31.301
267.044, 325.781
268.414, 208.037
269.783, 156.991
271.151, 119.246
272.520, 312.882
273.888, 88.953
275.256, 255.745
276.624, 323.916
277.992, 67.059
279.359, 250.277
280.726, 410.903
282.093, 231.791
283.460, 870.914
284.827, 499.251
286.193, 1189.782
287.559, 1075.501
288.925, 1152.381
290.290, 1525.406
291.656, 925.596
293.021, 1312.908
294.386, 575.386
295.750, 685.963
297.115, 322.628
298.479, 116.374
299.843, 378.194
301.207, 274.888
302.570, 317.024
303.933, 108.006
305.296, 16.986
306.659, 178.021
308.022, 180.883
309.384, 321.196
310.746, 209.696
312.108, 233.385
313.470, 131.508
314.831, 70.394
316.193, 163.712
317.554, 323.168
318.914, 205.874
320.275, 269.083
321.635, 10.889
322.995, 31.842
324.355, 298.225
325.715, 151.607
327.074, 396.576
328.434, 116.115
329.792, 254.209
331.151, 123.621
332.510, 95.910
333.868, 336.571
335.226, 256.840
336.584, 240.759
337.941, 76.559
339.299, 51.135
340.656, 224.866
342.013, 236.324
343.370, 245.491
344.726, 333.609
346.082, 31.294
347.438, 70.761
348.794, 352.731
350.150, 50.464
351.505, 620.214
352.860, 37.872
354.215, 528.522
355.570, 549.198
356.924, 360.879
358.278, 812.566
359.632, 200.257
360.986, 850.954
362.339, 489.660
363.693, 650.370
365.046, 931.976
366.399, 648.532
367.751, 1305.017
369.104, 678.438
370.456, 1166.807
371.808, 979.144
373.159, 756.358
374.511, 1115.455
375.862, 470.430
377.213, 1032.260
378.564, 602.996
379.914, 605.684
381.265, 866.250
382.615, 345.725
383.965, 1048.076
385.315, 316.341
386.664, 767.588
388.013, 729.846
389.362, 471.078
390.711, 977.311
392.060, 306.562
393.408, 1034.832
394.756, 673.118
396.104, 814.421
397.451, 1288.742
398.799, 825.079
400.146, 1707.432
401.493, 1370.802
402.840, 1950.187
404.186, 2330.588
405.533, 2322.004
406.879, 3013.438
408.225, 2454.885
409.570, 2896.349
410.916, 2467.827
412.261, 2143.321
413.606, 2350.830
414.951, 1439.353
416.295, 1827.933
417.639, 1143.526
418.983, 1287.135
420.327, 1454.758
421.671, 1006.396
423.014, 1736.096
424.357, 1225.811
425.700, 1643.541
427.043, 1899.317
428.386, 1978.309
429.728, 3020.193
431.070, 2883.286
432.412, 4135.228
433.753, 4062.650
435.095, 4279.966
436.436, 4701.999
437.777, 3782.297
439.118, 3834.359
440.458, 2953.945
441.798, 2636.032
443.138, 2328.135
444.478, 1619.247
445.818, 2352.367
447.157, 1648.494
448.496, 2219.188
449.835, 2191.325
451.174, 2203.468
452.513, 2772.637
453.851, 2234.785
455.189, 2929.719
456.527, 2461.901
457.864, 2714.083
459.202, 2886.266
460.539, 2178.489
461.876, 2697.295
463.212, 1891.338
464.549, 2096.591
465.885, 1869.432
467.221, 1398.298
468.557, 1982.056
469.893, 1205.570
471.228, 1763.868
472.563, 1433.540
473.898, 1171.863
475.233, 1896.194
476.567, 1271.076
477.902, 2195.397
479.236, 1767.809
480.570, 2030.166
481.903, 2706.507
483.237, 2357.035
484.570, 3278.373
485.903, 3181.553
487.235, 3713.947
488.568, 4191.131
489.900, 3903.527
491.232, 4768.792
492.564, 4211.433
493.896, 4883.881
495.227, 4754.007
496.558, 4396.466
497.889, 4902.018
499.220, 3874.033
500.551, 4250.186
501.881, 3676.391
503.211, 3338.963
504.541, 3623.776
505.870, 2766.379
507.200, 3333.221
508.529, 2864.759
509.858, 3047.384
511.187, 3343.000
512.515, 2725.675
513.844, 3755.832
515.172, 3462.543
516.500, 4045.263
517.827, 4578.002
519.155, 4560.748
520.482, 6043.502
521.809, 6126.898
523.136, 7759.668
524.462, 9082.486
525.789, 11095.312
527.115, 13928.143
528.441, 16244.419
529.766, 21337.266
531.092, 26550.156
532.417, 31043.053
533.742, 37175.961
535.067, 38958.879
536.391, 40651.797
537.716, 37084.785
539.040, 32277.797
540.364, 27270.801
541.688, 20993.836
543.011, 17316.879
544.334, 13369.964
545.657, 10903.067
546.980, 8956.179
548.303, 6969.311
549.625, 6602.455
550.947, 5005.612
552.269, 4448.783
553.591, 4091.967
554.913, 3265.176
556.234, 3598.397
557.555, 2601.631
558.876, 2884.877
560.197, 2468.135
561.517, 2041.424
562.837, 2644.726
564.157, 1768.039
565.477, 2261.363
566.797, 1824.699
568.116, 1618.046
569.435, 2131.404
570.754, 1254.774
572.073, 1868.156
573.391, 1451.548
574.709, 1213.981
576.027, 1707.425
577.345, 827.879
578.663, 1584.346
579.980, 913.820
581.297, 1072.307
582.614, 1365.800
583.931, 565.301
585.248, 1322.873
586.564, 766.392
587.880, 822.585
589.196, 1007.122
590.511, 264.706
591.827, 1116.301
593.142, 376.923
594.457, 675.716
595.772, 724.415
597.086, 112.174
598.401, 847.937
599.715, 109.718
601.029, 518.810
602.343, 472.618
603.656, 38.431
604.969, 637.250
606.282, 61.928
607.595, 353.960
608.908, 183.764
610.220, 139.429
611.532, 482.396
612.844, 237.853
614.156, 519.709
615.468, 239.354
616.779, 14.001
618.090, 627.167
619.401, 127.182
620.712, 501.890
622.022, 306.553
623.332, 111.217
624.642, 778.133
625.952, 104.165
627.262, 737.279
628.571, 231.981
629.880, 245.684
631.189, 748.326
632.498, 86.915
633.807, 688.497
635.115, 305.278
636.423, 170.058
637.731, 792.942
639.039, 22.191
640.346, 716.735
641.653, 242.672
642.960, 312.614
644.267, 835.713
645.574, 87.736
646.880, 1043.867
648.186, 561.180
649.492, 579.383
650.798, 1008.280
652.103, 316.523
653.409, 1076.859
654.714, 580.703
656.019, 543.108
657.323, 950.661
658.628, 313.091
659.932, 1049.588
661.236, 392.290
662.540, 544.856
663.843, 788.084
665.147, 85.668
666.450, 867.252
667.753, 306.688
669.056, 569.293
670.358, 605.339
671.660, 48.057
672.963, 772.503
674.264, 299.338
675.566, 470.884
676.868, 660.422
678.169, 13.952
679.470, 857.466
680.771, 144.286
682.071, 341.784
683.372, 702.274
684.672, 30.245
685.972, 919.193
687.271, 394.189
688.571, 663.609
689.870, 1129.020
691.169, 399.422
692.468, 1337.812
693.767, 682.645
695.065, 899.017
696.364, 1263.376
697.662, 552.150
698.960, 1293.490
700.257, 864.898
701.555, 979.215
702.852, 1553.519
704.149, 949.105
705.446, 1763.385
706.742, 1207.652
708.038, 1331.908
709.335, 1656.151
710.631, 813.217
711.926, 1577.433
713.222, 701.637
714.517, 795.827
715.812, 1220.005
717.107, 251.628
718.402, 1312.778
719.696, 499.914
720.990, 641.034
722.284, 935.142
723.578, 173.285
724.872, 1063.361
726.165, 399.424
727.458, 503.861
728.751, 885.893
730.044, 87.897
731.336, 931.021
732.629, 230.926
733.921, 252.340
735.213, 713.211
736.504, 117.934
737.796, 720.808
739.087, 238.532
740.378, 150.401
741.669, 752.091
742.960, 31.235
744.250, 649.367
745.540, 282.954
746.830, 224.227
748.120, 860.777
749.410, 36.690
750.699, 727.770
751.988, 461.209
753.277, 233.631
754.566, 908.033
755.854, 64.418
757.143, 818.473
758.431, 541.806
759.719, 249.120
761.006, 1048.415
762.294, 159.128
763.581, 802.383
764.868, 635.618
766.155, 156.810
767.442, 1045.006
768.728, 56.602
770.014, 638.494
771.300, 551.570
772.586, 97.371
773.872, 927.584
775.157, 68.062
776.442, 296.788
777.727, 519.622
779.012, 63.562
780.297, 795.168
781.581, 27.599
782.865, 345.051
784.149, 607.683
785.433, 60.705
786.716, 642.826
787.999, 85.695
789.282, 233.183
790.565, 625.650
791.848, 96.899
793.130, 710.450
794.413, 181.758
795.695, 324.070
796.977, 706.362
798.258, 98.364
799.540, 680.809
800.821, 192.962
802.102, 135.095
803.382, 777.205
804.663, 139.704
805.943, 631.265
807.224, 363.212
808.504, 105.860
809.783, 816.961
811.063, 132.238
812.342, 680.443
813.621, 462.105
814.900, 22.209
816.179, 935.416
817.457, 87.021
818.736, 538.598
820.014, 540.154
821.292, 81.299
822.569, 793.155
823.847, 27.411
825.124, 465.962
826.401, 593.312
827.678, 4.643
828.954, 835.930
830.231, 167.196
831.507, 258.450
832.783, 669.051
834.059, 108.734
835.334, 851.380
836.610, 282.477
837.885, 223.554
839.160, 781.178
840.435, 67.781
841.709, 783.188
842.983, 344.138
844.258, 205.069
845.532, 965.984
846.805, 163.118
848.079, 667.653
849.352, 378.406
850.625, 19.143
851.898, 919.854
853.171, 79.451
854.443, 641.163
855.715, 561.762
856.988, 22.344
858.259, 1052.897
859.531, 313.435
860.803, 503.955
862.074, 744.461
863.345, 15.067
864.616, 905.369
865.886, 275.784
867.157, 276.156
868.427, 836.507
869.697, 43.164
870.967, 917.122
872.236, 347.385
873.506, 287.592
874.775, 857.775
876.044, 127.937
877.313, 648.076
878.581, 518.194
879.849, 78.293
881.118, 858.363
882.386, 91.586
883.653, 519.413
884.921, 659.392
886.188, 49.330
887.455, 1019.245
888.722, 299.141
889.989, 518.014
891.255, 987.871
892.522, 77.709
893.788, 1027.464
895.054, 327.266
896.319, 331.385
897.585, 1051.150
898.850, 10.899
900.115, 930.629
901.380, 700.343
902.645, 203.942
903.909, 1073.625
905.174, 153.292
906.438, 692.945
907.701, 722.584
908.965, 59.095
910.229, 1020.499
911.492, 160.080
912.755, 579.650
914.018, 1059.208
915.280, 198.681
916.543, 1308.229
917.805, 567.766
919.067, 627.244
920.329, 1296.793
921.590, 409.467
922.852, 1429.052
924.113, 1338.629
925.374, 858.682
926.635, 2028.240
927.895, 1150.346
929.156, 2189.922
930.416, 2639.490
931.676, 2551.836
932.936, 4251.393
934.195, 4276.180
935.454, 4985.753
936.714, 5925.322
937.973, 4608.006
939.231, 5067.570
940.490, 3816.495
941.748, 2776.076
943.006, 2665.656
944.264, 1316.220
945.522, 1765.801
946.780, 1465.392
948.037, 954.984
949.294, 1884.579
950.551, 695.106
951.808, 1214.712
953.064, 1354.323
954.320, 423.758
955.577, 1403.385
956.832, 591.367
958.088, 581.012
959.344, 1290.668
960.599, 70.826
961.854, 1220.508
963.109, 559.055
964.364, 348.766
965.618, 1258.962
966.872, 314.499
968.127, 974.344
969.380, 933.459
970.634, 333.263
971.888, 1285.284
973.141, 527.278
974.394, 867.155
975.647, 1312.613
976.900, 472.546
978.152, 1582.530
979.404, 1170.266
980.656, 1300.317
981.908, 2581.254
983.160, 1771.383
984.411, 3271.559
985.663, 3382.463
986.914, 2772.729
988.165, 3673.045
989.415, 2243.119
990.666, 2133.247
991.916, 2428.174
993.166, 1188.302
994.416, 2098.466
995.665, 1508.668
996.915, 1468.907
998.164, 2206.682
999.413, 1366.936
1000.662, 2307.211
1001.911, 2557.420
1003.159, 2337.695
1004.407, 3710.937
1005.655, 3271.311
1006.903, 3921.750
1008.151, 4800.770
1009.398, 3911.123
1010.646, 4861.539
1011.893, 3942.172
1013.139, 3168.741
1014.386, 3788.129
1015.633, 2337.494
1016.879, 2672.230
1018.125, 2471.521
1019.371, 1540.740
1020.616, 2529.996
1021.862, 1508.817
1023.107, 1720.302
1024.352, 2338.949
1025.597, 1248.151
1026.842, 2197.447
1028.086, 2086.553
1029.330, 1765.855
1030.574, 3114.375
1031.818, 2283.681
1033.062, 3153.041
1034.305, 3202.396
1035.548, 2267.348
1036.791, 3426.661
1038.034, 2585.966
1039.277, 2825.267
1040.519, 4074.562
1041.762, 3373.891
1043.004, 5263.250
1044.246, 6182.713
1045.487, 6302.258
1046.729, 8291.845
1047.970, 6901.498
1049.211, 6241.181
1050.452, 5710.950
1051.692, 3630.729
1052.933, 3930.566
1054.173, 2630.462
1055.413, 1900.363
1056.653, 2390.384
1057.893, 750.410
1059.132, 1420.521
1060.371, 1230.717
1061.610, 461.048
1062.849, 1621.539
1064.088, 711.938
1065.326, 1052.381
1066.565, 1352.823
1067.803, 413.374
1069.041, 1374.005
1070.278, 914.665
1071.516, 475.350
1072.753, 1536.033
1073.990, 456.865
1075.227, 967.705
1076.464, 1228.598
1077.700, 209.547
1078.936, 1150.508
1080.173, 491.683
1081.408, 502.873
1082.644, 1204.144
1083.880, 225.491
1085.115, 1086.883
1086.350, 1008.289
1087.585, 459.803
1088.820, 1641.430
1090.054, 873.180
1091.288, 1205.020
1092.522, 2027.113
1093.756, 949.313
1094.990, 2201.623
1096.224, 1974.060
1097.457, 1566.610
1098.690, 2609.383
1099.923, 1522.293
1101.156, 1975.346
1102.388, 2268.544
1103.621, 1171.894
1104.853, 2015.397
1106.085, 1479.061
1107.316, 882.889
1108.548, 1606.890
1109.779, 521.070
1111.010, 815.435
1112.241, 659.983
1113.472, 205.270
1114.703, 799.687
1115.933, 5.141
1117.163, 230.265
1118.393, 1145.916
1119.623, 58.172
1120.853, 898.014
1122.082, 954.488
1123.311, 161.275
1124.540, 1448.393
1125.769, 425.860
1126.997, 653.691
1128.226, 1201.904
1129.454, 9.482
1130.682, 839.556
1131.910, 499.040
1133.138, 159.004
1134.365, 1329.478
1135.592, 200.501
1136.819, 554.488
1138.046, 1052.316
1139.273, 19.107
1140.499, 1082.730
1141.725, 530.458
1142.951, 288.065
1144.177, 1165.391
1145.403, 193.389
1146.628, 648.503
1147.854, 922.071
1149.079, 18.224
1150.304, 1071.365
1151.528, 540.519
1152.753, 180.498
1153.977, 1212.811
1155.201, 244.530
1156.425, 730.948
1157.649, 1110.576
1158.872, 0.000
##END=



