##NAMES=Scolecite
##RRUFFID=R040111
##IDEAL CHEMISTRY=Ca(Si_3_Al_2_)O_10_&#183;3H_2_O
##LOCALITY=Bombay-Poona area, Mahahashtra Province, India
##OWNER=RRUFF
##SOURCE=National Museums of Canada
##DESCRIPTION=Pale pink prismatic crystals in parallel or near parallel aggregates
##STATUS=The identification of this mineral has been confirmed by X-ray diffraction and chemical analysis
##URL=rruff.info/R040111
##MEASURED CHEMISTRY=Ca_0.98_(Si_3.05_Al_1.95_)O_10_Â·3H_2_O
##PIN_ID=M00095
##ORIENTATION=Laser parallel to -b* (0 -1 0). Fiducial mark perpendicular to laser is parallel to -c [0 0 -1]
73.842, 0.000
75.239, 105.160
76.635, 36.596
78.031, 15.726
79.427, 142.871
80.823, 343.982
82.218, 724.638
83.614, 1014.999
85.009, 1509.896
86.404, 1902.048
87.798, 2568.090
89.193, 3564.349
90.587, 4398.775
91.981, 5451.668
93.375, 6343.612
94.768, 7450.498
96.161, 8502.047
97.554, 8681.502
98.947, 8722.853
100.340, 8649.292
101.732, 8922.175
103.124, 9084.178
104.516, 8954.165
105.908, 8609.675
107.300, 8348.298
108.691, 8956.681
110.082, 9505.539
111.473, 9750.614
112.864, 9739.696
114.254, 9987.597
115.644, 11475.217
117.034, 13024.024
118.424, 12868.767
119.813, 11609.039
121.203, 9826.715
122.592, 8804.799
123.981, 7990.276
125.369, 7515.149
126.758, 7192.408
128.146, 6029.052
129.534, 5026.150
130.922, 3699.396
132.309, 2630.073
133.696, 2106.144
135.083, 2260.287
136.470, 2503.448
137.857, 3133.665
139.243, 3707.960
140.630, 4572.344
142.016, 4870.816
143.401, 4555.387
144.787, 3792.056
146.172, 2888.822
147.557, 2535.688
148.942, 2603.652
150.327, 3051.716
151.711, 3955.877
153.096, 5216.134
154.480, 6557.557
155.863, 7926.467
157.247, 8972.443
158.630, 8855.776
160.013, 7935.614
161.396, 6585.874
162.779, 5245.903
164.161, 4223.633
165.544, 3487.507
166.926, 2996.551
168.308, 2755.783
169.689, 2654.222
171.070, 2740.874
172.452, 2623.749
173.833, 2793.851
175.213, 3017.180
176.594, 3280.738
177.974, 3895.525
179.354, 4635.537
180.734, 5284.770
182.114, 5876.219
183.493, 6070.879
184.872, 6018.012
186.251, 5632.990
187.630, 4942.615
189.008, 4127.512
190.387, 3374.222
191.765, 2840.296
193.143, 2417.827
194.520, 2156.521
195.898, 2048.796
197.275, 2288.571
198.652, 2555.773
200.029, 2920.352
201.405, 3241.258
202.782, 3557.383
204.158, 3745.689
205.534, 3472.104
206.909, 2724.628
208.285, 2466.254
209.660, 1848.983
211.035, 1334.812
212.410, 1089.738
213.784, 1034.754
215.159, 1030.847
216.533, 1294.008
217.907, 1590.233
219.281, 2093.523
220.654, 2451.876
222.027, 2797.289
223.400, 2785.762
224.773, 2468.293
226.146, 1972.879
227.518, 1489.521
228.891, 1132.215
230.263, 768.962
231.634, 641.758
233.006, 355.414
234.377, 148.099
235.748, 116.680
237.119, 289.752
238.490, 261.659
239.860, 392.290
241.231, 481.314
242.601, 594.115
243.970, 386.897
245.340, 326.206
246.709, 344.281
248.079, 144.317
249.448, 71.422
250.816, 161.624
252.185, 383.086
253.553, 699.578
254.921, 1006.294
256.289, 1031.543
257.657, 1012.276
259.024, 949.450
260.391, 905.025
261.758, 615.967
263.125, 583.239
264.492, 624.816
265.858, 723.673
267.224, 1027.788
268.590, 1208.141
269.956, 1716.712
271.321, 1961.486
272.687, 2177.448
274.052, 2052.584
275.416, 2288.881
276.781, 2496.330
278.146, 2870.920
279.510, 3660.641
280.874, 3998.478
282.237, 4268.400
283.601, 3721.396
284.964, 3122.461
286.327, 2597.592
287.690, 1998.788
289.053, 1258.051
290.416, 1061.377
291.778, 552.769
293.140, 442.223
294.502, 7.263
295.863, 145.718
297.225, 203.188
298.586, 438.696
299.947, 327.297
301.308, 498.965
302.668, 325.741
304.029, 334.587
305.389, 233.479
306.749, 178.133
308.108, 28.928
309.468, 10.979
310.827, 72.512
312.186, 149.314
313.545, 448.160
314.903, 535.016
316.262, 472.378
317.620, 682.089
318.978, 642.314
320.336, 757.043
321.693, 847.143
323.051, 1087.768
324.408, 1226.796
325.765, 1785.995
327.121, 2051.536
328.478, 2429.673
329.834, 2712.613
331.190, 2861.496
332.546, 2478.528
333.902, 2473.611
335.257, 2288.690
336.612, 2215.794
337.967, 2295.918
339.322, 2329.062
340.677, 2473.225
342.031, 2467.404
343.385, 2445.604
344.739, 2320.817
346.093, 2176.046
347.446, 2217.289
348.799, 1921.519
350.153, 1885.609
351.505, 1684.421
352.858, 1548.937
354.210, 1534.242
355.563, 1365.448
356.915, 1545.637
358.267, 1719.842
359.618, 1776.062
360.969, 1851.713
362.321, 1865.535
363.672, 1841.785
365.022, 1836.042
366.373, 1732.874
367.723, 1663.570
369.073, 1605.841
370.423, 1602.114
371.773, 1558.392
373.122, 1442.670
374.471, 1596.950
375.821, 1265.232
377.169, 1327.514
378.518, 1067.796
379.866, 1003.078
381.215, 904.358
382.563, 698.640
383.910, 610.918
385.258, 488.195
386.605, 574.471
387.952, 359.743
389.299, 326.011
390.646, 191.272
391.992, 313.512
393.339, 268.742
394.685, 246.959
396.031, 420.154
397.376, 267.321
398.722, 366.660
400.067, 542.507
401.412, 643.577
402.757, 787.542
404.101, 758.091
405.446, 728.002
406.790, 685.341
408.134, 712.597
409.478, 574.985
410.821, 475.283
412.165, 195.394
413.508, 372.857
414.851, 256.336
416.193, 363.818
417.536, 503.312
418.878, 687.810
420.220, 953.311
421.562, 1233.543
422.904, 1563.572
424.245, 1991.809
425.586, 2379.303
426.927, 2941.789
428.268, 3525.268
429.609, 4068.737
430.949, 4805.197
432.289, 5384.644
433.629, 5563.079
434.969, 5953.501
436.309, 5813.908
437.648, 5956.301
438.987, 5786.677
440.326, 5569.035
441.665, 5615.377
443.003, 5671.699
444.342, 5645.003
445.680, 5584.287
447.018, 5522.554
448.355, 5012.799
449.693, 4576.711
451.030, 4145.812
452.367, 3709.113
453.704, 2944.053
455.041, 2431.314
456.377, 1905.384
457.713, 1613.865
459.049, 1223.176
460.385, 898.579
461.721, 734.863
463.056, 415.604
464.391, 409.566
465.726, 239.867
467.061, 123.492
468.395, 75.936
469.730, 49.774
471.064, 91.548
472.398, 27.823
473.731, 249.972
475.065, 147.275
476.398, 189.702
477.731, 109.997
479.064, 135.650
480.397, 112.410
481.729, 20.258
483.062, 87.171
484.394, 115.185
485.725, 18.305
487.057, 75.471
488.389, 76.274
489.720, 49.001
491.051, 23.732
492.382, 230.414
493.712, 224.132
495.043, 295.838
496.373, 256.533
497.703, 480.218
499.032, 484.913
500.362, 593.616
501.691, 812.324
503.020, 742.019
504.349, 1070.700
505.678, 1233.367
507.007, 1374.025
508.335, 1622.669
509.663, 1804.320
510.991, 2264.956
512.319, 2396.578
513.646, 2890.188
514.973, 3157.787
516.300, 3709.374
517.627, 4314.949
518.954, 4958.512
520.280, 6035.061
521.607, 7081.597
522.933, 8626.123
524.259, 10217.629
525.584, 12630.129
526.910, 16220.610
528.235, 20413.084
529.560, 25856.535
530.885, 31478.982
532.209, 37844.418
533.534, 43450.832
534.858, 46037.238
536.182, 44578.621
537.506, 39677.992
538.829, 32743.354
540.152, 26023.701
541.476, 20502.023
542.799, 15727.347
544.121, 12496.647
545.444, 10037.938
546.766, 8186.211
548.088, 6818.281
549.410, 5772.930
550.732, 4930.375
552.053, 4306.697
553.375, 3797.053
554.696, 3465.826
556.017, 3160.997
557.337, 2932.141
558.658, 2627.044
559.978, 2416.246
561.298, 2405.479
562.618, 2141.771
563.938, 1927.141
565.257, 1869.611
566.576, 1650.140
567.895, 1633.711
569.214, 1579.331
570.533, 1457.961
571.851, 1107.263
573.170, 1217.872
574.488, 1057.096
575.805, 907.673
577.123, 890.232
578.440, 806.006
579.758, 792.921
581.075, 777.810
582.391, 806.301
583.708, 836.774
585.024, 845.230
586.341, 843.671
587.657, 1003.093
588.972, 917.496
590.288, 836.883
591.603, 681.253
592.918, 712.604
594.233, 629.938
595.548, 679.254
596.863, 561.553
598.177, 556.834
599.491, 573.099
600.805, 517.344
602.119, 438.572
603.432, 320.782
604.746, 324.977
606.059, 226.152
607.372, 115.310
608.685, 97.644
609.997, 79.553
611.309, 38.633
612.621, 77.640
613.933, 100.718
615.245, 173.709
616.557, 229.773
617.868, 323.877
619.179, 446.607
620.490, 533.849
621.801, 747.572
623.111, 721.171
624.421, 1039.527
625.731, 905.104
627.041, 1042.491
628.351, 721.689
629.660, 543.106
630.970, 648.583
632.279, 356.317
633.588, 249.182
634.896, 128.513
636.205, 353.553
637.513, 324.604
638.821, 332.361
640.129, 422.727
641.437, 503.600
642.744, 486.458
644.051, 579.729
645.358, 595.846
646.665, 595.655
647.972, 688.438
649.278, 627.489
650.584, 712.806
651.890, 815.957
653.196, 746.471
654.502, 734.602
655.807, 695.947
657.113, 507.349
658.418, 560.984
659.722, 416.982
661.027, 363.975
662.331, 311.576
663.636, 447.263
664.940, 253.902
666.244, 487.655
667.547, 423.919
668.851, 560.045
670.154, 307.537
671.457, 361.407
672.760, 455.494
674.062, 381.551
675.365, 306.593
676.667, 353.616
677.969, 305.624
679.271, 185.614
680.572, 194.588
681.874, 301.545
683.175, 339.485
684.476, 412.407
685.777, 348.314
687.077, 553.204
688.378, 691.078
689.678, 688.935
690.978, 660.775
692.278, 598.598
693.577, 677.065
694.877, 717.196
696.176, 942.971
697.475, 873.729
698.774, 1261.470
700.072, 1313.196
701.371, 1592.905
702.669, 1657.599
703.967, 2007.275
705.265, 2261.938
706.562, 2149.590
707.860, 1866.243
709.157, 2002.886
710.454, 1525.522
711.751, 1517.156
713.047, 1155.773
714.344, 1237.386
715.640, 950.984
716.936, 886.567
718.232, 1159.134
719.527, 909.684
720.823, 853.218
722.118, 855.733
723.413, 936.233
724.708, 835.714
726.002, 1092.177
727.297, 963.622
728.591, 1311.056
729.885, 1491.470
731.179, 1402.869
732.472, 1413.250
733.766, 1395.613
735.059, 1120.958
736.352, 1103.284
737.645, 1015.593
738.937, 1010.884
740.230, 902.446
741.522, 869.441
742.814, 690.648
744.106, 806.867
745.397, 710.068
746.689, 743.252
747.980, 805.416
749.271, 944.563
750.562, 1043.692
751.853, 1115.804
753.143, 1051.897
754.433, 1290.974
755.723, 1139.033
757.013, 1229.075
758.303, 960.098
759.592, 951.104
760.881, 810.092
762.170, 635.064
763.459, 584.332
764.748, 353.368
766.036, 497.170
767.325, 338.293
768.613, 378.055
769.901, 223.100
771.188, 42.846
772.476, 164.672
773.763, 115.521
775.050, 57.193
776.337, 15.881
777.624, 43.461
778.910, 54.861
780.196, 46.325
781.482, 120.842
782.768, 65.446
784.054, 79.106
785.339, 20.796
786.625, 105.499
787.910, 44.207
789.195, 59.911
790.479, 108.883
791.764, 85.621
793.048, 107.382
794.332, 15.181
795.616, 2.991
796.900, 32.793
798.183, 76.592
799.467, 19.436
800.750, 37.280
802.033, 156.168
803.316, 88.842
804.598, 170.153
805.880, 55.729
807.163, 24.584
808.445, 57.410
809.726, 78.792
811.008, 60.068
812.289, 50.409
813.570, 65.190
814.851, 63.765
816.132, 108.312
817.413, 1.837
818.693, 99.328
819.973, 71.201
821.253, 164.199
822.533, 215.579
823.813, 107.939
825.092, 60.278
826.371, 191.593
827.650, 247.888
828.929, 225.180
830.208, 296.452
831.486, 271.017
832.764, 280.724
834.042, 250.170
835.320, 280.381
836.598, 303.573
837.875, 315.771
839.152, 197.951
840.429, 438.125
841.706, 456.300
842.983, 323.478
844.259, 547.656
845.536, 462.818
846.812, 521.965
848.088, 448.097
849.363, 495.215
850.639, 540.316
851.914, 623.425
853.189, 639.557
854.464, 731.674
855.739, 939.821
857.013, 791.964
858.288, 946.126
859.562, 1103.283
860.836, 1098.425
862.110, 887.551
863.383, 980.664
864.656, 765.763
865.930, 714.844
867.203, 739.910
868.475, 695.984
869.748, 519.042
871.020, 544.085
872.292, 526.112
873.564, 432.124
874.836, 567.121
876.108, 396.100
877.379, 509.061
878.650, 435.006
879.922, 439.934
881.192, 495.847
882.463, 421.744
883.733, 374.632
885.004, 342.504
886.274, 449.359
887.544, 504.198
888.813, 537.023
890.083, 444.834
891.352, 455.633
892.621, 449.416
893.890, 533.184
895.159, 451.935
896.427, 379.671
897.695, 558.393
898.964, 528.102
900.232, 486.794
901.499, 388.475
902.767, 469.140
904.034, 401.789
905.301, 537.424
906.568, 632.054
907.835, 666.669
909.102, 447.268
910.368, 422.851
911.634, 483.456
912.900, 519.048
914.166, 505.629
915.432, 468.196
916.697, 280.758
917.962, 423.310
919.227, 305.852
920.492, 541.387
921.757, 391.912
923.021, 572.426
924.285, 761.896
925.550, 756.354
926.813, 748.115
928.077, 672.726
929.341, 697.798
930.604, 615.052
931.867, 499.581
933.130, 567.638
934.393, 556.010
935.655, 378.855
936.918, 564.840
938.180, 432.482
939.442, 355.804
940.703, 565.968
941.965, 370.142
943.226, 453.239
944.488, 553.792
945.749, 799.974
947.009, 873.918
948.270, 961.414
949.530, 1116.264
950.791, 1186.357
952.051, 926.035
953.311, 870.585
954.570, 752.669
955.830, 669.284
957.089, 569.915
958.348, 383.802
959.607, 400.753
960.866, 261.063
962.124, 214.006
963.383, 350.127
964.641, 358.858
965.899, 251.203
967.156, 205.527
968.414, 268.218
969.671, 288.798
970.928, 200.773
972.185, 161.237
973.442, 161.164
974.699, 182.867
975.955, 298.857
977.211, 310.279
978.468, 356.285
979.723, 443.484
980.979, 448.669
982.234, 855.662
983.490, 843.684
984.745, 1309.641
986.000, 1659.253
987.254, 1701.214
988.509, 2009.329
989.763, 1693.271
991.017, 1538.891
992.271, 1433.282
993.525, 1337.876
994.779, 1157.672
996.032, 1117.300
997.285, 1261.532
998.538, 1188.172
999.791, 1806.916
1001.044, 1977.389
1002.296, 2375.604
1003.548, 2445.992
1004.800, 2236.626
1006.052, 2152.714
1007.304, 2000.867
1008.555, 1897.508
1009.807, 1731.044
1011.058, 1565.560
1012.309, 1594.427
1013.559, 1464.192
1014.810, 1403.623
1016.060, 1528.601
1017.310, 1902.731
1018.560, 1827.415
1019.810, 2074.404
1021.060, 2302.908
1022.309, 2106.963
1023.558, 2147.086
1024.807, 1776.227
1026.056, 1820.860
1027.305, 1871.481
1028.553, 2139.091
1029.801, 2215.296
1031.049, 2531.143
1032.297, 2646.258
1033.545, 3255.299
1034.793, 3031.272
1036.040, 3006.806
1037.287, 2796.807
1038.534, 2608.878
1039.781, 2738.820
1041.027, 2769.766
1042.274, 2965.452
1043.520, 3306.338
1044.766, 3727.930
1046.012, 4383.500
1047.257, 4756.684
1048.503, 4939.059
1049.748, 4310.836
1050.993, 3823.171
1052.238, 2980.906
1053.483, 2259.514
1054.727, 1872.202
1055.971, 1534.199
1057.216, 1228.857
1058.459, 1107.371
1059.703, 712.873
1060.947, 848.142
1062.190, 727.099
1063.433, 551.728
1064.676, 514.585
1065.919, 391.221
1067.162, 592.184
1068.404, 409.525
1069.646, 414.274
1070.888, 561.591
1072.130, 477.894
1073.372, 536.368
1074.613, 528.832
1075.855, 488.250
1077.096, 596.177
1078.337, 730.459
1079.578, 714.825
1080.818, 836.104
1082.059, 874.627
1083.299, 813.990
1084.539, 873.387
1085.779, 846.930
1087.018, 838.348
1088.258, 807.691
1089.497, 807.104
1090.736, 865.471
1091.975, 994.848
1093.213, 1078.244
1094.452, 1176.186
1095.690, 1257.125
1096.928, 1393.557
1098.166, 1366.980
1099.404, 1499.404
1100.642, 1276.842
1101.879, 1324.281
1103.116, 1070.717
1104.353, 1023.188
1105.590, 892.643
1106.827, 822.137
1108.063, 749.350
1109.299, 613.092
1110.536, 630.553
1111.771, 457.023
1113.007, 438.506
1114.243, 398.176
1115.478, 215.650
1116.713, 298.115
1117.948, 194.566
1119.183, 84.010
1120.418, 253.436
1121.652, 249.875
1122.886, 417.297
1124.120, 357.705
1125.354, 135.098
1126.588, 232.479
1127.821, 45.160
1129.055, 136.160
1130.288, 229.463
1131.521, 172.748
1132.753, 22.984
1133.986, 29.250
1135.218, 253.461
1136.450, 73.344
1137.682, 237.789
1138.914, 32.945
1140.146, 60.871
1141.377, 63.852
1142.609, 50.891
1143.840, 21.799
1145.071, 108.684
1146.301, 19.549
1147.532, 6.393
1148.762, 46.209
1149.992, 71.998
1151.222, 138.270
1152.452, 17.361
1153.682, 165.035
1154.911, 22.545
1156.140, 125.811
1157.369, 28.455
1158.598, 26.855
1159.827, 172.510
1161.055, 3.951
1162.284, 34.193
1163.512, 112.408
1164.740, 125.604
1165.967, 78.223
1167.195, 127.881
1168.422, 19.967
1169.650, 107.021
1170.877, 88.059
1172.103, 81.074
1173.330, 212.064
1174.557, 275.039
1175.783, 239.996
1177.009, 54.930
1178.235, 137.844
1179.461, 70.734
1180.686, 3.395
1181.912, 99.439
1183.137, 233.256
1184.362, 87.053
1185.587, 67.824
1186.811, 95.576
1188.036, 0.438
1189.260, 132.787
1190.484, 102.059
1191.708, 170.590
1192.932, 173.756
1194.155, 46.381
1195.378, 22.465
1196.602, 133.422
1197.825, 34.105
1199.047, 152.516
1200.270, 180.484
1201.492, 158.781
1202.715, 11.109
1203.937, 160.459
1205.159, 194.770
1206.380, 195.133
1207.602, 110.461
1208.823, 80.053
1210.044, 12.537
1211.265, 114.473
1212.486, 17.676
1213.707, 83.010
1214.927, 245.404
1216.147, 131.688
1217.367, 318.627
1218.587, 238.828
1219.807, 189.176
1221.027, 189.514
1222.246, 197.979
1223.465, 81.994
1224.684, 302.984
1225.903, 212.307
1227.121, 290.490
1228.340, 178.328
1229.558, 218.238
1230.776, 216.229
1231.994, 183.773
1233.212, 216.840
1234.429, 240.662
1235.646, 223.457
1236.864, 400.230
1238.081, 350.975
1239.297, 432.705
1240.514, 474.414
1241.730, 227.105
1242.947, 421.777
1244.163, 338.430
1245.378, 436.062
1246.594, 300.680
1247.810, 235.273
1249.025, 369.850
1250.240, 377.406
1251.455, 388.939
1252.670, 316.455
1253.885, 358.949
1255.099, 259.424
1256.313, 261.877
1257.527, 373.309
1258.741, 391.721
1259.955, 193.111
1261.168, 322.273
1262.382, 248.621
1263.595, 324.191
1264.808, 346.865
1266.021, 403.773
1267.233, 433.037
1268.446, 457.410
1269.658, 438.074
1270.870, 482.275
1272.082, 492.281
1273.294, 463.443
1274.505, 560.557
1275.716, 480.500
1276.928, 344.611
1278.139, 496.664
1279.349, 538.758
1280.560, 407.172
1281.770, 488.209
1282.981, 309.068
1284.191, 195.074
1285.401, 328.379
1286.610, 306.883
1287.820, 295.143
1289.029, 52.113
1290.239, 375.223
1291.448, 283.646
1292.656, 374.629
1293.865, 502.480
1295.073, 472.561
1296.282, 511.561
1297.490, 366.918
1298.698, 440.689
1299.906, 247.961
1301.113, 125.131
1302.320, 216.781
1303.528, 291.506
1304.735, 96.219
1305.942, 141.553
1307.148, 386.961
1308.355, 268.674
1309.561, 464.703
1310.767, 339.770
1311.973, 457.150
1313.179, 252.193
1314.384, 466.697
1315.590, 374.617
1316.795, 364.447
1318.000, 409.229
1319.205, 459.486
1320.410, 445.732
1321.614, 464.842
1322.819, 430.557
1324.023, 402.479
1325.227, 503.104
1326.431, 377.768
1327.634, 425.363
1328.838, 380.516
1330.041, 363.205
1331.244, 284.725
1332.447, 110.344
1333.650, 46.014
1334.852, 35.748
1336.055, 3.338
1337.257, 43.193
1338.459, 126.953
1339.661, 52.260
1340.862, 76.260
1342.064, 97.166
1343.265, 2.826
1344.466, 55.398
1345.667, 53.078
1346.868, 267.654
1348.068, 128.902
1349.269, 14.529
1350.469, 211.160
1351.669, 151.846
1352.869, 95.742
1354.069, 96.936
1355.268, 126.561
1356.468, 149.699
1357.667, 111.377
1358.866, 23.496
1360.065, 128.887
1361.263, 6.375
1362.462, 138.117
1363.660, 99.426
1364.858, 95.998
1366.056, 61.689
1367.254, 165.316
1368.451, 260.471
1369.649, 80.277
1370.846, 185.004
1372.043, 131.320
1373.240, 325.695
1374.436, 215.916
1375.633, 222.898
1376.829, 260.826
1378.025, 181.520
1379.221, 282.146
1380.417, 309.533
1381.613, 282.807
1382.808, 418.854
1384.003, 476.836
1385.199, 286.820
1386.393, 277.773
1387.588, 319.693
1388.783, 208.584
1389.977, 470.445
1391.171, 177.277
1392.365, 256.076
1393.559, 329.639
1394.753, 157.363
1395.946, 286.053
1397.140, 208.715
1398.333, 209.338
1399.526, 195.934
1400.719, 198.527
1401.911, 311.090
1403.104, 173.645
1404.296, 10.197
1405.488, 341.584
1406.680, 95.205
1407.872, 64.916
1409.063, 339.557
1410.255, 179.191
1411.446, 388.914
1412.637, 33.742
1413.828, 235.324
1415.018, 387.869
1416.209, 292.652
1417.399, 115.668
1418.589, 335.715
1419.779, 281.797
1420.969, 371.885
1422.159, 241.973
1423.348, 356.053
1424.537, 338.139
1425.726, 457.234
1426.915, 564.346
1428.104, 369.463
1429.293, 436.412
1430.481, 503.307
1431.669, 559.697
1432.857, 641.246
1434.045, 684.314
1435.233, 868.682
1436.420, 796.191
1437.608, 879.803
1438.795, 930.064
1439.982, 1143.686
1441.169, 1340.980
1442.355, 1357.367
1443.542, 1621.197
1444.728, 1492.648
1445.914, 1587.293
1447.100, 1768.051
1448.286, 1777.178
1449.472, 1869.203
1450.657, 2096.932
1451.842, 2040.328
1453.027, 2065.750
1454.212, 2320.158
1455.397, 2080.543
1456.581, 2110.908
1457.766, 2272.246
1458.950, 2019.568
1460.134, 2146.871
1461.318, 1807.158
1462.501, 1775.428
1463.685, 1905.680
1464.868, 1514.000
1466.051, 1893.678
1467.234, 1528.820
1468.417, 1312.467
1469.600, 1416.514
1470.782, 1353.096
1471.965, 1137.041
1473.147, 1236.922
1474.329, 1123.738
1475.510, 990.480
1476.692, 982.160
1477.873, 853.029
1479.055, 865.246
1480.236, 1074.648
1481.416, 753.131
1482.597, 929.047
1483.778, 876.141
1484.958, 845.332
1486.138, 788.598
1487.318, 728.570
1488.498, 671.275
1489.678, 642.693
1490.857, 590.414
1492.037, 552.727
1493.216, 527.359
1494.395, 483.129
1495.574, 488.119
1496.752, 225.326
1497.931, 533.736
1499.109, 101.371
1500.287, 425.275
1501.465, 98.521
1502.643, 120.969
1503.820, 252.736
1504.998, 76.789
1506.175, 198.170
1507.352, 153.924
1508.529, 272.117
1509.706, 362.816
1510.882, 354.076
1512.059, 347.318
1513.235, 184.672
1514.411, 34.252
1515.587, 57.635
1516.762, 171.338
1517.938, 5.816
1519.113, 116.619
1520.288, 79.801
1521.463, 5.289
1522.638, 0.000
##END=



