##NAMES=Scolecite
##RRUFFID=R040111
##IDEAL CHEMISTRY=Ca(Si_3_Al_2_)O_10_&#183;3H_2_O
##LOCALITY=Bombay-Poona area, Mahahashtra Province, India
##OWNER=RRUFF
##SOURCE=National Museums of Canada
##DESCRIPTION=Pale pink prismatic crystals in parallel or near parallel aggregates
##STATUS=The identification of this mineral has been confirmed by X-ray diffraction and chemical analysis
##URL=rruff.info/R040111
##MEASURED CHEMISTRY=Ca_0.98_(Si_3.05_Al_1.95_)O_10_Â·3H_2_O
##PIN_ID=M00424
##ORIENTATION=Laser parallel to -c* (0 0 -1). Fiducial mark perpendicular to laser is parallel to -a [-1 0 0]
79.427, 0.000
80.823, 16.865
82.218, 41.277
83.614, 248.473
85.009, 523.895
86.404, 1188.276
87.798, 1992.930
89.193, 3140.452
90.587, 4368.453
91.981, 5837.018
93.375, 7077.407
94.768, 7604.497
96.161, 7227.616
97.554, 5873.682
98.947, 4847.769
100.340, 4014.317
101.732, 3754.206
103.124, 3867.821
104.516, 4141.505
105.908, 4918.829
107.300, 6099.568
108.691, 7652.402
110.082, 8939.482
111.473, 9602.380
112.864, 8777.767
114.254, 6900.370
115.644, 4737.973
117.034, 3040.403
118.424, 1757.517
119.813, 920.659
121.203, 526.930
122.592, 455.605
123.981, 927.021
125.369, 1566.200
126.758, 2036.167
128.146, 2010.931
129.534, 1620.240
130.922, 660.369
132.309, 98.427
133.696, 236.459
135.083, 22.796
136.470, 100.639
137.857, 945.267
139.243, 1774.008
140.630, 2905.938
142.016, 3452.116
143.401, 3483.604
144.787, 2954.449
146.172, 2361.696
147.557, 1906.384
148.942, 2083.548
150.327, 2596.221
151.711, 3567.433
153.096, 5332.209
154.480, 7354.574
155.863, 9813.555
157.247, 12062.171
158.630, 12777.442
160.013, 11899.289
161.396, 10225.578
162.779, 8240.383
164.161, 6457.060
165.544, 5048.756
166.926, 3980.365
168.308, 3246.929
169.689, 2644.476
171.070, 2452.030
172.452, 2441.947
173.833, 2452.670
175.213, 2412.780
176.594, 2429.323
177.974, 2653.816
179.354, 2940.119
180.734, 3317.606
182.114, 3611.271
183.493, 4010.106
184.872, 4078.105
186.251, 3969.260
187.630, 3415.771
189.008, 2946.742
190.387, 2525.226
191.765, 1973.158
193.143, 1763.611
194.520, 1452.019
195.898, 1445.554
197.275, 1481.209
198.652, 1596.981
200.029, 1667.864
201.405, 1949.854
202.782, 2265.945
204.158, 2413.123
205.534, 2521.374
206.909, 2064.695
208.285, 1753.085
209.660, 1475.533
211.035, 1202.012
212.410, 1219.511
213.784, 1373.026
215.159, 1955.561
216.533, 2797.113
217.907, 3975.681
219.281, 5520.256
220.654, 6891.837
222.027, 8044.427
223.400, 8111.024
224.773, 7250.629
226.146, 5798.245
227.518, 4690.867
228.891, 3933.501
230.263, 3332.145
231.634, 3004.799
233.006, 2493.464
234.377, 1863.140
235.748, 1225.827
237.119, 593.526
238.490, 296.237
239.860, 139.039
241.231, 242.302
242.601, 351.609
243.970, 296.237
245.340, 159.054
246.709, 9.157
248.079, 552.344
249.448, 945.973
250.816, 1655.488
252.185, 2456.722
253.553, 2951.545
254.921, 3229.863
256.289, 2813.602
257.657, 2025.701
259.024, 1221.102
260.391, 673.759
261.758, 147.639
263.125, 122.288
264.492, 338.101
265.858, 501.881
267.224, 513.690
268.590, 594.552
269.956, 495.506
271.321, 452.545
272.687, 376.781
274.052, 256.093
275.416, 114.539
276.781, 404.197
278.146, 692.879
279.510, 1187.580
280.874, 1468.294
282.237, 1787.019
283.601, 1660.749
284.964, 1599.479
286.327, 1670.188
287.690, 1443.867
289.053, 1236.521
290.416, 984.146
291.778, 730.727
293.140, 431.232
294.502, 158.657
295.863, 55.000
297.225, 109.754
298.586, 143.322
299.947, 115.529
301.308, 137.705
302.668, 1.024
304.029, 32.549
305.389, 162.032
306.749, 272.447
308.108, 549.844
309.468, 756.190
310.827, 943.512
312.186, 1034.827
313.545, 1133.094
314.903, 1198.329
316.262, 1173.538
317.620, 1255.752
318.978, 1282.953
320.336, 1196.140
321.693, 1140.299
323.051, 1102.426
324.408, 905.405
325.765, 820.964
327.121, 589.190
328.478, 493.355
329.834, 448.508
331.190, 489.649
332.546, 356.779
333.902, 454.897
335.257, 482.003
336.612, 449.797
337.967, 476.027
339.322, 452.672
340.677, 635.862
342.031, 625.894
343.385, 918.942
344.739, 1173.007
346.093, 1088.088
347.446, 1311.184
348.799, 1456.294
350.153, 1555.417
351.505, 1611.546
352.858, 1583.553
354.210, 1499.364
355.563, 1402.027
356.915, 1374.657
358.267, 1489.304
359.618, 1394.969
360.969, 1380.651
362.321, 1429.351
363.672, 1338.066
365.022, 1340.798
366.373, 1418.545
367.723, 1493.308
369.073, 1548.085
370.423, 1617.879
371.773, 1646.687
373.122, 1488.509
374.471, 1487.345
375.821, 1264.196
377.169, 1203.061
378.518, 982.941
379.866, 918.834
381.215, 771.743
382.563, 666.666
383.910, 554.603
385.258, 518.555
386.605, 542.521
387.952, 303.502
389.299, 466.498
390.646, 366.507
391.992, 451.531
393.339, 560.571
394.685, 652.624
396.031, 931.692
397.376, 999.775
398.722, 1227.873
400.067, 1579.985
401.412, 1857.112
402.757, 2205.064
404.101, 2361.713
405.446, 2324.542
406.790, 2378.898
408.134, 2246.838
409.478, 2007.628
410.821, 1785.905
412.165, 1411.199
413.508, 1495.504
414.851, 1388.818
416.193, 1297.138
417.536, 1441.460
418.878, 1661.784
420.220, 1929.107
421.562, 2310.642
422.904, 2719.749
424.245, 3304.064
425.586, 3922.179
426.927, 4631.639
428.268, 5337.667
429.609, 6218.801
430.949, 7071.715
432.289, 8041.704
433.629, 8220.252
434.969, 8463.429
436.309, 8088.059
437.648, 7755.372
438.987, 7132.667
440.326, 6563.966
441.665, 5932.266
443.003, 5779.589
444.342, 5604.894
445.680, 5401.199
447.018, 5254.506
448.355, 5154.816
449.693, 5173.486
451.030, 5443.798
452.367, 5925.114
453.704, 6189.433
455.041, 6974.754
456.377, 7398.283
457.713, 7793.047
459.049, 7697.953
460.385, 7366.869
461.721, 6653.452
463.056, 5524.566
464.391, 4565.169
465.726, 3958.886
467.061, 3183.285
468.395, 2525.750
469.730, 2173.791
471.064, 1732.133
472.398, 1702.058
473.731, 1410.559
475.065, 1381.663
476.398, 1299.917
477.731, 1289.608
479.064, 1286.938
480.397, 1395.605
481.729, 1416.990
483.062, 1507.791
484.394, 1552.020
485.725, 1607.952
487.057, 1647.433
488.389, 1722.418
489.720, 1781.453
491.051, 1835.524
492.382, 1851.854
493.712, 1887.732
495.043, 1857.887
496.373, 1878.066
497.703, 1879.304
499.032, 1842.576
500.362, 1829.885
501.691, 1841.245
503.020, 1847.446
504.349, 1903.098
505.678, 1949.590
507.007, 2057.126
508.335, 2224.688
509.663, 2460.284
510.991, 2712.908
512.319, 3119.450
513.646, 3541.292
514.973, 4075.008
516.300, 4576.783
517.627, 5146.600
518.954, 5720.446
520.280, 7011.317
521.607, 8162.231
522.933, 10041.174
524.259, 12126.146
525.584, 14837.159
526.910, 18784.207
528.235, 23212.271
529.560, 29258.369
530.885, 35197.488
532.209, 41544.625
533.534, 47268.801
534.858, 49090.984
536.182, 47455.199
537.506, 41393.441
538.829, 33923.699
540.152, 26817.990
541.476, 21207.305
542.799, 16398.633
544.121, 13317.994
545.444, 10689.374
546.766, 8685.771
548.088, 7482.188
549.410, 6392.625
550.732, 5611.084
552.053, 4938.561
553.375, 4402.060
554.696, 4083.577
556.017, 3706.114
557.337, 3363.673
558.658, 3244.252
559.978, 2950.849
561.298, 2753.468
562.618, 2602.161
563.938, 2414.957
565.257, 2322.883
566.576, 2182.477
567.895, 2051.052
569.214, 1913.219
570.533, 1681.404
571.851, 1436.608
573.170, 1366.827
574.488, 1256.065
575.805, 1209.321
577.123, 977.596
578.440, 886.886
579.758, 811.192
581.075, 691.515
582.391, 671.853
583.708, 574.208
585.024, 524.633
586.341, 496.188
587.657, 432.395
588.972, 464.819
590.288, 362.920
591.603, 338.192
592.918, 334.626
594.233, 257.202
595.548, 265.888
596.863, 221.594
598.177, 149.313
599.491, 209.046
600.805, 5.792
602.119, 17.550
603.432, 68.321
604.746, 106.104
606.059, 103.900
607.372, 23.292
608.685, 108.522
609.997, 24.349
611.309, 31.187
612.621, 79.037
613.933, 85.898
615.245, 66.776
616.557, 88.688
617.868, 84.676
619.179, 94.750
620.490, 43.901
621.801, 122.135
623.111, 16.548
624.421, 40.006
625.731, 222.178
627.041, 32.514
628.351, 161.892
629.660, 225.438
630.970, 12.567
632.279, 87.528
633.588, 110.894
634.896, 221.172
636.205, 143.765
637.513, 129.625
638.821, 53.910
640.129, 18.267
641.437, 91.109
642.744, 69.458
644.051, 199.253
645.358, 212.334
646.665, 330.546
647.972, 315.687
649.278, 387.571
650.584, 442.161
651.890, 588.896
653.196, 550.414
654.502, 557.207
655.807, 465.686
657.113, 642.696
658.418, 750.875
659.722, 603.584
661.027, 800.603
662.331, 809.710
663.636, 948.227
664.940, 863.439
666.244, 1136.382
667.547, 1181.314
668.851, 1527.286
670.154, 1609.839
671.457, 1703.825
672.760, 2015.711
674.062, 1953.009
675.365, 1950.833
676.667, 1768.191
677.969, 1739.898
679.271, 1431.008
680.572, 1251.344
681.874, 1092.425
683.175, 904.601
684.476, 706.540
685.777, 567.629
687.077, 502.593
688.378, 520.789
689.678, 389.256
690.978, 569.994
692.278, 376.122
693.577, 661.284
694.877, 602.001
696.176, 635.384
697.475, 621.550
698.774, 873.452
700.072, 933.208
701.371, 1090.849
702.669, 1218.461
703.967, 1594.995
705.265, 1933.468
706.562, 1896.947
707.860, 1863.340
709.157, 1985.714
710.454, 1596.115
711.751, 1538.926
713.047, 1265.579
714.344, 1187.382
715.640, 980.674
716.936, 959.450
718.232, 968.975
719.527, 1001.245
720.823, 989.918
722.118, 1115.495
723.413, 1181.393
724.708, 1323.829
726.002, 1497.218
727.297, 1494.437
728.591, 1717.520
729.885, 1684.091
731.179, 1587.518
732.472, 1384.976
733.766, 1240.125
735.059, 1082.080
736.352, 969.917
737.645, 790.004
738.937, 744.786
740.230, 568.561
741.522, 514.416
742.814, 681.157
744.106, 612.823
745.397, 598.458
746.689, 567.061
747.980, 773.631
749.271, 761.167
750.562, 905.668
751.853, 871.135
753.143, 973.565
754.433, 1096.960
755.723, 1007.319
757.013, 1089.620
758.303, 925.907
759.592, 988.156
760.881, 856.370
762.170, 863.546
763.459, 909.327
764.748, 672.429
766.036, 847.494
767.325, 708.521
768.613, 784.509
769.901, 761.460
771.188, 680.373
772.476, 637.248
773.763, 468.082
775.050, 418.878
776.337, 326.633
777.624, 259.349
778.910, 212.748
780.196, 156.377
781.482, 72.907
782.768, 3.822
784.054, 76.384
785.339, 12.674
786.625, 42.362
787.910, 39.714
789.195, 123.275
790.479, 45.355
791.764, 13.133
793.048, 153.300
794.332, 34.268
795.616, 12.708
796.900, 84.225
798.183, 154.854
799.467, 63.635
800.750, 81.519
802.033, 32.515
803.316, 70.401
804.598, 7.731
805.880, 25.938
807.163, 9.770
808.445, 106.586
809.726, 6.070
811.008, 14.627
812.289, 65.261
813.570, 42.001
814.851, 60.167
816.132, 64.717
817.413, 23.704
818.693, 47.226
819.973, 20.103
821.253, 19.919
822.533, 0.325
823.813, 30.360
825.092, 65.010
826.371, 64.516
827.650, 23.010
828.929, 67.385
830.208, 118.729
831.486, 14.974
832.764, 44.248
834.042, 32.417
835.320, 22.470
836.598, 37.564
837.875, 49.544
839.152, 160.473
840.429, 186.356
841.706, 127.198
842.983, 84.995
844.259, 228.745
845.536, 131.452
846.812, 119.115
848.088, 52.734
849.363, 83.033
850.639, 106.535
851.914, 163.308
853.189, 193.744
854.464, 216.141
855.739, 218.494
857.013, 232.122
858.288, 241.729
859.562, 235.316
860.836, 250.514
862.110, 249.671
863.383, 237.798
864.656, 134.886
865.930, 166.931
867.203, 125.336
868.475, 241.924
869.748, 120.873
871.020, 174.777
872.292, 229.642
873.564, 127.480
874.836, 144.276
876.108, 77.033
877.379, 164.746
878.650, 169.418
879.922, 203.057
881.192, 228.655
882.463, 105.217
883.733, 132.736
885.004, 118.216
886.274, 184.653
887.544, 224.054
888.813, 247.136
890.083, 177.746
891.352, 296.036
892.621, 237.291
893.890, 210.511
895.159, 229.693
896.427, 322.842
897.695, 290.965
898.964, 294.052
900.232, 260.104
901.499, 318.125
902.767, 303.110
904.034, 265.061
905.301, 331.978
906.568, 334.861
907.835, 383.710
909.102, 353.526
910.368, 275.309
911.634, 409.059
912.900, 353.774
914.166, 564.457
915.432, 564.108
916.697, 487.727
917.962, 682.315
919.227, 699.872
920.492, 878.396
921.757, 1052.887
923.021, 1360.346
924.285, 1689.774
925.550, 2150.170
926.813, 2562.535
928.077, 3146.869
929.341, 3270.182
930.604, 3376.350
931.867, 3416.414
933.130, 3095.144
934.393, 2866.963
935.655, 2397.798
936.918, 2225.768
938.180, 1792.121
939.442, 1447.553
940.703, 1281.223
941.965, 1041.768
943.226, 783.558
944.488, 666.571
945.749, 772.962
947.009, 631.861
948.270, 603.073
949.530, 573.759
950.791, 578.974
952.051, 591.881
953.311, 407.637
954.570, 505.441
955.830, 505.481
957.089, 580.793
958.348, 448.938
959.607, 498.279
960.866, 432.324
962.124, 514.682
963.383, 654.486
964.641, 697.100
965.899, 953.162
967.156, 1096.893
968.414, 1424.510
969.671, 1766.697
970.928, 1835.168
972.185, 1993.894
973.442, 1777.615
974.699, 1524.278
975.955, 1214.342
977.211, 909.952
978.468, 875.641
979.723, 780.892
980.979, 806.597
982.234, 860.742
983.490, 756.535
984.745, 976.901
986.000, 1140.021
987.254, 1022.376
988.509, 1393.613
989.763, 1442.072
991.017, 1685.355
992.271, 1904.745
993.525, 2227.881
994.779, 2675.721
996.032, 2834.266
997.285, 2875.396
998.538, 2535.471
999.791, 2404.967
1001.044, 2027.602
1002.296, 1861.623
1003.548, 1732.959
1004.800, 1606.366
1006.052, 1698.874
1007.304, 1610.392
1008.555, 1751.967
1009.807, 1985.712
1011.058, 2133.570
1012.309, 2506.250
1013.559, 2826.796
1014.810, 3254.533
1016.060, 3916.726
1017.310, 4551.647
1018.560, 5340.741
1019.810, 6585.373
1021.060, 8316.585
1022.309, 9688.970
1023.558, 11044.359
1024.807, 10872.557
1026.056, 9894.262
1027.305, 8151.191
1028.553, 6773.553
1029.801, 5228.108
1031.049, 4047.643
1032.297, 3419.397
1033.545, 2981.521
1034.793, 2663.760
1036.040, 2544.937
1037.287, 2511.499
1038.534, 2452.182
1039.781, 2346.190
1041.027, 2247.598
1042.274, 2086.441
1043.520, 1996.279
1044.766, 1723.853
1046.012, 1733.812
1047.257, 1655.856
1048.503, 1879.553
1049.748, 1707.246
1050.993, 1907.246
1052.238, 1821.944
1053.483, 1892.772
1054.727, 2000.467
1055.971, 2243.532
1057.216, 2423.224
1058.459, 2707.913
1059.703, 2820.600
1060.947, 3105.438
1062.190, 3472.204
1063.433, 3647.884
1064.676, 3778.642
1065.919, 3683.329
1067.162, 3605.271
1068.404, 2979.122
1069.646, 2677.804
1070.888, 2313.484
1072.130, 1979.163
1073.372, 1730.841
1074.613, 1476.598
1075.855, 1258.446
1077.096, 1184.178
1078.337, 1175.878
1079.578, 1093.550
1080.818, 1147.220
1082.059, 921.890
1083.299, 1047.561
1084.539, 972.238
1085.779, 1085.059
1087.018, 1122.758
1088.258, 1330.755
1089.497, 1338.718
1090.736, 1492.497
1091.975, 1632.787
1093.213, 1961.641
1094.452, 2297.514
1095.690, 2420.439
1096.928, 2767.439
1098.166, 3020.647
1099.404, 3211.648
1100.642, 3105.705
1101.879, 3226.855
1103.116, 2851.977
1104.353, 2750.504
1105.590, 2330.704
1106.827, 2339.868
1108.063, 2043.398
1109.299, 1913.995
1110.536, 1808.156
1111.771, 1572.529
1113.007, 1334.799
1114.243, 1221.529
1115.478, 1061.920
1116.713, 973.355
1117.948, 883.142
1119.183, 826.038
1120.418, 679.732
1121.652, 755.637
1122.886, 820.655
1124.120, 764.747
1125.354, 553.587
1126.588, 573.439
1127.821, 380.018
1129.055, 453.834
1130.288, 472.304
1131.521, 341.709
1132.753, 114.194
1133.986, 173.277
1135.218, 339.184
1136.450, 77.867
1137.682, 284.635
1138.914, 74.146
1140.146, 157.063
1141.377, 135.956
1142.609, 115.688
1143.840, 121.718
1145.071, 167.374
1146.301, 172.477
1147.532, 92.850
1148.762, 39.298
1149.992, 18.871
1151.222, 0.522
1152.452, 124.879
1153.682, 16.481
1154.911, 90.147
1156.140, 20.813
1157.369, 1.936
1158.598, 7.690
1159.827, 103.496
1161.055, 61.253
1162.284, 6.427
1163.512, 63.321
1164.740, 23.273
1165.967, 116.205
1167.195, 128.637
1168.422, 36.409
1169.650, 71.742
1170.877, 72.841
1172.103, 72.454
1173.330, 10.031
1174.557, 97.246
1175.783, 76.596
1177.009, 33.045
1178.235, 72.203
1179.461, 38.690
1180.686, 127.288
1181.912, 112.984
1183.137, 73.696
1184.362, 44.298
1185.587, 55.685
1186.811, 58.890
1188.036, 17.460
1189.260, 38.835
1190.484, 38.756
1191.708, 159.598
1192.932, 5.061
1194.155, 53.164
1195.378, 101.935
1196.602, 101.383
1197.825, 7.938
1199.047, 121.077
1200.270, 53.511
1201.492, 231.921
1202.715, 0.955
1203.937, 90.482
1205.159, 223.917
1206.380, 195.916
1207.602, 54.021
1208.823, 71.998
1210.044, 139.962
1211.265, 79.678
1212.486, 100.620
1213.707, 36.551
1214.927, 58.679
1216.147, 179.595
1217.367, 158.526
1218.587, 129.420
1219.807, 112.304
1221.027, 84.286
1222.246, 63.146
1223.465, 91.994
1224.684, 99.831
1225.903, 124.655
1227.121, 140.979
1228.340, 180.270
1229.558, 156.061
1230.776, 181.150
1231.994, 47.392
1233.212, 204.335
1234.429, 49.102
1235.646, 64.800
1236.864, 193.482
1238.081, 7.259
1239.297, 149.926
1240.514, 237.586
1241.730, 166.238
1242.947, 109.883
1244.163, 64.520
1245.378, 137.146
1246.594, 240.764
1247.810, 110.509
1249.025, 172.083
1250.240, 36.646
1251.455, 116.197
1252.670, 216.717
1253.885, 48.214
1255.099, 35.696
1256.313, 64.835
1257.527, 104.575
1258.741, 135.973
1259.955, 33.349
1261.168, 120.698
1262.382, 112.027
1263.595, 36.516
1264.808, 58.810
1266.021, 5.936
1267.233, 21.731
1268.446, 11.417
1269.658, 7.470
1270.870, 42.566
1272.082, 47.575
1273.294, 114.558
1274.505, 62.520
1275.716, 158.407
1276.928, 56.747
1278.139, 153.035
1279.349, 20.800
1280.560, 0.518
1281.770, 107.209
1282.981, 12.125
1284.191, 195.510
1285.401, 2.123
1286.610, 59.698
1287.820, 98.245
1289.029, 34.768
1290.239, 116.265
1291.448, 26.723
1292.656, 15.157
1293.865, 26.439
1295.073, 15.887
1296.282, 23.292
1297.490, 18.333
1298.698, 6.089
1299.906, 6.878
1301.113, 10.304
1302.320, 61.543
1303.528, 33.547
1304.735, 23.280
1305.942, 21.324
1307.148, 94.470
1308.355, 5.347
1309.561, 161.310
1310.767, 26.648
1311.973, 41.617
1313.179, 123.496
1314.384, 215.277
1315.590, 37.926
1316.795, 161.066
1318.000, 41.205
1319.205, 164.057
1320.410, 134.717
1321.614, 38.646
1322.819, 208.783
1324.023, 93.349
1325.227, 64.773
1326.431, 45.287
1327.634, 42.776
1328.838, 59.240
1330.041, 108.574
1331.244, 149.931
1332.447, 60.276
1333.650, 104.422
1334.852, 0.367
1336.055, 25.805
1337.257, 76.109
1338.459, 29.090
1339.661, 156.005
1340.862, 65.248
1342.064, 45.473
1343.265, 5.633
1344.466, 60.542
1345.667, 63.566
1346.868, 243.703
1348.068, 42.450
1349.269, 52.552
1350.469, 267.635
1351.669, 122.702
1352.869, 222.601
1354.069, 226.556
1355.268, 15.418
1356.468, 225.515
1357.667, 171.504
1358.866, 100.227
1360.065, 299.646
1361.263, 146.724
1362.462, 172.673
1363.660, 274.617
1364.858, 126.554
1366.056, 247.406
1367.254, 207.163
1368.451, 262.035
1369.649, 214.938
1370.846, 257.714
1372.043, 187.469
1373.240, 353.829
1374.436, 178.538
1375.633, 287.208
1376.829, 156.740
1378.025, 137.250
1379.221, 286.398
1380.417, 157.550
1381.613, 125.396
1382.808, 273.677
1384.003, 231.878
1385.199, 246.849
1386.393, 177.974
1387.588, 346.734
1388.783, 277.809
1389.977, 273.107
1391.171, 111.718
1392.365, 180.237
1393.559, 345.999
1394.753, 210.069
1395.946, 301.462
1397.140, 232.672
1398.333, 278.484
1399.526, 403.656
1400.719, 263.589
1401.911, 331.492
1403.104, 289.170
1404.296, 154.986
1405.488, 400.283
1406.680, 100.785
1407.872, 292.233
1409.063, 406.291
1410.255, 225.179
1411.446, 438.968
1412.637, 261.669
1413.828, 342.166
1415.018, 300.966
1416.209, 372.448
1417.399, 218.301
1418.589, 395.526
1419.779, 261.479
1420.969, 262.115
1422.159, 236.454
1423.348, 266.019
1424.537, 273.457
1425.726, 285.325
1426.915, 292.704
1428.104, 239.294
1429.293, 286.460
1430.481, 229.983
1431.669, 239.022
1432.857, 288.714
1434.045, 259.746
1435.233, 260.027
1436.420, 325.325
1437.608, 352.900
1438.795, 384.634
1439.982, 332.578
1441.169, 452.793
1442.355, 397.243
1443.542, 440.688
1444.728, 417.883
1445.914, 463.225
1447.100, 455.512
1448.286, 478.741
1449.472, 467.161
1450.657, 629.979
1451.842, 491.105
1453.027, 476.933
1454.212, 618.850
1455.397, 509.650
1456.581, 492.334
1457.766, 505.648
1458.950, 470.196
1460.134, 549.740
1461.318, 477.203
1462.501, 399.662
1463.685, 581.066
1464.868, 341.993
1466.051, 437.299
1467.234, 260.771
1468.417, 242.443
1469.600, 154.233
1470.782, 357.138
1471.965, 104.322
1473.147, 350.590
1474.329, 281.912
1475.510, 145.229
1476.692, 154.608
1477.873, 258.012
1479.055, 168.518
1480.236, 398.054
1481.416, 237.646
1482.597, 381.317
1483.778, 308.999
1484.958, 258.698
1486.138, 176.422
1487.318, 141.239
1488.498, 169.988
1489.678, 162.866
1490.857, 175.842
1492.037, 398.925
1493.216, 355.134
1494.395, 359.512
1495.574, 363.049
1496.752, 170.735
1497.931, 247.558
1499.109, 185.519
1500.287, 170.633
1501.465, 35.091
1502.643, 23.362
1503.820, 107.015
1504.998, 219.900
1506.175, 120.053
1507.352, 170.506
1508.529, 76.293
1509.706, 181.439
1510.882, 286.988
1512.059, 91.185
1513.235, 172.913
1514.411, 2.604
1515.587, 225.186
1516.762, 90.786
1517.938, 206.683
1519.113, 90.708
1520.288, 73.349
1521.463, 0.000
##END=



