##NAMES=Senegalite
##RRUFFID=R050239
##IDEAL CHEMISTRY=Al_2_PO_4_(OH)_3_&#183;H_2_O
##LOCALITY=Kourondicko iron ore (magnetite) deposit, Faleme River Basin, Senegal
##OWNER=RRUFF
##SOURCE=Marcus Origlieri
##DESCRIPTION=Colorless prismatic crystals
##STATUS=The identification of this mineral has been confirmed by X-ray diffraction and chemical analysis
##URL=rruff.info/R050239
##MEASURED CHEMISTRY=Al_2.00_P_1.00_O_4_(OH)_3_Â·H_2_O
##PIN_ID=M00152
##ORIENTATION=Laser parallel to c* (0 0 1). Fiducial mark perpendicular to laser is parallel to a [1 0 0]
92.24600, 0.0000000E+00
93.48000, 66.62891
94.71400, 101.3887
95.94800, 314.4922
97.18200, 519.2441
98.41600, 623.7441
99.64900, 968.8906
100.8830, 987.4824
102.1160, 1134.973
103.3490, 1090.467
104.5820, 1117.156
105.8150, 821.5078
107.0470, 495.7422
108.2800, 272.9414
109.5120, 350.3770
110.7440, 376.4551
111.9760, 237.6777
113.2080, 195.6211
114.4400, 254.9160
115.6710, 541.2383
116.9030, 814.3066
118.1340, 980.8730
119.3650, 1218.730
120.5960, 2012.691
121.8270, 2685.590
123.0580, 3546.281
124.2880, 4397.256
125.5190, 5642.605
126.7490, 6321.072
127.9790, 7316.943
129.2090, 8541.170
130.4390, 9430.656
131.6680, 10278.32
132.8980, 10961.07
134.1270, 11036.82
135.3560, 10688.51
136.5850, 9228.074
137.8140, 7262.449
139.0430, 5488.596
140.2710, 3709.471
141.5000, 2784.031
142.7280, 1938.250
143.9560, 1373.098
145.1840, 1043.541
146.4120, 992.5645
147.6390, 779.1387
148.8670, 704.2441
150.0940, 535.8613
151.3210, 614.9707
152.5490, 407.5586
153.7750, 360.6074
155.0020, 474.1504
156.2290, 728.2852
157.4550, 761.2891
158.6810, 776.7227
159.9080, 841.6172
161.1340, 1104.852
162.3590, 1144.416
163.5850, 1013.414
164.8110, 1326.191
166.0360, 1356.668
167.2610, 1455.176
168.4860, 1621.725
169.7110, 1340.506
170.9360, 917.4629
172.1610, 603.5430
173.3850, 427.6973
174.6100, 260.9258
175.8340, 239.2480
177.0580, 321.6777
178.2820, 346.6484
179.5050, 283.3203
180.7290, 353.4277
181.9520, 287.0762
183.1760, 419.1738
184.3990, 359.4199
185.6220, 422.8203
186.8450, 439.3770
188.0670, 592.0918
189.2900, 566.9609
190.5120, 718.9922
191.7340, 901.1816
192.9560, 1016.533
194.1780, 1296.043
195.4000, 1358.715
196.6220, 1234.547
197.8430, 1281.539
199.0640, 1465.691
200.2860, 1381.000
201.5070, 1449.465
202.7270, 1549.088
203.9480, 1124.867
205.1690, 1240.799
206.3890, 1016.883
207.6090, 812.1133
208.8290, 738.4941
210.0490, 569.0195
211.2690, 415.6914
212.4890, 513.5039
213.7080, 205.4590
214.9280, 287.5547
216.1470, 508.7871
217.3660, 687.6855
218.5850, 548.1426
219.8030, 628.4434
221.0220, 862.7012
222.2400, 1341.553
223.4590, 1509.455
224.6770, 1720.391
225.8950, 2043.822
227.1120, 2333.852
228.3300, 2846.004
229.5480, 3369.281
230.7650, 3752.527
231.9820, 4352.193
233.1990, 4671.211
234.4160, 5132.043
235.6330, 5660.322
236.8490, 5437.902
238.0660, 5561.350
239.2820, 5624.217
240.4980, 5231.555
241.7140, 5221.207
242.9300, 4717.746
244.1460, 4068.129
245.3610, 3005.396
246.5770, 2605.191
247.7920, 1841.236
249.0070, 1382.617
250.2220, 1037.320
251.4370, 1131.105
252.6510, 748.4688
253.8660, 524.7871
255.0800, 453.4688
256.2940, 295.4902
257.5080, 64.83008
258.7220, 441.4668
259.9360, 319.3867
261.1490, 267.5723
262.3630, 474.0117
263.5760, 31.31055
264.7890, 310.5957
266.0020, 50.71875
267.2150, 43.05078
268.4270, 126.5801
269.6400, 243.3027
270.8520, 201.2109
272.0640, 52.29297
273.2760, 290.5469
274.4880, 196.9629
275.7000, 116.5371
276.9120, 180.2637
278.1230, 225.1348
279.3340, 436.1523
280.5450, 578.3027
281.7560, 521.5898
282.9670, 554.0059
284.1780, 645.5488
285.3880, 1001.211
286.5980, 1066.996
287.8090, 1572.902
289.0190, 1902.924
290.2290, 2461.061
291.4380, 2923.312
292.6480, 3580.703
293.8570, 4031.207
295.0670, 4751.842
296.2760, 5106.611
297.4850, 5392.479
298.6930, 6149.436
299.9020, 6401.508
301.1110, 6573.668
302.3190, 6857.926
303.5270, 6651.275
304.7350, 5690.705
305.9430, 5200.246
307.1510, 4166.873
308.3580, 3502.590
309.5660, 2581.410
310.7730, 2579.307
311.9800, 2136.301
313.1870, 1714.365
314.3940, 1550.498
315.6010, 1370.701
316.8070, 1105.969
318.0130, 921.3066
319.2200, 889.7129
320.4260, 786.1855
321.6310, 684.7246
322.8370, 561.3281
324.0430, 478.7480
325.2480, 372.5723
326.4540, 290.5312
327.6590, 237.3965
328.8640, 175.0645
330.0680, 171.3145
331.2730, 111.3691
332.4780, 78.48828
333.6820, 86.91797
334.8860, 63.90820
336.0900, 26.20898
337.2940, 177.5684
338.4980, 75.99023
339.7010, 103.5332
340.9050, 101.9863
342.1080, 30.56445
343.3110, 61.19727
344.5140, 233.1113
345.7170, 1.591797
346.9200, 26.65234
348.1220, 299.8496
349.3240, 1.949219
350.5270, 10.20117
351.7290, 9.697266
352.9310, 23.64648
354.1320, 57.35352
355.3340, 32.68555
356.5350, 5.775391
357.7370, 51.08984
358.9380, 132.0840
360.1390, 179.3027
361.3400, 93.57227
362.5400, 314.8691
363.7410, 99.21289
364.9410, 67.55273
366.1410, 107.8633
367.3410, 166.2148
368.5410, 103.8789
369.7410, 172.0371
370.9400, 23.50781
372.1400, 83.98242
373.3390, 48.48242
374.5380, 21.91992
375.7370, 62.67383
376.9360, 245.6855
378.1350, 137.0742
379.3330, 230.7539
380.5310, 13.03516
381.7300, 242.4980
382.9280, 248.1133
384.1260, 90.73828
385.3230, 1.685547
386.5210, 12.81641
387.7180, 156.2539
388.9160, 74.69141
390.1130, 211.0977
391.3100, 38.53320
392.5060, 40.06641
393.7030, 49.26953
394.9000, 28.41992
396.0960, 61.16797
397.2920, 149.9727
398.4880, 431.8438
399.6840, 254.7773
400.8800, 283.7715
402.0750, 194.8242
403.2710, 509.9395
404.4660, 483.1074
405.6610, 583.3340
406.8560, 887.6152
408.0510, 812.7012
409.2450, 1168.088
410.4400, 1370.525
411.6340, 1605.014
412.8280, 1656.555
414.0220, 1706.143
415.2160, 1654.781
416.4100, 1625.467
417.6030, 1855.199
418.7970, 1731.977
419.9900, 2063.801
421.1830, 1687.670
422.3760, 1689.582
423.5690, 1566.615
424.7610, 1566.617
425.9540, 2223.797
427.1460, 2218.883
428.3380, 2564.008
429.5300, 2860.180
430.7220, 3302.859
431.9140, 3694.680
433.1050, 4434.523
434.2970, 4773.207
435.4880, 5076.285
436.6790, 5524.586
437.8700, 5783.938
439.0610, 5711.758
440.2510, 6253.277
441.4420, 6051.836
442.6320, 6131.561
443.8220, 5908.184
445.0120, 5788.357
446.2020, 5499.980
447.3910, 5432.957
448.5810, 5302.680
449.7700, 4740.209
450.9600, 4755.234
452.1490, 4392.680
453.3370, 3932.473
454.5260, 3948.801
455.7150, 3769.836
456.9030, 3586.910
458.0910, 3909.123
459.2800, 3812.266
460.4670, 4056.457
461.6550, 3933.680
462.8430, 4035.945
464.0300, 4427.238
465.2180, 4825.559
466.4050, 5413.904
467.5920, 5899.271
468.7790, 6600.676
469.9650, 7405.105
471.1520, 8299.605
472.3380, 9305.137
473.5250, 10196.74
474.7110, 10966.36
475.8970, 11619.02
477.0820, 12062.70
478.2680, 12008.40
479.4540, 11708.12
480.6390, 10820.89
481.8240, 9813.695
483.0090, 8453.660
484.1940, 7080.543
485.3780, 5928.445
486.5630, 4977.395
487.7470, 4286.389
488.9320, 3615.129
490.1160, 3601.945
491.3000, 3400.592
492.4830, 2866.363
493.6670, 3216.711
494.8500, 3283.691
496.0340, 3528.867
497.2170, 3445.248
498.4000, 3679.463
499.5820, 3398.254
500.7650, 3735.756
501.9480, 3384.039
503.1300, 3264.344
504.3120, 3080.668
505.4940, 3055.012
506.6760, 2496.375
507.8580, 2230.756
509.0390, 2502.160
510.2210, 1991.582
511.4020, 2012.021
512.5830, 1701.477
513.7640, 1244.645
514.9450, 1168.141
516.1250, 1158.119
517.3060, 1122.246
518.4860, 1130.811
519.6660, 776.1367
520.8460, 708.8301
522.0260, 570.7520
523.2060, 516.1289
524.3850, 733.3223
525.5650, 547.1660
526.7440, 592.7461
527.9230, 506.5391
529.1020, 222.6230
530.2810, 178.9668
531.4590, 357.1230
532.6380, 442.4746
533.8160, 161.2207
534.9940, 417.2070
536.1720, 264.3867
537.3500, 426.9668
538.5270, 227.4043
539.7050, 375.2949
540.8820, 463.2031
542.0590, 391.1270
543.2360, 505.0645
544.4130, 437.0195
545.5900, 652.9902
546.7660, 383.9766
547.9430, 591.9746
549.1190, 375.9883
550.2950, 337.0156
551.4710, 511.0586
552.6470, 481.1133
553.8220, 428.1816
554.9980, 494.2617
556.1730, 323.3555
557.3480, 414.4648
558.5230, 506.5840
559.6980, 354.7148
560.8730, 284.8555
562.0470, 298.0078
563.2220, 318.1738
564.3960, 135.3457
565.5700, 251.5332
566.7440, 128.7266
567.9170, 249.9297
569.0910, 264.1406
570.2640, 147.3633
571.4380, 52.59375
572.6110, 92.82227
573.7840, 94.04883
574.9570, 57.58203
576.1290, 77.49219
577.3020, 38.67383
578.4740, 81.14062
579.6460, 70.49609
580.8180, 216.7090
581.9900, 185.9434
583.1620, 12.00000
584.3330, 165.0234
585.5040, 26.36719
586.6760, 86.02734
587.8470, 134.0469
589.0180, 59.94141
590.1880, 98.33203
591.3590, 9.285156
592.5290, 53.46875
593.7000, 88.40234
594.8700, 50.50000
596.0400, 218.8672
597.2090, 334.0352
598.3790, 142.8477
599.5490, 272.2031
600.7180, 382.9062
601.8870, 385.4141
603.0560, 443.1641
604.2250, 355.3047
605.3940, 410.2383
606.5620, 385.0586
607.7300, 450.2422
608.8990, 592.3672
610.0670, 610.9062
611.2350, 708.4062
612.4020, 765.0000
613.5700, 960.7734
614.7370, 1152.719
615.9050, 1059.535
617.0720, 1100.461
618.2390, 1422.258
619.4060, 1744.047
620.5720, 1561.789
621.7390, 1928.637
622.9050, 2127.508
624.0710, 2206.113
625.2370, 2678.891
626.4030, 2785.414
627.5690, 3079.051
628.7340, 3249.996
629.9000, 3387.598
631.0650, 3401.121
632.2300, 3547.969
633.3950, 3554.617
634.5600, 3535.453
635.7240, 3358.277
636.8890, 2967.555
638.0530, 2656.379
639.2170, 2532.508
640.3810, 2437.254
641.5450, 1931.113
642.7080, 1861.867
643.8720, 1703.684
645.0350, 1496.777
646.1980, 1420.219
647.3610, 1196.133
648.5240, 1006.730
649.6870, 861.4805
650.8490, 1198.309
652.0120, 896.0352
653.1740, 919.7773
654.3360, 773.0664
655.4980, 783.8672
656.6600, 758.7891
657.8210, 497.6406
658.9830, 652.0547
660.1440, 470.8359
661.3050, 741.6328
662.4660, 614.4727
663.6270, 532.3047
664.7870, 430.1875
665.9480, 265.6094
667.1080, 238.6289
668.2680, 520.4805
669.4280, 174.1211
670.5880, 411.1055
671.7480, 466.1289
672.9070, 256.1875
674.0670, 402.2461
675.2260, 329.3047
676.3850, 589.3750
677.5440, 489.4414
678.7030, 299.4961
679.8610, 434.5352
681.0200, 609.5625
682.1780, 468.5703
683.3360, 399.5664
684.4940, 653.5430
685.6520, 401.5117
686.8090, 477.4766
687.9670, 450.4648
689.1240, 789.4375
690.2810, 847.4023
691.4380, 856.3438
692.5950, 802.2852
693.7520, 951.6445
694.9080, 808.1641
696.0650, 1122.102
697.2210, 1212.020
698.3770, 1112.918
699.5330, 1218.793
700.6880, 1400.648
701.8440, 1361.484
702.9990, 1311.328
704.1550, 1231.074
705.3100, 1100.879
706.4650, 979.5234
707.6190, 909.2812
708.7740, 751.0195
709.9290, 724.4258
711.0830, 819.9453
712.2370, 647.0391
713.3910, 678.1523
714.5450, 640.4102
715.6980, 321.2891
716.8520, 209.9648
718.0050, 26.82812
719.1580, 180.9961
720.3110, 179.6758
721.4640, 307.1289
722.6170, 385.4297
723.7700, 127.1641
724.9220, 57.66016
726.0740, 6.269531
727.2260, 277.2852
728.3780, 71.55859
729.5300, 223.0312
730.6810, 69.22656
731.8330, 336.7891
732.9840, 23.37500
734.1350, 48.05078
735.2860, 8.976563
736.4370, 81.98828
737.5880, 51.02734
738.7380, 32.84766
739.8880, 45.62891
741.0390, 3.667969
742.1890, 125.3594
743.3380, 173.0156
744.4880, 247.6562
745.6380, 317.2617
746.7870, 50.84375
747.9360, 105.3867
749.0850, 124.1055
750.2340, 103.2930
751.3830, 128.3477
752.5310, 172.8945
753.6800, 38.10547
754.8280, 178.2734
755.9760, 319.4141
757.1240, 222.5234
758.2720, 32.38281
759.4190, 37.63281
760.5670, 66.39844
761.7140, 50.48438
762.8610, 219.3242
764.0080, 44.86719
765.1550, 48.86719
766.3020, 180.5547
767.4480, 109.6914
768.5950, 11.17188
769.7410, 232.6680
770.8870, 117.1406
772.0330, 310.5742
773.1780, 277.9883
774.3240, 147.8398
775.4690, 227.1875
776.6140, 160.5039
777.7590, 112.4688
778.9040, 104.0781
780.0490, 112.5391
781.1940, 213.7031
782.3380, 166.9727
783.4820, 136.9492
784.6260, 187.4258
785.7700, 124.5820
786.9140, 232.9531
788.0580, 198.9688
789.2010, 264.4219
790.3450, 257.1719
791.4880, 81.25781
792.6310, 115.3086
793.7730, 44.01172
794.9160, 113.4258
796.0590, 19.83203
797.2010, 257.4883
798.3430, 327.1055
799.4850, 251.8906
800.6270, 379.9219
801.7690, 359.7109
802.9100, 172.0625
804.0520, 389.5117
805.1930, 310.9336
806.3340, 157.2070
807.4750, 495.6562
808.6160, 427.1953
809.7560, 471.9531
810.8970, 544.2031
812.0370, 644.7852
813.1770, 596.9766
814.3170, 481.8750
815.4570, 427.5586
816.5960, 387.5898
817.7360, 587.6250
818.8750, 542.6875
820.0140, 711.8555
821.1530, 829.0352
822.2920, 863.2461
823.4310, 736.2109
824.5690, 953.2070
825.7070, 822.3320
826.8460, 713.8477
827.9840, 732.7812
829.1220, 410.2578
830.2590, 350.6797
831.3970, 635.6914
832.5340, 673.7891
833.6710, 875.8438
834.8080, 680.9570
835.9450, 578.4375
837.0820, 484.8672
838.2190, 495.3125
839.3550, 383.9102
840.4910, 459.2227
841.6270, 588.6719
842.7630, 431.9336
843.8990, 781.9219
845.0350, 417.1562
846.1700, 441.3281
847.3060, 702.4688
848.4410, 351.8359
849.5760, 331.9180
850.7100, 557.3281
851.8450, 394.3438
852.9800, 583.3477
854.1140, 287.7930
855.2480, 564.6445
856.3820, 151.5977
857.5160, 488.4570
858.6500, 518.8359
859.7830, 423.9414
860.9170, 643.5312
862.0500, 276.7656
863.1830, 512.6016
864.3160, 531.4102
865.4480, 472.8984
866.5810, 281.6641
867.7130, 476.0898
868.8460, 246.8281
869.9780, 575.3086
871.1100, 337.4453
872.2410, 318.7500
873.3730, 266.3789
874.5050, 263.4180
875.6360, 668.0820
876.7670, 513.9023
877.8980, 689.6328
879.0290, 332.5664
880.1590, 624.8516
881.2900, 686.2188
882.4200, 907.5469
883.5500, 776.1719
884.6800, 862.7031
885.8100, 671.2422
886.9400, 917.6445
888.0690, 810.8398
889.1990, 966.8164
890.3280, 887.8906
891.4570, 758.8125
892.5860, 548.8281
893.7140, 512.8125
894.8430, 741.8047
895.9710, 688.6523
897.1000, 634.4375
898.2280, 635.4688
899.3560, 700.2852
900.4830, 420.3242
901.6110, 507.1953
902.7380, 268.7695
903.8660, 207.6445
904.9930, 611.5703
906.1200, 548.1875
907.2460, 414.9648
908.3730, 164.5156
909.5000, 411.0391
910.6260, 315.0664
911.7520, 448.5234
912.8780, 36.63281
914.0040, 194.0781
915.1290, 220.3750
916.2550, 437.7422
917.3800, 430.0000
918.5050, 513.9414
919.6300, 182.4961
920.7550, 83.52344
921.8800, 57.82422
923.0040, 269.9297
924.1290, 156.9102
925.2530, 96.05469
926.3770, 230.8867
927.5010, 227.2500
928.6250, 13.05469
929.7480, 450.7031
930.8720, 52.39453
931.9950, 89.46875
933.1180, 407.1875
934.2410, 226.8750
935.3640, 160.5352
936.4860, 57.21484
937.6090, 104.8516
938.7310, 354.0469
939.8530, 395.6992
940.9750, 82.67188
942.0970, 219.1992
943.2180, 72.26953
944.3400, 159.1797
945.4610, 306.5938
946.5820, 26.98828
947.7030, 269.3672
948.8240, 17.30469
949.9450, 134.9727
951.0650, 88.24219
952.1860, 82.46875
953.3060, 74.65625
954.4260, 57.81641
955.5460, 212.9297
956.6650, 44.01562
957.7850, 38.93359
958.9040, 135.9531
960.0230, 10.08594
961.1420, 106.7305
962.2610, 218.5156
963.3800, 50.70703
964.4990, 5.000000
965.6170, 140.2500
966.7350, 23.29297
967.8530, 141.7969
968.9710, 120.2734
970.0890, 259.7148
971.2070, 273.1328
972.3240, 64.59766
973.4410, 91.05469
974.5580, 388.2109
975.6750, 54.94531
976.7920, 383.1680
977.9090, 99.91797
979.0250, 259.6211
980.1410, 455.4453
981.2580, 290.5078
982.3740, 204.5859
983.4890, 339.2031
984.6050, 175.2227
985.7200, 451.2266
986.8360, 316.2539
987.9510, 158.6680
989.0660, 172.5859
990.1810, 248.6797
991.2950, 265.3008
992.4100, 174.1602
993.5240, 235.9883
994.6390, 602.8789
995.7530, 439.7031
996.8660, 369.2656
997.9800, 662.0586
999.0940, 578.8203
1000.207, 628.4531
1001.320, 720.0625
1002.433, 661.7578
1003.546, 641.0625
1004.659, 724.7148
1005.772, 539.3516
1006.884, 621.3945
1007.996, 991.2656
1009.108, 794.5703
1010.220, 1103.148
1011.332, 1513.711
1012.444, 1393.258
1013.555, 1367.781
1014.666, 1517.285
1015.777, 1911.758
1016.888, 1688.207
1017.999, 2222.641
1019.110, 2710.051
1020.220, 2852.484
1021.331, 2990.895
1022.441, 3157.328
1023.551, 3333.734
1024.661, 3701.129
1025.770, 4111.500
1026.880, 3926.848
1027.989, 3816.168
1029.098, 4076.492
1030.207, 3930.793
1031.316, 3396.109
1032.425, 3161.406
1033.533, 2984.680
1034.642, 2388.957
1035.750, 1848.219
1036.858, 1832.371
1037.966, 1368.316
1039.073, 1258.566
1040.181, 1303.793
1041.288, 1097.996
1042.396, 1076.695
1043.503, 1244.855
1044.610, 809.0000
1045.716, 1066.121
1046.823, 773.5352
1047.929, 904.2539
1049.036, 910.0664
1050.142, 971.1133
1051.248, 1299.137
1052.353, 1656.148
1053.459, 1644.727
1054.564, 1882.738
1055.670, 1985.160
1056.775, 2140.051
1057.880, 2296.445
1058.985, 2449.852
1060.089, 2615.543
1061.194, 2807.977
1062.298, 2960.625
1063.402, 3135.020
1064.506, 3325.465
1065.610, 3483.273
1066.713, 3750.062
1067.817, 3614.637
1068.920, 4063.227
1070.023, 4043.770
1071.126, 4565.031
1072.229, 5369.734
1073.332, 5555.492
1074.435, 5838.133
1075.537, 6936.520
1076.639, 7022.918
1077.741, 7120.172
1078.843, 6831.867
1079.945, 6242.059
1081.046, 5533.594
1082.148, 4756.367
1083.249, 3719.500
1084.350, 3037.035
1085.451, 2348.508
1086.551, 1983.898
1087.652, 1760.137
1088.752, 1306.309
1089.853, 974.3789
1090.953, 953.6797
1092.053, 674.8750
1093.152, 711.8945
1094.252, 327.4648
1095.351, 537.3164
1096.451, 444.9141
1097.550, 179.4219
1098.649, 234.2930
1099.748, 408.0195
1100.846, 478.7383
1101.945, 355.3516
1103.043, 229.5391
1104.141, 166.7344
1105.239, 206.8516
1106.337, 238.7734
1107.434, 59.93359
1108.532, 218.0000
1109.629, 47.07422
1110.726, 29.63281
1111.823, 26.35156
1112.920, 4.656250
1114.017, 235.3086
1115.113, 39.00000
1116.210, 168.5977
1117.306, 245.1445
1118.402, 157.9414
1119.498, 92.00781
1120.593, 118.3477
1121.689, 56.25000
1122.784, 68.60156
1123.879, 173.0430
1124.974, 248.3008
1126.069, 140.8086
1127.164, 213.4570
1128.259, 285.0938
1129.353, 317.7930
1130.447, 267.3359
1131.541, 421.9453
1132.635, 287.5391
1133.729, 170.1250
1134.822, 495.6992
1135.916, 457.2617
1137.009, 699.8125
1138.102, 597.3594
1139.195, 551.8906
1140.288, 651.4180
1141.380, 750.9336
1142.473, 988.4414
1143.565, 1569.938
1144.657, 2008.426
1145.749, 1921.898
1146.841, 2662.367
1147.932, 2817.820
1149.024, 3101.266
1150.115, 3426.707
1151.206, 3186.133
1152.297, 3067.555
1153.388, 2951.969
1154.479, 2875.371
1155.569, 2370.762
1156.659, 1984.148
1157.750, 1627.527
1158.839, 1386.891
1159.929, 1354.254
1161.019, 1296.605
1162.108, 977.9492
1163.198, 1108.289
1164.287, 877.6211
1165.376, 1172.941
1166.465, 973.2578
1167.553, 975.5664
1168.642, 1153.859
1169.730, 1171.156
1170.818, 1387.441
1171.906, 1221.723
1172.994, 1284.992
1174.082, 1312.258
1175.170, 1575.520
1176.257, 1755.770
1177.344, 1497.016
1178.431, 1783.262
1179.518, 1501.508
1180.605, 1515.742
1181.691, 1177.977
1182.778, 1306.203
1183.864, 819.4219
1184.950, 914.6367
1186.036, 843.8477
1187.122, 622.0625
1188.207, 486.2734
1189.292, 537.4766
1190.378, 544.7148
1191.463, 37.94531
1192.548, 226.1719
1193.632, 20.40234
1194.717, 207.6211
1195.801, 188.8438
1196.886, 265.0703
1197.970, 119.2891
1199.054, 192.4961
1200.137, 54.60547
1201.221, 306.2812
1202.305, 113.6641
1203.388, 49.60156
1204.471, 43.46484
1205.554, 26.52734
1206.637, 293.3867
1207.719, 33.32812
1208.802, 113.7266
1209.884, 272.1484
1210.966, 232.0430
1212.048, 91.92969
1213.130, 85.17578
1214.212, 67.67969
1215.293, 271.5391
1216.374, 332.3984
1217.456, 91.26172
1218.536, 279.1211
1219.617, 48.98828
1220.698, 269.8555
1221.778, 147.7422
1222.859, 103.6680
1223.939, 71.60938
1225.019, 83.45312
1226.099, 16.92578
1227.178, 152.3633
1228.258, 150.1992
1229.337, 207.6016
1230.417, 58.14844
1231.496, 218.1250
1232.574, 134.1094
1233.653, 118.3203
1234.732, 247.9922
1235.810, 62.98047
1236.888, 95.00391
1237.966, 86.49609
1239.044, 34.48047
1240.122, 308.9414
1241.199, 318.4102
1242.277, 293.7344
1243.354, 63.79688
1244.431, 66.81250
1245.508, 13.72656
1246.585, 184.2734
1247.661, 50.28906
1248.738, 45.73828
1249.814, 216.8125
1250.890, 304.6094
1251.966, 286.4453
1253.042, 133.5273
1254.117, 35.55078
1255.193, 55.58594
1256.268, 12.53125
1257.343, 118.5742
1258.418, 238.6211
1259.493, 145.6719
1260.567, 178.7305
1261.642, 239.7969
1262.716, 359.8633
1263.790, 215.9414
1264.864, 303.0234
1265.938, 165.1094
1267.011, 116.2070
1268.085, 279.3047
1269.158, 315.4141
1270.231, 172.5273
1271.304, 389.6445
1272.377, 218.7695
1273.450, 285.9062
1274.522, 424.0469
1275.594, 102.1953
1276.666, 337.3516
1277.738, 247.5156
1278.810, 193.6836
1279.882, 323.8672
1280.953, 581.0547
1282.025, 240.2500
1283.096, 312.4609
1284.167, 90.68750
1285.238, 257.9258
1286.308, 244.1758
1287.379, 140.4336
1288.449, 129.3242
1289.519, 468.6016
1290.589, 410.8867
1291.659, 727.1797
1292.729, 170.4844
1293.798, 329.8008
1294.868, 496.1250
1295.937, 458.4609
1297.006, 437.8047
1298.075, 528.1602
1299.143, 192.5273
1300.212, 146.0664
1301.280, 381.4570
1302.348, 584.8555
1303.416, 576.2656
1304.484, 248.6836
1305.552, 341.1172
1306.620, 654.5625
1307.687, 330.0156
1308.754, 570.4766
1309.821, 525.9531
1310.888, 226.4375
1311.955, 353.9336
1313.021, 422.4414
1314.088, 495.9570
1315.154, 152.4883
1316.220, 481.0469
1317.286, 450.6133
1318.352, 475.1953
1319.417, 902.7891
1320.483, 453.2031
1321.548, 149.8125
1322.613, 480.1602
1323.678, 464.7773
1324.743, 323.4102
1325.807, 578.0430
1326.872, 267.6875
1327.936, 285.0312
1329.000, 507.6133
1330.064, 582.8828
1331.128, 499.5742
1332.191, 560.1875
1333.255, 605.0312
1334.318, 406.7773
1335.381, 730.5117
1336.444, 593.6016
1337.507, 451.2500
1338.569, 420.0195
1339.632, 347.8086
1340.694, 190.6094
1341.756, 339.7578
1342.818, 142.5859
1343.880, 362.4258
1344.941, 596.2852
1346.003, 261.1562
1347.064, 585.0430
1348.125, 300.9414
1349.186, 717.8555
1350.247, 529.7891
1351.308, 292.7305
1352.368, 537.6914
1353.428, 540.9219
1354.489, 307.9727
1355.549, 572.9805
1356.608, 393.0039
1357.668, 696.0391
1358.727, 675.0938
1359.787, 682.1641
1360.846, 494.2539
1361.905, 566.3555
1362.964, 643.4766
1364.022, 521.6094
1365.081, 699.6250
1366.139, 662.7891
1367.197, 726.9766
1368.255, 638.2891
1369.313, 784.5430
1370.371, 703.8242
1371.428, 564.1289
1372.486, 649.4453
1373.543, 680.1211
1374.600, 324.4805
1375.657, 519.8516
1376.713, 540.1992
1377.770, 267.6406
1378.826, 492.1055
1379.882, 364.6094
1380.938, 426.1523
1381.994, 544.7188
1383.050, 652.3047
1384.106, 559.9062
1385.161, 312.5312
1386.216, 486.1719
1387.271, 406.8281
1388.326, 476.5078
1389.381, 377.3984
1390.435, 361.5391
1391.490, 356.8555
1392.544, 331.6211
1393.598, 334.3789
1394.652, 428.1680
1395.705, 322.9648
1396.759, 236.7891
1397.812, 33.63281
1398.866, 500.4961
1399.919, 73.38281
1400.972, 252.3008
1402.024, 175.2305
1403.077, 122.1875
1404.129, 188.1602
1405.181, 491.1602
1406.233, 380.6484
1407.285, 580.6875
1408.337, 287.6914
1409.389, 283.9414
1410.440, 79.38672
1411.491, 465.4570
1412.542, 313.5469
1413.593, 565.7031
1414.644, 40.16016
1415.695, 197.1562
1416.745, 270.3359
1417.795, 237.5430
1418.845, 211.2500
1419.895, 300.5039
1420.945, 433.7812
1421.995, 111.0859
1423.044, 235.6367
1424.093, 538.2734
1425.142, 183.6562
1426.191, 15.76953
1427.240, 176.6641
1428.289, 196.4023
1429.337, 432.9297
1430.385, 140.3320
1431.433, 299.7305
1432.481, 88.53125
1433.529, 240.9727
1434.577, 182.4180
1435.624, 217.8867
1436.672, 284.3477
1437.719, 305.8203
1438.766, 287.2969
1439.812, 305.7773
1440.859, 108.2539
1441.905, 201.1094
1442.952, 289.6250
1443.998, 229.1680
1445.044, 542.4531
1446.090, 268.1914
1447.135, 150.2227
1448.181, 506.4414
1449.226, 446.3125
1450.271, 155.2070
1451.316, 478.1797
1452.361, 156.3164
1453.405, 307.5586
1454.450, 347.8633
1455.494, 287.2070
1456.538, 338.2734
1457.582, 254.0820
1458.626, 314.6094
1459.670, 83.16016
1460.713, 96.75000
1461.757, 62.63672
1462.800, 225.0078
1463.843, 437.7070
1464.886, 175.4648
1465.928, 582.2500
1466.971, 32.94141
1468.013, 10.91016
1469.055, 166.7930
1470.097, 70.74609
1471.139, 135.6914
1472.181, 167.6875
1473.222, 392.6797
1474.263, 289.7305
1475.305, 169.8320
1476.346, 377.9766
1477.386, 99.15625
1478.427, 181.3594
1479.468, 12.40234
1480.508, 338.8711
1481.548, 524.1758
1482.588, 231.5039
1483.628, 373.8672
1484.668, 113.2695
1485.707, 266.7070
1486.747, 182.1719
1487.786, 512.6641
1488.825, 299.1953
1489.864, 321.7578
1490.902, 61.65234
1491.941, 83.05859
1492.979, 297.5508
1494.017, 360.2070
1495.055, 34.84766
1496.093, 323.5234
1497.131, 212.2344
1498.168, 103.9688
1499.206, 236.7344
1500.243, 236.2461
1501.280, 195.0625
1502.317, 347.9141
1503.354, 152.7891
1504.390, 310.7031
1505.426, 198.6523
1506.463, 128.6367
1507.499, 191.6250
1508.535, 99.28906
1509.570, 338.6406
1510.606, 76.75391
1511.641, 236.9453
1512.676, 330.2148
1513.711, 28.53906
1514.746, 162.9297
1515.781, 259.3867
1516.816, 83.89453
1517.850, 196.1211
1518.884, 252.6875
1519.918, 418.0586
1520.952, 138.7188
1521.986, 451.4453
1523.019, 518.2266
1524.053, 268.0742
1525.086, 105.9766
1526.119, 219.5391
1527.152, 168.5547
1528.185, 236.6445
1529.217, 630.7891
1530.250, 22.00391
1531.282, 555.2852
1532.314, 141.0234
1533.346, 16.95703
1534.377, 34.86719
1535.409, 479.2773
1536.440, 265.4883
1537.472, 7.234375
1538.503, 293.0977
1539.534, 113.4961
1540.564, 420.9609
1541.595, 476.4883
1542.625, 56.08203
1543.656, 322.9023
1544.686, 238.5781
1545.716, 527.4492
1546.745, 131.4453
1547.775, 122.5039
1548.804, 267.5781
1549.834, 159.7891
1550.863, 441.0664
1551.892, 142.5312
1552.920, 193.6914
1553.949, 701.1250
1554.977, 239.5352
1556.006, 122.8086
1557.034, 368.1367
1558.062, 473.1680
1559.089, 231.9219
1560.117, 369.1680
1561.144, 453.7578
1562.172, 270.8906
1563.199, 307.1055
1564.226, 282.4961
1565.252, 12.96875
1566.279, 312.6289
1567.305, 569.3125
1568.332, 171.8008
1569.358, 403.3047
1570.384, 68.01953
1571.409, 0.0000000E+00
##END=



