##NAMES=Senegalite
##RRUFFID=R050239
##IDEAL CHEMISTRY=Al_2_PO_4_(OH)_3_&#183;H_2_O
##LOCALITY=Kourondicko iron ore (magnetite) deposit, Faleme River Basin, Senegal
##OWNER=RRUFF
##SOURCE=Marcus Origlieri
##DESCRIPTION=Colorless prismatic crystals
##STATUS=The identification of this mineral has been confirmed by X-ray diffraction and chemical analysis
##URL=rruff.info/R050239
##MEASURED CHEMISTRY=Al_2.00_P_1.00_O_4_(OH)_3_Â·H_2_O
##PIN_ID=M00152
##ORIENTATION=Laser parallel to c* (0 0 1). Fiducial mark perpendicular to laser is parallel to a [1 0 0]
95.94800, 0.0000000E+00
97.18200, 150.2695
98.41600, 622.5156
99.64900, 1323.205
100.8830, 2267.484
102.1160, 3429.104
103.3490, 5073.359
104.5820, 4981.418
105.8150, 3601.768
107.0470, 2010.820
108.2800, 881.2930
109.5120, 655.5645
110.7440, 289.9824
111.9760, 111.8789
113.2080, 44.71484
114.4400, 80.04102
115.6710, 31.48438
116.9030, 65.28516
118.1340, 119.5215
119.3650, 0.5507810
120.5960, 4.724609
121.8270, 45.82422
123.0580, 254.6953
124.2880, 154.1992
125.5190, 185.2148
126.7490, 304.6387
127.9790, 491.3672
129.2090, 621.3242
130.4390, 752.4258
131.6680, 888.6094
132.8980, 1413.809
134.1270, 1616.939
135.3560, 1837.914
136.5850, 1684.695
137.8140, 1382.270
139.0430, 1156.719
140.2710, 761.9062
141.5000, 673.7871
142.7280, 529.3203
143.9560, 346.4688
145.1840, 398.2051
146.4120, 314.5020
147.6390, 596.3281
148.8670, 308.6641
150.0940, 233.4902
151.3210, 397.7871
152.5490, 194.5332
153.7750, 381.7148
155.0020, 366.3164
156.2290, 279.3262
157.4550, 250.7266
158.6810, 319.5078
159.9080, 205.6602
161.1340, 114.1680
162.3590, 236.0254
163.5850, 346.2188
164.8110, 454.7441
166.0360, 402.5938
167.2610, 399.7617
168.4860, 502.2402
169.7110, 495.9121
170.9360, 287.5020
172.1610, 315.0898
173.3850, 195.7246
174.6100, 409.5684
175.8340, 391.6387
177.0580, 435.1270
178.2820, 525.2461
179.5050, 416.0684
180.7290, 459.6953
181.9520, 477.0391
183.1760, 511.7070
184.3990, 645.0352
185.6220, 701.8984
186.8450, 1025.754
188.0670, 1227.732
189.2900, 1610.838
190.5120, 2151.074
191.7340, 2732.441
192.9560, 3348.941
194.1780, 3870.576
195.4000, 4116.346
196.6220, 3536.250
197.8430, 2816.291
199.0640, 2212.471
200.2860, 1366.787
201.5070, 1222.238
202.7270, 801.8281
203.9480, 753.5508
205.1690, 631.4082
206.3890, 538.4004
207.6090, 466.6055
208.8290, 346.7871
210.0490, 337.1797
211.2690, 199.7070
212.4890, 192.3594
213.7080, 367.1426
214.9280, 162.0547
216.1470, 377.0977
217.3660, 214.2656
218.5850, 290.5566
219.8030, 385.9766
221.0220, 256.5215
222.2400, 626.1875
223.4590, 639.9766
224.6770, 741.8848
225.8950, 947.9160
227.1120, 1262.064
228.3300, 1517.332
229.5480, 2133.719
230.7650, 2818.234
231.9820, 3620.891
233.1990, 4115.688
234.4160, 4880.600
235.6330, 5225.664
236.8490, 4742.863
238.0660, 3915.225
239.2820, 3058.695
240.4980, 2123.277
241.7140, 1662.963
242.9300, 1199.578
244.1460, 835.9219
245.3610, 637.4414
246.5770, 715.7617
247.7920, 437.7734
249.0070, 452.3418
250.2220, 377.0508
251.4370, 270.6934
252.6510, 74.74414
253.8660, 19.75977
255.0800, 18.09961
256.2940, 77.56055
257.5080, 91.11719
258.7220, 230.6133
259.9360, 203.9551
261.1490, 410.9902
262.3630, 158.0371
263.5760, 40.76758
264.7890, 11.12305
266.0020, 212.2441
267.2150, 158.0645
268.4270, 76.38281
269.6400, 157.8887
270.8520, 152.5762
272.0640, 37.43945
273.2760, 137.4688
274.4880, 65.66016
275.7000, 110.4805
276.9120, 135.3613
278.1230, 178.1621
279.3340, 200.9531
280.5450, 180.8848
281.7560, 251.9512
282.9670, 316.1504
284.1780, 370.4805
285.3880, 517.9316
286.5980, 674.5059
287.8090, 760.1387
289.0190, 887.0176
290.2290, 977.9316
291.4380, 1167.969
292.6480, 1269.113
293.8570, 1442.291
295.0670, 1652.717
296.2760, 1813.174
297.4850, 1916.732
298.6930, 2157.393
299.9020, 2529.146
301.1110, 2967.000
302.3190, 3342.945
303.5270, 3686.982
304.7350, 3646.115
305.9430, 3197.334
307.1510, 2819.643
308.3580, 2316.039
309.5660, 1933.520
310.7730, 2274.086
311.9800, 2204.734
313.1870, 2367.467
314.3940, 2339.275
315.6010, 1793.168
316.8070, 1800.141
318.0130, 1410.195
319.2200, 1261.332
320.4260, 1069.545
321.6310, 985.8438
322.8370, 872.1191
324.0430, 721.6660
325.2480, 740.1895
326.4540, 785.7695
327.6590, 782.4199
328.8640, 903.1406
330.0680, 901.9316
331.2730, 872.7930
332.4780, 903.7246
333.6820, 642.7246
334.8860, 469.7930
336.0900, 342.9297
337.2940, 416.1348
338.4980, 431.4062
339.7010, 240.7480
340.9050, 499.1523
342.1080, 304.6270
343.3110, 287.1680
344.5140, 325.7734
345.7170, 218.4453
346.9200, 372.1836
348.1220, 726.9863
349.3240, 656.8535
350.5270, 326.7812
351.7290, 451.7773
352.9310, 874.8340
354.1320, 918.9551
355.3340, 1193.139
356.5350, 1672.385
357.7370, 1492.693
358.9380, 1909.064
360.1390, 2373.496
361.3400, 2640.014
362.5400, 2913.566
363.7410, 3259.031
364.9410, 3604.385
366.1410, 3347.883
367.3410, 3484.977
368.5410, 3227.826
369.7410, 3120.957
370.9400, 2933.924
372.1400, 3038.678
373.3390, 2933.762
374.5380, 2793.338
375.7370, 2708.570
376.9360, 2528.865
378.1350, 2252.932
379.3330, 1747.297
380.5310, 1588.717
381.7300, 1131.193
382.9280, 879.7227
384.1260, 709.3047
385.3230, 497.9434
386.5210, 491.6348
387.7180, 165.4375
388.9160, 68.34180
390.1130, 137.3398
391.3100, 237.4297
392.5060, 107.6113
393.7030, 39.87891
394.9000, 109.7734
396.0960, 24.59375
397.2920, 81.96875
398.4880, 42.50195
399.6840, 170.9980
400.8800, 270.5020
402.0750, 322.3652
403.2710, 312.9609
404.4660, 452.4199
405.6610, 196.2773
406.8560, 136.1621
408.0510, 44.16797
409.2450, 47.33789
410.4400, 114.1504
411.6340, 193.0391
412.8280, 126.2988
414.0220, 280.6250
415.2160, 148.0215
416.4100, 210.4844
417.6030, 211.0156
418.7970, 388.6133
419.9900, 422.2773
421.1830, 560.0078
422.3760, 472.8047
423.5690, 747.6660
424.7610, 780.5898
425.9540, 1054.578
427.1460, 1014.633
428.3380, 1049.748
429.5300, 1399.928
430.7220, 1705.172
431.9140, 1596.477
433.1050, 1802.844
434.2970, 1942.270
435.4880, 2220.762
436.6790, 2097.312
437.8700, 2434.926
439.0610, 2432.600
440.2510, 2620.332
441.4420, 2816.125
442.6320, 2886.979
443.8220, 2712.891
445.0120, 2169.859
446.2020, 2372.887
447.3910, 2035.977
448.5810, 1965.121
449.7700, 1943.324
450.9600, 1603.586
452.1490, 1381.904
453.3370, 1445.281
454.5260, 1195.715
455.7150, 1126.205
456.9030, 1068.748
458.0910, 897.3535
459.2800, 999.0117
460.4670, 792.7246
461.6550, 957.4941
462.8430, 1063.320
464.0300, 1007.201
465.2180, 1307.137
466.4050, 1228.127
467.5920, 1431.170
468.7790, 1551.270
469.9650, 1982.420
471.1520, 2448.629
472.3380, 2955.887
473.5250, 3341.203
474.7110, 3885.570
475.8970, 4827.000
477.0820, 5752.488
478.2680, 6426.031
479.4540, 7199.625
480.6390, 7388.305
481.8240, 6849.031
483.0090, 5844.820
484.1940, 5079.672
485.3780, 4033.582
486.5630, 3185.555
487.7470, 2639.586
488.9320, 2188.672
490.1160, 1761.809
491.3000, 1577.004
492.4830, 1487.246
493.6670, 1269.582
494.8500, 1069.988
496.0340, 1047.453
497.2170, 878.9648
498.4000, 747.5273
499.5820, 746.1719
500.7650, 621.8789
501.9480, 601.6328
503.1300, 98.44141
504.3120, 288.3008
505.4940, 12.21094
506.6760, 53.14844
507.8580, 14.13281
509.0390, 27.16406
510.2210, 159.2344
511.4020, 79.22656
512.5830, 123.4180
513.7640, 26.28516
514.9450, 131.9766
516.1250, 0.7187500
517.3060, 35.61328
518.4860, 32.95703
519.6660, 47.48438
520.8460, 153.9688
522.0260, 182.5664
523.2060, 235.5430
524.3850, 231.9805
525.5650, 365.7734
526.7440, 256.6094
527.9230, 477.5039
529.1020, 442.4375
530.2810, 589.4219
531.4590, 722.4297
532.6380, 714.5234
533.8160, 1116.703
534.9940, 1168.922
536.1720, 1207.547
537.3500, 1563.809
538.5270, 1994.125
539.7050, 2071.699
540.8820, 2425.102
542.0590, 2281.293
543.2360, 2393.492
544.4130, 2813.094
545.5900, 2534.191
546.7660, 2726.957
547.9430, 2748.012
549.1190, 2728.121
550.2950, 2738.762
551.4710, 2749.398
552.6470, 2454.703
553.8220, 2685.820
554.9980, 2618.996
556.1730, 2407.211
557.3480, 2485.480
558.5230, 2377.793
559.6980, 2595.145
560.8730, 2361.551
562.0470, 2336.031
563.2220, 1921.562
564.3960, 2068.156
565.5700, 1756.797
566.7440, 1834.480
567.9170, 1757.211
569.0910, 1659.992
570.2640, 1561.820
571.4380, 1675.699
572.6110, 1461.629
573.7840, 1458.598
574.9570, 1303.605
576.1290, 1140.652
577.3020, 1052.742
578.4740, 1061.875
579.6460, 1023.039
580.8180, 913.2539
581.9900, 665.5000
583.1620, 693.7852
584.3330, 446.0977
585.5040, 462.4570
586.6760, 779.8477
587.8470, 779.2695
589.0180, 126.7305
590.1880, 417.2188
591.3590, 130.7422
592.5290, 445.3047
593.7000, 345.8945
594.8700, 526.5195
596.0400, 161.1758
597.2090, 54.86328
598.3790, 320.5820
599.5490, 399.3320
600.7180, 60.11328
601.8870, 222.9219
603.0560, 185.7617
604.2250, 229.6289
605.3940, 59.52344
606.5620, 256.4453
607.7300, 73.39844
608.8990, 117.3789
610.0670, 297.3867
611.2350, 226.4141
612.4020, 412.4766
613.5700, 333.5625
614.7370, 665.6719
615.9050, 844.1328
617.0720, 523.5898
618.2390, 685.7734
619.4060, 580.9805
620.5720, 478.9336
621.7390, 783.1875
622.9050, 535.0000
624.0710, 777.8398
625.2370, 589.0156
626.4030, 542.9883
627.5690, 583.5742
628.7340, 679.4766
629.9000, 730.3555
631.0650, 993.5273
632.2300, 718.2930
633.3950, 913.0234
634.5600, 834.5625
635.7240, 664.7773
636.8890, 871.2852
638.0530, 956.8125
639.2170, 530.4961
640.3810, 882.9609
641.5450, 463.5312
642.7080, 359.0469
643.8720, 407.4258
645.0350, 234.0430
646.1980, 262.0312
647.3610, 182.1914
648.5240, 160.9297
649.6870, 147.9805
650.8490, 161.8633
652.0120, 101.4023
653.1740, 210.1133
654.3360, 187.9180
655.4980, 100.6484
656.6600, 181.1953
657.8210, 174.9102
658.9830, 276.6523
660.1440, 306.1367
661.3050, 461.0312
662.4660, 69.22266
663.6270, 534.7578
664.7870, 586.9531
665.9480, 385.1953
667.1080, 705.0391
668.2680, 674.8555
669.4280, 874.3789
670.5880, 1436.457
671.7480, 1449.285
672.9070, 1360.910
674.0670, 1789.234
675.2260, 1714.828
676.3850, 1413.566
677.5440, 1484.734
678.7030, 1216.605
679.8610, 1003.133
681.0200, 1014.082
682.1780, 836.8555
683.3360, 742.2734
684.4940, 799.1016
685.6520, 660.9492
686.8090, 853.5781
687.9670, 576.4688
689.1240, 870.1758
690.2810, 864.6914
691.4380, 1124.586
692.5950, 940.0234
693.7520, 964.1875
694.9080, 1109.590
696.0650, 1330.512
697.2210, 1496.902
698.3770, 1781.281
699.5330, 1935.355
700.6880, 2180.398
701.8440, 2148.613
702.9990, 2386.477
704.1550, 2079.812
705.3100, 1991.906
706.4650, 1952.211
707.6190, 1671.348
708.7740, 1627.945
709.9290, 1034.395
711.0830, 1057.211
712.2370, 728.1797
713.3910, 1000.395
714.5450, 616.9727
715.6980, 576.0078
716.8520, 398.0039
718.0050, 319.1484
719.1580, 411.9297
720.3110, 453.6250
721.4640, 580.7148
722.6170, 504.7852
723.7700, 321.3203
724.9220, 344.3555
726.0740, 420.5977
727.2260, 180.5859
728.3780, 498.5547
729.5300, 305.4922
730.6810, 646.2695
731.8330, 511.4102
732.9840, 128.2891
734.1350, 474.6289
735.2860, 407.4648
736.4370, 307.2695
737.5880, 580.0547
738.7380, 437.8086
739.8880, 833.5430
741.0390, 569.2539
742.1890, 378.9375
743.3380, 147.5977
744.4880, 537.2266
745.6380, 513.8359
746.7870, 407.4141
747.9360, 366.9648
749.0850, 466.4922
750.2340, 554.9883
751.3830, 404.4570
752.5310, 143.9023
753.6800, 7.687500
754.8280, 22.67188
755.9760, 239.9922
757.1240, 217.2852
758.2720, 77.45703
759.4190, 185.7148
760.5670, 8.144531
761.7140, 17.94141
762.8610, 55.98438
764.0080, 24.01562
765.1550, 36.79297
766.3020, 85.81250
767.4480, 90.66797
768.5950, 70.48438
769.7410, 106.2656
770.8870, 124.9922
772.0330, 25.37109
773.1780, 23.17969
774.3240, 301.6797
775.4690, 186.1406
776.6140, 87.42578
777.7590, 21.89844
778.9040, 362.1758
780.0490, 24.83984
781.1940, 82.02344
782.3380, 288.1680
783.4820, 142.6602
784.6260, 64.73438
785.7700, 13.39844
786.9140, 87.57812
788.0580, 196.5117
789.2010, 172.9766
790.3450, 200.8359
791.4880, 105.3398
792.6310, 242.3125
793.7730, 153.0664
794.9160, 202.0469
796.0590, 195.7617
797.2010, 70.22266
798.3430, 202.3672
799.4850, 31.12109
800.6270, 67.97266
801.7690, 150.3203
802.9100, 149.4844
804.0520, 51.44531
805.1930, 233.9531
806.3340, 70.11719
807.4750, 25.56641
808.6160, 262.1172
809.7560, 97.12500
810.8970, 159.7109
812.0370, 74.27344
813.1770, 209.1680
814.3170, 49.22266
815.4570, 396.5742
816.5960, 157.8477
817.7360, 127.0430
818.8750, 234.1367
820.0140, 203.2070
821.1530, 34.25391
822.2920, 171.6172
823.4310, 193.2070
824.5690, 5.910156
825.7070, 196.9922
826.8460, 16.47266
827.9840, 189.0195
829.1220, 249.4648
830.2590, 42.86328
831.3970, 349.5508
832.5340, 111.8594
833.6710, 309.9844
834.8080, 296.1719
835.9450, 48.16016
837.0820, 55.76562
838.2190, 42.07812
839.3550, 4.855469
840.4910, 331.1758
841.6270, 48.00391
842.7630, 305.9648
843.8990, 6.710938
845.0350, 237.3828
846.1700, 1.007813
847.3060, 121.5781
848.4410, 192.0547
849.5760, 333.4805
850.7100, 236.8594
851.8450, 104.1914
852.9800, 185.4609
854.1140, 444.7266
855.2480, 119.9414
856.3820, 219.0938
857.5160, 565.1992
858.6500, 394.2578
859.7830, 233.2695
860.9170, 623.2578
862.0500, 267.2188
863.1830, 449.1328
864.3160, 341.0000
865.4480, 465.8164
866.5810, 196.5898
867.7130, 275.3086
868.8460, 348.9805
869.9780, 243.6055
871.1100, 521.1758
872.2410, 715.6992
873.3730, 642.3672
874.5050, 530.6680
875.6360, 591.0820
876.7670, 566.4492
877.8980, 519.7734
879.0290, 387.0469
880.1590, 655.2773
881.2900, 533.4609
882.4200, 803.5938
883.5500, 634.6836
884.6800, 744.7227
885.8100, 671.7227
886.9400, 715.6680
888.0690, 639.5703
889.1990, 740.4258
890.3280, 984.9102
891.4570, 709.3750
892.5860, 810.0938
893.7140, 519.7617
894.8430, 624.6719
895.9710, 810.2461
897.1000, 601.2500
898.2280, 551.1914
899.3560, 595.7812
900.4830, 673.5508
901.6110, 793.6797
902.7380, 515.4648
903.8660, 551.2500
904.9930, 462.7227
906.1200, 460.5703
907.2460, 388.4336
908.3730, 610.4531
909.5000, 486.7773
910.6260, 571.7812
911.7520, 400.7383
912.8780, 358.5078
914.0040, 523.4648
915.1290, 116.3281
916.2550, 587.2148
917.3800, 485.1836
918.5050, 117.9414
919.6300, 336.4375
920.7550, 176.9062
921.8800, 397.6758
923.0040, 367.3711
924.1290, 204.8984
925.2530, 351.3242
926.3770, 442.7656
927.5010, 152.3516
928.6250, 303.6992
929.7480, 264.7695
930.8720, 229.0430
931.9950, 527.2500
933.1180, 534.0000
934.2410, 376.0586
935.3640, 320.8398
936.4860, 76.23828
937.6090, 83.94531
938.7310, 336.5820
939.8530, 148.5898
940.9750, 205.5938
942.0970, 158.8867
943.2180, 100.5898
944.3400, 254.5000
945.4610, 197.1523
946.5820, 252.0273
947.7030, 238.1211
948.8240, 219.0586
949.9450, 212.5586
951.0650, 221.4883
952.1860, 227.9883
953.3060, 240.1094
954.4260, 234.7422
955.5460, 231.1914
956.6650, 193.0547
957.7850, 211.9414
958.9040, 269.1211
960.0230, 118.3945
961.1420, 90.49609
962.2610, 229.2812
963.3800, 403.1445
964.4990, 234.4492
965.6170, 133.3086
966.7350, 213.9258
967.8530, 54.29688
968.9710, 260.4961
970.0890, 58.01953
971.2070, 287.7383
972.3240, 20.83984
973.4410, 192.8203
974.5580, 22.56250
975.6750, 427.6367
976.7920, 183.1562
977.9090, 487.0859
979.0250, 304.1484
980.1410, 530.7578
981.2580, 205.5547
982.3740, 330.9219
983.4890, 280.9766
984.6050, 248.7383
985.7200, 209.2812
986.8360, 265.2969
987.9510, 394.3633
989.0660, 386.0781
990.1810, 543.0469
991.2950, 534.0703
992.4100, 577.0312
993.5240, 484.5820
994.6390, 334.6172
995.7530, 551.6602
996.8660, 800.8984
997.9800, 582.3516
999.0940, 497.7734
1000.207, 696.1719
1001.320, 1113.691
1002.433, 897.9297
1003.546, 1054.250
1004.659, 1111.062
1005.772, 734.4336
1006.884, 1199.500
1007.996, 1244.719
1009.108, 1162.914
1010.220, 1131.086
1011.332, 1483.238
1012.444, 1453.355
1013.555, 1789.449
1014.666, 1669.523
1015.777, 1936.574
1016.888, 2316.602
1017.999, 2352.602
1019.110, 2575.578
1020.220, 3004.535
1021.331, 3701.465
1022.441, 4320.375
1023.551, 4784.262
1024.661, 5388.137
1025.770, 5723.996
1026.880, 6062.254
1027.989, 6553.648
1029.098, 6454.473
1030.207, 6430.273
1031.316, 6363.062
1032.425, 5635.836
1033.533, 5122.598
1034.642, 4472.352
1035.750, 4027.086
1036.858, 3616.809
1037.966, 2694.508
1039.073, 2475.195
1040.181, 2081.867
1041.288, 2200.715
1042.396, 1780.406
1043.503, 1863.086
1044.610, 1504.742
1045.716, 1262.578
1046.823, 1333.230
1047.929, 1243.305
1049.036, 1186.828
1050.142, 1250.441
1051.248, 1270.609
1052.353, 1248.809
1053.459, 1655.375
1054.564, 1635.836
1055.670, 1460.742
1056.775, 1869.273
1057.880, 1897.227
1058.985, 1956.730
1060.089, 2067.211
1061.194, 2301.789
1062.298, 2653.273
1063.402, 2778.516
1064.506, 2809.715
1065.610, 2966.633
1066.713, 2537.129
1067.817, 2314.855
1068.920, 2380.406
1070.023, 2327.734
1071.126, 1670.031
1072.229, 1382.832
1073.332, 1367.758
1074.435, 1216.695
1075.537, 1003.840
1076.639, 948.3906
1077.741, 768.2109
1078.843, 779.4141
1079.945, 519.8672
1081.046, 375.0469
1082.148, 353.4766
1083.249, 526.8242
1084.350, 434.7148
1085.451, 257.6836
1086.551, 437.1641
1087.652, 299.5977
1088.752, 237.0117
1089.853, 282.2656
1090.953, 281.6953
1092.053, 118.1914
1093.152, 287.2266
1094.252, 75.15234
1095.351, 359.6328
1096.451, 289.1133
1097.550, 121.5703
1098.649, 108.6680
1099.748, 54.67578
1100.846, 290.6211
1101.945, 105.0273
1103.043, 121.5742
1104.141, 321.9609
1105.239, 217.5117
1106.337, 131.6445
1107.434, 166.7617
1108.532, 119.9844
1109.629, 226.0742
1110.726, 512.2344
1111.823, 170.4062
1112.920, 147.5625
1114.017, 153.6914
1115.113, 203.8438
1116.210, 307.9883
1117.306, 135.1172
1118.402, 76.23438
1119.498, 146.6562
1120.593, 162.9531
1121.689, 342.9492
1122.784, 236.9375
1123.879, 81.91797
1124.974, 251.8789
1126.069, 68.16797
1127.164, 44.35938
1128.259, 284.4805
1129.353, 192.3125
1130.447, 374.1289
1131.541, 454.9336
1132.635, 276.7305
1133.729, 132.5156
1134.822, 418.2891
1135.916, 294.0547
1137.009, 137.8086
1138.102, 82.44531
1139.195, 242.2266
1140.288, 278.8906
1141.380, 399.5430
1142.473, 454.1875
1143.565, 368.8203
1144.657, 425.4414
1145.749, 330.0547
1146.841, 366.6562
1147.932, 686.2539
1149.024, 598.8398
1150.115, 742.4180
1151.206, 762.9883
1152.297, 759.3555
1153.388, 928.0977
1154.479, 712.6406
1155.569, 550.1719
1156.659, 372.6953
1157.750, 505.2148
1158.839, 472.7227
1159.929, 199.2227
1161.019, 427.7109
1162.108, 267.1953
1163.198, 320.6719
1164.287, 388.1367
1165.376, 370.6016
1166.465, 248.0469
1167.553, 397.4961
1168.642, 244.9336
1169.730, 296.3672
1170.818, 320.7891
1171.906, 89.20703
1172.994, 257.6172
1174.082, 457.0156
1175.170, 129.4062
1176.257, 76.79688
1177.344, 363.1758
1178.431, 100.4570
1179.518, 42.84766
1180.605, 288.1445
1181.691, 87.56641
1182.778, 168.6602
1183.864, 326.8867
1184.950, 91.10547
1186.036, 194.3203
1187.122, 141.5312
1188.207, 168.5039
1189.292, 107.9453
1190.378, 229.1445
1191.463, 243.3398
1192.548, 87.53516
1193.632, 134.7227
1194.717, 290.9102
1195.801, 104.9102
1196.886, 119.2070
1197.970, 149.6914
1199.054, 227.3164
1200.137, 183.3242
1201.221, 66.67188
1202.305, 30.28516
1203.388, 179.2383
1204.471, 128.8086
1205.554, 54.05859
1206.637, 180.9258
1207.719, 172.2109
1208.802, 178.5508
1209.884, 272.3125
1210.966, 52.93359
1212.048, 295.7812
1213.130, 2.507813
1214.212, 412.1914
1215.293, 333.8867
1216.374, 112.5781
1217.456, 250.2617
1218.536, 122.9414
1219.617, 199.6172
1220.698, 194.2891
1221.778, 289.9609
1222.859, 175.2930
1223.939, 6.976563
1225.019, 120.1602
1226.099, 179.9062
1227.178, 356.6094
1228.258, 150.0000
1229.337, 97.34766
1230.417, 108.3750
1231.496, 319.0703
1232.574, 435.3984
1233.653, 129.8008
1234.732, 550.4883
1235.810, 178.7188
1236.888, 393.1758
1237.966, 275.7930
1239.044, 13.15234
1240.122, 417.8398
1241.199, 314.5312
1242.277, 52.17188
1243.354, 486.7148
1244.431, 406.2852
1245.508, 349.9727
1246.585, 17.66016
1247.661, 181.1602
1248.738, 487.4180
1249.814, 14.85156
1250.890, 178.7695
1251.966, 212.4414
1253.042, 189.1367
1254.117, 312.4336
1255.193, 114.1172
1256.268, 26.20703
1257.343, 486.9297
1258.418, 480.6094
1259.493, 227.2891
1260.567, 383.9766
1261.642, 281.6602
1262.716, 515.3477
1263.790, 332.8984
1264.864, 360.5938
1265.938, 316.2891
1267.011, 348.8789
1268.085, 269.7656
1269.158, 229.4648
1270.231, 443.1758
1271.304, 287.8906
1272.377, 144.6055
1273.450, 390.3281
1274.522, 507.0547
1275.594, 434.7852
1276.666, 522.4648
1277.738, 475.2070
1278.810, 448.0000
1279.882, 438.7461
1280.953, 367.5000
1282.025, 474.2539
1283.096, 455.0195
1284.167, 408.7891
1285.238, 310.5625
1286.308, 378.3398
1287.379, 502.1289
1288.449, 428.9180
1289.519, 65.71875
1290.589, 367.5312
1291.659, 229.3594
1292.729, 316.1914
1293.798, 608.0273
1294.868, 555.8750
1295.937, 389.7266
1297.006, 608.5859
1298.075, 577.4531
1299.143, 513.3281
1300.212, 508.2070
1301.280, 137.9375
1302.348, 32.83594
1303.416, 273.7422
1304.484, 322.6562
1305.552, 473.3867
1306.620, 481.3203
1307.687, 424.8281
1308.754, 828.4648
1309.821, 485.4258
1310.888, 654.8281
1311.955, 75.81250
1313.021, 441.8086
1314.088, 443.7188
1315.154, 596.7344
1316.220, 548.7617
1317.286, 614.2695
1318.352, 619.6523
1319.417, 387.3828
1320.483, 554.4609
1321.548, 470.4727
1322.613, 349.5586
1323.678, 424.6523
1324.743, 562.3398
1325.807, 581.4453
1326.872, 542.3789
1327.936, 349.5000
1329.000, 530.6328
1330.064, 458.8750
1331.128, 437.7695
1332.191, 488.9297
1333.255, 414.9141
1334.318, 471.4180
1335.381, 321.6133
1336.444, 277.4531
1337.507, 154.8828
1338.569, 575.8906
1339.632, 194.3281
1340.694, 229.5742
1341.756, 561.9219
1342.818, 298.1914
1343.880, 430.4727
1344.941, 618.7695
1346.003, 517.0742
1347.064, 288.3945
1348.125, 470.7305
1349.186, 514.0820
1350.247, 227.6719
1351.308, 322.0469
1352.368, 638.0391
1353.428, 88.55859
1354.489, 521.3203
1355.549, 526.7500
1356.608, 522.1953
1357.668, 648.6523
1358.727, 486.1289
1359.787, 390.6250
1360.846, 714.1289
1361.905, 600.6562
1362.964, 549.1992
1364.022, 752.8242
1365.081, 684.4688
1366.139, 329.1250
1367.197, 431.8086
1368.255, 238.5430
1369.313, 164.2891
1370.371, 571.0508
1371.428, 254.8320
1372.486, 659.6328
1373.543, 509.4492
1374.600, 285.2852
1375.657, 502.1406
1376.713, 479.0117
1377.770, 392.3477
1378.826, 542.3008
1379.882, 640.2734
1380.938, 516.2656
1381.994, 315.2734
1383.050, 485.3047
1384.106, 255.4453
1385.161, 100.5469
1386.216, 313.6680
1387.271, 312.8047
1388.326, 244.9648
1389.381, 410.1406
1390.435, 352.3398
1391.490, 369.5586
1392.544, 338.7969
1393.598, 280.0547
1394.652, 332.0078
1395.705, 217.6719
1396.759, 387.0234
1397.812, 468.3945
1398.866, 462.7930
1399.919, 112.1602
1400.972, 289.5508
1402.024, 364.9336
1403.077, 85.33984
1404.129, 366.7656
1405.181, 353.2148
1406.233, 179.6914
1407.285, 389.1836
1408.337, 315.6953
1409.389, 482.2344
1410.440, 48.79297
1411.491, 206.3789
1412.542, 538.9844
1413.593, 144.6133
1414.644, 273.2695
1415.695, 203.2148
1416.745, 278.1094
1417.795, 510.8398
1418.845, 75.71484
1419.895, 159.4961
1420.945, 121.3008
1421.995, 309.1328
1423.044, 198.9961
1424.093, 440.8789
1425.142, 302.7969
1426.191, 483.7422
1427.240, 286.7227
1428.289, 297.7461
1429.337, 222.7930
1430.385, 455.8711
1431.433, 353.9922
1432.481, 49.13672
1433.529, 395.2070
1434.577, 272.6250
1435.624, 186.7617
1436.672, 335.9531
1437.719, 542.2031
1438.766, 48.48047
1439.812, 36.78906
1440.859, 426.1172
1441.905, 395.1602
1442.952, 68.26562
1443.998, 428.3594
1445.044, 288.8945
1446.090, 135.0234
1447.135, 501.3555
1448.181, 423.3906
1449.226, 362.8828
1450.271, 87.46094
1451.316, 203.1523
1452.361, 498.8906
1453.405, 346.6797
1454.450, 325.5781
1455.494, 259.5586
1456.538, 370.6211
1457.582, 461.7539
1458.626, 418.9336
1459.670, 515.1406
1460.713, 381.3828
1461.757, 234.6523
1462.800, 414.9180
1463.843, 357.8789
1464.886, 209.1680
1465.928, 503.4922
1466.971, 4.144531
1468.013, 139.2539
1469.055, 387.6797
1470.097, 388.1484
1471.139, 186.6445
1472.181, 305.1758
1473.222, 109.7344
1474.263, 430.3359
1475.305, 127.0312
1476.346, 498.6445
1477.386, 201.3477
1478.427, 560.0898
1479.468, 88.11719
1480.508, 593.7031
1481.548, 65.55859
1482.588, 252.4414
1483.628, 635.3672
1484.668, 298.3281
1485.707, 461.3203
1486.747, 67.34375
1487.786, 212.4023
1488.825, 82.50391
1489.864, 451.6367
1490.902, 149.8047
1491.941, 363.0078
1492.979, 263.2500
1494.017, 407.5273
1495.055, 404.8203
1496.093, 443.9414
1497.131, 149.4492
1498.168, 467.8242
1499.206, 372.2305
1500.243, 196.6719
1501.280, 627.1445
1502.317, 236.6523
1503.354, 254.1875
1504.390, 378.7461
1505.426, 82.33203
1506.463, 311.9492
1507.499, 250.5898
1508.535, 288.3867
1509.570, 259.0000
1510.606, 324.6758
1511.641, 354.4258
1512.676, 233.2461
1513.711, 534.1289
1514.746, 108.0664
1515.781, 249.0625
1516.816, 341.1172
1517.850, 130.2266
1518.884, 633.4492
1519.918, 340.6445
1520.952, 578.9883
1521.986, 383.3945
1523.019, 241.8789
1524.053, 340.5586
1525.086, 104.9336
1526.119, 119.7500
1527.152, 578.0859
1528.185, 157.4727
1529.217, 160.9180
1530.250, 329.4141
1531.282, 99.96094
1532.314, 85.55469
1533.346, 105.1992
1534.377, 72.55469
1535.409, 539.6445
1536.440, 201.4609
1537.472, 285.3281
1538.503, 417.2500
1539.534, 8.230469
1540.564, 60.67969
1541.595, 185.5273
1542.625, 53.80859
1543.656, 165.1602
1544.686, 115.5781
1545.716, 190.0586
1546.745, 183.2695
1547.775, 202.2188
1548.804, 204.3750
1549.834, 165.9805
1550.863, 257.7539
1551.892, 125.6953
1552.920, 213.8320
1553.949, 309.1875
1554.977, 313.7773
1556.006, 161.6133
1557.034, 293.3242
1558.062, 73.60938
1559.089, 1.058594
1560.117, 275.2852
1561.144, 275.5273
1562.172, 240.4219
1563.199, 369.8867
1564.226, 221.6758
1565.252, 53.39844
1566.279, 119.7852
1567.305, 117.7227
1568.332, 2.347656
1569.358, 220.5273
1570.384, 61.55859
1571.409, 0.0000000E+00
##END=



