##NAMES=Senegalite
##RRUFFID=R050239
##IDEAL CHEMISTRY=Al_2_PO_4_(OH)_3_&#183;H_2_O
##LOCALITY=Kourondicko iron ore (magnetite) deposit, Faleme River Basin, Senegal
##OWNER=RRUFF
##SOURCE=Marcus Origlieri
##DESCRIPTION=Colorless prismatic crystals
##STATUS=The identification of this mineral has been confirmed by X-ray diffraction and chemical analysis
##URL=rruff.info/R050239
##MEASURED CHEMISTRY=Al_2.00_P_1.00_O_4_(OH)_3_Â·H_2_O
##PIN_ID=M00172
##ORIENTATION=Laser parallel to -a* (-1 0 0). Fiducial mark perpendicular to laser is parallel to b [0 1 0]
102.1160, 0.0000000E+00
103.3490, 86.38770
104.5820, 211.5439
105.8150, 278.3340
107.0470, 356.8809
108.2800, 312.4590
109.5120, 289.6621
110.7440, 200.5332
111.9760, 14.92578
113.2080, 13.84766
114.4400, 89.91797
115.6710, 323.6953
116.9030, 4.048828
118.1340, 238.2578
119.3650, 401.2617
120.5960, 168.6719
121.8270, 189.2578
123.0580, 487.8105
124.2880, 414.1504
125.5190, 554.1172
126.7490, 761.5703
127.9790, 889.3848
129.2090, 928.4551
130.4390, 1327.682
131.6680, 1562.984
132.8980, 1752.283
134.1270, 1686.520
135.3560, 1676.629
136.5850, 1565.561
137.8140, 1285.277
139.0430, 1217.785
140.2710, 1014.035
141.5000, 823.9707
142.7280, 795.5508
143.9560, 553.7266
145.1840, 641.4531
146.4120, 765.6992
147.6390, 683.4316
148.8670, 641.6211
150.0940, 554.2461
151.3210, 724.2852
152.5490, 648.7207
153.7750, 729.5352
155.0020, 650.7129
156.2290, 537.2344
157.4550, 700.0977
158.6810, 838.2852
159.9080, 767.7852
161.1340, 963.5859
162.3590, 1170.686
163.5850, 1294.068
164.8110, 1656.730
166.0360, 1793.660
167.2610, 2025.854
168.4860, 1826.305
169.7110, 1504.004
170.9360, 1239.945
172.1610, 1113.283
173.3850, 730.0957
174.6100, 762.6758
175.8340, 531.5645
177.0580, 706.5098
178.2820, 640.4395
179.5050, 719.3945
180.7290, 664.6250
181.9520, 480.0293
183.1760, 814.4746
184.3990, 866.9648
185.6220, 716.5137
186.8450, 916.1250
188.0670, 952.8105
189.2900, 956.5762
190.5120, 997.4199
191.7340, 1010.355
192.9560, 1205.381
194.1780, 1407.504
195.4000, 1511.723
196.6220, 1528.041
197.8430, 1841.461
199.0640, 1902.982
200.2860, 2207.607
201.5070, 2744.338
202.7270, 3245.172
203.9480, 3670.111
205.1690, 3773.158
206.3890, 3740.309
207.6090, 3240.564
208.8290, 2637.930
210.0490, 2221.395
211.2690, 1378.969
212.4890, 996.6504
213.7080, 838.4336
214.9280, 790.3203
216.1470, 686.3105
217.3660, 491.4023
218.5850, 555.5977
219.8030, 641.8965
221.0220, 639.2949
222.2400, 556.7969
223.4590, 723.3965
224.6770, 585.0957
225.8950, 711.8965
227.1120, 743.7949
228.3300, 704.7930
229.5480, 855.8848
230.7650, 869.0801
231.9820, 972.3691
233.1990, 1053.756
234.4160, 912.2344
235.6330, 1058.811
236.8490, 1135.480
238.0660, 863.2461
239.2820, 799.1035
240.4980, 804.5215
241.7140, 667.3301
242.9300, 685.5566
244.1460, 580.7207
245.3610, 609.4316
246.5770, 461.7676
247.7920, 519.2207
249.0070, 513.5938
250.2220, 338.4805
251.4370, 475.0820
252.6510, 395.7480
253.8660, 340.7383
255.0800, 389.8125
256.2940, 237.9570
257.5080, 303.5254
258.7220, 563.4570
259.9360, 348.3418
261.1490, 514.9258
262.3630, 409.8457
263.5760, 494.9727
264.7890, 410.4590
266.0020, 673.0371
267.2150, 766.8496
268.4270, 673.8086
269.6400, 1032.943
270.8520, 1034.248
272.0640, 1215.715
273.2760, 1481.336
274.4880, 1600.104
275.7000, 1960.016
276.9120, 2381.068
278.1230, 2658.248
279.3340, 2483.561
280.5450, 2280.000
281.7560, 2206.557
282.9670, 2300.543
284.1780, 2428.021
285.3880, 2771.922
286.5980, 3082.926
287.8090, 3611.037
289.0190, 4031.250
290.2290, 4920.562
291.4380, 5522.973
292.6480, 6134.477
293.8570, 6396.070
295.0670, 6298.760
296.2760, 5221.535
297.4850, 4588.400
298.6930, 3625.348
299.9020, 2897.383
301.1110, 2353.500
302.3190, 1682.697
303.5270, 1242.975
304.7350, 1368.330
305.9430, 994.7656
307.1510, 1066.277
308.3580, 982.8594
309.5660, 806.5215
310.7730, 1067.254
311.9800, 884.0605
313.1870, 1333.938
314.3940, 1233.885
315.6010, 1458.898
316.8070, 1530.982
318.0130, 1797.133
319.2200, 2114.990
320.4260, 2419.629
321.6310, 2874.967
322.8370, 3243.365
324.0430, 3666.828
325.2480, 4477.352
326.4540, 5006.934
327.6590, 5590.578
328.8640, 6150.283
330.0680, 6078.047
331.2730, 5869.871
332.4780, 5363.758
333.6820, 4522.703
334.8860, 3842.707
336.0900, 3275.773
337.2940, 2549.898
338.4980, 2110.031
339.7010, 1623.326
340.9050, 1321.627
342.1080, 1024.988
343.3110, 860.4062
344.5140, 618.8848
345.7170, 596.4199
346.9200, 541.0117
348.1220, 426.6621
349.3240, 325.3711
350.5270, 234.1328
351.7290, 324.9531
352.9310, 322.8301
354.1320, 205.7637
355.3340, 222.7520
356.5350, 433.7949
357.7370, 259.8926
358.9380, 160.0449
360.1390, 342.2520
361.3400, 108.5137
362.5400, 223.8262
363.7410, 385.1953
364.9410, 307.6172
366.1410, 341.0918
367.3410, 242.6211
368.5410, 261.0117
369.7410, 268.8340
370.9400, 265.5176
372.1400, 163.2500
373.3390, 146.0391
374.5380, 113.8750
375.7370, 95.76172
376.9360, 87.30078
378.1350, 98.33203
379.3330, 49.33594
380.5310, 121.3027
381.7300, 8.248047
382.9280, 47.85156
384.1260, 84.00000
385.3230, 42.84375
386.5210, 333.6875
387.7180, 151.4844
388.9160, 276.3887
390.1130, 9.613281
391.3100, 120.0430
392.5060, 13.12500
393.7030, 136.6211
394.9000, 24.64258
396.0960, 13.50977
397.2920, 18.75586
398.4880, 113.0488
399.6840, 84.58594
400.8800, 271.8926
402.0750, 1.451172
403.2710, 168.1465
404.4660, 3.250000
405.6610, 121.7012
406.8560, 86.21484
408.0510, 31.79688
409.2450, 140.2246
410.4400, 37.13672
411.6340, 196.8984
412.8280, 215.7246
414.0220, 68.61133
415.2160, 271.5586
416.4100, 404.5664
417.6030, 655.6289
418.7970, 390.7695
419.9900, 339.9688
421.1830, 108.2207
422.3760, 542.5293
423.5690, 483.8965
424.7610, 571.3301
425.9540, 808.8184
427.1460, 619.3633
428.3380, 1047.959
429.5300, 1208.611
430.7220, 1482.338
431.9140, 1509.117
433.1050, 1998.945
434.2970, 2212.828
435.4880, 2483.762
436.6790, 2892.748
437.8700, 3163.785
439.0610, 3537.881
440.2510, 4074.023
441.4420, 4463.219
442.6320, 4375.465
443.8220, 4715.766
445.0120, 4571.113
446.2020, 4343.514
447.3910, 4297.963
448.5810, 3954.459
449.7700, 3758.012
450.9600, 3415.625
452.1490, 3192.287
453.3370, 2824.023
454.5260, 2607.811
455.7150, 2381.645
456.9030, 2313.898
458.0910, 2652.510
459.2800, 2472.562
460.4670, 2719.670
461.6550, 3167.828
462.8430, 3415.066
464.0300, 3988.408
465.2180, 4879.807
466.4050, 5728.248
467.5920, 6427.775
468.7790, 7432.359
469.9650, 8261.992
471.1520, 9477.730
472.3380, 10252.56
473.5250, 10410.44
474.7110, 10459.38
475.8970, 10230.36
477.0820, 9703.395
478.2680, 9016.480
479.4540, 8667.607
480.6390, 8174.779
481.8240, 7946.990
483.0090, 7155.254
484.1940, 6305.562
485.3780, 5697.912
486.5630, 4596.312
487.7470, 4032.754
488.9320, 3189.234
490.1160, 2851.762
491.3000, 2318.328
492.4830, 2016.998
493.6670, 1522.715
494.8500, 1276.471
496.0340, 1064.270
497.2170, 1052.107
498.4000, 656.9844
499.5820, 641.9023
500.7650, 411.8594
501.9480, 602.8613
503.1300, 411.9082
504.3120, 451.9941
505.4940, 372.1172
506.6760, 259.2793
507.8580, 184.4785
509.0390, 307.7129
510.2210, 218.9844
511.4020, 375.2949
512.5830, 371.6426
513.7640, 359.0293
514.9450, 416.4512
516.1250, 409.6465
517.3060, 339.4141
518.4860, 380.9473
519.6660, 342.2793
520.8460, 185.0996
522.0260, 219.0566
523.2060, 286.8262
524.3850, 240.4980
525.5650, 110.2480
526.7440, 165.7402
527.9230, 142.0176
529.1020, 27.43945
530.2810, 71.83398
531.4590, 59.13086
532.6380, 22.40820
533.8160, 8.427734
534.9940, 0.1308590
536.1720, 13.38477
537.3500, 38.28320
538.5270, 9.910156
539.7050, 83.70508
540.8820, 65.87109
542.0590, 2.621094
543.2360, 42.84180
544.4130, 31.97852
545.5900, 118.8340
546.7660, 76.25586
547.9430, 110.6211
549.1190, 137.0234
550.2950, 422.3418
551.4710, 362.9688
552.6470, 348.5703
553.8220, 390.5156
554.9980, 248.0801
556.1730, 206.6758
557.3480, 344.6836
558.5230, 355.3438
559.6980, 289.0957
560.8730, 338.8164
562.0470, 410.5664
563.2220, 389.3457
564.3960, 691.1543
565.5700, 437.7188
566.7440, 769.7148
567.9170, 819.6074
569.0910, 789.5723
570.2640, 1061.744
571.4380, 940.1797
572.6110, 1439.182
573.7840, 1411.211
574.9570, 1563.266
576.1290, 1839.348
577.3020, 1999.453
578.4740, 2355.816
579.6460, 2600.104
580.8180, 2892.283
581.9900, 3170.535
583.1620, 3347.854
584.3330, 3466.924
585.5040, 3672.479
586.6760, 3694.777
587.8470, 3798.365
589.0180, 3357.707
590.1880, 3287.635
591.3590, 3298.082
592.5290, 2886.488
593.7000, 3028.766
594.8700, 2966.094
596.0400, 2637.562
597.2090, 2628.744
598.3790, 2363.879
599.5490, 2438.211
600.7180, 2131.590
601.8870, 2290.305
603.0560, 2351.918
604.2250, 2214.357
605.3940, 2113.914
606.5620, 2112.541
607.7300, 2204.541
608.8990, 2384.570
610.0670, 2150.227
611.2350, 2509.750
612.4020, 2530.010
613.5700, 2513.072
614.7370, 2905.219
615.9050, 3234.346
617.0720, 3090.352
618.2390, 3473.467
619.4060, 3541.570
620.5720, 3426.324
621.7390, 3876.090
622.9050, 3365.066
624.0710, 3591.879
625.2370, 3629.377
626.4030, 3416.168
627.5690, 3492.033
628.7340, 3331.828
629.9000, 3209.168
631.0650, 3043.570
632.2300, 2962.801
633.3950, 2758.160
634.5600, 2659.055
635.7240, 2408.164
636.8890, 2544.145
638.0530, 2592.074
639.2170, 2407.012
640.3810, 2196.527
641.5450, 2165.750
642.7080, 2078.617
643.8720, 2004.562
645.0350, 1654.504
646.1980, 1508.582
647.3610, 1266.531
648.5240, 1002.488
649.6870, 1306.648
650.8490, 981.6406
652.0120, 1098.605
653.1740, 988.9023
654.3360, 900.8633
655.4980, 826.1016
656.6600, 636.0664
657.8210, 496.0234
658.9830, 439.1445
660.1440, 748.1445
661.3050, 736.8203
662.4660, 491.9570
663.6270, 450.0078
664.7870, 317.1016
665.9480, 336.2148
667.1080, 251.3477
668.2680, 505.4883
669.4280, 355.6016
670.5880, 628.8438
671.7480, 478.1406
672.9070, 565.9531
674.0670, 476.4062
675.2260, 323.2656
676.3850, 581.6914
677.5440, 643.0078
678.7030, 491.2891
679.8610, 409.5859
681.0200, 622.8789
682.1780, 397.8867
683.3360, 490.2344
684.4940, 307.5820
685.6520, 486.9570
686.8090, 407.3203
687.9670, 270.6758
689.1240, 461.0234
690.2810, 198.3633
691.4380, 300.6953
692.5950, 34.01562
693.7520, 121.3164
694.9080, 200.6055
696.0650, 57.87891
697.2210, 168.1367
698.3770, 34.62109
699.5330, 152.5703
700.6880, 115.7422
701.8440, 149.9062
702.9990, 115.0508
704.1550, 8.820313
705.3100, 90.26172
706.4650, 291.3320
707.6190, 103.3867
708.7740, 83.42188
709.9290, 35.56250
711.0830, 287.3945
712.2370, 208.3398
713.3910, 175.2617
714.5450, 183.1680
715.6980, 222.0547
716.8520, 93.91797
718.0050, 43.76953
719.1580, 223.5820
720.3110, 119.3789
721.4640, 58.15234
722.6170, 200.9023
723.7700, 100.6289
724.9220, 242.4414
726.0740, 105.1289
727.2260, 143.7812
728.3780, 35.42188
729.5300, 2.976563
730.6810, 420.0625
731.8330, 46.29297
732.9840, 73.16016
734.1350, 283.9219
735.2860, 71.32422
736.4370, 131.3047
737.5880, 42.05859
738.7380, 33.16797
739.8880, 64.30078
741.0390, 75.60156
742.1890, 167.5938
743.3380, 33.26953
744.4880, 199.7695
745.6380, 94.20312
746.7870, 23.64844
747.9360, 81.33594
749.0850, 180.0625
750.2340, 95.56641
751.3830, 12.21875
752.5310, 124.0625
753.6800, 64.31641
754.8280, 32.53125
755.9760, 67.69531
757.1240, 133.8203
758.2720, 224.2852
759.4190, 226.5273
760.5670, 44.84766
761.7140, 272.0938
762.8610, 117.6133
764.0080, 55.54688
765.1550, 203.7891
766.3020, 351.8164
767.4480, 117.6484
768.5950, 185.4414
769.7410, 160.7969
770.8870, 86.89453
772.0330, 242.4648
773.1780, 106.5078
774.3240, 207.2383
775.4690, 370.8086
776.6140, 267.6406
777.7590, 147.0508
778.9040, 105.5039
780.0490, 75.50781
781.1940, 333.7930
782.3380, 307.1367
783.4820, 198.5586
784.6260, 440.8828
785.7700, 249.2031
786.9140, 189.6094
788.0580, 228.1250
789.2010, 328.1836
790.3450, 113.6445
791.4880, 383.8398
792.6310, 119.2031
793.7730, 274.7734
794.9160, 346.6484
796.0590, 134.1562
797.2010, 340.9883
798.3430, 169.8945
799.4850, 221.6445
800.6270, 294.9180
801.7690, 347.6641
802.9100, 460.3555
804.0520, 316.6172
805.1930, 539.6133
806.3340, 314.2656
807.4750, 383.3906
808.6160, 555.0781
809.7560, 618.0117
810.8970, 677.2188
812.0370, 810.5781
813.1770, 478.9062
814.3170, 673.4180
815.4570, 477.8984
816.5960, 607.1289
817.7360, 922.3164
818.8750, 561.4727
820.0140, 883.5859
821.1530, 692.6680
822.2920, 690.7148
823.4310, 1035.723
824.5690, 792.8398
825.7070, 800.9766
826.8460, 948.7617
827.9840, 1107.625
829.1220, 824.3984
830.2590, 1011.469
831.3970, 985.4336
832.5340, 998.9336
833.6710, 1086.227
834.8080, 1076.867
835.9450, 1192.406
837.0820, 1122.273
838.2190, 860.5000
839.3550, 994.9883
840.4910, 994.4453
841.6270, 928.1328
842.7630, 1064.395
843.8990, 765.7852
845.0350, 860.0586
846.1700, 633.1172
847.3060, 951.9023
848.4410, 692.1094
849.5760, 796.2812
850.7100, 739.4141
851.8450, 581.5117
852.9800, 681.5781
854.1140, 418.3750
855.2480, 716.2305
856.3820, 429.1836
857.5160, 502.0547
858.6500, 759.0234
859.7830, 836.8711
860.9170, 275.3984
862.0500, 353.1758
863.1830, 671.6641
864.3160, 325.4180
865.4480, 443.5742
866.5810, 220.1953
867.7130, 272.8398
868.8460, 421.5977
869.9780, 232.2969
871.1100, 371.8320
872.2410, 635.3789
873.3730, 298.4805
874.5050, 268.1016
875.6360, 371.6641
876.7670, 308.8711
877.8980, 401.1680
879.0290, 425.6211
880.1590, 73.92969
881.2900, 104.1523
882.4200, 207.9727
883.5500, 234.7500
884.6800, 254.8789
885.8100, 222.1250
886.9400, 314.6133
888.0690, 270.2812
889.1990, 259.8398
890.3280, 281.8906
891.4570, 434.0664
892.5860, 284.5938
893.7140, 146.1250
894.8430, 171.9766
895.9710, 94.20312
897.1000, 157.3477
898.2280, 121.0430
899.3560, 383.0312
900.4830, 65.30078
901.6110, 168.2773
902.7380, 269.8281
903.8660, 73.54297
904.9930, 212.9297
906.1200, 54.03906
907.2460, 231.0000
908.3730, 75.59766
909.5000, 137.5391
910.6260, 166.7852
911.7520, 116.0547
912.8780, 195.2969
914.0040, 168.9375
915.1290, 79.85156
916.2550, 51.10156
917.3800, 162.2383
918.5050, 33.38672
919.6300, 152.3594
920.7550, 9.554688
921.8800, 26.48047
923.0040, 17.28516
924.1290, 196.2266
925.2530, 101.1719
926.3770, 128.7500
927.5010, 14.63672
928.6250, 70.21484
929.7480, 263.0391
930.8720, 85.16016
931.9950, 167.4180
933.1180, 141.1172
934.2410, 167.1250
935.3640, 0.3125000
936.4860, 125.6719
937.6090, 93.72266
938.7310, 60.32031
939.8530, 2.750000
940.9750, 20.14453
942.0970, 60.91016
943.2180, 109.8398
944.3400, 73.16016
945.4610, 40.45312
946.5820, 24.37891
947.7030, 190.9570
948.8240, 108.1758
949.9450, 105.3672
951.0650, 240.6133
952.1860, 169.8320
953.3060, 157.0391
954.4260, 195.2305
955.5460, 243.3945
956.6650, 205.0000
957.7850, 210.6719
958.9040, 114.7773
960.0230, 100.8633
961.1420, 19.03516
962.2610, 154.0312
963.3800, 12.08594
964.4990, 273.1133
965.6170, 247.1211
966.7350, 143.1133
967.8530, 217.0859
968.9710, 309.0469
970.0890, 262.9844
971.2070, 360.9258
972.3240, 357.8516
973.4410, 176.7539
974.5580, 397.6562
975.6750, 305.5430
976.7920, 520.2617
977.9090, 124.1250
979.0250, 152.9766
980.1410, 203.8125
981.2580, 463.6289
982.3740, 227.4492
983.4890, 404.2500
984.6050, 214.0391
985.7200, 291.8125
986.8360, 441.5664
987.9510, 440.3086
989.0660, 393.0312
990.1810, 294.7461
991.2950, 554.4453
992.4100, 492.1328
993.5240, 772.8086
994.6390, 812.4648
995.7530, 689.0039
996.8660, 712.6367
997.9800, 1085.930
999.0940, 714.5391
1000.207, 1052.145
1001.320, 1207.266
1002.433, 1216.734
1003.546, 1382.195
1004.659, 1516.594
1005.772, 1505.168
1006.884, 1742.734
1007.996, 1861.336
1009.108, 1699.902
1010.220, 2004.512
1011.332, 2132.117
1012.444, 2552.742
1013.555, 2496.410
1014.666, 2308.398
1015.777, 2499.820
1016.888, 2722.340
1017.999, 2805.973
1019.110, 3178.648
1020.220, 3124.336
1021.331, 3597.094
1022.441, 3517.855
1023.551, 3822.609
1024.661, 4029.355
1025.770, 4659.105
1026.880, 5133.848
1027.989, 5666.215
1029.098, 6098.766
1030.207, 6774.199
1031.316, 7725.664
1032.425, 8261.820
1033.533, 8754.516
1034.642, 8977.234
1035.750, 9444.750
1036.858, 9429.434
1037.966, 9262.105
1039.073, 9007.770
1040.181, 8125.402
1041.288, 7534.117
1042.396, 6775.316
1043.503, 6119.578
1044.610, 5240.176
1045.716, 4600.465
1046.823, 4180.141
1047.929, 3507.500
1049.036, 3246.496
1050.142, 3086.172
1051.248, 2747.434
1052.353, 2475.887
1053.459, 2368.977
1054.564, 2170.965
1055.670, 2172.242
1056.775, 1972.453
1057.880, 1929.074
1058.985, 1848.266
1060.089, 1804.672
1061.194, 1850.879
1062.298, 1833.652
1063.402, 2558.438
1064.506, 2002.375
1065.610, 2224.949
1066.713, 2563.406
1067.817, 2347.055
1068.920, 2373.062
1070.023, 1731.562
1071.126, 1830.086
1072.229, 1618.996
1073.332, 1324.129
1074.435, 1028.578
1075.537, 936.2695
1076.639, 738.4961
1077.741, 778.6445
1078.843, 560.3867
1079.945, 522.7656
1081.046, 538.3125
1082.148, 430.6445
1083.249, 209.6641
1084.350, 457.2070
1085.451, 281.9648
1086.551, 443.5000
1087.652, 414.4414
1088.752, 311.5625
1089.853, 335.1055
1090.953, 251.3984
1092.053, 432.5664
1093.152, 204.9180
1094.252, 286.7500
1095.351, 412.2617
1096.451, 293.8203
1097.550, 307.3242
1098.649, 156.8281
1099.748, 67.33594
1100.846, 202.8320
1101.945, 114.3320
1103.043, 39.82422
1104.141, 58.32031
1105.239, 58.81250
1106.337, 312.4336
1107.434, 224.9258
1108.532, 23.58984
1109.629, 214.8789
1110.726, 169.3047
1111.823, 406.7695
1112.920, 229.2344
1114.017, 88.69531
1115.113, 327.1562
1116.210, 321.6172
1117.306, 222.0742
1118.402, 156.5312
1119.498, 181.4180
1120.593, 309.4414
1121.689, 245.8984
1122.784, 255.3477
1123.879, 330.8047
1124.974, 327.2578
1126.069, 412.7148
1127.164, 402.1641
1128.259, 74.91016
1129.353, 117.5039
1130.447, 47.83594
1131.541, 39.17578
1132.635, 177.5195
1133.729, 345.8672
1134.822, 244.2148
1135.916, 61.56250
1137.009, 326.9102
1138.102, 238.2617
1139.195, 53.60938
1140.288, 816.9609
1141.380, 483.3086
1142.473, 604.6602
1143.565, 355.0117
1144.657, 460.3672
1145.749, 529.7227
1146.841, 824.0859
1147.932, 865.7969
1149.024, 726.8281
1150.115, 1120.195
1151.206, 1150.570
1152.297, 1346.945
1153.388, 1457.320
1154.479, 1625.695
1155.569, 1571.070
1156.659, 1556.746
1157.750, 1343.824
1158.839, 1261.203
1159.929, 1102.582
1161.019, 747.9688
1162.108, 514.3906
1163.198, 584.8086
1164.287, 401.2344
1165.376, 118.3359
1166.465, 555.0586
1167.553, 166.4492
1168.642, 198.8438
1169.730, 504.2461
1170.818, 187.6523
1171.906, 273.0586
1172.994, 207.4688
1174.082, 28.08984
1175.170, 235.3398
1176.257, 279.7695
1177.344, 179.2031
1178.431, 46.36328
1179.518, 129.0508
1180.605, 84.46875
1181.691, 110.1094
1182.778, 343.2617
1183.864, 293.6523
1184.950, 267.0430
1186.036, 289.4492
1187.122, 216.8594
1188.207, 73.28516
1189.292, 342.7109
1190.378, 244.1406
1191.463, 74.57422
1192.548, 261.0195
1193.632, 390.4727
1194.717, 159.9258
1195.801, 196.4141
1196.886, 57.90625
1197.970, 103.5977
1199.054, 46.48828
1200.137, 326.3047
1201.221, 213.8047
1202.305, 224.3398
1203.388, 143.8828
1204.471, 93.42969
1205.554, 30.00391
1206.637, 145.5430
1207.719, 288.1016
1208.802, 128.6680
1209.884, 9.765625
1210.966, 48.80859
1212.048, 415.4062
1213.130, 276.0156
1214.212, 174.4336
1215.293, 19.12109
1216.374, 247.3242
1217.456, 480.7656
1218.536, 398.2188
1219.617, 12.67188
1220.698, 14.13672
1221.778, 4.402344
1222.859, 108.9336
1223.939, 61.51953
1225.019, 86.88281
1226.099, 103.2930
1227.178, 63.71094
1228.258, 295.1328
1229.337, 284.7383
1230.417, 230.1172
1231.496, 352.4375
1232.574, 196.8906
1233.653, 35.34766
1234.732, 326.8047
1235.810, 81.72656
1236.888, 74.71094
1237.966, 156.1523
1239.044, 150.7695
1240.122, 425.2227
1241.199, 365.6875
1242.277, 564.1562
1243.354, 168.6367
1244.431, 151.1211
1245.508, 332.6094
1246.585, 202.1094
1247.661, 172.6133
1248.738, 396.1289
1249.814, 398.6523
1250.890, 415.1797
1251.966, 315.7188
1253.042, 319.2656
1254.117, 108.8164
1255.193, 90.19922
1256.268, 92.94922
1257.343, 32.47266
1258.418, 203.1055
1259.493, 181.0195
1260.567, 167.6094
1261.642, 184.2109
1262.716, 490.8203
1263.790, 240.4336
1264.864, 93.06250
1265.938, 571.6992
1267.011, 240.3438
1268.085, 278.0039
1269.158, 144.6680
1270.231, 321.3438
1271.304, 255.0273
1272.377, 175.7227
1273.450, 326.2344
1274.522, 291.9492
1275.594, 234.6758
1276.666, 356.4141
1277.738, 91.16016
1278.810, 418.9180
1279.882, 300.6836
1280.953, 102.4648
1282.025, 119.2500
1283.096, 192.0703
1284.167, 265.8945
1285.238, 583.7383
1286.308, 23.58594
1287.379, 181.6797
1288.449, 396.5586
1289.519, 56.44141
1290.589, 245.3398
1291.659, 191.2539
1292.729, 153.1758
1293.798, 331.1094
1294.868, 260.4414
1295.937, 449.6484
1297.006, 350.6250
1298.075, 397.6211
1299.143, 557.6250
1300.212, 498.2188
1301.280, 502.6719
1302.348, 526.7188
1303.416, 380.9922
1304.484, 367.0625
1305.552, 332.4453
1306.620, 265.9141
1307.687, 287.5859
1308.754, 195.7109
1309.821, 201.8516
1310.888, 181.3125
1311.955, 164.6797
1313.021, 141.8789
1314.088, 219.5586
1315.154, 487.3203
1316.220, 358.5586
1317.286, 486.8125
1318.352, 485.0898
1319.417, 421.3789
1320.483, 500.6758
1321.548, 389.9883
1322.613, 393.3047
1323.678, 422.6289
1324.743, 264.9688
1325.807, 224.3125
1326.872, 410.6016
1327.936, 305.9688
1329.000, 365.3516
1330.064, 388.7383
1331.128, 9.144531
1332.191, 274.5586
1333.255, 162.9805
1334.318, 238.6523
1335.381, 401.1016
1336.444, 493.5625
1337.507, 133.0391
1338.569, 367.6953
1339.632, 0.8046880
1340.694, 249.7070
1341.756, 290.5352
1342.818, 178.0781
1343.880, 296.4062
1344.941, 504.9805
1346.003, 334.5664
1347.064, 198.1641
1348.125, 335.7656
1349.186, 432.3906
1350.247, 401.4727
1351.308, 503.1172
1352.368, 316.5703
1353.428, 519.2617
1354.489, 545.9766
1355.549, 387.7031
1356.608, 296.4453
1357.668, 349.2031
1358.727, 257.9805
1359.787, 377.7695
1360.846, 322.5859
1361.905, 221.4062
1362.964, 359.2422
1364.022, 216.9648
1365.081, 524.8359
1366.139, 470.7305
1367.197, 535.6445
1368.255, 601.3984
1369.313, 500.5352
1370.371, 544.5039
1371.428, 416.4922
1372.486, 236.5000
1373.543, 558.5273
1374.600, 169.5664
1375.657, 344.6328
1376.713, 366.7109
1377.770, 602.8125
1378.826, 302.9336
1379.882, 504.3711
1380.938, 276.5039
1381.994, 464.6523
1383.050, 357.8203
1384.106, 508.0039
1385.161, 186.7422
1386.216, 558.9883
1387.271, 318.2852
1388.326, 201.6055
1389.381, 133.9414
1390.435, 309.3047
1391.490, 292.6836
1392.544, 351.0781
1393.598, 273.5000
1394.652, 84.94141
1395.705, 31.39844
1396.759, 347.8828
1397.812, 11.38672
1398.866, 325.9180
1399.919, 47.53516
1400.972, 563.0312
1402.024, 165.6211
1403.077, 11.23438
1404.129, 299.8711
1405.181, 477.5312
1406.233, 281.2148
1407.285, 158.9219
1408.337, 283.6523
1409.389, 287.2227
1410.440, 266.0000
1411.491, 264.8086
1412.542, 246.2773
1413.593, 20.50781
1414.644, 178.3672
1415.695, 152.6289
1416.745, 48.56250
1417.795, 396.5234
1418.845, 380.5078
1419.895, 399.4375
1420.945, 266.2891
1421.995, 343.4023
1423.044, 349.5430
1424.093, 226.7188
1425.142, 154.9219
1426.191, 115.1641
1427.240, 150.4336
1428.289, 357.7461
1429.337, 124.9883
1430.385, 161.2656
1431.433, 75.57422
1432.481, 428.9023
1433.529, 160.2656
1434.577, 280.6719
1435.624, 92.38672
1436.672, 143.7773
1437.719, 111.7773
1438.766, 14.73438
1439.812, 74.83594
1440.859, 314.3477
1441.905, 59.26172
1442.952, 395.8008
1443.998, 359.7695
1445.044, 219.8594
1446.090, 360.6875
1447.135, 56.41797
1448.181, 320.9727
1449.226, 429.6719
1450.271, 337.3867
1451.316, 274.1836
1452.361, 284.0000
1453.405, 122.8398
1454.450, 115.7109
1455.494, 203.6172
1456.538, 354.5508
1457.582, 102.4922
1458.626, 143.6367
1459.670, 312.8242
1460.713, 169.0352
1461.757, 331.6367
1462.800, 302.5859
1463.843, 421.9844
1464.886, 472.4219
1465.928, 327.8828
1466.971, 383.2539
1468.013, 302.9102
1469.055, 333.4961
1470.097, 135.1328
1471.139, 157.8008
1472.181, 362.5078
1473.222, 193.2461
1474.263, 119.0156
1475.305, 389.8164
1476.346, 444.6562
1477.386, 142.5273
1478.427, 133.4297
1479.468, 398.3789
1480.508, 86.37109
1481.548, 212.3945
1482.588, 260.4531
1483.628, 316.5547
1484.668, 317.6836
1485.707, 382.8516
1486.747, 291.8867
1487.786, 407.1133
1488.825, 263.3789
1489.864, 218.6758
1490.902, 332.0078
1491.941, 50.32031
1492.979, 115.6719
1494.017, 50.68750
1495.055, 413.0977
1496.093, 135.5352
1497.131, 326.0000
1498.168, 587.4805
1499.206, 87.99219
1500.243, 295.5391
1501.280, 239.1094
1502.317, 419.7109
1503.354, 32.34766
1504.390, 13.99219
1505.426, 238.7695
1506.463, 277.3398
1507.499, 305.9258
1508.535, 131.5273
1509.570, 168.1641
1510.606, 436.8555
1511.641, 168.6250
1512.676, 613.4609
1513.711, 97.35938
1514.746, 404.3164
1515.781, 152.3438
1516.816, 440.4297
1517.850, 355.5742
1518.884, 56.77734
1519.918, 161.0430
1520.952, 249.3633
1521.986, 433.7422
1523.019, 200.1797
1524.053, 434.6758
1525.086, 153.2344
1526.119, 371.8516
1527.152, 277.5352
1528.185, 386.2812
1529.217, 592.0820
1530.250, 468.9805
1531.282, 175.9453
1532.314, 151.9727
1533.346, 66.91797
1534.377, 436.2695
1535.409, 218.5312
1536.440, 365.8789
1537.472, 174.3086
1538.503, 436.7109
1539.534, 43.48438
1540.564, 264.3711
1541.595, 142.3867
1542.625, 449.5312
1543.656, 269.8125
1544.686, 14.76562
1545.716, 417.7969
1546.745, 490.5078
1547.775, 191.3828
1548.804, 184.4258
1549.834, 471.6484
1550.863, 386.0664
1551.892, 222.6797
1552.920, 646.9062
1553.949, 306.5781
1554.977, 256.3438
1556.006, 401.4883
1557.034, 385.2812
1558.062, 346.0586
1559.089, 130.4062
1560.117, 313.5820
1561.144, 289.2578
1562.172, 15.82812
1563.199, 113.0469
1564.226, 354.6289
1565.252, 158.7383
1566.279, 537.6172
1567.305, 63.10938
1568.332, 202.0195
1569.358, 302.0039
1570.384, 0.2031250
1571.409, 0.0000000E+00
##END=



