##NAMES=Senegalite
##RRUFFID=R050239
##IDEAL CHEMISTRY=Al_2_PO_4_(OH)_3_&#183;H_2_O
##LOCALITY=Kourondicko iron ore (magnetite) deposit, Faleme River Basin, Senegal
##OWNER=RRUFF
##SOURCE=Marcus Origlieri
##DESCRIPTION=Colorless prismatic crystals
##STATUS=The identification of this mineral has been confirmed by X-ray diffraction and chemical analysis
##URL=rruff.info/R050239
##MEASURED CHEMISTRY=Al_2.00_P_1.00_O_4_(OH)_3_Â·H_2_O
##PIN_ID=M00389
##ORIENTATION=Laser parallel to -b* (0 -1 0). Fiducial mark perpendicular to laser is parallel to -c [0 0 -1]
123.0580, 0.0000000E+00
124.2880, 123.1826
125.5190, 2.435120
126.7490, 86.46948
127.9790, 102.0156
129.2090, 241.7194
130.4390, 324.0693
131.6680, 710.0737
132.8980, 633.1261
134.1270, 720.7465
135.3560, 529.5328
136.5850, 424.1600
137.8140, 386.3743
139.0430, 322.9858
140.2710, 339.0496
141.5000, 199.4585
142.7280, 470.0007
143.9560, 528.5074
145.1840, 471.8500
146.4120, 512.9316
147.6390, 463.6646
148.8670, 323.9837
150.0940, 193.8307
151.3210, 269.1610
152.5490, 55.95233
153.7750, 25.18286
155.0020, 171.1603
156.2290, 81.00653
157.4550, 193.8463
158.6810, 95.82843
159.9080, 156.9497
161.1340, 212.2125
162.3590, 124.6202
163.5850, 211.1752
164.8110, 295.8730
166.0360, 260.7209
167.2610, 217.7170
168.4860, 403.8624
169.7110, 171.1619
170.9360, 211.6137
172.1610, 160.2208
173.3850, 31.99512
174.6100, 17.93677
175.8340, 125.0224
177.0580, 266.1807
178.2820, 201.3697
179.5050, 274.4298
180.7290, 173.9384
181.9520, 252.5524
183.1760, 298.2058
184.3990, 244.9359
185.6220, 339.7464
186.8450, 474.7529
188.0670, 534.3257
189.2900, 647.5355
190.5120, 802.4165
191.7340, 973.6594
192.9560, 1137.649
194.1780, 1161.352
195.4000, 1095.324
196.6220, 939.4058
197.8430, 1078.554
199.0640, 849.8102
200.2860, 1068.142
201.5070, 1128.565
202.7270, 1103.071
203.9480, 960.6742
205.1690, 867.9142
206.3890, 590.1750
207.6090, 516.0736
208.8290, 294.0710
210.0490, 102.1743
211.2690, 80.37442
212.4890, 34.67749
213.7080, 64.08136
214.9280, 69.58508
216.1470, 143.1883
217.3660, 74.88837
218.5850, 161.6889
219.8030, 60.58331
221.0220, 180.5753
222.2400, 223.6603
223.4590, 348.8420
224.6770, 617.1164
225.8950, 530.4864
227.1120, 875.9481
228.3300, 791.5001
229.5480, 1130.141
230.7650, 1380.865
231.9820, 1431.671
233.1990, 1234.563
234.4160, 1301.543
235.6330, 1149.613
236.8490, 882.4697
238.0660, 983.9101
239.2820, 1107.223
240.4980, 857.5736
241.7140, 829.1138
242.9300, 670.8555
244.1460, 529.7392
245.3610, 313.7789
246.5770, 166.9130
247.7920, 39.12646
249.0070, 23.63422
250.2220, 103.4281
251.4370, 40.52005
252.6510, 138.2891
253.8660, 102.4846
255.0800, 18.49893
256.2940, 106.7896
257.5080, 151.0565
258.7220, 57.07181
259.9360, 35.69562
261.1490, 266.7297
262.3630, 7.316742
263.5760, 274.4898
264.7890, 86.54523
266.0020, 288.6965
267.2150, 429.6991
268.4270, 475.9996
269.6400, 474.7147
270.8520, 605.1379
272.0640, 940.9406
273.2760, 851.1691
274.4880, 928.3778
275.7000, 755.8059
276.9120, 926.4282
278.1230, 773.2303
279.3340, 568.2004
280.5450, 522.3188
281.7560, 478.5830
282.9670, 427.9808
284.1780, 700.5066
285.3880, 711.1518
286.5980, 788.9117
287.8090, 955.7786
289.0190, 1085.751
290.2290, 1274.819
291.4380, 1444.984
292.6480, 1681.237
293.8570, 1402.581
295.0670, 1478.010
296.2760, 979.5233
297.4850, 1058.118
298.6930, 758.7938
299.9020, 958.5430
301.1110, 817.3683
302.3190, 890.2587
303.5270, 668.2106
304.7350, 585.2232
305.9430, 604.2986
307.1510, 385.4338
308.3580, 448.6246
309.5660, 203.8771
310.7730, 430.1880
311.9800, 474.5569
313.1870, 402.9841
314.3940, 566.4660
315.6010, 535.0066
316.8070, 481.5998
318.0130, 505.2461
319.2200, 497.9512
320.4260, 722.7095
321.6310, 648.5187
322.8370, 929.3814
324.0430, 992.2953
325.2480, 1077.264
326.4540, 1212.284
327.6590, 1060.358
328.8640, 1309.481
330.0680, 1056.656
331.2730, 1109.881
332.4780, 888.0837
333.6820, 666.2333
334.8860, 697.3658
336.0900, 478.4872
337.2940, 152.6648
338.4980, 270.8928
339.7010, 232.1738
340.9050, 262.5052
342.1080, 340.8890
343.3110, 342.3270
344.5140, 292.8155
345.7170, 255.8407
346.9200, 187.2425
348.1220, 95.57956
349.3240, 25.26950
350.5270, 26.99583
351.7290, 95.23132
352.9310, 254.5471
354.1320, 100.3741
355.3340, 344.2511
356.5350, 153.1748
357.7370, 415.1466
358.9380, 456.1672
360.1390, 703.2338
361.3400, 728.3472
362.5400, 893.5126
363.7410, 1007.720
364.9410, 1060.216
366.1410, 1243.659
367.3410, 1047.005
368.5410, 1100.477
369.7410, 986.3798
370.9400, 1077.441
372.1400, 1008.047
373.3390, 752.3606
374.5380, 864.2715
375.7370, 729.9551
376.9360, 517.6557
378.1350, 391.3146
379.3330, 293.9963
380.5310, 119.8996
381.7300, 246.5716
382.9280, 141.0611
384.1260, 135.2339
385.3230, 85.18132
386.5210, 44.00811
387.7180, 37.81432
388.9160, 34.80321
390.1130, 41.16135
391.3100, 87.38996
392.5060, 4.048069
393.7030, 32.29831
394.9000, 127.1294
396.0960, 30.86253
397.2920, 4.087921
398.4880, 41.96440
399.6840, 48.36913
400.8800, 23.73581
402.0750, 7.932076
403.2710, 41.56951
404.4660, 22.64249
405.6610, 43.37168
406.8560, 36.72602
408.0510, 52.95317
409.2450, 138.7225
410.4400, 90.83390
411.6340, 53.29191
412.8280, 7.338993
414.0220, 91.33201
415.2160, 77.92028
416.4100, 7.446327
417.6030, 123.2196
418.7970, 322.9324
419.9900, 250.6915
421.1830, 286.4985
422.3760, 467.3528
423.5690, 472.2482
424.7610, 521.1907
425.9540, 595.1758
427.1460, 539.2036
428.3380, 552.2739
429.5300, 847.3881
430.7220, 813.5446
431.9140, 959.7411
433.1050, 1038.980
434.2970, 1175.258
435.4880, 1252.576
436.6790, 1298.953
437.8700, 1532.370
439.0610, 1640.826
440.2510, 1658.324
441.4420, 1635.864
442.6320, 1744.441
443.8220, 1594.055
445.0120, 1499.706
446.2020, 1647.397
447.3910, 1580.124
448.5810, 1441.886
449.7700, 1563.688
450.9600, 1236.550
452.1490, 1101.449
453.3370, 1240.425
454.5260, 1044.437
455.7150, 1039.482
456.9030, 1012.565
458.0910, 809.6811
459.2800, 1136.832
460.4670, 1058.019
461.6550, 1017.240
462.8430, 1166.497
464.0300, 1425.793
465.2180, 1684.127
466.4050, 1565.499
467.5920, 1588.899
468.7790, 1883.367
469.9650, 2219.867
471.1520, 2413.397
472.3380, 2802.961
473.5250, 3015.562
474.7110, 3370.190
475.8970, 3528.874
477.0820, 3681.651
478.2680, 3773.494
479.4540, 3680.402
480.6390, 2872.387
481.8240, 2597.405
483.0090, 2121.454
484.1940, 1785.555
485.3780, 1198.685
486.5630, 980.8897
487.7470, 852.1273
488.9320, 489.3997
490.1160, 487.7341
491.3000, 441.0270
492.4830, 709.1929
493.6670, 316.3903
494.8500, 473.3562
496.0340, 348.8958
497.2170, 510.3934
498.4000, 464.9917
499.5820, 285.6242
500.7650, 192.2950
501.9480, 126.9962
503.1300, 192.7650
504.3120, 89.56444
505.4940, 347.4034
506.6760, 3.244329
507.8580, 50.16124
509.0390, 212.0729
510.2210, 64.01550
511.4020, 64.07325
512.5830, 22.02618
513.7640, 15.48749
514.9450, 24.93316
516.1250, 164.7454
517.3060, 73.94828
518.4860, 116.9537
519.6660, 154.9904
520.8460, 92.05273
522.0260, 50.88605
523.2060, 254.0792
524.3850, 6.170156
525.5650, 14.94625
526.7440, 178.9323
527.9230, 5.582283
529.1020, 157.5106
530.2810, 83.47170
531.4590, 9.676769
532.6380, 23.19048
533.8160, 227.8681
534.9940, 135.0471
536.1720, 179.7395
537.3500, 522.4201
538.5270, 291.9936
539.7050, 378.5669
540.8820, 525.1830
542.0590, 352.2921
543.2360, 566.7200
544.4130, 549.0454
545.5900, 658.1232
546.7660, 773.8541
547.9430, 470.3944
549.1190, 757.2696
550.2950, 707.4355
551.4710, 369.3248
552.6470, 543.6553
553.8220, 405.7853
554.9980, 522.4313
556.1730, 542.8338
557.3480, 642.1983
558.5230, 471.4766
559.6980, 569.0425
560.8730, 562.6254
562.0470, 365.2285
563.2220, 507.8525
564.3960, 578.4954
565.5700, 231.1571
566.7440, 254.8377
567.9170, 499.5372
569.0910, 456.2519
570.2640, 553.2532
571.4380, 386.7325
572.6110, 572.4985
573.7840, 375.3106
574.9570, 211.1399
576.1290, 500.9885
577.3020, 232.8137
578.4740, 236.8711
579.6460, 245.7624
580.8180, 73.45145
581.9900, 304.3758
583.1620, 41.31384
584.3330, 273.2656
585.5040, 51.23121
586.6760, 362.2068
587.8470, 204.2021
589.0180, 89.20758
590.1880, 144.2230
591.3590, 108.9765
592.5290, 109.6302
593.7000, 300.1233
594.8700, 237.1833
596.0400, 323.2535
597.2090, 284.3418
598.3790, 206.4306
599.5490, 526.7017
600.7180, 355.8076
601.8870, 319.9239
603.0560, 521.0467
604.2250, 747.1635
605.3940, 713.3017
606.5620, 852.1462
607.7300, 746.3000
608.8990, 915.3074
610.0670, 802.4691
611.2350, 988.6385
612.4020, 1021.984
613.5700, 1046.159
614.7370, 1483.346
615.9050, 1052.261
617.0720, 1435.632
618.2390, 1137.787
619.4060, 1224.851
620.5720, 1239.038
621.7390, 1505.243
622.9050, 1288.575
624.0710, 1400.788
625.2370, 1039.431
626.4030, 1051.140
627.5690, 1226.684
628.7340, 1085.097
629.9000, 699.2115
631.0650, 805.4501
632.2300, 599.9713
633.3950, 547.6682
634.5600, 609.8232
635.7240, 547.3594
636.8890, 561.0649
638.0530, 621.7275
639.2170, 548.9363
640.3810, 617.8009
641.5450, 586.3996
642.7080, 720.7069
643.8720, 582.3123
645.0350, 430.5482
646.1980, 511.6664
647.3610, 519.6898
648.5240, 310.1924
649.6870, 438.4878
650.8490, 292.6666
652.0120, 318.8375
653.1740, 361.5628
654.3360, 272.4480
655.4980, 163.5882
656.6600, 177.7929
657.8210, 243.2556
658.9830, 119.5993
660.1440, 82.26280
661.3050, 39.96991
662.4660, 57.84008
663.6270, 83.22736
664.7870, 114.9759
665.9480, 130.4163
667.1080, 210.9187
668.2680, 186.0438
669.4280, 250.9267
670.5880, 293.0439
671.7480, 497.3710
672.9070, 333.6066
674.0670, 515.7248
675.2260, 257.2409
676.3850, 232.3555
677.5440, 236.4808
678.7030, 171.6128
679.8610, 358.7413
681.0200, 3.144524
682.1780, 256.9752
683.3360, 62.63435
684.4940, 178.1742
685.6520, 34.75877
686.8090, 157.2833
687.9670, 230.3301
689.1240, 73.38195
690.2810, 75.43922
691.4380, 358.5516
692.5950, 252.6311
693.7520, 343.1891
694.9080, 370.8069
696.0650, 342.9529
697.2210, 538.6978
698.3770, 392.8474
699.5330, 373.8766
700.6880, 480.9073
701.8440, 538.2941
702.9990, 543.2878
704.1550, 579.7192
705.3100, 538.6692
706.4650, 374.5981
707.6190, 462.5101
708.7740, 293.3973
709.9290, 272.2638
711.0830, 206.1094
712.2370, 116.1402
713.3910, 100.9502
714.5450, 60.94449
715.6980, 41.99619
716.8520, 17.72431
718.0050, 49.40061
719.1580, 4.949818
720.3110, 59.28779
721.4640, 59.43813
722.6170, 111.0053
723.7700, 147.5457
724.9220, 174.2801
726.0740, 146.3142
727.2260, 61.77470
728.3780, 129.2066
729.5300, 52.38810
730.6810, 5.937855
731.8330, 30.89524
732.9840, 221.6502
734.1350, 59.94880
735.2860, 55.08023
736.4370, 61.30217
737.5880, 37.37633
738.7380, 74.04497
739.8880, 197.1284
741.0390, 173.1090
742.1890, 10.78079
743.3380, 91.12297
744.4880, 19.99619
745.6380, 187.8311
746.7870, 0.1783410
747.9360, 85.34724
749.0850, 88.02859
750.2340, 56.67746
751.3830, 204.2937
752.5310, 140.5396
753.6800, 34.73329
754.8280, 132.0496
755.9760, 0.9500050
757.1240, 33.32781
758.2720, 64.82346
759.4190, 147.7254
760.5670, 78.68859
761.7140, 25.36320
762.8610, 59.86418
764.0080, 40.75056
765.1550, 68.50875
766.3020, 26.73859
767.4480, 21.52386
768.5950, 319.8319
769.7410, 23.30001
770.8870, 74.16923
772.0330, 41.50743
773.1780, 66.04406
774.3240, 163.4376
775.4690, 83.51123
776.6140, 51.58706
777.7590, 19.99918
778.9040, 35.16632
780.0490, 36.87396
781.1940, 102.2980
782.3380, 5.005623
783.4820, 15.78642
784.6260, 501.7309
785.7700, 48.77761
786.9140, 221.4716
788.0580, 10.80324
789.2010, 54.82405
790.3450, 425.3316
791.4880, 164.8952
792.6310, 19.90316
793.7730, 148.2889
794.9160, 151.7721
796.0590, 73.66746
797.2010, 14.31067
798.3430, 128.1279
799.4850, 240.2252
800.6270, 96.83179
801.7690, 152.7555
802.9100, 41.93195
804.0520, 130.5651
805.1930, 2.014904
806.3340, 181.1838
807.4750, 492.5989
808.6160, 191.5766
809.7560, 158.3045
810.8970, 342.0996
812.0370, 141.5938
813.1770, 334.4160
814.3170, 370.5193
815.4570, 402.9351
816.5960, 341.6280
817.7360, 295.2815
818.8750, 286.1863
820.0140, 275.8918
821.1530, 259.0698
822.2920, 281.2257
823.4310, 263.3094
824.5690, 252.7238
825.7070, 274.9778
826.8460, 326.4871
827.9840, 242.7660
829.1220, 265.6233
830.2590, 148.4707
831.3970, 142.4541
832.5340, 241.7521
833.6710, 127.9917
834.8080, 245.5412
835.9450, 321.9235
837.0820, 387.3769
838.2190, 186.2689
839.3550, 340.6562
840.4910, 170.4602
841.6270, 397.2123
842.7630, 593.4280
843.8990, 319.0034
845.0350, 572.8940
846.1700, 345.4935
847.3060, 342.5331
848.4410, 16.94930
849.5760, 315.7225
850.7100, 210.1880
851.8450, 261.5977
852.9800, 289.0107
854.1140, 641.1703
855.2480, 351.4579
856.3820, 102.2728
857.5160, 568.4648
858.6500, 676.6086
859.7830, 495.7124
860.9170, 580.7645
862.0500, 145.7725
863.1830, 403.7287
864.3160, 336.6408
865.4480, 495.5051
866.5810, 352.5995
867.7130, 244.7620
868.8460, 419.0530
869.9780, 261.7378
871.1100, 329.3747
872.2410, 267.9600
873.3730, 362.5093
874.5050, 228.8349
875.6360, 200.2964
876.7670, 338.7061
877.8980, 262.0681
879.0290, 359.4070
880.1590, 338.6499
881.2900, 473.2122
882.4200, 340.4026
883.5500, 395.6927
884.6800, 495.7953
885.8100, 424.8502
886.9400, 322.6893
888.0690, 50.65650
889.1990, 254.5681
890.3280, 196.7105
891.4570, 343.3589
892.5860, 162.1779
893.7140, 402.0489
894.8430, 149.7576
895.9710, 282.3994
897.1000, 254.8804
898.2280, 168.4542
899.3560, 373.5746
900.4830, 219.5968
901.6110, 26.70178
902.7380, 31.05692
903.8660, 134.3926
904.9930, 152.6761
906.1200, 226.6467
907.2460, 199.4056
908.3730, 35.67365
909.5000, 27.17812
910.6260, 56.25657
911.7520, 50.87798
912.8780, 14.95071
914.0040, 19.86341
915.1290, 52.88936
916.2550, 24.29553
917.3800, 50.16506
918.5050, 327.9520
919.6300, 170.8113
920.7550, 115.3737
921.8800, 211.6705
923.0040, 33.15013
924.1290, 10.36654
925.2530, 23.67754
926.3770, 15.00274
927.5010, 247.1403
928.6250, 71.26020
929.7480, 179.2374
930.8720, 70.18707
931.9950, 2.773392
933.1180, 68.97258
934.2410, 159.5837
935.3640, 75.64534
936.4860, 45.98267
937.6090, 276.7457
938.7310, 84.17268
939.8530, 117.7518
940.9750, 167.0179
942.0970, 108.7687
943.2180, 7.636524
944.3400, 32.32845
945.4610, 18.83662
946.5820, 49.58292
947.7030, 207.8915
948.8240, 121.5689
949.9450, 42.20715
951.0650, 270.8022
952.1860, 223.3698
953.3060, 95.91839
954.4260, 37.55984
955.5460, 192.8942
956.6650, 215.3436
957.7850, 217.7579
958.9040, 204.0211
960.0230, 16.38422
961.1420, 162.5425
962.2610, 12.16904
963.3800, 16.84568
964.4990, 48.64689
965.6170, 4.275906
966.7350, 26.19693
967.8530, 158.7368
968.9710, 17.48224
970.0890, 100.8349
971.2070, 1.277973
972.3240, 376.6577
973.4410, 7.539856
974.5580, 419.6009
975.6750, 204.8391
976.7920, 71.51164
977.9090, 9.758060
979.0250, 132.3676
980.1410, 224.0155
981.2580, 94.39761
982.3740, 26.71679
983.4890, 344.8196
984.6050, 315.1175
985.7200, 445.1577
986.8360, 569.3900
987.9510, 432.7209
989.0660, 241.0519
990.1810, 121.4837
991.2950, 464.7132
992.4100, 412.2311
993.5240, 619.4399
994.6390, 625.7342
995.7530, 742.8833
996.8660, 542.2350
997.9800, 658.3245
999.0940, 613.7300
1000.207, 683.7598
1001.320, 613.7925
1002.433, 973.5709
1003.546, 587.5834
1004.659, 996.4349
1005.772, 751.3958
1006.884, 1110.203
1007.996, 1104.104
1009.108, 1110.688
1010.220, 1429.123
1011.332, 1466.941
1012.444, 1618.574
1013.555, 1909.351
1014.666, 1813.091
1015.777, 2144.816
1016.888, 2169.505
1017.999, 2538.203
1019.110, 2314.872
1020.220, 2883.526
1021.331, 2822.156
1022.441, 3329.094
1023.551, 3396.493
1024.661, 3837.658
1025.770, 3934.269
1026.880, 4110.173
1027.989, 4392.050
1029.098, 4312.246
1030.207, 4151.871
1031.316, 4067.308
1032.425, 3775.463
1033.533, 3700.969
1034.642, 2912.432
1035.750, 2610.433
1036.858, 2400.483
1037.966, 1858.638
1039.073, 1721.766
1040.181, 1766.237
1041.288, 1386.573
1042.396, 1368.023
1043.503, 1112.356
1044.610, 1067.012
1045.716, 728.2234
1046.823, 965.4409
1047.929, 607.0866
1049.036, 317.5955
1050.142, 437.6650
1051.248, 481.4030
1052.353, 736.7847
1053.459, 703.1061
1054.564, 814.1746
1055.670, 799.4647
1056.775, 763.6747
1057.880, 630.6937
1058.985, 789.9951
1060.089, 784.2294
1061.194, 894.4962
1062.298, 1020.199
1063.402, 1200.332
1064.506, 1219.991
1065.610, 1234.769
1066.713, 962.4821
1067.817, 1039.937
1068.920, 885.5707
1070.023, 537.0283
1071.126, 767.7899
1072.229, 694.4221
1073.332, 814.1783
1074.435, 819.1425
1075.537, 703.8405
1076.639, 928.9244
1077.741, 1027.200
1078.843, 893.3365
1079.945, 861.7276
1081.046, 936.0939
1082.148, 827.7492
1083.249, 588.0365
1084.350, 805.9794
1085.451, 556.2699
1086.551, 272.2038
1087.652, 640.2408
1088.752, 366.0990
1089.853, 288.9527
1090.953, 2.231438
1092.053, 263.5852
1093.152, 16.12804
1094.252, 358.0327
1095.351, 122.7586
1096.451, 38.84619
1097.550, 151.8801
1098.649, 178.5502
1099.748, 199.1817
1100.846, 224.6399
1101.945, 195.3065
1103.043, 90.92805
1104.141, 141.9889
1105.239, 20.55922
1106.337, 18.56236
1107.434, 211.0969
1108.532, 178.6937
1109.629, 28.86998
1110.726, 166.3021
1111.823, 20.50660
1112.920, 85.13968
1114.017, 22.78956
1115.113, 154.6362
1116.210, 32.83625
1117.306, 135.3435
1118.402, 34.48859
1119.498, 199.6393
1120.593, 135.5657
1121.689, 73.66955
1122.784, 71.40196
1123.879, 37.53639
1124.974, 108.5572
1126.069, 73.61287
1127.164, 128.6566
1128.259, 256.6882
1129.353, 119.7157
1130.447, 13.72731
1131.541, 252.7270
1132.635, 298.3590
1133.729, 199.3347
1134.822, 219.3022
1135.916, 191.2579
1137.009, 193.2053
1138.102, 248.1447
1139.195, 212.0760
1140.288, 204.9915
1141.380, 414.9028
1142.473, 89.80207
1143.565, 407.6935
1144.657, 165.5806
1145.749, 308.4557
1146.841, 281.3191
1147.932, 255.1743
1149.024, 369.0216
1150.115, 394.8608
1151.206, 714.5203
1152.297, 586.3434
1153.388, 384.1503
1154.479, 759.9650
1155.569, 358.7675
1156.659, 481.5618
1157.750, 322.3519
1158.839, 298.4469
1159.929, 229.2205
1161.019, 352.9899
1162.108, 37.47316
1163.198, 21.26270
1164.287, 22.01429
1165.376, 77.81570
1166.465, 207.4655
1167.553, 119.1350
1168.642, 31.98314
1169.730, 20.54054
1170.818, 337.0782
1171.906, 138.6925
1172.994, 140.2986
1174.082, 103.9116
1175.170, 7.487274
1176.257, 1.894472
1177.344, 31.68124
1178.431, 3.271523
1179.518, 71.86987
1180.605, 73.46770
1181.691, 9.915142
1182.778, 233.6886
1183.864, 8.284187
1184.950, 23.12885
1186.036, 203.4886
1187.122, 144.0941
1188.207, 23.14297
1189.292, 275.3298
1190.378, 30.93103
1191.463, 63.54838
1192.548, 175.1449
1193.632, 235.7409
1194.717, 232.3286
1195.801, 57.91570
1196.886, 229.4998
1197.970, 104.1614
1199.054, 194.5922
1200.137, 333.0967
1201.221, 155.1789
1202.305, 219.0068
1203.388, 273.4162
1204.471, 141.8216
1205.554, 68.22241
1206.637, 192.6191
1207.719, 304.0154
1208.802, 110.4113
1209.884, 194.8070
1210.966, 13.79384
1212.048, 240.5820
1213.130, 134.9615
1214.212, 230.3437
1215.293, 10.11024
1216.374, 28.34030
1217.456, 151.3922
1218.536, 133.7237
1219.617, 140.0552
1220.698, 240.9723
1221.778, 231.8371
1222.859, 275.1642
1223.939, 177.6457
1225.019, 107.9734
1226.099, 207.2508
1227.178, 15.21300
1228.258, 245.5737
1229.337, 348.9307
1230.417, 55.30688
1231.496, 144.6793
1232.574, 142.0768
1233.653, 228.3337
1234.732, 222.8262
1235.810, 26.76024
1236.888, 313.7714
1237.966, 12.80714
1239.044, 217.6045
1240.122, 24.63764
1241.199, 45.80377
1242.277, 84.13099
1243.354, 54.70032
1244.431, 188.7194
1245.508, 68.85645
1246.585, 77.39708
1247.661, 143.8205
1248.738, 317.2199
1249.814, 43.68718
1250.890, 98.05016
1251.966, 225.3235
1253.042, 39.59352
1254.117, 264.7392
1255.193, 141.1591
1256.268, 23.46644
1257.343, 88.89165
1258.418, 342.3335
1259.493, 32.77623
1260.567, 83.87595
1261.642, 3.962894
1262.716, 269.7818
1263.790, 109.2343
1264.864, 300.6877
1265.938, 235.1498
1267.011, 31.62456
1268.085, 348.1003
1269.158, 267.5846
1270.231, 141.0700
1271.304, 294.5641
1272.377, 80.06316
1273.450, 115.5671
1274.522, 321.0719
1275.594, 281.5858
1276.666, 364.1082
1277.738, 217.6473
1278.810, 301.1914
1279.882, 45.25566
1280.953, 34.26971
1282.025, 150.8079
1283.096, 179.3550
1284.167, 328.9031
1285.238, 157.4642
1286.308, 466.0266
1287.379, 37.38768
1288.449, 367.1788
1289.519, 215.7544
1290.589, 225.0993
1291.659, 250.8296
1292.729, 242.8809
1293.798, 42.55533
1294.868, 170.1760
1295.937, 109.5872
1297.006, 342.4294
1298.075, 183.0206
1299.143, 368.6964
1300.212, 525.3559
1301.280, 316.0282
1302.348, 0.7064590
1303.416, 209.3977
1304.484, 397.0245
1305.552, 195.0495
1306.620, 393.2359
1307.687, 71.23352
1308.754, 624.9767
1309.821, 234.6151
1310.888, 248.1862
1311.955, 318.9540
1313.021, 199.5721
1314.088, 567.3082
1315.154, 338.1128
1316.220, 363.9273
1317.286, 485.9639
1318.352, 108.8067
1319.417, 51.37545
1320.483, 234.4573
1321.548, 330.3002
1322.613, 268.1416
1323.678, 308.9654
1324.743, 564.8575
1325.807, 149.7241
1326.872, 195.1514
1327.936, 163.0378
1329.000, 359.9378
1330.064, 496.6133
1331.128, 203.5294
1332.191, 356.4553
1333.255, 370.3950
1334.318, 367.3450
1335.381, 323.3051
1336.444, 340.9900
1337.507, 232.2633
1338.569, 331.2576
1339.632, 391.8951
1340.694, 373.6091
1341.756, 243.6003
1342.818, 316.6433
1343.880, 315.3366
1344.941, 369.9551
1346.003, 283.0371
1347.064, 229.1257
1348.125, 408.2366
1349.186, 41.35785
1350.247, 150.5104
1351.308, 111.7832
1352.368, 449.9789
1353.428, 166.1640
1354.489, 241.3890
1355.549, 284.6285
1356.608, 346.8866
1357.668, 214.1593
1358.727, 289.4427
1359.787, 325.7369
1360.846, 60.05356
1361.905, 468.3850
1362.964, 113.7271
1364.022, 384.0919
1365.081, 334.4715
1366.139, 382.7918
1367.197, 9.197525
1368.255, 336.5921
1369.313, 242.0528
1370.371, 285.5296
1371.428, 313.0334
1372.486, 265.5565
1373.543, 558.1534
1374.600, 597.7794
1375.657, 344.4209
1376.713, 142.0919
1377.770, 221.9718
1378.826, 48.63786
1379.882, 474.3042
1380.938, 234.9856
1381.994, 330.6819
1383.050, 501.3972
1384.106, 118.1313
1385.161, 170.9764
1386.216, 219.7449
1387.271, 314.5286
1388.326, 330.0332
1389.381, 411.3359
1390.435, 286.8258
1391.490, 476.6514
1392.544, 266.3987
1393.598, 127.2589
1394.652, 14.14660
1395.705, 230.0426
1396.759, 355.9577
1397.812, 359.8806
1398.866, 123.8308
1399.919, 197.7964
1400.972, 278.7796
1402.024, 113.7705
1403.077, 158.7805
1404.129, 64.94635
1405.181, 57.99855
1406.233, 185.0661
1407.285, 246.3208
1408.337, 197.4268
1409.389, 142.5558
1410.440, 435.6964
1411.491, 220.0985
1412.542, 68.33630
1413.593, 304.3468
1414.644, 362.2644
1415.695, 124.5160
1416.745, 17.05127
1417.795, 179.2061
1418.845, 45.89677
1419.895, 130.8140
1420.945, 117.1299
1421.995, 354.4693
1423.044, 479.2387
1424.093, 238.6178
1425.142, 301.0741
1426.191, 55.52701
1427.240, 117.9535
1428.289, 55.46308
1429.337, 292.9234
1430.385, 671.4078
1431.433, 80.30644
1432.481, 45.58860
1433.529, 20.46007
1434.577, 187.3821
1435.624, 50.51919
1436.672, 237.3940
1437.719, 306.1077
1438.766, 49.10571
1439.812, 177.8612
1440.859, 242.3864
1441.905, 122.3996
1442.952, 339.2093
1443.998, 498.7185
1445.044, 194.3979
1446.090, 365.3004
1447.135, 228.4085
1448.181, 178.8583
1449.226, 246.0865
1450.271, 539.3351
1451.316, 352.6907
1452.361, 515.0982
1453.405, 296.5770
1454.450, 115.0808
1455.494, 24.21075
1456.538, 196.1624
1457.582, 284.7567
1458.626, 357.3734
1459.670, 438.0643
1460.713, 428.7883
1461.757, 472.8111
1462.800, 244.3271
1463.843, 389.1320
1464.886, 273.9608
1465.928, 4.814621
1466.971, 13.30263
1468.013, 243.6130
1469.055, 189.5576
1470.097, 103.5335
1471.139, 371.5642
1472.181, 337.6357
1473.222, 393.7441
1474.263, 116.8775
1475.305, 164.0397
1476.346, 1.741825
1477.386, 168.5069
1478.427, 17.20998
1479.468, 188.0889
1480.508, 87.41125
1481.548, 119.7642
1482.588, 49.15731
1483.628, 192.5572
1484.668, 89.98724
1485.707, 241.4554
1486.747, 105.9463
1487.786, 191.4717
1488.825, 232.0161
1489.864, 310.5798
1490.902, 37.20829
1491.941, 473.8766
1492.979, 340.5655
1494.017, 72.28577
1495.055, 349.8279
1496.093, 240.1184
1497.131, 108.8605
1498.168, 188.6245
1499.206, 206.4183
1500.243, 296.2416
1501.280, 207.0947
1502.317, 110.9777
1503.354, 213.3962
1504.390, 262.9442
1505.426, 136.7132
1506.463, 290.4996
1507.499, 60.30680
1508.535, 312.1118
1509.570, 32.05398
1510.606, 176.9122
1511.641, 205.9249
1512.676, 8.015078
1513.711, 223.0885
1514.746, 250.1145
1515.781, 239.2149
1516.816, 11.54963
1517.850, 205.5521
1518.884, 67.78111
1519.918, 25.49877
1520.952, 392.7787
1521.986, 369.1041
1523.019, 214.4586
1524.053, 325.8500
1525.086, 221.9934
1526.119, 92.84930
1527.152, 138.1623
1528.185, 9.050037
1529.217, 134.2420
1530.250, 195.7689
1531.282, 260.3209
1532.314, 196.8994
1533.346, 334.5023
1534.377, 107.2471
1535.409, 12.10431
1536.440, 59.99367
1537.472, 9.598949
1538.503, 404.2108
1539.534, 112.6563
1540.564, 50.17809
1541.595, 426.2625
1542.625, 238.5059
1543.656, 396.9698
1544.686, 177.0412
1545.716, 345.4050
1546.745, 2.891506
1547.775, 320.4268
1548.804, 98.02589
1549.834, 317.8250
1550.863, 552.2299
1551.892, 94.54161
1552.920, 279.8669
1553.949, 215.5797
1554.977, 14.31755
1556.006, 1.444134
1557.034, 149.5345
1558.062, 311.9526
1559.089, 136.7939
1560.117, 220.1194
1561.144, 91.62571
1562.172, 42.49900
1563.199, 100.7826
1564.226, 178.5168
1565.252, 58.21673
1566.279, 2.127834
1567.305, 273.6012
1568.332, 140.1645
1569.358, 147.0680
1570.384, 0.3754390
1571.409, 0.0000000E+00
##END=



