##NAMES=Senegalite
##RRUFFID=R050239
##IDEAL CHEMISTRY=Al_2_PO_4_(OH)_3_&#183;H_2_O
##LOCALITY=Kourondicko iron ore (magnetite) deposit, Faleme River Basin, Senegal
##OWNER=RRUFF
##SOURCE=Marcus Origlieri
##DESCRIPTION=Colorless prismatic crystals
##STATUS=The identification of this mineral has been confirmed by X-ray diffraction and chemical analysis
##URL=rruff.info/R050239
##MEASURED CHEMISTRY=Al_2.00_P_1.00_O_4_(OH)_3_Â·H_2_O
##PIN_ID=M00172
##ORIENTATION=Laser parallel to -a* (-1 0 0). Fiducial mark perpendicular to laser is parallel to b [0 1 0]
94.71400, 0.0000000E+00
95.94800, 244.4844
97.18200, 680.7715
98.41600, 860.7109
99.64900, 1708.154
100.8830, 2346.020
102.1160, 2670.490
103.3490, 2475.672
104.5820, 1630.531
105.8150, 1047.900
107.0470, 416.2344
108.2800, 482.9980
109.5120, 300.9746
110.7440, 30.80664
111.9760, 30.89258
113.2080, 110.5371
114.4400, 215.3828
115.6710, 457.1934
116.9030, 539.4961
118.1340, 943.9590
119.3650, 1570.281
120.5960, 2365.189
121.8270, 3326.451
123.0580, 4828.863
124.2880, 6303.250
125.5190, 7926.467
126.7490, 9326.422
127.9790, 11064.09
129.2090, 13019.38
130.4390, 15392.20
131.6680, 16597.44
132.8980, 16368.97
134.1270, 14473.66
135.3560, 11257.41
136.5850, 8472.133
137.8140, 6402.805
139.0430, 4735.520
140.2710, 3303.055
141.5000, 2604.311
142.7280, 1876.246
143.9560, 1429.824
145.1840, 1225.014
146.4120, 930.7871
147.6390, 559.1211
148.8670, 583.9902
150.0940, 418.3711
151.3210, 465.2441
152.5490, 545.5898
153.7750, 312.3945
155.0020, 649.6348
156.2290, 526.5176
157.4550, 1017.303
158.6810, 963.9355
159.9080, 1127.895
161.1340, 1309.619
162.3590, 1701.738
163.5850, 2268.072
164.8110, 2512.877
166.0360, 2362.328
167.2610, 1789.023
168.4860, 1741.777
169.7110, 1383.283
170.9360, 1100.738
172.1610, 967.1270
173.3850, 1057.512
174.6100, 1009.020
175.8340, 1302.570
177.0580, 1403.180
178.2820, 1165.842
179.5050, 1014.590
180.7290, 718.8652
181.9520, 793.1484
183.1760, 873.2910
184.3990, 1058.719
185.6220, 1051.914
186.8450, 1310.240
188.0670, 1320.703
189.2900, 1442.301
190.5120, 2127.041
191.7340, 2337.918
192.9560, 2195.941
194.1780, 2499.105
195.4000, 2129.416
196.6220, 2259.873
197.8430, 1901.473
199.0640, 1997.219
200.2860, 2071.107
201.5070, 2057.141
202.7270, 2069.852
203.9480, 1936.580
205.1690, 1895.062
206.3890, 1507.641
207.6090, 1165.350
208.8290, 736.1914
210.0490, 716.1562
211.2690, 480.2500
212.4890, 439.4688
213.7080, 413.8066
214.9280, 575.2656
216.1470, 707.1660
217.3660, 784.9590
218.5850, 888.2168
219.8030, 1077.699
221.0220, 1577.912
222.2400, 1772.637
223.4590, 2410.566
224.6770, 3298.373
225.8950, 3720.826
227.1120, 4371.518
228.3300, 5075.754
229.5480, 5970.654
230.7650, 6962.215
231.9820, 7919.281
233.1990, 8723.541
234.4160, 8862.469
235.6330, 8542.740
236.8490, 8377.973
238.0660, 8029.828
239.2820, 7434.189
240.4980, 7004.125
241.7140, 6308.705
242.9300, 5105.961
244.1460, 4129.414
245.3610, 2981.562
246.5770, 2421.137
247.7920, 1711.502
249.0070, 1432.389
250.2220, 1132.453
251.4370, 960.7188
252.6510, 662.2109
253.8660, 577.5625
255.0800, 304.0762
256.2940, 353.9766
257.5080, 307.6484
258.7220, 208.2363
259.9360, 256.8555
261.1490, 107.0449
262.3630, 86.50586
263.5760, 198.2227
264.7890, 61.81641
266.0020, 75.36133
267.2150, 100.2422
268.4270, 137.3457
269.6400, 54.86914
270.8520, 62.09375
272.0640, 6.765625
273.2760, 114.5430
274.4880, 267.0176
275.7000, 445.6445
276.9120, 514.4219
278.1230, 685.3359
279.3340, 675.3887
280.5450, 615.5723
281.7560, 761.8809
282.9670, 1061.312
284.1780, 1359.871
285.3880, 1419.543
286.5980, 1686.336
287.8090, 2173.287
289.0190, 2605.348
290.2290, 3430.562
291.4380, 4381.916
292.6480, 5199.363
293.8570, 6338.941
295.0670, 7315.637
296.2760, 8195.418
297.4850, 9200.281
298.6930, 10354.25
299.9020, 11396.32
301.1110, 11584.48
302.3190, 10760.72
303.5270, 9409.033
304.7350, 7967.414
305.9430, 7067.863
307.1510, 5994.375
308.3580, 5184.947
309.5660, 4845.574
310.7730, 4728.258
311.9800, 4592.990
313.1870, 4396.773
314.3940, 4313.607
315.6010, 4087.492
316.8070, 3808.430
318.0130, 3595.418
319.2200, 3209.760
320.4260, 2814.555
321.6310, 2385.697
322.8370, 2000.893
324.0430, 1505.143
325.2480, 1396.441
326.4540, 1317.777
327.6590, 970.1426
328.8640, 830.5508
330.0680, 604.0000
331.2730, 426.5039
332.4780, 103.0547
333.6820, 105.6543
334.8860, 5.298828
336.0900, 173.9863
337.2940, 54.27930
338.4980, 192.5176
339.7010, 247.2422
340.9050, 191.9531
342.1080, 64.84961
343.3110, 91.30469
344.5140, 257.4453
345.7170, 59.39844
346.9200, 36.28320
348.1220, 114.7969
349.3240, 188.8672
350.5270, 321.9473
351.7290, 361.0664
352.9310, 38.23438
354.1320, 88.61719
355.3340, 139.4883
356.5350, 88.40039
357.7370, 69.66992
358.9380, 31.73047
360.1390, 57.22656
361.3400, 62.21094
362.5400, 148.1523
363.7410, 122.4961
364.9410, 129.6465
366.1410, 87.90039
367.3410, 75.78711
368.5410, 103.5645
369.7410, 38.26172
370.9400, 169.0527
372.1400, 187.4102
373.3390, 170.8086
374.5380, 78.77930
375.7370, 235.4043
376.9360, 78.06445
378.1350, 148.7539
379.3330, 7.369141
380.5310, 20.95312
381.7300, 112.5605
382.9280, 227.1914
384.1260, 285.8496
385.3230, 407.5469
386.5210, 96.34766
387.7180, 201.2324
388.9160, 35.79688
390.1130, 276.1992
391.3100, 164.2715
392.5060, 80.41406
393.7030, 101.6152
394.9000, 69.87500
396.0960, 37.81445
397.2920, 68.50391
398.4880, 366.8672
399.6840, 180.2852
400.8800, 96.75977
402.0750, 462.2832
403.2710, 551.8555
404.4660, 765.4863
405.6610, 1055.166
406.8560, 1323.891
408.0510, 1609.975
409.2450, 1974.051
410.4400, 2219.914
411.6340, 2601.211
412.8280, 2924.160
414.0220, 3223.840
415.2160, 3629.875
416.4100, 3576.732
417.6030, 3486.848
418.7970, 3552.004
419.9900, 3872.199
421.1830, 3341.432
422.3760, 3374.701
423.5690, 2958.008
424.7610, 2802.352
425.9540, 2850.494
427.1460, 2952.600
428.3380, 2903.051
429.5300, 3282.443
430.7220, 3616.578
431.9140, 4215.986
433.1050, 4531.043
434.2970, 5264.049
435.4880, 5936.691
436.6790, 6468.748
437.8700, 7608.277
439.0610, 8299.012
440.2510, 8900.016
441.4420, 9239.459
442.6320, 9532.453
443.8220, 10004.90
445.0120, 9630.771
446.2020, 9513.695
447.3910, 9229.301
448.5810, 8558.242
449.7700, 8095.811
450.9600, 7688.852
452.1490, 7180.863
453.3370, 7077.900
454.5260, 6853.961
455.7150, 6833.043
456.9030, 6874.148
458.0910, 6787.297
459.2800, 6747.428
460.4670, 6798.602
461.6550, 6874.797
462.8430, 6931.016
464.0300, 7041.256
465.2180, 7600.516
466.4050, 8175.797
467.5920, 9042.100
468.7790, 9978.426
469.9650, 11109.77
471.1520, 12172.13
472.3380, 13398.52
473.5250, 14595.93
474.7110, 15683.36
475.8970, 16630.80
477.0820, 17578.27
478.2680, 17908.66
479.4540, 18212.16
480.6390, 18138.87
481.8240, 16884.85
483.0090, 15581.42
484.1940, 13763.29
485.3780, 12047.92
486.5630, 10117.68
487.7470, 8727.068
488.9320, 7261.732
490.1160, 6148.895
491.3000, 5476.240
492.4830, 4880.801
493.6670, 4503.406
494.8500, 4457.822
496.0340, 4003.762
497.2170, 3595.699
498.4000, 3458.570
499.5820, 2850.625
500.7650, 2745.027
501.9480, 2546.266
503.1300, 2199.004
504.3120, 1995.840
505.4940, 1739.117
506.6760, 1648.984
507.8580, 1688.762
509.0390, 1632.051
510.2210, 1692.145
511.4020, 1861.594
512.5830, 1750.672
513.7640, 1598.688
514.9450, 1635.719
516.1250, 1331.602
517.3060, 1269.848
518.4860, 1254.547
519.6660, 1119.840
520.8460, 1259.680
522.0260, 1251.594
523.2060, 1008.141
524.3850, 759.1094
525.5650, 766.1836
526.7440, 794.3086
527.9230, 1010.469
529.1020, 681.3008
530.2810, 993.5117
531.4590, 954.2227
532.6380, 880.4805
533.8160, 1011.766
534.9940, 918.2383
536.1720, 1080.152
537.3500, 906.3594
538.5270, 1022.875
539.7050, 1066.008
540.8820, 1096.426
542.0590, 1167.453
543.2360, 1209.996
544.4130, 1235.156
545.5900, 1245.652
546.7660, 1238.172
547.9430, 1090.715
549.1190, 1208.277
550.2950, 1421.871
551.4710, 1177.480
552.6470, 1143.121
553.8220, 929.7891
554.9980, 1163.473
556.1730, 823.1758
557.3480, 996.8984
558.5230, 799.6367
559.6980, 719.3945
560.8730, 752.1641
562.0470, 600.9531
563.2220, 459.7539
564.3960, 223.5664
565.5700, 381.3945
566.7440, 54.24219
567.9170, 12.09375
569.0910, 368.9414
570.2640, 14.19922
571.4380, 167.3594
572.6110, 6.398438
573.7840, 181.8516
574.9570, 129.2031
576.1290, 158.3750
577.3020, 112.0312
578.4740, 68.50391
579.6460, 157.9805
580.8180, 91.47656
581.9900, 30.02344
583.1620, 50.54297
584.3330, 19.09766
585.5040, 133.3242
586.6760, 116.7539
587.8470, 57.19531
589.0180, 164.6406
590.1880, 10.09375
591.3590, 112.1172
592.5290, 265.9922
593.7000, 260.4648
594.8700, 402.9453
596.0400, 544.4336
597.2090, 422.9297
598.3790, 647.4336
599.5490, 557.9492
600.7180, 389.4648
601.8870, 448.9883
603.0560, 660.5156
604.2250, 991.0547
605.3940, 818.5977
606.5620, 920.1445
607.7300, 1052.703
608.8990, 978.2617
610.0670, 1087.824
611.2350, 1225.395
612.4020, 1181.965
613.5700, 1624.543
614.7370, 1608.262
615.9050, 1796.848
617.0720, 2119.441
618.2390, 2206.027
619.4060, 2547.633
620.5720, 2510.242
621.7390, 2663.891
622.9050, 3203.566
624.0710, 3388.535
625.2370, 3770.180
626.4030, 3869.605
627.5690, 3914.344
628.7340, 4447.281
629.9000, 4268.105
631.0650, 4524.934
632.2300, 4673.027
633.3950, 4509.184
634.5600, 4698.527
635.7240, 4541.336
636.8890, 4187.785
638.0530, 3918.902
639.2170, 3586.949
640.3810, 3087.543
641.5450, 2660.691
642.7080, 2343.852
643.8720, 2219.598
645.0350, 1898.234
646.1980, 1880.809
647.3610, 1608.660
648.5240, 1244.207
649.6870, 1250.164
650.8490, 1237.109
652.0120, 1292.742
653.1740, 1119.789
654.3360, 958.8750
655.4980, 837.2109
656.6600, 611.1445
657.8210, 605.7383
658.9830, 707.1836
660.1440, 643.4336
661.3050, 820.7930
662.4660, 649.9258
663.6270, 682.6484
664.7870, 708.3164
665.9480, 812.6758
667.1080, 827.1797
668.2680, 672.8789
669.4280, 658.0820
670.5880, 776.9492
671.7480, 932.6523
672.9070, 1013.828
674.0670, 1061.988
675.2260, 1030.164
676.3850, 1280.672
677.5440, 1172.328
678.7030, 1071.641
679.8610, 1063.082
681.0200, 874.3711
682.1780, 808.5195
683.3360, 705.5859
684.4940, 519.7031
685.6520, 618.7969
686.8090, 825.7070
687.9670, 539.7539
689.1240, 602.6406
690.2810, 789.6641
691.4380, 691.4492
692.5950, 535.4961
693.7520, 765.5195
694.9080, 888.5195
696.0650, 743.9570
697.2210, 902.2695
698.3770, 688.8359
699.5330, 840.7383
700.6880, 1046.621
701.8440, 779.6289
702.9990, 1002.457
704.1550, 1133.855
705.3100, 924.8477
706.4650, 1260.832
707.6190, 1129.863
708.7740, 1099.562
709.9290, 1253.641
711.0830, 1082.664
712.2370, 1201.438
713.3910, 1417.555
714.5450, 1426.730
715.6980, 1306.648
716.8520, 1675.781
718.0050, 1373.438
719.1580, 1217.895
720.3110, 1246.082
721.4640, 1116.832
722.6170, 1213.457
723.7700, 1108.781
724.9220, 1004.113
726.0740, 1035.387
727.2260, 714.9727
728.3780, 942.2266
729.5300, 934.8477
730.6810, 662.9961
731.8330, 867.2656
732.9840, 1106.414
734.1350, 761.5352
735.2860, 644.6289
736.4370, 502.6953
737.5880, 397.9453
738.7380, 497.7422
739.8880, 398.7266
741.0390, 666.6797
742.1890, 850.6055
743.3380, 632.5000
744.4880, 714.3711
745.6380, 545.2070
746.7870, 553.0195
747.9360, 588.7969
749.0850, 446.5469
750.2340, 421.2695
751.3830, 433.9609
752.5310, 226.6211
753.6800, 439.2461
754.8280, 653.8477
755.9760, 502.4141
757.1240, 293.9492
758.2720, 602.4570
759.4190, 259.9336
760.5670, 32.37500
761.7140, 200.7656
762.8610, 148.1133
764.0080, 98.42188
765.1550, 35.68359
766.3020, 242.8906
767.4480, 352.0586
768.5950, 308.1836
769.7410, 217.3008
770.8870, 216.3672
772.0330, 0.3984380
773.1780, 164.6484
774.3240, 126.1484
775.4690, 89.10547
776.6140, 39.48438
777.7590, 318.9570
778.9040, 394.3242
780.0490, 537.5703
781.1940, 115.7812
782.3380, 121.9453
783.4820, 68.05469
784.6260, 109.1094
785.7700, 69.10938
786.9140, 175.0508
788.0580, 53.04297
789.2010, 16.25000
790.3450, 137.8125
791.4880, 201.4141
792.6310, 37.48047
793.7730, 145.9688
794.9160, 73.42188
796.0590, 202.2383
797.2010, 43.74219
798.3430, 165.6133
799.4850, 17.18359
800.6270, 6.304688
801.7690, 56.94922
802.9100, 4.445313
804.0520, 38.10156
805.1930, 135.5781
806.3340, 353.0078
807.4750, 304.5742
808.6160, 88.74609
809.7560, 344.0391
810.8970, 305.2930
812.0370, 431.2500
813.1770, 155.1680
814.3170, 141.2891
815.4570, 282.4102
816.5960, 165.4414
817.7360, 279.4180
818.8750, 553.3516
820.0140, 187.2461
821.1530, 396.9492
822.2920, 428.7578
823.4310, 60.52734
824.5690, 453.2305
825.7070, 119.3672
826.8460, 430.9727
827.9840, 131.8633
829.1220, 370.6172
830.2590, 477.0898
831.3970, 350.5352
832.5340, 251.9297
833.6710, 786.2773
834.8080, 378.5820
835.9450, 546.8477
837.0820, 582.0742
838.2190, 284.2578
839.3550, 444.4023
840.4910, 230.5039
841.6270, 274.5664
842.7630, 470.5820
843.8990, 570.5625
845.0350, 388.5195
846.1700, 259.4297
847.3060, 420.3125
848.4410, 309.2070
849.5760, 523.0742
850.7100, 441.9570
851.8450, 246.8398
852.9800, 409.6836
854.1140, 550.5273
855.2480, 632.3594
856.3820, 614.1523
857.5160, 557.9062
858.6500, 601.5078
859.7830, 682.3711
860.9170, 588.0703
862.0500, 549.7266
863.1830, 493.3516
864.3160, 595.9414
865.4480, 318.4961
866.5810, 481.0195
867.7130, 31.50781
868.8460, 728.9297
869.9780, 525.3203
871.1100, 337.6719
872.2410, 566.9844
873.3730, 304.2656
874.5050, 470.5078
875.6360, 549.7109
876.7670, 666.8789
877.8980, 679.1758
879.0290, 641.1172
880.1590, 694.1797
881.2900, 419.2070
882.4200, 484.2031
883.5500, 638.1602
884.6800, 749.0820
885.8100, 947.9766
886.9400, 727.8281
888.0690, 690.6523
889.1990, 757.3047
890.3280, 931.0547
891.4570, 660.7734
892.5860, 737.4609
893.7140, 450.1094
894.8430, 508.7305
895.9710, 807.2969
897.1000, 569.8438
898.2280, 708.0703
899.3560, 1030.641
900.4830, 505.3984
901.6110, 765.8398
902.7380, 737.1133
903.8660, 292.4688
904.9930, 483.8008
906.1200, 469.8633
907.2460, 765.8906
908.3730, 711.7656
909.5000, 587.2383
910.6260, 685.0508
911.7520, 324.1797
912.8780, 493.3828
914.0040, 391.0039
915.1290, 251.0664
916.2550, 388.1055
917.3800, 358.5352
918.5050, 600.0391
919.6300, 459.5742
920.7550, 359.8008
921.8800, 322.3047
923.0040, 221.3711
924.1290, 216.4141
925.2530, 92.74219
926.3770, 8.750000
927.5010, 77.48828
928.6250, 338.1172
929.7480, 468.1602
930.8720, 262.5273
931.9950, 53.98828
933.1180, 66.36719
934.2410, 55.89844
935.3640, 44.23828
936.4860, 84.79688
937.6090, 11.14062
938.7310, 146.1914
939.8530, 172.3477
940.9750, 214.2734
942.0970, 283.2969
943.2180, 91.04297
944.3400, 247.2227
945.4610, 131.5742
946.5820, 120.0898
947.7030, 104.8281
948.8240, 185.0469
949.9450, 111.2539
951.0650, 266.7617
952.1860, 91.64844
953.3060, 188.6289
954.4260, 175.7227
955.5460, 22.12500
956.6650, 99.93750
957.7850, 40.99219
958.9040, 73.22656
960.0230, 108.7109
961.1420, 153.4688
962.2610, 171.4062
963.3800, 107.2227
964.4990, 51.64062
965.6170, 3.511719
966.7350, 164.3750
967.8530, 54.77344
968.9710, 53.62109
970.0890, 270.4805
971.2070, 18.32422
972.3240, 127.1680
973.4410, 83.85156
974.5580, 320.6875
975.6750, 262.9258
976.7920, 230.5273
977.9090, 51.34375
979.0250, 231.1758
980.1410, 43.00781
981.2580, 276.5352
982.3740, 466.3750
983.4890, 548.1992
984.6050, 427.0352
985.7200, 237.8711
986.8360, 367.3672
987.9510, 329.2461
989.0660, 448.1172
990.1810, 499.9844
991.2950, 539.8516
992.4100, 505.7148
993.5240, 1027.570
994.6390, 532.4258
995.7530, 774.2773
996.8660, 916.1367
997.9800, 585.9961
999.0940, 808.8555
1000.207, 1003.715
1001.320, 1250.566
1002.433, 1398.320
1003.546, 1198.176
1004.659, 1481.031
1005.772, 1363.887
1006.884, 1646.742
1007.996, 1551.594
1009.108, 1717.449
1010.220, 1579.324
1011.332, 1850.203
1012.444, 1726.078
1013.555, 2162.961
1014.666, 2079.836
1015.777, 2230.719
1016.888, 2099.598
1017.999, 2433.484
1019.110, 2837.375
1020.220, 3031.258
1021.331, 3055.156
1022.441, 3290.047
1023.551, 3681.949
1024.661, 4465.852
1025.770, 4660.758
1026.880, 5364.668
1027.989, 5628.582
1029.098, 6344.504
1030.207, 6629.422
1031.316, 7221.367
1032.425, 7598.312
1033.533, 7586.273
1034.642, 7907.266
1035.750, 7681.281
1036.858, 7576.301
1037.966, 6694.328
1039.073, 6102.359
1040.181, 5476.398
1041.288, 4970.445
1042.396, 4531.523
1043.503, 4110.871
1044.610, 3764.027
1045.716, 3480.043
1046.823, 3239.293
1047.929, 3059.656
1049.036, 2995.027
1050.142, 2825.414
1051.248, 3302.809
1052.353, 3507.223
1053.459, 3479.656
1054.564, 4110.102
1055.670, 4611.574
1056.775, 5182.059
1057.880, 5817.707
1058.985, 6495.797
1060.089, 7264.438
1061.194, 8132.582
1062.298, 9259.203
1063.402, 9867.895
1064.506, 10683.61
1065.610, 10706.57
1066.713, 10217.84
1067.817, 9998.223
1068.920, 8801.500
1070.023, 8057.473
1071.126, 6837.621
1072.229, 5794.676
1073.332, 4911.762
1074.435, 3915.867
1075.537, 3373.984
1076.639, 2782.117
1077.741, 2265.270
1078.843, 2077.438
1079.945, 1659.875
1081.046, 1521.336
1082.148, 1256.555
1083.249, 1034.461
1084.350, 856.6992
1085.451, 776.9727
1086.551, 661.2734
1087.652, 573.8125
1088.752, 570.3945
1089.853, 403.4023
1090.953, 552.3281
1092.053, 416.7227
1093.152, 294.9570
1094.252, 10.60547
1095.351, 483.7500
1096.451, 156.9727
1097.550, 183.3555
1098.649, 380.4062
1099.748, 178.9258
1100.846, 52.46875
1101.945, 399.4570
1103.043, 230.0352
1104.141, 18.63281
1105.239, 330.7109
1106.337, 520.3438
1107.434, 182.9961
1108.532, 432.6641
1109.629, 351.3516
1110.726, 174.9883
1111.823, 476.7188
1112.920, 381.5664
1114.017, 370.3242
1115.113, 303.4414
1116.210, 152.2344
1117.306, 168.3750
1118.402, 478.4414
1119.498, 356.2891
1120.593, 229.1562
1121.689, 388.0391
1122.784, 266.9453
1123.879, 343.8633
1124.974, 571.8047
1126.069, 457.7578
1127.164, 539.3711
1128.259, 172.9570
1129.353, 479.8438
1130.447, 471.8711
1131.541, 362.9102
1132.635, 658.9727
1133.729, 507.0469
1134.822, 706.1562
1135.916, 867.9219
1137.009, 982.0703
1138.102, 1188.230
1139.195, 1259.414
1140.288, 1374.609
1141.380, 1694.570
1142.473, 2019.805
1143.565, 1999.074
1144.657, 2862.363
1145.749, 2568.668
1146.841, 3197.992
1147.932, 3454.336
1149.024, 3769.695
1150.115, 4393.070
1151.206, 5019.469
1152.297, 5682.883
1153.388, 6443.312
1154.479, 5939.762
1155.569, 5875.234
1156.659, 5261.719
1157.750, 4552.227
1158.839, 3949.754
1159.929, 3404.320
1161.019, 2742.906
1162.108, 2048.512
1163.198, 1790.137
1164.287, 1295.773
1165.376, 1162.289
1166.465, 1158.965
1167.553, 1373.660
1168.642, 738.3789
1169.730, 719.1094
1170.818, 944.8555
1171.906, 931.6250
1172.994, 878.4141
1174.082, 764.2188
1175.170, 858.0430
1176.257, 1118.879
1177.344, 971.7383
1178.431, 1390.613
1179.518, 1231.504
1180.605, 1180.414
1181.691, 1208.340
1182.778, 1197.285
1183.864, 1158.242
1184.950, 895.2188
1186.036, 944.2109
1187.122, 675.2227
1188.207, 419.2500
1189.292, 634.2969
1190.378, 823.1797
1191.463, 149.2656
1192.548, 666.3672
1193.632, 509.4883
1194.717, 46.62500
1195.801, 414.7852
1196.886, 260.9727
1197.970, 487.1953
1199.054, 638.4531
1200.137, 320.7344
1201.221, 501.0352
1202.305, 330.3516
1203.388, 612.6836
1204.471, 318.0312
1205.554, 292.3945
1206.637, 162.7656
1207.719, 177.1523
1208.802, 341.5586
1209.884, 181.9766
1210.966, 313.4375
1212.048, 203.9414
1213.130, 38.54688
1214.212, 21.00000
1215.293, 44.54297
1216.374, 170.1016
1217.456, 128.6758
1218.536, 48.26562
1219.617, 325.8711
1220.698, 114.5078
1221.778, 226.0781
1222.859, 48.32422
1223.939, 140.2930
1225.019, 46.19531
1226.099, 80.46875
1227.178, 59.82422
1228.258, 7.132813
1229.337, 27.56641
1230.417, 19.28125
1231.496, 68.98828
1232.574, 51.72656
1233.653, 167.4570
1234.732, 26.80078
1235.810, 393.9492
1236.888, 109.7148
1237.966, 139.4844
1239.044, 153.2656
1240.122, 95.95703
1241.199, 119.7852
1242.277, 98.46094
1243.354, 369.2266
1244.431, 1.925781
1245.508, 212.6367
1246.585, 20.64453
1247.661, 200.9141
1248.738, 25.76172
1249.814, 113.4492
1250.890, 245.1523
1251.966, 242.7070
1253.042, 218.5859
1254.117, 175.3203
1255.193, 47.04297
1256.268, 49.77734
1257.343, 38.47656
1258.418, 8.730469
1259.493, 62.02344
1260.567, 102.7930
1261.642, 154.5703
1262.716, 187.3555
1263.790, 53.15625
1264.864, 2.035156
1265.938, 310.7852
1267.011, 24.58984
1268.085, 362.3984
1269.158, 26.22266
1270.231, 84.94531
1271.304, 485.8789
1272.377, 56.49609
1273.450, 368.3359
1274.522, 357.1914
1275.594, 267.0547
1276.666, 182.9258
1277.738, 496.8086
1278.810, 275.6914
1279.882, 82.58984
1280.953, 477.4961
1282.025, 252.4141
1283.096, 189.3359
1284.167, 335.2734
1285.238, 426.2148
1286.308, 468.1719
1287.379, 522.1328
1288.449, 347.9180
1289.519, 387.8984
1290.589, 218.8867
1291.659, 287.8828
1292.729, 79.88672
1293.798, 78.10156
1294.868, 104.2422
1295.937, 118.2539
1297.006, 240.2734
1298.075, 52.30078
1299.143, 241.3359
1300.212, 266.3828
1301.280, 476.4375
1302.348, 277.5039
1303.416, 221.5742
1304.484, 116.6562
1305.552, 390.7461
1306.620, 289.8516
1307.687, 568.9648
1308.754, 54.08594
1309.821, 418.2227
1310.888, 328.3711
1311.955, 194.5273
1313.021, 375.6953
1314.088, 288.8750
1315.154, 432.0664
1316.220, 306.2773
1317.286, 64.48828
1318.352, 3.714844
1319.417, 337.9023
1320.483, 519.1094
1321.548, 526.3203
1322.613, 337.5469
1323.678, 485.7852
1324.743, 324.0352
1325.807, 94.30078
1326.872, 261.5586
1327.936, 411.7578
1329.000, 473.9688
1330.064, 585.1875
1331.128, 327.4141
1332.191, 162.6484
1333.255, 319.8945
1334.318, 134.1562
1335.381, 533.4219
1336.444, 461.6992
1337.507, 297.9883
1338.569, 209.2930
1339.632, 390.6016
1340.694, 525.9180
1341.756, 269.8516
1342.818, 490.2148
1343.880, 592.5625
1344.941, 110.9297
1346.003, 565.3086
1347.064, 281.6992
1348.125, 410.1094
1349.186, 370.9688
1350.247, 400.4180
1351.308, 399.7305
1352.368, 346.2227
1353.428, 355.6484
1354.489, 582.7188
1355.549, 317.3750
1356.608, 172.4219
1357.668, 547.0352
1358.727, 283.1367
1359.787, 365.4531
1360.846, 384.0938
1361.905, 422.7539
1362.964, 84.47656
1364.022, 513.0000
1365.081, 321.8281
1366.139, 257.5273
1367.197, 570.2227
1368.255, 291.6719
1369.313, 394.9688
1370.371, 231.5234
1371.428, 245.0781
1372.486, 394.6445
1373.543, 385.2227
1374.600, 450.8047
1375.657, 580.0117
1376.713, 508.9258
1377.770, 542.8203
1378.826, 443.0625
1379.882, 464.6680
1380.938, 462.6406
1381.994, 390.4297
1383.050, 325.9727
1384.106, 263.5195
1385.161, 159.0820
1386.216, 355.6484
1387.271, 186.2188
1388.326, 457.8047
1389.381, 101.3906
1390.435, 25.95312
1391.490, 307.4883
1392.544, 416.0352
1393.598, 114.3125
1394.652, 353.7969
1395.705, 65.28516
1396.759, 248.7812
1397.812, 155.2773
1398.866, 72.22266
1399.919, 75.28125
1400.972, 273.7773
1402.024, 468.2891
1403.077, 143.8047
1404.129, 267.3125
1405.181, 217.6289
1406.233, 455.1172
1407.285, 356.2891
1408.337, 63.10156
1409.389, 247.5898
1410.440, 285.0820
1411.491, 248.5781
1412.542, 23.92188
1413.593, 278.5703
1414.644, 87.93750
1415.695, 245.5508
1416.745, 73.03906
1417.795, 259.5508
1418.845, 316.0625
1419.895, 130.5586
1420.945, 9.847656
1421.995, 296.7695
1423.044, 250.4141
1424.093, 221.1016
1425.142, 205.7852
1426.191, 260.5078
1427.240, 134.2266
1428.289, 216.9531
1429.337, 294.7344
1430.385, 232.6484
1431.433, 135.8086
1432.481, 246.9805
1433.529, 288.1914
1434.577, 335.4570
1435.624, 136.7539
1436.672, 369.1211
1437.719, 217.5664
1438.766, 299.0273
1439.812, 375.5117
1440.859, 121.0273
1441.905, 195.5742
1442.952, 444.2852
1443.998, 156.0430
1445.044, 296.4492
1446.090, 284.0547
1447.135, 305.6953
1448.181, 343.9023
1449.226, 311.1562
1450.271, 353.9609
1451.316, 426.8320
1452.361, 443.4648
1453.405, 388.1523
1454.450, 177.6406
1455.494, 214.1562
1456.538, 169.4492
1457.582, 61.00781
1458.626, 608.6016
1459.670, 300.2305
1460.713, 250.8906
1461.757, 346.5703
1462.800, 122.2539
1463.843, 247.9375
1464.886, 94.60547
1465.928, 280.2539
1466.971, 3.125000
1468.013, 277.6914
1469.055, 194.7578
1470.097, 450.8125
1471.139, 305.8398
1472.181, 167.5273
1473.222, 128.7930
1474.263, 279.3320
1475.305, 380.0742
1476.346, 61.04688
1477.386, 233.3125
1478.427, 72.93359
1479.468, 4.402344
1480.508, 349.6328
1481.548, 120.2031
1482.588, 704.7344
1483.628, 39.76562
1484.668, 128.5586
1485.707, 206.5742
1486.747, 336.4688
1487.786, 1.468750
1488.825, 250.5117
1489.864, 0.0000000E+00
##END=



