##NAMES=Serandite
##RRUFFID=R050261
##IDEAL CHEMISTRY=NaMn^2+^_2_Si_3_O_8_(OH)
##LOCALITY=Mont Saint-Hilaire, Rouville County, Quebec, Canada
##OWNER=RRUFF
##SOURCE=Marcus Origlieri
##DESCRIPTION=Orange tabular single crystal associated with aegirine and microcline
##STATUS=The identification of this mineral has been confirmed by X-ray diffraction and chemical analysis
##URL=rruff.info/R050261
##MEASURED CHEMISTRY=Na_0.96_(Mn_0.92_Ca_0.06_Fe_0.01_)_2_Si_3.03_O_8_(OH)
##PIN_ID=L00791
##ORIENTATION=Laser parallel to -c* (0 0 -1). Fiducial mark perpendicular to laser is parallel to -a [-1 0 0]
93.48000, 0.0000000E+00
94.71400, 4.793579
95.94800, 78.87585
97.18200, 10.52515
98.41600, 63.56433
99.64900, 110.9734
100.8830, 176.5787
102.1160, 201.0687
103.3490, 354.0221
104.5820, 588.6713
105.8150, 906.5870
107.0470, 1351.698
108.2800, 1879.312
109.5120, 2416.168
110.7440, 2976.706
111.9760, 2893.073
113.2080, 3047.374
114.4400, 3666.694
115.6710, 4545.090
116.9030, 5625.600
118.1340, 6921.246
119.3650, 8644.081
120.5960, 9828.840
121.8270, 9104.579
123.0580, 6953.653
124.2880, 4527.590
125.5190, 2602.864
126.7490, 1512.451
127.9790, 1009.329
129.2090, 713.4756
130.4390, 645.8879
131.6680, 673.5791
132.8980, 656.5483
134.1270, 758.7919
135.3560, 933.2938
136.5850, 962.0327
137.8140, 963.9869
139.0430, 916.1384
140.2710, 689.4703
141.5000, 494.9686
142.7280, 310.6207
143.9560, 152.4156
145.1840, 2.341675
146.4120, 6.388794
147.6390, 21.44958
148.8670, 89.18079
150.0940, 133.8119
151.3210, 87.34875
152.5490, 14.20276
153.7750, 58.83716
155.0020, 80.54956
156.2290, 185.3351
157.4550, 245.1899
158.6810, 286.1099
159.9080, 374.0911
161.1340, 590.1302
162.3590, 835.2239
163.5850, 1053.369
164.8110, 1404.574
166.0360, 1622.960
167.2610, 2053.772
168.4860, 2376.802
169.7110, 2808.000
170.9360, 3120.410
172.1610, 3306.008
173.3850, 3127.766
174.6100, 2640.591
175.8340, 2155.463
177.0580, 1672.316
178.2820, 1449.155
179.5050, 1207.980
180.7290, 1147.793
181.9520, 1091.591
183.1760, 862.3728
184.3990, 720.1409
185.6220, 534.8965
186.8450, 510.6422
188.0670, 360.3787
189.2900, 357.1077
190.5120, 307.8300
191.7340, 349.5518
192.9560, 320.2742
194.1780, 361.9910
195.4000, 396.6772
196.6220, 417.2964
197.8430, 466.9381
199.0640, 520.6007
200.2860, 573.8461
201.5070, 604.9240
202.7270, 646.5835
203.9480, 643.2421
205.1690, 551.8994
206.3890, 364.5554
207.6090, 287.2100
208.8290, 401.8627
210.0490, 445.5137
211.2690, 555.1626
212.4890, 547.8091
213.7080, 588.4531
214.9280, 600.0947
216.1470, 703.7330
217.3660, 653.3687
218.5850, 669.0010
219.8030, 647.6302
221.0220, 793.2559
222.2400, 859.8777
223.4590, 957.4961
224.6770, 1097.110
225.8950, 1260.721
227.1120, 1422.327
228.3300, 1655.929
229.5480, 1833.527
230.7650, 2066.120
231.9820, 2259.709
233.1990, 2531.292
234.4160, 2725.871
235.6330, 2940.381
236.8490, 3019.909
238.0660, 3011.678
239.2820, 2967.665
240.4980, 2714.877
241.7140, 2560.479
242.9300, 2234.183
244.1460, 2055.575
245.3610, 1870.071
246.5770, 1748.089
247.7920, 1642.527
249.0070, 1550.814
250.2220, 1575.114
251.4370, 1617.879
252.6510, 1726.647
253.8660, 1893.725
255.0800, 2057.847
256.2940, 2330.082
257.5080, 2717.408
258.7220, 2963.757
259.9360, 3307.129
261.1490, 3266.874
262.3630, 3330.937
263.5760, 3015.373
264.7890, 2791.828
266.0020, 2491.301
267.2150, 2220.777
268.4270, 1989.063
269.6400, 1772.302
270.8520, 1626.384
272.0640, 1602.861
273.2760, 1412.177
274.4880, 1370.515
275.7000, 1309.874
276.9120, 1218.253
278.1230, 1326.650
279.3340, 1343.063
280.5450, 1358.493
281.7560, 1411.937
282.9670, 1465.734
284.1780, 1577.864
285.3880, 1614.345
286.5980, 1757.836
287.8090, 1846.337
289.0190, 1872.302
290.2290, 1822.857
291.4380, 1824.374
292.6480, 1743.945
293.8570, 1649.075
295.0670, 1501.531
296.2760, 1481.280
297.4850, 1428.380
298.6930, 1412.946
299.9020, 1381.114
301.1110, 1292.706
302.3190, 1156.756
303.5270, 1081.364
304.7350, 989.9585
305.9430, 941.5327
307.1510, 796.1086
308.3580, 720.6858
309.5660, 622.2639
310.7730, 607.8424
311.9800, 559.4209
313.1870, 482.9973
314.3940, 502.5707
315.6010, 445.1399
316.8070, 434.7043
318.0130, 395.2632
319.2200, 457.8157
320.4260, 461.3612
321.6310, 526.9000
322.8370, 502.4319
324.0430, 568.9565
325.2480, 653.4749
326.4540, 694.9861
327.6590, 764.4906
328.8640, 792.9883
330.0680, 768.4794
331.2730, 774.9639
332.4780, 746.4417
333.6820, 686.9128
334.8860, 618.3772
336.0900, 534.8353
337.2940, 401.2866
338.4980, 333.7312
339.7010, 269.1692
340.9050, 187.6006
342.1080, 158.0256
343.3110, 127.4443
344.5140, 100.8563
345.7170, 62.26184
346.9200, 72.66077
348.1220, 82.05298
349.3240, 52.43848
350.5270, 41.81738
351.7290, 82.18958
352.9310, 42.55518
354.1320, 49.91406
355.3340, 108.2664
356.5350, 88.61194
357.7370, 99.95093
358.9380, 124.2833
360.1390, 161.6091
361.3400, 180.9282
362.5400, 215.1726
363.7410, 240.5466
364.9410, 267.8463
366.1410, 274.4083
367.3410, 276.4259
368.5410, 260.7061
369.7410, 217.9799
370.9400, 197.2474
372.1400, 149.5088
373.3390, 82.76379
374.5380, 62.01257
375.7370, 6.255615
376.9360, 22.48730
378.1350, 6.288330
379.3330, 47.07861
380.5310, 56.89905
381.7300, 90.75781
382.9280, 114.6941
384.1260, 66.74036
385.3230, 128.8361
386.5210, 48.01184
387.7180, 101.2256
388.9160, 55.50269
390.1130, 109.8234
391.3100, 83.21655
392.5060, 95.66882
393.7030, 47.18689
394.9000, 85.74536
396.0960, 53.36475
397.2920, 10.02808
398.4880, 10.71265
399.6840, 28.41858
400.8800, 38.84497
402.0750, 52.10510
403.2710, 95.36169
404.4660, 157.6152
405.6610, 166.8652
406.8560, 207.1118
408.0510, 264.3549
409.2450, 366.5942
410.4400, 379.8300
411.6340, 496.0620
412.8280, 529.2915
414.0220, 612.5181
415.2160, 705.7424
416.4100, 709.9639
417.6030, 662.1829
418.7970, 680.3989
419.9900, 585.6119
421.1830, 559.8223
422.3760, 421.0297
423.5690, 389.2341
424.7610, 296.4354
425.9540, 233.6337
427.1460, 198.8291
428.3380, 116.0212
429.5300, 132.2104
430.7220, 132.3964
431.9140, 1.578979
433.1050, 14.75195
434.2970, 73.92053
435.4880, 13.08643
436.6790, 7.248047
437.8700, 61.59351
439.0610, 28.53821
440.2510, 6.307617
441.4420, 17.84863
442.6320, 19.99841
443.8220, 12.13501
445.0120, 18.73511
446.2020, 8.376343
447.3910, 11.48364
448.5810, 45.58728
449.7700, 67.91492
450.9600, 94.78540
452.1490, 115.8800
453.3370, 123.9716
454.5260, 128.0601
455.7150, 147.1455
456.9030, 187.5131
458.0910, 236.4276
459.2800, 302.3843
460.4670, 366.4581
461.6550, 460.5291
462.8430, 525.5974
464.0300, 522.6631
465.2180, 581.7260
466.4050, 601.7861
467.5920, 610.8438
468.7790, 612.8993
469.9650, 664.1028
471.1520, 680.4441
472.3380, 710.5861
473.5250, 749.0957
474.7110, 787.1390
475.8970, 823.1802
477.0820, 893.2192
478.2680, 1028.256
479.4540, 1093.291
480.6390, 1099.323
481.8240, 1236.354
483.0090, 1278.383
484.1940, 1420.410
485.3780, 1487.435
486.5630, 1640.458
487.7470, 1756.479
488.9320, 1902.499
490.1160, 2129.517
491.3000, 2376.533
492.4830, 2650.548
493.6670, 2775.561
494.8500, 2960.574
496.0340, 2963.593
497.2170, 2947.611
498.4000, 2826.627
499.5820, 2629.643
500.7650, 2454.659
501.9480, 2297.682
503.1300, 2139.706
504.3120, 1994.729
505.4940, 1929.766
506.6760, 1795.803
507.8580, 1647.845
509.0390, 1555.893
510.2210, 1405.943
511.4020, 1283.136
512.5830, 1241.070
513.7640, 1047.149
514.9450, 927.2427
516.1250, 859.3481
517.3060, 757.4705
518.4860, 612.6978
519.6660, 521.6204
520.8460, 452.0828
522.0260, 417.0015
523.2060, 341.3059
524.3850, 330.4882
525.5650, 251.1782
526.7440, 199.8997
527.9230, 189.7321
529.1020, 145.6493
530.2810, 135.2445
531.4590, 103.7469
532.6380, 93.85339
533.8160, 114.6593
534.9940, 152.7017
536.1720, 143.8115
537.3500, 151.5386
538.5270, 206.3254
539.7050, 236.8711
540.8820, 288.3988
542.0590, 315.9386
543.2360, 357.2605
544.4130, 371.6759
545.5900, 394.1187
546.7660, 416.5671
547.9430, 429.1853
549.1190, 435.0734
550.2950, 448.9664
551.4710, 432.4474
552.6470, 421.9343
553.8220, 413.4342
554.9980, 386.9397
556.1730, 350.4592
557.3480, 354.9908
558.5230, 404.5366
559.6980, 412.0930
560.8730, 372.6606
562.0470, 349.2379
563.2220, 331.8210
564.3960, 258.4126
565.5700, 318.0190
566.7440, 299.6326
567.9170, 248.2562
569.0910, 235.8856
570.2640, 258.5232
571.4380, 198.1666
572.6110, 264.8169
573.7840, 266.0226
574.9570, 223.6609
576.1290, 201.3461
577.3020, 183.0028
578.4740, 176.5891
579.6460, 158.7019
580.8180, 186.7130
581.9900, 141.6448
583.1620, 144.3660
584.3330, 131.4932
585.5040, 172.2072
586.6760, 101.4703
587.8470, 147.1843
589.0180, 109.9192
590.1880, 166.6815
591.3590, 130.4490
592.5290, 155.2218
593.7000, 118.0000
594.8700, 182.7834
596.0400, 141.5721
597.2090, 163.3660
598.3790, 163.1649
599.5490, 130.9690
600.7180, 156.7782
601.8870, 163.5924
603.0560, 222.4119
604.2250, 248.2363
605.3940, 253.0657
606.5620, 250.9000
607.7300, 316.7390
608.8990, 277.5830
610.0670, 316.4319
611.2350, 283.2856
612.4020, 307.1440
613.5700, 332.0071
614.7370, 361.8751
615.9050, 411.7476
617.0720, 398.6246
618.2390, 475.5065
619.4060, 512.3927
620.5720, 524.2836
621.7390, 597.1790
622.9050, 636.0784
624.0710, 613.9824
625.2370, 705.8909
626.4030, 736.8035
627.5690, 799.7206
628.7340, 866.6418
629.9000, 944.5671
631.0650, 1015.497
632.2300, 1016.430
633.3950, 1170.368
634.5600, 1290.441
635.7240, 1380.048
636.8890, 1569.997
638.0530, 1661.997
639.2170, 1805.954
640.3810, 1949.296
641.5450, 2173.736
642.7080, 2367.139
643.8720, 2614.229
645.0350, 2940.458
646.1980, 3221.548
647.3610, 3646.961
648.5240, 3953.157
649.6870, 4412.887
650.8490, 5151.909
652.0120, 5686.718
653.1740, 6588.691
654.3360, 7483.095
655.4980, 8952.775
656.6600, 10558.81
657.8210, 12443.90
658.9830, 15229.40
660.1440, 18473.63
661.3050, 22572.43
662.4660, 27288.72
663.6270, 33040.77
664.7870, 39996.15
665.9480, 47172.39
667.1080, 53447.00
668.2680, 58059.02
669.4280, 59390.04
670.5880, 56077.30
671.7480, 49934.62
672.9070, 42013.11
674.0670, 34132.54
675.2260, 27042.93
676.3850, 21566.92
677.5440, 17271.18
678.7030, 14270.83
679.8610, 11751.26
681.0200, 10072.13
682.1780, 8816.129
683.3360, 7716.696
684.4940, 6894.157
685.6520, 6229.596
686.8090, 5858.281
687.9670, 5478.057
689.1240, 5252.668
690.2810, 5275.153
691.4380, 5255.657
692.5950, 5430.594
693.7520, 5544.055
694.9080, 6066.161
696.0650, 6772.978
697.2210, 7436.210
698.3770, 8768.638
699.5330, 9844.083
700.6880, 10959.29
701.8440, 12478.74
702.9990, 13569.60
704.1550, 13958.98
705.3100, 13675.50
706.4650, 12887.79
707.6190, 11446.19
708.7740, 9897.010
709.9290, 8414.389
711.0830, 7146.875
712.2370, 5977.447
713.3910, 5108.544
714.5450, 4380.661
715.6980, 3745.088
716.8520, 3375.502
718.0050, 3072.844
719.1580, 2713.151
720.3110, 2460.431
721.4640, 2203.280
722.6170, 1974.668
723.7700, 1780.424
724.9220, 1591.687
726.0740, 1434.949
727.2260, 1246.204
728.3780, 1134.615
729.5300, 1049.689
730.6810, 930.9192
731.8330, 821.1409
732.9840, 741.3544
734.1350, 664.7495
735.2860, 599.8779
736.4370, 560.9438
737.5880, 510.1229
738.7380, 486.2936
739.8880, 473.4552
741.0390, 425.6083
742.1890, 430.7524
743.3380, 410.8876
744.4880, 398.0139
745.6380, 327.1310
746.7870, 323.2393
747.9360, 263.3383
749.0850, 234.4281
750.2340, 263.5088
751.3830, 200.5801
752.5310, 191.6421
753.6800, 143.6947
754.8280, 168.7380
755.9760, 155.7717
757.1240, 131.7959
758.2720, 111.8107
759.4190, 89.81592
760.5670, 70.81128
761.7140, 60.91125
762.8610, 51.77332
764.0080, 53.73962
765.1550, 56.69617
766.3020, 72.64307
767.4480, 54.57996
768.5950, 38.50696
769.7410, 79.42419
770.8870, 49.33142
772.0330, 9.228516
773.1780, 18.88586
774.3240, 41.97400
775.4690, 27.82397
776.6140, 40.66321
777.7590, 2.492310
778.9040, 14.69360
780.0490, 2.096191
781.1940, 13.87036
782.3380, 42.36682
783.4820, 15.35669
784.6260, 12.93103
785.7700, 9.243042
786.9140, 1.576904
788.0580, 21.92896
789.2010, 18.31018
790.3450, 36.71863
791.4880, 43.35315
792.6310, 31.65002
793.7730, 53.17053
794.9160, 53.73694
796.0590, 44.34937
797.2010, 24.00317
798.3430, 64.68762
799.4850, 8.424194
800.6270, 4.183228
801.7690, 24.96265
802.9100, 53.77356
804.0520, 4.368774
805.1930, 1.505249
806.3340, 17.39880
807.4750, 84.32007
808.6160, 28.69556
809.7560, 39.30054
810.8970, 18.66382
812.0370, 5.384033
813.1770, 46.45386
814.3170, 2.567017
815.4570, 40.70056
816.5960, 42.12537
817.7360, 60.06030
818.8750, 1.703491
820.0140, 23.55078
821.1530, 69.83618
822.2920, 37.82312
823.4310, 6.470947
824.5690, 11.89636
825.7070, 7.712158
826.8460, 21.30640
827.9840, 14.88904
829.1220, 15.54053
830.2590, 22.00439
831.3970, 19.46204
832.5340, 13.95581
833.6710, 21.47400
834.8080, 9.020264
835.9450, 9.587646
837.0820, 6.176514
838.2190, 11.21521
839.3550, 1.404175
840.4910, 26.04016
841.6270, 3.294678
842.7630, 9.383911
843.8990, 11.91760
845.0350, 2.791626
846.1700, 13.48328
847.3060, 1.747803
848.4410, 16.00073
849.5760, 24.77161
850.7100, 9.568970
851.8450, 14.99268
852.9800, 15.22131
854.1140, 5.921387
855.2480, 16.05420
856.3820, 42.17749
857.5160, 13.29187
858.6500, 46.39685
859.7830, 0.5070800
860.9170, 21.57764
862.0500, 36.65369
863.1830, 91.72095
864.3160, 13.77991
865.4480, 60.83020
866.5810, 54.87231
867.7130, 62.90613
868.8460, 34.93188
869.9780, 67.94971
871.1100, 83.95984
872.2410, 127.9622
873.3730, 120.6528
874.5050, 97.94409
875.6360, 110.9241
876.7670, 114.8965
877.8980, 113.8618
879.0290, 118.8201
880.1590, 149.7714
881.2900, 150.7158
882.4200, 167.7524
883.5500, 166.5844
884.6800, 187.5089
885.8100, 232.4268
886.9400, 232.3384
888.0690, 230.2439
889.1990, 258.1431
890.3280, 336.0363
891.4570, 358.7993
892.5860, 463.8081
893.7140, 481.6870
894.8430, 556.5599
895.9710, 666.4280
897.1000, 686.2944
898.2280, 811.1562
899.3560, 902.0125
900.4830, 857.8638
901.6110, 916.7111
902.7380, 921.5540
903.8660, 779.3923
904.9930, 812.2295
906.1200, 735.0662
907.2460, 714.8984
908.3730, 654.5950
909.5000, 701.7654
910.6260, 729.5931
911.7520, 689.3765
912.8780, 727.2021
914.0040, 734.6504
915.1290, 784.0051
916.2550, 818.4092
917.3800, 825.1263
918.5050, 857.7054
919.6300, 917.4243
920.7550, 903.8208
921.8800, 847.4346
923.0040, 930.5178
924.1290, 917.3137
925.2530, 882.3282
926.3770, 929.1760
927.5010, 955.5984
928.6250, 918.7458
929.7480, 880.5344
930.8720, 984.2848
931.9950, 970.6194
933.1180, 1014.235
934.2410, 1110.308
935.3640, 1160.911
936.4860, 1188.784
937.6090, 1224.355
938.7310, 1243.119
939.8530, 1340.534
940.9750, 1407.593
942.0970, 1593.666
943.2180, 1586.551
944.3400, 1813.389
945.4610, 1898.118
946.5820, 2102.928
947.7030, 2354.808
948.8240, 2502.119
949.9450, 2768.700
951.0650, 3011.931
952.1860, 3314.836
953.3060, 3652.341
954.4260, 4050.739
955.5460, 4471.189
956.6650, 4948.946
957.7850, 5447.469
958.9040, 6063.195
960.0230, 6666.832
961.1420, 7385.637
962.2610, 8070.570
963.3800, 8674.499
964.4990, 9568.998
965.6170, 10465.98
966.7350, 11165.28
967.8530, 11894.94
968.9710, 12655.16
970.0890, 13366.18
971.2070, 14053.20
972.3240, 14554.46
973.4410, 14921.47
974.5580, 15146.08
975.6750, 15372.17
976.7920, 15406.13
977.9090, 15092.32
979.0250, 14957.41
980.1410, 14704.08
981.2580, 14432.81
982.3740, 14083.21
983.4890, 13927.14
984.6050, 13780.55
985.7200, 13626.95
986.8360, 13414.94
987.9510, 13210.16
989.0660, 12988.34
990.1810, 12670.59
991.2950, 12475.88
992.4100, 12407.15
993.5240, 11968.47
994.6390, 11941.66
995.7530, 11866.00
996.8660, 11936.36
997.9800, 12056.73
999.0940, 12119.11
1000.207, 12093.84
1001.320, 12042.92
1002.433, 11956.35
1003.546, 11871.80
1004.659, 11713.26
1005.772, 11600.74
1006.884, 11516.23
1007.996, 11807.73
1009.108, 12239.25
1010.220, 12751.77
1011.332, 13885.31
1012.444, 15207.85
1013.555, 16665.41
1014.666, 18573.99
1015.777, 20736.57
1016.888, 23092.17
1017.999, 25212.78
1019.110, 27385.40
1020.220, 28782.04
1021.331, 29148.68
1022.441, 28399.34
1023.551, 26492.01
1024.661, 23938.81
1025.770, 20812.80
1026.880, 18029.58
1027.989, 15509.29
1029.098, 13103.03
1030.207, 11274.60
1031.316, 9679.391
1032.425, 8526.150
1033.533, 7429.922
1034.642, 6385.816
1035.750, 5805.745
1036.858, 5279.554
1037.966, 4744.027
1039.073, 4388.667
1040.181, 4070.508
1041.288, 3801.362
1042.396, 3401.990
1043.503, 3302.875
1044.610, 3017.948
1045.716, 2958.855
1046.823, 2790.428
1047.929, 2534.037
1049.036, 2459.973
1050.142, 2339.937
1051.248, 2274.912
1052.353, 2202.126
1053.459, 2094.137
1054.564, 2053.171
1055.670, 2014.709
1056.775, 1868.440
1057.880, 1830.385
1058.985, 1818.526
1060.089, 1759.913
1061.194, 1715.456
1062.298, 1680.233
1063.402, 1603.327
1064.506, 1568.557
1065.610, 1517.803
1066.713, 1404.993
1067.817, 1321.319
1068.920, 1241.766
1070.023, 1243.548
1071.126, 1187.062
1072.229, 1213.123
1073.332, 1155.564
1074.435, 1125.092
1075.537, 1132.122
1076.639, 1119.587
1077.741, 1038.388
1078.843, 978.8857
1079.945, 882.7542
1081.046, 852.2761
1082.148, 813.3457
1083.249, 845.9053
1084.350, 733.5686
1085.451, 760.2637
1086.551, 676.3140
1087.652, 719.9578
1088.752, 622.7061
1089.853, 637.9224
1090.953, 601.0830
1092.053, 613.7803
1093.152, 514.6064
1094.252, 542.3486
1095.351, 477.1697
1096.451, 460.3000
1097.550, 460.4102
1098.649, 404.1689
1099.748, 433.0295
1100.846, 350.4272
1101.945, 404.3821
1103.043, 309.9160
1104.141, 281.8677
1105.239, 314.8003
1106.337, 275.7847
1107.434, 304.3472
1108.532, 208.1511
1109.629, 194.1448
1110.726, 154.5928
1111.823, 221.8181
1112.920, 226.9688
1114.017, 208.8794
1115.113, 165.8450
1116.210, 193.8171
1117.306, 288.3970
1118.402, 256.4705
1119.498, 377.5430
1120.593, 412.6785
1121.689, 371.3535
1122.784, 432.4053
1123.879, 409.5640
1124.974, 432.6245
1126.069, 423.7336
1127.164, 357.8850
1128.259, 345.7073
1129.353, 262.9504
1130.447, 218.0056
1131.541, 181.1982
1132.635, 107.0962
1133.729, 95.53442
1134.822, 91.91162
1135.916, 36.24927
1137.009, 29.63257
1138.102, 83.12695
1139.195, 12.32764
1140.288, 68.46729
1141.380, 31.88208
1142.473, 30.18164
1143.565, 49.44922
1144.657, 10.56982
1145.749, 11.74658
1146.841, 25.78784
1147.932, 5.229248
1149.024, 24.35449
1150.115, 28.48120
1151.206, 44.26099
1152.297, 24.49438
1153.388, 10.67822
1154.479, 4.946045
1155.569, 8.001465
1156.659, 14.89575
1157.750, 4.839111
1158.839, 2.216309
1159.929, 0.3510740
1161.019, 28.59521
1162.108, 2.460938
1163.198, 12.60962
1164.287, 28.73413
1165.376, 6.222656
1166.465, 7.092285
1167.553, 1.445557
1168.642, 21.51807
1169.730, 24.37793
1170.818, 18.64478
1171.906, 34.81299
1172.994, 40.11621
1174.082, 11.98340
1175.170, 28.98535
1176.257, 16.00098
1177.344, 36.01685
1178.431, 18.05273
1179.518, 56.08838
1180.605, 23.06079
1181.691, 9.987061
1182.778, 6.038574
1183.864, 28.90601
1184.950, 2.815186
1186.036, 11.27588
1187.122, 14.37549
1188.207, 17.48560
1189.292, 1.391357
1190.378, 4.737061
1191.463, 25.12646
1192.548, 5.119385
1193.632, 14.92920
1194.717, 33.18921
1195.801, 31.92090
1196.886, 46.10938
1197.970, 15.67041
1199.054, 16.55591
1200.137, 4.799316
1201.221, 76.94727
1202.305, 26.30981
1203.388, 16.45312
1204.471, 29.82983
1205.554, 21.13892
1206.637, 35.53027
1207.719, 15.80737
1208.802, 43.83545
1209.884, 15.40991
1210.966, 70.26489
1212.048, 1.127441
1213.130, 48.46680
1214.212, 20.05347
1215.293, 15.63184
1216.374, 2.201416
1217.456, 39.75806
1218.536, 20.30566
1219.617, 1.844238
1220.698, 12.63135
1221.778, 60.87061
1222.859, 21.36353
1223.939, 44.84595
1225.019, 36.68140
1226.099, 7.754639
1227.178, 9.177002
1228.258, 73.58594
1229.337, 34.98535
1230.417, 5.374268
1231.496, 21.74658
1232.574, 11.89233
1233.653, 30.44263
1234.732, 38.76611
1235.810, 29.07812
1236.888, 6.378174
1237.966, 2.660645
1239.044, 37.92334
1240.122, 11.17383
1241.199, 2.592285
1242.277, 22.61816
1243.354, 77.81494
1244.431, 59.00000
1245.508, 61.17285
1246.585, 5.666260
1247.661, 44.46875
1248.738, 3.590576
1249.814, 36.69043
1250.890, 5.223633
1251.966, 60.83545
1253.042, 12.11841
1254.117, 26.10352
1255.193, 52.87231
1256.268, 44.83447
1257.343, 12.78271
1258.418, 34.71045
1259.493, 8.623779
1260.567, 65.51465
1261.642, 22.60767
1262.716, 27.23120
1263.790, 4.052979
1264.864, 11.14209
1265.938, 31.62109
1267.011, 27.37744
1268.085, 49.13330
1269.158, 64.84717
1270.231, 32.54712
1271.304, 40.22998
1272.377, 43.99756
1273.450, 73.65259
1274.522, 11.34814
1275.594, 100.9648
1276.666, 34.56763
1277.738, 76.15308
1278.810, 77.02148
1279.882, 24.04688
1280.953, 55.61914
1282.025, 68.47852
1283.096, 72.11646
1284.167, 81.26465
1285.238, 91.95679
1286.308, 106.1211
1287.379, 111.4956
1288.449, 85.01978
1289.519, 123.4255
1290.589, 83.20312
1291.659, 98.73755
1292.729, 86.19385
1293.798, 114.7639
1294.868, 85.06226
1295.937, 37.37402
1297.006, 132.6853
1298.075, 80.33252
1299.143, 105.9622
1300.212, 71.34570
1301.280, 94.70117
1302.348, 82.45728
1303.416, 98.76245
1304.484, 106.2393
1305.552, 146.8125
1306.620, 125.4153
1307.687, 103.9382
1308.754, 54.09839
1309.821, 103.3030
1310.888, 91.53979
1311.955, 97.54858
1313.021, 122.6475
1314.088, 136.5913
1315.154, 135.7493
1316.220, 144.3237
1317.286, 132.9976
1318.352, 122.9629
1319.417, 126.6924
1320.483, 74.79712
1321.548, 83.75610
1322.613, 49.91479
1323.678, 93.84326
1324.743, 144.8623
1325.807, 109.8506
1326.872, 130.7590
1327.936, 145.5105
1329.000, 111.1943
1330.064, 136.7036
1331.128, 93.75244
1332.191, 110.5310
1333.255, 121.2249
1334.318, 161.4202
1335.381, 109.2920
1336.444, 143.7788
1337.507, 71.67090
1338.569, 85.07202
1339.632, 159.8291
1340.694, 112.0803
1341.756, 101.8669
1342.818, 119.6746
1343.880, 197.3655
1344.941, 128.7393
1346.003, 149.3804
1347.064, 158.0261
1348.125, 146.2134
1349.186, 139.4646
1350.247, 159.0684
1351.308, 170.5452
1352.368, 130.1030
1353.428, 133.5781
1354.489, 181.7871
1355.549, 134.9722
1356.608, 147.6274
1357.668, 171.0615
1358.727, 174.9609
1359.787, 165.3074
1360.846, 220.0750
1361.905, 174.4255
1362.964, 193.7952
1364.022, 194.1072
1365.081, 254.8293
1366.139, 229.3115
1367.197, 232.5879
1368.255, 201.4094
1369.313, 223.4485
1370.371, 250.5569
1371.428, 225.8987
1372.486, 278.1804
1373.543, 211.4563
1374.600, 271.2568
1375.657, 191.4287
1376.713, 264.5974
1377.770, 269.6992
1378.826, 195.3901
1379.882, 204.5623
1380.938, 131.6631
1381.994, 219.8042
1383.050, 171.8894
1384.106, 181.9270
1385.161, 140.2861
1386.216, 162.2170
1387.271, 174.4521
1388.326, 158.5190
1389.381, 118.7290
1390.435, 152.4175
1391.490, 78.15991
1392.544, 134.9329
1393.598, 75.65112
1394.652, 71.24976
1395.705, 114.1313
1396.759, 167.2122
1397.812, 146.8594
1398.866, 54.46436
1399.919, 87.23975
1400.972, 64.15332
1402.024, 106.0012
1403.077, 89.09106
1404.129, 100.6548
1405.181, 18.59741
1406.233, 12.28882
1407.285, 66.90796
1408.337, 14.68433
1409.389, 43.52075
1410.440, 15.70239
1411.491, 14.08618
1412.542, 83.90747
1413.593, 86.82910
1414.644, 51.69946
1415.695, 89.47925
1416.745, 29.04541
1417.795, 31.89600
1418.845, 56.68164
1419.895, 28.40356
1420.945, 60.19727
1421.995, 48.12524
1423.044, 85.40088
1424.093, 92.14966
1425.142, 36.78003
1426.191, 46.51123
1427.240, 49.07788
1428.289, 17.99634
1429.337, 53.33179
1430.385, 5.990479
1431.433, 9.674072
1432.481, 53.28882
1433.529, 62.89307
1434.577, 112.4753
1435.624, 53.82983
1436.672, 42.50928
1437.719, 42.07153
1438.766, 67.56470
1439.812, 4.933594
1440.859, 25.54785
1441.905, 47.01514
1442.952, 65.49292
1443.998, 100.9111
1445.044, 74.62036
1446.090, 38.98828
1447.135, 60.88037
1448.181, 51.39941
1449.226, 79.23120
1450.271, 46.13428
1451.316, 73.03076
1452.361, 58.86743
1453.405, 123.7397
1454.450, 15.61890
1455.494, 2.635742
1456.538, 8.833008
1457.582, 72.02100
1458.626, 68.85571
1459.670, 138.6772
1460.713, 45.48413
1461.757, 56.29077
1462.800, 34.08203
1463.843, 61.88989
1464.886, 59.68750
1465.928, 52.47266
1466.971, 46.25684
1468.013, 22.03589
1469.055, 37.80591
1470.097, 32.20459
1471.139, 79.34741
1472.181, 40.11523
1473.222, 41.87012
1474.263, 38.62964
1475.305, 85.39136
1476.346, 68.92114
1477.386, 78.95996
1478.427, 77.76904
1479.468, 52.58081
1480.508, 79.39673
1481.548, 34.24194
1482.588, 114.1016
1483.628, 98.93677
1484.668, 116.8228
1485.707, 98.56421
1486.747, 89.35864
1487.786, 85.50684
1488.825, 76.44116
1489.864, 63.27637
1490.902, 69.40771
1491.941, 62.13354
1492.979, 66.93921
1494.017, 76.59082
1495.055, 101.7393
1496.093, 88.03809
1497.131, 70.50806
1498.168, 90.26489
1499.206, 27.56104
1500.243, 58.64404
1501.280, 81.45117
1502.317, 92.35474
1503.354, 26.00586
1504.390, 65.36841
1505.426, 47.83447
1506.463, 65.49463
1507.499, 72.96606
1508.535, 84.66650
1509.570, 74.04956
1510.606, 99.61206
1511.641, 27.11938
1512.676, 56.72900
1513.711, 40.41748
1514.746, 92.76636
1515.781, 95.35571
1516.816, 74.63354
1517.850, 111.8403
1518.884, 103.1890
1519.918, 85.04907
1520.952, 18.92920
1521.986, 62.14697
1523.019, 8.917969
1524.053, 63.51392
1525.086, 57.92725
1526.119, 79.19043
1527.152, 25.21021
1528.185, 88.54248
1529.217, 35.84961
1530.250, 7.131348
1531.282, 99.45630
1532.314, 42.84619
1533.346, 38.22388
1534.377, 65.60229
1535.409, 85.51172
1536.440, 117.8750
1537.472, 37.76221
1538.503, 47.95752
1539.534, 48.36035
1540.564, 21.25122
1541.595, 25.60767
1542.625, 73.70532
1543.656, 105.1748
1544.686, 63.65088
1545.716, 12.14502
1546.745, 80.92310
1547.775, 57.92212
1548.804, 114.2522
1549.834, 92.90918
1550.863, 77.21118
1551.892, 105.1191
1552.920, 167.8318
1553.949, 158.9351
1554.977, 201.3535
1556.006, 152.8679
1557.034, 61.73535
1558.062, 89.31201
1559.089, 56.16431
1560.117, 13.23071
1561.144, 20.97461
1562.172, 52.28711
1563.199, 43.89038
1564.226, 59.87231
1565.252, 71.89648
1566.279, 23.89258
1567.305, 99.05029
1568.332, 0.3923340
1569.358, 63.81714
1570.384, 0.0000000E+00
##END=



