##NAMES=Serandite
##RRUFFID=R050261
##IDEAL CHEMISTRY=NaMn^2+^_2_Si_3_O_8_(OH)
##LOCALITY=Mont Saint-Hilaire, Rouville County, Quebec, Canada
##OWNER=RRUFF
##SOURCE=Marcus Origlieri
##DESCRIPTION=Orange tabular single crystal associated with aegirine and microcline
##STATUS=The identification of this mineral has been confirmed by X-ray diffraction and chemical analysis
##URL=rruff.info/R050261
##MEASURED CHEMISTRY=Na_0.96_(Mn_0.92_Ca_0.06_Fe_0.01_)_2_Si_3.03_O_8_(OH)
##PIN_ID=L00791
##ORIENTATION=Laser parallel to -c* (0 0 -1). Fiducial mark perpendicular to laser is parallel to -a [-1 0 0]
93.48000, 0.0000000E+00
94.71400, 32.13916
95.94800, 2.919922
97.18200, 8.872559
98.41600, 38.59351
99.64900, 172.2297
100.8830, 342.6802
102.1160, 357.1750
103.3490, 598.7715
104.5820, 1009.852
105.8150, 1581.998
107.0470, 2496.887
108.2800, 3384.597
109.5120, 4124.648
110.7440, 3977.556
111.9760, 3011.262
113.2080, 2551.724
114.4400, 2314.897
115.6710, 2378.771
116.9030, 2236.265
118.1340, 1986.326
119.3650, 1843.892
120.5960, 1808.926
121.8270, 1715.391
123.0580, 1284.436
124.2880, 867.9749
125.5190, 437.9409
126.7490, 262.3054
127.9790, 249.0432
129.2090, 293.1316
130.4390, 488.5505
131.6680, 704.3855
132.8980, 1049.608
134.1270, 1263.094
135.3560, 1804.825
136.5850, 2332.463
137.8140, 2604.619
139.0430, 2634.980
140.2710, 2393.220
141.5000, 1950.944
142.7280, 1409.848
143.9560, 838.9236
145.1840, 495.1641
146.4120, 221.5620
147.6390, 115.1121
148.8670, 40.19019
150.0940, 70.27856
151.3210, 79.18140
152.5490, 6.042725
153.7750, 148.3901
155.0020, 112.8574
156.2290, 252.4412
157.4550, 297.1387
158.6810, 513.9463
159.9080, 662.8618
161.1340, 883.8823
162.3590, 1189.005
163.5850, 1487.227
164.8110, 1598.545
166.0360, 1659.958
167.2610, 1442.458
168.4860, 1099.052
169.7110, 917.6562
170.9360, 716.3960
172.1610, 529.3130
173.3850, 486.0901
174.6100, 267.0010
175.8340, 131.9409
177.0580, 39.91479
178.2820, 60.92578
179.5050, 16.02173
180.7290, 67.07520
181.9520, 81.21899
183.1760, 48.41064
184.3990, 31.65234
185.6220, 17.05420
186.8450, 69.29199
188.0670, 100.6926
189.2900, 153.1472
190.5120, 258.6565
191.7340, 462.2205
192.9560, 604.8391
194.1780, 863.5129
195.4000, 1063.222
196.6220, 1311.954
197.8430, 1568.741
199.0640, 1673.582
200.2860, 1878.478
201.5070, 2128.427
202.7270, 2255.428
203.9480, 2174.481
205.1690, 1988.113
206.3890, 1781.711
207.6090, 1532.859
208.8290, 1478.056
210.0490, 1449.298
211.2690, 1427.587
212.4890, 1445.921
213.7080, 1481.299
214.9280, 1554.720
216.1470, 1648.185
217.3660, 1704.693
218.5850, 1841.244
219.8030, 2000.836
221.0220, 2265.468
222.2400, 2450.141
223.4590, 2810.853
224.6770, 2945.602
225.8950, 3008.388
227.1120, 2916.211
228.3300, 2797.071
229.5480, 2362.964
230.7650, 2136.892
231.9820, 1681.853
233.1990, 1315.848
234.4160, 1089.875
235.6330, 929.9326
236.8490, 683.0215
238.0660, 463.1404
239.2820, 287.4006
240.4980, 187.6975
241.7140, 45.27295
242.9300, 5.931152
244.1460, 59.15845
245.3610, 59.83057
246.5770, 4.543945
247.7920, 71.05322
249.0070, 145.5601
250.2220, 278.9766
251.4370, 303.7368
252.6510, 466.5435
253.8660, 531.3596
255.0800, 548.2693
256.2940, 686.2703
257.5080, 844.3564
258.7220, 961.5244
259.9360, 1084.219
261.1490, 1208.424
262.3630, 1268.524
263.5760, 1264.021
264.7890, 1271.082
266.0020, 1205.275
267.2150, 1251.032
268.4270, 1174.827
269.6400, 1147.661
270.8520, 1149.563
272.0640, 1057.535
273.2760, 1098.570
274.4880, 987.6746
275.7000, 925.8374
276.9120, 919.0566
278.1230, 945.3237
279.3340, 1031.649
280.5450, 1103.027
281.7560, 1164.457
282.9670, 1230.926
284.1780, 1397.439
285.3880, 1450.991
286.5980, 1548.581
287.8090, 1689.206
289.0190, 1767.876
290.2290, 1700.582
291.4380, 1668.323
292.6480, 1594.104
293.8570, 1446.918
295.0670, 1304.093
296.2760, 1237.481
297.4850, 1062.628
298.6930, 978.5674
299.9020, 835.5337
301.1110, 829.5249
302.3190, 762.5427
303.5270, 580.5876
304.7350, 517.6560
305.9430, 414.2217
307.1510, 340.8601
308.3580, 244.9961
309.5660, 160.1523
310.7730, 89.32788
311.9800, 62.52124
313.1870, 40.73267
314.3940, 3.8818002E-02
315.6010, 11.82104
316.8070, 54.58887
318.0130, 48.34961
319.2200, 22.89819
320.4260, 29.16138
321.6310, 39.43994
322.8370, 107.7329
324.0430, 147.0410
325.2480, 223.1619
326.4540, 377.4985
327.6590, 413.8491
328.8640, 548.2131
330.0680, 585.5903
331.2730, 738.7598
332.4780, 781.1628
333.6820, 855.5776
334.8860, 906.0044
336.0900, 883.6360
337.2940, 812.8928
338.4980, 796.3535
339.7010, 697.8245
340.9050, 602.3059
342.1080, 614.7979
343.3110, 606.2993
344.5140, 513.8103
345.7170, 453.3306
346.9200, 534.8599
348.1220, 554.3977
349.3240, 507.9436
350.5270, 530.4944
351.7290, 516.0320
352.9310, 612.5771
354.1320, 647.1296
355.3340, 759.6895
356.5350, 846.2563
357.7370, 965.8291
358.9380, 1130.413
360.1390, 1234.999
361.3400, 1398.590
362.5400, 1633.187
363.7410, 1922.790
364.9410, 2168.397
366.1410, 2274.009
367.3410, 2286.626
368.5410, 2273.247
369.7410, 2135.872
370.9400, 1811.502
372.1400, 1557.135
373.3390, 1124.772
374.5380, 879.4116
375.7370, 626.0547
376.9360, 472.7004
378.1350, 389.3491
379.3330, 194.0000
380.5310, 64.65332
381.7300, 66.30859
382.9280, 22.03442
384.1260, 2.613281
385.3230, 90.72583
386.5210, 92.08862
387.7180, 72.47632
388.9160, 91.38574
390.1130, 69.97681
391.3100, 48.84570
392.5060, 45.28516
393.7030, 17.71191
394.9000, 22.77441
396.0960, 20.97095
397.2920, 41.83276
398.4880, 82.08423
399.6840, 88.22900
400.8800, 178.0034
402.0750, 241.9590
403.2710, 349.8206
404.4660, 456.9597
405.6610, 555.2258
406.8560, 711.8672
408.0510, 876.5024
409.2450, 1039.632
410.4400, 1318.188
411.6340, 1533.932
412.8280, 1851.854
414.0220, 2181.701
415.2160, 2508.746
416.4100, 2639.666
417.6030, 2866.478
418.7970, 2899.082
419.9900, 2906.647
421.1830, 2618.643
422.3760, 2428.637
423.5690, 2227.250
424.7610, 2002.284
425.9540, 1812.447
427.1460, 1603.104
428.3380, 1439.673
429.5300, 1170.047
430.7220, 1013.562
431.9140, 881.9984
433.1050, 781.7104
434.2970, 765.6572
435.4880, 611.3724
436.6790, 589.2463
437.8700, 539.4833
439.0610, 381.5902
440.2510, 453.1034
441.4420, 379.9542
442.6320, 344.8993
443.8220, 339.6794
445.0120, 330.8931
446.2020, 262.4515
447.3910, 321.1064
448.5810, 367.7917
449.7700, 316.6630
450.9600, 387.5991
452.1490, 343.0565
453.3370, 411.3875
454.5260, 393.6267
455.7150, 381.8506
456.9030, 436.1532
458.0910, 577.3427
459.2800, 585.1721
460.4670, 629.4976
461.6550, 725.0544
462.8430, 726.1829
464.0300, 713.2947
465.2180, 555.3894
466.4050, 469.4675
467.5920, 361.5286
468.7790, 232.5735
469.9650, 211.6006
471.1520, 239.6101
472.3380, 138.6017
473.5250, 169.5751
474.7110, 152.5315
475.8970, 130.4692
477.0820, 130.3881
478.2680, 150.2881
479.4540, 162.1691
480.6390, 166.0308
481.8240, 236.8730
483.0090, 146.7029
484.1940, 206.5204
485.3780, 153.3279
486.5630, 208.1232
487.7470, 126.9053
488.9320, 228.6671
490.1160, 206.4082
491.3000, 165.1317
492.4830, 199.8408
493.6670, 257.5392
494.8500, 250.2260
496.0340, 263.9053
497.2170, 281.5684
498.4000, 214.2144
499.5820, 204.8427
500.7650, 147.4623
501.9480, 153.0725
503.1300, 225.6646
504.3120, 237.2472
505.4940, 242.8101
506.6760, 290.3745
507.8580, 317.9397
509.0390, 334.4919
510.2210, 346.0282
511.4020, 376.6007
512.5830, 389.6444
513.7640, 435.5559
514.9450, 422.0404
516.1250, 459.5133
517.3060, 466.9769
518.4860, 480.4315
519.6660, 495.8716
520.8460, 551.3000
522.0260, 568.7053
523.2060, 610.0876
524.3850, 574.4639
525.5650, 552.7036
526.7440, 591.8717
527.9230, 536.7439
529.1020, 440.4951
530.2810, 327.2102
531.4590, 272.9615
532.6380, 194.8335
533.8160, 172.7140
534.9940, 166.7200
536.1720, 98.92529
537.3500, 114.8809
538.5270, 114.8751
539.7050, 75.93555
540.8820, 36.96277
542.0590, 51.94910
543.2360, 45.89746
544.4130, 18.80640
545.5900, 3.667480
546.7660, 14.67029
547.9430, 11.78467
549.1190, 43.10669
550.2950, 66.50903
551.4710, 57.00464
552.6470, 75.58838
553.8220, 46.27063
554.9980, 2.963867
556.1730, 15.85938
557.3480, 2.249634
558.5230, 27.69983
559.6980, 8.276001
560.8730, 9.196045
562.0470, 55.06055
563.2220, 14.11682
564.3960, 8.637573
565.5700, 1.335815
566.7440, 48.97339
567.9170, 32.56726
569.0910, 75.11292
570.2640, 41.61963
571.4380, 78.08044
572.6110, 12.50244
573.7840, 67.86890
574.9570, 57.19470
576.1290, 30.47778
577.3020, 59.71118
578.4740, 92.90210
579.6460, 50.05579
580.8180, 76.16492
581.9900, 60.23438
583.1620, 114.2610
584.3330, 131.2527
585.5040, 92.21094
586.6760, 72.13159
587.8470, 142.0116
589.0180, 136.8586
590.1880, 114.6722
591.3590, 108.4508
592.5290, 172.1937
593.7000, 198.9049
594.8700, 244.5854
596.0400, 223.2361
597.2090, 194.8567
598.3790, 204.4465
599.5490, 280.0065
600.7180, 272.5385
601.8870, 212.0492
603.0560, 272.5371
604.2250, 245.9951
605.3940, 272.4232
606.5620, 306.8215
607.7300, 320.1899
608.8990, 363.5284
610.0670, 357.8372
611.2350, 354.1160
612.4020, 365.3650
613.5700, 413.5841
614.7370, 421.7737
615.9050, 463.9333
617.0720, 489.0632
618.2390, 522.1637
619.4060, 542.2345
620.5720, 569.1997
621.7390, 612.2872
622.9050, 630.7354
624.0710, 646.1537
625.2370, 703.1915
626.4030, 791.6599
627.5690, 752.9694
628.7340, 885.8135
629.9000, 941.6169
631.0650, 917.8718
632.2300, 1072.991
633.3950, 1129.832
634.5600, 1186.525
635.7240, 1301.249
636.8890, 1390.821
638.0530, 1544.367
639.2170, 1634.643
640.3810, 1821.070
641.5450, 1981.405
642.7080, 2138.698
643.8720, 2308.988
645.0350, 2475.913
646.1980, 2786.856
647.3610, 3061.526
648.5240, 3330.043
649.6870, 3696.861
650.8490, 4216.837
652.0120, 4649.277
653.1740, 5408.739
654.3360, 6109.975
655.4980, 7142.785
656.6600, 8333.195
657.8210, 9962.635
658.9830, 11783.84
660.1440, 14269.71
661.3050, 17230.98
662.4660, 21154.36
663.6270, 25707.41
664.7870, 31687.48
665.9480, 37763.58
667.1080, 44024.56
668.2680, 48742.61
669.4280, 50670.41
670.5880, 49257.24
671.7480, 44214.01
672.9070, 37263.79
674.0670, 30301.50
675.2260, 23904.22
676.3850, 18994.50
677.5440, 15168.89
678.7030, 12139.25
679.8610, 10078.13
681.0200, 8562.104
682.1780, 7218.420
683.3360, 6208.530
684.4940, 5489.708
685.6520, 4798.110
686.8090, 4258.306
687.9670, 3911.628
689.1240, 3562.930
690.2810, 3314.710
691.4380, 3065.037
692.5950, 2952.150
693.7520, 2904.060
694.9080, 2861.014
696.0650, 2879.747
697.2210, 2926.574
698.3770, 3115.483
699.5330, 3459.573
700.6880, 3742.672
701.8440, 4236.315
702.9990, 4438.930
704.1550, 4739.896
705.3100, 4613.416
706.4650, 4567.776
707.6190, 4048.615
708.7740, 3594.513
709.9290, 3072.576
711.0830, 2692.471
712.2370, 2342.414
713.3910, 1927.052
714.5450, 1807.427
715.6980, 1671.005
716.8520, 1469.394
718.0050, 1312.390
719.1580, 1273.491
720.3110, 1218.162
721.4640, 1099.474
722.6170, 1008.663
723.7700, 961.9861
724.9220, 830.8466
726.0740, 698.3323
727.2260, 653.6921
728.3780, 578.9912
729.5300, 450.0750
730.6810, 463.0637
731.8330, 390.5015
732.9840, 402.0356
734.1350, 370.6318
735.2860, 316.2131
736.4370, 283.6864
737.5880, 290.1854
738.7380, 238.7244
739.8880, 235.2499
741.0390, 226.7400
742.1890, 201.2384
743.3380, 188.7238
744.4880, 185.1963
745.6380, 123.6560
746.7870, 120.1035
747.9360, 144.5387
749.0850, 82.96191
750.2340, 102.3735
751.3830, 73.77356
752.5310, 111.1625
753.6800, 45.54041
754.8280, 47.90771
755.9760, 40.26428
757.1240, 69.61108
758.2720, 57.94751
759.4190, 32.27454
760.5670, 9.407715
761.7140, 10.20703
762.8610, 21.36829
764.0080, 13.60278
765.1550, 12.38599
766.3020, 14.80859
767.4480, 29.99390
768.5950, 1.172119
769.7410, 14.66357
770.8870, 27.52002
772.0330, 26.52588
773.1780, 44.31323
774.3240, 11.25732
775.4690, 11.21753
776.6140, 8.193359
777.7590, 45.18237
778.9040, 45.20312
780.0490, 12.25488
781.1940, 47.31934
782.3380, 7.414795
783.4820, 92.52002
784.6260, 89.67773
785.7700, 40.88574
786.9140, 30.11743
788.0580, 51.36621
789.2010, 25.64307
790.3450, 45.93384
791.4880, 60.24756
792.6310, 54.98315
793.7730, 66.29443
794.9160, 68.36108
796.0590, 48.79297
797.2010, 62.24512
798.3430, 9.723389
799.4850, 14.20459
800.6270, 86.68970
801.7690, 7.210938
802.9100, 35.73315
804.0520, 6.265381
805.1930, 36.79761
806.3340, 37.66040
807.4750, 0.8784180
808.6160, 41.58521
809.7560, 31.05200
810.8970, 37.52295
812.0370, 2.002197
813.1770, 26.47607
814.3170, 19.96069
815.4570, 4.451416
816.5960, 47.94800
817.7360, 57.45337
818.8750, 35.97192
820.0140, 54.50146
821.1530, 115.0435
822.2920, 78.60254
823.4310, 96.18213
824.5690, 101.7871
825.7070, 95.41772
826.8460, 119.0183
827.9840, 107.0723
829.1220, 143.5312
830.2590, 112.3181
831.3970, 98.14136
832.5340, 134.9885
833.6710, 130.6101
834.8080, 141.0125
835.9450, 167.6973
837.0820, 162.6538
838.2190, 166.6340
839.3550, 185.6309
840.4910, 170.6580
841.6270, 209.7097
842.7630, 186.7883
843.8990, 230.8857
845.0350, 245.0042
846.1700, 223.1392
847.3060, 248.2944
848.4410, 292.4668
849.5760, 261.6646
850.7100, 277.8809
851.8450, 302.1167
852.9800, 282.3755
854.1140, 339.6543
855.2480, 296.9502
856.3820, 315.2673
857.5160, 320.6030
858.6500, 329.9600
859.7830, 280.3337
860.9170, 276.7236
862.0500, 365.1323
863.1830, 307.5610
864.3160, 353.0068
865.4480, 295.4697
866.5810, 387.9507
867.7130, 352.4497
868.8460, 352.9661
869.9780, 357.4985
871.1100, 376.0508
872.2410, 353.6189
873.3730, 313.2043
874.5050, 370.8071
875.6360, 326.4268
876.7670, 360.2881
877.8980, 370.7188
879.0290, 432.3948
880.1590, 431.0889
881.2900, 508.8025
882.4200, 502.5381
883.5500, 509.2930
884.6800, 606.0662
885.8100, 635.8655
886.9400, 725.6938
888.0690, 760.5415
889.1990, 842.4150
890.3280, 1023.308
891.4570, 1232.881
892.5860, 1541.170
893.7140, 1859.140
894.8430, 2288.138
895.9710, 2764.166
897.1000, 3217.762
898.2280, 3762.378
899.3560, 4098.377
900.4830, 4289.937
901.6110, 4157.664
902.7380, 4028.853
903.8660, 3714.081
904.9930, 3318.862
906.1200, 2938.773
907.2460, 2616.960
908.3730, 2343.307
909.5000, 2103.638
910.6260, 1898.114
911.7520, 1752.674
912.8780, 1668.475
914.0040, 1494.135
915.1290, 1467.884
916.2550, 1447.680
917.3800, 1368.488
918.5050, 1338.675
919.6300, 1211.847
920.7550, 1242.308
921.8800, 1179.920
923.0040, 1113.227
924.1290, 1105.382
925.2530, 1026.075
926.3770, 1075.748
927.5010, 1019.653
928.6250, 1020.990
929.7480, 1028.738
930.8720, 1032.463
931.9950, 1017.772
933.1180, 1007.766
934.2410, 989.6919
935.3640, 980.5239
936.4860, 973.6826
937.6090, 979.8469
938.7310, 988.4473
939.8530, 1040.268
940.9750, 1030.497
942.0970, 1055.990
943.2180, 1099.471
944.3400, 1039.027
945.4610, 1075.614
946.5820, 1140.232
947.7030, 1181.832
948.8240, 1229.510
949.9450, 1257.221
951.0650, 1359.959
952.1860, 1484.728
953.3060, 1657.526
954.4260, 1805.353
955.5460, 1901.210
956.6650, 2052.098
957.7850, 2240.025
958.9040, 2410.981
960.0230, 2630.969
961.1420, 2861.992
962.2610, 3154.700
963.3800, 3454.695
964.4990, 3837.228
965.6170, 4181.364
966.7350, 4605.530
967.8530, 4968.647
968.9710, 5345.947
970.0890, 5732.199
971.2070, 6078.464
972.3240, 6531.789
973.4410, 6762.126
974.5580, 7043.491
975.6750, 7342.883
976.7920, 7499.304
977.9090, 7601.752
979.0250, 7490.226
980.1410, 7419.726
981.2580, 7247.253
982.3740, 6764.805
983.4890, 6364.385
984.6050, 5786.990
985.7200, 5461.623
986.8360, 5066.280
987.9510, 4811.963
989.0660, 4629.671
990.1810, 4540.402
991.2950, 4467.161
992.4100, 4369.943
993.5240, 4428.750
994.6390, 4495.583
995.7530, 4514.438
996.8660, 4822.320
997.9800, 5127.225
999.0940, 5423.153
1000.207, 5586.107
1001.320, 5701.084
1002.433, 5731.084
1003.546, 5699.109
1004.659, 5566.676
1005.772, 5483.749
1006.884, 5512.847
1007.996, 5687.969
1009.108, 6078.115
1010.220, 6443.298
1011.332, 7055.489
1012.444, 7906.389
1013.555, 9140.627
1014.666, 10575.19
1015.777, 12260.20
1016.888, 14225.61
1017.999, 16249.93
1019.110, 18273.76
1020.220, 19994.37
1021.331, 21050.79
1022.441, 20995.48
1023.551, 20178.93
1024.661, 18801.46
1025.770, 16535.82
1026.880, 14419.49
1027.989, 12257.54
1029.098, 10769.18
1030.207, 9156.750
1031.316, 7814.422
1032.425, 6717.206
1033.533, 5975.084
1034.642, 5184.418
1035.750, 4585.847
1036.858, 4064.762
1037.966, 3694.734
1039.073, 3383.648
1040.181, 3115.534
1041.288, 2818.871
1042.396, 2571.648
1043.503, 2398.191
1044.610, 2232.961
1045.716, 2123.668
1046.823, 1945.641
1047.929, 1843.054
1049.036, 1761.669
1050.142, 1650.988
1051.248, 1537.705
1052.353, 1527.232
1053.459, 1465.432
1054.564, 1341.352
1055.670, 1308.677
1056.775, 1261.942
1057.880, 1291.795
1058.985, 1231.758
1060.089, 1200.887
1061.194, 1149.829
1062.298, 1113.557
1063.402, 1085.441
1064.506, 1046.443
1065.610, 1045.099
1066.713, 1024.873
1067.817, 1021.544
1068.920, 957.1208
1070.023, 960.1899
1071.126, 920.5217
1072.229, 899.1038
1073.332, 848.1621
1074.435, 859.2520
1075.537, 841.8494
1076.639, 854.4854
1077.741, 815.0718
1078.843, 749.3645
1079.945, 763.1257
1081.046, 731.6536
1082.148, 763.8511
1083.249, 674.3652
1084.350, 708.9165
1085.451, 649.5249
1086.551, 622.1780
1087.652, 538.8042
1088.752, 534.8691
1089.853, 540.6829
1090.953, 506.2654
1092.053, 501.4241
1093.152, 564.4233
1094.252, 485.8931
1095.351, 476.3386
1096.451, 468.9395
1097.550, 346.7222
1098.649, 418.6133
1099.748, 353.5503
1100.846, 351.4368
1101.945, 330.1040
1103.043, 341.9707
1104.141, 297.7178
1105.239, 241.5564
1106.337, 234.6050
1107.434, 281.0969
1108.532, 225.8511
1109.629, 182.4233
1110.726, 242.0188
1111.823, 229.6763
1112.920, 199.1289
1114.017, 227.5662
1115.113, 194.1475
1116.210, 212.9763
1117.306, 294.4133
1118.402, 328.8884
1119.498, 485.2764
1120.593, 477.5183
1121.689, 590.8777
1122.784, 494.4084
1123.879, 528.9697
1124.974, 532.2656
1126.069, 468.5234
1127.164, 472.1172
1128.259, 379.3604
1129.353, 266.7656
1130.447, 230.0190
1131.541, 94.36279
1132.635, 78.74683
1133.729, 67.03662
1134.822, 69.39551
1135.916, 22.17920
1137.009, 22.13599
1138.102, 6.085449
1139.195, 49.50830
1140.288, 66.92896
1141.380, 1.273682
1142.473, 49.31738
1143.565, 21.52124
1144.657, 27.22363
1145.749, 9.806641
1146.841, 20.24438
1147.932, 0.2675780
1149.024, 30.84131
1150.115, 32.14233
1151.206, 43.17847
1152.297, 20.86914
1153.388, 26.00928
1154.479, 26.96924
1155.569, 15.33472
1156.659, 64.41919
1157.750, 1.282959
1158.839, 25.03418
1159.929, 33.38159
1161.019, 46.76782
1162.108, 24.80078
1163.198, 31.64868
1164.287, 1.863525
1165.376, 53.64624
1166.465, 6.069824
1167.553, 12.65747
1168.642, 44.27661
1169.730, 20.05591
1170.818, 8.632080
1171.906, 62.35107
1172.994, 68.13013
1174.082, 94.97241
1175.170, 17.85303
1176.257, 0.1879880
1177.344, 50.80054
1178.431, 8.845703
1179.518, 10.92651
1180.605, 37.04419
1181.691, 58.21338
1182.778, 6.445313
1183.864, 63.71387
1184.950, 5.951172
1186.036, 36.58472
1187.122, 13.80615
1188.207, 6.239014
1189.292, 3.710693
1190.378, 12.22070
1191.463, 20.77344
1192.548, 32.37451
1193.632, 3.030029
1194.717, 65.72559
1195.801, 28.49414
1196.886, 26.68335
1197.970, 43.16821
1199.054, 25.08252
1200.137, 32.04980
1201.221, 35.65771
1202.305, 59.84082
1203.388, 1.729004
1204.471, 23.57642
1205.554, 64.39185
1206.637, 11.18042
1207.719, 70.93286
1208.802, 20.65771
1209.884, 45.34863
1210.966, 90.01099
1212.048, 25.64624
1213.130, 96.24829
1214.212, 88.82324
1215.293, 76.37085
1216.374, 66.89062
1217.456, 74.38232
1218.536, 34.84595
1219.617, 3.723145
1220.698, 87.66016
1221.778, 33.01489
1222.859, 11.33667
1223.939, 116.6174
1225.019, 122.8708
1226.099, 86.09668
1227.178, 57.29443
1228.258, 49.46191
1229.337, 47.21289
1230.417, 50.70190
1231.496, 72.77490
1232.574, 52.91016
1233.653, 63.83325
1234.732, 55.81201
1235.810, 43.76245
1236.888, 111.6797
1237.966, 63.56860
1239.044, 91.42676
1240.122, 85.25610
1241.199, 75.05591
1242.277, 117.8259
1243.354, 120.5674
1244.431, 85.28076
1245.508, 57.96460
1246.585, 117.6165
1247.661, 107.2400
1248.738, 126.8345
1249.814, 201.4009
1250.890, 130.9404
1251.966, 88.45142
1253.042, 82.93286
1254.117, 141.3845
1255.193, 148.8079
1256.268, 77.20483
1257.343, 148.5710
1258.418, 107.9116
1259.493, 142.2229
1260.567, 118.5063
1261.642, 106.7617
1262.716, 126.9875
1263.790, 108.1853
1264.864, 90.35425
1265.938, 111.9744
1267.011, 47.08545
1268.085, 86.16162
1269.158, 85.20825
1270.231, 94.22534
1271.304, 163.2000
1272.377, 132.1606
1273.450, 53.40698
1274.522, 179.3069
1275.594, 62.87915
1276.666, 157.9927
1277.738, 122.7063
1278.810, 141.4944
1279.882, 145.7766
1280.953, 115.2747
1282.025, 93.95654
1283.096, 120.3499
1284.167, 190.9812
1285.238, 145.5315
1286.308, 182.2532
1287.379, 211.6528
1288.449, 161.6736
1289.519, 166.0850
1290.589, 209.5718
1291.659, 161.9529
1292.729, 219.2229
1293.798, 235.4023
1294.868, 120.1282
1295.937, 159.7583
1297.006, 201.8960
1298.075, 195.9697
1299.143, 151.0974
1300.212, 184.2532
1301.280, 154.9602
1302.348, 179.2292
1303.416, 123.7407
1304.484, 145.1006
1305.552, 221.3618
1306.620, 162.4333
1307.687, 175.0693
1308.754, 182.5081
1309.821, 190.2407
1310.888, 180.5869
1311.955, 220.1184
1313.021, 165.9922
1314.088, 200.1602
1315.154, 220.9258
1316.220, 207.7498
1317.286, 201.0869
1318.352, 207.9802
1319.417, 195.2056
1320.483, 221.3235
1321.548, 200.6870
1322.613, 234.8362
1323.678, 281.9956
1324.743, 252.4392
1325.807, 265.7654
1326.872, 211.1855
1327.936, 203.7791
1329.000, 291.8003
1330.064, 235.5481
1331.128, 275.0400
1332.191, 349.0571
1333.255, 263.0242
1334.318, 293.4717
1335.381, 305.1023
1336.444, 253.5359
1337.507, 330.2500
1338.569, 354.5349
1339.632, 318.0339
1340.694, 351.8052
1341.756, 418.2471
1342.818, 381.6387
1343.880, 436.9724
1344.941, 377.2349
1346.003, 473.5107
1347.064, 446.3350
1348.125, 456.3958
1349.186, 520.6738
1350.247, 556.3621
1351.308, 641.1953
1352.368, 657.7419
1353.428, 620.9023
1354.489, 705.0908
1355.549, 755.0833
1356.608, 782.9524
1357.668, 696.7610
1358.727, 844.6055
1359.787, 872.6541
1360.846, 1023.488
1361.905, 973.4272
1362.964, 976.2595
1364.022, 1125.867
1365.081, 1156.016
1366.139, 1261.887
1367.197, 1238.925
1368.255, 1191.925
1369.313, 1345.847
1370.371, 1442.958
1371.428, 1478.068
1372.486, 1457.020
1373.543, 1483.708
1374.600, 1577.772
1375.657, 1627.781
1376.713, 1613.862
1377.770, 1600.074
1378.826, 1569.151
1379.882, 1506.042
1380.938, 1596.884
1381.994, 1505.977
1383.050, 1474.220
1384.106, 1500.980
1385.161, 1410.387
1386.216, 1354.339
1387.271, 1256.391
1388.326, 1170.334
1389.381, 1103.220
1390.435, 1030.252
1391.490, 1041.130
1392.544, 953.9229
1393.598, 914.9160
1394.652, 842.1465
1395.705, 790.8872
1396.759, 712.6985
1397.812, 728.4829
1398.866, 646.5518
1399.919, 649.4861
1400.972, 507.8164
1402.024, 540.9556
1403.077, 468.4329
1404.129, 500.5188
1405.181, 453.4905
1406.233, 428.7629
1407.285, 457.7590
1408.337, 331.6687
1409.389, 274.4629
1410.440, 287.3770
1411.491, 298.3682
1412.542, 275.8262
1413.593, 287.9497
1414.644, 235.0742
1415.695, 274.2029
1416.745, 229.3389
1417.795, 181.5676
1418.845, 133.7190
1419.895, 118.8816
1420.945, 161.1528
1421.995, 146.2039
1423.044, 150.4482
1424.093, 115.6450
1425.142, 144.8589
1426.191, 132.0757
1427.240, 113.2920
1428.289, 103.5317
1429.337, 156.7969
1430.385, 81.01318
1431.433, 114.2803
1432.481, 66.55396
1433.529, 62.85156
1434.577, 88.25708
1435.624, 59.55981
1436.672, 39.71143
1437.719, 88.05103
1438.766, 50.39746
1439.812, 54.77051
1440.859, 87.15210
1441.905, 50.53125
1442.952, 4.821533
1443.998, 37.25708
1445.044, 99.31396
1446.090, 52.29272
1447.135, 42.86011
1448.181, 62.98389
1449.226, 63.16675
1450.271, 76.37695
1451.316, 50.64160
1452.361, 85.95142
1453.405, 5.273438
1454.450, 37.59814
1455.494, 83.92725
1456.538, 83.25806
1457.582, 22.59180
1458.626, 42.92285
1459.670, 65.25317
1460.713, 9.400879
1461.757, 107.9592
1462.800, 40.33716
1463.843, 12.71484
1464.886, 14.09888
1465.928, 45.49268
1466.971, 120.8945
1468.013, 77.30542
1469.055, 21.72827
1470.097, 141.1587
1471.139, 92.59692
1472.181, 156.0415
1473.222, 81.49561
1474.263, 83.95972
1475.305, 145.4302
1476.346, 92.90820
1477.386, 128.3972
1478.427, 103.8938
1479.468, 86.36987
1480.508, 114.9111
1481.548, 79.43652
1482.588, 81.97559
1483.628, 138.5322
1484.668, 125.1099
1485.707, 173.7031
1486.747, 74.31470
1487.786, 73.94580
1488.825, 96.59375
1489.864, 124.2529
1490.902, 88.93042
1491.941, 140.6196
1492.979, 93.31079
1494.017, 108.0159
1495.055, 61.73340
1496.093, 103.4644
1497.131, 66.20801
1498.168, 50.96558
1499.206, 48.73633
1500.243, 65.52002
1501.280, 124.3174
1502.317, 101.1284
1503.354, 114.9517
1504.390, 114.7725
1505.426, 105.5908
1506.463, 62.41992
1507.499, 1.071045
1508.535, 42.92310
1509.570, 10.19727
1510.606, 24.70996
1511.641, 71.63818
1512.676, 93.40161
1513.711, 123.3650
1514.746, 19.32153
1515.781, 46.32544
1516.816, 51.81885
1517.850, 10.73682
1518.884, 118.6868
1519.918, 79.76343
1520.952, 18.83203
1521.986, 76.95483
1523.019, 55.10181
1524.053, 103.2734
1525.086, 59.47168
1526.119, 30.69653
1527.152, 48.94946
1528.185, 34.22998
1529.217, 26.53833
1530.250, 4.124756
1531.282, 74.24048
1532.314, 42.63550
1533.346, 156.0613
1534.377, 114.5186
1535.409, 13.99072
1536.440, 5.466553
1537.472, 70.09351
1538.503, 76.69067
1539.534, 137.8223
1540.564, 76.23096
1541.595, 39.74609
1542.625, 77.45898
1543.656, 63.90869
1544.686, 37.20557
1545.716, 63.05469
1546.745, 52.52197
1547.775, 133.4546
1548.804, 131.1528
1549.834, 182.9204
1550.863, 145.6287
1551.892, 193.4602
1552.920, 109.4817
1553.949, 189.9392
1554.977, 295.4158
1556.006, 162.9216
1557.034, 76.73169
1558.062, 54.12158
1559.089, 96.72241
1560.117, 11.24268
1561.144, 109.6951
1562.172, 100.4714
1563.199, 165.2190
1564.226, 131.8799
1565.252, 131.5940
1566.279, 38.85718
1567.305, 12.19751
1568.332, 71.88184
1569.358, 2.427246
1570.384, 0.0000000E+00
##END=



