##NAMES=Serandite
##RRUFFID=R050261
##IDEAL CHEMISTRY=NaMn^2+^_2_Si_3_O_8_(OH)
##LOCALITY=Mont Saint-Hilaire, Rouville County, Quebec, Canada
##OWNER=RRUFF
##SOURCE=Marcus Origlieri
##DESCRIPTION=Orange tabular single crystal associated with aegirine and microcline
##STATUS=The identification of this mineral has been confirmed by X-ray diffraction and chemical analysis
##URL=rruff.info/R050261
##MEASURED CHEMISTRY=Na_0.96_(Mn_0.92_Ca_0.06_Fe_0.01_)_2_Si_3.03_O_8_(OH)
##PIN_ID=L01713
##ORIENTATION=Laser parallel to -a* (-1 0 0). Fiducial mark perpendicular to laser is parallel to b [0 1 0]
93.48000, 0.0000000E+00
94.71400, 12.75708
95.94800, 90.50330
97.18200, 14.60974
98.41600, 13.78052
99.64900, 74.91760
100.8830, 145.6287
102.1160, 119.5050
103.3490, 162.0438
104.5820, 295.9008
105.8150, 350.6877
107.0470, 488.0525
108.2800, 582.7039
109.5120, 646.4142
110.7440, 692.1455
111.9760, 523.0867
113.2080, 426.2114
114.4400, 443.2439
115.6710, 569.9592
116.9030, 585.1948
118.1340, 499.8304
119.3650, 462.7773
120.5960, 462.9684
121.8270, 427.9927
123.0580, 333.8944
124.2880, 458.5610
125.5190, 478.3961
126.7490, 583.0560
127.9790, 795.0159
129.2090, 1114.639
130.4390, 1456.541
131.6680, 1865.679
132.8980, 2367.437
134.1270, 2898.795
135.3560, 3334.796
136.5850, 3819.480
137.8140, 4347.881
139.0430, 4445.029
140.2710, 4216.953
141.5000, 3679.676
142.7280, 2925.218
143.9560, 2167.599
145.1840, 1488.835
146.4120, 1134.941
147.6390, 806.8430
148.8670, 618.3082
150.0940, 598.6074
151.3210, 581.3149
152.5490, 628.9457
153.7750, 752.5071
155.0020, 966.0063
156.2290, 1104.025
157.4550, 1339.869
158.6810, 1635.775
159.9080, 2074.478
161.1340, 2447.392
162.3590, 2855.492
163.5850, 3146.108
164.8110, 3537.496
166.0360, 3868.798
167.2610, 4234.570
168.4860, 4114.824
169.7110, 4025.822
170.9360, 3736.344
172.1610, 3190.930
173.3850, 2609.584
174.6100, 2120.309
175.8340, 1726.102
177.0580, 1416.967
178.2820, 1270.902
179.5050, 1230.906
180.7290, 1129.978
181.9520, 1087.116
183.1760, 1109.319
184.3990, 1148.586
185.6220, 1190.914
186.8450, 1303.301
188.0670, 1397.745
189.2900, 1696.242
190.5120, 1866.793
191.7340, 2062.395
192.9560, 2146.047
194.1780, 2120.746
195.4000, 1963.495
196.6220, 1964.291
197.8430, 1722.133
199.0640, 1455.021
200.2860, 1296.953
201.5070, 1214.931
202.7270, 1090.967
203.9480, 969.0350
205.1690, 832.1310
206.3890, 651.2550
207.6090, 562.4080
208.8290, 425.5902
210.0490, 399.8025
211.2690, 287.0443
212.4890, 269.3163
213.7080, 235.6185
214.9280, 142.9512
216.1470, 189.3145
217.3660, 152.7084
218.5850, 10.13293
219.8030, 21.58850
221.0220, 10.07483
222.2400, 28.40796
223.4590, 28.85986
224.6770, 27.28064
225.8950, 89.67053
227.1120, 67.02954
228.3300, 35.35754
229.5480, 105.6565
230.7650, 86.92957
231.9820, 68.20618
233.1990, 121.4957
234.4160, 117.8146
235.6330, 129.1748
236.8490, 99.59473
238.0660, 98.10632
239.2820, 62.69019
240.4980, 78.33496
241.7140, 87.20630
242.9300, 18.03760
244.1460, 31.52258
245.3610, 33.47339
246.5770, 89.20886
247.7920, 120.0649
249.0070, 191.0260
250.2220, 166.0793
251.4370, 309.2136
252.6510, 355.4192
253.8660, 502.6890
255.0800, 699.0164
256.2940, 802.3965
257.5080, 947.8237
258.7220, 1014.293
259.9360, 1121.799
261.1490, 1183.336
262.3630, 1092.902
263.5760, 989.4946
264.7890, 906.1113
266.0020, 904.7505
267.2150, 791.4116
268.4270, 851.0933
269.6400, 691.7947
270.8520, 759.5156
272.0640, 735.2551
273.2760, 747.0090
274.4880, 710.7715
275.7000, 747.5349
276.9120, 831.2939
278.1230, 798.0474
279.3340, 895.7969
280.5450, 920.5444
281.7560, 1051.292
282.9670, 1106.040
284.1780, 1209.791
285.3880, 1302.545
286.5980, 1369.304
287.8090, 1466.069
289.0190, 1543.840
290.2290, 1571.620
291.4380, 1665.408
292.6480, 1711.214
293.8570, 1776.033
295.0670, 1892.864
296.2760, 1893.709
297.4850, 1935.575
298.6930, 1862.463
299.9020, 1820.377
301.1110, 1750.422
302.3190, 1575.260
303.5270, 1548.225
304.7350, 1359.164
305.9430, 1230.050
307.1510, 1153.091
308.3580, 1028.087
309.5660, 955.1213
310.7730, 917.9829
311.9800, 878.5107
313.1870, 818.9917
314.3940, 798.4810
315.6010, 843.9790
316.8070, 888.5044
318.0130, 914.0552
319.2200, 1047.647
320.4260, 1147.271
321.6310, 1295.924
322.8370, 1479.600
324.0430, 1599.301
325.2480, 1785.026
326.4540, 1943.776
327.6590, 1937.549
328.8640, 1995.345
330.0680, 1963.166
331.2730, 1956.008
332.4780, 1855.874
333.6820, 1643.763
334.8860, 1556.674
336.0900, 1394.607
337.2940, 1292.563
338.4980, 1182.541
339.7010, 1111.541
340.9050, 1033.563
342.1080, 970.6062
343.3110, 1021.671
344.5140, 1000.758
345.7170, 1141.866
346.9200, 1161.995
348.1220, 1343.144
349.3240, 1367.315
350.5270, 1536.506
351.7290, 1709.718
352.9310, 2049.952
354.1320, 2301.205
355.3340, 2723.479
356.5350, 3149.773
357.7370, 3799.088
358.9380, 4419.424
360.1390, 5086.779
361.3400, 5872.155
362.5400, 6712.551
363.7410, 7395.719
364.9410, 7957.154
366.1410, 8147.408
367.3410, 8090.859
368.5410, 7846.092
369.7410, 7220.023
370.9400, 6372.377
372.1400, 5361.756
373.3390, 4432.495
374.5380, 3685.780
375.7370, 3124.150
376.9360, 2495.671
378.1350, 2128.124
379.3330, 1668.849
380.5310, 1323.965
381.7300, 1146.874
382.9280, 925.9341
384.1260, 844.1016
385.3230, 722.4341
386.5210, 592.2979
387.7180, 582.1335
388.9160, 533.1765
390.1130, 471.0620
391.3100, 470.9692
392.5060, 493.8984
393.7030, 474.8489
394.9000, 506.8198
396.0960, 577.8115
397.2920, 646.8232
398.4880, 717.8550
399.6840, 848.9060
400.8800, 999.9766
402.0750, 1226.181
403.2710, 1508.175
404.4660, 1797.302
405.6610, 2162.449
406.8560, 2541.614
408.0510, 3158.797
409.2450, 3659.999
410.4400, 4406.219
411.6340, 5142.458
412.8280, 6017.714
414.0220, 6911.988
415.2160, 7614.281
416.4100, 8332.592
417.6030, 8769.920
418.7970, 8982.268
419.9900, 9032.629
421.1830, 8753.010
422.3760, 8143.412
423.5690, 7427.828
424.7610, 6644.265
425.9540, 5799.718
427.1460, 4976.190
428.3380, 4185.679
429.5300, 3536.187
430.7220, 2888.713
431.9140, 2354.257
433.1050, 1966.934
434.2970, 1663.514
435.4880, 1438.122
436.6790, 1079.260
437.8700, 909.3596
439.0610, 724.6223
440.2510, 576.4351
441.4420, 447.4954
442.6320, 353.4077
443.8220, 237.5881
445.0120, 161.2036
446.2020, 98.83472
447.3910, 20.67700
448.5810, 50.60425
449.7700, 14.43628
450.9600, 16.32104
452.1490, 52.98389
453.3370, 17.03320
454.5260, 50.01294
455.7150, 13.94775
456.9030, 140.9590
458.0910, 216.8523
459.2800, 319.8943
460.4670, 337.8215
461.6550, 476.1743
462.8430, 512.6064
464.0300, 547.8967
465.2180, 532.8877
466.4050, 458.8945
467.5920, 366.9163
468.7790, 345.9551
469.9650, 257.0090
471.1520, 188.0779
472.3380, 204.1638
473.5250, 184.2651
474.7110, 251.3831
475.8970, 237.5193
477.0820, 224.6807
478.2680, 299.8718
479.4540, 374.0791
480.6390, 375.3179
481.8240, 470.5754
483.0090, 710.8481
484.1940, 955.1394
485.3780, 1021.447
486.5630, 1361.777
487.7470, 1637.122
488.9320, 2116.487
490.1160, 2522.867
491.3000, 3141.266
492.4830, 3142.688
493.6670, 3311.127
494.8500, 3052.582
496.0340, 2657.051
497.2170, 2129.540
498.4000, 1609.043
499.5820, 1196.563
500.7650, 923.1057
501.9480, 624.6646
503.1300, 434.2544
504.3120, 313.8599
505.4940, 229.4863
506.6760, 204.1284
507.8580, 135.8003
509.0390, 113.4890
510.2210, 31.20142
511.4020, 19.05322
512.5830, 41.96606
513.7640, 20.50562
514.9450, 45.66211
516.1250, 34.81641
517.3060, 59.07251
518.4860, 49.00488
519.6660, 111.9670
520.8460, 165.9753
522.0260, 223.0254
523.2060, 323.1296
524.3850, 466.2754
525.5650, 414.4570
526.7440, 568.6667
527.9230, 561.9121
529.1020, 652.1968
530.2810, 674.4915
531.4590, 710.8027
532.6380, 768.1270
533.8160, 783.4595
534.9940, 885.7981
536.1720, 957.1489
537.3500, 936.5071
538.5270, 955.8711
539.7050, 996.2415
540.8820, 993.6255
542.0590, 983.1929
543.2360, 957.4258
544.4130, 909.8413
545.5900, 886.2620
546.7660, 802.9963
547.9430, 770.1169
549.1190, 696.5544
550.2950, 636.9136
551.4710, 572.4497
552.6470, 518.9141
553.8220, 442.3813
554.9980, 391.8596
556.1730, 404.3408
557.3480, 397.8242
558.5230, 339.3113
559.6980, 248.8035
560.8730, 279.3032
562.0470, 128.8232
563.2220, 205.3472
564.3960, 204.8723
565.5700, 115.3994
566.7440, 103.9299
567.9170, 67.46118
569.0910, 106.9924
570.2640, 77.52368
571.4380, 102.0645
572.6110, 68.60791
573.7840, 2.150146
574.9570, 10.70117
576.1290, 33.75024
577.3020, 5.220459
578.4740, 3.698486
579.6460, 6.185059
580.8180, 33.67627
581.9900, 38.19019
583.1620, 48.72559
584.3330, 20.29346
585.5040, 26.88086
586.6760, 23.16797
587.8470, 15.21362
589.0180, 29.77051
590.1880, 12.44604
591.3590, 31.33813
592.5290, 34.29370
593.7000, 60.39380
594.8700, 45.45679
596.0400, 9.711426
597.2090, 91.12988
598.3790, 30.96802
599.5490, 9.057617
600.7180, 21.13599
601.8870, 45.79492
603.0560, 14.26294
604.2250, 6.239258
605.3940, 35.23022
606.5620, 64.24170
607.7300, 127.2122
608.8990, 123.5190
610.0670, 155.5967
611.2350, 139.6038
612.4020, 136.0137
613.5700, 219.2607
614.7370, 237.7051
615.9050, 276.4626
617.0720, 294.9077
618.2390, 344.3457
619.4060, 395.9312
620.5720, 424.8818
621.7390, 415.9612
622.9050, 418.3020
624.0710, 476.2507
625.2370, 562.9812
626.4030, 598.8892
627.5690, 683.8047
628.7340, 700.6929
629.9000, 861.2505
631.0650, 916.3298
632.2300, 1059.698
633.3950, 1077.673
634.5600, 1156.945
635.7240, 1390.670
636.8890, 1526.140
638.0530, 1706.584
639.2170, 1909.480
640.3810, 2086.500
641.5450, 2272.711
642.7080, 2549.054
643.8720, 2770.874
645.0350, 3137.916
646.1980, 3521.315
647.3610, 3856.397
648.5240, 4454.124
649.6870, 5054.499
650.8490, 5721.080
652.0120, 6676.799
653.1740, 7679.205
654.3360, 9400.367
655.4980, 11185.15
656.6600, 13502.45
657.8210, 16363.61
658.9830, 19742.63
660.1440, 23982.38
661.3050, 29164.51
662.4660, 34726.79
663.6270, 40639.91
664.7870, 46620.08
665.9480, 51239.27
667.1080, 53448.44
668.2680, 52582.06
669.4280, 48618.05
670.5880, 42497.68
671.7480, 35544.37
672.9070, 28987.98
674.0670, 23104.44
675.2260, 18571.91
676.3850, 14814.55
677.5440, 12140.92
678.7030, 10072.30
679.8610, 8540.353
681.0200, 7444.618
682.1780, 6269.537
683.3360, 5484.764
684.4940, 4968.990
685.6520, 4319.139
686.8090, 3842.316
687.9670, 3539.138
689.1240, 3151.365
690.2810, 2994.022
691.4380, 2671.660
692.5950, 2480.612
693.7520, 2238.158
694.9080, 2138.214
696.0650, 2070.054
697.2210, 1936.120
698.3770, 1864.504
699.5330, 1805.513
700.6880, 1677.533
701.8440, 1745.738
702.9990, 1638.331
704.1550, 1612.219
705.3100, 1474.379
706.4650, 1377.929
707.6190, 1302.537
708.7740, 1221.030
709.9290, 1124.683
711.0830, 1153.735
712.2370, 1222.104
713.3910, 1236.956
714.5450, 1235.199
715.6980, 1435.790
716.8520, 1549.507
718.0050, 1637.178
719.1580, 1868.555
720.3110, 1709.542
721.4640, 1720.094
722.6170, 1486.805
723.7700, 1202.867
724.9220, 1074.785
726.0740, 864.7419
727.2260, 783.3633
728.3780, 625.5320
729.5300, 580.7854
730.6810, 549.9858
731.8330, 503.7202
732.9840, 418.8848
734.1350, 386.8784
735.2860, 331.0513
736.4370, 313.1829
737.5880, 288.8840
738.7380, 335.0549
739.8880, 249.9788
741.0390, 271.4570
742.1890, 226.8357
743.3380, 247.3362
744.4880, 193.1155
745.6380, 204.8582
746.7870, 118.5649
747.9360, 171.2322
749.0850, 185.8623
750.2340, 87.45532
751.3830, 124.0081
752.5310, 74.52148
753.6800, 42.99414
754.8280, 2.577148
755.9760, 20.79761
757.1240, 66.09302
758.2720, 27.64795
759.4190, 24.53931
760.5670, 79.67847
761.7140, 27.77686
762.8610, 36.82837
764.0080, 2.835449
765.1550, 71.78638
766.3020, 9.696289
767.4480, 42.55396
768.5950, 18.36743
769.7410, 6.867432
770.8870, 19.83740
772.0330, 63.49414
773.1780, 27.10889
774.3240, 5.677734
775.4690, 40.19336
776.6140, 17.66504
777.7590, 11.91113
778.9040, 19.45068
780.0490, 43.23486
781.1940, 16.00122
782.3380, 7.810547
783.4820, 31.31860
784.6260, 41.59692
785.7700, 14.41113
786.9140, 27.37158
788.0580, 19.71265
789.2010, 38.13867
790.3450, 24.05029
791.4880, 0.7014160
792.6310, 2.599854
793.7730, 35.94775
794.9160, 17.36182
796.0590, 34.16260
797.2010, 3.644531
798.3430, 21.07690
799.4850, 22.53491
800.6270, 4.808838
801.7690, 13.06250
802.9100, 11.28979
804.0520, 8.528320
805.1930, 16.40039
806.3340, 13.66919
807.4750, 43.69531
808.6160, 4.319092
809.7560, 35.61572
810.8970, 55.50977
812.0370, 3.635010
813.1770, 20.17065
814.3170, 53.93530
815.4570, 43.66113
816.5960, 16.65283
817.7360, 55.97900
818.8750, 48.42798
820.0140, 48.09473
821.1530, 40.57910
822.2920, 51.02466
823.4310, 35.43213
824.5690, 4.198730
825.7070, 18.12524
826.8460, 19.59058
827.9840, 20.35889
829.1220, 46.82007
830.2590, 21.03809
831.3970, 14.05127
832.5340, 47.10229
833.6710, 3.116699
834.8080, 6.908203
835.9450, 17.97632
837.0820, 67.09253
838.2190, 7.282471
839.3550, 51.48560
840.4910, 1.781738
841.6270, 10.08765
842.7630, 33.56396
843.8990, 10.18018
845.0350, 27.76050
846.1700, 38.69385
847.3060, 14.20361
848.4410, 28.24512
849.5760, 47.34106
850.7100, 39.01611
851.8450, 8.660889
852.9800, 19.63428
854.1140, 33.89795
855.2480, 21.86890
856.3820, 15.32593
857.5160, 24.50317
858.6500, 61.63696
859.7830, 130.7600
860.9170, 54.86157
862.0500, 79.94067
863.1830, 14.99780
864.3160, 141.0293
865.4480, 107.0447
866.5810, 76.04395
867.7130, 128.0264
868.8460, 109.9941
869.9780, 121.9558
871.1100, 99.91772
872.2410, 85.85303
873.3730, 129.3367
874.5050, 177.6980
875.6360, 226.5840
876.7670, 255.4507
877.8980, 325.3093
879.0290, 291.1511
880.1590, 339.9712
881.2900, 464.7373
882.4200, 413.5103
883.5500, 544.9143
884.6800, 639.5210
885.8100, 673.1646
886.9400, 837.3752
888.0690, 998.7146
889.1990, 1117.847
890.3280, 1432.632
891.4570, 1722.695
892.5860, 2007.603
893.7140, 2229.584
894.8430, 2629.036
895.9710, 3102.325
897.1000, 3384.320
898.2280, 3538.673
899.3560, 3521.209
900.4830, 3521.531
901.6110, 3126.408
902.7380, 2900.102
903.8660, 2569.690
904.9930, 2154.722
906.1200, 1871.429
907.2460, 1665.494
908.3730, 1416.226
909.5000, 1280.471
910.6260, 1179.935
911.7520, 973.3887
912.8780, 865.3545
914.0040, 697.7300
915.1290, 736.7407
916.2550, 609.1509
917.3800, 705.0479
918.5050, 592.6914
919.6300, 556.9419
920.7550, 561.4746
921.8800, 598.3267
923.0040, 477.4951
924.1290, 531.4229
925.2530, 548.7383
926.3770, 496.4209
927.5010, 411.6729
928.6250, 567.7280
929.7480, 470.7017
930.8720, 471.8569
931.9950, 475.1270
933.1180, 444.6533
934.2410, 505.7524
935.3640, 563.6777
936.4860, 607.7300
937.6090, 571.6763
938.7310, 636.5864
939.8530, 738.4565
940.9750, 676.8511
942.0970, 858.8413
943.2180, 863.1851
944.3400, 984.4126
945.4610, 1069.684
946.5820, 1197.084
947.7030, 1355.435
948.8240, 1490.813
949.9450, 1637.854
951.0650, 1831.282
952.1860, 1966.904
953.3060, 2168.282
954.4260, 2411.967
955.5460, 2645.305
956.6650, 3043.604
957.7850, 3330.944
958.9040, 3823.216
960.0230, 4291.804
961.1420, 4729.949
962.2610, 5257.637
963.3800, 5712.303
964.4990, 6319.615
965.6170, 7091.294
966.7350, 7638.425
967.8530, 8489.733
968.9710, 9116.771
970.0890, 10156.52
971.2070, 10944.55
972.3240, 11989.54
973.4410, 13067.30
974.5580, 14395.64
975.6750, 15408.65
976.7920, 16427.34
977.9090, 17380.63
979.0250, 18144.88
980.1410, 18066.24
981.2580, 17416.29
982.3740, 16221.91
983.4890, 14579.16
984.6050, 12906.82
985.7200, 11167.13
986.8360, 10007.06
987.9510, 8889.309
989.0660, 8127.647
990.1810, 7377.112
991.2950, 7003.393
992.4100, 6575.771
993.5240, 6539.256
994.6390, 6234.031
995.7530, 6129.491
996.8660, 6115.058
997.9800, 5940.452
999.0940, 5962.576
1000.207, 5911.760
1001.320, 6018.838
1002.433, 6142.383
1003.546, 6391.184
1004.659, 6572.826
1005.772, 6888.557
1006.884, 7258.598
1007.996, 8006.477
1009.108, 8517.564
1010.220, 9462.861
1011.332, 10606.11
1012.444, 12133.30
1013.555, 13639.49
1014.666, 15285.77
1015.777, 17383.86
1016.888, 19135.23
1017.999, 20896.93
1019.110, 22086.23
1020.220, 22988.12
1021.331, 22562.31
1022.441, 21671.07
1023.551, 19858.26
1024.661, 17784.50
1025.770, 15643.71
1026.880, 13603.54
1027.989, 11591.37
1029.098, 10080.66
1030.207, 8406.488
1031.316, 7285.668
1032.425, 6354.661
1033.533, 5361.502
1034.642, 4835.825
1035.750, 4231.581
1036.858, 3732.857
1037.966, 3245.185
1039.073, 3010.347
1040.181, 2724.485
1041.288, 2462.652
1042.396, 2356.985
1043.503, 2271.250
1044.610, 2037.327
1045.716, 1967.448
1046.823, 1740.685
1047.929, 1706.802
1049.036, 1583.726
1050.142, 1391.782
1051.248, 1283.053
1052.353, 1223.248
1053.459, 1122.729
1054.564, 1142.161
1055.670, 1057.219
1056.775, 1048.810
1057.880, 948.2339
1058.985, 944.4956
1060.089, 883.2988
1061.194, 853.6748
1062.298, 812.2124
1063.402, 816.0889
1064.506, 796.1992
1065.610, 759.1006
1066.713, 735.1255
1067.817, 675.5747
1068.920, 636.0894
1070.023, 589.3105
1071.126, 574.0547
1072.229, 539.5830
1073.332, 512.1943
1074.435, 498.6890
1075.537, 394.6772
1076.639, 467.2852
1077.741, 423.9028
1078.843, 397.3838
1079.945, 447.7979
1081.046, 489.3442
1082.148, 360.7241
1083.249, 340.2344
1084.350, 281.6826
1085.451, 276.0576
1086.551, 423.6196
1087.652, 272.1021
1088.752, 260.2920
1089.853, 149.5459
1090.953, 262.1138
1092.053, 319.5610
1093.152, 295.0464
1094.252, 191.8960
1095.351, 151.0635
1096.451, 133.9180
1097.550, 99.36621
1098.649, 68.94189
1099.748, 87.01514
1100.846, 54.43896
1101.945, 34.29199
1103.043, 132.1890
1104.141, 139.9565
1105.239, 137.6016
1106.337, 137.1055
1107.434, 109.6045
1108.532, 118.4951
1109.629, 51.67676
1110.726, 43.85449
1111.823, 35.10840
1112.920, 79.47070
1114.017, 94.02930
1115.113, 93.36279
1116.210, 58.62500
1117.306, 107.9688
1118.402, 109.1128
1119.498, 98.58105
1120.593, 191.6738
1121.689, 208.1885
1122.784, 329.4360
1123.879, 378.7500
1124.974, 291.4971
1126.069, 275.6279
1127.164, 262.6475
1128.259, 172.9707
1129.353, 74.28174
1130.447, 27.46289
1131.541, 34.36572
1132.635, 29.39160
1133.729, 17.27393
1134.822, 12.55127
1135.916, 59.91406
1137.009, 93.74512
1138.102, 7.539063
1139.195, 91.09814
1140.288, 53.03076
1141.380, 29.63232
1142.473, 16.61133
1143.565, 29.15723
1144.657, 32.16016
1145.749, 10.38379
1146.841, 56.69287
1147.932, 1.873535
1149.024, 35.47217
1150.115, 5.011230
1151.206, 17.28027
1152.297, 33.21143
1153.388, 100.0981
1154.479, 36.57373
1155.569, 26.56592
1156.659, 36.16016
1157.750, 136.2080
1158.839, 133.7319
1159.929, 27.90967
1161.019, 11.93506
1162.108, 55.73926
1163.198, 101.7217
1164.287, 146.8179
1165.376, 26.58057
1166.465, 77.30420
1167.553, 40.60156
1168.642, 29.21973
1169.730, 70.21240
1170.818, 79.14258
1171.906, 74.18799
1172.994, 34.89600
1174.082, 53.00293
1175.170, 99.59766
1176.257, 62.18652
1177.344, 91.78516
1178.431, 95.41406
1179.518, 142.9849
1180.605, 116.2700
1181.691, 13.33984
1182.778, 86.98633
1183.864, 19.15869
1184.950, 35.58154
1186.036, 46.81592
1187.122, 79.04199
1188.207, 12.63965
1189.292, 9.434570
1190.378, 17.66992
1191.463, 59.31592
1192.548, 22.76318
1193.632, 0.2592770
1194.717, 67.95996
1195.801, 32.33252
1196.886, 17.87891
1197.970, 52.76270
1199.054, 39.84863
1200.137, 52.75293
1201.221, 44.82324
1202.305, 38.71094
1203.388, 20.29346
1204.471, 8.710938
1205.554, 42.14746
1206.637, 22.05908
1207.719, 20.58301
1208.802, 52.15820
1209.884, 67.94434
1210.966, 37.42285
1212.048, 76.68604
1213.130, 44.62646
1214.212, 59.28223
1215.293, 16.42041
1216.374, 32.79199
1217.456, 54.63037
1218.536, 123.5967
1219.617, 107.7979
1220.698, 32.17725
1221.778, 60.19824
1222.859, 51.07568
1223.939, 21.28027
1225.019, 126.6602
1226.099, 202.0854
1227.178, 30.27979
1228.258, 107.7656
1229.337, 99.34717
1230.417, 61.67676
1231.496, 197.0967
1232.574, 35.58105
1233.653, 19.02686
1234.732, 25.24951
1235.810, 42.30518
1236.888, 116.0420
1237.966, 109.9009
1239.044, 114.0146
1240.122, 6.366699
1241.199, 92.42139
1242.277, 64.23730
1243.354, 32.66016
1244.431, 69.19629
1245.508, 83.51758
1246.585, 39.64160
1247.661, 110.0068
1248.738, 9.514160
1249.814, 67.18799
1250.890, 26.04736
1251.966, 75.39648
1253.042, 56.33545
1254.117, 24.44385
1255.193, 94.58301
1256.268, 117.3818
1257.343, 50.04932
1258.418, 50.04443
1259.493, 67.77539
1260.567, 65.31592
1261.642, 157.4189
1262.716, 123.1421
1263.790, 55.77539
1264.864, 2.640625
1265.938, 153.6558
1267.011, 117.4595
1268.085, 168.0889
1269.158, 77.01758
1270.231, 214.0879
1271.304, 33.87939
1272.377, 150.2070
1273.450, 50.98926
1274.522, 217.6631
1275.594, 191.4795
1276.666, 156.5542
1277.738, 158.3521
1278.810, 128.6318
1279.882, 69.80469
1280.953, 113.7510
1282.025, 64.99023
1283.096, 53.78955
1284.167, 198.3428
1285.238, 57.72461
1286.308, 173.5449
1287.379, 61.70508
1288.449, 132.4653
1289.519, 131.8911
1290.589, 238.5283
1291.659, 158.5000
1292.729, 128.5820
1293.798, 205.7129
1294.868, 114.3872
1295.937, 149.4883
1297.006, 211.2749
1298.075, 114.2861
1299.143, 126.2949
1300.212, 91.79688
1301.280, 164.8330
1302.348, 71.73926
1303.416, 180.5713
1304.484, 175.0146
1305.552, 165.6982
1306.620, 155.0957
1307.687, 162.2598
1308.754, 231.2842
1309.821, 183.8975
1310.888, 197.8076
1311.955, 226.7285
1313.021, 158.1787
1314.088, 194.8164
1315.154, 188.4102
1316.220, 157.9902
1317.286, 172.9004
1318.352, 271.7080
1319.417, 202.3037
1320.483, 84.14648
1321.548, 186.7832
1322.613, 99.52051
1323.678, 172.8291
1324.743, 90.68066
1325.807, 204.8730
1326.872, 98.65820
1327.936, 246.7939
1329.000, 210.2500
1330.064, 118.6172
1331.128, 182.6045
1332.191, 211.8018
1333.255, 298.6631
1334.318, 232.6396
1335.381, 151.6475
1336.444, 204.7793
1337.507, 219.9131
1338.569, 119.9268
1339.632, 161.0586
1340.694, 228.3936
1341.756, 66.28125
1342.818, 122.3633
1343.880, 126.2432
1344.941, 204.6641
1346.003, 163.7520
1347.064, 72.11328
1348.125, 89.42773
1349.186, 128.3262
1350.247, 151.6777
1351.308, 198.4756
1352.368, 109.5342
1353.428, 221.9170
1354.489, 270.7480
1355.549, 185.9629
1356.608, 152.4131
1357.668, 201.4561
1358.727, 168.9141
1359.787, 167.1982
1360.846, 92.27637
1361.905, 172.2588
1362.964, 199.9062
1364.022, 273.5850
1365.081, 223.3867
1366.139, 151.0088
1367.197, 249.5908
1368.255, 181.1035
1369.313, 152.4717
1370.371, 282.6650
1371.428, 222.5762
1372.486, 263.5381
1373.543, 116.5996
1374.600, 147.6709
1375.657, 175.7031
1376.713, 193.3398
1377.770, 207.4756
1378.826, 112.8096
1379.882, 220.4541
1380.938, 167.0430
1381.994, 145.1738
1383.050, 214.1016
1384.106, 232.6680
1385.161, 140.8984
1386.216, 168.2627
1387.271, 152.4414
1388.326, 28.50586
1389.381, 81.90137
1390.435, 78.09180
1391.490, 158.9111
1392.544, 73.16113
1393.598, 70.30176
1394.652, 242.2949
1395.705, 0.5224610
1396.759, 153.2109
1397.812, 156.3418
1398.866, 51.89355
1399.919, 153.6602
1400.972, 21.10645
1402.024, 96.95996
1403.077, 72.64160
1404.129, 66.33203
1405.181, 86.73438
1406.233, 26.95801
1407.285, 90.87305
1408.337, 170.9180
1409.389, 128.6807
1410.440, 73.33984
1411.491, 83.59082
1412.542, 32.23242
1413.593, 32.04688
1414.644, 65.73145
1415.695, 45.44531
1416.745, 68.15137
1417.795, 118.2227
1418.845, 7.571289
1419.895, 6.914063
1420.945, 114.7725
1421.995, 22.98633
1423.044, 74.35449
1424.093, 232.8828
1425.142, 15.05566
1426.191, 129.9238
1427.240, 219.6992
1428.289, 3.279297
1429.337, 32.25293
1430.385, 99.20215
1431.433, 36.40430
1432.481, 11.83789
1433.529, 31.77539
1434.577, 77.34180
1435.624, 38.12988
1436.672, 5.652344
1437.719, 116.1709
1438.766, 127.7500
1439.812, 82.95605
1440.859, 88.25293
1441.905, 107.4590
1442.952, 231.4785
1443.998, 48.51172
1445.044, 19.13086
1446.090, 199.1992
1447.135, 24.47656
1448.181, 79.92090
1449.226, 9.267578
1450.271, 48.70801
1451.316, 139.6816
1452.361, 57.09961
1453.405, 43.82324
1454.450, 20.28711
1455.494, 176.8730
1456.538, 41.77539
1457.582, 165.5664
1458.626, 30.17285
1459.670, 153.2725
1460.713, 21.76758
1461.757, 127.6699
1462.800, 146.1621
1463.843, 177.4697
1464.886, 104.9795
1465.928, 82.56934
1466.971, 143.5605
1468.013, 98.07031
1469.055, 152.1016
1470.097, 259.6299
1471.139, 63.78613
1472.181, 1.671875
1473.222, 49.94043
1474.263, 30.76758
1475.305, 180.3896
1476.346, 2.557617
1477.386, 126.5635
1478.427, 213.2656
1479.468, 155.1582
1480.508, 112.8613
1481.548, 123.7715
1482.588, 209.0322
1483.628, 62.71094
1484.668, 148.0098
1485.707, 64.82031
1486.747, 53.95703
1487.786, 129.5264
1488.825, 139.8301
1489.864, 169.4473
1490.902, 302.6523
1491.941, 242.8584
1492.979, 212.6348
1494.017, 280.1270
1495.055, 191.3008
1496.093, 267.3760
1497.131, 25.83789
1498.168, 237.5703
1499.206, 137.7334
1500.243, 207.7148
1501.280, 231.6250
1502.317, 218.7539
1503.354, 140.3047
1504.390, 160.1016
1505.426, 140.9854
1506.463, 130.2686
1507.499, 70.73926
1508.535, 178.1816
1509.570, 152.3174
1510.606, 102.4307
1511.641, 207.2373
1512.676, 208.0703
1513.711, 249.9062
1514.746, 241.4053
1515.781, 222.4893
1516.816, 172.9766
1517.850, 154.0254
1518.884, 121.5938
1519.918, 101.5303
1520.952, 122.4502
1521.986, 200.9873
1523.019, 28.62988
1524.053, 102.7861
1525.086, 49.34473
1526.119, 185.0469
1527.152, 118.2021
1528.185, 23.31055
1529.217, 149.6035
1530.250, 198.5459
1531.282, 147.5039
1532.314, 217.6074
1533.346, 196.5771
1534.377, 165.5518
1535.409, 135.8496
1536.440, 77.64453
1537.472, 154.9961
1538.503, 89.19336
1539.534, 199.5498
1540.564, 74.63379
1541.595, 76.72852
1542.625, 0.9814450
1543.656, 29.59570
1544.686, 148.4004
1545.716, 129.4365
1546.745, 198.0791
1547.775, 263.6504
1548.804, 83.26660
1549.834, 252.4004
1550.863, 114.9492
1551.892, 101.3604
1552.920, 157.6670
1553.949, 170.3359
1554.977, 2.733398
1556.006, 118.7812
1557.034, 234.2490
1558.062, 68.31641
1559.089, 160.0420
1560.117, 182.6230
1561.144, 46.13672
1562.172, 95.39746
1563.199, 56.06348
1564.226, 205.4404
1565.252, 129.3174
1566.279, 130.0869
1567.305, 96.18066
1568.332, 0.5869140
1569.358, 118.7041
1570.384, 0.0000000E+00
##END=



