##NAMES=Serandite
##RRUFFID=R050261
##IDEAL CHEMISTRY=NaMn^2+^_2_Si_3_O_8_(OH)
##LOCALITY=Mont Saint-Hilaire, Rouville County, Quebec, Canada
##OWNER=RRUFF
##SOURCE=Marcus Origlieri
##DESCRIPTION=Orange tabular single crystal associated with aegirine and microcline
##STATUS=The identification of this mineral has been confirmed by X-ray diffraction and chemical analysis
##URL=rruff.info/R050261
##MEASURED CHEMISTRY=Na_0.96_(Mn_0.92_Ca_0.06_Fe_0.01_)_2_Si_3.03_O_8_(OH)
##PIN_ID=L01217
##ORIENTATION=Laser parallel to (0 -1 -1). Fiducial mark perpendicular to laser is parallel to -a [-1 0 0]
93.48000, 0.0000000E+00
94.71400, 3.429688
95.94800, 6.398682
97.18200, 26.89551
98.41600, 12.72119
99.64900, 95.16626
100.8830, 179.0188
102.1160, 150.2229
103.3490, 249.3977
104.5820, 439.6265
105.8150, 713.3108
107.0470, 1065.030
108.2800, 1528.301
109.5120, 1943.738
110.7440, 2154.943
111.9760, 1822.885
113.2080, 1743.529
114.4400, 1955.847
115.6710, 2271.806
116.9030, 2688.369
118.1340, 2992.498
119.3650, 3610.156
120.5960, 4126.309
121.8270, 4092.771
123.0580, 3489.771
124.2880, 2300.928
125.5190, 1298.488
126.7490, 850.4961
127.9790, 619.9165
129.2090, 584.7207
130.4390, 599.8911
131.6680, 737.4248
132.8980, 909.3125
134.1270, 953.5508
135.3560, 1470.120
136.5850, 1826.995
137.8140, 2437.151
139.0430, 2575.564
140.2710, 2829.216
141.5000, 2753.087
142.7280, 2506.162
143.9560, 1945.427
145.1840, 1222.870
146.4120, 692.4805
147.6390, 314.2559
148.8670, 109.1875
150.0940, 103.7334
151.3210, 107.5156
152.5490, 51.16943
153.7750, 5.701660
155.0020, 53.11963
156.2290, 62.56885
157.4550, 30.36475
158.6810, 183.2759
159.9080, 232.2739
161.1340, 523.3540
162.3590, 682.5107
163.5850, 1103.740
164.8110, 1318.038
166.0360, 1612.514
167.2610, 1763.300
168.4860, 1986.277
169.7110, 2206.473
170.9360, 2406.795
172.1610, 2532.377
173.3850, 2356.233
174.6100, 2127.163
175.8340, 1801.138
177.0580, 1343.140
178.2820, 1088.149
179.5050, 870.1533
180.7290, 927.1494
181.9520, 854.1401
183.1760, 763.1240
184.3990, 521.1035
185.6220, 441.0801
186.8450, 395.0547
188.0670, 271.0303
189.2900, 171.0059
190.5120, 170.9839
191.7340, 201.9648
192.9560, 251.9497
194.1780, 183.9409
195.4000, 268.9502
196.6220, 232.9443
197.8430, 228.9634
199.0640, 140.0859
200.2860, 270.2944
201.5070, 290.5361
202.7270, 388.8047
203.9480, 326.0762
205.1690, 207.3457
206.3890, 19.61182
207.6090, 81.87451
208.8290, 60.13379
210.0490, 163.3892
211.2690, 110.6401
212.4890, 192.8862
213.7080, 205.1274
214.9280, 171.3633
216.1470, 225.5942
217.3660, 183.8184
218.5850, 311.0371
219.8030, 217.2490
221.0220, 181.8374
222.2400, 293.4458
223.4590, 360.6284
224.6770, 335.8032
225.8950, 506.9697
227.1120, 573.1279
228.3300, 668.2773
229.5480, 688.4180
230.7650, 834.5488
231.9820, 912.6704
233.1990, 1009.781
234.4160, 1116.882
235.6330, 1187.974
236.8490, 1233.605
238.0660, 1241.021
239.2820, 1255.584
240.4980, 1210.844
241.7140, 1127.926
242.9300, 1131.925
244.1460, 928.1484
245.3610, 862.2168
246.5770, 694.7305
247.7920, 697.0430
249.0070, 664.4141
250.2220, 716.9863
251.4370, 708.8730
252.6510, 683.5894
253.8660, 784.5503
255.0800, 855.9097
256.2940, 965.7998
257.5080, 1165.185
258.7220, 1231.707
259.9360, 1456.810
261.1490, 1689.533
262.3630, 1399.291
263.5760, 1388.944
264.7890, 1188.602
266.0020, 1185.295
267.2150, 1059.024
268.4270, 893.7271
269.6400, 996.3833
270.8520, 864.0498
272.0640, 867.7476
273.2760, 896.4746
274.4880, 881.2300
275.7000, 972.0112
276.9120, 882.8164
278.1230, 1024.644
279.3340, 1139.491
280.5450, 1217.357
281.7560, 1196.241
282.9670, 1475.142
284.1780, 1653.056
285.3880, 1679.982
286.5980, 1966.921
287.8090, 1975.871
289.0190, 2024.831
290.2290, 1987.885
291.4380, 2005.861
292.6480, 1927.018
293.8570, 1871.057
295.0670, 1768.091
296.2760, 1716.054
297.4850, 1622.411
298.6930, 1548.727
299.9020, 1467.385
301.1110, 1336.871
302.3190, 1296.631
303.5270, 1216.934
304.7350, 1049.560
305.9430, 969.7754
307.1510, 896.8970
308.3580, 766.8955
309.5660, 691.8999
310.7730, 506.6909
311.9800, 488.6890
313.1870, 362.6821
314.3940, 284.6685
315.6010, 333.6475
316.8070, 247.6191
318.0130, 166.5815
319.2200, 272.5332
320.4260, 214.4746
321.6310, 194.4038
322.8370, 178.3228
324.0430, 230.2305
325.2480, 223.1260
326.4540, 270.0107
327.6590, 224.8843
328.8640, 219.7451
330.0680, 202.5947
331.2730, 234.4331
332.4780, 215.2588
333.6820, 204.3848
334.8860, 129.8755
336.0900, 164.6660
337.2940, 107.4443
338.4980, 79.91895
339.7010, 196.9648
340.9050, 72.70703
342.1080, 87.43652
343.3110, 121.1538
344.5140, 96.85791
345.7170, 50.54834
346.9200, 9.225098
348.1220, 50.88525
349.3240, 9.532227
350.5270, 110.1616
351.7290, 76.77686
352.9310, 82.37842
354.1320, 109.9663
355.3340, 129.5396
356.5350, 151.0986
357.7370, 191.6440
358.9380, 223.4453
360.1390, 251.6938
361.3400, 294.1978
362.5400, 311.1855
363.7410, 334.3794
364.9410, 341.6260
366.1410, 340.0708
367.3410, 334.4995
368.5410, 278.9136
369.7410, 338.3145
370.9400, 326.7012
372.1400, 304.0747
373.3390, 236.4336
374.5380, 119.7793
375.7370, 101.1113
376.9360, 63.42969
378.1350, 32.26465
379.3330, 5.990234
380.5310, 8.740234
381.7300, 33.53223
382.9280, 86.37695
384.1260, 52.31641
385.3230, 131.3003
386.5210, 38.37061
387.7180, 100.4824
388.9160, 125.6689
390.1130, 16.05518
391.3100, 75.23828
392.5060, 73.59668
393.7030, 202.0210
394.9000, 93.57861
396.0960, 73.21338
397.2920, 4.084961
398.4880, 17.24902
399.6840, 8.394531
400.8800, 19.82080
402.0750, 18.01562
403.2710, 7.189453
404.4660, 50.33545
405.6610, 51.46826
406.8560, 74.58789
408.0510, 106.7988
409.2450, 130.7925
410.4400, 160.8779
411.6340, 189.9507
412.8280, 203.0122
414.0220, 358.0615
415.2160, 382.0996
416.4100, 312.1265
417.6030, 429.1411
418.7970, 416.1440
419.9900, 503.1348
421.1830, 519.1138
422.3760, 462.0806
423.5690, 497.0352
424.7610, 491.9771
425.9540, 438.9062
427.1460, 437.8228
428.3380, 307.7261
429.5300, 296.6172
430.7220, 301.4951
431.9140, 246.3599
433.1050, 76.21191
434.2970, 174.0498
435.4880, 62.87451
436.6790, 86.68359
437.8700, 89.47900
439.0610, 38.74023
440.2510, 102.9990
441.4420, 15.73633
442.6320, 5.452148
443.8220, 44.13672
445.0120, 27.19141
446.2020, 115.5679
447.3910, 6.962402
448.5810, 16.46240
449.7700, 75.93652
450.9600, 31.60303
452.1490, 120.8062
453.3370, 29.20215
454.5260, 158.5762
455.7150, 121.9375
456.9030, 145.2842
458.0910, 346.6167
459.2800, 363.9365
460.4670, 378.2417
461.6550, 459.5337
462.8430, 499.8120
464.0300, 514.0771
465.2180, 527.3281
466.4050, 450.5649
467.5920, 490.7891
468.7790, 428.9995
469.9650, 390.1963
471.1520, 387.4058
472.3380, 298.5498
473.5250, 345.7065
474.7110, 278.8496
475.8970, 253.9805
477.0820, 315.0981
478.2680, 267.2021
479.4540, 357.2969
480.6390, 380.3911
481.8240, 449.4727
483.0090, 485.5420
484.1940, 512.9102
485.3780, 538.6445
486.5630, 586.6768
487.7470, 648.7056
488.9320, 738.7207
490.1160, 912.3901
491.3000, 1021.382
492.4830, 1186.997
493.6670, 1284.964
494.8500, 1345.922
496.0340, 1334.425
497.2170, 1248.844
498.4000, 1143.816
499.5820, 989.8027
500.7650, 742.7896
501.9480, 745.7656
503.1300, 615.7476
504.3120, 660.7173
505.4940, 620.6831
506.6760, 603.6450
507.8580, 608.6147
509.0390, 605.5737
510.2210, 563.5288
511.4020, 588.4727
512.5830, 431.4346
513.7640, 533.3857
514.9450, 427.3257
516.1250, 411.2773
517.3060, 464.2397
518.4860, 523.1943
519.6660, 494.1411
520.8460, 559.3960
522.0260, 535.1348
523.2060, 646.7368
524.3850, 688.7554
525.5650, 754.4390
526.7440, 807.2261
527.9230, 838.0381
529.1020, 855.1777
530.2810, 849.6782
531.4590, 842.4600
532.6380, 842.3096
533.8160, 825.5249
534.9940, 892.8208
536.1720, 919.0371
537.3500, 814.0444
538.5270, 947.3184
539.7050, 786.4316
540.8820, 875.2212
542.0590, 794.5454
543.2360, 833.4453
544.4130, 787.2852
545.5900, 883.5947
546.7660, 787.3486
547.9430, 849.1074
549.1190, 691.0093
550.2950, 705.9409
551.4710, 669.8687
552.6470, 523.7910
553.8220, 536.7085
554.9980, 473.6245
556.1730, 493.5396
557.3480, 491.4619
558.5230, 450.4043
559.6980, 456.3506
560.8730, 498.2993
562.0470, 346.2432
563.2220, 288.1812
564.3960, 314.1143
565.5700, 310.0420
566.7440, 176.9668
567.9170, 273.8862
569.0910, 302.8008
570.2640, 298.7119
571.4380, 195.6182
572.6110, 176.5195
573.7840, 106.4150
574.9570, 129.2900
576.1290, 321.1050
577.3020, 212.8130
578.4740, 238.6392
579.6460, 298.4692
580.8180, 78.84424
581.9900, 216.7041
583.1620, 134.3135
584.3330, 181.4521
585.5040, 128.8433
586.6760, 186.9360
587.8470, 219.4819
589.0180, 118.6997
590.1880, 119.3237
591.3590, 150.0361
592.5290, 201.8667
593.7000, 187.6841
594.8700, 147.7090
596.0400, 143.5195
597.2090, 221.3267
598.3790, 168.1309
599.5490, 119.9312
600.7180, 220.7280
601.8870, 183.5215
603.0560, 196.3120
604.2250, 286.0986
605.3940, 169.8828
606.5620, 236.6631
607.7300, 121.4404
608.8990, 252.2144
610.0670, 201.9849
611.2350, 289.7520
612.4020, 283.5161
613.5700, 310.2773
614.7370, 326.0347
615.9050, 367.9136
617.0720, 379.6646
618.2390, 404.4126
619.4060, 409.9204
620.5720, 369.2271
621.7390, 588.1338
622.9050, 542.0229
624.0710, 729.9888
625.2370, 882.9575
626.4030, 703.6816
627.5690, 852.3174
628.7340, 844.0342
629.9000, 872.0894
631.0650, 811.8022
632.2300, 1030.649
633.3950, 1104.579
634.5600, 1161.670
635.7240, 1297.135
636.8890, 1290.957
638.0530, 1499.500
639.2170, 1637.103
640.3810, 1689.752
641.5450, 1923.631
642.7080, 2060.467
643.8720, 2215.230
645.0350, 2647.493
646.1980, 2830.006
647.3610, 3134.094
648.5240, 3488.979
649.6870, 3847.502
650.8490, 4287.201
652.0120, 4927.880
653.1740, 5558.707
654.3360, 6468.458
655.4980, 7517.345
656.6600, 8903.302
657.8210, 10715.39
658.9830, 13089.85
660.1440, 15785.65
661.3050, 18973.60
662.4660, 22599.84
663.6270, 27485.10
664.7870, 32321.48
665.9480, 38166.38
667.1080, 43327.65
668.2680, 47598.61
669.4280, 49311.25
670.5880, 47552.98
671.7480, 43327.74
672.9070, 37167.68
674.0670, 30247.46
675.2260, 24483.48
676.3850, 19373.45
677.5440, 15585.59
678.7030, 12595.49
679.8610, 10565.89
681.0200, 8826.384
682.1780, 7557.496
683.3360, 6483.338
684.4940, 5734.950
685.6520, 5180.684
686.8090, 4676.705
687.9670, 4245.841
689.1240, 3979.728
690.2810, 3720.744
691.4380, 3594.747
692.5950, 3642.650
693.7520, 3673.014
694.9080, 3794.604
696.0650, 4019.614
697.2210, 4235.627
698.3770, 4648.412
699.5330, 5127.677
700.6880, 5611.475
701.8440, 6043.238
702.9990, 6307.992
704.1550, 6705.732
705.3100, 6525.777
706.4650, 6156.498
707.6190, 5420.207
708.7740, 4893.306
709.9290, 4158.995
711.0830, 3502.670
712.2370, 3042.336
713.3910, 2711.021
714.5450, 2295.664
715.6980, 2122.297
716.8520, 1856.921
718.0050, 1552.533
719.1580, 1674.135
720.3110, 1430.747
721.4640, 1290.347
722.6170, 1179.942
723.7700, 1015.376
724.9220, 903.1191
726.0740, 807.7095
727.2260, 754.3286
728.3780, 734.9453
729.5300, 592.5566
730.6810, 540.1577
731.8330, 449.7656
732.9840, 443.3618
734.1350, 378.9521
735.2860, 363.5308
736.4370, 324.0986
737.5880, 319.6553
738.7380, 409.2012
739.8880, 315.7354
741.0390, 244.2593
742.1890, 180.7715
743.3380, 275.2729
744.4880, 164.7642
745.6380, 155.2432
746.7870, 228.7119
747.9360, 118.1699
749.0850, 113.6172
750.2340, 133.0532
751.3830, 101.4790
752.5310, 102.8940
753.6800, 47.29834
754.8280, 105.6909
755.9760, 96.07324
757.1240, 1.445313
758.2720, 27.20264
759.4190, 37.11621
760.5670, 40.42236
761.7140, 22.71729
762.8610, 21.99902
764.0080, 78.26904
765.1550, 16.47217
766.3020, 125.7578
767.4480, 12.97803
768.5950, 93.18408
769.7410, 44.37939
770.8870, 24.56396
772.0330, 10.73584
773.1780, 29.69141
774.3240, 51.35645
775.4690, 62.90918
776.6140, 79.88721
777.7590, 32.92676
778.9040, 28.99658
780.0490, 52.09180
781.1940, 53.77197
782.3380, 11.37402
783.4820, 15.54639
784.6260, 56.74609
785.7700, 20.00488
786.9140, 16.25586
788.0580, 59.45605
789.2010, 98.84326
790.3450, 25.78711
791.4880, 41.40625
792.6310, 70.98584
793.7730, 72.43359
794.9160, 5.062012
796.0590, 1.458008
797.2010, 6.997070
798.3430, 9.557129
799.4850, 30.14062
800.6270, 30.75732
801.7690, 64.40820
802.9100, 9.890137
804.0520, 46.82422
805.1930, 8.419922
806.3340, 68.34912
807.4750, 64.82861
808.6160, 107.9961
809.7560, 21.15479
810.8970, 92.30176
812.0370, 12.43994
813.1770, 33.56592
814.3170, 4.681152
815.4570, 76.78223
816.5960, 16.12695
817.7360, 18.06055
818.8750, 60.01953
820.0140, 88.02539
821.1530, 5.093750
822.2920, 71.18018
823.4310, 22.68115
824.5690, 11.53174
825.7070, 29.37158
826.8460, 14.20117
827.9840, 14.48633
829.1220, 34.82959
830.2590, 5.371094
831.3970, 9.587891
832.5340, 42.82178
833.6710, 87.09082
834.8080, 30.41748
835.9450, 22.77148
837.0820, 35.85059
838.2190, 64.46436
839.3550, 58.06982
840.4910, 75.66748
841.6270, 3.742676
842.7630, 104.8350
843.8990, 41.40430
845.0350, 7.033691
846.1700, 110.5161
847.3060, 41.05811
848.4410, 69.59326
849.5760, 22.12109
850.7100, 110.6411
851.8450, 38.15430
852.9800, 95.66064
854.1140, 118.1602
855.2480, 151.6533
856.3820, 168.1396
857.5160, 106.6201
858.6500, 249.0938
859.7830, 234.5610
860.9170, 215.0220
862.0500, 139.4771
863.1830, 257.9258
864.3160, 67.36816
865.4480, 241.8047
866.5810, 190.2349
867.7130, 156.6592
868.8460, 281.0781
869.9780, 116.4907
871.1100, 277.8975
872.2410, 184.3042
873.3730, 138.7178
874.5050, 144.1270
875.6360, 122.8716
876.7670, 179.9302
877.8980, 139.3237
879.0290, 279.7124
880.1590, 262.1040
881.2900, 342.5010
882.4200, 224.8931
883.5500, 324.5576
884.6800, 377.7334
885.8100, 467.1650
886.9400, 566.5918
888.0690, 683.0146
889.1990, 793.4561
890.3280, 779.8013
891.4570, 1048.267
892.5860, 1406.731
893.7140, 1420.429
894.8430, 1931.320
895.9710, 1963.605
897.1000, 2387.900
898.2280, 2669.116
899.3560, 2678.323
900.4830, 2772.767
901.6110, 2638.321
902.7380, 2371.790
903.8660, 2068.924
904.9930, 1856.397
906.1200, 1644.730
907.2460, 1429.978
908.3730, 1277.065
909.5000, 1083.774
910.6260, 1022.121
911.7520, 983.7456
912.8780, 901.3062
914.0040, 842.8169
915.1290, 783.0928
916.2550, 817.4116
917.3800, 706.8013
918.5050, 848.6914
919.6300, 855.3252
920.7550, 892.3794
921.8800, 705.6323
923.0040, 703.2441
924.1290, 791.6836
925.2530, 813.1387
926.3770, 839.4448
927.5010, 744.8208
928.6250, 761.0586
929.7480, 861.2192
930.8720, 670.2666
931.9950, 776.9287
933.1180, 833.2729
934.2410, 757.4722
935.3640, 780.3975
936.4860, 842.3018
937.6090, 816.1133
938.7310, 873.4243
939.8530, 930.3799
940.9750, 980.6968
942.0970, 968.3555
943.2180, 1095.961
944.3400, 1132.577
945.4610, 1109.022
946.5820, 1376.650
947.7030, 1379.076
948.8240, 1497.625
949.9450, 1560.055
951.0650, 1806.738
952.1860, 1877.939
953.3060, 2083.046
954.4260, 2362.546
955.5460, 2523.320
956.6650, 2759.329
957.7850, 2937.232
958.9040, 3316.873
960.0230, 3678.479
961.1420, 3974.175
962.2610, 4280.817
963.3800, 4709.475
964.4990, 5152.228
965.6170, 5603.522
966.7350, 5937.586
967.8530, 6317.598
968.9710, 6753.869
970.0890, 6997.736
971.2070, 7474.123
972.3240, 7663.981
973.4410, 7928.874
974.5580, 8027.776
975.6750, 8117.685
976.7920, 8069.293
977.9090, 8126.224
979.0250, 8065.180
980.1410, 7775.744
981.2580, 7495.722
982.3740, 7549.709
983.4890, 7213.708
984.6050, 7094.686
985.7200, 7096.715
986.8360, 6951.755
987.9510, 6816.805
989.0660, 6762.866
990.1810, 6681.936
991.2950, 6626.658
992.4100, 6651.277
993.5240, 6586.208
994.6390, 6789.320
995.7530, 6867.441
996.8660, 7070.573
997.9800, 7114.716
999.0940, 7343.872
1000.207, 7531.036
1001.320, 7727.212
1002.433, 7862.397
1003.546, 8034.594
1004.659, 8273.800
1005.772, 8490.050
1006.884, 8992.974
1007.996, 9468.391
1009.108, 10504.64
1010.220, 11375.90
1011.332, 12829.17
1012.444, 14599.44
1013.555, 16676.34
1014.666, 18934.70
1015.777, 21448.02
1016.888, 24386.58
1017.999, 26853.16
1019.110, 29391.76
1020.220, 31012.11
1021.331, 31503.47
1022.441, 30742.87
1023.551, 28912.88
1024.661, 25953.27
1025.770, 22992.95
1026.880, 19656.36
1027.989, 16976.77
1029.098, 14404.20
1030.207, 12108.65
1031.316, 10355.60
1032.425, 8933.068
1033.533, 7760.570
1034.642, 6766.268
1035.750, 6118.129
1036.858, 5372.643
1037.966, 4865.162
1039.073, 4139.688
1040.181, 3923.223
1041.288, 3629.204
1042.396, 3295.759
1043.503, 2953.334
1044.610, 2854.094
1045.716, 2611.860
1046.823, 2426.686
1047.929, 2243.422
1049.036, 2178.097
1050.142, 1988.100
1051.248, 1889.566
1052.353, 1849.312
1053.459, 1666.072
1054.564, 1540.024
1055.670, 1491.820
1056.775, 1481.497
1057.880, 1326.388
1058.985, 1378.418
1060.089, 1247.284
1061.194, 1258.159
1062.298, 1261.064
1063.402, 1188.543
1064.506, 1151.687
1065.610, 1122.699
1066.713, 995.6699
1067.817, 998.6953
1068.920, 897.8281
1070.023, 864.8496
1071.126, 850.8965
1072.229, 820.9521
1073.332, 886.0293
1074.435, 799.1533
1075.537, 812.3486
1076.639, 851.1885
1077.741, 666.3125
1078.843, 694.6377
1079.945, 677.8242
1081.046, 679.5684
1082.148, 603.3545
1083.249, 690.5762
1084.350, 560.9004
1085.451, 531.0713
1086.551, 569.2549
1087.652, 479.2715
1088.752, 424.3486
1089.853, 435.8789
1090.953, 520.3223
1092.053, 579.5977
1093.152, 400.1699
1094.252, 290.4531
1095.351, 432.9443
1096.451, 370.3584
1097.550, 352.7646
1098.649, 278.0654
1099.748, 261.3721
1100.846, 157.2441
1101.945, 261.6875
1103.043, 207.2441
1104.141, 176.8799
1105.239, 250.3105
1106.337, 275.8516
1107.434, 107.3428
1108.532, 236.7461
1109.629, 137.2686
1110.726, 67.76660
1111.823, 198.7324
1112.920, 134.4502
1114.017, 179.0566
1115.113, 70.45215
1116.210, 164.8467
1117.306, 176.9307
1118.402, 207.4004
1119.498, 282.7988
1120.593, 230.1963
1121.689, 346.8926
1122.784, 367.2910
1123.879, 233.7383
1124.974, 273.1357
1126.069, 342.5342
1127.164, 379.9326
1128.259, 271.3301
1129.353, 169.1963
1130.447, 158.7627
1131.541, 76.23926
1132.635, 142.6348
1133.729, 159.0283
1134.822, 25.42090
1135.916, 26.81152
1137.009, 28.58105
1138.102, 56.20312
1139.195, 6.851563
1140.288, 24.49512
1141.380, 112.8408
1142.473, 69.18457
1143.565, 34.52539
1144.657, 35.13574
1145.749, 41.81348
1146.841, 10.50293
1147.932, 107.1777
1149.024, 58.91504
1150.115, 42.68457
1151.206, 54.52246
1152.297, 106.7344
1153.388, 85.05664
1154.479, 125.8955
1155.569, 29.19824
1156.659, 4.711914
1157.750, 38.37305
1158.839, 39.45312
1159.929, 66.52930
1161.019, 64.60254
1162.108, 7.314453
1163.198, 27.77148
1164.287, 24.85254
1165.376, 98.07129
1166.465, 3.053711
1167.553, 30.04004
1168.642, 58.95020
1169.730, 44.01074
1170.818, 77.71582
1171.906, 19.03027
1172.994, 82.93652
1174.082, 89.90527
1175.170, 13.13184
1176.257, 11.81445
1177.344, 6.753906
1178.431, 34.68652
1179.518, 8.379883
1180.605, 3.538086
1181.691, 3.554688
1182.778, 89.33887
1183.864, 54.22559
1184.950, 14.10742
1186.036, 97.98047
1187.122, 19.15332
1188.207, 39.68848
1189.292, 16.52246
1190.378, 120.3486
1191.463, 119.1660
1192.548, 210.9766
1193.632, 43.22070
1194.717, 15.66504
1195.801, 34.58105
1196.886, 104.1367
1197.970, 55.86621
1199.054, 35.56836
1200.137, 124.2607
1201.221, 100.9443
1202.305, 190.6191
1203.388, 166.2861
1204.471, 15.05566
1205.554, 0.5742190
1206.637, 7.184570
1207.719, 84.77832
1208.802, 29.36230
1209.884, 64.93457
1210.966, 69.50195
1212.048, 5.997070
1213.130, 63.48242
1214.212, 40.95215
1215.293, 142.4121
1216.374, 103.8613
1217.456, 15.30078
1218.536, 67.72461
1219.617, 13.86328
1220.698, 75.48145
1221.778, 87.83594
1222.859, 28.14355
1223.939, 92.43750
1225.019, 39.72070
1226.099, 59.99316
1227.178, 63.25391
1228.258, 101.5020
1229.337, 92.07520
1230.417, 21.96777
1231.496, 71.17773
1232.574, 47.37598
1233.653, 6.561523
1234.732, 81.72363
1235.810, 56.87402
1236.888, 70.01172
1237.966, 92.13672
1239.044, 65.25000
1240.122, 21.65039
1241.199, 25.41309
1242.277, 36.45801
1243.354, 49.48926
1244.431, 131.5078
1245.508, 120.5127
1246.585, 13.49414
1247.661, 85.46289
1248.738, 168.4082
1249.814, 249.3408
1250.890, 42.26074
1251.966, 192.1660
1253.042, 94.05762
1254.117, 181.9375
1255.193, 140.8057
1256.268, 110.6611
1257.343, 157.5127
1258.418, 35.35254
1259.493, 68.17578
1260.567, 89.98340
1261.642, 188.7793
1262.716, 146.7178
1263.790, 141.3311
1264.864, 130.0859
1265.938, 59.83008
1267.011, 119.5254
1268.085, 171.5459
1269.158, 132.0693
1270.231, 176.7598
1271.304, 193.4365
1272.377, 142.1016
1273.450, 222.7549
1274.522, 233.7881
1275.594, 218.6152
1276.666, 192.1279
1277.738, 178.4863
1278.810, 234.8242
1279.882, 220.4609
1280.953, 204.7754
1282.025, 118.3340
1283.096, 217.8477
1284.167, 177.0518
1285.238, 190.6084
1286.308, 220.8291
1287.379, 230.3672
1288.449, 253.8584
1289.519, 257.2002
1290.589, 272.1084
1291.659, 241.6533
1292.729, 224.0879
1293.798, 164.4932
1294.868, 306.7002
1295.937, 181.7607
1297.006, 218.1533
1298.075, 78.54980
1299.143, 193.1553
1300.212, 204.5186
1301.280, 269.3018
1302.348, 217.1689
1303.416, 148.4980
1304.484, 183.6553
1305.552, 169.9941
1306.620, 275.1309
1307.687, 184.2012
1308.754, 341.4912
1309.821, 153.4668
1310.888, 158.9775
1311.955, 264.3711
1313.021, 174.5947
1314.088, 204.6455
1315.154, 184.8467
1316.220, 176.1758
1317.286, 190.2881
1318.352, 254.2881
1319.417, 177.4492
1320.483, 285.6016
1321.548, 162.7383
1322.613, 68.32129
1323.678, 154.2402
1324.743, 109.2920
1325.807, 90.39062
1326.872, 157.4365
1327.936, 244.3838
1329.000, 248.4541
1330.064, 243.0859
1331.128, 161.5684
1332.191, 143.6113
1333.255, 120.6074
1334.318, 125.8418
1335.381, 146.8477
1336.444, 186.8574
1337.507, 229.6631
1338.569, 267.6074
1339.632, 270.3799
1340.694, 171.3281
1341.756, 207.2314
1342.818, 171.0273
1343.880, 163.8721
1344.941, 220.9287
1346.003, 153.2861
1347.064, 166.1514
1348.125, 115.7930
1349.186, 188.5391
1350.247, 193.4512
1351.308, 162.0635
1352.368, 261.9648
1353.428, 214.1943
1354.489, 233.5684
1355.549, 187.3750
1356.608, 186.2490
1357.668, 174.1191
1358.727, 198.4336
1359.787, 196.7988
1360.846, 197.3154
1361.905, 217.4385
1362.964, 210.1885
1364.022, 224.8252
1365.081, 262.4941
1366.139, 367.2480
1367.197, 352.2578
1368.255, 334.8730
1369.313, 388.3047
1370.371, 318.7334
1371.428, 369.2217
1372.486, 341.7393
1373.543, 309.5928
1374.600, 320.8164
1375.657, 254.4316
1376.713, 282.0674
1377.770, 399.6973
1378.826, 286.0068
1379.882, 331.6094
1380.938, 153.2451
1381.994, 355.9541
1383.050, 389.5381
1384.106, 238.4971
1385.161, 163.0947
1386.216, 232.1914
1387.271, 226.5811
1388.326, 216.0557
1389.381, 259.6055
1390.435, 259.1494
1391.490, 134.6865
1392.544, 118.2197
1393.598, 231.5303
1394.652, 149.0566
1395.705, 211.5908
1396.759, 124.1201
1397.812, 102.6826
1398.866, 247.2012
1399.919, 173.8154
1400.972, 180.3213
1402.024, 61.10742
1403.077, 7.615234
1404.129, 91.86621
1405.181, 195.3691
1406.233, 4.054688
1407.285, 21.42871
1408.337, 147.1846
1409.389, 75.27344
1410.440, 99.78125
1411.491, 4.314453
1412.542, 157.8418
1413.593, 63.36816
1414.644, 164.8916
1415.695, 57.42480
1416.745, 45.10156
1417.795, 34.64648
1418.845, 172.7969
1419.895, 178.2363
1420.945, 230.6729
1421.995, 9.867188
1423.044, 114.5869
1424.093, 68.04395
1425.142, 15.41992
1426.191, 85.86719
1427.240, 23.69336
1428.289, 18.28906
1429.337, 149.0859
1430.385, 122.4531
1431.433, 29.82129
1432.481, 69.18262
1433.529, 23.45801
1434.577, 188.8887
1435.624, 130.2363
1436.672, 178.5811
1437.719, 31.92383
1438.766, 153.2676
1439.812, 211.6123
1440.859, 228.9609
1441.905, 280.3154
1442.952, 308.6709
1443.998, 327.6875
1445.044, 357.1348
1446.090, 327.7793
1447.135, 330.3691
1448.181, 253.8906
1449.226, 217.5566
1450.271, 230.3457
1451.316, 212.8682
1452.361, 278.5215
1453.405, 359.1748
1454.450, 439.8457
1455.494, 382.5117
1456.538, 475.2002
1457.582, 300.9229
1458.626, 241.6426
1459.670, 269.3584
1460.713, 372.0830
1461.757, 339.8740
1462.800, 331.6641
1463.843, 284.4512
1464.886, 155.2383
1465.928, 367.0225
1466.971, 329.8096
1468.013, 177.6084
1469.055, 290.4092
1470.097, 240.2080
1471.139, 318.0400
1472.181, 85.87891
1473.222, 321.7217
1474.263, 127.5938
1475.305, 168.4697
1476.346, 233.3516
1477.386, 204.2393
1478.427, 38.11523
1479.468, 166.9863
1480.508, 65.86816
1481.548, 221.7568
1482.588, 156.6504
1483.628, 191.5557
1484.668, 228.4658
1485.707, 211.6436
1486.747, 206.3076
1487.786, 196.5723
1488.825, 164.4180
1489.864, 92.10254
1490.902, 71.68848
1491.941, 38.94629
1492.979, 18.91504
1494.017, 13.62012
1495.055, 51.94922
1496.093, 84.63086
1497.131, 114.6201
1498.168, 94.26562
1499.206, 8.537109
1500.243, 47.27734
1501.280, 79.86230
1502.317, 137.1416
1503.354, 167.3789
1504.390, 89.92090
1505.426, 35.16699
1506.463, 27.70996
1507.499, 59.25000
1508.535, 38.21484
1509.570, 50.32422
1510.606, 178.8652
1511.641, 115.3994
1512.676, 174.9268
1513.711, 159.8857
1514.746, 109.9541
1515.781, 102.4502
1516.816, 108.9346
1517.850, 77.40430
1518.884, 172.8564
1519.918, 64.28906
1520.952, 117.7031
1521.986, 49.09570
1523.019, 58.46387
1524.053, 33.71387
1525.086, 136.7070
1526.119, 42.87305
1527.152, 92.10547
1528.185, 257.2998
1529.217, 61.45215
1530.250, 16.76270
1531.282, 142.1270
1532.314, 16.62207
1533.346, 8.180664
1534.377, 274.3584
1535.409, 121.1016
1536.440, 131.6533
1537.472, 100.4287
1538.503, 187.9355
1539.534, 58.31348
1540.564, 168.4033
1541.595, 218.9189
1542.625, 154.4258
1543.656, 107.9209
1544.686, 93.40918
1545.716, 159.8896
1546.745, 194.1709
1547.775, 218.0918
1548.804, 163.1973
1549.834, 188.6543
1550.863, 213.0605
1551.892, 225.3057
1552.920, 305.3184
1553.949, 258.1465
1554.977, 189.8438
1556.006, 286.6240
1557.034, 168.7568
1558.062, 87.79688
1559.089, 145.7285
1560.117, 144.5889
1561.144, 165.3428
1562.172, 250.1006
1563.199, 128.3193
1564.226, 213.8633
1565.252, 157.8281
1566.279, 2.441406
1567.305, 158.2061
1568.332, 299.9902
1569.358, 2.336914
1570.384, 0.0000000E+00
##END=



