##NAMES=Shortite
##RRUFFID=R040184
##IDEAL CHEMISTRY=Na_2_Ca_2_(CO_3_)_3_
##LOCALITY=Green River, Wyoming, USA
##OWNER=RRUFF
##SOURCE=University of Arizona Mineral Museum
##DESCRIPTION=Colorless single crystal fragments
##STATUS=The identification of this mineral has been confirmed by X-ray diffraction and chemical analysis
##URL=rruff.info/R040184
##MEASURED CHEMISTRY=(Na_1.47_Ca_0.27_[box]_0.26_)_Î£=2_Ca_2.00_(CO_3_)_3_
##PIN_ID=L00385
##ORIENTATION=Laser parallel to -b* (0 -1 0). Fiducial mark perpendicular to laser is parallel to -c [0 0 -1]
113.329, 0.000
114.726, 95.497
116.123, 7.448
117.519, 174.477
118.915, 60.283
120.311, 177.199
121.706, 285.369
123.102, 339.505
124.497, 370.682
125.892, 506.211
127.286, 621.563
128.681, 795.328
130.075, 1131.180
131.469, 1441.855
132.862, 2505.135
134.256, 3560.839
135.649, 5146.813
137.042, 6533.919
138.435, 7112.044
139.827, 6261.092
141.219, 3930.993
142.611, 2384.675
144.003, 1388.070
145.394, 899.125
146.786, 632.784
148.177, 457.003
149.567, 414.747
150.958, 370.977
152.348, 473.659
153.738, 308.767
155.128, 353.270
156.517, 224.129
157.907, 207.312
159.296, 188.790
160.685, 162.544
162.073, 250.558
163.462, 276.814
164.850, 313.410
166.237, 427.258
167.625, 569.404
169.012, 562.810
170.400, 540.384
171.786, 435.134
173.173, 368.088
174.559, 359.294
175.946, 506.631
177.332, 636.096
178.717, 833.690
180.103, 924.419
181.488, 1267.330
182.873, 1097.443
184.258, 863.676
185.642, 810.023
187.026, 713.505
188.410, 864.075
189.794, 1021.764
191.178, 1252.545
192.561, 1510.481
193.944, 2354.508
195.327, 3155.601
196.709, 3806.741
198.092, 4387.811
199.474, 4158.836
200.856, 3969.896
202.237, 3680.970
203.618, 3442.054
205.000, 3263.197
206.380, 2684.403
207.761, 2305.660
209.142, 1741.945
210.522, 1430.264
211.902, 1205.618
213.281, 821.010
214.661, 721.014
216.040, 555.938
217.419, 546.715
218.798, 382.225
220.176, 316.631
221.554, 270.169
222.932, 185.747
224.310, 197.677
225.688, 64.376
227.065, 133.161
228.442, 154.999
229.819, 203.847
231.196, 223.267
232.572, 105.211
233.948, 238.804
235.324, 95.772
236.700, 208.779
238.075, 101.821
239.450, 281.951
240.825, 217.152
242.200, 215.547
243.574, 361.827
244.948, 289.138
246.322, 356.631
247.696, 459.937
249.070, 397.299
250.443, 603.923
251.816, 596.625
253.189, 746.084
254.561, 886.074
255.933, 1132.642
257.306, 1366.359
258.677, 1719.298
260.049, 2331.917
261.420, 2874.568
262.791, 3887.240
264.162, 5031.137
265.533, 5844.557
266.903, 6347.260
268.274, 5850.194
269.643, 4896.004
271.013, 3730.941
272.383, 2543.660
273.752, 1866.389
275.121, 1449.130
276.490, 1063.883
277.858, 757.984
279.226, 752.395
280.595, 548.525
281.962, 524.025
283.330, 405.117
284.697, 205.477
286.064, 298.014
287.431, 219.824
288.798, 237.792
290.164, 185.946
291.530, 141.255
292.896, 283.696
294.262, 39.259
295.627, 203.371
296.993, 127.146
298.358, 156.019
299.722, 40.328
301.087, 125.381
302.451, 189.511
303.815, 14.710
305.179, 102.978
306.543, 46.307
307.906, 64.702
309.269, 78.154
310.632, 5.657
311.995, 130.212
313.357, 0.188
314.719, 69.524
316.081, 89.756
317.443, 67.497
318.804, 91.280
320.166, 15.908
321.527, 87.938
322.887, 87.814
324.248, 32.277
325.608, 100.319
326.968, 122.720
328.328, 118.264
329.688, 16.393
331.047, 37.424
332.406, 12.263
333.765, 4.188
335.124, 41.909
336.482, 156.445
337.840, 78.582
339.198, 113.119
340.556, 70.285
341.913, 149.837
343.271, 31.957
344.628, 13.257
345.984, 43.229
347.341, 139.005
348.697, 25.252
350.053, 26.508
351.409, 95.774
352.765, 96.706
354.120, 96.562
355.475, 38.890
356.830, 72.178
358.185, 155.475
359.539, 43.777
360.894, 343.086
362.248, 85.054
363.601, 71.376
364.955, 144.240
366.308, 25.383
367.661, 80.720
369.014, 4.199
370.367, 96.147
371.719, 9.500
373.071, 14.854
374.423, 86.214
375.775, 28.290
377.126, 103.070
378.478, 43.578
379.828, 209.758
381.179, 93.094
382.530, 23.211
383.880, 120.121
385.230, 64.983
386.580, 38.318
387.929, 28.380
389.279, 150.565
390.628, 123.864
391.977, 6.144
393.325, 47.147
394.674, 90.663
396.022, 34.136
397.370, 37.396
398.718, 19.199
400.065, 84.073
401.413, 22.677
402.760, 32.250
404.106, 35.489
405.453, 20.287
406.799, 143.519
408.146, 76.843
409.491, 180.387
410.837, 6.385
412.182, 3.165
413.528, 70.205
414.873, 6.606
416.217, 156.828
417.562, 70.005
418.906, 93.300
420.250, 6.584
421.594, 49.845
422.938, 113.618
424.281, 33.253
425.624, 120.424
426.967, 43.522
428.310, 146.611
429.652, 119.694
430.994, 72.769
432.336, 175.939
433.678, 48.976
435.020, 82.375
436.361, 125.399
437.702, 8.415
439.043, 201.622
440.383, 74.619
441.724, 237.904
443.064, 60.917
444.404, 23.940
445.743, 157.493
447.083, 39.476
448.422, 145.168
449.761, 1.821
451.100, 111.183
452.438, 235.697
453.777, 68.699
455.115, 181.982
456.453, 75.020
457.790, 47.926
459.128, 91.279
460.465, 5.784
461.802, 260.147
463.139, 83.059
464.475, 96.087
465.811, 89.232
467.147, 52.124
468.483, 277.183
469.819, 40.059
471.154, 233.177
472.489, 76.570
473.824, 129.420
475.159, 166.743
476.493, 1.994
477.827, 173.408
479.161, 84.843
480.495, 177.626
481.829, 240.867
483.162, 133.625
484.495, 186.599
485.828, 0.987
487.161, 301.720
488.493, 153.631
489.825, 36.334
491.157, 319.463
492.489, 32.331
493.820, 134.833
495.151, 68.741
496.482, 58.629
497.813, 214.438
499.144, 6.995
500.474, 249.524
501.804, 34.487
503.134, 176.982
504.464, 238.787
505.793, 11.641
507.123, 193.007
508.451, 165.908
509.780, 238.312
511.109, 161.246
512.437, 43.638
513.765, 252.639
515.093, 66.345
516.421, 148.687
517.748, 221.555
519.075, 83.862
520.402, 156.153
521.729, 41.018
523.055, 311.197
524.382, 6.582
525.708, 5.578
527.034, 277.703
528.359, 30.350
529.685, 272.319
531.010, 134.665
532.335, 226.742
533.659, 238.803
534.984, 70.848
536.308, 131.941
537.632, 163.951
538.956, 114.351
540.279, 266.323
541.603, 48.307
542.926, 269.446
544.249, 12.628
545.571, 241.847
546.894, 293.740
548.216, 55.266
549.538, 386.543
550.860, 71.432
552.181, 289.901
553.503, 61.596
554.824, 73.267
556.145, 264.918
557.465, 86.549
558.786, 117.409
560.106, 238.999
561.426, 9.385
562.746, 340.920
564.065, 12.436
565.385, 133.921
566.704, 105.389
568.023, 62.506
569.341, 293.938
570.660, 165.599
571.978, 96.523
573.296, 147.921
574.614, 79.688
575.931, 231.064
577.248, 112.422
578.565, 113.961
579.882, 55.074
581.199, 65.049
582.515, 206.319
583.831, 45.448
585.147, 196.674
586.463, 147.877
587.779, 269.524
589.094, 170.687
590.409, 121.828
591.724, 232.950
593.038, 64.052
594.353, 265.927
595.667, 316.981
596.981, 107.676
598.295, 368.687
599.608, 89.674
600.922, 271.312
602.235, 262.256
603.547, 53.166
604.860, 204.093
606.172, 12.023
607.485, 244.083
608.797, 213.923
610.108, 14.715
611.420, 336.417
612.731, 97.155
614.042, 228.301
615.353, 203.555
616.664, 64.224
617.974, 295.288
619.284, 15.441
620.594, 305.239
621.904, 135.788
623.213, 106.313
624.523, 267.414
625.832, 2.107
627.141, 318.868
628.449, 109.289
629.758, 49.677
631.066, 340.402
632.374, 39.260
633.681, 241.615
634.989, 9.711
636.296, 130.540
637.603, 201.288
638.910, 41.462
640.217, 281.680
641.523, 122.179
642.829, 122.275
644.135, 300.921
645.441, 19.030
646.747, 356.389
648.052, 76.258
649.357, 136.224
650.662, 306.372
651.967, 16.291
653.271, 476.173
654.575, 61.415
655.879, 361.248
657.183, 210.118
658.486, 10.097
659.790, 289.285
661.093, 179.238
662.396, 88.956
663.698, 297.743
665.001, 67.415
666.303, 307.095
667.605, 61.444
668.907, 231.081
670.209, 281.187
671.510, 10.790
672.811, 320.319
674.112, 60.056
675.413, 339.574
676.713, 209.205
678.013, 58.677
679.313, 353.472
680.613, 183.488
681.913, 190.351
683.212, 278.063
684.511, 57.828
685.810, 256.451
687.109, 132.958
688.407, 212.272
689.706, 361.896
691.004, 261.888
692.302, 651.028
693.599, 621.005
694.897, 750.238
696.194, 869.471
697.491, 265.801
698.788, 504.629
700.084, 14.545
701.380, 282.096
702.677, 221.219
703.972, 150.779
705.268, 484.211
706.564, 143.466
707.859, 565.805
709.154, 934.815
710.449, 623.571
711.743, 642.346
713.037, 271.290
714.332, 140.066
715.626, 438.948
716.919, 327.829
718.213, 515.010
719.506, 563.852
720.799, 222.220
722.092, 451.015
723.384, 68.271
724.677, 470.127
725.969, 18.805
727.261, 214.258
728.553, 532.714
729.844, 16.720
731.136, 345.045
732.427, 283.675
733.718, 162.928
735.008, 571.308
736.299, 0.169
737.589, 218.279
738.879, 246.712
740.169, 285.008
741.458, 213.401
742.748, 101.772
744.037, 410.532
745.326, 288.852
746.614, 237.900
747.903, 526.174
749.191, 34.052
750.479, 322.270
751.767, 240.464
753.055, 258.437
754.342, 376.586
755.629, 54.428
756.916, 333.012
758.203, 291.084
759.490, 208.718
760.776, 496.873
762.062, 3.254
763.348, 411.658
764.634, 259.621
765.919, 16.049
767.204, 654.737
768.489, 112.340
769.774, 231.105
771.059, 408.966
772.343, 116.543
773.627, 394.354
774.911, 189.132
776.195, 307.118
777.479, 374.743
778.762, 72.219
780.045, 510.533
781.328, 86.030
782.611, 213.963
783.893, 331.336
785.175, 128.401
786.457, 506.246
787.739, 69.300
789.021, 316.826
790.302, 201.740
791.583, 79.053
792.864, 497.400
794.145, 194.176
795.425, 121.594
796.706, 348.880
797.986, 156.023
799.266, 243.379
800.545, 72.399
801.825, 214.864
803.104, 352.237
804.383, 99.266
805.662, 286.957
806.940, 282.821
808.219, 19.976
809.497, 337.280
810.775, 104.410
812.053, 231.523
813.330, 276.971
814.608, 154.045
815.885, 345.566
817.162, 122.209
818.438, 399.225
819.715, 334.352
820.991, 58.676
822.267, 459.738
823.543, 46.867
824.818, 273.730
826.094, 390.020
827.369, 176.846
828.644, 373.105
829.919, 190.791
831.193, 257.559
832.468, 434.281
833.742, 81.289
835.016, 417.992
836.289, 202.836
837.563, 139.541
838.836, 446.418
840.109, 96.285
841.382, 580.070
842.654, 163.434
843.927, 69.990
845.199, 387.016
846.471, 64.086
847.743, 320.580
849.014, 291.234
850.286, 92.318
851.557, 364.104
852.828, 61.146
854.099, 296.283
855.369, 283.213
856.639, 129.732
857.909, 485.826
859.179, 193.172
860.449, 699.232
861.718, 1295.539
862.988, 1062.346
864.257, 1678.609
865.525, 775.762
866.794, 241.988
868.062, 687.984
869.331, 254.930
870.599, 531.121
871.866, 377.805
873.134, 3.977
874.401, 580.125
875.668, 13.670
876.935, 436.760
878.202, 282.838
879.468, 91.969
880.735, 664.006
882.001, 69.816
883.267, 275.035
884.532, 220.906
885.798, 37.150
887.063, 472.775
888.328, 128.604
889.593, 162.809
890.857, 538.592
892.122, 134.357
893.386, 620.102
894.650, 285.830
895.913, 141.078
897.177, 536.768
898.440, 32.445
899.703, 368.092
900.966, 283.719
902.229, 288.531
903.491, 484.121
904.754, 319.693
906.016, 455.252
907.278, 250.785
908.539, 125.639
909.801, 561.139
911.062, 216.621
912.323, 212.059
913.584, 447.506
914.844, 141.719
916.105, 567.133
917.365, 262.529
918.625, 56.965
919.885, 502.320
921.144, 27.225
922.404, 582.531
923.663, 207.822
924.922, 262.670
926.180, 527.916
927.439, 193.051
928.697, 408.270
929.955, 463.469
931.213, 98.049
932.471, 663.205
933.728, 177.809
934.985, 562.930
936.242, 408.033
937.499, 182.758
938.756, 547.820
940.012, 332.285
941.269, 407.330
942.525, 522.332
943.780, 36.799
945.036, 521.791
946.291, 336.695
947.546, 221.273
948.801, 496.215
950.056, 380.902
951.311, 345.801
952.565, 435.297
953.819, 110.174
955.073, 545.141
956.327, 129.512
957.580, 334.322
958.834, 429.119
960.087, 93.096
961.339, 448.684
962.592, 402.980
963.845, 57.699
965.097, 613.303
966.349, 62.244
967.601, 512.980
968.852, 417.207
970.104, 128.203
971.355, 656.670
972.606, 23.541
973.857, 190.908
975.107, 345.291
976.358, 59.697
977.608, 484.979
978.858, 309.371
980.108, 33.721
981.357, 449.854
982.607, 124.180
983.856, 188.482
985.105, 583.203
986.353, 122.484
987.602, 632.891
988.850, 76.711
990.098, 100.893
991.346, 404.184
992.594, 101.664
993.841, 362.105
995.089, 136.855
996.336, 120.906
997.583, 635.578
998.829, 60.416
1000.076, 403.529
1001.322, 583.574
1002.568, 107.512
1003.814, 630.932
1005.060, 124.828
1006.305, 218.721
1007.550, 513.270
1008.795, 17.119
1010.040, 590.750
1011.285, 285.512
1012.529, 139.314
1013.773, 713.096
1015.017, 47.459
1016.261, 581.225
1017.505, 422.061
1018.748, 95.785
1019.991, 789.488
1021.234, 156.898
1022.477, 480.559
1023.719, 773.088
1024.962, 258.352
1026.204, 709.910
1027.446, 284.471
1028.688, 348.053
1029.929, 774.812
1031.170, 219.273
1032.411, 527.396
1033.652, 531.234
1034.893, 174.760
1036.134, 667.383
1037.374, 296.541
1038.614, 489.504
1039.854, 752.604
1041.094, 496.658
1042.333, 819.592
1043.572, 453.773
1044.811, 458.953
1046.050, 941.857
1047.289, 356.703
1048.527, 979.104
1049.766, 902.359
1051.004, 716.252
1052.241, 1249.465
1053.479, 632.988
1054.717, 637.389
1055.954, 1000.539
1057.191, 735.688
1058.428, 688.307
1059.664, 1001.391
1060.901, 946.262
1062.137, 1729.168
1063.373, 1362.178
1064.609, 2415.516
1065.844, 4408.482
1067.080, 8252.037
1068.315, 21314.178
1069.550, 27827.072
1070.785, 19299.041
1072.019, 8741.885
1073.254, 3314.549
1074.488, 2327.344
1075.722, 2110.111
1076.955, 1133.080
1078.189, 1925.795
1079.422, 1368.482
1080.656, 1630.805
1081.889, 2153.467
1083.121, 1906.252
1084.354, 3458.922
1085.586, 6361.510
1086.818, 19293.803
1088.050, 43686.332
1089.282, 41438.852
1090.514, 17932.641
1091.745, 6215.082
1092.976, 2486.602
1094.207, 1959.195
1095.438, 1251.549
1096.668, 585.188
1097.899, 1407.510
1099.129, 449.822
1100.359, 893.059
1101.588, 965.365
1102.818, 277.082
1104.047, 959.354
1105.276, 451.115
1106.505, 533.717
1107.734, 885.945
1108.962, 107.508
1110.191, 440.822
1111.419, 373.000
1112.647, 94.352
1113.874, 737.037
1115.102, 164.672
1116.329, 316.770
1117.556, 639.266
1118.783, 212.684
1120.010, 615.842
1121.236, 445.828
1122.463, 137.516
1123.689, 979.994
1124.914, 91.096
1126.140, 253.045
1127.366, 834.898
1128.591, 14.170
1129.816, 893.266
1131.041, 314.490
1132.266, 65.943
1133.490, 899.393
1134.714, 32.928
1135.938, 434.672
1137.162, 826.174
1138.386, 82.857
1139.609, 1023.041
1140.833, 347.801
1142.056, 19.322
1143.279, 1015.119
1144.501, 26.021
1145.724, 667.461
1146.946, 804.693
1148.168, 193.916
1149.390, 844.352
1150.612, 265.025
1151.833, 356.311
1153.054, 801.928
1154.275, 62.988
1155.496, 744.211
1156.717, 666.389
1157.937, 107.578
1159.158, 702.295
1160.378, 492.922
1161.598, 194.049
1162.817, 1061.902
1164.037, 87.010
1165.256, 734.027
1166.475, 626.484
1167.694, 32.521
1168.913, 947.939
1170.131, 419.312
1171.349, 20.227
1172.567, 1001.045
1173.785, 121.922
1175.003, 612.783
1176.220, 464.289
1177.438, 135.123
1178.655, 855.721
1179.872, 277.791
1181.088, 328.578
1182.305, 928.947
1183.521, 60.303
1184.737, 680.402
1185.953, 411.670
1187.169, 202.143
1188.384, 832.592
1189.599, 163.967
1190.814, 14.309
1192.029, 834.559
1193.244, 44.787
1194.459, 544.986
1195.673, 555.926
1196.887, 205.912
1198.101, 865.863
1199.314, 287.555
1200.528, 87.359
1201.741, 1247.002
1202.954, 6.605
1204.167, 716.121
1205.380, 865.594
1206.592, 15.018
1207.805, 984.391
1209.017, 424.342
1210.229, 183.572
1211.440, 1052.750
1212.652, 222.246
1213.863, 831.289
1215.074, 670.254
1216.285, 409.162
1217.496, 968.014
1218.707, 416.785
1219.917, 525.445
1221.127, 994.047
1222.337, 262.596
1223.547, 1131.086
1224.756, 649.500
1225.966, 314.191
1227.175, 1172.477
1228.384, 271.266
1229.592, 360.283
1230.801, 1358.420
1232.009, 407.674
1233.217, 725.152
1234.425, 1102.420
1235.633, 90.020
1236.841, 1356.379
1238.048, 412.064
1239.255, 317.156
1240.462, 1378.508
1241.669, 79.830
1242.876, 611.133
1244.082, 982.297
1245.288, 153.564
1246.494, 1114.811
1247.700, 555.154
1248.906, 435.396
1250.111, 1295.949
1251.316, 297.141
1252.521, 867.980
1253.726, 968.457
1254.931, 128.686
1256.135, 1359.648
1257.339, 618.596
1258.543, 258.525
1259.747, 1318.062
1260.951, 569.096
1262.154, 282.602
1263.357, 1221.895
1264.560, 131.123
1265.763, 842.012
1266.966, 596.482
1268.168, 246.805
1269.371, 1425.941
1270.573, 366.486
1271.775, 495.766
1272.976, 1155.438
1274.178, 43.568
1275.379, 1086.656
1276.580, 651.830
1277.781, 140.291
1278.982, 1458.459
1280.182, 358.498
1281.383, 237.221
1282.583, 1056.557
1283.783, 21.777
1284.982, 888.029
1286.182, 756.840
1287.381, 27.428
1288.580, 799.887
1289.779, 679.510
1290.978, 408.080
1292.177, 1105.182
1293.375, 58.545
1294.573, 530.922
1295.771, 987.213
1296.969, 24.662
1298.166, 883.695
1299.364, 513.076
1300.561, 52.467
1301.758, 1311.869
1302.955, 0.494
1304.151, 449.926
1305.348, 1118.824
1306.544, 62.730
1307.740, 476.641
1308.936, 1176.051
1310.132, 52.922
1311.327, 1132.016
1312.522, 648.650
1313.717, 298.059
1314.912, 1225.418
1316.107, 534.672
1317.301, 683.078
1318.496, 1192.191
1319.690, 248.684
1320.884, 1236.373
1322.077, 955.273
1323.271, 153.180
1324.464, 1209.271
1325.657, 536.984
1326.850, 585.857
1328.043, 1454.875
1329.235, 258.846
1330.428, 855.461
1331.620, 1063.334
1332.812, 169.658
1334.004, 1305.012
1335.195, 628.311
1336.387, 475.756
1337.578, 1603.135
1338.769, 157.809
1339.960, 817.949
1341.150, 1374.057
1342.341, 52.805
1343.531, 1335.199
1344.721, 1070.975
1345.911, 484.531
1347.100, 1308.947
1348.290, 439.662
1349.479, 631.721
1350.668, 1283.252
1351.857, 151.121
1353.046, 1265.291
1354.234, 904.723
1355.422, 203.305
1356.610, 1278.807
1357.798, 902.064
1358.986, 340.721
1360.174, 1518.789
1361.361, 361.746
1362.548, 976.996
1363.735, 1175.506
1364.922, 384.572
1366.108, 1473.523
1367.295, 845.969
1368.481, 55.648
1369.667, 1218.408
1370.853, 136.912
1372.038, 105.660
1373.224, 1376.451
1374.409, 87.572
1375.594, 872.754
1376.779, 982.545
1377.963, 9.326
1379.148, 987.619
1380.332, 655.633
1381.516, 0.000
##END=



