##NAMES=Shortite
##RRUFFID=R050248
##IDEAL CHEMISTRY=Na_2_Ca_2_(CO_3_)_3_
##LOCALITY=Stauffer mine, Green River, Wyoming, USA
##OWNER=RRUFF
##SOURCE=Marcus Origlieri
##DESCRIPTION=Colorless wedge-shaped single crystal
##STATUS=The identification of this mineral has been confirmed by X-ray diffraction and chemical analysis
##URL=rruff.info/R050248
##MEASURED CHEMISTRY=Na_2.00_Ca_2.00_(CO_3_)_3_ ; CO2 not measured but estimated by difference and stoichiometry.
##PIN_ID=L01884
##ORIENTATION=Laser parallel to c* (0 0 1). Fiducial mark perpendicular to laser is parallel to a [1 0 0]
102.9200, 0.0000000E+00
104.1590, 37.69421
105.3980, 3.033691
106.6360, 40.65295
107.8750, 101.0803
109.1130, 79.50464
110.3510, 60.13599
111.5890, 25.56494
112.8270, 18.51099
114.0650, 1.677002
115.3020, 20.94580
116.5390, 54.14941
117.7770, 79.16943
119.0130, 137.9102
120.2500, 169.7627
121.4870, 195.2551
122.7230, 272.7385
123.9590, 335.6919
125.1950, 428.0693
126.4310, 675.8328
127.6670, 941.9487
128.9030, 1271.388
130.1380, 1644.126
131.3730, 1923.142
132.6080, 2221.415
133.8430, 2607.929
135.0780, 3108.673
136.3120, 3359.638
137.5470, 3602.555
138.7810, 3753.180
140.0150, 3772.731
141.2480, 3740.447
142.4820, 3506.315
143.7160, 3071.319
144.9490, 2831.450
146.1820, 2780.701
147.4150, 2921.066
148.6480, 3210.540
149.8800, 3469.119
151.1130, 3812.801
152.3450, 4124.581
153.5770, 4290.457
154.8090, 4285.422
156.0410, 4172.476
157.2720, 4000.614
158.5040, 3501.834
159.7350, 2779.134
160.9660, 2026.510
162.1970, 1384.960
163.4270, 946.5017
164.6580, 747.1099
165.8880, 475.8359
167.1180, 399.6533
168.3480, 291.5603
169.5780, 310.5571
170.8080, 241.6050
172.0370, 201.7107
173.2670, 219.8608
174.4960, 253.0569
175.7250, 187.2947
176.9540, 152.5591
178.1820, 96.80884
179.4110, 118.0505
180.6390, 227.2898
181.8670, 178.5266
183.0950, 217.7659
184.3230, 204.0178
185.5500, 165.2849
186.7780, 158.5698
188.0050, 192.8921
189.2320, 145.2629
190.4590, 143.6663
191.6850, 184.0933
192.9120, 238.5718
194.1380, 209.0771
195.3650, 220.6050
196.5910, 270.1594
197.8160, 277.7927
199.0420, 327.4863
200.2680, 379.2048
201.4930, 363.9490
202.7180, 355.7170
203.9430, 339.5085
205.1680, 259.3208
206.3930, 226.1543
207.6170, 191.0100
208.8410, 194.9016
210.0660, 119.8269
211.2890, 137.7791
212.5130, 80.77563
213.7370, 111.7981
214.9600, 91.85205
216.1840, 49.92847
217.4070, 100.0225
218.6300, 20.13379
219.8520, 43.26270
221.0750, 36.40820
222.2970, 101.4429
223.5200, 99.61304
224.7420, 119.7998
225.9640, 134.0027
227.1850, 109.1465
228.4070, 171.6353
229.6280, 122.8477
230.8490, 193.0789
232.0700, 247.8904
233.2910, 237.1697
234.5120, 237.3130
235.7320, 257.5725
236.9530, 312.9478
238.1730, 362.2346
239.3930, 402.0610
240.6130, 469.3704
241.8320, 510.6941
243.0520, 626.0303
244.2710, 727.4504
245.4900, 773.8101
246.7090, 867.1812
247.9280, 1044.564
249.1470, 1169.958
250.3650, 1407.820
251.5840, 1732.792
252.8020, 2288.839
254.0200, 2862.983
255.2370, 3816.986
256.4550, 4661.378
257.6720, 6208.713
258.8900, 7631.127
260.1070, 9315.927
261.3240, 10814.48
262.5400, 12530.11
263.7570, 14167.78
264.9730, 15385.51
266.1900, 15844.29
267.4060, 16047.12
268.6220, 15522.99
269.8370, 14332.90
271.0530, 12235.85
272.2680, 9844.244
273.4830, 7504.268
274.6980, 5684.637
275.9130, 4229.725
277.1280, 3281.011
278.3420, 2472.157
279.5570, 1989.339
280.7710, 1684.208
281.9850, 1398.002
283.1990, 1159.250
284.4120, 959.5227
285.6260, 822.2942
286.8390, 751.1321
288.0520, 662.6768
289.2650, 631.0322
290.4780, 620.6118
291.6910, 543.5950
292.9030, 437.3052
294.1160, 434.7322
295.3280, 384.1758
296.5400, 336.2002
297.7510, 307.6794
298.9630, 244.2285
300.1740, 232.7373
301.3860, 250.5320
302.5970, 172.0747
303.8080, 195.6318
305.0180, 202.2021
306.2290, 111.7849
307.4390, 125.3794
308.6500, 105.9856
309.8600, 91.68188
311.0700, 80.31128
312.2790, 91.10767
313.4890, 63.93506
314.6980, 75.52271
315.9080, 110.2649
317.1170, 86.47559
318.3250, 71.16040
319.5340, 80.83032
320.7430, 69.07080
321.9510, 51.56348
323.1590, 62.20020
324.3670, 46.29883
325.5750, 25.45312
326.7830, 31.55762
327.9900, 11.93921
329.1980, 27.89380
330.4050, 15.67505
331.6120, 12.62207
332.8190, 70.26099
334.0250, 23.06519
335.2320, 19.87622
336.4380, 71.69385
337.6440, 54.51782
338.8500, 45.34839
340.0560, 24.81519
341.2620, 62.02393
342.4670, 40.87036
343.6730, 85.72095
344.8780, 28.57837
346.0830, 42.43921
347.2870, 4.306396
348.4920, 47.17871
349.6970, 24.94458
350.9010, 65.93335
352.1050, 64.18457
353.3090, 13.69019
354.5130, 75.05273
355.7160, 1.934814
356.9200, 92.07202
358.1230, 6.038818
359.3260, 13.14673
360.5290, 15.74707
361.7320, 43.35645
362.9340, 50.53516
364.1370, 22.57007
365.3390, 38.32666
366.5410, 38.22656
367.7430, 3.875000
368.9450, 33.03320
370.1460, 52.94434
371.3480, 30.85742
372.5490, 14.22974
373.7500, 11.66846
374.9510, 14.56958
376.1520, 38.47290
377.3520, 68.53979
378.5520, 38.43604
379.7530, 105.3301
380.9530, 75.40015
382.1530, 1.876709
383.3520, 46.02173
384.5520, 37.91943
385.7510, 20.81885
386.9500, 55.72168
388.1490, 40.62549
389.3480, 35.53052
390.5470, 59.43701
391.7450, 91.34448
392.9440, 58.25366
394.1420, 11.16382
395.3400, 45.08252
396.5380, 59.00928
397.7350, 11.94409
398.9330, 74.88550
400.1300, 70.95361
401.3270, 86.90894
402.5240, 57.87061
403.7210, 49.29956
404.9180, 40.27539
406.1140, 4.647461
407.3110, 54.63306
408.5070, 62.62305
409.7030, 33.61670
410.8990, 50.61450
412.0940, 73.61572
413.2900, 35.77246
414.4850, 65.78027
415.6800, 41.20898
416.8750, 26.37524
418.0700, 21.62988
419.2650, 29.45044
420.4590, 0.4384770
421.6530, 61.49756
422.8470, 5.487061
424.0410, 26.52222
425.2350, 6.544922
426.4290, 36.42847
427.6220, 43.40308
428.8160, 83.37891
430.0090, 16.35571
431.2020, 1.333252
432.3940, 55.30908
433.5870, 66.71411
434.7790, 21.22681
435.9720, 44.83179
437.1640, 58.08496
438.3560, 68.09033
439.5470, 3.992676
440.7390, 24.89355
441.9300, 7.904297
443.1220, 17.82104
444.3130, 2.936279
445.5040, 26.98535
446.6940, 22.13770
447.8850, 75.10596
449.0750, 25.01123
450.2660, 67.91577
451.4560, 49.81934
452.6460, 9.721680
453.8350, 20.83716
455.0250, 7.736816
456.2140, 28.36646
457.4040, 15.51025
458.5930, 33.38525
459.7820, 0.2590330
460.9700, 95.12622
462.1590, 24.00781
463.3470, 4.839111
464.5350, 77.68140
465.7240, 5.477783
466.9110, 4.352783
468.0990, 3.783447
469.2870, 11.39771
470.4740, 23.57422
471.6610, 33.19531
472.8480, 51.11377
474.0350, 61.92627
475.2220, 73.92188
476.4090, 75.31689
477.5950, 80.59717
478.7810, 62.39990
479.9670, 85.20020
481.1530, 60.99805
482.3390, 47.79321
483.5240, 52.87451
484.7100, 24.66431
485.8950, 33.45142
487.0800, 25.23584
488.2650, 26.81787
489.4490, 28.18945
490.6340, 39.96558
491.8180, 32.73853
493.0030, 35.72339
494.1870, 43.49072
495.3700, 24.45605
496.5540, 5.217285
497.7380, 93.97144
498.9210, 11.72241
500.1040, 75.46826
501.2870, 47.08154
502.4700, 134.4753
503.6530, 96.21167
504.8350, 70.14355
506.0180, 33.87402
507.2000, 75.55762
508.3820, 74.29004
509.5640, 116.0190
510.7450, 67.54199
511.9270, 102.2649
513.1080, 133.9844
514.2890, 80.01343
515.4700, 107.2358
516.6510, 158.0796
517.8320, 54.78613
519.0130, 16.59668
520.1930, 59.33740
521.3730, 57.03223
522.5530, 60.72363
523.7330, 64.41162
524.9130, 73.05518
526.0920, 73.73633
527.2710, 70.50195
528.4510, 77.42676
529.6300, 87.10278
530.8080, 87.43018
531.9870, 83.04102
533.1660, 73.10962
534.3440, 68.77148
535.5220, 42.43896
536.7000, 40.10352
537.8780, 39.85205
539.0560, 65.42139
540.2330, 68.07520
541.4110, 22.72534
542.5880, 73.37036
543.7650, 85.01147
544.9420, 8.351074
546.1180, 105.2695
547.2950, 11.88623
548.4710, 63.50122
549.6470, 113.1123
550.8230, 132.7192
551.9990, 86.32202
553.1750, 66.92041
554.3500, 22.51514
555.5260, 80.10376
556.7010, 100.6882
557.8760, 5.859619
559.0510, 62.43042
560.2250, 23.68408
561.4000, 87.24609
562.5740, 25.63599
563.7480, 111.1892
564.9220, 74.73022
566.0960, 85.60620
567.2700, 33.57861
568.4430, 58.11499
569.6170, 54.64722
570.7900, 61.17578
571.9630, 68.28906
573.1360, 62.90869
574.3080, 77.52686
575.4810, 59.83374
576.6530, 71.34253
577.8250, 85.95557
578.9980, 17.45654
580.1690, 85.95288
581.3410, 6.119385
582.5130, 16.36060
583.6840, 26.78198
584.8550, 9.744385
586.0260, 13.45215
587.1970, 8.911621
588.3680, 19.36499
589.5380, 115.8140
590.7080, 65.25952
591.8790, 94.70068
593.0490, 34.13867
594.2190, 10.49390
595.3880, 77.92212
596.5580, 34.18994
597.7270, 45.43335
598.8960, 54.84839
600.0650, 40.26636
601.2340, 99.14697
602.4030, 112.5576
603.5710, 27.98804
604.7400, 86.06885
605.9080, 54.46899
607.0760, 34.94507
608.2440, 3.035889
609.4120, 21.87378
610.5790, 83.78662
611.7460, 27.85107
612.9140, 11.48926
614.0810, 94.82568
615.2480, 7.158447
616.4140, 14.48608
617.5810, 102.8101
618.7470, 29.13037
619.9130, 60.44751
621.0790, 80.76123
622.2450, 87.07178
623.4110, 68.37915
624.5770, 59.68652
625.7420, 131.9890
626.9070, 88.29004
628.0720, 38.58545
629.2370, 0.1201170
630.4020, 83.16675
631.5660, 144.4548
632.7310, 62.73975
633.8950, 121.0398
635.0590, 66.32178
636.2230, 38.61548
637.3870, 99.41919
638.5500, 72.70386
639.7140, 111.7339
640.8770, 114.3865
642.0400, 18.28833
643.2030, 83.56299
644.3660, 119.8345
645.5280, 35.11084
646.6910, 6.615967
647.8530, 32.52344
649.0150, 71.78711
650.1770, 23.95190
651.3390, 131.2900
652.5000, 70.52881
653.6620, 1.764648
654.8230, 94.99414
655.9840, 10.22339
657.1450, 58.44775
658.3060, 11.66919
659.4660, 16.72266
660.6270, 118.9478
661.7870, 90.15845
662.9470, 151.3662
664.1070, 19.65210
665.2670, 49.86206
666.4260, 80.06885
667.5860, 1.272461
668.7450, 44.47046
669.9040, 25.66504
671.0630, 89.87964
672.2220, 96.06812
673.3800, 109.2539
674.5390, 68.60986
675.6970, 121.7896
676.8550, 112.0132
678.0130, 135.1868
679.1710, 39.44165
680.3290, 92.60913
681.4860, 75.65430
682.6430, 105.8157
683.8000, 166.9744
684.9570, 243.6680
686.1140, 359.8206
687.2710, 518.0078
688.4270, 1001.156
689.5840, 1309.302
690.7400, 1475.445
691.8960, 1854.584
693.0520, 2625.722
694.2070, 2666.704
695.3630, 2598.835
696.5180, 2735.964
697.6730, 2199.509
698.8280, 1469.649
699.9830, 802.7715
701.1380, 564.9131
702.2920, 504.9814
703.4470, 644.1189
704.6010, 627.2549
705.7550, 682.3960
706.9090, 891.5420
708.0620, 1155.686
709.2160, 1141.827
710.3690, 1154.967
711.5220, 1124.104
712.6750, 933.3037
713.8280, 618.4836
714.9810, 293.6328
716.1340, 227.7793
717.2860, 192.9360
718.4380, 165.0017
719.5900, 162.1536
720.7420, 158.9385
721.8940, 198.3877
723.0450, 215.5344
724.1970, 232.1775
725.3480, 328.1858
726.4990, 379.0881
727.6500, 513.1719
728.8010, 665.3154
729.9510, 605.4570
731.1020, 656.5967
732.2520, 627.7339
733.4020, 519.6553
734.5520, 263.7888
735.7020, 275.9746
736.8510, 119.1143
738.0010, 37.16113
739.1500, 144.3069
740.2990, 45.45361
741.4480, 59.59814
742.5970, 74.74927
743.7450, 133.9001
744.8940, 60.04907
746.0420, 105.2002
747.1900, 6.254639
748.3380, 129.0994
749.4860, 74.24390
750.6330, 29.22412
751.7810, 70.28564
752.9280, 57.42529
754.0750, 84.37744
755.2220, 66.45166
756.3690, 63.58667
757.5160, 30.72021
758.6620, 29.85205
759.8090, 93.98267
760.9550, 72.11157
762.1010, 89.23877
763.2470, 71.36499
764.3920, 30.48975
765.5380, 80.61279
766.6830, 44.73462
767.8280, 133.4622
768.9730, 40.49219
770.1180, 34.61011
771.2630, 11.72632
772.4070, 61.84106
773.5520, 13.95435
774.6960, 56.06616
775.8400, 32.17871
776.9840, 22.29028
778.1280, 84.40137
779.2710, 104.5112
780.4140, 30.59741
781.5580, 121.7046
782.7010, 19.81055
783.8440, 144.9153
784.9860, 27.73853
786.1290, 86.34741
787.2710, 46.43213
788.4140, 51.62573
789.5560, 33.70801
790.6980, 52.78906
791.8390, 52.55664
792.9810, 69.63623
794.1220, 72.58057
795.2640, 10.65796
796.4050, 53.62646
797.5460, 7.660400
798.6860, 39.73633
799.8270, 103.8108
800.9680, 15.29468
802.1080, 15.74561
803.2480, 52.80811
804.3880, 25.86987
805.5280, 98.60742
806.6670, 32.66772
807.8070, 6.726807
808.9460, 73.78516
810.0850, 38.84277
811.2240, 33.10059
812.3630, 48.93677
813.5020, 3.973145
814.6400, 17.00879
815.7790, 1.043213
816.9170, 30.07642
818.0550, 31.10889
819.1930, 94.14160
820.3300, 153.1736
821.4680, 81.20483
822.6050, 16.24194
823.7430, 21.42236
824.8800, 105.6030
826.0170, 63.62793
827.1530, 88.65234
828.2900, 77.67603
829.4260, 75.39478
830.5620, 104.7224
831.6990, 88.74561
832.8340, 65.76831
833.9700, 84.80444
835.1060, 24.18091
836.2410, 1.403809
837.3760, 88.42700
838.5120, 76.44995
839.6470, 32.47266
840.7810, 60.68604
841.9160, 74.70752
843.0500, 74.73657
844.1850, 61.75684
845.3190, 32.00537
846.4530, 72.02490
847.5870, 67.04395
848.7200, 2.062500
849.8540, 3.080078
850.9870, 23.09692
852.1200, 50.11279
853.2530, 60.76050
854.3860, 61.14355
855.5190, 90.15869
856.6510, 86.17310
857.7840, 84.32056
858.9160, 35.33936
860.0480, 24.63403
861.1800, 69.37427
862.3110, 90.38281
863.4430, 123.3921
864.5740, 88.40088
865.7060, 56.40967
866.8370, 59.41797
867.9680, 109.4258
869.0980, 9.433105
870.2290, 53.44141
871.3590, 1.449219
872.4900, 84.45630
873.6200, 12.53711
874.7500, 85.78101
875.8790, 68.77856
877.0090, 49.77612
878.1380, 41.77271
879.2680, 19.76929
880.3970, 50.76538
881.5260, 52.76074
882.6550, 98.75610
883.7830, 52.17676
884.9120, 68.18164
886.0400, 110.1863
887.1680, 3.202881
888.2960, 132.2192
889.4240, 119.2356
890.5520, 23.25220
891.6790, 71.26929
892.8070, 15.28589
893.9340, 68.30200
895.0610, 75.31836
896.1880, 79.33423
897.3140, 45.34985
898.4410, 39.36548
899.5670, 123.3809
900.6940, 7.396240
901.8200, 97.41138
902.9450, 28.42969
904.0710, 12.55029
905.1970, 32.46167
906.3220, 52.47314
907.4470, 48.47021
908.5730, 80.48145
909.6980, 55.49072
910.8220, 60.50195
911.9470, 7.513672
913.0710, 20.29053
914.1960, 13.93311
915.3200, 20.54834
916.4440, 48.56006
917.5680, 41.57178
918.6910, 112.5835
919.8150, 46.59863
920.9380, 20.74609
922.0610, 71.76514
923.1840, 47.78516
924.3070, 71.81299
925.4300, 83.85693
926.5520, 86.90088
927.6750, 108.9536
928.7970, 102.0322
929.9190, 87.06055
931.0410, 82.11523
932.1630, 41.17334
933.2840, 3.220215
934.4060, 5.279785
935.5270, 28.66113
936.6480, 63.30908
937.7690, 70.35352
938.8900, 56.39844
940.0100, 37.44336
941.1310, 67.49072
942.2510, 19.53809
943.3710, 71.56396
944.4910, 92.61230
945.6110, 49.66113
946.7310, 36.53760
947.8500, 118.5874
948.9690, 18.59082
950.0890, 44.64258
951.2080, 69.60986
952.3260, 134.6631
953.4450, 116.0645
954.5640, 23.77051
955.6820, 71.82568
956.8000, 68.88086
957.9180, 6.062988
959.0360, 36.56348
960.1540, 21.61816
961.2710, 48.67383
962.3890, 83.73096
963.5060, 9.789063
964.6230, 49.84912
965.7400, 46.90918
966.8570, 132.9707
967.9730, 3.3202998E-02
969.0900, 23.90430
970.2060, 4.852539
971.3220, 30.12451
972.4380, 89.17578
973.5540, 120.2280
974.6700, 4.719238
975.7850, 54.33252
976.9010, 18.61426
978.0160, 116.4326
979.1310, 5.519043
980.2460, 62.54736
981.3600, 60.61523
982.4750, 72.68359
983.5890, 61.68896
984.7030, 137.7124
985.8170, 81.78369
986.9310, 5.855957
988.0450, 10.92920
989.1590, 72.00342
990.2720, 71.07861
991.3850, 20.84521
992.4980, 39.22217
993.6110, 0.2900390
994.7240, 120.6626
995.8370, 35.73242
996.9490, 60.80518
998.0620, 83.87842
999.1740, 47.95312
1000.286, 68.02881
1001.398, 73.10547
1002.509, 16.18799
1003.621, 120.2715
1004.732, 21.35889
1005.843, 24.39746
1006.954, 8.490234
1008.065, 41.32520
1009.176, 70.75000
1010.286, 115.8267
1011.397, 69.90381
1012.507, 141.9829
1013.617, 60.06299
1014.727, 89.14404
1015.837, 4.226563
1016.946, 2.689453
1018.056, 50.39795
1019.165, 78.48633
1020.274, 76.22070
1021.383, 23.28711
1022.492, 68.37891
1023.601, 76.47266
1024.709, 114.5718
1025.817, 15.67236
1026.926, 183.7734
1028.034, 45.87646
1029.141, 28.98096
1030.249, 91.08594
1031.357, 113.1924
1032.464, 130.3003
1033.571, 108.4092
1034.678, 123.5200
1035.785, 39.36035
1036.892, 149.4731
1037.999, 86.67578
1039.105, 158.7939
1040.211, 168.9131
1041.317, 143.0342
1042.423, 121.1558
1043.529, 136.2793
1044.635, 200.4043
1045.740, 247.5303
1046.845, 362.6577
1047.951, 443.7866
1049.056, 498.9175
1050.160, 616.0488
1051.265, 645.1821
1052.370, 679.0532
1053.474, 623.1895
1054.578, 675.4014
1055.682, 576.5479
1056.786, 646.6958
1057.890, 894.4302
1058.993, 1007.582
1060.097, 1306.397
1061.200, 1855.550
1062.303, 2484.705
1063.406, 4325.859
1064.509, 8239.670
1065.612, 16299.83
1066.714, 26555.99
1067.816, 35563.15
1068.919, 49053.49
1070.021, 54524.66
1071.122, 52797.83
1072.224, 48607.00
1073.326, 34074.18
1074.427, 18411.36
1075.528, 8852.538
1076.629, 4648.719
1077.730, 2971.902
1078.831, 2279.087
1079.931, 2120.283
1081.032, 2341.479
1082.132, 2879.677
1083.232, 4654.875
1084.332, 9641.077
1085.432, 19711.28
1086.531, 27976.48
1087.631, 39399.68
1088.730, 51840.89
1089.829, 49487.10
1090.928, 49250.00
1092.027, 38846.22
1093.126, 21721.44
1094.224, 9605.833
1095.323, 4107.052
1096.421, 2036.419
1097.519, 1206.640
1098.617, 799.8628
1099.715, 619.0854
1100.812, 483.2959
1101.910, 408.1694
1103.007, 287.2041
1104.104, 256.4395
1105.201, 206.6758
1106.298, 192.9131
1107.394, 224.9600
1108.491, 207.2002
1109.587, 233.9609
1110.683, 223.8062
1111.779, 137.8447
1112.875, 215.0898
1113.971, 140.3364
1115.066, 139.5835
1116.162, 129.8320
1117.257, 158.0820
1118.352, 150.3330
1119.447, 115.5859
1120.542, 84.83936
1121.636, 147.0938
1122.731, 131.3496
1123.825, 137.4775
1124.919, 117.7358
1126.013, 123.9863
1127.107, 192.2539
1128.200, 55.72949
1129.294, 73.99951
1130.387, 114.2710
1131.480, 58.54297
1132.573, 58.81689
1133.666, 90.02588
1134.759, 92.30127
1135.851, 76.21777
1136.944, 129.0508
1138.036, 64.33057
1139.128, 126.6113
1140.220, 72.57617
1141.312, 65.86279
1142.403, 106.1509
1143.495, 43.43994
1144.586, 101.7305
1145.677, 97.02197
1146.768, 102.3145
1147.859, 31.60791
1148.950, 89.82568
1150.040, 64.12158
1151.130, 11.58105
1152.221, 12.71094
1153.311, 5.005371
1154.401, 45.29980
1155.490, 27.60303
1156.580, 108.9004
1157.669, 15.19873
1158.759, 29.49805
1159.848, 29.79834
1160.937, 104.0996
1162.025, 51.40234
1163.114, 30.70605
1164.202, 93.01074
1165.291, 65.31641
1166.379, 12.37695
1167.467, 124.9243
1168.555, 79.22803
1169.642, 23.05273
1170.730, 121.3662
1171.817, 52.68018
1172.905, 72.99609
1173.992, 152.3208
1175.078, 2.646973
1176.165, 79.97412
1177.252, 33.30225
1178.338, 33.63086
1179.425, 48.96143
1180.511, 156.2930
1181.597, 101.6260
1182.682, 12.04004
1183.768, 97.28760
1184.854, 0.6171880
1185.939, 26.94580
1187.024, 42.27637
1188.109, 57.39209
1189.194, 77.91016
1190.279, 26.78711
1191.363, 78.50244
1192.448, 36.79346
1193.532, 108.0850
1194.616, 10.62256
1195.700, 84.23389
1196.784, 20.52295
1197.867, 63.81250
1198.951, 74.10400
1200.034, 56.40430
1201.117, 87.82666
1202.200, 67.00781
1203.283, 114.3110
1204.366, 80.15430
1205.448, 91.47705
1206.531, 46.78369
1207.613, 35.09082
1208.695, 11.39893
1209.777, 49.70850
1210.859, 63.01855
1211.940, 41.32959
1213.022, 56.64209
1214.103, 51.95557
1215.184, 54.24951
1216.265, 54.98584
1217.346, 62.90039
1218.427, 49.21729
1219.507, 46.53564
1220.587, 42.68896
1221.668, 73.17627
1222.748, 53.49854
1223.828, 1.178223
1224.907, 22.14355
1225.987, 0.5332030
1227.066, 27.78906
1228.146, 6.112793
1229.225, 10.27148
1230.304, 11.62842
1231.382, 12.08789
1232.461, 9.863770
1233.540, 16.10791
1234.618, 20.53516
1235.696, 59.87207
1236.774, 47.20996
1237.852, 65.55078
1238.930, 7.107910
1240.007, 72.23389
1241.085, 72.41895
1242.162, 114.8911
1243.239, 122.2031
1244.316, 60.51562
1245.393, 19.82959
1246.469, 110.1440
1247.546, 30.45947
1248.622, 34.77539
1249.698, 118.0933
1250.774, 58.41162
1251.850, 37.73096
1252.926, 64.05127
1254.001, 64.37744
1255.077, 61.70459
1256.152, 80.03271
1257.227, 1.637695
1258.302, 69.69043
1259.377, 32.01904
1260.451, 69.34912
1261.526, 85.67969
1262.600, 13.98877
1263.674, 102.3354
1264.748, 9.339355
1265.822, 8.019043
1266.896, 176.2969
1267.969, 9.613770
1269.043, 35.93164
1270.116, 37.26074
1271.189, 69.59082
1272.262, 75.44971
1273.335, 78.25391
1274.407, 90.58789
1275.480, 56.92188
1276.552, 52.25781
1277.624, 76.59375
1278.696, 41.93262
1279.768, 90.27197
1280.840, 104.9678
1281.911, 47.30957
1282.982, 59.65283
1284.054, 16.00293
1285.125, 32.33301
1286.196, 75.67041
1287.266, 145.0093
1288.337, 10.34912
1289.407, 28.69043
1290.478, 109.0327
1291.548, 54.37695
1292.618, 143.7217
1293.688, 73.06787
1294.757, 111.4160
1295.827, 32.03613
1296.896, 93.57422
1297.965, 8.319824
1299.034, 47.02979
1300.103, 53.43213
1301.172, 37.78760
1302.241, 27.04980
1303.309, 81.40869
1304.377, 120.7686
1305.445, 61.13086
1306.513, 102.4946
1307.581, 81.86914
1308.649, 77.24561
1309.716, 98.62354
1310.784, 128.0034
1311.851, 81.64844
1312.918, 88.73975
1313.985, 101.3525
1315.052, 44.74072
1316.118, 63.12988
1317.185, 35.93457
1318.251, 81.32471
1319.317, 18.05127
1320.383, 92.44238
1321.449, 21.83203
1322.514, 16.22363
1323.580, 12.04053
1324.645, 49.34863
1325.711, 83.73926
1326.776, 97.13184
1327.840, 109.7026
1328.905, 48.90674
1329.970, 70.29590
1331.034, 47.68701
1332.099, 27.91992
1333.163, 46.46680
1334.227, 122.8560
1335.290, 75.24658
1336.354, 59.63867
1337.418, 28.03223
1338.481, 43.42725
1339.544, 53.82422
1340.607, 35.97949
1341.670, 53.22266
1342.733, 19.00977
1343.795, 57.40576
1344.858, 51.80322
1345.920, 36.20264
1346.982, 44.60352
1348.044, 71.00684
1349.106, 68.41162
1350.168, 110.8184
1351.229, 98.58496
1352.291, 93.45703
1353.352, 59.87012
1354.413, 83.13818
1355.474, 11.55469
1356.534, 121.9741
1357.595, 50.39502
1358.656, 96.81836
1359.716, 26.75586
1360.776, 68.66553
1361.836, 68.08936
1362.896, 106.5156
1363.955, 96.94434
1365.015, 62.37500
1366.074, 67.84717
1367.134, 83.75586
1368.193, 108.3760
1369.252, 89.18799
1370.310, 35.63477
1371.369, 66.08154
1372.427, 43.53076
1373.486, 33.97461
1374.544, 27.42188
1375.602, 44.86914
1376.660, 99.30664
1377.717, 100.7285
1378.775, 150.1895
1379.832, 125.6343
1380.889, 111.0820
1381.946, 83.53125
1383.003, 109.9834
1384.060, 91.43848
1385.117, 118.6890
1386.173, 201.1489
1387.230, 122.6113
1388.286, 59.07715
1389.342, 188.5454
1390.398, 204.0825
1391.453, 194.5571
1392.509, 225.3945
1393.564, 167.3208
1394.619, 282.8047
1395.675, 377.2915
1396.729, 449.7827
1397.784, 734.2773
1398.839, 1047.775
1399.893, 1503.277
1400.948, 1867.783
1402.002, 2098.292
1403.056, 2092.806
1404.110, 1694.323
1405.163, 1270.843
1406.217, 836.3926
1407.270, 536.9214
1408.324, 315.4404
1409.377, 259.9634
1410.430, 94.49023
1411.483, 127.0137
1412.535, 193.5483
1413.588, 89.08838
1414.640, 54.63330
1415.692, 31.18262
1416.744, 87.73730
1417.796, 74.29736
1418.848, 181.8623
1419.900, 14.43359
1420.951, 76.01025
1422.002, 85.59326
1423.053, 7.814941
1424.104, 18.91797
1425.155, 81.23975
1426.206, 2.705566
1427.256, 131.0225
1428.307, 37.28906
1429.357, 107.3301
1430.407, 35.95898
1431.457, 117.5962
1432.507, 98.24414
1433.556, 72.13330
1434.606, 118.8018
1435.655, 102.4819
1436.704, 104.1558
1437.753, 96.81055
1438.802, 35.47363
1439.851, 62.10254
1440.899, 172.1543
1441.948, 87.63086
1442.996, 113.0688
1444.044, 150.4409
1445.092, 94.74023
1446.140, 144.9375
1447.187, 75.93408
1448.235, 111.5283
1449.282, 76.55371
1450.329, 119.1562
1451.376, 131.7617
1452.423, 114.3716
1453.470, 50.34619
1454.517, 84.22656
1455.563, 100.5542
1456.609, 133.1636
1457.655, 124.7764
1458.701, 193.3936
1459.747, 220.0132
1460.793, 269.6382
1461.838, 271.2656
1462.884, 319.8989
1463.929, 417.5381
1464.974, 583.1826
1466.019, 967.8311
1467.064, 1593.769
1468.108, 2107.408
1469.153, 2474.051
1470.197, 2518.701
1471.241, 2179.369
1472.285, 1791.066
1473.329, 1152.768
1474.373, 815.4746
1475.416, 711.1870
1476.460, 781.9043
1477.503, 856.6270
1478.546, 751.3560
1479.589, 862.0928
1480.632, 698.8354
1481.674, 400.5894
1482.717, 298.3594
1483.759, 185.1475
1484.801, 188.9424
1485.843, 89.74365
1486.885, 145.5513
1487.927, 63.36572
1488.968, 131.1860
1490.010, 89.01318
1491.051, 10.84668
1492.092, 159.6948
1493.133, 21.44238
1494.174, 41.42773
1495.215, 70.30420
1496.255, 51.18896
1497.296, 62.08154
1498.336, 42.38428
1499.376, 83.18359
1500.416, 17.74268
1501.456, 48.58203
1502.495, 127.4248
1503.535, 156.2378
1504.574, 108.0518
1505.613, 236.8691
1506.652, 213.6831
1507.691, 271.5049
1508.730, 439.3394
1509.768, 771.1924
1510.807, 1118.063
1511.845, 1704.948
1512.883, 2286.856
1513.921, 2421.789
1514.959, 2122.731
1515.996, 1529.685
1517.034, 972.6489
1518.071, 651.6240
1519.109, 455.6099
1520.146, 310.6445
1521.183, 250.6919
1522.219, 209.7534
1523.256, 170.8271
1524.292, 179.9141
1525.329, 114.0142
1526.365, 151.1289
1527.401, 79.25684
1528.437, 153.3979
1529.472, 193.5518
1530.508, 33.71875
1531.543, 64.77881
1532.579, 139.2041
1533.614, 88.30566
1534.649, 178.4136
1535.683, 111.5840
1536.718, 79.82861
1537.753, 247.1377
1538.787, 117.4731
1539.821, 182.8369
1540.855, 96.22949
1541.889, 122.6538
1542.923, 119.5693
1543.956, 202.5938
1544.990, 109.1118
1546.023, 89.66357
1547.056, 66.24902
1548.089, 7.870117
1549.122, 38.52783
1550.155, 2.619629
1551.187, 30.81543
1552.220, 43.70703
1553.252, 89.78467
1554.284, 253.9536
1555.316, 196.2148
1556.348, 103.5767
1557.379, 20.94824
1558.411, 200.6538
1559.442, 118.4048
1560.474, 163.1050
1561.505, 118.7139
1562.535, 150.7534
1563.566, 26.50781
1564.597, 28.95020
1565.627, 165.4204
1566.658, 54.32471
1567.688, 15.62842
1568.718, 6.355469
1569.748, 0.6284180
1570.777, 0.0000000E+00
##END=



