##NAMES=Shortite
##RRUFFID=R040184
##IDEAL CHEMISTRY=Na_2_Ca_2_(CO_3_)_3_
##LOCALITY=Green River, Wyoming, USA
##OWNER=RRUFF
##SOURCE=University of Arizona Mineral Museum
##DESCRIPTION=Colorless single crystal fragments
##STATUS=The identification of this mineral has been confirmed by X-ray diffraction and chemical analysis
##URL=rruff.info/R040184
##MEASURED CHEMISTRY=(Na_1.47_Ca_0.27_[box]_0.26_)_Î£=2_Ca_2.00_(CO_3_)_3_
##PIN_ID=L00388
##ORIENTATION=Laser parallel to -c* (0 0 -1). Fiducial mark perpendicular to laser is parallel to a [1 0 0]
111.932, 0.000
113.329, 55.448
114.726, 3.587
116.123, 17.316
117.519, 95.561
118.915, 20.085
120.311, 132.602
121.706, 41.250
123.102, 178.428
124.497, 122.692
125.892, 168.709
127.286, 214.222
128.681, 176.023
130.075, 393.945
131.469, 475.856
132.862, 912.644
134.256, 1197.216
135.649, 1750.491
137.042, 2294.397
138.435, 2551.873
139.827, 2486.886
141.219, 1862.387
142.611, 1483.316
144.003, 1111.640
145.394, 984.332
146.786, 1139.372
148.177, 1235.736
149.567, 1680.404
150.958, 2054.358
152.348, 2585.585
153.738, 2895.068
155.128, 3130.781
156.517, 2809.706
157.907, 2110.824
159.296, 1618.123
160.685, 965.590
162.073, 799.215
163.462, 503.990
164.850, 411.905
166.237, 355.008
167.625, 229.833
169.012, 241.135
170.400, 272.559
171.786, 269.100
173.173, 209.753
174.559, 116.520
175.946, 119.390
177.332, 81.358
178.717, 167.514
180.103, 123.785
181.488, 226.136
182.873, 165.589
184.258, 93.125
185.642, 176.755
187.026, 8.477
188.410, 147.277
189.794, 97.190
191.178, 131.225
192.561, 75.326
193.944, 117.478
195.327, 213.656
196.709, 175.832
198.092, 319.985
199.474, 275.147
200.856, 333.327
202.237, 358.514
203.618, 249.713
205.000, 391.974
206.380, 237.253
207.761, 225.562
209.142, 52.902
210.522, 119.265
211.902, 161.653
213.281, 20.067
214.661, 124.512
216.040, 60.988
217.419, 119.492
218.798, 1.977
220.176, 31.674
221.554, 72.734
222.932, 23.549
224.310, 128.213
225.688, 73.998
227.065, 172.855
228.442, 160.765
229.819, 164.694
231.196, 233.649
232.572, 254.627
233.948, 504.625
235.324, 356.776
236.700, 459.936
238.075, 526.009
239.450, 553.104
240.825, 601.221
242.200, 417.369
243.574, 561.263
244.948, 446.290
246.322, 650.438
247.696, 634.603
249.070, 710.796
250.443, 989.028
251.816, 1046.100
253.189, 1266.926
254.561, 1607.305
255.933, 2157.627
257.306, 2940.968
258.677, 4032.433
260.049, 5832.799
261.420, 7463.554
262.791, 9634.314
264.162, 10984.728
265.533, 11115.153
266.903, 9961.204
268.274, 7601.629
269.643, 5853.540
271.013, 4000.986
272.383, 2824.443
273.752, 2134.907
275.121, 1625.461
276.490, 1324.933
277.858, 945.992
279.226, 912.145
280.595, 646.413
281.962, 594.074
283.330, 479.907
284.697, 344.886
286.064, 462.949
287.431, 239.180
288.798, 347.513
290.164, 211.938
291.530, 191.446
292.896, 232.031
294.262, 39.687
295.627, 252.304
296.993, 142.086
298.358, 165.924
299.722, 124.813
301.087, 69.751
302.451, 84.777
303.815, 45.804
305.179, 181.871
306.543, 16.975
307.906, 18.115
309.269, 137.289
310.632, 21.496
311.995, 132.732
313.357, 66.997
314.719, 137.294
316.081, 63.161
317.443, 16.508
318.804, 181.879
320.166, 14.273
321.527, 132.689
322.887, 48.125
324.248, 63.580
325.608, 116.236
326.968, 9.727
328.328, 130.235
329.688, 16.240
331.047, 150.300
332.406, 92.009
333.765, 5.575
335.124, 111.154
336.482, 29.747
337.840, 81.353
339.198, 143.827
340.556, 98.455
341.913, 168.503
343.271, 17.153
344.628, 133.813
345.984, 58.482
347.341, 142.159
348.697, 113.314
350.053, 50.006
351.409, 129.714
352.765, 21.429
354.120, 69.149
355.475, 8.363
356.830, 4.904
358.185, 119.841
359.539, 4.409
360.894, 114.345
362.248, 45.156
363.601, 72.919
364.955, 59.317
366.308, 104.089
367.661, 148.865
369.014, 23.804
370.367, 181.588
371.719, 51.954
373.071, 10.163
374.423, 40.629
375.775, 58.576
377.126, 31.211
378.478, 13.042
379.828, 118.834
381.179, 64.627
382.530, 29.579
383.880, 71.376
385.230, 9.470
386.580, 191.051
387.929, 20.152
389.279, 65.582
390.628, 119.375
391.977, 12.763
393.325, 154.027
394.674, 0.111
396.022, 134.691
397.370, 81.477
398.718, 64.817
400.065, 177.599
401.413, 40.621
402.760, 70.255
404.106, 60.023
405.453, 89.597
406.799, 96.346
408.146, 4.919
409.491, 80.811
410.837, 4.461
412.182, 57.380
413.528, 42.101
414.873, 39.437
416.217, 146.145
417.562, 92.152
418.906, 151.272
420.250, 28.945
421.594, 96.027
422.938, 211.715
424.281, 22.620
425.624, 162.585
426.967, 38.233
428.310, 179.488
429.652, 81.110
430.994, 44.727
432.336, 161.332
433.678, 6.931
435.020, 126.543
436.361, 20.134
437.702, 120.718
439.043, 150.296
440.383, 28.120
441.724, 179.687
443.064, 62.264
444.404, 70.844
445.743, 135.433
447.083, 25.984
448.422, 160.598
449.761, 66.182
451.100, 102.873
452.438, 138.456
453.777, 49.042
455.115, 140.021
456.453, 37.396
457.790, 111.541
459.128, 129.091
460.465, 133.638
461.802, 150.367
463.139, 5.094
464.475, 159.432
465.811, 125.952
467.147, 76.468
468.483, 260.979
469.819, 66.486
471.154, 135.987
472.489, 105.481
473.824, 169.971
475.159, 176.499
476.493, 7.986
477.827, 185.462
479.161, 52.931
480.495, 164.393
481.829, 141.861
483.162, 88.311
484.495, 197.753
485.828, 95.812
487.161, 337.553
488.493, 42.981
489.825, 78.351
491.157, 150.664
492.489, 29.983
493.820, 175.343
495.151, 158.703
496.482, 87.013
497.813, 142.406
499.144, 39.301
500.474, 268.949
501.804, 15.540
503.134, 192.671
504.464, 145.996
505.793, 87.188
507.123, 278.371
508.451, 21.689
509.780, 172.849
511.109, 165.979
512.437, 100.120
513.765, 211.255
515.093, 2.815
516.421, 275.918
517.748, 181.991
519.075, 161.073
520.402, 228.064
521.729, 47.292
523.055, 310.342
524.382, 24.529
525.708, 147.559
527.034, 248.579
528.359, 12.730
529.685, 239.717
531.010, 26.750
532.335, 149.789
533.659, 204.485
534.984, 130.424
536.308, 223.037
537.632, 56.955
538.956, 160.861
540.279, 208.756
541.603, 12.640
542.926, 196.501
544.249, 6.649
545.571, 208.169
546.894, 144.977
548.216, 19.075
549.538, 202.851
550.860, 34.385
552.181, 144.866
553.503, 60.571
554.824, 75.206
556.145, 221.888
557.465, 32.558
558.786, 162.211
560.106, 128.853
561.426, 55.599
562.746, 204.215
564.065, 46.180
565.385, 240.372
566.704, 104.910
568.023, 143.247
569.341, 183.772
570.660, 58.177
571.978, 220.677
573.296, 31.165
574.614, 148.912
575.931, 234.375
577.248, 15.451
578.565, 227.964
579.882, 6.367
581.199, 86.800
582.515, 159.166
583.831, 5.109
585.147, 310.436
586.463, 30.751
587.779, 265.927
589.094, 119.213
590.409, 173.485
591.724, 238.747
593.038, 91.910
594.353, 207.585
595.667, 179.809
596.981, 142.027
598.295, 253.227
599.608, 50.453
600.922, 247.935
602.235, 167.096
603.547, 97.261
604.860, 227.401
606.172, 3.425
607.485, 334.060
608.797, 77.145
610.108, 173.216
611.420, 300.449
612.731, 44.496
614.042, 263.766
615.353, 42.888
616.664, 157.890
617.974, 206.945
619.284, 59.922
620.594, 301.183
621.904, 128.091
623.213, 181.028
624.523, 284.199
625.832, 142.115
627.141, 359.188
628.449, 114.084
629.758, 272.967
631.066, 332.152
632.374, 16.010
633.681, 343.203
634.989, 113.481
636.296, 268.290
637.603, 173.277
638.910, 107.090
640.217, 442.219
641.523, 158.005
642.829, 220.778
644.135, 287.372
645.441, 88.118
646.747, 338.357
648.052, 60.078
649.357, 297.784
650.662, 305.583
651.967, 99.266
653.271, 480.935
654.575, 87.590
655.879, 247.232
657.183, 276.157
658.486, 44.773
659.790, 316.967
661.093, 75.557
662.396, 197.159
663.698, 232.954
665.001, 71.531
666.303, 286.634
667.605, 8.446
668.907, 233.094
670.209, 354.410
671.510, 30.925
672.811, 340.963
674.112, 10.526
675.413, 210.957
676.713, 261.425
678.013, 66.883
679.313, 260.275
680.613, 74.287
681.913, 244.077
683.212, 265.523
684.511, 73.920
685.810, 340.153
687.109, 11.157
688.407, 282.530
689.706, 353.912
691.004, 461.249
692.302, 1207.576
693.599, 1932.272
694.897, 2800.545
696.194, 2408.853
697.491, 1121.149
698.788, 866.262
700.084, 274.534
701.380, 393.498
702.677, 283.749
703.972, 192.988
705.268, 444.278
706.564, 110.502
707.859, 605.645
709.154, 955.848
710.449, 1184.141
711.743, 1262.306
713.037, 549.519
714.332, 523.123
715.626, 537.273
716.919, 330.414
718.213, 440.443
719.506, 199.571
720.799, 122.880
722.092, 230.985
723.384, 69.172
724.677, 437.260
725.969, 46.335
727.261, 179.283
728.553, 244.340
729.844, 33.790
731.136, 323.824
732.427, 159.849
733.718, 96.139
735.008, 365.167
736.299, 52.238
737.589, 347.719
738.879, 107.682
740.169, 224.089
741.458, 236.040
742.748, 18.631
744.037, 365.283
745.326, 174.189
746.614, 151.215
747.903, 203.103
749.191, 5.964
750.479, 310.829
751.767, 91.686
753.055, 241.558
754.342, 278.396
755.629, 19.001
756.916, 388.827
758.203, 88.646
759.490, 93.385
760.776, 252.187
762.062, 61.028
763.348, 253.062
764.634, 126.701
765.919, 10.282
767.204, 416.436
768.489, 33.750
769.774, 233.811
771.059, 182.131
772.343, 74.826
773.627, 242.514
774.911, 19.006
776.195, 207.935
777.479, 131.600
778.762, 31.257
780.045, 366.846
781.328, 49.484
782.611, 257.341
783.893, 185.962
785.175, 15.577
786.457, 394.180
787.739, 31.268
789.021, 285.318
790.302, 212.881
791.583, 43.435
792.864, 404.047
794.145, 16.570
795.425, 231.098
796.706, 218.615
797.986, 91.126
799.266, 321.660
800.545, 63.886
801.825, 217.593
803.104, 208.856
804.383, 28.680
805.662, 269.058
806.940, 95.458
808.219, 124.894
809.497, 231.263
810.775, 57.686
812.053, 306.116
813.330, 97.269
814.608, 181.697
815.885, 263.245
817.162, 49.661
818.438, 354.066
819.715, 193.165
820.991, 13.560
822.267, 403.178
823.543, 3.446
824.818, 320.916
826.094, 216.793
827.369, 107.146
828.644, 319.425
829.919, 143.764
831.193, 269.111
832.468, 306.531
833.742, 15.134
835.016, 364.038
836.289, 92.721
837.563, 168.026
838.836, 331.352
840.109, 29.648
841.382, 464.881
842.654, 93.483
843.927, 219.763
845.199, 367.340
846.471, 12.758
847.743, 372.017
849.014, 232.651
850.286, 172.897
851.557, 355.163
852.828, 108.430
854.099, 429.689
855.369, 337.120
856.639, 168.377
857.909, 481.651
859.179, 113.454
860.449, 556.722
861.718, 344.001
862.988, 60.272
864.257, 478.539
865.525, 92.166
866.794, 263.420
868.062, 320.688
869.331, 147.949
870.599, 415.206
871.866, 182.460
873.134, 159.709
874.401, 396.974
875.668, 26.769
876.935, 501.344
878.202, 118.604
879.468, 115.641
880.735, 392.890
882.001, 9.852
883.267, 437.108
884.532, 154.337
885.798, 201.581
887.063, 538.809
888.328, 136.035
889.593, 269.208
890.857, 286.432
892.122, 213.653
893.386, 640.878
894.650, 118.100
895.913, 163.439
897.177, 310.655
898.440, 67.883
899.703, 525.104
900.966, 192.321
902.229, 209.097
903.491, 396.304
904.754, 93.504
906.016, 400.706
907.278, 207.902
908.539, 154.789
909.801, 451.979
911.062, 10.851
912.323, 236.324
913.584, 323.495
914.844, 16.284
916.105, 583.455
917.365, 30.622
918.625, 156.613
919.885, 423.773
921.144, 10.691
922.404, 427.842
923.663, 114.988
924.922, 342.068
926.180, 369.211
927.439, 36.052
928.697, 373.188
929.955, 320.320
931.213, 12.796
932.471, 484.319
933.728, 18.739
934.985, 428.359
936.242, 315.453
937.499, 122.228
938.756, 489.314
940.012, 94.043
941.269, 271.126
942.525, 318.209
943.780, 114.906
945.036, 392.110
946.291, 118.792
947.546, 205.799
948.801, 502.807
950.056, 139.794
951.311, 376.792
952.565, 359.284
953.819, 116.277
955.073, 453.269
956.327, 27.992
957.580, 384.974
958.834, 381.955
960.087, 88.932
961.339, 416.438
962.592, 133.258
963.845, 160.227
965.097, 337.569
966.349, 105.468
967.601, 351.814
968.852, 308.510
970.104, 34.591
971.355, 572.286
972.606, 41.193
973.857, 285.672
975.107, 171.744
976.358, 101.398
977.608, 315.439
978.858, 152.241
980.108, 189.049
981.357, 339.680
982.607, 46.484
983.856, 253.283
985.105, 278.522
986.353, 15.320
987.602, 352.804
988.850, 40.407
990.098, 236.358
991.346, 253.519
992.594, 30.312
993.841, 347.062
995.089, 34.106
996.336, 70.905
997.583, 507.923
998.829, 25.289
1000.076, 621.482
1001.322, 424.458
1002.568, 301.252
1003.814, 638.150
1005.060, 74.932
1006.305, 361.718
1007.550, 403.771
1008.795, 0.548
1010.040, 457.316
1011.285, 154.396
1012.529, 241.191
1013.773, 557.908
1015.017, 34.690
1016.261, 581.455
1017.505, 291.996
1018.748, 358.786
1019.991, 705.573
1021.234, 203.297
1022.477, 590.070
1023.719, 496.860
1024.962, 213.666
1026.204, 698.335
1027.446, 292.320
1028.688, 279.064
1029.929, 605.817
1031.170, 132.923
1032.411, 518.632
1033.652, 455.602
1034.893, 132.327
1036.134, 699.047
1037.374, 146.564
1038.614, 593.267
1039.854, 570.267
1041.094, 327.868
1042.333, 894.588
1043.572, 492.069
1044.811, 508.896
1046.050, 665.624
1047.289, 376.359
1048.527, 882.939
1049.766, 799.664
1051.004, 726.557
1052.241, 1223.263
1053.479, 550.596
1054.717, 757.301
1055.954, 994.018
1057.191, 741.354
1058.428, 1018.056
1059.664, 1064.761
1060.901, 1270.967
1062.137, 1937.651
1063.373, 1724.867
1064.609, 3231.529
1065.844, 5368.207
1067.080, 10295.426
1068.315, 27892.109
1069.550, 49398.766
1070.785, 48595.066
1072.019, 26311.707
1073.254, 10019.078
1074.488, 5145.707
1075.722, 3222.320
1076.955, 2069.712
1078.189, 2216.307
1079.422, 1562.921
1080.656, 1738.861
1081.889, 2135.426
1083.121, 1971.241
1084.354, 3307.787
1085.586, 5724.322
1086.818, 16181.174
1088.050, 43997.707
1089.282, 47634.215
1090.514, 26061.678
1091.745, 9208.192
1092.976, 3618.157
1094.207, 2414.646
1095.438, 1381.126
1096.668, 1008.559
1097.899, 1235.011
1099.129, 481.450
1100.359, 878.351
1101.588, 724.813
1102.818, 321.557
1104.047, 887.995
1105.276, 424.142
1106.505, 571.402
1107.734, 577.810
1108.962, 54.168
1110.191, 461.228
1111.419, 277.601
1112.647, 94.063
1113.874, 630.720
1115.102, 90.812
1116.329, 417.456
1117.556, 453.824
1118.783, 238.278
1120.010, 676.401
1121.236, 360.456
1122.463, 336.931
1123.689, 673.175
1124.914, 173.445
1126.140, 400.432
1127.366, 596.629
1128.591, 57.189
1129.816, 620.566
1131.041, 246.438
1132.266, 182.537
1133.490, 810.507
1134.714, 16.207
1135.938, 383.215
1137.162, 567.078
1138.386, 23.095
1139.609, 835.381
1140.833, 211.051
1142.056, 137.021
1143.279, 719.062
1144.501, 64.842
1145.724, 700.918
1146.946, 465.427
1148.168, 88.700
1149.390, 774.964
1150.612, 190.745
1151.833, 296.507
1153.054, 704.604
1154.275, 69.673
1155.496, 666.553
1156.717, 382.766
1157.937, 148.382
1159.158, 662.964
1160.378, 208.536
1161.598, 374.088
1162.817, 636.677
1164.037, 37.814
1165.256, 647.640
1166.475, 244.513
1167.694, 29.922
1168.913, 645.511
1170.131, 241.071
1171.349, 236.406
1172.567, 653.014
1173.785, 91.688
1175.003, 563.523
1176.220, 302.560
1177.438, 167.723
1178.655, 782.933
1179.872, 198.970
1181.088, 284.065
1182.305, 609.728
1183.521, 64.775
1184.737, 579.792
1185.953, 200.707
1187.169, 55.671
1188.384, 520.698
1189.599, 90.834
1190.814, 245.709
1192.029, 431.916
1193.244, 33.097
1194.459, 561.663
1195.673, 292.303
1196.887, 237.011
1198.101, 681.691
1199.314, 145.930
1200.528, 370.552
1201.741, 735.146
1202.954, 140.571
1204.167, 645.106
1205.380, 482.918
1206.592, 187.580
1207.805, 732.034
1209.017, 167.873
1210.229, 222.266
1211.440, 666.975
1212.652, 104.619
1213.863, 658.924
1215.074, 493.541
1216.285, 318.044
1217.496, 812.266
1218.707, 127.994
1219.917, 502.152
1221.127, 706.283
1222.337, 71.181
1223.547, 735.247
1224.756, 299.283
1225.966, 234.855
1227.175, 848.838
1228.384, 193.954
1229.592, 388.054
1230.801, 841.950
1232.009, 240.738
1233.217, 644.585
1234.425, 718.395
1235.633, 95.360
1236.841, 959.122
1238.048, 192.865
1239.255, 366.612
1240.462, 860.338
1241.669, 94.158
1242.876, 677.838
1244.082, 671.495
1245.288, 222.214
1246.494, 815.823
1247.700, 259.410
1248.906, 443.487
1250.111, 747.020
1251.316, 130.666
1252.521, 704.283
1253.726, 647.743
1254.931, 173.167
1256.135, 876.571
1257.339, 309.945
1258.543, 266.743
1259.747, 910.031
1260.951, 262.946
1262.154, 326.280
1263.357, 809.490
1264.560, 32.642
1265.763, 775.762
1266.966, 288.854
1268.168, 342.401
1269.371, 965.384
1270.573, 158.332
1271.775, 641.246
1272.976, 814.125
1274.178, 43.151
1275.379, 845.973
1276.580, 368.761
1277.781, 31.476
1278.982, 914.181
1280.182, 116.125
1281.383, 368.768
1282.583, 651.356
1283.783, 46.789
1284.982, 717.422
1286.182, 489.860
1287.381, 48.031
1288.580, 754.288
1289.779, 305.920
1290.978, 348.112
1292.177, 630.258
1293.375, 73.837
1294.573, 538.733
1295.771, 600.610
1296.969, 12.568
1298.166, 714.484
1299.364, 201.087
1300.561, 92.925
1301.758, 934.731
1302.955, 93.818
1304.151, 407.869
1305.348, 509.383
1306.544, 69.031
1307.740, 422.465
1308.936, 550.185
1310.132, 51.616
1311.327, 753.062
1312.522, 283.416
1313.717, 284.671
1314.912, 735.868
1316.107, 67.007
1317.301, 458.121
1318.496, 481.925
1319.690, 17.075
1320.884, 723.870
1322.077, 304.418
1323.271, 105.284
1324.464, 766.651
1325.657, 177.441
1326.850, 328.192
1328.043, 598.098
1329.235, 51.226
1330.428, 489.124
1331.620, 298.803
1332.812, 40.683
1334.004, 699.071
1335.195, 49.389
1336.387, 279.760
1337.578, 716.124
1338.769, 53.574
1339.960, 626.667
1341.150, 577.021
1342.341, 112.809
1343.531, 856.692
1344.721, 356.754
1345.911, 106.785
1347.100, 686.195
1348.290, 13.838
1349.479, 266.087
1350.668, 535.860
1351.857, 35.713
1353.046, 734.996
1354.234, 225.297
1355.422, 14.933
1356.610, 813.983
1357.798, 223.812
1358.986, 243.506
1360.174, 753.171
1361.361, 23.030
1362.548, 691.927
1363.735, 631.829
1364.922, 111.429
1366.108, 979.934
1367.295, 309.479
1368.481, 18.983
1369.667, 808.194
1370.853, 57.688
1372.038, 256.705
1373.224, 836.221
1374.409, 42.175
1375.594, 647.111
1376.779, 504.714
1377.963, 14.414
1379.148, 716.802
1380.332, 538.519
1381.516, 349.198
1382.700, 910.337
1383.884, 271.559
1385.067, 473.043
1386.251, 823.589
1387.434, 75.748
1388.617, 805.469
1389.799, 616.402
1390.982, 177.207
1392.164, 976.321
1393.346, 267.191
1394.528, 268.270
1395.710, 1058.416
1396.892, 2.465
1398.073, 678.514
1399.254, 877.219
1400.435, 23.037
1401.616, 890.180
1402.797, 640.896
1403.977, 263.658
1405.157, 864.021
1406.338, 374.645
1407.517, 365.105
1408.697, 1112.273
1409.877, 160.498
1411.056, 808.992
1412.235, 1249.195
1413.414, 269.336
1414.593, 1547.436
1415.771, 1707.166
1416.949, 2196.873
1418.128, 4314.998
1419.306, 3309.490
1420.483, 2439.273
1421.661, 2037.807
1422.838, 856.732
1424.016, 1057.641
1425.193, 1177.176
1426.369, 11.219
1427.546, 865.945
1428.723, 656.148
1429.899, 315.551
1431.075, 1159.350
1432.251, 377.086
1433.426, 350.678
1434.602, 1089.377
1435.777, 85.928
1436.952, 788.482
1438.127, 986.684
1439.302, 374.990
1440.477, 850.920
1441.651, 788.105
1442.825, 366.725
1443.999, 1272.316
1445.173, 348.225
1446.347, 596.939
1447.520, 1095.146
1448.693, 296.791
1449.866, 694.699
1451.039, 1162.246
1452.212, 169.904
1453.384, 951.904
1454.557, 767.873
1455.729, 224.545
1456.901, 1201.064
1458.072, 531.777
1459.244, 278.982
1460.415, 1325.238
1461.586, 201.223
1462.757, 687.488
1463.928, 1002.375
1465.099, 11.377
1466.269, 1044.947
1467.439, 681.123
1468.609, 167.227
1469.779, 1213.225
1470.949, 409.176
1472.118, 439.764
1473.288, 1085.707
1474.457, 111.801
1475.625, 688.057
1476.794, 972.449
1477.963, 108.689
1479.131, 784.828
1480.299, 720.887
1481.467, 36.912
1482.635, 863.152
1483.803, 479.494
1484.970, 145.506
1486.137, 1182.250
1487.304, 99.008
1488.471, 296.229
1489.638, 1153.727
1490.804, 31.357
1491.970, 544.803
1493.136, 1042.502
1494.302, 19.645
1495.468, 908.705
1496.634, 676.967
1497.799, 85.596
1498.964, 944.832
1500.129, 271.803
1501.294, 71.693
1502.458, 1311.660
1503.623, 62.471
1504.787, 370.322
1505.951, 992.121
1507.115, 183.748
1508.279, 744.078
1509.442, 913.104
1510.605, 239.779
1511.768, 1113.211
1512.931, 808.471
1514.094, 2.604
1515.257, 1211.863
1516.419, 0.000
##END=



