##NAMES=Shortite
##RRUFFID=R050248
##IDEAL CHEMISTRY=Na_2_Ca_2_(CO_3_)_3_
##LOCALITY=Stauffer mine, Green River, Wyoming, USA
##OWNER=RRUFF
##SOURCE=Marcus Origlieri
##DESCRIPTION=Colorless wedge-shaped single crystal
##STATUS=The identification of this mineral has been confirmed by X-ray diffraction and chemical analysis
##URL=rruff.info/R050248
##MEASURED CHEMISTRY=Na_2.00_Ca_2.00_(CO_3_)_3_ ; CO2 not measured but estimated by difference and stoichiometry.
##PIN_ID=L01884
##ORIENTATION=Laser parallel to c* (0 0 1). Fiducial mark perpendicular to laser is parallel to a [1 0 0]
102.9200, 0.0000000E+00
104.1590, 17.28760
105.3980, 31.08545
106.6360, 1.729736
107.8750, 72.01245
109.1130, 156.2917
110.3510, 75.88208
111.5890, 18.09961
112.8270, 8.715332
114.0650, 84.85742
115.3020, 132.9612
116.5390, 84.73950
117.7770, 232.9626
119.0130, 368.4517
120.2500, 527.0615
121.4870, 762.6714
122.7230, 978.1753
123.9590, 1271.478
125.1950, 1656.496
126.4310, 2266.158
127.6670, 3042.402
128.9030, 3897.173
130.1380, 4364.427
131.3730, 4673.125
132.6080, 4734.251
133.8430, 5034.780
135.0780, 5032.685
136.3120, 5441.949
137.5470, 5489.545
138.7810, 5288.456
140.0150, 5202.653
141.2480, 4325.108
142.4820, 3565.791
143.7160, 2678.683
144.9490, 1921.766
146.1820, 1575.027
147.4150, 1363.453
148.6480, 1318.035
149.8800, 1420.764
151.1130, 1508.632
152.3450, 1687.632
153.5770, 1805.759
154.8090, 1885.006
156.0410, 1705.369
157.2720, 1606.847
158.5040, 1345.439
159.7350, 932.2207
160.9660, 708.2358
162.1970, 507.4006
163.4270, 294.6926
164.6580, 211.0864
165.8880, 233.6655
167.1180, 87.32373
168.3480, 132.0898
169.5780, 87.95532
170.8080, 83.94702
172.0370, 165.0015
173.2670, 244.1248
174.4960, 240.2874
175.7250, 337.4980
176.9540, 447.7100
178.1820, 520.8716
179.4110, 816.9961
180.6390, 846.0989
181.8670, 1056.182
183.0950, 1160.263
184.3230, 1131.347
185.5500, 1109.463
186.7780, 1148.594
188.0050, 1154.740
189.2320, 1215.379
190.4590, 1343.087
191.6850, 1418.293
192.9120, 1602.524
194.1380, 1841.788
195.3650, 2160.080
196.5910, 2438.393
197.8160, 2703.747
199.0420, 2809.123
200.2680, 2898.562
201.4930, 2960.020
202.7180, 2868.500
203.9430, 2666.999
205.1680, 2573.531
206.3930, 2479.096
207.6170, 2178.693
208.8410, 1981.327
210.0660, 1710.978
211.2890, 1403.875
212.5130, 1143.692
213.7370, 943.3994
214.9600, 725.6631
216.1840, 571.9932
217.4070, 438.8125
218.6300, 295.1787
219.8520, 247.1548
221.0750, 205.2114
222.2970, 165.2595
223.5200, 137.9500
224.7420, 41.97266
225.9640, 44.25708
227.1850, 17.78101
228.4070, 140.5239
229.6280, 117.7222
230.8490, 130.0222
232.0700, 152.7666
233.2910, 122.4033
234.5120, 143.1633
235.7320, 164.9023
236.9530, 176.7754
238.1730, 236.3772
239.3930, 280.0894
240.6130, 342.6807
241.8320, 421.7014
243.0520, 505.4080
244.2710, 603.2939
245.4900, 715.9148
246.7090, 772.3357
247.9280, 965.0386
249.1470, 1129.744
250.3650, 1292.273
251.5840, 1546.068
252.8020, 1737.041
254.0200, 2033.063
255.2370, 2441.349
256.4550, 2910.798
257.6720, 3616.388
258.8900, 4368.665
260.1070, 5179.494
261.3240, 5832.420
262.5400, 6993.438
263.7570, 7998.545
264.9730, 9058.715
266.1900, 9790.089
267.4060, 9971.965
268.6220, 9587.326
269.8370, 8454.742
271.0530, 7056.209
272.2680, 5762.723
273.4830, 4285.280
274.6980, 3277.878
275.9130, 2456.907
277.1280, 1861.580
278.3420, 1441.287
279.5570, 1129.027
280.7710, 932.7939
281.9850, 740.2046
283.1990, 615.4558
284.4120, 535.2996
285.6260, 430.5618
286.8390, 369.4485
288.0520, 280.3545
289.2650, 324.2795
290.4780, 186.5852
291.6910, 248.5439
292.9030, 197.5186
294.1160, 161.6223
295.3280, 161.6338
296.5400, 130.6499
297.7510, 150.6777
298.9630, 141.7173
300.1740, 21.77954
301.3860, 77.84082
302.5970, 63.91187
303.8080, 138.9937
305.0180, 91.08398
306.2290, 65.12793
307.4390, 33.23315
308.6500, 24.56470
309.8600, 116.6814
311.0700, 134.8340
312.2790, 30.39819
313.4890, 90.52612
314.6980, 40.65576
315.9080, 40.78760
317.1170, 6.771973
318.3250, 0.6384280
319.5340, 0.4953610
320.7430, 4.072021
321.9510, 77.06177
323.1590, 4.026855
324.3670, 12.83887
325.5750, 69.29297
326.7830, 73.57446
327.9900, 35.46460
329.1980, 1.645508
330.4050, 40.24414
331.6120, 85.85767
332.8190, 27.03735
334.0250, 51.06226
335.2320, 38.83887
336.4380, 7.748779
337.6440, 18.33862
338.8500, 23.57495
340.0560, 44.01709
341.2620, 3.096680
342.4670, 29.74976
343.6730, 64.88452
344.8780, 1.049316
346.0830, 33.01318
347.2870, 4.927002
348.4920, 44.87256
349.6970, 37.83228
350.9010, 24.19458
352.1050, 20.85742
353.3090, 2.231934
354.5130, 29.79224
355.7160, 22.80273
356.9200, 19.19165
358.1230, 14.19727
359.3260, 14.99292
360.5290, 2.6366999E-02
361.7320, 13.08423
362.9340, 73.17041
364.1370, 39.17822
365.3390, 17.07715
366.5410, 54.03076
367.7430, 36.83594
368.9450, 10.31128
370.1460, 37.46973
371.3480, 97.35303
372.5490, 54.14526
373.7500, 50.93237
374.9510, 6.712402
376.1520, 32.47852
377.3520, 44.23364
378.5520, 20.99609
379.7530, 44.73242
380.9530, 27.44409
382.1530, 11.14600
383.3520, 131.8423
384.5520, 3.460205
385.7510, 43.22046
386.9500, 76.88721
388.1490, 0.5488280
389.3480, 56.20044
390.5470, 97.84229
391.7450, 41.47607
392.9440, 79.10425
394.1420, 154.7266
395.3400, 127.3545
396.5380, 97.98657
397.7350, 65.62109
398.9330, 117.3254
400.1300, 196.7427
401.3270, 76.45117
402.5240, 80.84839
403.7210, 43.59302
404.9180, 110.2312
406.1140, 52.86719
407.3110, 30.50098
408.5070, 86.13110
409.7030, 1.241943
410.8990, 9.370361
412.0940, 102.9951
413.2900, 67.59326
414.4850, 117.5466
415.6800, 46.13501
416.8750, 36.90723
418.0700, 65.48462
419.2650, 17.05566
420.4590, 45.24780
421.6530, 47.80273
422.8470, 39.38623
424.0410, 90.92798
425.2350, 13.46289
426.4290, 18.98486
427.6220, 47.49536
428.8160, 20.99854
430.0090, 79.49048
431.2020, 72.97461
432.3940, 85.48364
433.5870, 1.009277
434.7790, 79.45728
435.9720, 126.9490
437.1640, 36.38086
438.3560, 24.19702
439.5470, 134.1904
440.7390, 48.56958
441.9300, 57.93994
443.1220, 47.30176
444.3130, 86.76099
445.5040, 71.17261
446.6940, 126.8416
447.8850, 95.16699
449.0750, 5.252441
450.2660, 78.03735
451.4560, 37.31787
452.6460, 79.89307
453.8350, 5.847412
455.0250, 29.38501
456.2140, 71.60352
457.4040, 98.81250
458.5930, 137.0122
459.7820, 36.41650
460.9700, 59.44678
462.1590, 82.59277
463.3470, 37.89526
464.5350, 87.99707
465.7240, 19.18506
466.9110, 132.3030
468.0990, 134.9998
469.2870, 83.09790
470.4740, 12.61353
471.6610, 138.1565
472.8480, 140.2156
474.0350, 83.44897
475.2220, 99.26929
476.4090, 73.11987
477.5950, 77.14185
478.7810, 83.31665
479.9670, 87.00391
481.1530, 85.99683
482.3390, 49.12036
483.5240, 198.9883
484.7100, 26.08691
485.8950, 18.80713
487.0800, 86.04932
488.2650, 66.68823
489.4490, 69.53735
490.6340, 124.9541
491.8180, 137.1614
493.0030, 95.75269
494.1870, 13.57251
495.3700, 6.379639
496.5540, 50.81128
497.7380, 118.5916
498.9210, 102.5847
500.1040, 96.06641
501.2870, 31.73242
502.4700, 52.47314
503.6530, 99.85498
504.8350, 23.50293
506.0180, 39.87134
507.2000, 117.5818
508.3820, 55.28271
509.5640, 98.64941
510.7450, 83.33252
511.9270, 173.9714
513.1080, 86.21680
514.2890, 124.8806
515.4700, 99.53589
516.6510, 145.1824
517.8320, 77.58154
519.0130, 122.2112
520.1930, 43.83252
521.3730, 134.6199
522.5530, 157.5654
523.7330, 139.3347
524.9130, 111.8545
526.0920, 52.58130
527.2710, 121.2656
528.4510, 105.8281
529.6300, 140.4114
530.8080, 140.2869
531.9870, 103.7927
533.1660, 101.4443
534.3440, 87.96582
535.5220, 85.12915
536.7000, 79.32397
537.8780, 87.60327
539.0560, 57.09204
540.2330, 41.57251
541.4110, 1.688232
542.5880, 41.53198
543.7650, 2.061279
544.9420, 37.49365
546.1180, 127.9163
547.2950, 62.33057
548.4710, 66.73657
549.6470, 104.1257
550.8230, 72.25537
551.9990, 129.7651
553.1750, 50.56738
554.3500, 63.93188
555.5260, 16.28857
556.7010, 122.6340
557.8760, 27.97119
559.0510, 85.29858
560.2250, 110.6179
561.4000, 3.536133
562.5740, 120.8340
563.7480, 48.12354
564.9220, 80.40308
566.0960, 82.67651
567.2700, 153.3257
568.4430, 130.5044
569.6170, 94.40112
570.7900, 94.24658
571.9630, 98.48047
573.1360, 47.70679
574.3080, 41.92480
575.4810, 66.77148
576.6530, 41.97388
577.8250, 85.16846
578.9980, 76.24023
580.1690, 69.41089
581.3410, 71.58301
582.5130, 62.74756
583.6840, 147.9050
584.8550, 30.04346
586.0260, 35.18530
587.1970, 10.31958
588.3680, 129.4436
589.5380, 14.56055
590.7080, 60.72314
591.8790, 113.8235
593.0490, 9.696289
594.2190, 75.78003
595.3880, 212.8264
596.5580, 73.45703
597.7270, 112.5212
598.8960, 87.57837
600.0650, 13.62939
601.2340, 138.4136
602.4030, 74.45093
603.5710, 18.48145
604.7400, 35.20679
605.9080, 33.22412
607.0760, 67.40405
608.2440, 67.40820
609.4120, 90.40845
610.5790, 51.57837
611.7460, 66.59619
612.9140, 56.60791
614.0810, 108.6138
615.2480, 8.378174
616.4140, 51.61719
617.5810, 177.6968
618.7470, 54.68896
619.9130, 99.70679
621.0790, 108.7002
622.2450, 62.68555
623.4110, 8.158447
624.5770, 77.13550
625.7420, 90.03247
626.9070, 48.44116
628.0720, 33.43262
629.2370, 36.18896
630.4020, 75.18994
631.5660, 89.59082
632.7310, 34.62695
633.8950, 96.06885
635.0590, 45.00977
636.2230, 32.17432
637.3870, 85.12109
638.5500, 1.075195
639.7140, 22.03271
640.8770, 57.99023
642.0400, 74.80859
643.2030, 75.17969
644.3660, 85.13037
645.5280, 9.251465
646.6910, 65.66846
647.8530, 49.60400
649.0150, 1.465820
650.1770, 90.47363
651.3390, 35.43311
652.5000, 1.850098
653.6620, 65.92334
654.8230, 55.88184
655.9840, 80.83936
657.1450, 101.7012
658.3060, 78.74170
659.4660, 90.70850
660.6270, 67.62061
661.7870, 20.43506
662.9470, 5.493164
664.1070, 48.58447
665.2670, 8.309082
666.4260, 90.19287
667.5860, 41.07910
668.7450, 29.96143
669.9040, 93.83936
671.0630, 66.71631
672.2220, 10.58936
673.3800, 149.4565
674.5390, 48.33252
675.6970, 19.20410
676.8550, 24.07129
678.0130, 81.93311
679.1710, 83.79150
680.3290, 88.64258
681.4860, 27.74170
682.6430, 15.51855
683.8000, 112.6118
684.9570, 130.3447
686.1140, 170.1787
687.2710, 242.0088
688.4270, 485.8350
689.5840, 607.7295
690.7400, 726.5752
691.8960, 1033.423
693.0520, 1444.338
694.2070, 1668.182
695.3630, 1662.661
696.5180, 1516.498
697.6730, 1184.149
698.8280, 819.9863
699.9830, 451.8521
701.1380, 374.0542
702.2920, 353.8828
703.4470, 327.6802
704.6010, 354.5093
705.7550, 438.3345
706.9090, 621.1597
708.0620, 802.9844
709.2160, 937.8052
710.3690, 925.6304
711.5220, 771.4478
712.6750, 589.2285
713.8280, 513.9819
714.9810, 323.7964
716.1340, 189.5557
717.2860, 201.3638
718.4380, 173.1694
719.5900, 179.9858
720.7420, 277.7983
721.8940, 298.6094
723.0450, 642.4160
724.1970, 1115.115
725.3480, 1341.849
726.4990, 1493.313
727.6500, 2237.111
728.8010, 3419.640
729.9510, 3797.439
731.1020, 3718.236
732.2520, 3110.726
733.4020, 2086.520
734.5520, 1157.318
735.7020, 546.1177
736.8510, 357.9136
738.0010, 207.7080
739.1500, 18.28467
740.2990, 51.08203
741.4480, 160.8770
742.5970, 117.5156
743.7450, 115.2627
744.8940, 90.99902
746.0420, 72.79053
747.1900, 65.57861
748.3380, 8.8867001E-02
749.4860, 42.69336
750.6330, 33.41846
751.7810, 80.25928
752.9280, 47.03906
754.0750, 55.03711
755.2220, 9.811523
756.3690, 38.24316
757.5160, 25.01270
758.6620, 29.77930
759.8090, 56.54346
760.9550, 31.30615
762.1010, 69.91016
763.2470, 31.68701
764.3920, 52.47510
765.5380, 25.45020
766.6830, 44.75586
767.8280, 21.01221
768.9730, 23.22266
770.1180, 13.52734
771.2630, 7.733398
772.4070, 9.993164
773.5520, 7.742188
774.6960, 50.46143
775.8400, 47.50635
776.9840, 59.24463
778.1280, 51.91602
779.2710, 16.64258
780.4140, 37.63281
781.5580, 81.06836
782.7010, 45.76709
783.8440, 13.81689
784.9860, 126.5127
786.1290, 98.20605
787.2710, 51.61621
788.4140, 25.43701
789.5560, 22.79932
790.6980, 8.208984
791.8390, 122.1626
792.9810, 99.77246
794.1220, 53.43359
795.2640, 87.09277
796.4050, 30.74902
797.5460, 59.40234
798.6860, 84.05322
799.8270, 68.36035
800.9680, 69.43311
802.1080, 31.37354
803.2480, 30.87061
804.3880, 49.50879
805.5280, 34.14502
806.6670, 41.75000
807.8070, 49.92188
808.9460, 41.60742
810.0850, 58.51514
811.2240, 60.96582
812.3630, 47.58838
813.5020, 101.1367
814.6400, 55.70361
815.7790, 73.31787
816.9170, 17.93115
818.0550, 26.54102
819.1930, 89.12061
820.3300, 30.64795
821.4680, 61.25781
822.6050, 78.86621
823.7430, 41.25977
824.8800, 111.0762
826.0170, 15.67822
827.1530, 78.56592
828.2900, 109.1621
829.4260, 16.75537
830.5620, 72.35156
831.6990, 118.9395
832.8340, 69.52637
833.9700, 50.82812
835.1060, 43.41162
836.2410, 31.70947
837.3760, 68.56934
838.5120, 57.14746
839.6470, 86.09277
840.7810, 138.6660
841.9160, 99.23584
843.0500, 112.8037
844.1850, 41.36865
845.3190, 41.93164
846.4530, 38.49121
847.5870, 47.04883
848.7200, 44.60352
849.8540, 130.1558
850.9870, 125.7603
852.1200, 133.3081
853.2530, 115.8535
854.3860, 92.39746
855.5190, 80.93750
856.6510, 117.4761
857.7840, 143.0122
858.9160, 208.5449
860.0480, 298.0762
861.1800, 373.6050
862.3110, 663.1323
863.4430, 522.6587
864.5740, 626.1831
865.7060, 569.7065
866.8370, 378.2266
867.9680, 207.7451
869.0980, 164.2622
870.2290, 148.7773
871.3590, 136.2905
872.4900, 121.8013
873.6200, 63.30908
874.7500, 140.8149
875.8790, 47.91260
877.0090, 52.41504
878.1380, 131.9165
879.2680, 93.41748
880.3970, 76.92090
881.5260, 80.42139
882.6550, 93.92041
883.7830, 16.58350
884.9120, 123.7285
886.0400, 41.20654
887.1680, 94.68262
888.2960, 103.1562
889.4240, 98.62744
890.5520, 107.1001
891.6790, 2.514160
892.8070, 48.94775
893.9340, 45.39746
895.0610, 129.8657
896.1880, 87.33447
897.3140, 93.80420
898.4410, 63.27295
899.5670, 132.7393
900.6940, 6.203613
901.8200, 105.6426
902.9450, 89.31104
904.0710, 59.72705
905.1970, 44.73926
906.3220, 39.12061
907.4470, 85.09863
908.5730, 36.93262
909.6980, 55.28418
910.8220, 0.7285160
911.9470, 29.83252
913.0710, 118.5859
914.1960, 88.00342
915.3200, 149.3535
916.4440, 144.8677
917.5680, 96.75830
918.6910, 88.16846
919.8150, 76.50537
920.9380, 30.91553
922.0610, 69.32373
923.1840, 2.731934
924.3070, 8.112305
925.4300, 52.96533
926.5520, 16.71045
927.6750, 11.30957
928.7970, 68.99609
929.9190, 29.34277
931.0410, 76.68750
932.1630, 68.01025
933.2840, 106.3525
934.4060, 51.69482
935.5270, 47.04053
936.6480, 163.3857
937.7690, 23.74170
938.8900, 94.09570
940.0100, 97.45166
941.1310, 38.80518
942.2510, 38.15820
943.3710, 135.5103
944.4910, 58.86133
945.6110, 41.78906
946.7310, 105.5352
947.8500, 72.85889
948.9690, 83.18115
950.0890, 59.50293
951.2080, 134.8232
952.3260, 85.07812
953.4450, 109.3687
954.5640, 158.6855
955.6820, 130.9922
956.8000, 160.3076
957.9180, 140.6226
959.0360, 31.93555
960.1540, 49.24805
961.2710, 97.51172
962.3890, 53.74463
963.5060, 91.00098
964.6230, 19.16846
965.7400, 58.42529
966.8570, 71.69336
967.9730, 25.04053
969.0900, 117.2100
970.2060, 61.45996
971.3220, 72.67627
972.4380, 149.9243
973.5540, 19.82861
974.6700, 18.40527
975.7850, 78.63818
976.9010, 102.8706
978.0160, 187.1021
979.1310, 168.0137
980.2460, 117.5625
981.3600, 149.7856
982.4750, 86.01465
983.5890, 95.24268
984.7030, 3.469727
985.8170, 110.6963
986.9310, 136.9380
988.0450, 81.17969
989.1590, 65.41992
990.2720, 129.6602
991.3850, 97.90088
992.4980, 96.14600
993.6110, 58.39941
994.7240, 86.66064
995.8370, 145.9214
996.9490, 90.18164
998.0620, 81.44189
999.1740, 68.70068
1000.286, 139.9600
1001.398, 46.21826
1002.509, 157.4766
1003.621, 137.7344
1004.732, 57.99170
1005.843, 191.2485
1006.954, 62.50537
1008.065, 38.76855
1009.176, 25.97656
1010.286, 57.26514
1011.397, 115.8765
1012.507, 75.11621
1013.617, 49.41406
1014.727, 96.65283
1015.837, 38.89258
1016.946, 121.1313
1018.056, 79.82812
1019.165, 86.07861
1020.274, 97.32812
1021.383, 13.57910
1022.492, 129.8291
1023.601, 57.07861
1024.709, 169.3286
1025.817, 74.91846
1026.926, 153.2510
1028.034, 102.5010
1029.141, 77.75146
1030.249, 94.69189
1031.357, 81.94141
1032.464, 111.2031
1033.571, 49.46582
1034.678, 139.5488
1035.785, 105.8101
1036.892, 190.0840
1037.999, 40.35742
1039.105, 94.63672
1040.211, 104.9165
1041.317, 153.1978
1042.423, 161.4819
1043.529, 140.7671
1044.635, 284.7397
1045.740, 133.7959
1046.845, 265.0801
1047.951, 348.3647
1049.056, 391.6499
1050.160, 403.9473
1051.265, 489.2451
1052.370, 519.5430
1053.474, 455.8408
1054.578, 538.1396
1055.682, 475.4399
1056.786, 506.6084
1057.890, 725.8262
1058.993, 567.5703
1060.097, 848.5918
1061.200, 1186.954
1062.303, 1670.264
1063.406, 2755.574
1064.509, 5015.885
1065.612, 9561.197
1066.714, 15195.51
1067.816, 21391.83
1068.919, 32072.14
1070.021, 41050.46
1071.122, 41564.78
1072.224, 34672.09
1073.326, 22862.41
1074.427, 12283.73
1075.528, 6138.053
1076.629, 3286.374
1077.730, 2124.695
1078.831, 1716.190
1079.931, 1564.513
1081.032, 1867.837
1082.132, 2343.161
1083.232, 3521.486
1084.332, 7378.814
1085.432, 14842.14
1086.531, 20963.47
1087.631, 31440.80
1088.730, 47351.14
1089.829, 53297.47
1090.928, 48680.81
1092.027, 34994.15
1093.126, 18955.49
1094.224, 8425.542
1095.323, 3690.884
1096.421, 1852.845
1097.519, 1121.184
1098.617, 740.1035
1099.715, 529.4497
1100.812, 408.0811
1101.910, 381.4302
1103.007, 207.7808
1104.104, 316.1323
1105.201, 268.4854
1106.298, 241.4683
1107.394, 173.8232
1108.491, 178.1797
1109.587, 102.5371
1110.683, 148.8955
1111.779, 174.2549
1112.875, 152.6157
1113.971, 160.9775
1115.066, 147.2104
1116.162, 124.7056
1117.257, 118.0166
1118.352, 102.1865
1119.447, 99.26318
1120.542, 112.9229
1121.636, 134.2925
1122.731, 122.3203
1123.825, 216.3931
1124.919, 126.6167
1126.013, 154.9731
1127.107, 191.3467
1128.200, 48.72119
1129.294, 207.0967
1130.387, 87.47217
1131.480, 126.8525
1132.573, 51.23340
1133.666, 12.61475
1134.759, 66.99707
1135.851, 176.3799
1136.944, 135.7637
1138.036, 157.1475
1139.128, 0.5322270
1140.220, 120.9170
1141.312, 35.66162
1142.403, 8.952148
1143.495, 57.43115
1144.586, 20.18506
1145.677, 81.19043
1146.768, 44.56641
1147.859, 129.9429
1148.950, 211.2896
1150.040, 139.1860
1151.130, 29.57129
1152.221, 56.01758
1153.311, 40.40430
1154.401, 94.79150
1155.490, 87.17920
1156.580, 85.61865
1157.669, 51.04053
1158.759, 64.32568
1159.848, 11.79590
1160.937, 12.83643
1162.025, 39.52441
1163.114, 25.87988
1164.202, 67.24170
1165.291, 52.57178
1166.379, 69.96826
1167.467, 19.33203
1168.555, 60.69678
1169.642, 46.06201
1170.730, 102.4277
1171.817, 122.7939
1172.905, 125.5020
1173.992, 52.52832
1175.078, 106.9038
1176.165, 117.2812
1177.252, 41.67383
1178.338, 53.06592
1179.425, 77.45947
1180.511, 77.21533
1181.597, 93.60889
1182.682, 38.01074
1183.768, 176.4121
1184.854, 72.81445
1185.939, 22.54492
1187.024, 140.9478
1188.109, 108.3516
1189.194, 88.75586
1190.279, 86.17578
1191.363, 64.60156
1192.448, 69.03223
1193.532, 70.80078
1194.616, 22.89404
1195.700, 70.32568
1196.784, 54.75684
1197.867, 18.08594
1198.951, 83.51758
1200.034, 58.94922
1201.117, 154.3813
1202.200, 22.81396
1203.283, 32.24609
1204.366, 152.6792
1205.448, 36.11182
1206.531, 60.54395
1207.613, 55.97656
1208.695, 92.41016
1209.777, 93.85547
1210.859, 110.3008
1211.940, 92.74609
1213.022, 76.76611
1214.103, 52.23047
1215.184, 32.35547
1216.265, 15.80127
1217.346, 19.24707
1218.427, 23.29297
1219.507, 19.43066
1220.587, 43.87646
1221.668, 31.32178
1222.748, 24.76709
1223.828, 52.21240
1224.907, 178.6846
1225.987, 6.843750
1227.066, 41.62207
1228.146, 37.91162
1229.225, 100.5317
1230.304, 120.2021
1231.382, 20.65283
1232.461, 103.1035
1233.540, 144.5547
1234.618, 67.00488
1235.696, 127.4551
1236.774, 191.9116
1237.852, 85.36816
1238.930, 38.82471
1240.007, 77.28076
1241.085, 54.73584
1242.162, 93.19141
1243.239, 117.6470
1244.316, 158.1025
1245.393, 80.55762
1246.469, 65.01318
1247.546, 56.53174
1248.622, 37.89062
1249.698, 142.3130
1250.774, 47.73486
1251.850, 1.156250
1252.926, 14.42480
1254.001, 25.27393
1255.077, 27.35352
1256.152, 56.74854
1257.227, 9.122070
1258.302, 129.4951
1259.377, 184.8672
1260.451, 17.02930
1261.526, 109.4009
1262.600, 84.77246
1263.674, 158.1440
1264.748, 67.51514
1265.822, 186.8862
1266.896, 112.2563
1267.969, 17.62695
1269.043, 92.98975
1270.116, 194.3594
1271.189, 92.73584
1272.262, 107.7417
1273.335, 31.11768
1274.407, 19.43555
1275.480, 73.81152
1276.552, 224.1870
1277.624, 11.43799
1278.696, 20.07227
1279.768, 87.28076
1280.840, 3.633301
1281.911, 83.98340
1282.982, 71.33398
1284.054, 70.68457
1285.125, 144.0347
1286.196, 78.38477
1287.266, 90.65234
1288.337, 1.002441
1289.407, 102.3511
1290.478, 64.00879
1291.548, 45.64209
1292.618, 94.68115
1293.688, 41.00537
1294.757, 60.32959
1295.827, 42.65430
1296.896, 56.97852
1297.965, 87.30420
1299.034, 71.79541
1300.103, 8.121582
1301.172, 55.47217
1302.241, 118.7988
1303.309, 43.95459
1304.377, 176.2822
1305.445, 52.69092
1306.513, 144.0200
1307.581, 143.3486
1308.649, 2.321777
1309.716, 169.0122
1310.784, 152.0361
1311.851, 130.3633
1312.918, 84.69238
1313.985, 0.9775390
1315.052, 43.35205
1316.118, 113.6831
1317.185, 215.0156
1318.251, 154.3486
1319.317, 88.68262
1320.383, 60.01758
1321.449, 101.3525
1322.514, 38.68701
1323.580, 65.02197
1324.645, 39.35205
1325.711, 10.31836
1326.776, 75.00732
1327.840, 68.33252
1328.905, 61.65820
1329.970, 12.98340
1331.034, 34.30762
1332.099, 190.6309
1333.163, 116.9531
1334.227, 63.26904
1335.290, 192.5850
1336.354, 111.8999
1337.418, 54.21533
1338.481, 77.53027
1339.544, 85.84521
1340.607, 0.8422850
1341.670, 144.4688
1342.733, 46.77930
1343.795, 115.0898
1344.858, 45.39990
1345.920, 17.28955
1346.982, 53.01465
1348.044, 39.31934
1349.106, 46.62354
1350.168, 7.928223
1351.229, 152.2324
1352.291, 36.53711
1353.352, 82.84180
1354.413, 59.52930
1355.474, 6.829590
1356.534, 120.5557
1357.595, 2.143555
1358.656, 116.1567
1359.716, 103.4570
1360.776, 124.7588
1361.836, 103.0610
1362.896, 102.3628
1363.955, 96.80908
1365.015, 117.9688
1366.074, 95.27295
1367.134, 40.57764
1368.193, 75.88281
1369.252, 66.18994
1370.310, 56.49658
1371.369, 138.8052
1372.427, 159.1147
1373.486, 158.4243
1374.544, 120.7349
1375.602, 85.24268
1376.660, 33.54102
1377.717, 71.83154
1378.775, 22.12256
1379.832, 74.21191
1380.889, 21.32178
1381.946, 30.75000
1383.003, 101.0479
1384.060, 44.33008
1385.117, 69.61230
1386.173, 106.8960
1387.230, 16.81836
1388.286, 157.4639
1389.342, 86.74756
1390.398, 23.03223
1391.453, 166.3174
1392.509, 243.6055
1393.564, 221.8945
1394.619, 242.1851
1395.675, 251.4775
1396.729, 350.7715
1397.784, 512.0669
1398.839, 667.3647
1399.893, 1107.666
1400.948, 1378.969
1402.002, 1767.280
1403.056, 1661.592
1404.110, 1330.906
1405.163, 1059.253
1406.217, 704.0610
1407.270, 438.3823
1408.324, 233.6465
1409.377, 172.9727
1410.430, 126.3018
1411.483, 139.6338
1412.535, 114.9683
1413.588, 38.30664
1414.640, 17.66260
1415.692, 18.91846
1416.744, 48.28320
1417.796, 103.6558
1418.848, 92.13818
1419.900, 69.52100
1420.951, 90.91016
1422.002, 34.30518
1423.053, 109.7056
1424.104, 76.11279
1425.155, 7.473145
1426.206, 74.94775
1427.256, 1.624023
1428.307, 110.8125
1429.357, 37.74219
1430.407, 56.70459
1431.457, 25.83887
1432.507, 68.62402
1433.556, 63.09424
1434.606, 25.57617
1435.655, 0.2910160
1436.704, 35.78223
1437.753, 131.7461
1438.802, 107.2969
1439.851, 131.8477
1440.899, 85.79834
1441.948, 135.4126
1442.996, 160.0293
1444.044, 92.67139
1445.092, 126.1938
1446.140, 149.6533
1447.187, 118.0591
1448.235, 124.4258
1449.282, 56.79346
1450.329, 103.2412
1451.376, 144.6016
1452.423, 62.96191
1453.470, 77.32227
1454.517, 91.68311
1455.563, 149.0439
1456.609, 98.40625
1457.655, 172.4707
1458.701, 191.8301
1459.747, 234.7529
1460.793, 237.1006
1461.838, 135.4487
1462.884, 121.7969
1463.929, 208.1484
1464.974, 381.5181
1466.019, 565.6338
1467.064, 857.0151
1468.108, 1016.397
1469.153, 1295.781
1470.197, 1266.335
1471.241, 1375.552
1472.285, 1137.939
1473.329, 893.3271
1474.373, 764.7373
1475.416, 870.1709
1476.460, 1136.608
1477.503, 1368.074
1478.546, 1683.578
1479.589, 1468.085
1480.632, 1092.521
1481.674, 637.0264
1482.717, 479.5361
1483.759, 308.0503
1484.801, 210.5693
1485.843, 103.0933
1486.885, 54.38770
1487.927, 80.15430
1488.968, 32.69873
1490.010, 100.2754
1491.051, 142.8599
1492.092, 44.44922
1493.133, 116.0444
1494.174, 124.6470
1495.215, 138.2568
1496.255, 167.9121
1497.296, 61.57422
1498.336, 130.2417
1499.376, 52.62988
1500.416, 47.26318
1501.456, 129.7056
1502.495, 136.3999
1503.535, 188.0103
1504.574, 225.4702
1505.613, 267.0405
1506.652, 431.6060
1507.691, 667.1650
1508.730, 900.7202
1509.768, 1393.275
1510.807, 2234.835
1511.845, 3327.417
1512.883, 4394.006
1513.921, 4725.602
1514.959, 4073.208
1515.996, 2959.840
1517.034, 1788.496
1518.071, 1228.162
1519.109, 758.8418
1520.146, 545.5352
1521.183, 380.2397
1522.219, 319.9551
1523.256, 310.6831
1524.292, 276.4219
1525.329, 122.1704
1526.365, 228.9409
1527.401, 132.7358
1528.437, 198.5410
1529.472, 164.3574
1530.508, 216.1860
1531.543, 191.0229
1532.579, 187.8706
1533.614, 132.7275
1534.649, 192.5923
1535.683, 76.46924
1536.718, 83.41211
1537.753, 61.48535
1538.787, 241.6899
1539.821, 78.93164
1540.855, 106.2158
1541.889, 151.5444
1542.923, 7.078613
1543.956, 105.3506
1544.990, 70.83447
1546.023, 59.37598
1547.056, 38.98145
1548.089, 116.6562
1549.122, 127.4072
1550.155, 4.240723
1551.187, 151.1675
1552.220, 85.19873
1553.252, 78.35010
1554.284, 200.6387
1555.316, 122.0635
1556.348, 9.628906
1557.379, 19.47949
1558.411, 111.3066
1559.442, 71.32031
1560.474, 27.54395
1561.505, 13.00439
1562.535, 14.73438
1563.566, 50.76172
1564.597, 4.794434
1565.627, 25.17529
1566.658, 125.3931
1567.688, 105.9595
1568.718, 37.84424
1569.748, 50.34961
1570.777, 0.0000000E+00
##END=



