##NAMES=Shortite
##RRUFFID=R050248
##IDEAL CHEMISTRY=Na_2_Ca_2_(CO_3_)_3_
##LOCALITY=Stauffer mine, Green River, Wyoming, USA
##OWNER=RRUFF
##SOURCE=Marcus Origlieri
##DESCRIPTION=Colorless wedge-shaped single crystal
##STATUS=The identification of this mineral has been confirmed by X-ray diffraction and chemical analysis
##URL=rruff.info/R050248
##MEASURED CHEMISTRY=Na_2.00_Ca_2.00_(CO_3_)_3_ ; CO2 not measured but estimated by difference and stoichiometry.
##PIN_ID=L01144
##ORIENTATION=Laser parallel to a* (1 0 0). Fiducial mark perpendicular to laser is parallel to -b [0 -1 0]
102.9200, 0.0000000E+00
104.1590, 31.02930
105.3980, 74.19141
106.6360, 10.24805
107.8750, 251.3955
109.1130, 158.6377
110.3510, 317.7891
111.5890, 247.1006
112.8270, 326.3623
114.0650, 235.6963
115.3020, 101.4375
116.5390, 156.0781
117.7770, 119.2197
119.0130, 229.5449
120.2500, 124.7959
121.4870, 57.75195
122.7230, 228.2334
123.9590, 198.0752
125.1950, 284.1396
126.4310, 327.3086
127.6670, 388.4814
128.9030, 389.5840
130.1380, 562.5576
131.3730, 764.3350
132.6080, 673.8555
133.8430, 751.0615
135.0780, 895.9092
136.3120, 797.3525
137.5470, 1000.355
138.7810, 955.8809
140.0150, 1059.896
141.2480, 1154.358
142.4820, 1131.223
143.7160, 972.4590
144.9490, 943.0410
146.1820, 862.9473
147.4150, 839.9131
148.6480, 841.4717
149.8800, 865.4854
151.1130, 901.5674
152.3450, 962.9395
153.5770, 1056.630
154.8090, 935.6836
156.0410, 1034.102
157.2720, 1057.734
158.5040, 917.5771
159.7350, 1038.624
160.9660, 995.8672
162.1970, 872.3027
163.4270, 987.9258
164.6580, 1070.729
165.8880, 1096.706
167.1180, 1179.854
168.3480, 1348.164
169.5780, 1437.632
170.8080, 1420.252
172.0370, 1253.017
173.2670, 1485.924
174.4960, 1077.966
175.7250, 1065.139
176.9540, 760.3877
178.1820, 663.5840
179.4110, 757.7568
180.6390, 648.9355
181.8670, 510.1357
183.0950, 606.3730
184.3230, 658.6543
185.5500, 496.9863
186.7780, 713.3770
188.0050, 741.8730
189.2320, 692.4336
190.4590, 839.0625
191.6850, 932.9395
192.9120, 1253.898
194.1380, 1398.940
195.3650, 1670.051
196.5910, 1786.231
197.8160, 2002.552
199.0420, 2275.038
200.2680, 2570.679
201.4930, 2645.644
202.7180, 2668.722
203.9430, 2519.678
205.1680, 2295.926
206.3930, 1979.130
207.6170, 1646.543
208.8410, 1226.641
210.0660, 1038.448
211.2890, 864.0205
212.5130, 680.3496
213.7370, 545.8125
214.9600, 488.3574
216.1840, 449.9541
217.4070, 467.6016
218.6300, 410.2988
219.8520, 178.1123
221.0750, 416.9941
222.2970, 231.9229
223.5200, 394.8994
224.7420, 352.9238
225.9640, 267.9912
227.1850, 209.1162
228.4070, 251.3848
229.6280, 231.6650
230.8490, 481.9844
232.0700, 517.3398
233.2910, 465.7314
234.5120, 495.1582
235.7320, 403.6201
236.9530, 558.1162
238.1730, 629.6455
239.3930, 415.2061
240.6130, 407.7998
241.8320, 324.4238
243.0520, 543.0811
244.2710, 488.7646
245.4900, 439.4785
246.7090, 614.2207
247.9280, 552.9932
249.1470, 647.7910
250.3650, 826.0947
251.5840, 776.0820
252.8020, 864.5410
254.0200, 1118.275
255.2370, 1404.496
256.4550, 1657.009
257.6720, 1900.230
258.8900, 2221.783
260.1070, 2356.002
261.3240, 2540.408
262.5400, 2728.986
263.7570, 2628.719
264.9730, 2873.600
266.1900, 2717.613
267.4060, 2297.754
268.6220, 2084.014
269.8370, 1605.383
271.0530, 1472.727
272.2680, 1103.301
273.4830, 807.9688
274.6980, 750.7246
275.9130, 684.5664
277.1280, 518.4883
278.3420, 362.1016
279.5570, 320.1719
280.7710, 221.3125
281.9850, 151.0996
283.1990, 160.8008
284.4120, 123.4141
285.6260, 111.8457
286.8390, 278.3320
288.0520, 100.9199
289.2650, 138.5137
290.4780, 59.16211
291.6910, 221.4043
292.9030, 169.1484
294.1160, 313.4121
295.3280, 184.8145
296.5400, 115.6914
297.7510, 18.20703
298.9630, 36.76367
300.1740, 26.38281
301.3860, 29.83984
302.5970, 39.90039
303.8080, 169.9961
305.0180, 144.1230
306.2290, 92.71680
307.4390, 6.507813
308.6500, 67.06445
309.8600, 114.7891
311.0700, 233.0742
312.2790, 156.3926
313.4890, 122.7363
314.6980, 30.10742
315.9080, 60.50195
317.1170, 38.59570
318.3250, 52.03711
319.5340, 161.5020
320.7430, 104.3066
321.9510, 83.81445
323.1590, 217.7363
324.3670, 109.2871
325.5750, 177.8633
326.7830, 185.4551
327.9900, 142.0684
329.1980, 175.7129
330.4050, 138.3672
331.6120, 35.06055
332.8190, 117.7715
334.0250, 72.51758
335.2320, 123.3730
336.4380, 3.869141
337.6440, 181.6543
338.8500, 172.4531
340.0560, 24.31641
341.2620, 109.1465
342.4670, 107.4922
343.6730, 167.3555
344.8780, 239.2344
346.0830, 229.7676
347.2870, 115.0234
348.4920, 185.9277
349.6970, 149.3672
350.9010, 0.2753910
352.1050, 71.39062
353.3090, 70.29102
354.5130, 153.1992
355.7160, 152.2363
356.9200, 174.0449
358.1230, 115.9805
359.3260, 214.9219
360.5290, 91.87109
361.7320, 271.8281
362.9340, 113.7891
364.1370, 71.75781
365.3390, 174.7324
366.5410, 108.7129
367.7430, 103.6992
368.9450, 91.68945
370.1460, 35.68359
371.3480, 189.6836
372.5490, 165.6875
373.7500, 280.6992
374.9510, 224.7168
376.1520, 109.7344
377.3520, 71.75977
378.5520, 91.78711
379.7530, 201.8164
380.9530, 172.8457
382.1530, 266.8789
383.3520, 303.9141
384.5520, 310.9512
385.7510, 460.9922
386.9500, 198.0352
388.1490, 101.0820
389.3480, 270.1289
390.5470, 254.1777
391.7450, 254.2305
392.9440, 462.2852
394.1420, 372.9609
395.3400, 66.03906
396.5380, 547.1406
397.7350, 204.2656
398.9330, 286.4102
400.1300, 561.5703
401.3270, 366.7461
402.5240, 240.9316
403.7210, 355.0488
404.9180, 309.2598
406.1140, 373.4805
407.3110, 341.1895
408.5070, 163.9414
409.7030, 329.1855
410.8990, 171.4355
412.0940, 310.6895
413.2900, 123.9551
414.4850, 41.78125
415.6800, 95.46094
416.8750, 232.7617
418.0700, 41.00977
419.2650, 32.33984
420.4590, 37.59180
421.6530, 207.1562
422.8470, 207.9883
424.0410, 107.1367
425.2350, 23.71289
426.4290, 118.4141
427.6220, 114.3027
428.8160, 50.91211
430.0090, 138.0352
431.2020, 39.15820
432.3940, 92.33203
433.5870, 97.52539
434.7790, 158.3652
435.9720, 234.6484
437.1640, 54.34180
438.3560, 55.37500
439.5470, 114.5469
440.7390, 28.53711
441.9300, 101.8633
443.1220, 181.3691
444.3130, 79.81055
445.5040, 0.4472660
446.6940, 195.2285
447.8850, 85.00586
449.0750, 83.77734
450.2660, 81.95898
451.4560, 44.97070
452.6460, 254.5176
453.8350, 4.164063
455.0250, 206.8789
456.2140, 165.5859
457.4040, 149.3750
458.5930, 246.0645
459.7820, 28.74609
460.9700, 211.6777
462.1590, 129.4062
463.3470, 103.9219
464.5350, 234.7949
465.7240, 55.62305
466.9110, 100.9922
468.0990, 66.50586
469.2870, 126.0156
470.4740, 142.5156
471.6610, 79.56641
472.8480, 298.3711
474.0350, 154.8535
475.2220, 77.22461
476.4090, 58.17383
477.5950, 65.22656
478.7810, 13.61133
479.9670, 79.20508
481.1530, 152.5879
482.3390, 73.11133
483.5240, 249.5117
484.7100, 52.08594
485.8950, 182.3750
487.0800, 125.9492
488.2650, 118.2832
489.4490, 230.5293
490.6340, 113.9355
491.8180, 6.150391
493.0030, 346.3770
494.1870, 51.50781
495.3700, 173.5898
496.5540, 209.6758
497.7380, 147.7637
498.9210, 160.8320
500.1040, 369.8867
501.2870, 252.9258
502.4700, 241.9492
503.6530, 322.9629
504.8350, 209.0430
506.0180, 271.8828
507.2000, 368.0469
508.3820, 323.1582
509.5640, 394.1309
510.7450, 452.0879
511.9270, 254.0254
513.1080, 425.9707
514.2890, 348.9219
515.4700, 230.9160
516.6510, 326.2070
517.8320, 391.1074
519.0130, 380.5234
520.1930, 411.4160
521.3730, 367.2930
522.5530, 439.1523
523.7330, 414.1562
524.9130, 302.9805
526.0920, 397.0742
527.2710, 525.2969
528.4510, 289.3926
529.6300, 295.8926
530.8080, 390.6895
531.9870, 453.1211
533.1660, 133.3438
534.3440, 307.0352
535.5220, 73.23438
536.7000, 327.3691
537.8780, 349.3867
539.0560, 173.2422
540.2330, 171.7676
541.4110, 261.2793
542.5880, 240.7676
543.7650, 217.2402
544.9420, 23.69531
546.1180, 290.1016
547.2950, 152.4941
548.4710, 147.8691
549.6470, 376.2285
550.8230, 228.6523
551.9990, 285.9746
553.1750, 259.2773
554.3500, 155.5605
555.5260, 334.8223
556.7010, 175.1914
557.8760, 146.4062
559.0510, 234.5996
560.2250, 144.7695
561.4000, 254.9141
562.5740, 316.0410
563.7480, 230.5254
564.9220, 366.4805
566.0960, 189.5391
567.2700, 217.2832
568.4430, 84.29688
569.6170, 72.71484
570.7900, 179.1797
571.9630, 275.0508
573.1360, 154.8535
574.3080, 73.67969
575.4810, 264.4746
576.6530, 278.7109
577.8250, 323.4688
578.9980, 372.7305
580.1690, 298.1250
581.3410, 303.7246
582.5130, 192.0488
583.6840, 157.2988
584.8550, 209.5234
586.0260, 44.13086
587.1970, 246.5625
588.3680, 202.7129
589.5380, 275.2461
590.7080, 74.15430
591.8790, 22.46289
593.0490, 73.66406
594.2190, 55.03516
595.3880, 221.8184
596.5580, 231.5547
597.7270, 145.8594
598.8960, 226.3652
600.0650, 265.7773
601.2340, 106.9863
602.4030, 162.9648
603.5710, 187.9746
604.7400, 138.9648
605.9080, 52.28711
607.0760, 144.0039
608.2440, 195.0957
609.4120, 365.7598
610.5790, 270.8047
611.7460, 2.382813
612.9140, 97.36133
614.0810, 374.3457
615.2480, 19.64258
616.4140, 148.3047
617.5810, 239.4688
618.7470, 197.3242
619.9130, 120.6484
621.0790, 168.4473
622.2450, 133.7539
623.4110, 160.7793
624.5770, 35.68555
625.7420, 316.8926
626.9070, 110.5684
628.0720, 166.2188
629.2370, 241.8438
630.4020, 143.4414
631.5660, 280.0156
632.7310, 174.1289
633.8950, 218.9160
635.0590, 340.2422
636.2230, 264.3203
637.3870, 230.2012
638.5500, 263.6699
639.7140, 296.0781
640.8770, 379.4629
642.0400, 311.9082
643.2030, 407.1406
644.3660, 170.9043
645.5280, 199.6816
646.6910, 273.4922
647.8530, 167.8809
649.0150, 371.4277
650.1770, 409.9785
651.3390, 308.1582
652.5000, 210.2949
653.6620, 213.6660
654.8230, 51.05469
655.9840, 123.7051
657.1450, 250.7539
658.3060, 100.5371
659.4660, 344.2480
660.6270, 237.5137
661.7870, 427.0566
662.9470, 182.9727
664.1070, 237.9102
665.2670, 153.7715
666.4260, 119.6055
667.5860, 147.0176
668.7450, 79.20312
669.9040, 215.6504
671.0630, 81.88281
672.2220, 106.5625
673.3800, 270.3672
674.5390, 216.5195
675.6970, 217.4922
676.8550, 114.6543
678.0130, 34.61328
679.1710, 275.5430
680.3290, 249.8633
681.4860, 243.9336
682.6430, 271.0781
683.8000, 325.0918
684.9570, 244.2559
686.1140, 236.5449
687.2710, 266.1855
688.4270, 383.7148
689.5840, 208.0840
690.7400, 320.9707
691.8960, 525.9805
693.0520, 706.6426
694.2070, 657.2168
695.3630, 775.3574
696.5180, 577.4785
697.6730, 609.5176
698.8280, 757.5859
699.9830, 391.8223
701.1380, 265.9082
702.2920, 247.9062
703.4470, 58.92773
704.6010, 430.5020
705.7550, 515.4570
706.9090, 497.7070
708.0620, 825.0508
709.2160, 837.0879
710.3690, 1159.934
711.5220, 1152.256
712.6750, 1259.990
713.8280, 1128.324
714.9810, 1173.592
716.1340, 1239.732
717.2860, 1040.168
718.4380, 742.8750
719.5900, 437.8770
720.7420, 390.5430
721.8940, 236.6934
723.0450, 92.36328
724.1970, 321.2168
725.3480, 107.5488
726.4990, 92.49805
727.6500, 323.0488
728.8010, 214.5957
729.9510, 185.6133
731.1020, 303.6445
732.2520, 376.8066
733.4020, 248.4922
734.5520, 133.8945
735.7020, 455.3379
736.8510, 179.0312
738.0010, 195.6582
739.1500, 77.93555
740.2990, 50.88672
741.4480, 38.39844
742.5970, 200.0312
743.7450, 191.2773
744.8940, 321.3848
746.0420, 307.3984
747.1900, 18.98438
748.3380, 403.0371
749.4860, 104.4551
750.6330, 361.8477
751.7810, 42.55078
752.9280, 147.7012
754.0750, 57.65430
755.2220, 160.3066
756.3690, 206.6738
757.5160, 181.3066
758.6620, 282.5977
759.8090, 111.3750
760.9550, 161.6699
762.1010, 197.0215
763.2470, 244.5273
764.3920, 282.1953
765.5380, 305.2812
766.6830, 293.9023
767.8280, 283.2012
768.9730, 254.7988
770.1180, 220.8379
771.2630, 105.3828
772.4070, 71.38867
773.5520, 99.49219
774.6960, 34.14453
775.8400, 235.8008
776.9840, 291.2617
778.1280, 437.4668
779.2710, 225.4121
780.4140, 47.43945
781.5580, 138.5820
782.7010, 83.27539
783.8440, 115.6973
784.9860, 20.63086
786.1290, 7.314453
787.2710, 167.0508
788.4140, 430.1953
789.5560, 58.37695
790.6980, 62.55859
791.8390, 186.4766
792.9810, 115.9199
794.1220, 281.4160
795.2640, 71.18164
796.4050, 81.92969
797.5460, 182.8477
798.6860, 109.6289
799.8270, 334.7168
800.9680, 242.4473
802.1080, 360.0879
803.2480, 264.9922
804.3880, 107.8516
805.5280, 23.91016
806.6670, 161.6855
807.8070, 129.7949
808.9460, 288.2461
810.0850, 218.2500
811.2240, 130.6855
812.3630, 260.5000
813.5020, 114.7656
814.6400, 165.8066
815.7790, 162.2832
816.9170, 62.54102
818.0550, 119.2793
819.1930, 95.00391
820.3300, 120.5723
821.4680, 97.60156
822.6050, 51.26172
823.7430, 11.93945
824.8800, 18.43359
826.0170, 30.91211
827.1530, 110.5820
828.2900, 75.07617
829.4260, 151.3652
830.5620, 166.0117
831.6990, 308.4277
832.8340, 360.7871
833.9700, 302.0645
835.1060, 264.7051
836.2410, 198.7637
837.3760, 246.8691
838.5120, 309.0273
839.6470, 425.1387
840.7810, 128.6504
841.9160, 306.5215
843.0500, 194.6504
844.1850, 22.06250
845.3190, 116.8438
846.4530, 328.9824
847.5870, 150.0059
848.7200, 374.0664
849.8540, 115.2773
850.9870, 0.4667970
852.1200, 177.1191
853.2530, 99.71680
854.3860, 329.3848
855.5190, 198.8457
856.6510, 301.8809
857.7840, 158.7871
858.9160, 288.0312
860.0480, 222.0586
861.1800, 372.5527
862.3110, 187.9668
863.4430, 293.0605
864.5740, 277.2793
865.7060, 234.9688
866.8370, 155.8477
867.9680, 200.8789
869.0980, 215.3496
870.2290, 279.4863
871.3590, 262.3984
872.4900, 174.2148
873.6200, 203.3047
874.7500, 326.7812
875.8790, 234.2324
877.0090, 239.7988
878.1380, 159.9102
879.2680, 222.4688
880.3970, 299.3008
881.5260, 48.72266
882.6550, 148.5547
883.7830, 336.7148
884.9120, 4.824219
886.0400, 321.7793
887.1680, 314.1152
888.2960, 182.2168
889.4240, 270.8340
890.5520, 277.4219
891.6790, 137.2461
892.8070, 8.300781
893.9340, 86.62500
895.0610, 249.4531
896.1880, 84.54297
897.3140, 89.73047
898.4410, 27.62109
899.5670, 64.10547
900.6940, 272.3359
901.8200, 236.3242
902.9450, 354.9453
904.0710, 174.6133
905.1970, 206.4297
906.3220, 235.2539
907.4470, 126.7188
908.5730, 318.6875
909.6980, 90.36719
910.8220, 113.5352
911.9470, 221.6523
913.0710, 303.4180
914.1960, 95.96484
915.3200, 68.32812
916.4440, 270.3125
917.5680, 241.1914
918.6910, 442.2344
919.8150, 305.1992
920.9380, 55.25781
922.0610, 40.87891
923.1840, 6.941406
924.3070, 119.9727
925.4300, 25.98438
926.5520, 2.312500
927.6750, 48.30469
928.7970, 190.5742
929.9190, 54.41797
931.0410, 217.4570
932.1630, 136.4961
933.2840, 159.9102
934.4060, 76.98438
935.5270, 115.6172
936.6480, 168.1719
937.7690, 266.7305
938.8900, 234.2891
940.0100, 160.1133
941.1310, 199.8164
942.2510, 15.82812
943.3710, 11.65234
944.4910, 128.9492
945.6110, 6.902344
946.7310, 291.8242
947.8500, 166.0312
948.9690, 73.39062
950.0890, 325.2891
951.2080, 144.9219
952.3260, 13.90625
953.4450, 22.44141
954.5640, 33.70312
955.6820, 159.8828
956.8000, 222.0234
957.9180, 247.8867
959.0360, 256.3281
960.1540, 251.8125
961.2710, 175.3828
962.3890, 13.36328
963.5060, 279.1445
964.6230, 2.792969
965.7400, 216.2734
966.8570, 220.7070
967.9730, 108.0977
969.0900, 30.44141
970.2060, 338.7383
971.3220, 246.7148
972.4380, 63.69141
973.5540, 227.5234
974.6700, 151.6133
975.7850, 412.1055
976.9010, 206.8125
978.0160, 128.4648
979.1310, 269.1797
980.2460, 181.6875
981.3600, 201.1172
982.4750, 189.5625
983.5890, 144.9609
984.7030, 125.3906
985.8170, 341.4727
986.9310, 260.6914
988.0450, 233.5156
989.1590, 375.0781
990.2720, 126.5195
991.3850, 33.04297
992.4980, 57.53125
993.6110, 196.8711
994.7240, 11.94922
995.8370, 101.1953
996.9490, 152.5273
998.0620, 57.31250
999.1740, 112.5156
1000.286, 43.91016
1001.398, 43.70703
1002.509, 167.9961
1003.621, 244.2773
1004.732, 247.9883
1005.843, 252.4375
1006.954, 179.7461
1008.065, 93.96875
1009.176, 11.74219
1010.286, 176.1680
1011.397, 199.6602
1012.507, 332.1875
1013.617, 190.4766
1014.727, 103.1953
1015.837, 241.8867
1016.946, 248.4609
1018.056, 154.8125
1019.165, 306.0195
1020.274, 80.80469
1021.383, 120.0234
1022.492, 145.7773
1023.601, 306.0625
1024.709, 92.02344
1025.817, 215.8906
1026.926, 64.88281
1028.034, 138.2461
1029.141, 5.816406
1030.249, 192.4258
1031.357, 382.5586
1032.464, 179.4727
1033.571, 228.3203
1034.678, 277.0352
1035.785, 115.2578
1036.892, 94.85547
1037.999, 444.3086
1039.105, 253.5078
1040.211, 212.7812
1041.317, 379.2578
1042.423, 133.6367
1043.529, 375.1797
1044.635, 141.1328
1045.740, 17.83984
1046.845, 264.3594
1047.951, 276.7422
1049.056, 161.9102
1050.160, 373.5898
1051.265, 225.2031
1052.370, 218.9492
1053.474, 407.4180
1054.578, 274.0039
1055.682, 260.4180
1056.786, 564.4531
1057.890, 446.9922
1058.993, 585.9688
1060.097, 503.0391
1061.200, 685.1992
1062.303, 820.6953
1063.406, 759.9961
1064.509, 1586.465
1065.612, 2676.551
1066.714, 4158.914
1067.816, 5427.680
1068.919, 7075.266
1070.021, 9192.715
1071.122, 9443.148
1072.224, 8817.922
1073.326, 7250.836
1074.427, 5057.312
1075.528, 3016.965
1076.629, 1675.051
1077.730, 1207.992
1078.831, 1064.973
1079.931, 973.7305
1081.032, 1199.418
1082.132, 1796.324
1083.232, 3698.355
1084.332, 5792.219
1085.432, 9225.414
1086.531, 12545.24
1087.631, 17125.13
1088.730, 22742.96
1089.829, 23555.63
1090.928, 22392.32
1092.027, 18694.03
1093.126, 12338.68
1094.224, 6208.379
1095.323, 3030.855
1096.421, 1432.461
1097.519, 1140.633
1098.617, 519.9609
1099.715, 660.2695
1100.812, 534.0664
1101.910, 549.4648
1103.007, 321.0547
1104.104, 174.9062
1105.201, 260.0391
1106.298, 357.1523
1107.394, 46.90234
1108.491, 49.90234
1109.587, 283.9375
1110.683, 470.4453
1111.779, 210.4766
1112.875, 133.4219
1113.971, 25.90234
1115.066, 117.9414
1116.162, 182.2578
1117.257, 51.46094
1118.352, 295.3086
1119.447, 291.0859
1120.542, 338.6445
1121.636, 208.3359
1122.731, 279.7305
1123.825, 108.0898
1124.919, 358.7695
1126.013, 324.9961
1127.107, 283.2773
1128.200, 146.0352
1129.294, 343.9766
1130.387, 78.31250
1131.480, 128.0117
1132.573, 178.9961
1133.666, 94.33203
1134.759, 21.83984
1135.851, 50.22656
1136.944, 7.136719
1138.036, 33.99219
1139.128, 57.64844
1140.220, 229.9141
1141.312, 375.6367
1142.403, 240.1797
1143.495, 140.2773
1144.586, 250.1758
1145.677, 128.3125
1146.768, 49.32031
1147.859, 72.16797
1148.950, 438.6445
1150.040, 167.6992
1151.130, 121.2852
1152.221, 393.9727
1153.311, 27.79688
1154.401, 202.7500
1155.490, 38.45312
1156.580, 147.0547
1157.669, 2.406250
1158.759, 19.08594
1159.848, 205.5781
1160.937, 189.3789
1162.025, 208.2188
1163.114, 6.578125
1164.202, 229.1367
1165.291, 217.0234
1166.379, 49.09375
1167.467, 227.4531
1168.555, 145.6953
1169.642, 415.7148
1170.730, 316.5742
1171.817, 59.22656
1172.905, 244.1680
1173.992, 451.4453
1175.078, 143.3320
1176.165, 246.5898
1177.252, 247.1680
1178.338, 315.8945
1179.425, 12.64844
1180.511, 59.00781
1181.597, 35.66016
1182.682, 40.18750
1183.768, 95.58594
1184.854, 75.32812
1185.939, 115.1523
1187.024, 88.46094
1188.109, 121.0352
1189.194, 138.5898
1190.279, 39.11719
1191.363, 125.6211
1192.448, 123.8984
1193.532, 77.48438
1194.616, 255.8438
1195.700, 221.1758
1196.784, 31.51172
1197.867, 388.7539
1198.951, 40.00781
1200.034, 104.1875
1201.117, 201.3516
1202.200, 70.49219
1203.283, 308.6055
1204.366, 89.70703
1205.448, 70.77344
1206.531, 241.8281
1207.613, 148.1406
1208.695, 107.8242
1209.777, 36.73047
1210.859, 488.6094
1211.940, 59.47266
1213.022, 190.3281
1214.103, 183.1680
1215.184, 41.98828
1216.265, 280.7930
1217.346, 513.5820
1218.427, 106.6484
1219.507, 163.0391
1220.587, 175.7109
1221.668, 257.3633
1222.748, 465.9922
1223.828, 71.60547
1224.907, 263.1953
1225.987, 169.7734
1227.066, 277.3281
1228.146, 413.8750
1229.225, 215.4023
1230.304, 173.9102
1231.382, 471.4062
1232.461, 107.8906
1233.540, 16.35156
1234.618, 234.3320
1235.696, 409.6992
1236.774, 363.1211
1237.852, 187.5039
1238.930, 442.1992
1240.007, 136.5781
1241.085, 357.9766
1242.162, 67.08594
1243.239, 146.8633
1244.316, 63.05469
1245.393, 173.7422
1246.469, 502.6836
1247.546, 117.9570
1248.622, 113.2578
1249.698, 335.5391
1250.774, 187.8086
1251.850, 42.80859
1252.926, 56.94922
1254.001, 259.5898
1255.077, 330.7969
1256.152, 250.9883
1257.227, 576.1719
1258.302, 130.8438
1259.377, 372.0039
1260.451, 267.4180
1261.526, 3.972656
1262.600, 506.8359
1263.674, 214.2930
1264.748, 120.7578
1265.822, 69.01172
1266.896, 3.636719
1267.969, 198.5039
1269.043, 113.7656
1270.116, 148.7422
1271.189, 403.8125
1272.262, 2.085938
1273.335, 343.5039
1274.407, 208.5469
1275.480, 188.3398
1276.552, 357.1055
1277.624, 265.3906
1278.696, 517.4062
1279.768, 410.0898
1280.840, 378.5742
1281.911, 184.5742
1282.982, 61.61719
1284.054, 15.82812
1285.125, 123.5625
1286.196, 10.14844
1287.266, 51.25781
1288.337, 278.0352
1289.407, 212.8633
1290.478, 436.6367
1291.548, 221.4961
1292.618, 298.1484
1293.688, 268.0898
1294.757, 202.3164
1295.827, 194.2266
1296.896, 217.1328
1297.965, 83.75781
1299.034, 228.7188
1300.103, 185.6797
1301.172, 347.9414
1302.241, 197.9023
1303.309, 153.8633
1304.377, 120.4805
1305.445, 52.70703
1306.513, 55.90625
1307.581, 80.36719
1308.649, 20.38672
1309.716, 224.6992
1310.784, 155.9141
1311.851, 183.1484
1312.918, 8.617188
1313.985, 334.0117
1315.052, 128.5781
1316.118, 541.0430
1317.185, 370.6406
1318.251, 204.3164
1319.317, 202.5742
1320.383, 233.1875
1321.449, 403.0273
1322.514, 163.4375
1323.580, 179.3711
1324.645, 191.2969
1325.711, 502.0078
1326.776, 125.9375
1327.840, 494.1562
1328.905, 71.70312
1329.970, 205.6250
1331.034, 178.0352
1332.099, 437.9570
1333.163, 69.46094
1334.227, 338.8906
1335.290, 303.8164
1336.354, 0.5507810
1337.418, 134.0508
1338.481, 265.3633
1339.544, 38.29688
1340.607, 493.7188
1341.670, 275.6523
1342.733, 130.5977
1343.795, 183.9688
1344.858, 294.9141
1345.920, 314.8633
1346.982, 436.3867
1348.044, 244.3008
1349.106, 177.2539
1350.168, 91.21094
1351.229, 277.1641
1352.291, 193.7305
1353.352, 172.6992
1354.413, 456.6719
1355.474, 94.65234
1356.534, 241.6328
1357.595, 123.6836
1358.656, 475.6758
1359.716, 240.6797
1360.776, 120.4766
1361.836, 263.9062
1362.896, 176.9219
1363.955, 457.9492
1365.015, 384.9805
1366.074, 304.0273
1367.134, 343.1016
1368.193, 243.1367
1369.252, 177.2266
1370.310, 313.0156
1371.369, 306.1211
1372.427, 232.9492
1373.486, 385.0898
1374.544, 44.75781
1375.602, 180.6523
1376.660, 214.7500
1377.717, 56.92188
1378.775, 295.1055
1379.832, 324.9414
1380.889, 299.7773
1381.946, 578.0898
1383.003, 291.3125
1384.060, 121.5430
1385.117, 83.78516
1386.173, 411.0352
1387.230, 271.2969
1388.286, 412.5742
1389.342, 531.2539
1390.398, 398.5547
1391.453, 288.8672
1392.509, 274.2070
1393.564, 240.3945
1394.619, 230.3320
1395.675, 23.62500
1396.729, 223.0352
1397.784, 89.45703
1398.839, 10.10547
1399.893, 54.86719
1400.948, 552.3320
1402.002, 289.8125
1403.056, 234.3516
1404.110, 563.9219
1405.163, 262.5156
1406.217, 373.1211
1407.270, 443.7422
1408.324, 173.2695
1409.377, 258.8203
1410.430, 513.3203
1411.483, 464.6445
1412.535, 345.2344
1413.588, 384.5703
1414.640, 509.5195
1415.692, 587.1758
1416.744, 966.8438
1417.796, 1167.527
1418.848, 1379.227
1419.900, 1182.953
1420.951, 857.9258
1422.002, 1024.676
1423.053, 714.4492
1424.104, 375.4766
1425.155, 154.2773
1426.206, 587.0898
1427.256, 289.5391
1428.307, 418.3867
1429.357, 365.6562
1430.407, 319.5469
1431.457, 376.4453
1432.507, 325.3945
1433.556, 465.3398
1434.606, 191.3867
1435.655, 457.2109
1436.704, 474.0156
1437.753, 377.2109
1438.802, 585.9648
1439.851, 182.3945
1440.899, 290.4766
1441.948, 297.6445
1442.996, 650.1953
1444.044, 313.5156
1445.092, 535.5195
1446.140, 106.0625
1447.187, 366.7383
1448.235, 84.32812
1449.282, 361.9258
1450.329, 502.5664
1451.376, 460.2539
1452.423, 183.9609
1453.470, 257.6836
1454.517, 245.4219
1455.563, 482.2383
1456.609, 263.1133
1457.655, 556.0117
1458.701, 110.9297
1459.747, 297.8672
1460.793, 330.8984
1461.838, 509.9453
1462.884, 112.0078
1463.929, 283.1016
1464.974, 411.2148
1466.019, 168.3477
1467.064, 508.5078
1468.108, 415.6953
1469.153, 123.9023
1470.197, 264.1367
1471.241, 389.3047
1472.285, 416.5000
1473.329, 460.7188
1474.373, 502.1562
1475.416, 454.5781
1476.460, 525.3008
1477.503, 368.6367
1478.546, 336.9922
1479.589, 343.3711
1480.632, 629.7773
1481.674, 135.2109
1482.717, 18.67578
1483.759, 469.1680
1484.801, 296.6875
1485.843, 412.1055
1486.885, 382.6719
1487.927, 456.2656
1488.968, 305.8828
1490.010, 610.5195
1491.051, 800.1875
1492.092, 212.8750
1493.133, 152.3984
1494.174, 408.3477
1495.215, 326.1172
1496.255, 396.9180
1497.296, 510.7188
1498.336, 475.5156
1499.376, 339.3203
1500.416, 4.859375
1501.456, 344.9727
1502.495, 567.8320
1503.535, 305.7070
1504.574, 531.6094
1505.613, 458.5312
1506.652, 363.4570
1507.691, 643.3906
1508.730, 552.3750
1509.768, 187.4297
1510.807, 836.5469
1511.845, 533.7070
1512.883, 256.9141
1513.921, 531.1758
1514.959, 523.4766
1515.996, 370.8203
1517.034, 920.2109
1518.071, 618.6484
1519.109, 381.1289
1520.146, 628.6562
1521.183, 398.2266
1522.219, 514.8516
1523.256, 442.5430
1524.292, 628.3047
1525.329, 319.1172
1526.365, 515.9844
1527.401, 568.7305
1528.437, 271.7070
1529.472, 386.7500
1530.508, 399.8555
1531.543, 171.0195
1532.579, 383.8086
1533.614, 598.4141
1534.649, 306.0469
1535.683, 108.7070
1536.718, 133.2812
1537.753, 219.9766
1538.787, 19.70312
1539.821, 297.4648
1540.855, 433.2617
1541.889, 309.0820
1542.923, 245.9219
1543.956, 205.7812
1544.990, 7.355469
1546.023, 285.5156
1547.056, 241.3828
1548.089, 35.77344
1549.122, 355.0391
1550.155, 483.8086
1551.187, 27.51172
1552.220, 264.8164
1553.252, 61.86719
1554.284, 366.0742
1555.316, 395.3047
1556.348, 162.6211
1557.379, 225.0859
1558.411, 140.9102
1559.442, 473.7266
1560.474, 307.7305
1561.505, 60.05078
1562.535, 274.7812
1563.566, 5.257813
1564.597, 68.64844
1565.627, 53.08984
1566.658, 18.41406
1567.688, 289.1719
1568.718, 129.8789
1569.748, 16.08203
1570.777, 0.0000000E+00
##END=



