##NAMES=Shortite
##RRUFFID=R040184
##IDEAL CHEMISTRY=Na_2_Ca_2_(CO_3_)_3_
##LOCALITY=Green River, Wyoming, USA
##OWNER=RRUFF
##SOURCE=University of Arizona Mineral Museum
##DESCRIPTION=Colorless single crystal fragments
##STATUS=The identification of this mineral has been confirmed by X-ray diffraction and chemical analysis
##URL=rruff.info/R040184
##MEASURED CHEMISTRY=(Na_1.47_Ca_0.27_[box]_0.26_)_Î£=2_Ca_2.00_(CO_3_)_3_
##PIN_ID=L00385
##ORIENTATION=Laser parallel to -b* (0 -1 0). Fiducial mark perpendicular to laser is parallel to -c [0 0 -1]
111.932, 0.000
113.329, 203.829
114.726, 2.817
116.123, 89.022
117.519, 70.398
118.915, 36.106
120.311, 161.369
121.706, 38.659
123.102, 236.599
124.497, 117.910
125.892, 186.379
127.286, 175.840
128.681, 96.162
130.075, 308.238
131.469, 224.979
132.862, 366.314
134.256, 386.181
135.649, 548.528
137.042, 618.308
138.435, 671.478
139.827, 656.005
141.219, 401.863
142.611, 342.027
144.003, 208.475
145.394, 191.183
146.786, 262.131
148.177, 182.303
149.567, 281.686
150.958, 172.271
152.348, 348.046
153.738, 183.998
155.128, 268.110
156.517, 253.385
157.907, 140.811
159.296, 287.360
160.685, 192.027
162.073, 295.804
163.462, 253.686
164.850, 298.667
166.237, 366.758
167.625, 308.988
169.012, 458.315
170.400, 302.737
171.786, 351.260
173.173, 208.859
174.559, 228.539
175.946, 222.297
177.332, 194.119
178.717, 264.003
180.103, 158.946
181.488, 259.949
182.873, 187.009
184.258, 203.125
185.642, 232.333
187.026, 104.631
188.410, 284.032
189.794, 142.481
191.178, 271.977
192.561, 164.512
193.944, 356.086
195.327, 465.683
196.709, 426.257
198.092, 624.821
199.474, 489.398
200.856, 615.024
202.237, 529.613
203.618, 485.214
205.000, 584.897
206.380, 376.596
207.761, 445.313
209.142, 323.050
210.522, 355.809
211.902, 306.589
213.281, 195.405
214.661, 315.231
216.040, 131.082
217.419, 218.955
218.798, 59.853
220.176, 86.002
221.554, 157.180
222.932, 58.138
224.310, 144.138
225.688, 20.230
227.065, 183.311
228.442, 136.456
229.819, 163.554
231.196, 188.731
232.572, 42.928
233.948, 253.177
235.324, 2.415
236.700, 244.522
238.075, 141.791
239.450, 169.079
240.825, 210.385
242.200, 123.711
243.574, 337.054
244.948, 130.416
246.322, 272.796
247.696, 200.194
249.070, 154.608
250.443, 304.093
251.816, 177.553
253.189, 244.041
254.561, 204.555
255.933, 215.087
257.306, 319.638
258.677, 169.274
260.049, 453.823
261.420, 238.396
262.791, 330.959
264.162, 279.532
265.533, 241.117
266.903, 323.272
268.274, 96.878
269.643, 293.498
271.013, 177.127
272.383, 164.790
273.752, 150.462
275.121, 120.159
276.490, 230.880
277.858, 57.935
279.226, 259.008
280.595, 86.086
281.962, 140.535
283.330, 157.045
284.697, 96.658
286.064, 161.044
287.431, 33.128
288.798, 180.771
290.164, 59.735
291.530, 109.759
292.896, 140.839
294.262, 45.972
295.627, 183.370
296.993, 33.594
298.358, 47.860
299.722, 137.166
301.087, 95.525
302.451, 133.919
303.815, 30.358
305.179, 261.830
306.543, 54.331
307.906, 88.860
309.269, 157.417
310.632, 10.000
311.995, 165.609
313.357, 0.241
314.719, 97.896
316.081, 100.572
317.443, 115.270
318.804, 141.988
320.166, 14.725
321.527, 129.480
322.887, 75.254
324.248, 144.046
325.608, 82.855
326.968, 37.319
328.328, 206.524
329.688, 37.623
331.047, 215.241
332.406, 79.937
333.765, 104.828
335.124, 224.736
336.482, 33.343
337.840, 281.603
339.198, 40.303
340.556, 82.271
341.913, 151.564
343.271, 9.555
344.628, 286.555
345.984, 28.409
347.341, 191.609
348.697, 65.636
350.053, 119.673
351.409, 206.719
352.765, 1.227
354.120, 167.834
355.475, 58.904
356.830, 200.981
358.185, 160.065
359.539, 25.844
360.894, 185.251
362.248, 54.354
363.601, 116.464
364.955, 59.575
366.308, 119.694
367.661, 206.820
369.014, 59.951
370.367, 194.089
371.719, 24.233
373.071, 141.384
374.423, 143.541
375.775, 39.703
377.126, 127.871
378.478, 29.043
379.828, 223.222
381.179, 88.406
382.530, 58.596
383.880, 140.784
385.230, 0.807
386.580, 187.387
387.929, 13.584
389.279, 225.783
390.628, 220.985
391.977, 71.111
393.325, 148.316
394.674, 55.959
396.022, 161.171
397.370, 74.386
398.718, 56.085
400.065, 256.302
401.413, 81.478
402.760, 176.736
404.106, 9.945
405.453, 166.802
406.799, 163.016
408.146, 21.400
409.491, 224.620
410.837, 62.158
412.182, 176.083
413.528, 77.297
414.873, 63.512
416.217, 264.730
417.562, 14.050
418.906, 195.233
420.250, 38.454
421.594, 80.777
422.938, 190.982
424.281, 48.189
425.624, 183.385
426.967, 22.580
428.310, 241.082
429.652, 165.286
430.994, 32.492
432.336, 266.825
433.678, 16.032
435.020, 125.328
436.361, 130.535
437.702, 101.742
439.043, 275.950
440.383, 13.166
441.724, 279.670
443.064, 2.916
444.404, 190.166
445.743, 180.421
447.083, 32.319
448.422, 180.629
449.761, 43.334
451.100, 192.598
452.438, 168.866
453.777, 22.136
455.115, 241.514
456.453, 70.210
457.790, 309.030
459.128, 183.270
460.465, 89.512
461.802, 306.497
463.139, 112.738
464.475, 304.808
465.811, 48.049
467.147, 106.291
468.483, 140.618
469.819, 84.894
471.154, 338.305
472.489, 111.577
473.824, 141.849
475.159, 211.114
476.493, 32.385
477.827, 251.732
479.161, 67.999
480.495, 198.265
481.829, 111.528
483.162, 72.790
484.495, 254.435
485.828, 22.692
487.161, 322.945
488.493, 18.473
489.825, 38.748
491.157, 183.286
492.489, 36.446
493.820, 135.793
495.151, 90.875
496.482, 97.107
497.813, 128.064
499.144, 48.712
500.474, 305.476
501.804, 41.204
503.134, 206.947
504.464, 158.221
505.793, 21.362
507.123, 321.831
508.451, 31.293
509.780, 275.419
511.109, 113.743
512.437, 156.860
513.765, 260.950
515.093, 36.240
516.421, 249.343
517.748, 125.441
519.075, 153.534
520.402, 293.980
521.729, 39.264
523.055, 351.343
524.382, 102.422
525.708, 151.495
527.034, 293.564
528.359, 75.626
529.685, 195.682
531.010, 49.741
532.335, 266.793
533.659, 147.841
534.984, 42.883
536.308, 312.918
537.632, 165.949
538.956, 262.974
540.279, 195.993
541.603, 51.004
542.926, 209.011
544.249, 0.276
545.571, 302.225
546.894, 125.201
548.216, 56.393
549.538, 286.357
550.860, 9.682
552.181, 321.256
553.503, 18.187
554.824, 125.109
556.145, 308.023
557.465, 17.931
558.786, 210.827
560.106, 66.716
561.426, 43.970
562.746, 230.845
564.065, 5.288
565.385, 225.558
566.704, 28.396
568.023, 181.432
569.341, 181.254
570.660, 42.487
571.978, 272.297
573.296, 100.100
574.614, 153.260
575.931, 104.079
577.248, 38.550
578.565, 214.354
579.882, 32.149
581.199, 147.312
582.515, 143.091
583.831, 91.862
585.147, 227.626
586.463, 14.617
587.779, 326.606
589.094, 136.325
590.409, 37.037
591.724, 267.741
593.038, 25.562
594.353, 277.237
595.667, 190.891
596.981, 152.747
598.295, 311.384
599.608, 11.988
600.922, 249.227
602.235, 136.761
603.547, 124.343
604.860, 237.915
606.172, 145.204
607.485, 381.385
608.797, 148.842
610.108, 169.546
611.420, 275.049
612.731, 56.479
614.042, 257.431
615.353, 86.624
616.664, 201.027
617.974, 219.421
619.284, 35.193
620.594, 376.149
621.904, 20.517
623.213, 162.783
624.523, 236.222
625.832, 63.501
627.141, 373.182
628.449, 60.443
629.758, 279.691
631.066, 288.208
632.374, 94.437
633.681, 374.140
634.989, 77.348
636.296, 260.545
637.603, 192.055
638.910, 134.250
640.217, 435.622
641.523, 36.796
642.829, 149.955
644.135, 225.178
645.441, 80.315
646.747, 354.802
648.052, 83.921
649.357, 310.031
650.662, 272.314
651.967, 22.404
653.271, 436.475
654.575, 25.467
655.879, 295.557
657.183, 175.955
658.486, 71.955
659.790, 296.629
661.093, 71.605
662.396, 216.587
663.698, 267.529
665.001, 37.491
666.303, 317.440
667.605, 56.654
668.907, 310.582
670.209, 183.643
671.510, 62.548
672.811, 390.463
674.112, 114.647
675.413, 324.541
676.713, 206.940
678.013, 60.814
679.313, 415.682
680.613, 128.665
681.913, 324.509
683.212, 290.355
684.511, 180.191
685.810, 329.019
687.109, 121.555
688.407, 386.359
689.706, 283.449
691.004, 151.241
692.302, 499.022
693.599, 329.220
694.897, 554.978
696.194, 473.772
697.491, 194.573
698.788, 386.345
700.084, 53.244
701.380, 377.771
702.677, 259.507
703.972, 63.473
705.268, 481.184
706.564, 248.932
707.859, 863.701
709.154, 1380.379
710.449, 1197.134
711.743, 983.789
713.037, 336.438
714.332, 315.595
715.626, 316.221
716.919, 217.834
718.213, 546.446
719.506, 227.071
720.799, 315.024
722.092, 321.609
723.384, 69.469
724.677, 488.030
725.969, 84.580
727.261, 301.619
728.553, 328.157
729.844, 47.116
731.136, 378.631
732.427, 83.134
733.718, 193.563
735.008, 378.045
736.299, 41.550
737.589, 391.007
738.879, 177.450
740.169, 323.885
741.458, 340.306
742.748, 14.588
744.037, 430.790
745.326, 167.156
746.614, 364.159
747.903, 270.502
749.191, 93.743
750.479, 530.063
751.767, 76.372
753.055, 242.721
754.342, 369.006
755.629, 35.003
756.916, 509.263
758.203, 145.483
759.490, 151.937
760.776, 388.136
762.062, 16.367
763.348, 449.799
764.634, 55.956
765.919, 102.327
767.204, 418.461
768.489, 14.477
769.774, 321.129
771.059, 247.244
772.343, 153.645
773.627, 379.739
774.911, 172.083
776.195, 298.351
777.479, 161.588
778.762, 77.643
780.045, 423.688
781.328, 120.366
782.611, 275.934
783.893, 211.739
785.175, 47.672
786.457, 503.840
787.739, 9.750
789.021, 415.772
790.302, 171.581
791.583, 37.458
792.864, 547.711
794.145, 73.566
795.425, 259.410
796.706, 344.856
797.986, 100.681
799.266, 406.494
800.545, 87.787
801.825, 257.951
803.104, 273.712
804.383, 159.431
805.662, 385.284
806.940, 150.150
808.219, 175.854
809.497, 348.279
810.775, 83.966
812.053, 459.658
813.330, 175.204
814.608, 250.894
815.885, 279.943
817.162, 135.615
818.438, 441.277
819.715, 217.019
820.991, 52.661
822.267, 408.477
823.543, 84.099
824.818, 239.711
826.094, 170.021
827.369, 55.616
828.644, 431.533
829.919, 7.106
831.193, 322.669
832.468, 309.059
833.742, 5.397
835.016, 510.126
836.289, 178.834
837.563, 244.368
838.836, 280.368
840.109, 14.117
841.382, 401.376
842.654, 59.012
843.927, 174.484
845.199, 470.334
846.471, 25.787
847.743, 491.229
849.014, 177.438
850.286, 132.861
851.557, 368.285
852.828, 103.849
854.099, 388.984
855.369, 144.415
856.639, 79.802
857.909, 454.959
859.179, 0.390
860.449, 405.738
861.718, 371.158
862.988, 16.498
864.257, 521.824
865.525, 138.173
866.794, 273.479
868.062, 338.784
869.331, 194.080
870.599, 449.366
871.866, 134.742
873.134, 140.008
874.401, 495.272
875.668, 30.527
876.935, 535.564
878.202, 170.826
879.468, 15.935
880.735, 531.175
882.001, 103.130
883.267, 401.695
884.532, 186.845
885.798, 222.220
887.063, 457.352
888.328, 102.713
889.593, 457.476
890.857, 302.605
892.122, 227.729
893.386, 542.843
894.650, 157.956
895.913, 290.575
897.177, 425.681
898.440, 0.821
899.703, 485.945
900.966, 241.061
902.229, 316.043
903.491, 431.153
904.754, 126.046
906.016, 421.140
907.278, 266.226
908.539, 127.699
909.801, 452.780
911.062, 77.853
912.323, 262.915
913.584, 317.968
914.844, 140.933
916.105, 526.014
917.365, 80.829
918.625, 185.829
919.885, 300.884
921.144, 5.397
922.404, 550.431
923.663, 65.455
924.922, 360.473
926.180, 475.480
927.439, 90.496
928.697, 485.503
929.955, 290.515
931.213, 215.367
932.471, 650.362
933.728, 46.938
934.985, 581.913
936.242, 346.883
937.499, 71.567
938.756, 546.520
940.012, 100.981
941.269, 385.918
942.525, 450.851
943.780, 64.546
945.036, 650.335
946.291, 255.021
947.546, 259.889
948.801, 614.752
950.056, 209.534
951.311, 504.382
952.565, 352.863
953.819, 97.699
955.073, 622.528
956.327, 97.350
957.580, 482.163
958.834, 406.975
960.087, 81.779
961.339, 547.173
962.592, 171.847
963.845, 206.646
965.097, 491.603
966.349, 53.611
967.601, 481.444
968.852, 316.186
970.104, 30.921
971.355, 715.646
972.606, 40.092
973.857, 324.803
975.107, 289.363
976.358, 75.939
977.608, 509.206
978.858, 53.568
980.108, 148.200
981.357, 463.068
982.607, 12.297
983.856, 312.541
985.105, 396.023
986.353, 49.364
987.602, 532.059
988.850, 26.628
990.098, 201.186
991.346, 204.948
992.594, 30.491
993.841, 433.754
995.089, 48.280
996.336, 172.800
997.583, 487.465
998.829, 168.030
1000.076, 506.376
1001.322, 392.953
1002.568, 107.350
1003.814, 681.598
1005.060, 135.979
1006.305, 380.357
1007.550, 355.135
1008.795, 129.499
1010.040, 512.808
1011.285, 127.520
1012.529, 301.873
1013.773, 555.694
1015.017, 9.967
1016.261, 704.359
1017.505, 299.617
1018.748, 363.930
1019.991, 698.238
1021.234, 122.592
1022.477, 596.868
1023.719, 561.153
1024.962, 195.432
1026.204, 829.252
1027.446, 220.457
1028.688, 404.716
1029.929, 618.449
1031.170, 42.867
1032.411, 599.671
1033.652, 474.389
1034.893, 48.608
1036.134, 682.819
1037.374, 103.087
1038.614, 547.129
1039.854, 511.331
1041.094, 256.423
1042.333, 840.609
1043.572, 276.631
1044.811, 360.993
1046.050, 675.171
1047.289, 249.434
1048.527, 802.820
1049.766, 416.975
1051.004, 281.120
1052.241, 765.258
1053.479, 179.929
1054.717, 473.998
1055.954, 748.106
1057.191, 212.935
1058.428, 667.003
1059.664, 521.100
1060.901, 414.939
1062.137, 998.997
1063.373, 313.050
1064.609, 807.108
1065.844, 881.164
1067.080, 405.154
1068.315, 1429.202
1069.550, 1123.246
1070.785, 1166.743
1072.019, 1210.781
1073.254, 335.003
1074.488, 879.033
1075.722, 763.060
1076.955, 427.002
1078.189, 1201.021
1079.422, 755.034
1080.656, 1159.045
1081.889, 1533.052
1083.121, 1246.743
1084.354, 2840.778
1085.586, 4774.810
1086.818, 16098.654
1088.050, 39522.680
1089.282, 36676.574
1090.514, 16421.418
1091.745, 5545.433
1092.976, 2075.401
1094.207, 1709.406
1095.438, 863.409
1096.668, 657.935
1097.899, 1121.927
1099.129, 205.875
1100.359, 940.117
1101.588, 774.081
1102.818, 217.914
1104.047, 811.868
1105.276, 265.688
1106.505, 559.922
1107.734, 713.854
1108.962, 47.578
1110.191, 561.812
1111.419, 245.727
1112.647, 149.639
1113.874, 653.541
1115.102, 113.938
1116.329, 467.832
1117.556, 531.725
1118.783, 225.146
1120.010, 779.571
1121.236, 293.022
1122.463, 286.852
1123.689, 860.633
1124.914, 69.519
1126.140, 483.512
1127.366, 626.926
1128.591, 10.590
1129.816, 638.201
1131.041, 140.820
1132.266, 194.465
1133.490, 789.875
1134.714, 99.685
1135.938, 524.190
1137.162, 757.312
1138.386, 0.904
1139.609, 898.434
1140.833, 239.868
1142.056, 333.448
1143.279, 837.678
1144.501, 61.247
1145.724, 794.811
1146.946, 547.595
1148.168, 28.851
1149.390, 965.905
1150.612, 279.281
1151.833, 482.799
1153.054, 687.052
1154.275, 40.554
1155.496, 604.046
1156.717, 387.473
1157.937, 110.957
1159.158, 716.826
1160.378, 230.295
1161.598, 383.762
1162.817, 797.492
1164.037, 0.949
1165.256, 844.390
1166.475, 418.140
1167.694, 191.569
1168.913, 834.896
1170.131, 288.258
1171.349, 371.586
1172.567, 795.287
1173.785, 101.395
1175.003, 811.816
1176.220, 275.668
1177.438, 168.850
1178.655, 791.557
1179.872, 94.727
1181.088, 447.870
1182.305, 700.585
1183.521, 86.291
1184.737, 816.515
1185.953, 363.365
1187.169, 16.317
1188.384, 789.236
1189.599, 16.592
1190.814, 176.266
1192.029, 539.138
1193.244, 148.069
1194.459, 554.660
1195.673, 318.248
1196.887, 240.940
1198.101, 773.386
1199.314, 96.771
1200.528, 469.019
1201.741, 851.194
1202.954, 53.336
1204.167, 815.060
1205.380, 568.922
1206.592, 280.240
1207.805, 999.016
1209.017, 262.897
1210.229, 426.776
1211.440, 950.652
1212.652, 194.529
1213.863, 808.404
1215.074, 562.274
1216.285, 456.145
1217.496, 920.009
1218.707, 123.873
1219.917, 577.733
1221.127, 821.592
1222.337, 215.446
1223.547, 989.312
1224.756, 373.195
1225.966, 347.069
1227.175, 1130.941
1228.384, 364.810
1229.592, 648.675
1230.801, 1092.538
1232.009, 235.698
1233.217, 809.350
1234.425, 662.837
1235.633, 56.716
1236.841, 1070.593
1238.048, 174.472
1239.255, 467.743
1240.462, 1041.671
1241.669, 134.592
1242.876, 908.195
1244.082, 822.947
1245.288, 186.763
1246.494, 1079.288
1247.700, 333.078
1248.906, 526.056
1250.111, 1149.900
1251.316, 190.665
1252.521, 944.537
1253.726, 737.456
1254.931, 191.321
1256.135, 1104.634
1257.339, 478.476
1258.543, 430.876
1259.747, 1264.710
1260.951, 308.466
1262.154, 552.315
1263.357, 914.887
1264.560, 128.598
1265.763, 952.027
1266.966, 524.932
1268.168, 298.238
1269.371, 1011.814
1270.573, 213.789
1271.775, 603.686
1272.976, 838.766
1274.178, 48.016
1275.379, 1095.211
1276.580, 517.408
1277.781, 10.768
1278.982, 1212.473
1280.182, 195.770
1281.383, 469.086
1282.583, 982.031
1283.783, 44.707
1284.982, 908.525
1286.182, 680.672
1287.381, 43.576
1288.580, 916.695
1289.779, 549.777
1290.978, 372.822
1292.177, 955.678
1293.375, 28.660
1294.573, 699.504
1295.771, 861.467
1296.969, 92.875
1298.166, 965.709
1299.364, 387.799
1300.561, 350.660
1301.758, 1252.650
1302.955, 14.523
1304.151, 597.303
1305.348, 1040.020
1306.544, 32.688
1307.740, 665.439
1308.936, 896.305
1310.132, 219.215
1311.327, 1031.439
1312.522, 394.844
1313.717, 503.545
1314.912, 1109.885
1316.107, 201.824
1317.301, 684.803
1318.496, 780.637
1319.690, 128.244
1320.884, 960.285
1322.077, 592.225
1323.271, 377.918
1324.464, 1105.389
1325.657, 336.705
1326.850, 517.879
1328.043, 993.816
1329.235, 34.578
1330.428, 984.639
1331.620, 781.158
1332.812, 49.691
1334.004, 1295.455
1335.195, 294.143
1336.387, 546.889
1337.578, 1155.121
1338.769, 113.301
1339.960, 801.559
1341.150, 856.625
1342.341, 69.014
1343.531, 1146.334
1344.721, 501.074
1345.911, 236.094
1347.100, 818.518
1348.290, 1.525
1349.479, 463.826
1350.668, 0.000
##END=



