##NAMES=Shortite
##RRUFFID=R040184
##IDEAL CHEMISTRY=Na_2_Ca_2_(CO_3_)_3_
##LOCALITY=Green River, Wyoming, USA
##OWNER=RRUFF
##SOURCE=University of Arizona Mineral Museum
##DESCRIPTION=Colorless single crystal fragments
##STATUS=The identification of this mineral has been confirmed by X-ray diffraction and chemical analysis
##URL=rruff.info/R040184
##MEASURED CHEMISTRY=(Na_1.47_Ca_0.27_[box]_0.26_)_Î£=2_Ca_2.00_(CO_3_)_3_
##PIN_ID=L00385
##ORIENTATION=Laser parallel to -b* (0 -1 0). Fiducial mark perpendicular to laser is parallel to -c [0 0 -1]
111.932, 0.000
113.329, 150.707
114.726, 6.824
116.123, 10.783
117.519, 139.021
118.915, 9.853
120.311, 153.684
121.706, 81.760
123.102, 313.520
124.497, 223.538
125.892, 330.478
127.286, 347.074
128.681, 395.115
130.075, 591.427
131.469, 587.864
132.862, 849.310
134.256, 1206.662
135.649, 1674.828
137.042, 2047.729
138.435, 2179.294
139.827, 1901.470
141.219, 1220.208
142.611, 862.467
144.003, 590.208
145.394, 498.393
146.786, 387.990
148.177, 361.974
149.567, 409.319
150.958, 284.008
152.348, 492.025
153.738, 313.350
155.128, 491.958
156.517, 418.817
157.907, 541.909
159.296, 797.217
160.685, 689.728
162.073, 1114.428
163.462, 1380.309
164.850, 1907.370
166.237, 2376.631
167.625, 2951.054
169.012, 3160.649
170.400, 2860.431
171.786, 2260.393
173.173, 1533.483
174.559, 1174.700
175.946, 903.037
177.332, 772.491
178.717, 729.062
180.103, 500.743
181.488, 612.541
182.873, 498.467
184.258, 490.502
185.642, 445.635
187.026, 358.862
188.410, 585.267
189.794, 531.787
191.178, 593.443
192.561, 583.199
193.944, 926.023
195.327, 1030.892
196.709, 1220.741
198.092, 1397.558
199.474, 1219.368
200.856, 1283.189
202.237, 1157.028
203.618, 1074.886
205.000, 1158.796
206.380, 940.733
207.761, 887.700
209.142, 608.699
210.522, 549.733
211.902, 504.836
213.281, 414.974
214.661, 419.150
216.040, 275.364
217.419, 333.181
218.798, 190.488
220.176, 171.854
221.554, 255.464
222.932, 106.919
224.310, 233.586
225.688, 150.581
227.065, 283.200
228.442, 244.756
229.819, 384.295
231.196, 273.005
232.572, 202.767
233.948, 451.682
235.324, 314.579
236.700, 483.506
238.075, 497.474
239.450, 431.505
240.825, 581.581
242.200, 491.684
243.574, 774.832
244.948, 627.146
246.322, 970.352
247.696, 966.577
249.070, 1049.276
250.443, 1391.568
251.816, 1455.090
253.189, 1900.487
254.561, 2042.340
255.933, 2543.820
257.306, 2725.349
258.677, 3026.922
260.049, 3378.525
261.420, 3420.157
262.791, 3516.320
264.162, 3547.951
265.533, 3539.590
266.903, 3364.603
268.274, 2856.444
269.643, 2490.381
271.013, 1932.240
272.383, 1528.883
273.752, 1170.532
275.121, 1012.208
276.490, 816.903
277.858, 585.354
279.226, 675.131
280.595, 417.824
281.962, 487.776
283.330, 458.369
284.697, 258.130
286.064, 329.040
287.431, 181.107
288.798, 338.837
290.164, 211.135
291.530, 189.532
292.896, 174.022
294.262, 73.608
295.627, 248.986
296.993, 9.727
298.358, 158.534
299.722, 48.405
301.087, 115.338
302.451, 154.328
303.815, 7.373
305.179, 202.469
306.543, 69.687
307.906, 105.877
309.269, 64.305
310.632, 83.578
311.995, 151.891
313.357, 50.238
314.719, 124.623
316.081, 131.171
317.443, 100.638
318.804, 183.135
320.166, 28.340
321.527, 143.211
322.887, 22.788
324.248, 41.610
325.608, 10.421
326.968, 22.068
328.328, 192.927
329.688, 13.315
331.047, 119.399
332.406, 3.343
333.765, 10.907
335.124, 160.937
336.482, 51.242
337.840, 63.559
339.198, 77.426
340.556, 44.255
341.913, 85.354
343.271, 59.792
344.628, 240.067
345.984, 35.062
347.341, 241.816
348.697, 100.253
350.053, 86.151
351.409, 135.059
352.765, 7.863
354.120, 260.059
355.475, 14.509
356.830, 65.443
358.185, 106.519
359.539, 35.521
360.894, 140.472
362.248, 126.036
363.601, 221.998
364.955, 8.757
366.308, 126.731
367.661, 83.710
369.014, 10.025
370.367, 162.011
371.719, 98.882
373.071, 109.872
374.423, 53.887
375.775, 6.723
377.126, 92.274
378.478, 8.309
379.828, 198.308
381.179, 62.305
382.530, 17.702
383.880, 174.307
385.230, 39.429
386.580, 181.419
387.929, 35.515
389.279, 142.110
390.628, 144.089
391.977, 78.595
393.325, 80.556
394.674, 13.023
396.022, 119.165
397.370, 71.114
398.718, 86.351
400.065, 188.422
401.413, 12.014
402.760, 197.330
404.106, 59.256
405.453, 101.711
406.799, 113.624
408.146, 79.066
409.491, 190.978
410.837, 86.858
412.182, 155.451
413.528, 107.313
414.873, 49.198
416.217, 151.250
417.562, 66.919
418.906, 165.367
420.250, 2.767
421.594, 139.516
422.938, 151.627
424.281, 46.004
425.624, 206.200
426.967, 2.077
428.310, 200.037
429.652, 81.725
430.994, 23.734
432.336, 235.942
433.678, 7.769
435.020, 163.415
436.361, 35.040
437.702, 106.734
439.043, 318.760
440.383, 9.638
441.724, 343.141
443.064, 54.761
444.404, 86.585
445.743, 218.250
447.083, 89.866
448.422, 137.247
449.761, 1.144
451.100, 80.701
452.438, 82.294
453.777, 33.881
455.115, 208.490
456.453, 19.938
457.790, 51.945
459.128, 63.482
460.465, 195.012
461.802, 197.189
463.139, 58.707
464.475, 181.203
465.811, 72.700
467.147, 34.211
468.483, 146.424
469.819, 22.103
471.154, 209.938
472.489, 61.363
473.824, 112.779
475.159, 84.923
476.493, 36.315
477.827, 302.335
479.161, 123.697
480.495, 245.051
481.829, 116.494
483.162, 107.819
484.495, 249.659
485.828, 49.339
487.161, 312.038
488.493, 43.702
489.825, 74.907
491.157, 187.410
492.489, 11.421
493.820, 199.952
495.151, 81.337
496.482, 92.434
497.813, 154.382
499.144, 54.558
500.474, 176.442
501.804, 47.656
503.134, 348.636
504.464, 168.844
505.793, 179.784
507.123, 370.087
508.451, 28.378
509.780, 202.479
511.109, 223.645
512.437, 84.473
513.765, 225.191
515.093, 73.371
516.421, 227.342
517.748, 98.755
519.075, 119.427
520.402, 240.079
521.729, 8.738
523.055, 321.848
524.382, 26.696
525.708, 213.813
527.034, 244.304
528.359, 64.813
529.685, 235.256
531.010, 5.996
532.335, 296.420
533.659, 146.824
534.984, 17.207
536.308, 227.443
537.632, 147.771
538.956, 178.074
540.279, 178.355
541.603, 198.674
542.926, 158.532
544.249, 10.704
545.571, 249.457
546.894, 29.722
548.216, 50.473
549.538, 329.570
550.860, 0.301
552.181, 279.692
553.503, 30.341
554.824, 119.212
556.145, 199.087
557.465, 11.061
558.786, 148.737
560.106, 18.510
561.426, 11.756
562.746, 187.924
564.065, 57.579
565.385, 257.207
566.704, 13.190
568.023, 187.023
569.341, 126.546
570.660, 82.659
571.978, 192.130
573.296, 181.574
574.614, 141.328
575.931, 210.724
577.248, 77.088
578.565, 176.777
579.882, 75.890
581.199, 115.854
582.515, 55.111
583.831, 82.275
585.147, 211.469
586.463, 100.417
587.779, 260.297
589.094, 119.411
590.409, 68.983
591.724, 158.052
593.038, 22.908
594.353, 227.119
595.667, 186.070
596.981, 105.375
598.295, 294.269
599.608, 32.430
600.922, 446.566
602.235, 165.368
603.547, 204.337
604.860, 273.132
606.172, 48.149
607.485, 371.004
608.797, 159.075
610.108, 298.130
611.420, 357.052
612.731, 4.421
614.042, 354.759
615.353, 141.491
616.664, 309.902
617.974, 268.392
619.284, 66.749
620.594, 417.693
621.904, 46.076
623.213, 234.336
624.523, 223.035
625.832, 61.160
627.141, 372.362
628.449, 88.382
629.758, 246.484
631.066, 295.144
632.374, 63.187
633.681, 362.282
634.989, 29.871
636.296, 438.599
637.603, 267.557
638.910, 125.404
640.217, 404.214
641.523, 111.997
642.829, 149.745
644.135, 203.227
645.441, 130.910
646.747, 349.308
648.052, 26.858
649.357, 334.433
650.662, 180.366
651.967, 147.877
653.271, 625.807
654.575, 13.520
655.879, 360.925
657.183, 254.066
658.486, 181.409
659.790, 433.364
661.093, 100.644
662.396, 257.993
663.698, 326.820
665.001, 94.021
666.303, 407.939
667.605, 167.790
668.907, 374.913
670.209, 322.548
671.510, 89.608
672.811, 530.833
674.112, 68.659
675.413, 295.486
676.713, 243.205
678.013, 110.103
679.313, 394.425
680.613, 42.104
681.913, 305.109
683.212, 272.326
684.511, 229.584
685.810, 485.995
687.109, 182.858
688.407, 317.662
689.706, 265.156
691.004, 282.377
692.302, 517.618
693.599, 285.214
694.897, 551.752
696.194, 448.550
697.491, 235.640
698.788, 542.184
700.084, 119.129
701.380, 312.419
702.677, 218.829
703.972, 87.320
705.268, 648.020
706.564, 229.028
707.859, 592.775
709.154, 909.029
710.449, 770.829
711.743, 746.788
713.037, 413.220
714.332, 466.066
715.626, 602.118
716.919, 1047.357
718.213, 1440.018
719.506, 1136.539
720.799, 632.819
722.092, 558.775
723.384, 82.185
724.677, 558.065
725.969, 64.117
727.261, 310.476
728.553, 456.288
729.844, 163.262
731.136, 458.802
732.427, 204.816
733.718, 160.410
735.008, 466.017
736.299, 82.231
737.589, 367.510
738.879, 212.490
740.169, 347.614
741.458, 343.141
742.748, 69.263
744.037, 434.828
745.326, 129.924
746.614, 328.398
747.903, 333.585
749.191, 15.153
750.479, 560.454
751.767, 155.645
753.055, 310.605
754.342, 375.812
755.629, 59.972
756.916, 545.936
758.203, 200.810
759.490, 236.727
760.776, 391.741
762.062, 120.957
763.348, 406.265
764.634, 130.942
765.919, 156.685
767.204, 401.722
768.489, 73.520
769.774, 259.028
771.059, 303.468
772.343, 219.126
773.627, 323.841
774.911, 22.131
776.195, 223.845
777.479, 247.462
778.762, 132.036
780.045, 406.695
781.328, 29.532
782.611, 226.027
783.893, 289.864
785.175, 104.272
786.457, 448.905
787.739, 2.508
789.021, 517.238
790.302, 106.873
791.583, 1.119
792.864, 466.377
794.145, 10.084
795.425, 304.227
796.706, 287.809
797.986, 201.518
799.266, 315.451
800.545, 19.055
801.825, 263.064
803.104, 305.596
804.383, 99.555
805.662, 293.699
806.940, 117.229
808.219, 171.104
809.497, 253.525
810.775, 47.352
812.053, 281.164
813.330, 64.881
814.608, 268.844
815.885, 224.607
817.162, 11.721
818.438, 511.908
819.715, 176.498
820.991, 29.910
822.267, 287.154
823.543, 80.664
824.818, 374.145
826.094, 77.557
827.369, 51.006
828.644, 444.275
829.919, 47.664
831.193, 381.025
832.468, 234.467
833.742, 47.789
835.016, 350.191
836.289, 146.400
837.563, 129.656
838.836, 370.748
840.109, 145.186
841.382, 457.629
842.654, 64.465
843.927, 117.504
845.199, 387.381
846.471, 30.789
847.743, 283.750
849.014, 208.037
850.286, 130.938
851.557, 253.779
852.828, 146.828
854.099, 549.121
855.369, 346.742
856.639, 30.582
857.909, 431.525
859.179, 54.748
860.449, 477.881
861.718, 610.908
862.988, 263.586
864.257, 706.256
865.525, 210.025
866.794, 312.639
868.062, 255.254
869.331, 77.838
870.599, 470.398
871.866, 153.809
873.134, 76.330
874.401, 438.824
875.668, 31.291
876.935, 523.070
878.202, 165.812
879.468, 47.486
880.735, 569.875
882.001, 2.590
883.267, 464.582
884.532, 206.891
885.798, 189.377
887.063, 441.277
888.328, 23.914
889.593, 465.461
890.857, 347.664
892.122, 269.709
893.386, 651.867
894.650, 34.000
895.913, 255.373
897.177, 477.453
898.440, 40.445
899.703, 611.590
900.966, 223.598
902.229, 284.551
903.491, 376.523
904.754, 248.092
906.016, 450.016
907.278, 231.910
908.539, 88.482
909.801, 520.326
911.062, 61.951
912.323, 443.689
913.584, 365.447
914.844, 196.693
916.105, 548.422
917.365, 79.652
918.625, 240.957
919.885, 452.600
921.144, 113.520
922.404, 645.117
923.663, 66.688
924.922, 338.125
926.180, 469.635
927.439, 1.500
928.697, 529.863
929.955, 501.291
931.213, 252.221
932.471, 603.592
933.728, 21.900
934.985, 613.137
936.242, 344.430
937.499, 225.105
938.756, 646.342
940.012, 186.459
941.269, 357.639
942.525, 558.248
943.780, 38.314
945.036, 509.432
946.291, 319.529
947.546, 470.594
948.801, 591.639
950.056, 292.484
951.311, 593.664
952.565, 583.691
953.819, 324.635
955.073, 616.324
956.327, 186.617
957.580, 607.482
958.834, 407.797
960.087, 188.311
961.339, 561.055
962.592, 331.004
963.845, 202.320
965.097, 559.303
966.349, 30.010
967.601, 551.623
968.852, 430.814
970.104, 8.602
971.355, 732.494
972.606, 49.693
973.857, 361.014
975.107, 311.008
976.358, 151.416
977.608, 602.398
978.858, 161.924
980.108, 312.250
981.357, 363.922
982.607, 144.203
983.856, 405.096
985.105, 315.447
986.353, 34.318
987.602, 616.818
988.850, 113.543
990.098, 96.514
991.346, 298.379
992.594, 51.566
993.841, 378.619
995.089, 100.818
996.336, 199.072
997.583, 399.223
998.829, 0.947
1000.076, 478.594
1001.322, 465.562
1002.568, 265.277
1003.814, 795.590
1005.060, 64.693
1006.305, 334.977
1007.550, 360.748
1008.795, 90.367
1010.040, 475.260
1011.285, 236.051
1012.529, 365.582
1013.773, 745.047
1015.017, 44.770
1016.261, 823.971
1017.505, 427.119
1018.748, 396.451
1019.991, 925.086
1021.234, 116.188
1022.477, 705.004
1023.719, 604.400
1024.962, 434.074
1026.204, 912.295
1027.446, 258.750
1028.688, 447.475
1029.929, 756.168
1031.170, 246.273
1032.411, 784.148
1033.652, 435.762
1034.893, 244.514
1036.134, 773.158
1037.374, 251.268
1038.614, 689.158
1039.854, 548.465
1041.094, 468.389
1042.333, 887.221
1043.572, 448.166
1044.811, 637.998
1046.050, 776.688
1047.289, 234.000
1048.527, 959.105
1049.766, 608.369
1051.004, 517.672
1052.241, 1116.316
1053.479, 356.270
1054.717, 454.709
1055.954, 783.262
1057.191, 503.396
1058.428, 801.104
1059.664, 619.584
1060.901, 667.438
1062.137, 1315.850
1063.373, 815.193
1064.609, 1423.188
1065.844, 1851.506
1067.080, 2579.898
1068.315, 6967.975
1069.550, 8466.193
1070.785, 6403.666
1072.019, 3391.816
1073.254, 1459.908
1074.488, 1407.988
1075.722, 1236.027
1076.955, 623.305
1078.189, 1431.285
1079.422, 919.475
1080.656, 1217.521
1081.889, 1625.398
1083.121, 1383.080
1084.354, 2850.912
1085.586, 4578.703
1086.818, 14096.301
1088.050, 33064.023
1089.282, 30981.291
1090.514, 13890.051
1091.745, 5047.656
1092.976, 2155.107
1094.207, 1762.621
1095.438, 960.119
1096.668, 738.656
1097.899, 1276.109
1099.129, 333.543
1100.359, 1021.496
1101.588, 808.887
1102.818, 196.340
1104.047, 1223.668
1105.276, 410.520
1106.505, 729.158
1107.734, 686.416
1108.962, 3.201
1110.191, 601.035
1111.419, 248.217
1112.647, 104.961
1113.874, 482.092
1115.102, 126.535
1116.329, 343.613
1117.556, 510.848
1118.783, 186.252
1120.010, 804.330
1121.236, 327.465
1122.463, 324.377
1123.689, 981.943
1124.914, 78.146
1126.140, 545.303
1127.366, 911.492
1128.591, 1.770
1129.816, 937.223
1131.041, 223.229
1132.266, 159.852
1133.490, 1024.334
1134.714, 77.936
1135.938, 654.600
1137.162, 753.158
1138.386, 8.713
1139.609, 1008.855
1140.833, 161.441
1142.056, 117.760
1143.279, 869.693
1144.501, 95.459
1145.724, 831.611
1146.946, 506.375
1148.168, 87.539
1149.390, 947.254
1150.612, 153.064
1151.833, 549.021
1153.054, 935.445
1154.275, 108.664
1155.496, 838.023
1156.717, 513.064
1157.937, 118.857
1159.158, 695.904
1160.378, 431.637
1161.598, 357.340
1162.817, 888.920
1164.037, 15.439
1165.256, 810.160
1166.475, 407.363
1167.694, 62.896
1168.913, 1017.533
1170.131, 203.076
1171.349, 328.512
1172.567, 905.021
1173.785, 69.607
1175.003, 915.414
1176.220, 312.217
1177.438, 197.469
1178.655, 1002.338
1179.872, 7.533
1181.088, 522.676
1182.305, 767.416
1183.521, 97.504
1184.737, 957.133
1185.953, 342.742
1187.169, 187.582
1188.384, 672.387
1189.599, 40.023
1190.814, 44.588
1192.029, 739.082
1193.244, 86.455
1194.459, 607.438
1195.673, 303.070
1196.887, 227.209
1198.101, 881.291
1199.314, 126.574
1200.528, 440.543
1201.741, 944.354
1202.954, 68.117
1204.167, 781.799
1205.380, 806.508
1206.592, 360.064
1207.805, 1223.570
1209.017, 208.152
1210.229, 441.504
1211.440, 934.795
1212.652, 208.424
1213.863, 971.564
1215.074, 734.564
1216.285, 487.500
1217.496, 1080.363
1218.707, 223.209
1219.917, 695.861
1221.127, 988.443
1222.337, 290.957
1223.547, 1103.365
1224.756, 375.652
1225.966, 369.697
1227.175, 1351.803
1228.384, 217.041
1229.592, 598.986
1230.801, 1220.854
1232.009, 414.396
1233.217, 875.945
1234.425, 777.031
1235.633, 168.389
1236.841, 1328.596
1238.048, 208.152
1239.255, 627.113
1240.462, 1302.912
1241.669, 178.676
1242.876, 744.215
1244.082, 939.115
1245.288, 304.777
1246.494, 1330.402
1247.700, 413.924
1248.906, 517.598
1250.111, 1231.941
1251.316, 137.234
1252.521, 951.775
1253.726, 796.672
1254.931, 290.619
1256.135, 1486.006
1257.339, 478.822
1258.543, 522.176
1259.747, 1365.734
1260.951, 480.932
1262.154, 403.721
1263.357, 1186.133
1264.560, 189.648
1265.763, 914.688
1266.966, 620.031
1268.168, 283.492
1269.371, 1306.473
1270.573, 351.084
1271.775, 644.068
1272.976, 1018.273
1274.178, 47.805
1275.379, 1362.051
1276.580, 574.004
1277.781, 63.572
1278.982, 1360.619
1280.182, 393.977
1281.383, 536.600
1282.583, 1106.916
1283.783, 162.422
1284.982, 1030.711
1286.182, 582.830
1287.381, 30.172
1288.580, 880.604
1289.779, 462.992
1290.978, 514.828
1292.177, 1165.854
1293.375, 83.990
1294.573, 849.037
1295.771, 881.506
1296.969, 27.133
1298.166, 1054.168
1299.364, 217.053
1300.561, 379.934
1301.758, 1571.234
1302.955, 103.014
1304.151, 815.416
1305.348, 1147.740
1306.544, 51.197
1307.740, 711.400
1308.936, 1134.186
1310.132, 104.826
1311.327, 975.848
1312.522, 536.500
1313.717, 409.188
1314.912, 1180.617
1316.107, 172.916
1317.301, 932.365
1318.496, 994.643
1319.690, 125.371
1320.884, 1227.469
1322.077, 859.484
1323.271, 470.998
1324.464, 1360.188
1325.657, 440.379
1326.850, 651.445
1328.043, 1193.348
1329.235, 279.053
1330.428, 1179.100
1331.620, 889.971
1332.812, 31.260
1334.004, 1592.195
1335.195, 445.051
1336.387, 685.646
1337.578, 1456.174
1338.769, 87.912
1339.960, 1119.650
1341.150, 1155.600
1342.341, 93.562
1343.531, 1545.988
1344.721, 797.172
1345.911, 523.898
1347.100, 1353.664
1348.290, 89.146
1349.479, 829.664
1350.668, 1034.369
1351.857, 71.367
1353.046, 1304.566
1354.234, 527.156
1355.422, 198.961
1356.610, 1417.010
1357.798, 661.367
1358.986, 592.777
1360.174, 1513.363
1361.361, 245.568
1362.548, 1357.455
1363.735, 1148.025
1364.922, 268.830
1366.108, 1769.750
1367.295, 608.020
1368.481, 4.002
1369.667, 1298.674
1370.853, 23.506
1372.038, 262.750
1373.224, 1420.740
1374.409, 8.371
1375.594, 1178.037
1376.779, 784.883
1377.963, 48.918
1379.148, 1058.766
1380.332, 359.414
1381.516, 0.000
##END=



