##NAMES=Spessartine
##RRUFFID=R050063
##IDEAL CHEMISTRY=Mn^2+^_3_Al_2_(SiO_4_)_3_
##LOCALITY=Fujian Province, China
##OWNER=RRUFF
##SOURCE=Rock Currier
##DESCRIPTION=Reddish brown crystals
##STATUS=The identification of this mineral has been confirmed by X-ray diffraction and chemical analysis
##URL=rruff.info/R050063
##MEASURED CHEMISTRY=(Mn_2.72_Fe_0.24_Ca_0.04_)_Σ=3_(Al_1.95_Fe^3+^_0.05_)_Σ=2_(Si_1.00_O_4_)_2.75_(F_0.58_(OH)_0.42_)_Σ=1_; trace amounts of Mg; OH estimated by charge balance
##PIN_ID=L00458
##ORIENTATION=Laser parallel to c* (0 0 1). Fiducial mark perpendicular to laser is parallel to a [1 0 0]
49.365, 0.000
50.765, 89.871
52.166, 161.832
53.566, 300.209
54.966, 575.346
56.365, 837.459
57.765, 1061.107
59.164, 1174.553
60.563, 1454.433
61.962, 1420.569
63.360, 1778.500
64.758, 1843.635
66.157, 1788.991
67.554, 1663.711
68.952, 1326.078
70.349, 1028.235
71.747, 829.369
73.144, 803.493
74.540, 765.792
75.937, 580.243
77.333, 466.281
78.729, 448.216
80.125, 313.842
81.521, 204.283
82.916, 160.919
84.311, 38.419
85.706, 5.158
87.101, 73.265
88.496, 91.525
89.890, 26.578
91.284, 31.409
92.678, 47.467
94.071, 25.280
95.465, 62.599
96.858, 7.052
98.251, 28.115
99.644, 3.125
101.036, 57.998
102.428, 23.587
103.820, 31.708
105.212, 48.013
106.604, 35.402
107.995, 40.928
109.387, 161.484
110.777, 128.972
112.168, 88.374
113.559, 263.690
114.949, 333.924
116.339, 473.074
117.729, 412.144
119.119, 331.134
120.508, 247.400
121.897, 177.256
123.286, 245.423
124.675, 266.940
126.063, 252.270
127.452, 276.302
128.840, 282.134
130.228, 251.688
131.615, 292.049
133.003, 337.169
134.390, 338.020
135.777, 312.362
137.164, 307.250
138.550, 316.542
139.937, 258.145
141.323, 311.978
142.709, 336.960
144.094, 251.014
145.480, 208.063
146.865, 181.125
148.250, 162.993
149.635, 170.811
151.019, 201.444
152.403, 246.469
153.788, 349.162
155.171, 468.110
156.555, 660.253
157.939, 749.077
159.322, 943.951
160.705, 1262.598
162.088, 1550.965
163.470, 1641.640
164.853, 1705.022
166.235, 1480.291
167.617, 1279.846
168.998, 1330.606
170.380, 1293.594
171.761, 1449.499
173.142, 1451.358
174.523, 1602.166
175.904, 1693.924
177.284, 1632.629
178.664, 1598.282
180.044, 1466.887
181.424, 1337.435
182.803, 1147.927
184.183, 1036.366
185.562, 927.766
186.940, 813.154
188.319, 749.540
189.698, 672.924
191.076, 631.306
192.454, 604.684
193.831, 505.061
195.209, 481.434
196.586, 455.803
197.963, 400.171
199.340, 352.536
200.717, 374.899
202.093, 245.260
203.470, 301.620
204.846, 306.973
206.221, 261.314
207.597, 348.639
208.972, 408.945
210.347, 497.230
211.722, 558.498
213.097, 663.758
214.472, 761.022
215.846, 920.166
217.220, 1144.646
218.594, 1179.215
219.967, 1421.770
221.341, 1436.254
222.714, 1479.630
224.087, 1540.886
225.460, 1553.005
226.832, 1455.960
228.204, 1360.738
229.577, 1378.333
230.948, 1190.801
232.320, 1194.153
233.692, 1038.293
235.063, 927.237
236.434, 843.142
237.805, 793.373
239.175, 747.403
240.545, 663.597
241.916, 590.387
243.286, 552.042
244.655, 520.188
246.025, 448.994
247.394, 431.676
248.763, 367.723
250.132, 375.619
251.501, 340.565
252.869, 314.265
254.237, 275.983
255.605, 194.878
256.973, 190.579
258.340, 238.384
259.708, 165.250
261.075, 112.708
262.442, 170.761
263.808, 159.233
265.175, 102.892
266.541, 101.239
267.907, 86.721
269.273, 82.212
270.639, 72.721
272.004, 88.469
273.369, 66.332
274.734, 38.709
276.099, 32.434
277.463, 41.994
278.828, 51.549
280.192, 141.144
281.556, 127.222
282.919, 145.403
284.283, 234.383
285.646, 232.786
287.009, 269.375
288.372, 397.238
289.734, 388.166
291.097, 504.989
292.459, 514.202
293.821, 569.118
295.183, 634.767
296.544, 696.417
297.905, 762.031
299.266, 822.276
300.627, 889.376
301.988, 949.838
303.348, 996.584
304.709, 1075.564
306.069, 1076.041
307.428, 1172.626
308.788, 1170.857
310.147, 1283.912
311.507, 1335.859
312.865, 1359.723
314.224, 1515.624
315.583, 1568.652
316.941, 1581.864
318.299, 1709.501
319.657, 1761.633
321.015, 1826.567
322.372, 1974.871
323.729, 2137.304
325.086, 2269.714
326.443, 2470.102
327.800, 2712.464
329.156, 2796.804
330.512, 3168.126
331.868, 3359.434
333.224, 3805.729
334.579, 3991.023
335.935, 4245.312
337.290, 4666.601
338.645, 4829.889
339.999, 5256.173
341.354, 5240.458
342.708, 5450.743
344.062, 5401.028
345.416, 5438.312
346.769, 5355.596
348.123, 5162.882
349.476, 5056.176
350.829, 4833.484
352.182, 4505.804
353.534, 4412.138
354.887, 4096.342
356.239, 3999.475
357.591, 3767.230
358.942, 3678.916
360.294, 3604.532
361.645, 3421.953
362.996, 3497.211
364.347, 3445.613
365.698, 3531.504
367.048, 3440.679
368.398, 3552.919
369.748, 3641.010
371.098, 3622.506
372.448, 3715.290
373.797, 3623.475
375.146, 3609.948
376.495, 3460.636
377.844, 3299.342
379.192, 3217.978
380.540, 2964.546
381.889, 2831.044
383.236, 2452.480
384.584, 2325.841
385.932, 2114.130
387.279, 1931.364
388.626, 1803.531
389.973, 1633.637
391.319, 1505.529
392.666, 1331.676
394.012, 1249.619
395.358, 1133.516
396.704, 995.371
398.049, 961.189
399.394, 861.974
400.740, 808.734
402.084, 801.472
403.429, 723.944
404.774, 698.899
406.118, 655.548
407.462, 495.075
408.806, 511.324
410.150, 438.526
411.493, 461.490
412.836, 439.532
414.179, 401.488
415.522, 330.371
416.865, 312.194
418.207, 319.744
419.549, 212.344
420.891, 218.218
422.233, 115.826
423.575, 115.292
424.916, 107.046
426.257, 74.786
427.598, 27.331
428.939, 21.104
430.279, 12.563
431.619, 0.019
432.959, 107.461
434.299, 41.865
435.639, 71.355
436.978, 60.980
438.318, 86.644
439.657, 74.291
440.996, 89.925
442.334, 86.224
443.673, 71.621
445.011, 73.971
446.349, 68.981
447.687, 38.023
449.024, 10.079
450.361, 15.721
451.699, 25.221
453.036, 5.041
454.372, 31.576
455.709, 67.184
457.045, 111.785
458.381, 113.381
459.717, 164.970
461.053, 191.553
462.388, 186.131
463.724, 288.704
465.059, 342.273
466.394, 424.837
467.728, 457.396
469.063, 624.950
470.397, 764.499
471.731, 821.045
473.065, 939.586
474.398, 957.125
475.732, 946.661
477.065, 976.192
478.398, 847.718
479.731, 816.237
481.063, 687.746
482.396, 622.243
483.728, 541.726
485.060, 560.193
486.391, 553.646
487.723, 473.083
489.054, 529.505
490.385, 545.040
491.716, 601.559
493.047, 665.204
494.377, 703.938
495.708, 864.785
497.038, 920.724
498.368, 1029.757
499.697, 1062.836
501.027, 1121.776
502.356, 1149.090
503.685, 1176.115
505.014, 1152.070
506.342, 1109.182
507.671, 1066.701
508.999, 1014.748
510.327, 973.815
511.655, 912.530
512.982, 893.568
514.310, 865.775
515.637, 851.256
516.964, 800.701
518.291, 825.975
519.617, 816.311
520.944, 834.515
522.270, 869.842
523.596, 812.245
524.921, 873.698
526.247, 895.486
527.572, 953.156
528.897, 980.965
530.222, 1093.102
531.547, 1210.506
532.871, 1322.487
534.196, 1495.916
535.520, 1704.261
536.844, 1801.130
538.167, 2261.660
539.491, 2368.096
540.814, 2824.437
542.137, 3189.258
543.460, 3547.041
544.783, 3992.805
546.105, 4244.062
547.427, 4542.502
548.749, 4350.540
550.071, 4140.728
551.393, 3816.008
552.714, 3298.076
554.035, 2989.152
555.356, 2573.119
556.677, 2178.952
557.998, 1972.516
559.318, 1710.257
560.638, 1497.838
561.958, 1372.206
563.278, 1233.578
564.597, 1162.822
565.917, 1075.040
567.236, 992.233
568.555, 939.402
569.874, 891.547
571.192, 875.668
572.511, 835.458
573.829, 821.840
575.147, 775.892
576.464, 738.941
577.782, 690.948
579.099, 627.932
580.416, 593.892
581.733, 592.624
583.050, 577.159
584.366, 508.771
585.683, 531.095
586.999, 520.273
588.315, 446.667
589.630, 495.450
590.946, 483.347
592.261, 449.111
593.576, 463.718
594.891, 418.114
596.206, 426.841
597.520, 402.474
598.834, 398.655
600.148, 423.005
601.462, 359.488
602.776, 384.709
604.089, 363.727
605.402, 353.978
606.715, 398.411
608.028, 355.268
609.341, 375.104
610.653, 344.938
611.965, 430.667
613.277, 412.419
614.589, 452.397
615.901, 482.472
617.212, 511.421
618.523, 609.560
619.834, 582.792
621.145, 663.967
622.456, 763.142
623.766, 813.290
625.076, 958.410
626.386, 963.502
627.696, 1025.566
629.006, 1032.603
630.315, 1036.611
631.624, 1011.592
632.933, 907.545
634.242, 787.469
635.551, 736.366
636.859, 636.235
638.167, 535.075
639.475, 490.888
640.783, 413.672
642.090, 381.429
643.398, 325.158
644.705, 287.859
646.012, 269.532
647.318, 219.177
648.625, 218.794
649.931, 184.382
651.237, 158.940
652.543, 127.467
653.849, 100.963
655.155, 74.426
656.460, 58.563
657.765, 64.252
659.070, 48.615
660.375, 40.943
661.679, 70.236
662.984, 41.496
664.288, 24.721
665.592, 11.907
666.895, 23.952
668.199, 13.875
669.502, 21.855
670.805, 40.898
672.108, 59.012
673.411, 48.208
674.713, 11.479
676.016, 44.806
677.318, 43.207
678.620, 45.680
679.921, 95.226
681.223, 32.871
682.524, 86.583
683.825, 69.389
685.126, 72.279
686.427, 62.256
687.727, 51.313
689.028, 29.444
690.328, 37.400
691.628, 52.899
692.927, 46.233
694.227, 73.638
695.526, 73.127
696.825, 56.700
698.124, 65.347
699.423, 2.072
700.721, 2.843
702.020, 43.658
703.318, 25.461
704.616, 5.548
705.913, 40.597
707.211, 26.616
708.508, 52.605
709.805, 42.565
711.102, 60.498
712.399, 84.403
713.695, 140.282
714.992, 90.136
716.288, 119.966
717.584, 162.771
718.879, 153.553
720.175, 177.312
721.470, 195.050
722.765, 239.766
724.060, 182.462
725.355, 204.135
726.649, 257.788
727.944, 210.421
729.238, 194.032
730.532, 184.623
731.825, 152.193
733.119, 175.743
734.412, 155.273
735.705, 158.783
736.998, 107.274
738.291, 147.745
739.584, 113.197
740.876, 164.632
742.168, 123.049
743.460, 151.450
744.752, 96.838
746.043, 131.212
747.334, 137.572
748.626, 116.935
749.916, 111.289
751.207, 141.640
752.498, 108.987
753.788, 103.333
755.078, 124.677
756.368, 148.022
757.658, 91.369
758.947, 103.713
760.237, 91.056
761.526, 101.396
762.815, 68.730
764.104, 71.048
765.392, 73.353
766.680, 19.643
767.969, 82.919
769.257, 56.182
770.544, 69.430
771.832, 94.664
773.119, 112.884
774.406, 87.089
775.693, 121.513
776.980, 116.937
778.267, 149.620
779.553, 147.769
780.839, 143.904
782.125, 200.028
783.411, 173.138
784.697, 208.238
785.982, 205.329
787.267, 217.309
788.552, 242.192
789.837, 238.549
791.122, 277.599
792.406, 268.642
793.690, 268.673
794.974, 292.693
796.258, 316.712
797.542, 330.719
798.825, 336.735
800.108, 397.747
801.391, 420.749
802.674, 456.620
803.957, 518.487
805.239, 542.212
806.522, 562.837
807.804, 638.449
809.085, 756.705
810.367, 738.976
811.649, 750.186
812.930, 718.428
814.211, 771.612
815.492, 802.708
816.772, 824.989
818.053, 851.097
819.333, 841.883
820.613, 846.914
821.893, 824.853
823.173, 858.424
824.452, 886.496
825.732, 926.374
827.011, 971.119
828.290, 968.549
829.568, 989.297
830.847, 1099.964
832.125, 1153.750
833.403, 1336.401
834.681, 1480.956
835.959, 1569.443
837.236, 1747.583
838.514, 1898.823
839.791, 2160.910
841.068, 2277.655
842.345, 2457.115
843.621, 2721.984
844.898, 2818.387
846.174, 3096.849
847.450, 3256.765
848.726, 3208.997
850.001, 3393.301
851.277, 3339.676
852.552, 3438.551
853.827, 3517.443
855.102, 3292.332
856.376, 3343.706
857.651, 3212.881
858.925, 3100.437
860.199, 3055.823
861.473, 2842.097
862.746, 2880.564
864.020, 2853.007
865.293, 2738.539
866.566, 2783.188
867.839, 2825.087
869.112, 2841.793
870.384, 2962.641
871.656, 2880.684
872.928, 3122.706
874.200, 3105.840
875.472, 3252.983
876.744, 3398.134
878.015, 3460.295
879.286, 3929.466
880.557, 3899.646
881.828, 4255.835
883.098, 4581.037
884.369, 4734.246
885.639, 5181.446
886.909, 5434.676
888.178, 5748.918
889.448, 6485.169
890.717, 6834.257
891.987, 7760.532
893.256, 8334.686
894.524, 9203.983
895.793, 10583.216
897.061, 11842.537
898.330, 13841.701
899.598, 16211.030
900.865, 18380.387
902.133, 21719.701
903.401, 25379.006
904.668, 28448.398
905.935, 31877.738
907.202, 33617.082
908.468, 35756.504
909.735, 34565.953
911.001, 32595.295
912.267, 30544.723
913.533, 26524.117
914.799, 23483.576
916.064, 20242.914
917.330, 16912.283
918.595, 15151.688
919.860, 12520.887
921.124, 11060.375
922.389, 9459.768
923.653, 8109.242
924.918, 7349.834
926.182, 6266.440
927.445, 5588.159
928.709, 5046.791
929.972, 4300.439
931.236, 3981.152
932.499, 3670.826
933.761, 3373.902
935.024, 3109.610
936.286, 2879.856
937.549, 2705.574
938.811, 2532.859
940.073, 2393.937
941.334, 2288.709
942.596, 2161.497
943.857, 2090.277
945.118, 2020.092
946.379, 1954.079
947.640, 1920.025
948.900, 1808.884
950.161, 1695.515
951.421, 1681.660
952.681, 1551.623
953.940, 1558.492
955.200, 1388.218
956.459, 1437.569
957.719, 1350.374
958.978, 1338.465
960.236, 1330.445
961.495, 1303.917
962.753, 1175.667
964.012, 1140.004
965.270, 1074.052
966.527, 1042.286
967.785, 1067.870
969.043, 955.727
970.300, 971.912
971.557, 897.186
972.814, 871.999
974.071, 853.198
975.327, 760.427
976.583, 767.686
977.840, 643.982
979.095, 628.318
980.351, 646.759
981.607, 603.438
982.862, 553.457
984.117, 587.497
985.372, 534.009
986.627, 570.570
987.882, 584.303
989.136, 613.945
990.390, 634.411
991.644, 618.906
992.898, 670.695
994.152, 675.673
995.405, 676.738
996.659, 787.608
997.912, 787.514
999.165, 814.456
1000.417, 871.441
1001.670, 930.468
1002.922, 976.533
1004.174, 983.637
1005.426, 1027.765
1006.678, 1075.915
1007.930, 1126.099
1009.181, 1241.301
1010.432, 1253.522
1011.683, 1304.761
1012.934, 1473.016
1014.185, 1374.289
1015.435, 1582.577
1016.685, 1677.880
1017.935, 1748.197
1019.185, 1936.528
1020.435, 2001.872
1021.684, 2170.231
1022.934, 2419.606
1024.183, 2403.998
1025.432, 2685.404
1026.680, 2768.824
1027.929, 2641.258
1029.177, 2759.705
1030.425, 2463.174
1031.673, 2332.653
1032.921, 2173.147
1034.169, 1761.655
1035.416, 1597.174
1036.663, 1296.708
1037.911, 1118.253
1039.157, 967.811
1040.404, 823.382
1041.650, 734.969
1042.897, 647.571
1044.143, 535.191
1045.389, 510.826
1046.634, 370.476
1047.880, 374.138
1049.125, 313.813
1050.371, 261.498
1051.615, 276.194
1052.860, 234.903
1054.105, 185.623
1055.349, 211.353
1056.593, 153.095
1057.837, 149.847
1059.081, 118.615
1060.325, 101.393
1061.568, 120.181
1062.812, 72.980
1064.055, 53.788
1065.298, 75.606
1066.540, 32.435
1067.783, 51.278
1069.025, 68.130
1070.267, 102.994
1071.509, 79.866
1072.751, 10.748
1073.993, 32.639
1075.234, 87.539
1076.475, 6.554
1077.716, 34.360
1078.957, 28.282
1080.198, 2.787
1081.438, 38.151
1082.679, 15.903
1083.919, 2.046
1085.159, 18.999
1086.398, 29.043
1087.638, 19.090
1088.877, 34.137
1090.116, 3.810
1091.355, 33.762
1092.594, 26.279
1093.833, 17.677
1095.071, 5.361
1096.309, 46.396
1097.547, 9.556
1098.785, 90.487
1100.023, 28.565
1101.260, 0.650
1102.498, 40.731
1103.735, 17.826
1104.972, 47.924
1106.208, 55.040
1107.445, 1.176
1108.681, 56.311
1109.918, 28.469
1111.154, 50.636
1112.389, 59.824
1113.625, 54.038
1114.860, 39.276
1116.096, 26.530
1117.331, 30.794
1118.566, 36.071
1119.800, 1.636
1121.035, 8.655
1122.269, 42.050
1123.503, 46.923
1124.737, 103.467
1125.971, 49.179
1127.205, 38.895
1128.438, 14.388
1129.671, 1.320
1130.904, 22.974
1132.137, 22.283
1133.370, 17.396
1134.602, 25.074
1135.834, 13.247
1137.066, 24.420
1138.298, 5.913
1139.530, 5.255
1140.762, 12.394
1141.993, 11.959
1143.224, 6.675
1144.455, 48.313
1145.686, 45.966
1146.917, 65.632
1148.147, 62.319
1149.377, 49.021
1150.607, 79.733
1151.837, 50.379
1153.067, 70.012
1154.296, 60.641
1155.526, 75.585
1156.755, 100.298
1157.984, 77.903
1159.213, 57.039
1160.441, 97.829
1161.670, 95.083
1162.898, 121.934
1164.126, 75.644
1165.354, 125.303
1166.581, 104.119
1167.809, 98.771
1169.036, 121.835
1170.263, 141.185
1171.490, 133.357
1172.717, 162.063
1173.943, 125.432
1175.170, 121.487
1176.396, 121.484
1177.622, 123.325
1178.848, 124.942
1180.073, 125.581
1181.299, 115.475
1182.524, 137.151
1183.749, 143.525
1184.974, 171.116
1186.199, 160.211
1187.423, 160.377
1188.648, 149.748
1189.872, 140.560
1191.096, 129.563
1192.320, 120.237
1193.543, 123.621
1194.767, 133.597
1195.990, 125.568
1197.213, 127.612
1198.436, 135.004
1199.659, 125.942
1200.881, 113.850
1202.104, 120.289
1203.326, 134.333
1204.548, 105.777
1205.770, 134.691
1206.991, 130.442
1208.213, 157.998
1209.434, 111.906
1210.655, 91.217
1211.876, 133.787
1213.096, 98.575
1214.317, 102.901
1215.537, 118.591
1216.757, 77.197
1217.977, 82.670
1219.197, 98.201
1220.417, 93.614
1221.636, 144.033
1222.855, 112.374
1224.074, 259.717
1225.293, 303.871
1226.512, 267.006
1227.731, 426.226
1228.949, 224.591
1230.167, 126.605
1231.385, 175.788
1232.603, 143.440
1233.820, 168.605
1235.038, 176.202
1236.255, 135.108
1237.472, 166.160
1238.689, 166.447
1239.906, 154.794
1241.122, 182.999
1242.338, 177.832
1243.555, 167.966
1244.771, 198.033
1245.986, 182.758
1247.202, 197.500
1248.417, 203.470
1249.633, 164.516
1250.848, 207.669
1252.063, 187.242
1253.277, 155.439
1254.492, 183.183
1255.706, 150.099
1256.920, 219.647
1258.134, 197.762
1259.348, 163.377
1260.562, 205.206
1261.775, 174.023
1262.988, 171.380
1264.201, 159.452
1265.414, 166.410
1266.627, 157.949
1267.839, 138.491
1269.052, 159.382
1270.264, 139.191
1271.476, 161.929
1272.688, 166.095
1273.899, 187.807
1275.111, 154.518
1276.322, 187.012
1277.533, 142.106
1278.744, 135.268
1279.955, 144.923
1281.165, 97.534
1282.376, 101.990
1283.586, 126.571
1284.796, 75.353
1286.006, 73.131
1287.215, 102.631
1288.425, 66.950
1289.634, 60.193
1290.843, 56.649
1292.052, 53.087
1293.261, 48.002
1294.469, 43.923
1295.678, 41.334
1296.886, 56.779
1298.094, 59.198
1299.302, 59.668
1300.509, 17.851
1301.717, 38.140
1302.924, 63.414
1304.131, 9.672
1305.338, 26.909
1306.545, 6.129
1307.752, 22.329
1308.958, 33.515
1310.164, 44.685
1311.370, 23.839
1312.576, 43.975
1313.782, 11.095
1314.987, 3.194
1316.193, 7.717
1317.398, 19.342
1318.603, 2.384
1319.807, 10.408
1321.012, 12.414
1322.216, 21.597
1323.421, 40.365
1324.625, 0.691
1325.829, 10.230
1327.032, 29.130
1328.236, 1.010
1329.439, 37.868
1330.642, 6.708
1331.845, 4.528
1333.048, 0.328
1334.251, 6.891
1335.453, 10.133
1336.656, 5.109
1337.858, 0.683
1339.060, 8.012
1340.261, 7.781
1341.463, 34.344
1342.664, 8.985
1343.866, 7.609
1345.067, 8.214
1346.267, 43.803
1347.468, 3.376
1348.669, 37.932
1349.869, 11.528
1351.069, 11.990
1352.269, 22.491
1353.469, 4.977
1354.668, 56.445
1355.868, 19.252
1357.067, 7.690
1358.266, 3.888
1359.465, 10.515
1360.664, 13.903
1361.862, 21.276
1363.061, 16.635
1364.259, 23.990
1365.457, 22.310
1366.655, 27.627
1367.852, 17.931
1369.050, 8.223
1370.247, 16.484
1371.444, 12.280
1372.641, 19.717
1373.838, 16.181
1375.035, 35.477
1376.231, 33.668
1377.427, 36.850
1378.623, 32.025
1379.819, 26.580
1381.015, 51.337
1382.211, 16.420
1383.406, 13.357
1384.601, 21.275
1385.796, 56.189
1386.991, 17.126
1388.185, 33.057
1389.380, 2.996
1390.574, 44.952
1391.768, 34.924
1392.962, 40.926
1394.156, 50.965
1395.350, 42.019
1396.543, 29.083
1397.736, 74.138
1398.929, 54.174
1400.122, 30.189
1401.315, 66.200
1402.507, 47.221
1403.700, 86.235
1404.892, 31.247
1406.084, 57.258
1407.276, 62.267
1408.467, 24.232
1409.659, 18.094
1410.850, 75.851
1412.041, 37.744
1413.232, 55.230
1414.423, 73.002
1415.614, 9.941
1416.804, 82.585
1417.994, 51.146
1419.184, 50.527
1420.374, 73.565
1421.564, 49.875
1422.753, 61.717
1423.943, 74.466
1425.132, 70.520
1426.321, 73.101
1427.510, 91.213
1428.698, 87.665
1429.887, 67.873
1431.075, 94.053
1432.263, 66.091
1433.451, 75.347
1434.639, 94.943
1435.827, 64.225
1437.014, 47.175
1438.201, 39.068
1439.388, 25.795
1440.575, 28.247
1441.762, 63.748
1442.949, 37.371
1444.135, 58.372
1445.321, 72.554
1446.507, 54.687
1447.693, 71.189
1448.879, 43.911
1450.064, 92.011
1451.250, 75.467
1452.435, 79.745
1453.620, 90.930
1454.805, 67.582
1455.989, 85.707
1457.174, 75.995
1458.358, 32.219
1459.542, 51.479
1460.726, 84.427
1461.910, 64.796
1463.093, 80.814
1464.277, 77.961
1465.460, 78.714
1466.643, 82.615
1467.826, 77.574
1469.009, 78.078
1470.191, 73.846
1471.373, 62.488
1472.556, 82.052
1473.738, 51.585
1474.919, 37.410
1476.101, 85.207
1477.283, 24.029
1478.464, 54.955
1479.645, 75.887
1480.826, 35.786
1482.007, 38.389
1483.187, 61.125
1484.368, 28.059
1485.548, 79.051
1486.728, 73.058
1487.908, 24.055
1489.088, 69.027
1490.268, 46.000
1491.447, 72.948
1492.626, 54.914
1493.805, 46.859
1494.984, 26.793
1496.163, 26.757
1497.341, 6.222
1498.520, 69.852
1499.698, 38.968
1500.876, 68.109
1502.054, 64.271
1503.232, 28.464
1504.409, 17.702
1505.586, 18.965
1506.763, 32.255
1507.940, 13.583
1509.117, 41.960
1510.294, 56.399
1511.470, 30.873
1512.647, 22.017
1513.823, 31.134
1514.999, 11.193
1516.174, 0.853
1517.350, 17.901
1518.526, 20.237
1519.701, 30.625
1520.876, 5.934
1522.051, 0.002
1523.226, 0.000
##END=



