##NAMES=Spodumene
##RRUFFID=R040050
##IDEAL CHEMISTRY=LiAlSi_2_O_6_
##LOCALITY=Minas Gerais, Brazil
##OWNER=RRUFF
##SOURCE=University of Arizona Mineral Museum
##DESCRIPTION=Pale pink fragment of a single crystal, variety kunzite
##STATUS=The identification of this mineral has been confirmed by X-ray diffraction and chemical analysis
##URL=rruff.info/R040050
##MEASURED CHEMISTRY=(Li_0.99_Na_0.01_)Al_1.00_Si_2.00_O_6_
##PIN_ID=L00429
##ORIENTATION=Laser parallel to c* (0 0 1). Fiducial mark perpendicular to laser is parallel to a [1 0 0]
105.5290, 0.0000000E+00
106.7660, 47.41772
108.0020, 134.5662
109.2390, 47.46899
110.4750, 73.13611
111.7110, 12.82788
112.9460, 6.664307
114.1820, 129.5283
115.4170, 75.27661
116.6530, 158.4762
117.8880, 98.05286
119.1230, 74.96631
120.3580, 119.2487
121.5920, 140.8279
122.8270, 172.6335
124.0610, 188.0710
125.2950, 126.7393
126.5290, 204.9985
127.7630, 227.3972
128.9970, 226.9082
130.2300, 294.5081
131.4640, 197.2756
132.6970, 141.3054
133.9300, 158.9131
135.1630, 105.4626
136.3950, 95.96167
137.6280, 137.4189
138.8600, 117.8413
140.0920, 84.23438
141.3240, 76.60278
142.5560, 50.38940
143.7880, 130.2795
145.0190, 38.59229
146.2510, 70.03247
147.4820, 130.7412
148.7130, 70.43286
149.9440, 89.09351
151.1750, 64.71582
152.4050, 107.3035
153.6360, 56.86035
154.8660, 120.3894
156.0960, 98.78198
157.3260, 112.9912
158.5560, 85.44629
159.7850, 64.25342
161.0150, 121.8359
162.2440, 77.92993
163.4730, 80.94531
164.7020, 147.9727
165.9310, 58.01440
167.1590, 51.07251
168.3880, 115.1475
169.6160, 86.23853
170.8440, 139.3430
172.0720, 82.45996
173.3000, 116.5886
174.5280, 80.72729
175.7550, 142.8750
176.9820, 97.03027
178.2100, 136.1929
179.4370, 95.36108
180.6630, 123.5344
181.8900, 201.7097
183.1170, 274.8828
184.3430, 231.0564
185.5690, 260.9646
186.7950, 248.5049
188.0210, 304.8320
189.2470, 228.0957
190.4720, 297.2119
191.6970, 193.5720
192.9230, 94.79736
194.1480, 130.9009
195.3730, 99.94678
196.5970, 40.00415
197.8220, 60.07178
199.0460, 83.14917
200.2700, 66.23535
201.4940, 72.33008
202.7180, 52.43286
203.9420, 38.54272
205.1660, 17.65918
206.3890, 4.218018
207.6120, 27.90845
208.8350, 10.96118
210.0580, 29.17529
211.2810, 19.32275
212.5040, 70.48340
213.7260, 46.32251
214.9480, 58.09644
216.1700, 8.143799
217.3920, 17.39990
218.6140, 29.67212
219.8360, 40.98096
221.0570, 102.3323
222.2790, 64.71558
223.5000, 132.1206
224.7210, 125.5806
225.9410, 236.0837
227.1620, 191.6011
228.3820, 221.1423
229.6030, 341.6953
230.8230, 180.2593
232.0430, 90.82275
233.2630, 102.3730
234.4820, 73.87598
235.7020, 65.37988
236.9210, 193.8835
238.1400, 242.3833
239.3590, 253.8740
240.5780, 346.3555
241.7970, 413.8279
243.0150, 416.2908
244.2340, 576.7451
245.4520, 719.1895
246.6700, 976.6243
247.8880, 1203.050
249.1060, 1259.465
250.3230, 1212.870
251.5400, 1094.267
252.7580, 787.7126
253.9750, 663.1416
255.1920, 435.5361
256.4080, 351.8491
257.6250, 249.1929
258.8410, 261.5554
260.0580, 207.3799
261.2740, 79.79199
262.4900, 50.22095
263.7050, 30.66431
264.9210, 15.87939
266.1360, 20.41577
267.3520, 31.94727
268.5670, 34.47461
269.7820, 26.48169
270.9960, 8.540527
272.2110, 1.931885
273.4250, 31.40918
274.6400, 58.89185
275.8540, 57.67554
277.0680, 0.8688960
278.2810, 67.44824
279.4950, 20.99023
280.7090, 40.58398
281.9220, 195.3132
283.1350, 121.0156
284.3480, 239.6592
285.5610, 406.1704
286.7730, 405.6602
287.9860, 495.1467
289.1980, 637.6309
290.4100, 801.1116
291.6220, 954.5908
292.8340, 1189.066
294.0460, 1307.537
295.2570, 1489.002
296.4690, 1487.460
297.6800, 1394.913
298.8910, 1151.361
300.1020, 1101.802
301.3120, 837.2366
302.5230, 728.6616
303.7330, 545.0723
304.9440, 447.4766
306.1540, 354.8435
307.3630, 336.1655
308.5730, 219.4829
309.7830, 210.8259
310.9920, 305.1360
312.2010, 239.6584
313.4100, 190.0630
314.6190, 164.7097
315.8280, 285.6028
317.0370, 289.3274
318.2450, 393.0051
319.4530, 434.4177
320.6610, 533.3696
321.8690, 604.6355
323.0770, 668.5645
324.2850, 841.5134
325.4920, 892.3022
326.6990, 1122.096
327.9060, 1182.614
329.1130, 1118.382
330.3200, 1179.326
331.5270, 936.2510
332.7330, 716.3806
333.9390, 637.9270
335.1450, 481.7671
336.3510, 338.2017
337.5570, 253.7837
338.7630, 270.9036
339.9680, 275.4897
341.1740, 392.3516
342.3790, 404.1704
343.5840, 692.4521
344.7890, 778.2517
345.9930, 1120.054
347.1980, 1361.453
348.4020, 1682.256
349.6060, 2146.000
350.8100, 2482.439
352.0140, 3232.369
353.2180, 3922.120
354.4210, 4540.285
355.6250, 4733.088
356.8280, 4525.680
358.0310, 3820.265
359.2340, 2780.121
360.4360, 2195.246
361.6390, 1554.822
362.8410, 1137.388
364.0430, 863.9348
365.2450, 654.6802
366.4470, 579.7180
367.6490, 418.2981
368.8510, 445.3325
370.0520, 414.3567
371.2530, 400.3694
372.4540, 445.3772
373.6550, 392.3745
374.8560, 391.3655
376.0560, 370.3452
377.2570, 409.6006
378.4570, 478.2793
379.6570, 549.2302
380.8570, 622.1680
382.0570, 760.0940
383.2560, 1049.008
384.4560, 1254.917
385.6550, 1564.822
386.8540, 1751.714
388.0530, 2051.593
389.2520, 2421.461
390.4510, 2803.316
391.6490, 3303.158
392.8470, 3708.988
394.0450, 3712.827
395.2430, 3610.734
396.4410, 3149.238
397.6390, 2658.107
398.8360, 1838.156
400.0340, 1551.554
401.2310, 1045.285
402.4280, 774.2266
403.6250, 583.2493
404.8210, 479.1208
406.0180, 436.1572
407.2140, 357.1279
408.4100, 312.6948
409.6060, 277.7102
410.8020, 257.3726
411.9980, 247.3298
413.1930, 268.2542
414.3890, 317.8433
415.5840, 318.3350
416.7790, 422.5098
417.9740, 295.7898
419.1680, 308.9421
420.3630, 218.1504
421.5570, 121.0994
422.7510, 131.3005
423.9450, 119.3657
425.1390, 87.33496
426.3330, 94.42407
427.5270, 109.7043
428.7200, 141.8076
429.9130, 157.9272
431.1060, 184.3574
432.2990, 188.8596
433.4920, 301.2583
434.6840, 292.0679
435.8770, 326.2756
437.0690, 402.8860
438.2610, 544.0039
439.4530, 523.0854
440.6450, 700.1438
441.8360, 705.1780
443.0280, 700.1885
444.2190, 697.1746
445.4100, 605.1375
446.6010, 661.0781
447.7920, 502.9937
448.9820, 355.8862
450.1730, 299.8271
451.3630, 280.6982
452.5530, 155.7708
453.7430, 221.7993
454.9330, 113.0015
456.1230, 141.2837
457.3120, 83.68408
458.5010, 25.06006
459.6910, 65.38867
460.8800, 76.92236
462.0680, 19.46436
463.2570, 11.62402
464.4460, 17.06201
465.6340, 17.16846
466.8220, 12.25049
468.0100, 50.62939
469.1980, 49.37646
470.3860, 4.933594
471.5730, 55.00293
472.7600, 12.99268
473.9480, 15.01953
475.1350, 63.10107
476.3210, 6.487793
477.5080, 20.51562
478.6950, 20.77344
479.8810, 7.253418
481.0670, 0.5444340
482.2530, 7.384766
483.4390, 59.61914
484.6250, 21.94141
485.8100, 50.52344
486.9960, 25.10742
488.1810, 23.75928
489.3660, 20.77295
490.5510, 11.40234
491.7360, 35.10889
492.9200, 101.6953
494.1050, 33.59570
495.2890, 32.89697
496.4730, 23.45752
497.6570, 18.79395
498.8400, 63.18799
500.0240, 68.40723
501.2070, 58.87012
502.3910, 57.15625
503.5740, 54.96826
504.7570, 71.73096
505.9400, 82.61914
507.1220, 33.91016
508.3050, 231.9902
509.4870, 72.07373
510.6690, 253.6353
511.8510, 359.5137
513.0330, 394.2896
514.2140, 480.4644
515.3960, 630.4512
516.5770, 677.3916
517.7580, 927.1641
518.9390, 1138.810
520.1200, 1211.716
521.3010, 1226.648
522.4810, 1325.879
523.6610, 1374.620
524.8420, 1222.121
526.0220, 992.3218
527.2010, 814.6025
528.3810, 569.9258
529.5610, 489.3145
530.7400, 365.9873
531.9190, 315.4121
533.0980, 289.7944
534.2770, 315.8208
535.4560, 219.8623
536.6340, 200.7700
537.8120, 55.97949
538.9910, 204.8359
540.1690, 158.8584
541.3460, 73.08203
542.5240, 291.5796
543.7020, 176.7500
544.8790, 154.2046
546.0560, 187.6035
547.2330, 145.1274
548.4100, 157.4697
549.5870, 135.7207
550.7630, 106.8906
551.9400, 106.7744
553.1160, 181.6206
554.2920, 1.432617
555.4680, 103.2026
556.6440, 117.9375
557.8190, 32.63135
558.9950, 32.27881
560.1700, 74.88037
561.3450, 57.43408
562.5200, 65.51660
563.6950, 50.31396
564.8690, 48.67627
566.0440, 85.93799
567.2180, 63.01855
568.3920, 6.078613
569.5660, 92.14844
570.7400, 41.30127
571.9130, 201.4268
573.0870, 179.5083
574.2600, 199.5425
575.4330, 96.53223
576.6060, 235.4751
577.7790, 134.3730
578.9520, 247.2227
580.1240, 372.0264
581.2960, 307.7871
582.4690, 336.5039
583.6410, 319.1777
584.8120, 329.8052
585.9840, 378.7124
587.1560, 318.6606
588.3270, 392.2520
589.4980, 316.0479
590.6690, 239.9897
591.8400, 251.9688
593.0110, 199.2085
594.1810, 204.8511
595.3510, 158.7188
596.5220, 134.1606
597.6920, 100.7480
598.8610, 101.0103
600.0310, 105.9121
601.2010, 51.09814
602.3700, 26.20068
603.5390, 140.6011
604.7080, 80.46484
605.8770, 89.91064
607.0460, 118.7793
608.2140, 41.30078
609.3830, 94.16211
610.5510, 46.41943
611.7190, 126.3398
612.8870, 106.8579
614.0550, 91.67822
615.2220, 119.8750
616.3900, 164.0889
617.5570, 62.40527
618.7240, 125.6401
619.8910, 159.4893
621.0580, 84.05469
622.2240, 11.68408
623.3910, 74.04736
624.5570, 104.6973
625.7230, 103.4858
626.8890, 63.01953
628.0550, 50.95605
629.2200, 92.57227
630.3860, 103.5703
631.5510, 59.25439
632.7160, 33.67920
633.8810, 19.72363
635.0460, 34.68359
636.2100, 11.08203
637.3750, 57.69141
638.5390, 35.95508
639.7030, 70.61670
640.8670, 5.162109
642.0310, 42.81787
643.1950, 42.59375
644.3580, 58.29639
645.5210, 118.9336
646.6850, 14.73193
647.8480, 16.79492
649.0100, 48.54150
650.1730, 57.94678
651.3350, 83.62598
652.4980, 100.8906
653.6600, 21.41748
654.8220, 36.72607
655.9840, 18.27539
657.1450, 75.06152
658.3070, 13.86426
659.4680, 28.33350
660.6300, 15.35596
661.7910, 175.1074
662.9510, 46.18799
664.1120, 95.97607
665.2730, 27.25146
666.4330, 29.04980
667.5930, 116.6299
668.7530, 93.28613
669.9130, 17.66943
671.0730, 69.03125
672.2320, 71.54248
673.3920, 149.0068
674.5510, 137.4014
675.7100, 161.9492
676.8690, 82.81592
678.0280, 159.0332
679.1860, 111.0234
680.3450, 55.59375
681.5030, 220.1143
682.6610, 50.92871
683.8190, 213.6025
684.9770, 218.1411
686.1340, 179.7983
687.2920, 214.0327
688.4490, 227.0605
689.6060, 237.2295
690.7630, 307.3818
691.9200, 403.3857
693.0760, 483.8853
694.2330, 491.0278
695.3890, 735.0698
696.5450, 917.6919
697.7010, 1221.832
698.8570, 1384.981
700.0130, 1705.884
701.1680, 1988.744
702.3230, 2558.604
703.4780, 3070.928
704.6330, 3585.571
705.7880, 4139.993
706.9430, 4415.971
708.0970, 4218.414
709.2520, 3813.165
710.4060, 3027.716
711.5600, 2469.450
712.7140, 1837.666
713.8670, 1432.555
715.0210, 1092.144
716.1740, 970.5811
717.3270, 684.4829
718.4800, 586.8403
719.6330, 530.6616
720.7860, 411.2148
721.9380, 440.8711
723.0910, 317.8955
724.2430, 240.7207
725.3950, 221.1479
726.5470, 296.0854
727.6980, 237.2915
728.8500, 192.4258
730.0010, 173.5498
731.1530, 159.7378
732.3040, 168.2627
733.4550, 169.3276
734.6050, 207.9775
735.7560, 189.0649
736.9060, 196.7295
738.0560, 211.1973
739.2060, 171.2251
740.3560, 189.3105
741.5060, 168.8472
742.6560, 154.8867
743.8050, 167.6592
744.9540, 133.7363
746.1030, 198.8877
747.2520, 143.5664
748.4010, 34.90332
749.5500, 167.5156
750.6980, 190.4355
751.8460, 62.72168
752.9950, 200.5547
754.1420, 128.0649
755.2900, 6.212891
756.4380, 157.2998
757.5850, 94.20801
758.7330, 112.4697
759.8800, 193.9409
761.0270, 131.8867
762.1730, 7.295898
763.3200, 187.2490
764.4670, 123.2729
765.6130, 127.9937
766.7590, 42.15576
767.9050, 180.9819
769.0510, 144.8208
770.1960, 208.4546
771.3420, 219.8760
772.4870, 68.48877
773.6320, 166.6694
774.7770, 92.66113
775.9220, 156.6885
777.0670, 91.66406
778.2110, 110.5625
779.3560, 60.28125
780.5000, 68.19629
781.6440, 111.1504
782.7880, 116.0215
783.9320, 217.8516
785.0750, 232.0527
786.2180, 196.9844
787.3620, 28.97754
788.5050, 103.7861
789.6480, 166.8232
790.7900, 51.07910
791.9330, 165.1299
793.0750, 0.8320310
794.2170, 88.19629
795.3590, 136.6152
796.5010, 90.33008
797.6430, 120.7168
798.7850, 170.5049
799.9260, 77.99902
801.0670, 139.3828
802.2080, 128.5352
803.3490, 29.57422
804.4900, 112.4404
805.6310, 103.1133
806.7710, 154.4004
807.9110, 147.6514
809.0510, 97.22656
810.1910, 94.21875
811.3310, 103.6250
812.4710, 61.49316
813.6100, 2.935547
814.7490, 0.6181640
815.8880, 119.3232
817.0270, 1.175781
818.1660, 78.73926
819.3050, 154.2090
820.4430, 118.8623
821.5820, 114.3848
822.7200, 104.3623
823.8580, 146.4131
824.9950, 113.9717
826.1330, 200.3037
827.2710, 82.55566
828.4080, 103.7480
829.5450, 284.6660
830.6820, 80.43945
831.8190, 60.07227
832.9560, 143.3955
834.0920, 156.5635
835.2280, 137.5244
836.3650, 221.9492
837.5010, 197.3682
838.6360, 188.8213
839.7720, 283.7021
840.9080, 188.4814
842.0430, 51.36621
843.1780, 87.94922
844.3130, 105.4248
845.4480, 135.7949
846.5830, 115.0586
847.7170, 213.7148
848.8520, 298.5117
849.9860, 139.9473
851.1200, 92.21875
852.2540, 249.6016
853.3870, 259.1484
854.5210, 245.4971
855.6540, 121.0312
856.7880, 168.4268
857.9210, 126.8184
859.0540, 261.1162
860.1860, 292.8467
861.3190, 136.5400
862.4510, 236.7861
863.5840, 155.8623
864.7160, 161.7920
865.8480, 128.7012
866.9790, 111.3818
868.1110, 106.2754
869.2420, 149.7227
870.3740, 329.1709
871.5050, 183.1650
872.6360, 231.4199
873.7660, 259.9814
874.8970, 111.7002
876.0280, 261.7197
877.1580, 108.9209
878.2880, 324.7754
879.4180, 87.13379
880.5480, 226.6172
881.6770, 216.6533
882.8070, 49.84570
883.9360, 106.6816
885.0650, 208.9453
886.1940, 195.6445
887.3230, 306.3477
888.4520, 138.4238
889.5800, 222.9805
890.7090, 106.1367
891.8370, 231.5898
892.9650, 94.66797
894.0930, 247.1895
895.2200, 107.8604
896.3480, 134.3740
897.4750, 103.1211
898.6020, 46.99805
899.7290, 171.5107
900.8560, 190.8223
901.9830, 127.7090
903.1090, 97.13379
904.2360, 135.9951
905.3620, 19.71191
906.4880, 125.9990
907.6140, 73.48242
908.7400, 145.7617
909.8650, 147.0361
910.9900, 162.5518
912.1160, 131.5674
913.2410, 162.0117
914.3660, 121.7871
915.4900, 40.78809
916.6150, 159.5010
917.7390, 159.8799
918.8640, 20.19141
919.9880, 131.7725
921.1120, 142.7139
922.2350, 38.45605
923.3590, 98.73047
924.4820, 3.698242
925.6060, 108.0020
926.7290, 69.10742
927.8520, 77.58984
928.9740, 68.05664
930.0970, 157.0176
931.2190, 109.0859
932.3420, 2.130859
933.4640, 111.6689
934.5860, 139.5791
935.7080, 27.00488
936.8290, 113.5312
937.9510, 157.9141
939.0720, 34.68652
940.1930, 149.7959
941.3140, 50.72949
942.4350, 4.250977
943.5560, 93.58789
944.6760, 42.06641
945.7960, 34.58594
946.9170, 208.6406
948.0370, 88.57812
949.1560, 21.81152
950.2760, 86.98633
951.3960, 15.15527
952.5150, 27.23535
953.6340, 10.79199
954.7530, 62.84570
955.8720, 39.23633
956.9910, 80.50000
958.1090, 176.6035
959.2280, 102.0029
960.3460, 122.5020
961.4640, 28.54102
962.5820, 40.94629
963.6990, 54.30664
964.8170, 202.4258
965.9340, 210.6064
967.0510, 258.1523
968.1690, 269.0029
969.2850, 293.2393
970.4020, 395.2109
971.5190, 371.2725
972.6350, 337.2188
973.7510, 566.9414
974.8670, 561.3945
975.9830, 396.9150
977.0990, 586.1328
978.2150, 622.6201
979.3300, 483.6025
980.4450, 468.5420
981.5600, 326.2461
982.6750, 271.0869
983.7900, 334.2461
984.9050, 128.6445
986.0190, 294.0469
987.1340, 228.0576
988.2480, 249.7480
989.3620, 178.2773
990.4750, 184.1826
991.5890, 157.1875
992.7020, 152.2754
993.8160, 85.46191
994.9290, 9.334961
996.0420, 70.19141
997.1550, 110.9385
998.2670, 18.76172
999.3800, 190.2998
1000.492, 6.881836
1001.604, 34.88281
1002.716, 188.1904
1003.828, 159.7627
1004.940, 23.08496
1006.051, 169.3271
1007.163, 111.6279
1008.274, 262.9062
1009.385, 360.4199
1010.496, 306.4268
1011.606, 339.7666
1012.717, 456.7227
1013.827, 368.7832
1014.937, 577.0537
1016.047, 779.1709
1017.157, 845.1055
1018.267, 1098.395
1019.377, 1224.791
1020.486, 1172.277
1021.595, 1035.027
1022.704, 908.5059
1023.813, 761.7930
1024.922, 542.5303
1026.030, 484.1455
1027.139, 209.9150
1028.247, 167.7773
1029.355, 260.6475
1030.463, 105.0938
1031.571, 152.6309
1032.678, 178.1855
1033.786, 47.49219
1034.893, 66.94531
1036.000, 40.70312
1037.107, 193.1094
1038.214, 163.2266
1039.321, 98.94336
1040.427, 234.8379
1041.533, 123.2168
1042.639, 57.38672
1043.745, 235.7480
1044.851, 167.5781
1045.957, 210.7070
1047.062, 361.8555
1048.168, 370.5137
1049.273, 415.8203
1050.378, 502.0879
1051.482, 472.2363
1052.587, 434.6094
1053.692, 482.0645
1054.796, 413.7891
1055.900, 527.0801
1057.004, 476.6406
1058.108, 558.4336
1059.212, 812.1836
1060.315, 771.5273
1061.418, 963.7324
1062.522, 1187.963
1063.625, 1619.273
1064.728, 1844.150
1065.830, 2320.236
1066.933, 2741.465
1068.035, 3626.416
1069.137, 4402.873
1070.239, 5503.691
1071.341, 6001.586
1072.443, 6539.965
1073.545, 6525.229
1074.646, 5934.387
1075.747, 5231.215
1076.848, 4512.609
1077.949, 3633.201
1079.050, 2702.764
1080.150, 2084.945
1081.251, 1730.582
1082.351, 1473.877
1083.451, 1255.363
1084.551, 1093.178
1085.651, 877.9746
1086.750, 776.5996
1087.850, 616.0156
1088.949, 619.2422
1090.048, 595.4297
1091.147, 528.6191
1092.246, 272.4199
1093.345, 464.5625
1094.443, 365.4805
1095.541, 481.7832
1096.639, 205.0098
1097.737, 190.4922
1098.835, 181.7148
1099.933, 127.4746
1101.030, 166.4707
1102.128, 184.0996
1103.225, 228.9922
1104.322, 196.8086
1105.419, 237.5762
1106.515, 109.1602
1107.612, 258.4883
1108.708, 41.48242
1109.804, 74.26367
1110.900, 174.8320
1111.996, 188.2578
1113.092, 204.7812
1114.187, 18.45898
1115.283, 1.402344
1116.378, 34.24023
1117.473, 137.8555
1118.568, 122.1816
1119.662, 254.2012
1120.757, 273.9746
1121.851, 433.4961
1122.946, 260.3887
1124.040, 85.93945
1125.134, 171.4941
1126.227, 306.4023
1127.321, 142.7246
1128.414, 469.3105
1129.508, 197.6582
1130.601, 360.6484
1131.693, 275.5195
1132.786, 60.59961
1133.879, 170.3516
1134.971, 46.65234
1136.064, 24.69922
1137.156, 182.6836
1138.248, 255.6191
1139.339, 226.3867
1140.431, 176.9453
1141.522, 149.5332
1142.614, 23.08398
1143.705, 51.21680
1144.796, 2.146484
1145.887, 205.0508
1146.977, 18.56641
1148.068, 143.4785
1149.158, 0.1718750
1150.248, 0.0000000E+00
##END=



