##NAMES=Spodumene
##RRUFFID=R040050
##IDEAL CHEMISTRY=LiAlSi_2_O_6_
##LOCALITY=Minas Gerais, Brazil
##OWNER=RRUFF
##SOURCE=University of Arizona Mineral Museum
##DESCRIPTION=Pale pink fragment of a single crystal, variety kunzite
##STATUS=The identification of this mineral has been confirmed by X-ray diffraction and chemical analysis
##URL=rruff.info/R040050
##MEASURED CHEMISTRY=(Li_0.99_Na_0.01_)Al_1.00_Si_2.00_O_6_
##PIN_ID=L00199
##ORIENTATION=Laser parallel to b* (0 1 0). Fiducial mark perpendicular to laser is parallel to c [0 0 1]
106.7660, 0.0000000E+00
108.0020, 50.45825
109.2390, 1.524414
110.4750, 20.49438
111.7110, 105.2097
112.9460, 84.83911
114.1820, 66.89673
115.4170, 52.10889
116.6530, 85.21777
117.8880, 206.0298
119.1230, 217.4055
120.3580, 222.2427
121.5920, 364.7693
122.8270, 347.6548
124.0610, 522.8381
125.2950, 632.2639
126.5290, 791.8816
127.7630, 955.6670
128.9970, 1209.600
130.2300, 1189.661
131.4640, 1198.832
132.6970, 1007.103
133.9300, 717.4832
135.1630, 617.1575
136.3950, 363.2715
137.6280, 300.3813
138.8600, 206.4910
140.0920, 236.6028
141.3240, 189.9199
142.5560, 134.0376
143.7880, 107.1636
145.0190, 86.29736
146.2510, 83.43848
147.4820, 52.63672
148.7130, 82.88770
149.9440, 72.14453
151.1750, 84.40479
152.4050, 57.66968
153.6360, 49.93970
154.8660, 91.21460
156.0960, 77.49463
157.3260, 81.81885
158.5560, 68.18311
159.7850, 91.57959
161.0150, 26.56543
162.2440, 106.1101
163.4730, 21.07983
164.7020, 35.24805
165.9310, 130.3552
167.1590, 112.4814
168.3880, 78.62622
169.6160, 104.7900
170.8440, 40.97144
172.0720, 57.16968
173.3000, 79.38208
174.5280, 2.381104
175.7550, 49.88110
176.9820, 91.15332
178.2100, 133.4373
179.4370, 114.7256
180.6630, 101.0149
181.8900, 175.2964
183.1170, 193.5815
184.3430, 261.8809
185.5690, 352.2136
186.7950, 345.5532
188.0210, 424.8989
189.2470, 389.2583
190.4720, 363.5908
191.6970, 312.0293
192.9230, 215.3770
194.1480, 210.7351
195.3730, 143.1038
196.5970, 73.48096
197.8220, 93.86719
199.0460, 62.25806
200.2700, 18.65186
201.4940, 55.04810
202.7180, 76.44653
203.9420, 5.846680
205.1660, 18.24854
206.3890, 52.65088
207.6120, 68.18848
208.8350, 33.55225
210.0580, 38.93286
211.2810, 24.17578
212.5040, 11.38184
213.7260, 21.03662
214.9480, 6.362549
216.1700, 3.130127
217.3920, 1.454346
218.6140, 20.01440
219.8360, 28.55469
221.0570, 79.06909
222.2790, 2.500000
223.5000, 84.43384
224.7210, 44.00171
225.9410, 20.58423
227.1620, 110.1660
228.3820, 140.7549
229.6030, 35.38940
230.8230, 128.0227
232.0430, 119.6580
233.2630, 53.29785
234.4820, 26.93286
235.7020, 77.56250
236.9210, 24.18701
238.1400, 40.75610
239.3590, 67.32788
240.5780, 85.26782
241.7970, 131.3765
243.0150, 103.4299
244.2340, 195.0171
245.4520, 271.4949
246.6700, 391.1792
247.8880, 386.8174
249.1060, 443.2480
250.3230, 491.6711
251.5400, 311.0862
252.7580, 382.4932
253.9750, 266.6577
255.1920, 185.7600
256.4080, 179.8740
257.6250, 133.4041
258.8410, 180.0718
260.0580, 57.62207
261.2740, 139.8486
262.4900, 70.74023
263.7050, 52.17847
264.9210, 92.71631
266.1360, 70.40967
267.3520, 30.78589
268.5670, 104.1035
269.7820, 58.06567
270.9960, 8.579834
272.2110, 81.39893
273.4250, 16.04883
274.6400, 52.57959
275.8540, 3.118896
277.0680, 58.76709
278.2810, 46.63672
279.4950, 76.34229
280.7090, 173.9958
281.9220, 46.73340
283.1350, 195.5208
284.3480, 124.0896
285.5610, 202.8625
286.7730, 186.5723
287.9860, 225.2378
289.1980, 316.7441
290.4100, 346.2449
291.6220, 457.7407
292.8340, 617.2314
294.0460, 601.7161
295.2570, 656.1948
296.4690, 631.6672
297.6800, 624.1328
298.8910, 565.5913
300.1020, 426.0435
301.3120, 261.4890
302.5230, 254.9268
303.7330, 66.35718
304.9440, 139.7800
306.1540, 88.19531
307.3630, 33.40112
308.5730, 67.98413
309.7830, 68.08862
310.9920, 70.79126
312.2010, 56.42236
313.4100, 44.99072
314.6190, 6.177002
315.8280, 18.39355
317.0370, 2.820313
318.2450, 5.649658
319.4530, 36.28882
320.6610, 30.28784
321.8690, 8.010010
323.0770, 101.4412
324.2850, 38.71338
325.4920, 73.48315
326.6990, 153.2964
327.9060, 98.09497
329.1130, 112.5981
330.3200, 134.2080
331.5270, 121.7607
332.7330, 75.65234
333.9390, 124.8169
335.1450, 64.57300
336.3510, 140.1157
337.5570, 8.645264
338.7630, 135.4045
339.9680, 189.0413
341.1740, 139.4329
342.3790, 276.9209
343.5840, 251.5898
344.7890, 329.0798
345.9930, 438.5750
347.1980, 577.1086
348.4020, 742.1392
349.6060, 987.8857
350.8100, 1230.005
352.0140, 1578.655
353.2180, 1860.045
354.4210, 2247.513
355.6250, 2294.052
356.8280, 2137.612
358.0310, 1684.233
359.2340, 1262.551
360.4360, 859.8323
361.6390, 607.2634
362.8410, 473.6216
364.0430, 374.6162
365.2450, 254.6709
366.4470, 185.3057
367.6490, 142.8074
368.8510, 154.6047
370.0520, 95.83813
371.2530, 103.7412
372.4540, 14.62280
373.6550, 20.06494
374.8560, 55.09204
376.0560, 29.80347
377.2570, 55.49878
378.4570, 120.1792
379.6570, 83.84497
380.8570, 126.4956
382.0570, 140.7390
383.2560, 56.75439
384.4560, 150.3616
385.6550, 113.9531
386.8540, 65.52710
388.0530, 120.0833
389.2520, 161.8879
390.4510, 171.9568
391.6490, 160.0037
392.8470, 214.9204
394.0450, 195.7917
395.2430, 160.7346
396.4410, 172.6611
397.6390, 95.68848
398.8360, 118.5342
400.0340, 153.4224
401.2310, 52.52197
402.4280, 32.48389
403.6250, 75.90527
404.8210, 4.064209
406.0180, 6.301514
407.2140, 127.8145
408.4100, 107.7065
409.6060, 75.64038
410.8020, 53.15942
411.9980, 33.45068
413.1930, 19.23877
414.3890, 131.1001
415.5840, 58.87793
416.7790, 101.3157
417.9740, 168.7273
419.1680, 131.6689
420.3630, 107.1396
421.5570, 55.68896
422.7510, 96.01904
423.9450, 109.2854
425.1390, 86.43408
426.3330, 74.78638
427.5270, 126.9241
428.7200, 78.04980
429.9130, 93.11890
431.1060, 102.9111
432.2990, 148.0505
433.4920, 146.7927
434.6840, 210.5105
435.8770, 291.4104
437.0690, 316.0786
438.2610, 451.7219
439.4530, 447.3396
440.6450, 424.9324
441.8360, 488.4993
443.0280, 413.0408
444.2190, 485.5581
445.4100, 372.0503
446.6010, 363.5161
447.7920, 283.9575
448.9820, 319.3740
450.1730, 286.7646
451.3630, 184.9668
452.5530, 67.30908
453.7430, 4.373535
454.9330, 71.90869
456.1230, 91.24365
457.3120, 16.49072
458.5010, 82.29492
459.6910, 29.93018
460.8800, 104.1870
462.0680, 62.78564
463.2570, 26.77783
464.4460, 45.45996
465.6340, 103.2603
466.8220, 0.9008790
468.0100, 25.91602
469.1980, 14.30273
470.3860, 16.70459
471.5730, 34.89014
472.7600, 59.49121
473.9480, 71.98584
475.1350, 8.416016
476.3210, 46.04639
477.5080, 23.73486
478.6950, 20.47021
479.8810, 67.82422
481.0670, 12.48389
482.2530, 38.42969
483.4390, 34.70410
484.6250, 70.06348
485.8100, 25.01953
486.9960, 65.80322
488.1810, 62.92188
489.3660, 52.11572
490.5510, 14.14600
491.7360, 51.10742
492.9200, 47.70508
494.1050, 16.84180
495.2890, 73.52393
496.4730, 53.77686
497.6570, 7.586914
498.8400, 25.85303
500.0240, 11.44434
501.2070, 78.50488
502.3910, 33.70215
503.5740, 45.39014
504.7570, 49.79053
505.9400, 13.82520
507.1220, 60.66943
508.3050, 136.9258
509.4870, 17.53760
510.6690, 202.7764
511.8510, 76.77783
513.0330, 153.0903
514.2140, 155.1025
515.3960, 310.0854
516.5770, 232.6895
517.7580, 335.7583
518.9390, 380.5884
520.1200, 408.6309
521.3010, 527.8721
522.4810, 495.8237
523.6610, 367.0488
524.8420, 353.3271
526.0220, 372.3110
527.2010, 340.4771
528.3810, 234.4175
529.5610, 228.2612
530.7400, 129.1230
531.9190, 62.93408
533.0980, 64.63916
534.2770, 92.34229
535.4560, 100.1299
536.6340, 79.76953
537.8120, 80.39551
538.9910, 52.74463
540.1690, 93.28174
541.3460, 81.99902
542.5240, 28.11426
543.7020, 56.85498
544.8790, 32.07422
546.0560, 8.053223
547.2330, 121.0562
548.4100, 5.393066
549.5870, 47.13428
550.7630, 32.66992
551.9400, 126.8970
553.1160, 16.98828
554.2920, 51.96484
555.4680, 28.83887
556.6440, 39.12891
557.8190, 120.0801
558.9950, 121.1670
560.1700, 2.336914
561.3450, 83.46143
562.5200, 73.43945
563.6950, 120.1587
564.8690, 130.0034
566.0440, 152.8599
567.2180, 98.57910
568.3920, 144.2036
569.5660, 142.0122
570.7400, 149.5732
571.9130, 228.1538
573.0870, 121.7349
574.2600, 217.4297
575.4330, 252.0850
576.6060, 162.7026
577.7790, 387.2759
578.9520, 440.8105
580.1240, 400.3042
581.2960, 487.7588
582.4690, 505.1733
583.6410, 422.5464
584.8120, 488.1519
585.9840, 609.6782
587.1560, 647.9512
588.3270, 557.5635
589.4980, 582.9463
590.6690, 478.2524
591.8400, 542.8477
593.0110, 373.4961
594.1810, 331.8418
595.3510, 220.1929
596.5220, 201.5176
597.6920, 217.0146
598.8610, 170.1050
600.0310, 84.26465
601.2010, 88.28223
602.3700, 66.80273
603.5390, 136.8950
604.7080, 162.3291
605.8770, 92.32666
607.0460, 76.05664
608.2140, 2.075195
609.3830, 121.6196
610.5510, 111.2305
611.7190, 103.8584
612.8870, 94.53613
614.0550, 61.17236
615.2220, 69.75049
616.3900, 36.69531
617.5570, 73.51025
618.7240, 66.48389
619.8910, 51.66504
621.0580, 123.7876
622.2240, 120.8066
623.3910, 132.7417
624.5570, 141.0708
625.7230, 89.77148
626.8890, 123.7627
628.0550, 37.10645
629.2200, 12.39648
630.3860, 114.5317
631.5510, 30.87939
632.7160, 66.70801
633.8810, 3.741211
635.0460, 82.66650
636.2100, 9.375488
637.3750, 78.91992
638.5390, 115.2334
639.7030, 12.95557
640.8670, 14.34082
642.0310, 152.7866
643.1950, 27.99463
644.3580, 89.31250
645.5210, 85.48340
646.6850, 48.34229
647.8480, 17.60840
649.0100, 12.42871
650.1730, 95.62109
651.3350, 13.07422
652.4980, 60.83398
653.6600, 128.1201
654.8220, 46.57812
655.9840, 134.9634
657.1450, 51.61279
658.3070, 76.28271
659.4680, 43.49512
660.6300, 38.93506
661.7910, 80.19141
662.9510, 29.27246
664.1120, 9.416504
665.2730, 22.71924
666.4330, 22.88770
667.5930, 70.08984
668.7530, 42.29004
669.9130, 75.20264
671.0730, 79.91309
672.2320, 96.96387
673.3920, 89.46826
674.5510, 62.21338
675.7100, 89.18164
676.8690, 84.16357
678.0280, 142.1948
679.1860, 66.94189
680.3450, 22.69971
681.5030, 172.0039
682.6610, 185.6514
683.8190, 77.00830
684.9770, 88.51074
686.1340, 195.3135
687.2920, 193.9746
688.4490, 202.0078
689.6060, 223.1826
690.7630, 310.3149
691.9200, 262.7451
693.0760, 475.5898
694.2330, 424.9160
695.3890, 625.1494
696.5450, 720.0659
697.7010, 834.1631
698.8570, 993.0928
700.0130, 1328.142
701.1680, 1680.805
702.3230, 1985.760
703.4780, 2562.498
704.6330, 3053.361
705.7880, 3528.162
706.9430, 3831.240
708.0970, 3747.987
709.2520, 3365.587
710.4060, 2763.274
711.5600, 2134.883
712.7140, 1672.194
713.8670, 1149.492
715.0210, 901.0063
716.1740, 675.5342
717.3270, 604.9517
718.4800, 418.6528
719.6330, 357.9771
720.7860, 282.2534
721.9380, 438.6968
723.0910, 211.5430
724.2430, 221.2847
725.3950, 272.7705
726.5470, 182.7222
727.6980, 228.1489
728.8500, 238.2925
730.0010, 159.7246
731.1530, 140.2988
732.3040, 118.8301
733.4550, 96.13135
734.6050, 108.6006
735.7560, 76.78125
736.9060, 88.91650
738.0560, 129.0225
739.2060, 99.33252
740.3560, 42.57520
741.5060, 67.34277
742.6560, 140.3501
743.8050, 76.02295
744.9540, 5.756836
746.1030, 186.0093
747.2520, 94.96094
748.4010, 92.07812
749.5500, 78.88037
750.6980, 124.4395
751.8460, 96.26709
752.9950, 110.4502
754.1420, 168.3911
755.2900, 117.6929
756.4380, 163.6646
757.5850, 152.7388
758.7330, 156.0312
759.8800, 113.1807
761.0270, 149.3960
762.1730, 76.31250
763.3200, 11.39746
764.4670, 87.65283
765.6130, 32.51611
766.7590, 30.02295
767.9050, 47.90186
769.0510, 103.6182
770.1960, 140.5454
771.3420, 148.4834
772.4870, 138.6050
773.6320, 51.94482
774.7770, 176.7769
775.9220, 141.0698
777.0670, 21.09326
778.2110, 83.74902
779.3560, 126.8965
780.5000, 129.5000
781.6440, 102.2480
782.7880, 130.9946
783.9320, 93.37939
785.0750, 7.910156
786.2180, 210.1104
787.3620, 16.67773
788.5050, 171.8096
789.6480, 147.5566
790.7900, 137.4326
791.9330, 26.91211
793.0750, 125.4346
794.2170, 51.65723
795.3590, 43.18750
796.5010, 129.3916
797.6430, 11.45020
798.7850, 93.42383
799.9260, 127.5107
801.0670, 100.5371
802.2080, 54.33594
803.3490, 69.77539
804.4900, 53.84277
805.6310, 47.92871
806.7710, 91.68750
807.9110, 63.54199
809.0510, 141.4326
810.1910, 46.09375
811.3310, 16.91895
812.4710, 158.0010
813.6100, 120.2529
814.7490, 96.50391
815.8880, 122.2363
817.0270, 240.9463
818.1660, 128.2588
819.3050, 75.14941
820.4430, 161.0605
821.5820, 34.21191
822.7200, 20.96484
823.8580, 115.7295
824.9950, 131.9873
826.1330, 133.1426
827.2710, 114.3008
828.4080, 123.4883
829.5450, 139.8125
830.6820, 58.86426
831.8190, 51.73828
832.9560, 102.2354
834.0920, 125.2607
835.2280, 151.1816
836.3650, 25.27441
837.5010, 147.0000
838.6360, 63.62891
839.7720, 135.1572
840.9080, 99.58887
842.0430, 121.9209
843.1780, 225.1553
844.3130, 19.70605
845.4480, 112.3135
846.5830, 83.23438
847.7170, 147.0547
848.8520, 113.7754
849.9860, 190.3955
851.1200, 122.9443
852.2540, 293.3770
853.3870, 115.4160
854.5210, 271.1826
855.6540, 106.6230
856.7880, 116.4482
857.9210, 273.1992
859.0540, 177.1543
860.1860, 186.7900
861.3190, 232.0840
862.4510, 105.7832
863.5840, 221.3018
864.7160, 65.83008
865.8480, 195.3662
866.9790, 147.6934
868.1110, 141.1025
869.2420, 183.9072
870.3740, 128.0205
871.5050, 163.5195
872.6360, 172.5146
873.7660, 116.0469
874.8970, 203.1328
876.0280, 205.5439
877.1580, 204.3691
878.2880, 95.68555
879.4180, 111.5654
880.5480, 131.8232
881.6770, 32.16016
882.8070, 267.7217
883.9360, 129.8047
885.0650, 175.7793
886.1940, 207.6074
887.3230, 120.5342
888.4520, 222.2217
889.5800, 65.86719
890.7090, 131.6543
891.8370, 235.1357
892.9650, 52.89258
894.0930, 188.8818
895.2200, 81.96484
896.3480, 157.8770
897.4750, 222.7822
898.6020, 177.3867
899.7290, 84.97266
900.8560, 168.1670
901.9830, 157.7119
903.1090, 16.94824
904.2360, 157.4580
905.3620, 60.58105
906.4880, 71.39648
907.6140, 119.1211
908.7400, 148.7148
909.8650, 110.6377
910.9900, 116.0508
912.1160, 60.64258
913.2410, 54.54785
914.3660, 72.29004
915.4900, 4.473633
916.6150, 107.2773
917.7390, 24.91406
918.8640, 204.1895
919.9880, 94.90723
921.1120, 72.58887
922.2350, 22.13574
923.3590, 111.1416
924.4820, 9.870117
925.6060, 113.6436
926.7290, 75.63867
927.8520, 14.39355
928.9740, 104.6064
930.0970, 148.1895
931.2190, 227.8193
932.3420, 183.4502
933.4640, 51.67480
934.5860, 17.09180
935.7080, 23.14746
936.8290, 26.16211
937.9510, 62.86133
939.0720, 76.53418
940.1930, 82.01758
941.3140, 104.3555
942.4350, 97.83301
943.5560, 84.09961
944.6760, 16.59766
945.7960, 73.52148
946.9170, 150.0889
948.0370, 118.3242
949.1560, 15.29590
950.2760, 244.0371
951.3960, 150.6660
952.5150, 192.6816
953.6340, 36.12402
954.7530, 31.22266
955.8720, 0.9892580
956.9910, 86.03320
958.1090, 25.27832
959.2280, 54.99414
960.3460, 230.6641
961.4640, 227.6230
962.5820, 228.0068
963.6990, 171.4824
964.8170, 213.7529
965.9340, 232.2178
967.0510, 297.8223
968.1690, 386.6191
969.2850, 401.7881
970.4020, 322.2002
971.5190, 509.2744
972.6350, 548.8340
973.7510, 691.8867
974.8670, 1012.186
975.9830, 940.3760
977.0990, 993.4180
978.2150, 888.8770
979.3300, 1046.603
980.4450, 944.3008
981.5600, 857.7559
982.6750, 600.4795
983.7900, 603.8711
984.9050, 364.4844
986.0190, 377.4785
987.1340, 203.3301
988.2480, 243.3369
989.3620, 296.9053
990.4750, 179.6914
991.5890, 171.1230
992.7020, 21.04004
993.8160, 103.3740
994.9290, 147.5029
996.0420, 99.60840
997.1550, 26.05957
998.2670, 24.35547
999.3800, 71.38770
1000.492, 4.039063
1001.604, 147.6191
1002.716, 9.036133
1003.828, 132.5576
1004.940, 12.16895
1006.051, 98.12695
1007.163, 61.30078
1008.274, 107.2783
1009.385, 196.9346
1010.496, 123.6045
1011.606, 310.4805
1012.717, 300.2510
1013.827, 127.4961
1014.937, 194.9219
1016.047, 385.6064
1017.157, 563.9365
1018.267, 566.6572
1019.377, 569.3740
1020.486, 634.7012
1021.595, 666.1602
1022.704, 513.0029
1023.813, 499.5361
1024.922, 389.3340
1026.030, 292.3623
1027.139, 198.9648
1028.247, 133.9775
1029.355, 108.2900
1030.463, 115.7324
1031.571, 102.8447
1032.678, 222.1572
1033.786, 138.3955
1034.893, 48.44141
1036.000, 55.84277
1037.107, 111.4814
1038.214, 88.67773
1039.321, 145.3486
1040.427, 150.5635
1041.533, 145.9043
1042.639, 187.9551
1043.745, 167.7402
1044.851, 88.18359
1045.957, 20.10059
1047.062, 24.44238
1048.168, 88.66895
1049.273, 133.5293
1050.378, 4.106445
1051.482, 215.6611
1052.587, 295.3887
1053.692, 102.0664
1054.796, 230.7402
1055.900, 278.3848
1057.004, 274.9473
1058.108, 286.1680
1059.212, 320.0703
1060.315, 397.4004
1061.418, 291.2812
1062.522, 453.3652
1063.625, 199.3672
1064.728, 465.5137
1065.830, 491.5996
1066.933, 729.3809
1068.035, 622.9648
1069.137, 648.2324
1070.239, 922.5664
1071.341, 965.5781
1072.443, 1067.555
1073.545, 1186.982
1074.646, 897.2441
1075.747, 970.5078
1076.848, 875.6680
1077.949, 656.7676
1079.050, 528.4043
1080.150, 451.4746
1081.251, 403.5254
1082.351, 370.3066
1083.451, 379.0898
1084.551, 332.9160
1085.651, 296.0645
1086.750, 201.7754
1087.850, 227.5879
1088.949, 230.8750
1090.048, 269.6367
1091.147, 244.1797
1092.246, 272.1445
1093.345, 75.44531
1094.443, 241.5059
1095.541, 123.3438
1096.639, 228.3008
1097.737, 29.49219
1098.835, 318.6328
1099.933, 363.5469
1101.030, 190.1113
1102.128, 155.1855
1103.225, 111.7520
1104.322, 175.0742
1105.419, 190.2051
1106.515, 203.5742
1107.612, 94.89844
1108.708, 327.7148
1109.804, 105.1426
1110.900, 245.6445
1111.996, 163.6543
1113.092, 158.8672
1114.187, 92.74414
1115.283, 141.6523
1116.378, 176.3750
1117.473, 21.36328
1118.568, 155.0312
1119.662, 245.0098
1120.757, 152.8340
1121.851, 367.2188
1122.946, 99.74609
1124.040, 124.7383
1125.134, 11.62109
1126.227, 44.59570
1127.321, 0.0000000E+00
##END=



