##NAMES=Spodumene
##RRUFFID=R040050
##IDEAL CHEMISTRY=LiAlSi_2_O_6_
##LOCALITY=Minas Gerais, Brazil
##OWNER=RRUFF
##SOURCE=University of Arizona Mineral Museum
##DESCRIPTION=Pale pink fragment of a single crystal, variety kunzite
##STATUS=The identification of this mineral has been confirmed by X-ray diffraction and chemical analysis
##URL=rruff.info/R040050
##MEASURED CHEMISTRY=(Li_0.99_Na_0.01_)Al_1.00_Si_2.00_O_6_
##PIN_ID=L00321
##ORIENTATION=Laser parallel to (1 0 1). Fiducial mark perpendicular to laser is parallel to b [0 1 0]
106.7660, 0.0000000E+00
108.0020, 1.795410
109.2390, 8.280762
110.4750, 61.07373
111.7110, 7.152832
112.9460, 34.64746
114.1820, 142.4355
115.4170, 148.8491
116.6530, 213.3413
117.8880, 274.4863
119.1230, 339.1763
120.3580, 480.6587
121.5920, 528.5996
122.8270, 677.5254
124.0610, 830.2271
125.2950, 1223.555
126.5290, 1553.403
127.7630, 2013.687
128.9970, 2315.344
130.2300, 2633.323
131.4640, 2575.587
132.6970, 2197.523
133.9300, 1546.001
135.1630, 1152.250
136.3950, 780.4033
137.6280, 669.4883
138.8600, 412.5293
140.0920, 385.5469
141.3240, 310.5547
142.5560, 162.5649
143.7880, 191.5869
145.0190, 133.6226
146.2510, 128.6748
147.4820, 123.7446
148.7130, 127.8350
149.9440, 116.9497
151.1750, 104.0908
152.4050, 86.26123
153.6360, 79.46240
154.8660, 86.69629
156.0960, 55.96338
157.3260, 19.26514
158.5560, 163.7505
159.7850, 43.14062
161.0150, 177.1724
162.2440, 157.6323
163.4730, 67.96094
164.7020, 118.3823
165.9310, 126.8979
167.1590, 137.5073
168.3880, 128.2163
169.6160, 55.02539
170.8440, 66.92871
172.0720, 64.17676
173.3000, 35.98926
174.5280, 116.1382
175.7550, 109.3613
176.9820, 174.6548
178.2100, 156.0146
179.4370, 157.4370
180.6630, 256.9043
181.8900, 336.3735
183.1170, 358.8579
184.3430, 472.3672
185.5690, 646.9043
186.7950, 704.4741
188.0210, 842.0776
189.2470, 769.7168
190.4720, 649.3931
191.6970, 504.1064
192.9230, 508.8569
194.1480, 276.6455
195.3730, 275.4761
196.5970, 293.3496
197.8220, 211.2588
199.0460, 142.2021
200.2700, 120.1782
201.4940, 22.18652
202.7180, 108.2266
203.9420, 80.29736
205.1660, 5.398438
206.3890, 32.52783
207.6120, 9.683594
208.8350, 60.13965
210.0580, 101.9404
211.2810, 136.7114
212.5040, 20.45361
213.7260, 52.83350
214.9480, 75.83203
216.1700, 73.44189
217.3920, 74.01416
218.6140, 79.47412
219.8360, 77.03564
221.0570, 143.6636
222.2790, 35.34229
223.5000, 115.1030
224.7210, 232.9590
225.9410, 310.8799
227.1620, 491.8770
228.3820, 518.0410
229.6030, 380.3169
230.8230, 540.6699
232.0430, 314.0151
233.2630, 252.3096
234.4820, 144.6011
235.7020, 112.8467
236.9210, 93.08545
238.1400, 198.3320
239.3590, 95.58105
240.5780, 295.8306
241.7970, 174.0825
243.0150, 377.3340
244.2340, 405.5874
245.4520, 608.8398
246.6700, 657.0928
247.8880, 908.3442
249.1060, 1190.596
250.3230, 1349.845
251.5400, 1290.094
252.7580, 1366.340
253.9750, 1391.571
255.1920, 1488.657
256.4080, 1380.657
257.6250, 1365.815
258.8410, 1276.102
260.0580, 1242.496
261.2740, 1179.981
262.4900, 1069.149
263.7050, 913.1812
264.9210, 804.8770
266.1360, 686.6304
267.3520, 470.4336
268.5670, 425.2832
269.7820, 304.1709
270.9960, 283.0972
272.2110, 223.0566
273.4250, 299.0493
274.6400, 225.0703
275.8540, 242.1191
277.0680, 174.1924
278.2810, 238.2886
279.4950, 286.4058
280.7090, 354.6318
281.9220, 306.0142
283.1350, 356.4233
284.3480, 518.8594
285.5610, 610.2124
286.7730, 889.3955
287.9860, 1054.588
289.1980, 1285.789
290.4100, 1595.998
291.6220, 1819.215
292.8340, 2222.441
294.0460, 2632.674
295.2570, 2969.916
296.4690, 3121.165
297.6800, 3211.420
298.8910, 3209.684
300.1020, 2956.952
301.3120, 2486.229
302.5230, 1939.510
303.7330, 1481.797
304.9440, 1089.015
306.1540, 709.1631
307.3630, 499.2871
308.5730, 399.3574
309.7830, 327.4365
310.9920, 204.5254
312.2010, 144.7158
313.4100, 60.40137
314.6190, 128.5137
315.8280, 164.1719
317.0370, 194.7295
318.2450, 218.0713
319.4530, 237.6689
320.6610, 272.5254
321.8690, 405.5000
323.0770, 499.8125
324.2850, 569.7461
325.4920, 645.9795
326.6990, 712.9443
327.9060, 862.3652
329.1130, 810.4541
330.3200, 786.4658
331.5270, 760.1621
332.7330, 548.4473
333.9390, 380.0420
335.1450, 460.7266
336.3510, 239.5273
337.5570, 284.8750
338.7630, 441.6982
339.9680, 295.8984
341.1740, 397.1104
342.3790, 553.6572
343.5840, 740.8613
344.7890, 1230.516
345.9930, 1570.508
347.1980, 2100.988
348.4020, 2458.248
349.6060, 3302.100
350.8100, 4120.096
352.0140, 5420.604
353.2180, 6500.540
354.4210, 7768.527
355.6250, 8201.190
356.8280, 7433.656
358.0310, 6107.857
359.2340, 4653.554
360.4360, 3316.472
361.6390, 2540.439
362.8410, 1787.415
364.0430, 1409.028
365.2450, 995.2939
366.4470, 854.1104
367.6490, 623.3652
368.8510, 481.7148
370.0520, 506.9658
371.2530, 390.2109
372.4540, 497.4463
373.6550, 428.6738
374.8560, 377.9014
376.0560, 454.1201
377.2570, 480.9248
378.4570, 741.5264
379.6570, 701.7119
380.8570, 776.8857
382.0570, 975.0449
383.2560, 1334.195
384.4560, 1290.334
385.6550, 1413.460
386.8540, 1444.573
388.0530, 1658.684
389.2520, 1811.784
390.4510, 2056.879
391.6490, 2362.964
392.8470, 2693.038
394.0450, 2829.096
395.2430, 2614.141
396.4410, 2004.170
397.6390, 1606.187
398.8360, 1198.197
400.0340, 868.1982
401.2310, 648.1904
402.4280, 512.1699
403.6250, 477.1416
404.8210, 399.0977
406.0180, 258.0410
407.2140, 247.9707
408.4100, 239.8848
409.6060, 290.2637
410.8020, 301.5537
411.9980, 355.7559
413.1930, 376.7236
414.3890, 450.0820
415.5840, 498.4453
416.7790, 476.7881
417.9740, 484.3496
419.1680, 403.4648
420.3630, 392.2041
421.5570, 310.1035
422.7510, 199.2715
423.9450, 117.3750
425.1390, 84.64551
426.3330, 82.71680
427.5270, 80.68750
428.7200, 104.6514
429.9130, 286.3018
431.1060, 164.8496
432.2990, 354.3740
433.4920, 363.8770
434.6840, 444.3584
435.8770, 451.8174
437.0690, 624.2539
438.2610, 921.6660
439.4530, 907.0566
440.6450, 1230.424
441.8360, 1208.768
443.0280, 1211.089
444.2190, 1178.384
445.4100, 1072.656
446.6010, 891.9043
447.7920, 838.1260
448.9820, 725.3232
450.1730, 542.4980
451.3630, 467.6475
452.5530, 230.7734
453.7430, 249.8740
454.9330, 166.9492
456.1230, 52.00098
457.3120, 205.0225
458.5010, 66.02051
459.6910, 92.99023
460.8800, 148.0889
462.0680, 90.05469
463.2570, 31.46191
464.4460, 17.13672
465.6340, 11.74316
466.8220, 28.35059
468.0100, 15.32812
469.1980, 143.1064
470.3860, 35.42480
471.5730, 64.10254
472.7600, 1.259766
473.9480, 98.60449
475.1350, 34.17969
476.3210, 128.0312
477.5080, 109.4971
478.6950, 57.20410
479.8810, 1.838867
481.0670, 9.011719
482.2530, 62.47461
483.4390, 26.54199
484.6250, 15.42871
485.8100, 77.65723
486.9960, 13.43555
488.1810, 10.08496
489.3660, 113.2383
490.5510, 125.4883
491.7360, 7.335938
492.9200, 55.21582
494.1050, 31.41602
495.2890, 85.52051
496.4730, 8.086914
497.6570, 158.5195
498.8400, 8.844727
500.0240, 22.50098
501.2070, 159.6465
502.3910, 165.7578
503.5740, 188.7930
504.7570, 181.9600
505.9400, 186.9316
507.1220, 284.3252
508.3050, 140.6104
509.4870, 336.7734
510.6690, 252.0859
511.8510, 451.0537
513.0330, 405.2217
514.2140, 641.0977
515.3960, 703.0830
516.5770, 920.5898
517.7580, 1109.287
518.9390, 1224.939
520.1200, 1412.633
521.3010, 1544.721
522.4810, 1671.229
523.6610, 1715.187
524.8420, 1345.777
526.0220, 1261.068
527.2010, 1054.652
528.3810, 661.5840
529.5610, 766.0371
530.7400, 531.2549
531.9190, 386.5098
533.0980, 494.9639
534.2770, 378.3975
535.4560, 422.9580
536.6340, 427.8750
537.8120, 366.1611
538.9910, 442.4531
540.1690, 515.3398
541.3460, 514.4092
542.5240, 535.1064
543.7020, 455.1982
544.8790, 509.9463
546.0560, 338.8623
547.2330, 359.8652
548.4100, 414.8438
549.5870, 322.6475
550.7630, 205.4150
551.9400, 257.1367
553.1160, 207.8145
554.2920, 294.4502
555.4680, 198.0449
556.6440, 193.5947
557.8190, 159.0967
558.9950, 244.5703
560.1700, 172.9980
561.3450, 344.3818
562.5200, 286.7285
563.6950, 219.0312
564.8690, 230.2910
566.0440, 186.4111
567.2180, 229.3428
568.3920, 249.2080
569.5660, 340.0098
570.7400, 226.8594
571.9130, 356.8428
573.0870, 494.7842
574.2600, 440.6787
575.4330, 587.5283
576.6060, 704.3330
577.7790, 747.0908
578.9520, 763.8066
580.1240, 1005.475
581.2960, 1050.097
582.4690, 1230.673
583.6410, 1231.199
584.8120, 1226.683
585.9840, 1352.119
587.1560, 1386.511
588.3270, 1128.855
589.4980, 1310.152
590.6690, 1091.570
591.8400, 1041.775
593.0110, 1017.934
594.1810, 810.0439
595.3510, 715.1064
596.5220, 495.5693
597.6920, 491.0762
598.8610, 464.5557
600.0310, 454.4912
601.2010, 319.1680
602.3700, 344.9307
603.5390, 233.2256
604.7080, 227.2227
605.8770, 100.1113
607.0460, 157.0273
608.2140, 300.6133
609.3830, 108.7773
610.5510, 212.7041
611.7190, 169.6016
612.8870, 173.7451
614.0550, 166.9648
615.2220, 191.4795
616.3900, 175.9482
617.5570, 107.7871
618.7240, 141.1104
619.8910, 102.7549
621.0580, 38.22754
622.2240, 61.01074
623.3910, 137.9404
624.5570, 160.1328
625.7230, 144.2070
626.8890, 75.55371
628.0550, 211.8965
629.2200, 110.1953
630.3860, 100.3691
631.5510, 207.3613
632.7160, 58.03613
633.8810, 35.12109
635.0460, 10.15332
636.2100, 86.64746
637.3750, 105.4697
638.5390, 86.79688
639.7030, 25.15137
640.8670, 112.1230
642.0310, 111.7490
643.1950, 51.59668
644.3580, 87.30371
645.5210, 127.5732
646.6850, 11.19434
647.8480, 42.31641
649.0100, 55.21094
650.1730, 29.97852
651.3350, 23.15332
652.4980, 38.84180
653.6600, 90.94238
654.8220, 56.34668
655.9840, 34.31836
657.1450, 109.6113
658.3070, 112.1484
659.4680, 94.09766
660.6300, 230.9385
661.7910, 122.9668
662.9510, 245.9951
664.1120, 86.60352
665.2730, 156.6846
666.4330, 78.27832
667.5930, 226.1279
668.7530, 23.17188
669.9130, 141.5479
671.0730, 21.35059
672.2320, 67.51172
673.3920, 63.14941
674.5510, 262.6943
675.7100, 168.1611
676.8690, 309.7764
678.0280, 60.98145
679.1860, 149.1357
680.3450, 361.6543
681.5030, 177.0439
682.6610, 312.7412
683.8190, 148.7061
684.9770, 383.1318
686.1340, 311.2080
687.2920, 307.8320
688.4490, 529.3154
689.6060, 537.5049
690.7630, 412.8262
691.9200, 835.7246
693.0760, 768.0586
694.2330, 897.3115
695.3890, 1157.742
696.5450, 1427.365
697.7010, 1777.453
698.8570, 2173.882
700.0130, 2757.983
701.1680, 3474.639
702.3230, 4292.549
703.4780, 5234.226
704.6330, 6198.021
705.7880, 7465.513
706.9430, 7948.998
708.0970, 7778.775
709.2520, 6830.803
710.4060, 5817.844
711.5600, 4390.483
712.7140, 3265.693
713.8670, 2345.682
715.0210, 2114.175
716.1740, 1563.940
717.3270, 1321.101
718.4800, 1010.467
719.6330, 752.1123
720.7860, 771.0293
721.9380, 546.0039
723.0910, 703.0830
724.2430, 489.2861
725.3950, 482.7051
726.5470, 384.7510
727.6980, 421.1396
728.8500, 314.5586
730.0010, 401.3711
731.1530, 412.5127
732.3040, 385.1104
733.4550, 388.5801
734.6050, 226.2090
735.7560, 326.6357
736.9060, 232.4170
738.0560, 223.3301
739.2060, 299.0176
740.3560, 321.0586
741.5060, 365.3652
742.6560, 360.8896
743.8050, 109.8896
744.9540, 250.0967
746.1030, 168.7529
747.2520, 51.44531
748.4010, 177.5566
749.5500, 61.40918
750.6980, 189.8955
751.8460, 177.2266
752.9950, 170.2354
754.1420, 83.64941
755.2900, 275.8662
756.4380, 181.3223
757.5850, 302.6104
758.7330, 199.9131
759.8800, 237.6104
761.0270, 98.87402
762.1730, 259.0254
763.3200, 194.3047
764.4670, 197.6748
765.6130, 77.30273
766.7590, 239.0459
767.9050, 142.4941
769.0510, 226.1797
770.1960, 164.7832
771.3420, 214.3633
772.4870, 108.7051
773.6320, 121.2090
774.7770, 224.2676
775.9220, 199.8965
777.0670, 264.8105
778.2110, 236.3633
779.3560, 314.5430
780.5000, 298.8457
781.6440, 235.4609
782.7880, 407.2285
783.9320, 499.0410
785.0750, 403.2480
786.2180, 418.5918
787.3620, 367.4531
788.5050, 404.9648
789.6480, 192.3516
790.7900, 153.5098
791.9330, 306.8828
793.0750, 70.81055
794.2170, 146.2207
795.3590, 227.6953
796.5010, 124.2012
797.6430, 136.7188
798.7850, 78.23633
799.9260, 64.39258
801.0670, 152.8125
802.2080, 48.30859
803.3490, 127.8047
804.4900, 57.46289
805.6310, 80.33984
806.7710, 63.80469
807.9110, 207.9688
809.0510, 244.9336
810.1910, 283.5586
811.3310, 291.2246
812.4710, 296.9609
813.6100, 248.3438
814.7490, 94.63086
815.8880, 92.09961
817.0270, 31.16016
818.1660, 252.8984
819.3050, 165.8691
820.4430, 7.322266
821.5820, 206.2793
822.7200, 10.63867
823.8580, 134.1465
824.9950, 154.4629
826.1330, 20.33594
827.2710, 290.1523
828.4080, 189.7109
829.5450, 45.95508
830.6820, 114.7715
831.8190, 200.3672
832.9560, 134.2070
834.0920, 45.95312
835.2280, 200.6445
836.3650, 12.16211
837.5010, 15.59375
838.6360, 79.93750
839.7720, 62.19531
840.9080, 45.36914
842.0430, 52.45703
843.1780, 299.4629
844.3130, 234.3906
845.4480, 244.2422
846.5830, 117.0527
847.7170, 70.78125
848.8520, 413.4258
849.9860, 192.9941
851.1200, 296.4863
852.2540, 215.8984
853.3870, 106.2441
854.5210, 280.9609
855.6540, 199.9863
856.7880, 358.4707
857.9210, 329.4980
859.0540, 63.64844
860.1860, 251.4648
861.3190, 184.8145
862.4510, 259.0195
863.5840, 162.6035
864.7160, 140.3184
865.8480, 270.0625
866.9790, 176.4785
868.1110, 291.2734
869.2420, 156.3555
870.3740, 164.6035
871.5050, 284.1289
872.6360, 76.00586
873.7660, 135.3105
874.8970, 172.5098
876.0280, 57.94336
877.1580, 218.3906
878.2880, 21.92578
879.4180, 30.36914
880.5480, 189.6836
881.6770, 122.5059
882.8070, 213.6309
883.9360, 181.3184
885.0650, 302.6094
886.1940, 328.3418
887.3230, 361.5410
888.4520, 177.6133
889.5800, 86.57812
890.7090, 345.0996
891.8370, 202.3535
892.9650, 257.1348
894.0930, 208.3457
895.2200, 215.5566
896.3480, 122.2559
897.4750, 242.6133
898.6020, 217.8359
899.7290, 163.5586
900.8560, 266.8379
901.9830, 31.17578
903.1090, 18.10352
904.2360, 46.04883
905.3620, 134.8984
906.4880, 120.7578
907.6140, 37.01172
908.7400, 124.9805
909.8650, 95.62891
910.9900, 46.02148
912.1160, 99.95898
913.2410, 16.39258
914.3660, 59.12695
915.4900, 221.8301
916.6150, 7.388672
917.7390, 2.369141
918.8640, 75.33398
919.9880, 84.96094
921.1120, 68.19531
922.2350, 14.99414
923.3590, 22.37305
924.4820, 61.68164
925.6060, 52.19531
926.7290, 47.45312
927.8520, 74.25391
928.9740, 59.96289
930.0970, 20.93359
931.2190, 57.84180
932.3420, 114.8340
933.4640, 232.4727
934.5860, 189.7852
935.7080, 40.95703
936.8290, 179.4121
937.9510, 161.2617
939.0720, 25.53711
940.1930, 48.27148
941.3140, 55.89648
942.4350, 65.21875
943.5560, 75.95703
944.6760, 174.2344
945.7960, 80.61133
946.9170, 70.95703
948.0370, 17.25781
949.1560, 82.28320
950.2760, 45.59961
951.3960, 25.16406
952.5150, 168.5762
953.6340, 19.31836
954.7530, 89.59766
955.8720, 7.523438
956.9910, 242.7598
958.1090, 2.740234
959.2280, 110.0840
960.3460, 227.9219
961.4640, 218.9297
962.5820, 57.41211
963.6990, 85.19922
964.8170, 15.21680
965.9340, 192.5508
967.0510, 353.1777
968.1690, 334.4629
969.2850, 484.0117
970.4020, 669.4512
971.5190, 702.9395
972.6350, 796.0938
973.7510, 893.8320
974.8670, 1010.389
975.9830, 1140.729
977.0990, 1159.051
978.2150, 1236.406
979.3300, 1160.418
980.4450, 940.8711
981.5600, 792.2598
982.6750, 756.3867
983.7900, 598.0801
984.9050, 436.0664
986.0190, 468.9648
987.1340, 438.2988
988.2480, 249.2871
989.3620, 155.9492
990.4750, 265.2090
991.5890, 397.0801
992.7020, 83.76953
993.8160, 22.76172
994.9290, 218.4629
996.0420, 232.3477
997.1550, 122.4902
998.2670, 85.16602
999.3800, 243.1309
1000.492, 102.5996
1001.604, 231.3477
1002.716, 143.7441
1003.828, 322.1152
1004.940, 423.4648
1006.051, 528.2617
1007.163, 363.5938
1008.274, 345.2578
1009.385, 394.4414
1010.496, 456.5762
1011.606, 513.8535
1012.717, 716.1582
1013.827, 775.9316
1014.937, 1034.793
1016.047, 1189.141
1017.157, 1535.908
1018.267, 1746.842
1019.377, 2059.227
1020.486, 1933.906
1021.595, 1871.145
1022.704, 1382.559
1023.813, 1221.516
1024.922, 741.4902
1026.030, 617.8047
1027.139, 353.2930
1028.247, 253.4980
1029.355, 293.6152
1030.463, 267.2090
1031.571, 201.2695
1032.678, 236.0449
1033.786, 91.48047
1034.893, 255.2598
1036.000, 125.3398
1037.107, 220.1348
1038.214, 114.5469
1039.321, 61.39453
1040.427, 1.904297
1041.533, 152.1406
1042.639, 221.0098
1043.745, 135.3516
1044.851, 176.6484
1045.957, 74.64062
1047.062, 275.8730
1048.168, 373.0273
1049.273, 351.9746
1050.378, 481.5430
1051.482, 474.6348
1052.587, 565.8457
1053.692, 481.0781
1054.796, 459.7812
1055.900, 418.3105
1057.004, 464.7891
1058.108, 303.0234
1059.212, 541.6309
1060.315, 553.9766
1061.418, 777.1895
1062.522, 919.2891
1063.625, 1159.002
1064.728, 1632.035
1065.830, 1988.707
1066.933, 2282.232
1068.035, 2892.309
1069.137, 3864.975
1070.239, 4241.352
1071.341, 5058.863
1072.443, 5290.324
1073.545, 5370.705
1074.646, 4859.295
1075.747, 4129.836
1076.848, 3460.334
1077.949, 2965.785
1079.050, 2217.184
1080.150, 1705.412
1081.251, 1294.584
1082.351, 1212.689
1083.451, 1039.064
1084.551, 813.2793
1085.651, 513.4199
1086.750, 480.6660
1087.850, 458.1699
1088.949, 352.3301
1090.048, 473.5078
1091.147, 404.4238
1092.246, 336.7207
1093.345, 399.0371
1094.443, 173.2930
1095.541, 347.4902
1096.639, 343.6328
1097.737, 473.7109
1098.835, 704.7246
1099.933, 815.6641
1101.030, 840.5586
1102.128, 775.3984
1103.225, 1066.676
1104.322, 1161.809
1105.419, 765.9766
1106.515, 715.3633
1107.612, 446.8496
1108.708, 662.7285
1109.804, 294.4316
1110.900, 293.8672
1111.996, 125.5898
1113.092, 273.7266
1114.187, 252.1406
1115.283, 132.5273
1116.378, 85.88281
1117.473, 232.2832
1118.568, 19.33398
1119.662, 381.2090
1120.757, 326.7988
1121.851, 314.4375
1122.946, 505.1445
1124.040, 274.9004
1125.134, 189.6895
1126.227, 265.4336
1127.321, 194.8828
1128.414, 213.6680
1129.508, 264.1582
1130.601, 78.57812
1131.693, 74.99023
1132.786, 137.5410
1133.879, 84.15234
1134.971, 372.7891
1136.064, 196.7285
1137.156, 179.2598
1138.248, 261.7598
1139.339, 59.22266
1140.431, 211.6641
1141.522, 8.128906
1142.614, 431.7031
1143.705, 141.5234
1144.796, 9.787109
1145.887, 140.0137
1146.977, 10.62500
1148.068, 0.5527340
1149.158, 57.43359
1150.248, 56.20898
1151.338, 22.92773
1152.428, 238.3887
1153.518, 204.6309
1154.607, 406.4395
1155.696, 327.2891
1156.785, 296.2148
1157.874, 199.7188
1158.963, 150.4551
1160.052, 106.4004
1161.141, 134.5059
1162.229, 62.38672
1163.317, 226.2207
1164.405, 281.7207
1165.493, 392.7344
1166.581, 343.7500
1167.668, 405.0410
1168.756, 269.2891
1169.843, 373.7324
1170.930, 212.5078
1172.017, 66.37891
1173.103, 2.199219
1174.190, 88.71094
1175.276, 5.511719
1176.363, 0.0000000E+00
##END=



