##NAMES=Spodumene
##RRUFFID=R040050
##IDEAL CHEMISTRY=LiAlSi_2_O_6_
##LOCALITY=Minas Gerais, Brazil
##OWNER=RRUFF
##SOURCE=University of Arizona Mineral Museum
##DESCRIPTION=Pale pink fragment of a single crystal, variety kunzite
##STATUS=The identification of this mineral has been confirmed by X-ray diffraction and chemical analysis
##URL=rruff.info/R040050
##MEASURED CHEMISTRY=(Li_0.99_Na_0.01_)Al_1.00_Si_2.00_O_6_
##PIN_ID=L00235
##ORIENTATION=Laser parallel to a* (1 0 0). Fiducial mark perpendicular to laser is parallel to b [0 1 0]
131.4640, 0.0000000E+00
132.6970, 69.26892
133.9300, 57.43359
135.1630, 0.9117430
136.3950, 58.22949
137.6280, 9.736694
138.8600, 4.531006
140.0920, 28.55444
141.3240, 12.76257
142.5560, 36.11938
143.7880, 29.62646
145.0190, 27.96533
146.2510, 30.42322
147.4820, 21.77319
148.7130, 20.63403
149.9440, 16.57788
151.1750, 10.57031
152.4050, 24.58508
153.6360, 14.00085
154.8660, 4.779053
156.0960, 9.992310
157.3260, 42.25659
158.5560, 53.68860
159.7850, 56.20825
161.0150, 62.59167
162.2440, 46.85083
163.4730, 42.05688
164.7020, 35.28088
165.9310, 74.74268
167.1590, 64.33411
168.3880, 72.94067
169.6160, 65.26257
170.8440, 79.61218
172.0720, 35.69519
173.3000, 90.14331
174.5280, 33.84729
175.7550, 65.73914
176.9820, 46.10449
178.2100, 48.19897
179.4370, 72.20886
180.6630, 24.22925
181.8900, 85.49207
183.1170, 62.57947
184.3430, 56.59949
185.5690, 76.09900
186.7950, 90.87231
188.0210, 94.78137
189.2470, 98.71777
190.4720, 75.53503
191.6970, 92.31580
192.9230, 41.32483
194.1480, 70.29468
195.3730, 56.74988
196.5970, 62.95154
197.8220, 72.86816
199.0460, 54.33057
200.2700, 28.55762
201.4940, 78.82300
202.7180, 16.90454
203.9420, 13.34082
205.1660, 88.51831
206.3890, 57.92920
207.6120, 30.93945
208.8350, 40.85095
210.0580, 34.37048
211.2810, 48.81750
212.5040, 39.25403
213.7260, 37.67505
214.9480, 21.08167
216.1700, 29.47046
217.3920, 5.842407
218.6140, 6.653076
219.8360, 8.915405
221.0570, 25.32324
222.2790, 24.51550
223.5000, 22.48132
224.7210, 45.81763
225.9410, 36.07849
227.1620, 40.53760
228.3820, 10.14624
229.6030, 9.755005
230.8230, 39.60657
232.0430, 9.724731
233.2630, 53.73181
234.4820, 3.090088
235.7020, 5.411865
236.9210, 92.78271
238.1400, 41.93921
239.3590, 55.05884
240.5780, 32.04065
241.7970, 36.00305
243.0150, 73.94897
244.2340, 71.87976
245.4520, 65.79565
246.6700, 102.6921
247.8880, 110.5701
249.1060, 184.4236
250.3230, 138.3651
251.5400, 80.45483
252.7580, 117.6700
253.9750, 52.04028
255.1920, 5.005981
256.4080, 26.94067
257.6250, 44.90637
258.8410, 32.09766
260.0580, 22.97632
261.2740, 7.545654
262.4900, 0.6040040
263.7050, 28.33936
264.9210, 16.75195
266.1360, 39.14673
267.3520, 67.04370
268.5670, 11.17114
269.7820, 36.77222
270.9960, 35.80518
272.2110, 52.95361
273.4250, 50.86353
274.6400, 60.15649
275.8540, 24.42310
277.0680, 4.410156
278.2810, 11.28369
279.4950, 56.67871
280.7090, 24.75049
281.9220, 69.25513
283.1350, 61.86157
284.3480, 52.50244
285.5610, 92.13892
286.7730, 93.37427
287.9860, 125.2349
289.1980, 146.7188
290.4100, 165.0442
291.6220, 220.1562
292.8340, 202.1677
294.0460, 263.1694
295.2570, 280.0884
296.4690, 279.9858
297.6800, 278.8616
298.8910, 248.3044
300.1020, 176.5464
301.3120, 157.3523
302.5230, 125.2363
303.7330, 58.99487
304.9440, 100.7712
306.1540, 67.50610
307.3630, 108.4507
308.5730, 50.40039
309.7830, 82.40991
310.9920, 55.15918
312.2010, 47.14062
313.4100, 91.39819
314.6190, 43.61743
315.8280, 73.64478
317.0370, 10.51001
318.2450, 24.70117
319.4530, 61.89233
320.6610, 6.199707
321.8690, 66.72827
323.0770, 54.48511
324.2850, 16.59277
325.4920, 45.34497
326.6990, 88.37866
327.9060, 60.17139
329.1130, 79.89429
330.3200, 71.60669
331.5270, 22.13867
332.7330, 0.8703610
333.9390, 12.47803
335.1450, 1.070801
336.3510, 3.639648
337.5570, 20.11890
338.7630, 6.654785
339.9680, 102.1001
341.1740, 100.2612
342.3790, 82.79248
343.5840, 207.0413
344.7890, 217.8699
345.9930, 201.1484
347.1980, 370.6729
348.4020, 451.5779
349.6060, 601.8213
350.8100, 740.9678
352.0140, 901.2656
353.2180, 1080.490
354.4210, 1171.855
355.6250, 1196.044
356.8280, 1079.370
358.0310, 918.5649
359.2340, 690.4856
360.4360, 485.5188
361.6390, 372.6558
362.8410, 289.5583
364.0430, 245.2944
365.2450, 193.8018
366.4470, 125.4861
367.6490, 178.2363
368.8510, 91.45166
370.0520, 171.1411
371.2530, 179.7671
372.4540, 62.21558
373.6550, 57.49512
374.8560, 114.4861
376.0560, 122.5732
377.2570, 124.3799
378.4570, 135.8586
379.6570, 111.0930
380.8570, 126.8833
382.0570, 106.9192
383.2560, 109.9006
384.4560, 59.82422
385.6550, 99.28003
386.8540, 129.8862
388.0530, 171.9465
389.2520, 227.3550
390.4510, 249.9827
391.6490, 272.6208
392.8470, 308.0044
394.0450, 324.2192
395.2430, 352.6748
396.4410, 222.2112
397.6390, 190.5981
398.8360, 173.0686
400.0340, 120.8279
401.2310, 83.01147
402.4280, 69.29175
403.6250, 82.90771
404.8210, 36.83813
406.0180, 9.033936
407.2140, 88.51978
408.4100, 68.43188
409.6060, 17.82446
410.8020, 5.900391
411.9980, 33.98193
413.1930, 43.84082
414.3890, 20.50049
415.5840, 44.92407
416.7790, 25.63867
417.9740, 27.23169
419.1680, 8.687988
420.3630, 66.84668
421.5570, 48.26440
422.7510, 111.6348
423.9450, 0.1416020
425.1390, 50.01221
426.3330, 48.50415
427.5270, 37.61890
428.7200, 35.61572
429.9130, 38.22119
431.1060, 66.07324
432.2990, 62.24683
433.4920, 96.47852
434.6840, 143.5481
435.8770, 163.7024
437.0690, 161.7041
438.2610, 229.5483
439.4530, 268.3242
440.6450, 227.0186
441.8360, 258.6611
443.0280, 221.2434
444.2190, 243.7659
445.4100, 155.9407
446.6010, 204.3887
447.7920, 170.3538
448.9820, 174.7656
450.1730, 119.0554
451.3630, 112.3777
452.5530, 92.44385
453.7430, 3.264893
454.9330, 87.95923
456.1230, 16.16992
457.3120, 19.47607
458.5010, 59.63110
459.6910, 92.66821
460.8800, 11.53711
462.0680, 8.450928
463.2570, 64.19971
464.4460, 51.12500
465.6340, 86.05640
466.8220, 4.828613
468.0100, 75.58643
469.1980, 5.698730
470.3860, 51.58154
471.5730, 61.28784
472.7600, 58.15381
473.9480, 87.83276
475.1350, 34.36011
476.3210, 58.33228
477.5080, 56.93555
478.6950, 57.15405
479.8810, 73.52979
481.0670, 54.99121
482.2530, 70.15942
483.4390, 132.6663
484.6250, 37.60400
485.8100, 98.83398
486.9960, 32.93091
488.1810, 67.59912
489.3660, 19.97485
490.5510, 133.2302
491.7360, 42.68433
492.9200, 92.35913
494.1050, 50.82056
495.2890, 44.62036
496.4730, 16.79224
497.6570, 47.38428
498.8400, 25.35205
500.0240, 41.81714
501.2070, 101.6318
502.3910, 52.90234
503.5740, 33.08862
504.7570, 60.80444
505.9400, 95.88989
507.1220, 146.4778
508.3050, 114.0842
509.4870, 90.53052
510.6690, 212.9299
511.8510, 112.2256
513.0330, 110.7642
514.2140, 148.0352
515.3960, 204.0081
516.5770, 344.7866
517.7580, 291.3335
518.9390, 381.5886
520.1200, 367.8887
521.3010, 448.8223
522.4810, 412.0073
523.6610, 381.9446
524.8420, 324.7190
526.0220, 269.9287
527.2010, 170.7090
528.3810, 150.0098
529.5610, 182.9150
530.7400, 93.72705
531.9190, 149.4014
533.0980, 145.8936
534.2770, 82.55811
535.4560, 116.9771
536.6340, 53.53906
537.8120, 28.16455
538.9910, 57.66016
540.1690, 10.50537
541.3460, 118.7842
542.5240, 35.67041
543.7020, 12.58887
544.8790, 2.910156
546.0560, 69.44824
547.2330, 77.84814
548.4100, 123.1206
549.5870, 57.59863
550.7630, 79.07324
551.9400, 95.54102
553.1160, 21.45605
554.2920, 22.82080
555.4680, 78.25781
556.6440, 84.90088
557.8190, 86.66162
558.9950, 63.14941
560.1700, 86.29443
561.3450, 112.2710
562.5200, 120.3086
563.6950, 25.54590
564.8690, 100.8252
566.0440, 74.33203
567.2180, 28.24023
568.3920, 101.0850
569.5660, 109.8276
570.7400, 53.50537
571.9130, 105.1353
573.0870, 87.82520
574.2600, 64.44287
575.4330, 94.14600
576.6060, 64.98926
577.7790, 92.85791
578.9520, 121.6616
580.1240, 129.8218
581.2960, 140.8438
582.4690, 144.5415
583.6410, 150.7144
584.8120, 156.4448
585.9840, 233.4097
587.1560, 157.3599
588.3270, 211.6714
589.4980, 137.8237
590.6690, 124.9819
591.8400, 148.9023
593.0110, 142.7612
594.1810, 111.3696
595.3510, 87.90234
596.5220, 73.69580
597.6920, 84.65918
598.8610, 62.38525
600.0310, 110.9858
601.2010, 70.96533
602.3700, 70.99707
603.5390, 140.9961
604.7080, 95.08691
605.8770, 81.88428
607.0460, 98.33350
608.2140, 51.68457
609.3830, 0.1235350
610.5510, 73.93311
611.7190, 77.19336
612.8870, 49.42725
614.0550, 75.34961
615.2220, 51.90137
616.3900, 58.82471
617.5570, 27.14551
618.7240, 9.408691
619.8910, 0.9467770
621.0580, 14.29736
622.2240, 46.07568
623.3910, 64.37402
624.5570, 4.402832
625.7230, 90.56934
626.8890, 26.95557
628.0550, 43.77490
629.2200, 70.20264
630.3860, 89.16943
631.5510, 31.86719
632.7160, 2.952637
633.8810, 9.870605
635.0460, 8.103027
636.2100, 16.49072
637.3750, 5.433105
638.5390, 14.40283
639.7030, 4.539063
640.8670, 13.21143
642.0310, 1.413086
643.1950, 21.63525
644.3580, 13.97803
645.5210, 1.043457
646.6850, 100.8838
647.8480, 87.54736
649.0100, 93.38477
650.1730, 115.6538
651.3350, 74.15088
652.4980, 62.97266
653.6600, 116.8047
654.8220, 89.11963
655.9840, 121.8750
657.1450, 0.5200200
658.3070, 52.09961
659.4680, 32.14209
660.6300, 120.9502
661.7910, 26.43262
662.9510, 90.69873
664.1120, 99.19971
665.2730, 2.406250
666.4330, 34.62988
667.5930, 25.44824
668.7530, 52.30518
669.9130, 88.05811
671.0730, 109.4614
672.2320, 141.9482
673.3920, 89.19678
674.5510, 136.3975
675.7100, 90.50391
676.8690, 63.33691
678.0280, 81.85645
679.1860, 0.3081050
680.3450, 108.4136
681.5030, 151.4087
682.6610, 136.3892
683.8190, 120.9902
684.9770, 197.0869
686.1340, 128.8901
687.2920, 111.5059
688.4490, 138.1748
689.6060, 106.5903
690.7630, 172.4624
691.9200, 141.1929
693.0760, 168.9966
694.2330, 307.6924
695.3890, 388.6230
696.5450, 398.2437
697.7010, 426.8662
698.8570, 572.8916
700.0130, 705.3521
701.1680, 878.0679
702.3230, 1010.979
703.4780, 1246.347
704.6330, 1382.477
705.7880, 1518.691
706.9430, 1576.941
708.0970, 1461.972
709.2520, 1290.010
710.4060, 1159.805
711.5600, 837.0020
712.7140, 651.9824
713.8670, 568.9448
715.0210, 495.8555
716.1740, 364.5020
717.3270, 360.3735
718.4800, 208.9038
719.6330, 229.2163
720.7860, 315.3647
721.9380, 167.3535
723.0910, 260.5181
724.2430, 191.1958
725.3950, 158.5938
726.5470, 83.51025
727.6980, 98.83154
728.8500, 88.83643
730.0010, 76.54541
731.1530, 71.00586
732.3040, 98.11768
733.4550, 159.8857
734.6050, 25.21924
735.7560, 135.4980
736.9060, 162.5156
738.0560, 23.32568
739.2060, 166.5288
740.3560, 56.01465
741.5060, 32.26562
742.6560, 69.37061
743.8050, 113.9136
744.9540, 5.341309
746.1030, 137.8555
747.2520, 17.09131
748.4010, 182.2095
749.5500, 172.3247
750.6980, 4.649902
751.8460, 125.7324
752.9950, 114.4487
754.1420, 36.45605
755.2900, 98.09277
756.4380, 95.25195
757.5850, 26.86133
758.7330, 61.85986
759.8800, 165.0342
761.0270, 41.54639
762.1730, 106.9414
763.3200, 55.98535
764.4670, 11.45068
765.6130, 19.07959
766.7590, 165.0742
767.9050, 7.003906
769.0510, 135.9268
770.1960, 154.2725
771.3420, 41.09082
772.4870, 171.4844
773.6320, 157.6709
774.7770, 176.7686
775.9220, 120.8672
777.0670, 112.9297
778.2110, 90.21680
779.3560, 82.42285
780.5000, 110.5869
781.6440, 99.51270
782.7880, 35.41211
783.9320, 86.42676
785.0750, 4.378906
786.2180, 72.95312
787.3620, 171.9600
788.5050, 15.11621
789.6480, 39.93555
790.7900, 30.08691
791.9330, 155.3398
793.0750, 89.79785
794.2170, 118.1699
795.3590, 99.10254
796.5010, 220.3691
797.6430, 41.13086
798.7850, 90.15625
799.9260, 125.1299
801.0670, 54.89941
802.2080, 107.6279
803.3490, 86.45020
804.4900, 97.05469
805.6310, 93.52246
806.7710, 109.2129
807.9110, 87.54492
809.0510, 105.9453
810.1910, 142.2979
811.3310, 74.43555
812.4710, 114.2930
813.6100, 98.43164
814.7490, 130.7354
815.8880, 162.7148
817.0270, 176.7725
818.1660, 63.81934
819.3050, 15.94238
820.4430, 47.00488
821.5820, 49.65527
822.7200, 30.64746
823.8580, 269.4111
824.9950, 57.12207
826.1330, 46.32227
827.2710, 158.0186
828.4080, 13.31836
829.5450, 86.54590
830.6820, 101.5166
831.8190, 91.37305
832.9560, 160.0947
834.0920, 150.9951
835.2280, 44.04590
836.3650, 156.1064
837.5010, 104.9365
838.6360, 63.86133
839.7720, 334.5898
840.9080, 211.0830
842.0430, 148.9854
843.1780, 82.75195
844.3130, 186.2705
845.4480, 178.6650
846.5830, 164.0400
847.7170, 119.9717
848.8520, 137.1816
849.9860, 101.6455
851.1200, 132.7100
852.2540, 148.3975
853.3870, 104.8467
854.5210, 199.2148
855.6540, 241.0430
856.7880, 273.2637
857.9210, 296.5488
859.0540, 242.2168
860.1860, 345.9580
861.3190, 231.1738
862.4510, 253.2432
863.5840, 190.7588
864.7160, 174.4717
865.8480, 213.6982
866.9790, 281.5918
868.1110, 104.7520
869.2420, 130.8350
870.3740, 193.1357
871.5050, 172.1230
872.6360, 226.2578
873.7660, 234.3369
874.8970, 168.1807
876.0280, 279.7471
877.1580, 203.8926
878.2880, 265.8174
879.4180, 221.5195
880.5480, 215.3154
881.6770, 189.3809
882.8070, 189.0820
883.9360, 23.25488
885.0650, 198.8271
886.1940, 203.1670
887.3230, 6.704102
888.4520, 231.4697
889.5800, 117.6367
890.7090, 41.34375
891.8370, 253.0605
892.9650, 111.9189
894.0930, 214.5615
895.2200, 173.0234
896.3480, 110.5703
897.4750, 127.7725
898.6020, 96.69336
899.7290, 106.1152
900.8560, 95.17871
901.9830, 118.5098
903.1090, 138.8213
904.2360, 137.0527
905.3620, 45.33984
906.4880, 9.244141
907.6140, 119.2686
908.7400, 87.23242
909.8650, 192.3242
910.9900, 90.00879
912.1160, 184.4248
913.2410, 53.60254
914.3660, 120.5605
915.4900, 56.67285
916.6150, 76.49414
917.7390, 0.8486330
918.8640, 204.6621
919.9880, 247.5156
921.1120, 175.3018
922.2350, 8.748047
923.3590, 199.0527
924.4820, 52.44434
925.6060, 109.9326
926.7290, 112.2090
927.8520, 240.9746
928.9740, 76.35254
930.0970, 52.73633
931.2190, 175.9150
932.3420, 23.32129
933.4640, 68.27930
934.5860, 146.0127
935.7080, 59.76855
936.8290, 227.1064
937.9510, 97.53906
939.0720, 141.7568
940.1930, 231.0146
941.3140, 150.0342
942.4350, 42.98633
943.5560, 164.7275
944.6760, 183.4258
945.7960, 35.15527
946.9170, 162.4639
948.0370, 190.8154
949.1560, 67.98828
950.2760, 2.822266
951.3960, 42.83887
952.5150, 5.502930
953.6340, 83.25000
954.7530, 69.24805
955.8720, 18.38770
956.9910, 128.6113
958.1090, 164.3721
959.2280, 52.17188
960.3460, 108.9492
961.4640, 161.6660
962.5820, 87.70508
963.6990, 66.74805
964.8170, 98.35547
965.9340, 28.21387
967.0510, 45.36133
968.1690, 121.7676
969.2850, 314.0771
970.4020, 78.03027
971.5190, 92.25488
972.6350, 11.38086
973.7510, 180.2285
974.8670, 104.6436
975.9830, 51.93750
977.0990, 226.6328
978.2150, 72.88574
979.3300, 14.10059
980.4450, 70.24512
981.5600, 111.8320
982.6750, 153.0557
983.7900, 84.96582
984.9050, 21.88477
986.0190, 325.8389
987.1340, 123.3340
988.2480, 29.40332
989.3620, 146.6738
990.4750, 86.81641
991.5890, 319.2139
992.7020, 101.5352
993.8160, 134.3145
994.9290, 41.31445
996.0420, 147.7871
997.1550, 178.1211
998.2670, 30.55957
999.3800, 52.35352
1000.492, 4.849609
1001.604, 158.9570
1002.716, 180.2705
1003.828, 166.5449
1004.940, 102.1445
1006.051, 128.0762
1007.163, 189.7363
1008.274, 225.6982
1009.385, 222.8926
1010.496, 188.8008
1011.606, 199.8291
1012.717, 256.3867
1013.827, 251.1035
1014.937, 266.2500
1016.047, 248.8789
1017.157, 214.8320
1018.267, 273.8789
1019.377, 284.3027
1020.486, 317.9453
1021.595, 224.5215
1022.704, 191.4844
1023.813, 197.4512
1024.922, 232.0449
1026.030, 169.6543
1027.139, 118.0352
1028.247, 173.5605
1029.355, 224.2832
1030.463, 153.6016
1031.571, 322.0723
1032.678, 272.7812
1033.786, 360.4922
1034.893, 219.1328
1036.000, 111.3125
1037.107, 154.4004
1038.214, 276.7070
1039.321, 181.8887
1040.427, 284.6973
1041.533, 271.7812
1042.639, 170.6211
1043.745, 325.2871
1044.851, 13.42383
1045.957, 377.3379
1047.062, 344.8633
1048.168, 137.2812
1049.273, 249.7441
1050.378, 208.3848
1051.482, 124.4785
1052.587, 59.04102
1053.692, 121.0332
1054.796, 79.59570
1055.900, 187.6836
1057.004, 246.8926
1058.108, 168.1152
1059.212, 252.7637
1060.315, 205.6426
1061.418, 271.1309
1062.522, 242.9746
1063.625, 200.0449
1064.728, 101.8672
1065.830, 170.1953
1066.933, 282.9492
1068.035, 236.1836
1069.137, 153.8203
1070.239, 139.5410
1071.341, 310.5273
1072.443, 91.00781
1073.545, 209.0527
1074.646, 139.9785
1075.747, 107.5977
1076.848, 180.5820
1077.949, 161.3516
1079.050, 240.5820
1080.150, 113.4590
1081.251, 228.3516
1082.351, 150.1055
1083.451, 341.6074
1084.551, 280.4395
1085.651, 21.00391
1086.750, 170.3750
1087.850, 215.9199
1088.949, 23.50391
1090.048, 180.2930
1091.147, 121.1309
1092.246, 19.42773
1093.345, 107.8828
1094.443, 52.58594
1095.541, 68.94922
1096.639, 25.46484
1097.737, 207.2305
1098.835, 1.705078
1099.933, 200.0957
1101.030, 46.63477
1102.128, 3.7108999E-02
1103.225, 0.0000000E+00
##END=



