##NAMES=Spodumene
##RRUFFID=R040050
##IDEAL CHEMISTRY=LiAlSi_2_O_6_
##LOCALITY=Minas Gerais, Brazil
##OWNER=RRUFF
##SOURCE=University of Arizona Mineral Museum
##DESCRIPTION=Pale pink fragment of a single crystal, variety kunzite
##STATUS=The identification of this mineral has been confirmed by X-ray diffraction and chemical analysis
##URL=rruff.info/R040050
##MEASURED CHEMISTRY=(Li_0.99_Na_0.01_)Al_1.00_Si_2.00_O_6_
##PIN_ID=L00321
##ORIENTATION=Laser parallel to (1 0 1). Fiducial mark perpendicular to laser is parallel to b [0 1 0]
106.7660, 0.0000000E+00
108.0020, 2.279785
109.2390, 80.52295
110.4750, 2.389160
111.7110, 35.02002
112.9460, 189.9507
114.1820, 323.8472
115.4170, 507.7573
116.6530, 728.9541
117.8880, 930.9180
119.1230, 1272.268
120.3580, 1805.457
121.5920, 2077.651
122.8270, 2644.696
124.0610, 3266.381
125.2950, 4151.633
126.5290, 5248.345
127.7630, 6713.424
128.9970, 8026.807
130.2300, 8745.440
131.4640, 8065.285
132.6970, 6703.084
133.9300, 4980.373
135.1630, 3492.285
136.3950, 2297.892
137.6280, 1607.191
138.8600, 1232.504
140.0920, 901.4453
141.3240, 660.3838
142.5560, 391.6138
143.7880, 405.7759
145.0190, 320.8755
146.2510, 257.9204
147.4820, 72.92334
148.7130, 206.8916
149.9440, 78.83105
151.1750, 71.74658
152.4050, 107.6426
153.6360, 147.5215
154.8660, 36.38428
156.0960, 71.23535
157.3260, 41.07520
158.5560, 47.15283
159.7850, 8.394531
161.0150, 13.32617
162.2440, 1.586426
163.4730, 1.878906
164.7020, 34.08643
165.9310, 20.96875
167.1590, 36.96143
168.3880, 5.116699
169.6160, 31.96484
170.8440, 98.09424
172.0720, 138.7217
173.3000, 64.29639
174.5280, 104.3765
175.7550, 177.8125
176.9820, 304.7104
178.2100, 401.9902
179.4370, 450.2764
180.6630, 621.5615
181.8900, 655.8369
183.1170, 970.1245
184.3430, 1282.429
185.5690, 1631.762
186.7950, 2134.193
188.0210, 2301.651
189.2470, 2321.131
190.4720, 1886.640
191.6970, 1474.178
192.9230, 1137.734
194.1480, 780.3042
195.3730, 542.8872
196.5970, 446.4819
197.8220, 213.0864
199.0460, 255.7007
200.2700, 286.3242
201.4940, 228.9556
202.7180, 209.5938
203.9420, 192.6582
205.1660, 90.89062
206.3890, 128.5386
207.6120, 66.18213
208.8350, 9.827148
210.0580, 21.36426
211.2810, 16.57324
212.5040, 6.162109
213.7260, 1.877441
214.9480, 4.764160
216.1700, 29.12109
217.3920, 22.49512
218.6140, 11.87744
219.8360, 14.37354
221.0570, 14.86572
222.2790, 31.36328
223.5000, 16.86523
224.7210, 47.37256
225.9410, 69.96338
227.1620, 40.63770
228.3820, 33.38721
229.6030, 114.1396
230.8230, 33.09766
232.0430, 28.66846
233.2630, 62.56689
234.4820, 13.21387
235.7020, 70.02490
236.9210, 0.7065430
238.1400, 48.42627
239.3590, 8.132324
240.5780, 1.826660
241.7970, 66.50928
243.0150, 21.15723
244.2340, 43.68262
245.4520, 68.69971
246.6700, 54.83057
247.8880, 49.34668
249.1060, 77.85205
250.3230, 137.3066
251.5400, 154.7515
252.7580, 259.1924
253.9750, 168.1660
255.1920, 187.2124
256.4080, 143.7881
257.6250, 202.6152
258.8410, 269.3379
260.0580, 132.1064
261.2740, 109.3311
262.4900, 127.5527
263.7050, 62.90039
264.9210, 135.4941
266.1360, 90.76562
267.3520, 81.03809
268.5670, 184.3867
269.7820, 215.4443
270.9960, 105.8115
272.2110, 239.3486
273.4250, 67.71680
274.6400, 284.1016
275.8540, 97.70801
277.0680, 288.7852
278.2810, 261.8066
279.4950, 386.7969
280.7090, 426.8193
281.9220, 618.8066
283.1350, 711.7793
284.3480, 839.7461
285.5610, 1036.710
286.7730, 1254.666
287.9860, 1492.156
289.1980, 1750.557
290.4100, 2111.489
291.6220, 2537.413
292.8340, 3015.330
294.0460, 3309.239
295.2570, 3579.141
296.4690, 3363.033
297.6800, 3078.919
298.8910, 2463.796
300.1020, 1933.665
301.3120, 1376.526
302.5230, 1224.380
303.7330, 773.2256
304.9440, 617.6641
306.1540, 467.4561
307.3630, 290.2295
308.5730, 165.9717
309.7830, 152.6631
310.9920, 50.37793
312.2010, 129.5244
313.4100, 73.77930
314.6190, 122.7871
315.8280, 2.416992
317.0370, 138.0098
318.2450, 87.46387
319.4530, 30.25293
320.6610, 10.07324
321.8690, 94.36328
323.0770, 90.22656
324.2850, 196.5293
325.4920, 101.5537
326.6990, 296.2090
327.9060, 316.2920
329.1130, 435.3369
330.3200, 551.7881
331.5270, 562.6094
332.7330, 551.4873
333.9390, 659.3145
335.1450, 523.1904
336.3510, 560.6270
337.5570, 627.4893
338.7630, 807.9170
339.9680, 960.8184
341.1740, 1307.808
342.3790, 1517.273
343.5840, 2009.031
344.7890, 2788.779
345.9930, 3650.659
347.1980, 4447.316
348.4020, 5613.246
349.6060, 7004.080
350.8100, 8987.192
352.0140, 11590.12
353.2180, 14110.87
354.4210, 16399.03
355.6250, 16808.51
356.8280, 15024.13
358.0310, 12179.29
359.2340, 8674.447
360.4360, 6188.590
361.6390, 4409.693
362.8410, 3089.553
364.0430, 2336.640
365.2450, 1840.687
366.4470, 1463.760
367.6490, 1175.795
368.8510, 1005.837
370.0520, 881.8672
371.2530, 796.8857
372.4540, 563.8936
373.6550, 668.8916
374.8560, 406.8906
376.0560, 495.6504
377.2570, 323.6602
378.4570, 404.5645
379.6570, 358.5498
380.8570, 285.9404
382.0570, 299.5547
383.2560, 348.4980
384.4560, 372.3652
385.6550, 289.9873
386.8540, 368.8906
388.0530, 368.7793
389.2520, 468.6533
390.4510, 317.9629
391.6490, 353.8125
392.8470, 370.6455
394.0450, 412.4785
395.2430, 287.9766
396.4410, 328.0566
397.6390, 200.3213
398.8360, 87.08398
400.0340, 81.16211
401.2310, 61.31348
402.4280, 117.8809
403.6250, 132.3643
404.8210, 43.08887
406.0180, 60.23828
407.2140, 44.02441
408.4100, 44.83984
409.6060, 84.15039
410.8020, 93.17383
411.9980, 82.12598
413.1930, 156.6055
414.3890, 87.43750
415.5840, 51.14941
416.7790, 94.75586
417.9740, 93.45410
419.1680, 43.50781
420.3630, 171.8467
421.5570, 282.1641
422.7510, 307.4590
423.9450, 180.7344
425.1390, 376.9883
426.3330, 353.2207
427.5270, 312.4316
428.7200, 410.6221
429.9130, 398.7900
431.1060, 647.9375
432.2990, 868.0625
433.4920, 1016.167
434.6840, 1171.248
435.8770, 1449.309
437.0690, 1788.347
438.2610, 2040.362
439.4530, 2336.356
440.6450, 2571.328
441.8360, 2889.276
443.0280, 2724.203
444.2190, 2657.108
445.4100, 2424.988
446.6010, 2026.847
447.7920, 1673.682
448.9820, 1401.501
450.1730, 1105.297
451.3630, 855.0713
452.5530, 714.8203
453.7430, 561.5479
454.9330, 572.1348
456.1230, 440.8193
457.3120, 351.6455
458.5010, 277.2832
459.6910, 232.8232
460.8800, 289.5156
462.0680, 125.0859
463.2570, 150.4004
464.4460, 207.0293
465.6340, 89.53711
466.8220, 17.01953
468.0100, 49.51758
469.1980, 10.87793
470.3860, 35.50488
471.5730, 42.56348
472.7600, 39.73633
473.9480, 94.87500
475.1350, 14.85449
476.3210, 91.78418
477.5080, 79.14844
478.6950, 182.6367
479.8810, 80.48633
481.0670, 183.8076
482.2530, 69.55078
483.4390, 47.45020
484.6250, 72.95996
485.8100, 29.99707
486.9960, 77.77637
488.1810, 68.73047
489.3660, 92.65527
490.5510, 53.45215
491.7360, 74.70801
492.9200, 25.88770
494.1050, 54.22656
495.2890, 3.470703
496.4730, 23.37012
497.6570, 151.3096
498.8400, 9.222656
500.0240, 60.06641
501.2070, 27.52734
502.3910, 171.6816
503.5740, 223.9375
504.7570, 152.8271
505.9400, 278.9502
507.1220, 270.2861
508.3050, 233.0469
509.4870, 339.1846
510.6690, 403.4482
511.8510, 658.5586
513.0330, 669.4756
514.2140, 1040.491
515.3960, 1263.832
516.5770, 1235.360
517.7580, 1473.512
518.9390, 1799.712
520.1200, 2185.215
521.3010, 2314.244
522.4810, 2523.270
523.6610, 2330.680
524.8420, 1902.241
526.0220, 1620.172
527.2010, 1304.830
528.3810, 972.8906
529.5610, 923.0742
530.7400, 480.9434
531.9190, 496.5469
533.0980, 304.1465
534.2770, 336.9551
535.4560, 261.1963
536.6340, 99.28223
537.8120, 196.0039
538.9910, 148.7979
540.1690, 375.4629
541.3460, 187.7656
542.5240, 167.0078
543.7020, 63.13281
544.8790, 79.45215
546.0560, 256.7910
547.2330, 150.7256
548.4100, 232.6953
549.5870, 144.5625
550.7630, 161.1953
551.9400, 9.156250
553.1160, 161.1230
554.2920, 317.0068
555.4680, 180.1699
556.6440, 204.0059
557.8190, 223.6533
558.9950, 294.4482
560.1700, 314.2051
561.3450, 360.5371
562.5200, 359.7334
563.6950, 404.7803
564.8690, 502.7988
566.0440, 444.7559
567.2180, 646.7158
568.3920, 671.6484
569.5660, 673.5488
570.7400, 867.4238
571.9130, 970.2705
573.0870, 1026.087
574.2600, 1083.874
575.4330, 1526.629
576.6060, 1707.354
577.7790, 1915.047
578.9520, 2111.709
580.1240, 2429.696
581.2960, 2782.934
582.4690, 3103.500
583.6410, 3422.033
584.8120, 3548.371
585.9840, 3737.000
587.1560, 3632.437
588.3270, 3607.840
589.4980, 3434.209
590.6690, 2724.541
591.8400, 2723.841
593.0110, 2279.108
594.1810, 1842.344
595.3510, 1538.546
596.5220, 1376.715
597.6920, 1271.854
598.8610, 884.9854
600.0310, 879.0840
601.2010, 763.3008
602.3700, 639.7393
603.5390, 448.3760
604.7080, 489.0820
605.8770, 398.8633
607.0460, 399.4102
608.2140, 280.5410
609.3830, 249.3438
610.5510, 343.0693
611.7190, 123.8975
612.8870, 203.2266
614.0550, 208.0674
615.2220, 45.63086
616.3900, 185.6660
617.5570, 244.9902
618.7240, 209.8047
619.8910, 119.0703
621.0580, 22.31250
622.2240, 134.3789
623.3910, 90.54688
624.5570, 158.4629
625.7230, 285.1836
626.8890, 17.00977
628.0550, 91.82422
629.2200, 86.24414
630.3860, 181.6201
631.5510, 138.8809
632.7160, 38.98438
633.8810, 105.3662
635.0460, 56.99512
636.2100, 2.139648
637.3750, 177.3760
638.5390, 46.28027
639.7030, 78.85547
640.8670, 44.43652
642.0310, 77.71191
643.1950, 61.27734
644.3580, 41.39551
645.5210, 83.51758
646.6850, 31.68652
647.8480, 23.84375
649.0100, 68.46582
650.1730, 51.63965
651.3350, 109.9795
652.4980, 105.0400
653.6600, 76.06836
654.8220, 8.252930
655.9840, 39.01562
657.1450, 26.43359
658.3070, 130.1318
659.4680, 171.6299
660.6300, 53.29590
661.7910, 329.8838
662.9510, 197.7607
664.1120, 157.1670
665.2730, 62.78320
666.4330, 123.1826
667.5930, 260.2705
668.7530, 225.0723
669.9130, 367.4434
671.0730, 113.1777
672.2320, 112.6641
673.3920, 411.9365
674.5510, 186.2822
675.7100, 217.4922
676.8690, 369.2812
678.0280, 273.5400
679.1860, 463.0654
680.3450, 590.0830
681.5030, 396.5723
682.6610, 555.7256
683.8190, 637.2695
684.9770, 558.1514
686.1340, 811.3848
687.2920, 865.8008
688.4490, 1023.182
689.6060, 1093.709
690.7630, 1386.980
691.9200, 1567.754
693.0760, 1667.086
694.2330, 2151.688
695.3890, 2755.350
696.5450, 3380.569
697.7010, 4405.566
698.8570, 5536.294
700.0130, 7031.600
701.1680, 8570.633
702.3230, 10771.49
703.4780, 12871.09
704.6330, 15734.24
705.7880, 17877.56
706.9430, 18877.06
708.0970, 18394.88
709.2520, 15768.77
710.4060, 12787.58
711.5600, 9595.266
712.7140, 7408.066
713.8670, 5411.726
715.0210, 4252.678
716.1740, 3250.223
717.3270, 2659.799
718.4800, 2142.623
719.6330, 1854.367
720.7860, 1326.677
721.9380, 1329.957
723.0910, 1057.633
724.2430, 851.1611
725.3950, 880.6035
726.5470, 663.3467
727.6980, 654.9053
728.8500, 611.2236
730.0010, 753.0391
731.1530, 614.0332
732.3040, 588.0820
733.4550, 488.0225
734.6050, 506.7139
735.7560, 480.0225
736.9060, 524.1201
738.0560, 468.9102
739.2060, 289.9229
740.3560, 239.6602
741.5060, 106.6514
742.6560, 106.4111
743.8050, 135.8232
744.9540, 309.1709
746.1030, 294.2617
747.2520, 191.0430
748.4010, 287.7266
749.5500, 151.8516
750.6980, 269.0215
751.8460, 278.4766
752.9950, 22.71680
754.1420, 109.5859
755.2900, 280.9277
756.4380, 149.6016
757.5850, 136.1074
758.7330, 35.10156
759.8800, 163.4453
761.0270, 253.1250
762.1730, 281.0586
763.3200, 203.1348
764.4670, 97.95312
765.6130, 91.61328
766.7590, 143.1504
767.9050, 194.2539
769.0510, 296.6406
770.1960, 281.5918
771.3420, 295.9668
772.4870, 259.6797
773.6320, 241.6152
774.7770, 212.2051
775.9220, 152.3105
777.0670, 167.7480
778.2110, 211.4922
779.3560, 81.95508
780.5000, 67.30859
781.6440, 166.1484
782.7880, 173.1934
783.9320, 20.35938
785.0750, 111.5098
786.2180, 138.7500
787.3620, 238.3613
788.5050, 47.04102
789.6480, 169.6992
790.7900, 166.7129
791.9330, 122.6855
793.0750, 219.5000
794.2170, 279.3555
795.3590, 271.7539
796.5010, 157.6094
797.6430, 68.13281
798.7850, 19.56445
799.9260, 101.5391
801.0670, 6.800781
802.2080, 147.6367
803.3490, 5.191406
804.4900, 271.9004
805.6310, 100.5801
806.7710, 203.8125
807.9110, 108.1504
809.0510, 156.5508
810.1910, 196.4922
811.3310, 169.0898
812.4710, 188.1934
813.6100, 115.5605
814.7490, 89.98828
815.8880, 18.07422
817.0270, 195.8086
818.1660, 232.7422
819.3050, 56.63867
820.4430, 314.6602
821.5820, 239.0645
822.7200, 81.92188
823.8580, 160.3359
824.9950, 240.0273
826.1330, 105.6875
827.2710, 180.2129
828.4080, 35.78516
829.5450, 142.5742
830.6820, 173.8574
831.8190, 298.0664
832.9560, 176.2051
834.0920, 237.2695
835.2280, 98.26172
836.3650, 187.1758
837.5010, 241.0137
838.6360, 51.77930
839.7720, 82.46484
840.9080, 176.0703
842.0430, 124.6016
843.1780, 71.05469
844.3130, 219.4297
845.4480, 14.73633
846.5830, 16.96094
847.7170, 215.0996
848.8520, 173.1680
849.9860, 195.1562
851.1200, 112.0742
852.2540, 196.9102
853.3870, 176.6699
854.5210, 343.3555
855.6540, 110.9707
856.7880, 201.5039
857.9210, 196.0859
859.0540, 327.4707
860.1860, 110.9355
861.3190, 118.1699
862.4510, 272.3262
863.5840, 303.4082
864.7160, 348.0586
865.8480, 216.5625
866.9790, 160.4355
868.1110, 134.7246
869.2420, 147.4434
870.3740, 193.1641
871.5050, 37.92383
872.6360, 105.4180
873.7660, 129.8320
874.8970, 301.1680
876.0280, 114.2969
877.1580, 278.1387
878.2880, 318.3613
879.4180, 139.5117
880.5480, 153.7070
881.6770, 194.5508
882.8070, 43.25586
883.9360, 221.4453
885.0650, 146.9648
886.1940, 191.8359
887.3230, 189.1230
888.4520, 40.37500
889.5800, 146.4160
890.7090, 160.8066
891.8370, 42.15820
892.9650, 115.1973
894.0930, 130.4180
895.2200, 151.1172
896.3480, 187.3066
897.4750, 75.79688
898.6020, 87.32812
899.7290, 57.81055
900.8560, 46.83789
901.9830, 129.0508
903.1090, 211.4766
904.2360, 2.330078
905.3620, 57.55469
906.4880, 17.03906
907.6140, 70.82227
908.7400, 66.54297
909.8650, 130.2402
910.9900, 213.6523
912.1160, 226.4746
913.2410, 16.11719
914.3660, 190.9219
915.4900, 43.37891
916.6150, 88.76367
917.7390, 105.3496
918.8640, 172.1426
919.9880, 49.98633
921.1120, 64.14844
922.2350, 13.84570
923.3590, 20.43359
924.4820, 70.83594
925.6060, 188.0469
926.7290, 7.578125
927.8520, 88.15625
928.9740, 64.80273
930.0970, 186.3398
931.2190, 283.3535
932.3420, 90.88672
933.4640, 3.396484
934.5860, 185.8691
935.7080, 59.94336
936.8290, 14.63281
937.9510, 49.53320
939.0720, 81.20898
940.1930, 56.88281
941.3140, 69.33984
942.4350, 41.56641
943.5560, 54.00391
944.6760, 115.5820
945.7960, 122.2656
946.9170, 113.3086
948.0370, 72.29102
949.1560, 109.4453
950.2760, 147.4297
951.3960, 235.8379
952.5150, 170.1406
953.6340, 9.533203
954.7530, 112.0703
955.8720, 243.7109
956.9910, 357.1738
958.1090, 205.3574
959.2280, 121.3613
960.3460, 351.2051
961.4640, 434.7773
962.5820, 232.5332
963.6990, 458.5977
964.8170, 477.0625
965.9340, 544.5254
967.0510, 566.8867
968.1690, 911.2422
969.2850, 1155.797
970.4020, 1377.875
971.5190, 1661.104
972.6350, 1997.498
973.7510, 2371.957
974.8670, 2773.809
975.9830, 2992.762
977.0990, 3263.438
978.2150, 3133.623
979.3300, 2988.945
980.4450, 2636.695
981.5600, 2450.424
982.6750, 2112.814
983.7900, 1814.293
984.9050, 1387.904
986.0190, 1385.002
987.1340, 887.5488
988.2480, 713.7949
989.3620, 518.6719
990.4750, 601.5195
991.5890, 314.6973
992.7020, 532.7988
993.8160, 305.4004
994.9290, 426.0469
996.0420, 366.6777
997.1550, 601.9023
998.2670, 186.4297
999.3800, 204.3750
1000.492, 447.5254
1001.604, 220.0859
1002.716, 485.8086
1003.828, 317.2188
1004.940, 292.9570
1006.051, 358.6289
1007.163, 603.6914
1008.274, 428.7988
1009.385, 688.2168
1010.496, 630.6953
1011.606, 879.4902
1012.717, 1036.195
1013.827, 1540.420
1014.937, 1608.088
1016.047, 1869.105
1017.157, 2594.283
1018.267, 3090.314
1019.377, 3490.988
1020.486, 3444.834
1021.595, 3055.598
1022.704, 2615.551
1023.813, 1853.061
1024.922, 1294.594
1026.030, 912.9316
1027.139, 831.1484
1028.247, 483.3809
1029.355, 457.7285
1030.463, 350.3555
1031.571, 506.5391
1032.678, 234.1836
1033.786, 216.5039
1034.893, 145.6777
1036.000, 128.2930
1037.107, 215.1953
1038.214, 128.0938
1039.321, 188.0547
1040.427, 114.5508
1041.533, 93.56055
1042.639, 39.06250
1043.745, 287.1680
1044.851, 109.4688
1045.957, 155.7539
1047.062, 139.7363
1048.168, 73.72461
1049.273, 297.4648
1050.378, 89.93359
1051.482, 269.8125
1052.587, 237.9238
1053.692, 132.4473
1054.796, 261.5664
1055.900, 102.9531
1057.004, 97.02734
1058.108, 34.79297
1059.212, 188.2285
1060.315, 290.8242
1061.418, 383.3359
1062.522, 473.2480
1063.625, 423.0879
1064.728, 647.7070
1065.830, 651.6660
1066.933, 767.2285
1068.035, 1151.713
1069.137, 1240.715
1070.239, 1555.893
1071.341, 1836.994
1072.443, 1902.578
1073.545, 1972.705
1074.646, 1741.455
1075.747, 1590.141
1076.848, 1248.768
1077.949, 1097.340
1079.050, 908.8535
1080.150, 564.3164
1081.251, 587.7305
1082.351, 463.0742
1083.451, 543.3809
1084.551, 431.6289
1085.651, 547.8301
1086.750, 327.9805
1087.850, 224.9102
1088.949, 175.7422
1090.048, 70.74023
1091.147, 175.7715
1092.246, 37.81836
1093.345, 191.8945
1094.443, 206.2363
1095.541, 5.910156
1096.639, 208.5293
1097.737, 270.0527
1098.835, 119.5020
1099.933, 438.8945
1101.030, 391.2539
1102.128, 181.5723
1103.225, 397.8457
1104.322, 433.0820
1105.419, 315.3398
1106.515, 161.5684
1107.612, 356.7598
1108.708, 271.5527
1109.804, 27.99609
1110.900, 12.08789
1111.996, 230.4961
1113.092, 203.5273
1114.187, 49.90039
1115.283, 316.4277
1116.378, 183.5156
1117.473, 337.4863
1118.568, 168.7461
1119.662, 252.0488
1120.757, 309.2207
1121.851, 356.4883
1122.946, 405.7695
1124.040, 407.3027
1125.134, 261.8594
1126.227, 232.4414
1127.321, 219.0391
1128.414, 273.6211
1129.508, 147.1582
1130.601, 79.64453
1131.693, 9.916016
1132.786, 226.4785
1133.879, 122.8242
1134.971, 285.1289
1136.064, 25.37891
1137.156, 210.2363
1138.248, 202.5527
1139.339, 208.1367
1140.431, 31.14844
1141.522, 69.36523
1142.614, 39.33984
1143.705, 205.4531
1144.796, 122.4121
1145.887, 36.13477
1146.977, 237.8926
1148.068, 214.5137
1149.158, 473.7559
1150.248, 235.2441
1151.338, 192.5898
1152.428, 226.7227
1153.518, 9.849609
1154.607, 378.9277
1155.696, 208.9473
1156.785, 245.2305
1157.874, 398.0293
1158.963, 513.5938
1160.052, 168.0723
1161.141, 128.8379
1162.229, 74.03711
1163.317, 243.5742
1164.405, 337.8125
1165.493, 407.2227
1166.581, 484.1758
1167.668, 315.1582
1168.756, 225.5547
1169.843, 339.8008
1170.930, 349.3145
1172.017, 134.2031
1173.103, 296.6953
1174.190, 144.1328
1175.276, 196.3867
1176.363, 254.2969
1177.449, 295.4648
1178.535, 196.6484
1179.620, 1.548828
1180.706, 367.9023
1181.791, 0.0000000E+00
##END=



