##NAMES=Spodumene
##RRUFFID=R040050
##IDEAL CHEMISTRY=LiAlSi_2_O_6_
##LOCALITY=Minas Gerais, Brazil
##OWNER=RRUFF
##SOURCE=University of Arizona Mineral Museum
##DESCRIPTION=Pale pink fragment of a single crystal, variety kunzite
##STATUS=The identification of this mineral has been confirmed by X-ray diffraction and chemical analysis
##URL=rruff.info/R040050
##MEASURED CHEMISTRY=(Li_0.99_Na_0.01_)Al_1.00_Si_2.00_O_6_
##PIN_ID=L00235
##ORIENTATION=Laser parallel to a* (1 0 0). Fiducial mark perpendicular to laser is parallel to b [0 1 0]
127.7630, 0.0000000E+00
128.9970, 0.1497800
130.2300, 32.04224
131.4640, 19.94714
132.6970, 12.08752
133.9300, 17.19397
135.1630, 29.50940
136.3950, 24.47644
137.6280, 11.80066
138.8600, 64.00256
140.0920, 51.34485
141.3240, 17.80200
142.5560, 2.680664
143.7880, 27.01880
145.0190, 39.91650
146.2510, 20.52808
147.4820, 9.994751
148.7130, 17.98108
149.9440, 39.97839
151.1750, 19.97705
152.4050, 67.19092
153.6360, 46.23279
154.8660, 73.35522
156.0960, 91.28442
157.3260, 36.01868
158.5560, 21.56482
159.7850, 59.00122
161.0150, 64.58618
162.2440, 17.64880
163.4730, 24.70374
164.7020, 57.68811
165.9310, 34.92102
167.1590, 74.76953
168.3880, 113.5857
169.6160, 72.25049
170.8440, 87.00085
172.0720, 106.3523
173.3000, 94.83521
174.5280, 93.80200
175.7550, 54.26709
176.9820, 49.60510
178.2100, 59.93713
179.4370, 104.3961
180.6630, 86.54138
181.8900, 91.60925
183.1170, 128.6102
184.3430, 124.3083
185.5690, 66.83057
186.7950, 91.61328
188.0210, 148.9138
189.2470, 101.2113
190.4720, 75.50513
191.6970, 60.78613
192.9230, 102.0494
194.1480, 44.29370
195.3730, 68.82996
196.5970, 73.13745
197.8220, 72.58313
199.0460, 60.53735
200.2700, 27.00818
201.4940, 39.60352
202.7180, 23.36389
203.9420, 21.48340
205.1660, 69.12024
206.3890, 8.500977
207.6120, 41.84814
208.8350, 33.79602
210.0580, 37.56262
211.2810, 70.92017
212.5040, 6.269287
213.7260, 44.60901
214.9480, 9.060425
216.1700, 43.25940
217.3920, 19.57214
218.6140, 12.10291
219.8360, 30.46472
221.0570, 30.20361
222.2790, 71.72754
223.5000, 19.91028
224.7210, 44.02515
225.9410, 53.52783
227.1620, 83.95227
228.3820, 18.22449
229.6030, 20.39844
230.8230, 30.91675
232.0430, 28.63672
233.2630, 8.318604
234.4820, 54.51782
235.7020, 47.74194
236.9210, 25.00659
238.1400, 123.2517
239.3590, 111.4885
240.5780, 51.72900
241.7970, 66.94946
243.0150, 107.1465
244.2340, 41.33350
245.4520, 98.48779
246.6700, 136.6218
247.8880, 194.8425
249.1060, 160.1392
250.3230, 200.4365
251.5400, 193.7527
252.7580, 155.8335
253.9750, 111.8635
255.1920, 105.7502
256.4080, 157.6060
257.6250, 105.4336
258.8410, 118.2317
260.0580, 144.0029
261.2740, 59.75024
262.4900, 101.4746
263.7050, 83.17676
264.9210, 103.8552
266.1360, 93.76001
267.3520, 70.30054
268.5670, 66.08325
269.7820, 44.37793
270.9960, 84.24048
272.2110, 92.04639
273.4250, 43.25781
274.6400, 11.27417
275.8540, 70.02368
277.0680, 84.50586
278.2810, 65.18945
279.4950, 50.36865
280.7090, 144.2581
281.9220, 70.03979
283.1350, 118.6821
284.3480, 104.6360
285.5610, 189.4536
286.7730, 162.3521
287.9860, 217.9585
289.1980, 329.5981
290.4100, 337.2212
291.6220, 386.3713
292.8340, 484.0017
294.0460, 562.0952
295.2570, 649.1826
296.4690, 792.3704
297.6800, 802.4106
298.8910, 932.4685
300.1020, 744.5659
301.3120, 699.5283
302.5230, 559.4656
303.7330, 428.6082
304.9440, 265.4763
306.1540, 200.0171
307.3630, 239.4321
308.5730, 91.56714
309.7830, 139.9426
310.9920, 117.0586
312.2010, 89.40967
313.4100, 97.02441
314.6190, 127.3503
315.8280, 98.27319
317.0370, 47.08398
318.2450, 48.26733
319.4530, 80.83740
320.6610, 81.04810
321.8690, 100.2041
323.0770, 130.2366
324.2850, 140.4392
325.4920, 110.4448
326.6990, 166.5481
327.9060, 195.5229
329.1130, 222.4919
330.3200, 117.9939
331.5270, 171.3821
332.7330, 138.4463
333.9390, 108.3855
335.1450, 105.6099
336.3510, 98.46289
337.5570, 62.36743
338.7630, 134.7681
339.9680, 65.56470
341.1740, 61.32202
342.3790, 68.08398
343.5840, 181.0273
344.7890, 228.7217
345.9930, 334.9392
347.1980, 380.5459
348.4020, 442.9807
349.6060, 623.0422
350.8100, 796.5884
352.0140, 927.0288
353.2180, 1238.551
354.4210, 1380.488
355.6250, 1424.863
356.8280, 1331.732
358.0310, 1080.098
359.2340, 833.4639
360.4360, 656.4521
361.6390, 443.7585
362.8410, 440.9556
364.0430, 279.1328
365.2450, 271.0403
366.4470, 138.1819
367.6490, 117.3435
368.8510, 175.7209
370.0520, 128.3342
371.2530, 141.1772
372.4540, 131.8240
373.6550, 129.2495
374.8560, 154.9651
376.0560, 142.3413
377.2570, 139.6841
378.4570, 185.0845
379.6570, 195.4790
380.8570, 230.8157
382.0570, 245.0320
383.2560, 238.4668
384.4560, 252.8843
385.6550, 397.1396
386.8540, 381.4326
388.0530, 390.7793
389.2520, 506.1960
390.4510, 596.5767
391.6490, 680.9873
392.8470, 684.6711
394.0450, 637.0503
395.2430, 656.7183
396.4410, 481.1401
397.6390, 380.6848
398.8360, 358.1306
400.0340, 253.2859
401.2310, 185.9543
402.4280, 116.5413
403.6250, 76.26074
404.8210, 64.05420
406.0180, 52.24536
407.2140, 25.50488
408.4100, 14.84888
409.6060, 21.75049
410.8020, 38.41992
411.9980, 10.12866
413.1930, 26.92480
414.3890, 17.85522
415.5840, 17.81323
416.7790, 45.39502
417.9740, 45.28711
419.1680, 76.33716
420.3630, 16.57568
421.5570, 102.5828
422.7510, 4.757080
423.9450, 46.46924
425.1390, 66.70117
426.3330, 96.67505
427.5270, 18.54517
428.7200, 47.50024
429.9130, 24.50879
431.1060, 90.03467
432.2990, 49.85669
433.4920, 77.83301
434.6840, 198.7834
435.8770, 67.59741
437.0690, 207.1340
438.2610, 216.5806
439.4530, 159.0032
440.6450, 264.1719
441.8360, 179.0283
443.0280, 163.9412
444.2190, 247.7217
445.4100, 229.6338
446.6010, 136.4812
447.7920, 216.3342
448.9820, 31.05151
450.1730, 56.09961
451.3630, 105.9424
452.5530, 49.77661
453.7430, 112.6548
454.9330, 50.35767
456.1230, 3.273682
457.3120, 9.908691
458.5010, 3.813965
459.6910, 150.3179
460.8800, 53.00537
462.0680, 0.5795900
463.2570, 36.31445
464.4460, 39.68091
465.6340, 60.33569
466.8220, 22.13623
468.0100, 59.61572
469.1980, 29.14990
470.3860, 55.86304
471.5730, 53.62500
472.7600, 1.824219
473.9480, 48.18457
475.1350, 20.71362
476.3210, 47.07983
477.5080, 30.40112
478.6950, 60.50415
479.8810, 42.49585
481.0670, 17.86279
482.2530, 43.11450
483.4390, 68.63110
484.6250, 63.14185
485.8100, 18.46094
486.9960, 67.42065
488.1810, 143.2083
489.3660, 57.01392
490.5510, 77.10327
491.7360, 18.12891
492.9200, 85.68481
494.1050, 26.19189
495.2890, 57.67651
496.4730, 39.41528
497.6570, 78.86768
498.8400, 13.47827
500.0240, 16.85962
501.2070, 73.56689
502.3910, 139.9941
503.5740, 76.46094
504.7570, 73.97510
505.9400, 61.53687
507.1220, 143.7275
508.3050, 81.89136
509.4870, 112.8411
510.6690, 91.43921
511.8510, 203.9443
513.0330, 152.8669
514.2140, 255.5315
515.3960, 207.4158
516.5770, 374.1086
517.7580, 316.4556
518.9390, 374.0374
520.1200, 451.7939
521.3010, 424.5564
522.4810, 413.3284
523.6610, 391.1724
524.8420, 411.9551
526.0220, 258.8271
527.2010, 227.2437
528.3810, 296.7944
529.5610, 240.5522
530.7400, 160.0938
531.9190, 208.2725
533.0980, 195.5596
534.2770, 124.6392
535.4560, 192.0020
536.6340, 117.2915
537.8120, 170.4888
538.9910, 135.3145
540.1690, 153.3530
541.3460, 217.3677
542.5240, 89.44336
543.7020, 103.2344
544.8790, 65.76904
546.0560, 42.03760
547.2330, 145.1216
548.4100, 157.3154
549.5870, 46.25439
550.7630, 60.66113
551.9400, 34.53809
553.1160, 55.08984
554.2920, 135.2271
555.4680, 131.3911
556.6440, 64.15430
557.8190, 89.34082
558.9950, 104.1040
560.1700, 19.81006
561.3450, 65.58936
562.5200, 47.63623
563.6950, 15.41016
564.8690, 100.6157
566.0440, 25.03809
567.2180, 38.48438
568.3920, 93.99854
569.5660, 58.12793
570.7400, 42.31982
571.9130, 148.3569
573.0870, 68.60938
574.2600, 22.63379
575.4330, 19.71338
576.6060, 44.18457
577.7790, 101.0962
578.9520, 114.8804
580.1240, 112.3682
581.2960, 165.2031
582.4690, 231.4990
583.6410, 209.9258
584.8120, 233.7144
585.9840, 194.2812
587.1560, 202.1147
588.3270, 192.5718
589.4980, 217.2334
590.6690, 129.2334
591.8400, 169.3848
593.0110, 130.6553
594.1810, 143.8008
595.3510, 169.1362
596.5220, 80.87061
597.6920, 101.3584
598.8610, 51.93896
600.0310, 2.149414
601.2010, 48.13770
602.3700, 66.68750
603.5390, 49.66504
604.7080, 128.0635
605.8770, 68.41846
607.0460, 16.16650
608.2140, 124.7178
609.3830, 79.16357
610.5510, 49.69385
611.7190, 33.35742
612.8870, 74.36768
614.0550, 24.00195
615.2220, 4.320313
616.3900, 76.01172
617.5570, 0.6972660
618.7240, 124.0410
619.8910, 15.09863
621.0580, 123.7070
622.2240, 99.37305
623.3910, 129.7646
624.5570, 120.1494
625.7230, 27.50928
626.8890, 78.25049
628.0550, 109.4092
629.2200, 95.81348
630.3860, 17.80469
631.5510, 85.09570
632.7160, 59.08398
633.8810, 24.66260
635.0460, 19.17627
636.2100, 40.09814
637.3750, 100.8057
638.5390, 42.31787
639.7030, 103.0947
640.8670, 4.263672
642.0310, 60.52246
643.1950, 41.95605
644.3580, 20.14941
645.5210, 0.1655270
646.6850, 75.70264
647.8480, 71.43066
649.0100, 89.60498
650.1730, 141.7148
651.3350, 6.671875
652.4980, 56.36084
653.6600, 14.49463
654.8220, 47.90869
655.9840, 17.96338
657.1450, 181.9585
658.3070, 16.15576
659.4680, 50.16992
660.6300, 62.06445
661.7910, 49.84326
662.9510, 22.70020
664.1120, 27.65479
665.2730, 24.81738
666.4330, 95.20020
667.5930, 61.38135
668.7530, 1.864258
669.9130, 43.69629
671.0730, 119.9375
672.2320, 83.08887
673.3920, 122.0166
674.5510, 42.62793
675.7100, 49.67627
676.8690, 59.80957
678.0280, 137.4526
679.1860, 74.55762
680.3450, 68.92725
681.5030, 44.14209
682.6610, 99.96875
683.8190, 92.90332
684.9770, 104.1353
686.1340, 122.7056
687.2920, 72.72900
688.4490, 94.77148
689.6060, 119.4688
690.7630, 80.16064
691.9200, 161.3892
693.0760, 216.3770
694.2330, 217.0474
695.3890, 365.2607
696.5450, 308.3418
697.7010, 336.1582
698.8570, 380.1353
700.0130, 458.1475
701.1680, 777.3042
702.3230, 882.8647
703.4780, 1061.289
704.6330, 1296.866
705.7880, 1397.081
706.9430, 1498.611
708.0970, 1624.409
709.2520, 1229.568
710.4060, 1046.147
711.5600, 783.1543
712.7140, 667.0264
713.8670, 463.7778
715.0210, 319.1040
716.1740, 347.8091
717.3270, 202.7422
718.4800, 260.4663
719.6330, 135.7061
720.7860, 281.3115
721.9380, 227.7520
723.0910, 113.4131
724.2430, 180.2173
725.3950, 104.2905
726.5470, 127.1416
727.6980, 120.4287
728.8500, 105.1895
730.0010, 80.35645
731.1530, 88.57861
732.3040, 48.75586
733.4550, 52.13135
734.6050, 120.4531
735.7560, 96.39795
736.9060, 115.8013
738.0560, 42.65967
739.2060, 102.1694
740.3560, 95.33984
741.5060, 120.4673
742.6560, 86.96143
743.8050, 87.16162
744.9540, 78.71680
746.1030, 9.755371
747.2520, 38.52881
748.4010, 211.9604
749.5500, 41.96777
750.6980, 90.98975
751.8460, 35.76123
752.9950, 33.32666
754.1420, 173.8062
755.2900, 100.7314
756.4380, 95.14941
757.5850, 41.87988
758.7330, 18.47412
759.8800, 157.4546
761.0270, 89.12891
762.1730, 31.52881
763.3200, 93.13281
764.4670, 167.0137
765.6130, 105.2202
766.7590, 107.4590
767.9050, 104.3105
769.0510, 37.46289
770.1960, 176.5811
771.3420, 263.5322
772.4870, 49.98828
773.6320, 39.80566
774.7770, 57.27441
775.9220, 127.5742
777.0670, 204.2500
778.2110, 122.7246
779.3560, 141.6533
780.5000, 151.3252
781.6440, 129.3359
782.7880, 153.4336
783.9320, 238.8730
785.0750, 260.2666
786.2180, 314.6240
787.3620, 105.6445
788.5050, 187.1699
789.6480, 181.9131
790.7900, 88.58691
791.9330, 74.98047
793.0750, 131.0215
794.2170, 177.8799
795.3590, 171.0400
796.5010, 13.44238
797.6430, 135.0986
798.7850, 146.3232
799.9260, 112.9961
801.0670, 72.84277
802.2080, 157.6699
803.3490, 33.12305
804.4900, 66.24805
805.6310, 116.5039
806.7710, 31.53418
807.9110, 73.42480
809.0510, 126.0850
810.1910, 149.7412
811.3310, 137.4004
812.4710, 82.35840
813.6100, 208.0098
814.7490, 122.5127
815.8880, 198.0918
817.0270, 134.6719
818.1660, 15.39160
819.3050, 171.6514
820.4430, 142.8887
821.5820, 36.66504
822.7200, 133.8779
823.8580, 123.9297
824.9950, 113.2051
826.1330, 71.85645
827.2710, 72.44922
828.4080, 138.2686
829.5450, 198.8877
830.6820, 100.5010
831.8190, 190.0068
832.9560, 137.3672
834.0920, 212.1279
835.2280, 176.6230
836.3650, 69.37207
837.5010, 66.64844
838.6360, 171.9092
839.7720, 155.6367
840.9080, 188.2305
842.0430, 181.7373
843.1780, 102.5576
844.3130, 76.28516
845.4480, 175.5352
846.5830, 59.49707
847.7170, 267.7275
848.8520, 203.8262
849.9860, 169.0322
851.1200, 250.4658
852.2540, 167.2725
853.3870, 152.4814
854.5210, 196.8311
855.6540, 66.72363
856.7880, 237.5635
857.9210, 94.93848
859.0540, 241.9512
860.1860, 211.4336
861.3190, 90.39746
862.4510, 130.3809
863.5840, 235.3027
864.7160, 126.1211
865.8480, 159.5977
866.9790, 165.8535
868.1110, 118.0195
869.2420, 301.9473
870.3740, 85.18359
871.5050, 299.3086
872.6360, 24.19238
873.7660, 254.7402
874.8970, 267.9326
876.0280, 134.5820
877.1580, 150.1816
878.2880, 66.12012
879.4180, 159.0723
880.5480, 231.8027
881.6770, 203.0576
882.8070, 85.35059
883.9360, 204.3896
885.0650, 240.1406
886.1940, 219.3174
887.3230, 72.62500
888.4520, 259.3242
889.5800, 200.9707
890.7090, 188.4209
891.8370, 211.6533
892.9650, 244.5117
894.0930, 217.3926
895.2200, 139.0391
896.3480, 170.0713
897.4750, 73.39062
898.6020, 156.4473
899.7290, 123.4160
900.8560, 188.3887
901.9830, 189.4248
903.1090, 246.5020
904.2360, 95.52051
905.3620, 125.2070
906.4880, 119.4795
907.6140, 131.1943
908.7400, 99.87402
909.8650, 158.4844
910.9900, 238.3389
912.1160, 20.11719
913.2410, 155.5986
914.3660, 164.0234
915.4900, 72.22656
916.6150, 135.9443
917.7390, 97.79590
918.8640, 181.2412
919.9880, 67.19727
921.1120, 227.8857
922.2350, 304.0869
923.3590, 211.2041
924.4820, 191.4248
925.6060, 85.32031
926.7290, 147.6367
927.8520, 125.5479
928.9740, 5.823242
930.0970, 189.6074
931.2190, 64.90527
932.3420, 149.9658
933.4640, 211.2119
934.5860, 18.39160
935.7080, 209.2910
936.8290, 191.9082
937.9510, 58.75977
939.0720, 72.93164
940.1930, 145.7559
941.3140, 61.08887
942.4350, 84.87891
943.5560, 144.7803
944.6760, 105.7812
945.7960, 111.7568
946.9170, 155.5205
948.0370, 207.9229
949.1560, 59.73242
950.2760, 260.0635
951.3960, 171.0225
952.5150, 118.1660
953.6340, 28.46387
954.7530, 49.55078
955.8720, 82.28613
956.9910, 150.4316
958.1090, 74.75000
959.2280, 288.8047
960.3460, 10.14453
961.4640, 203.5986
962.5820, 321.8643
963.6990, 185.4873
964.8170, 214.3838
965.9340, 55.82617
967.0510, 293.3633
968.1690, 170.5049
969.2850, 9.169922
970.4020, 125.8564
971.5190, 203.7275
972.6350, 179.1133
973.7510, 90.17188
974.8670, 92.57910
975.9830, 282.5566
977.0990, 179.7529
978.2150, 174.0537
979.3300, 260.0693
980.4450, 98.38184
981.5600, 207.4658
982.6750, 56.43359
983.7900, 158.4834
984.9050, 104.9062
986.0190, 52.04688
987.1340, 104.0381
988.2480, 148.4229
989.3620, 90.37500
990.4750, 144.1182
991.5890, 45.83008
992.7020, 32.21094
993.8160, 125.3818
994.9290, 14.96191
996.0420, 166.7549
997.1550, 173.7412
998.2670, 161.7412
999.3800, 197.1533
1000.492, 194.5898
1001.604, 49.43262
1002.716, 180.4570
1003.828, 319.2354
1004.940, 143.7939
1006.051, 148.1494
1007.163, 7.216797
1008.274, 197.1738
1009.385, 124.0117
1010.496, 33.83594
1011.606, 23.23242
1012.717, 177.1562
1013.827, 198.9453
1014.937, 82.64258
1016.047, 306.3555
1017.157, 224.3906
1018.267, 196.8574
1019.377, 283.3477
1020.486, 359.6445
1021.595, 178.0840
1022.704, 158.2441
1023.813, 102.0195
1024.922, 75.56641
1026.030, 102.0762
1027.139, 57.58789
1028.247, 228.8477
1029.355, 65.70312
1030.463, 99.46289
1031.571, 359.1152
1032.678, 112.1855
1033.786, 46.58008
1034.893, 86.94922
1036.000, 70.28906
1037.107, 236.6621
1038.214, 222.7148
1039.321, 189.7051
1040.427, 144.7012
1041.533, 30.23047
1042.639, 133.0684
1043.745, 16.10547
1044.851, 184.2285
1045.957, 186.8730
1047.062, 126.3359
1048.168, 167.9043
1049.273, 72.47266
1050.378, 181.3262
1051.482, 274.7559
1052.587, 209.0430
1053.692, 264.9160
1054.796, 168.8418
1055.900, 190.5352
1057.004, 220.0098
1058.108, 264.7305
1059.212, 281.4082
1060.315, 114.0293
1061.418, 224.8164
1062.522, 405.9277
1063.625, 201.5215
1064.728, 347.4453
1065.830, 617.4297
1066.933, 714.8008
1068.035, 781.1348
1069.137, 1079.699
1070.239, 1045.367
1071.341, 903.0117
1072.443, 1199.348
1073.545, 1228.545
1074.646, 1308.723
1075.747, 938.1152
1076.848, 994.4785
1077.949, 663.4707
1079.050, 414.5195
1080.150, 559.2539
1081.251, 558.5625
1082.351, 411.8457
1083.451, 224.5664
1084.551, 431.5117
1085.651, 464.8945
1086.750, 384.5977
1087.850, 416.1758
1088.949, 288.9277
1090.048, 213.0371
1091.147, 224.2090
1092.246, 333.9004
1093.345, 307.9414
1094.443, 147.5078
1095.541, 95.84375
1096.639, 346.9297
1097.737, 243.9258
1098.835, 327.4238
1099.933, 377.2129
1101.030, 485.1230
1102.128, 341.1465
1103.225, 142.2500
1104.322, 213.3320
1105.419, 41.25977
1106.515, 233.4883
1107.612, 93.07422
1108.708, 261.0078
1109.804, 103.1602
1110.900, 110.7422
1111.996, 106.3906
1113.092, 332.7031
1114.187, 212.5938
1115.283, 96.84180
1116.378, 181.0469
1117.473, 59.06836
1118.568, 344.8457
1119.662, 77.40039
1120.757, 193.7832
1121.851, 68.09180
1122.946, 148.3789
1124.040, 432.0391
1125.134, 48.85742
1126.227, 128.6660
1127.321, 160.8770
1128.414, 123.2676
1129.508, 262.1934
1130.601, 356.0449
1131.693, 266.9258
1132.786, 66.69727
1133.879, 346.5332
1134.971, 131.1758
1136.064, 298.5742
1137.156, 329.3008
1138.248, 92.33789
1139.339, 151.2227
1140.431, 203.2891
1141.522, 205.0039
1142.614, 23.78711
1143.705, 421.5605
1144.796, 304.4727
1145.887, 2.986328
1146.977, 156.0605
1148.068, 220.1738
1149.158, 306.4570
1150.248, 323.0176
1151.338, 299.8633
1152.428, 204.8105
1153.518, 137.8301
1154.607, 241.5996
1155.696, 153.5898
1156.785, 223.1660
1157.874, 187.8945
1158.963, 238.4883
1160.052, 139.6133
1161.141, 330.3125
1162.229, 1.082031
1163.317, 0.0000000E+00
##END=



