##NAMES=Spodumene
##RRUFFID=R040050
##IDEAL CHEMISTRY=LiAlSi_2_O_6_
##LOCALITY=Minas Gerais, Brazil
##OWNER=RRUFF
##SOURCE=University of Arizona Mineral Museum
##DESCRIPTION=Pale pink fragment of a single crystal, variety kunzite
##STATUS=The identification of this mineral has been confirmed by X-ray diffraction and chemical analysis
##URL=rruff.info/R040050
##MEASURED CHEMISTRY=(Li_0.99_Na_0.01_)Al_1.00_Si_2.00_O_6_
##PIN_ID=L00235
##ORIENTATION=Laser parallel to a* (1 0 0). Fiducial mark perpendicular to laser is parallel to b [0 1 0]
106.7660, 0.0000000E+00
108.0020, 1.798584
109.2390, 73.85181
110.4750, 112.9382
111.7110, 206.9897
112.9460, 129.5974
114.1820, 118.8787
115.4170, 210.2766
116.6530, 191.5342
117.8880, 216.5500
119.1230, 265.5271
120.3580, 203.1519
121.5920, 220.6880
122.8270, 146.0312
124.0610, 123.0503
125.2950, 149.6448
126.5290, 184.7368
127.7630, 206.2649
128.9970, 185.1807
130.2300, 182.4412
131.4640, 167.0103
132.6970, 166.1370
133.9300, 147.0913
135.1630, 154.0022
136.3950, 165.3135
137.6280, 129.7544
138.8600, 163.3042
140.0920, 179.9590
141.3240, 183.7173
142.5560, 146.5776
143.7880, 190.5371
145.0190, 173.5889
146.2510, 108.7246
147.4820, 182.9570
148.7130, 188.2759
149.9440, 259.6953
151.1750, 166.1831
152.4050, 112.7368
153.6360, 214.3560
154.8660, 121.0376
156.0960, 110.7808
157.3260, 101.5840
158.5560, 163.4453
159.7850, 132.3296
161.0150, 161.7812
162.2440, 123.4951
163.4730, 198.3242
164.7020, 168.1714
165.9310, 155.0820
167.1590, 121.2915
168.3880, 115.5562
169.6160, 95.39697
170.8440, 97.50391
172.0720, 118.6792
173.3000, 95.91943
174.5280, 127.3462
175.7550, 134.5820
176.9820, 154.0000
178.2100, 222.4717
179.4370, 198.9951
180.6630, 210.5547
181.8900, 187.1025
183.1170, 262.6538
184.3430, 300.2148
185.5690, 230.7930
186.7950, 330.5986
188.0210, 299.7139
189.2470, 285.4141
190.4720, 284.0986
191.6970, 208.7354
192.9230, 132.4863
194.1480, 50.27002
195.3730, 42.08838
196.5970, 9.392578
197.8220, 64.81152
199.0460, 33.71729
200.2700, 36.65186
201.4940, 105.6147
202.7180, 58.60547
203.9420, 15.62402
205.1660, 19.66943
206.3890, 79.74219
207.6120, 20.84033
208.8350, 58.96338
210.0580, 97.10938
211.2810, 13.72021
212.5040, 10.52637
213.7260, 52.30518
214.9480, 33.95459
216.1700, 94.73389
217.3920, 26.60400
218.6140, 36.03320
219.8360, 49.35596
221.0570, 51.80469
222.2790, 70.66504
223.5000, 10.94482
224.7210, 3.374023
225.9410, 9.614746
227.1620, 14.19580
228.3820, 3.966309
229.6030, 4.887207
230.8230, 86.77246
232.0430, 57.68115
233.2630, 121.6304
234.4820, 31.58398
235.7020, 41.52686
236.9210, 51.47119
238.1400, 128.4150
239.3590, 156.7090
240.5780, 159.3071
241.7970, 300.2637
243.0150, 357.2280
244.2340, 499.1992
245.4520, 813.1777
246.6700, 977.1626
247.8880, 1266.154
249.1060, 1333.152
250.3230, 1094.154
251.5400, 770.1616
252.7580, 511.1753
253.9750, 241.6963
255.1920, 248.8984
256.4080, 114.5435
257.6250, 128.3311
258.8410, 62.23633
260.0580, 92.24023
261.2740, 98.33105
262.4900, 75.50000
263.7050, 17.73682
264.9210, 7.963867
266.1360, 12.39209
267.3520, 2.800781
268.5670, 15.74268
269.7820, 64.75488
270.9960, 2.706055
272.2110, 124.8716
273.4250, 9.648926
274.6400, 55.31836
275.8540, 23.96582
277.0680, 122.7808
278.2810, 66.55664
279.4950, 138.3813
280.7090, 242.6489
281.9220, 228.5269
283.1350, 359.4004
284.3480, 521.2954
285.5610, 541.2065
286.7730, 898.1362
287.9860, 950.0820
289.1980, 1193.045
290.4100, 1433.022
291.6220, 1761.014
292.8340, 2145.020
294.0460, 2405.039
295.2570, 2502.071
296.4690, 2580.115
297.6800, 2486.170
298.8910, 2116.235
300.1020, 1758.311
301.3120, 1325.396
302.5230, 1101.491
303.7330, 901.5938
304.9440, 638.7070
306.1540, 524.8223
307.3630, 399.4209
308.5730, 360.0142
309.7830, 296.0981
310.9920, 279.6992
312.2010, 267.9790
313.4100, 326.3413
314.6190, 322.6353
315.8280, 418.7432
317.0370, 551.8638
318.2450, 599.3218
319.4530, 728.5029
320.6610, 872.0005
321.8690, 1106.241
323.0770, 1243.735
324.2850, 1465.249
325.4920, 1606.784
326.6990, 2046.088
327.9060, 2027.474
329.1130, 2164.908
330.3200, 2013.546
331.5270, 1612.010
332.7330, 1197.700
333.9390, 999.8281
335.1450, 718.6084
336.3510, 556.2827
337.5570, 503.6245
338.7630, 469.9312
339.9680, 457.6763
341.1740, 636.3428
342.3790, 773.7344
343.5840, 916.2627
344.7890, 1355.691
345.9930, 1792.958
347.1980, 2280.731
348.4020, 2944.085
349.6060, 3729.880
350.8100, 4769.248
352.0140, 5983.076
353.2180, 7349.161
354.4210, 8289.225
355.6250, 8238.804
356.8280, 7399.954
358.0310, 5990.642
359.2340, 4490.728
360.4360, 3235.455
361.6390, 2253.047
362.8410, 1780.397
364.0430, 1363.964
365.2450, 1043.310
366.4470, 961.6528
367.6490, 794.0059
368.8510, 734.3438
370.0520, 648.6396
371.2530, 569.8403
372.4540, 608.1655
373.6550, 577.4414
374.8560, 738.7588
376.0560, 658.0698
377.2570, 852.3765
378.4570, 888.6787
379.6570, 1135.974
380.8570, 1267.261
382.0570, 1457.542
383.2560, 1769.814
384.4560, 2180.082
385.6550, 2577.343
386.8540, 3236.598
388.0530, 3837.846
389.2520, 4609.088
390.4510, 5418.324
391.6490, 6395.552
392.8470, 6890.771
394.0450, 6899.981
395.2430, 6458.189
396.4410, 5374.541
397.6390, 4080.043
398.8360, 2981.608
400.0340, 2123.274
401.2310, 1439.332
402.4280, 1246.085
403.6250, 737.7070
404.8210, 681.3057
406.0180, 513.0977
407.2140, 380.6855
408.4100, 239.4629
409.6060, 247.0010
410.8020, 216.9209
411.9980, 190.3809
413.1930, 183.7002
414.3890, 168.5186
415.5840, 96.24902
416.7790, 54.33936
417.9740, 81.82129
419.1680, 156.7759
420.3630, 54.62695
421.5570, 149.3057
422.7510, 32.21094
423.9450, 0.8740230
425.1390, 34.80078
426.3330, 102.2598
427.5270, 43.77441
428.7200, 235.2900
429.9130, 118.0078
431.1060, 278.9736
432.2990, 130.4297
433.4920, 395.3262
434.6840, 475.5073
435.8770, 441.4805
437.0690, 757.6470
438.2610, 776.5962
439.4530, 1033.337
440.6450, 1075.060
441.8360, 1229.764
443.0280, 1125.450
444.2190, 1055.116
445.4100, 985.7642
446.6010, 860.3936
447.7920, 663.0049
448.9820, 523.5977
450.1730, 416.1719
451.3630, 355.7534
452.5530, 253.7866
453.7430, 219.7275
454.9330, 164.4346
456.1230, 95.45996
457.3120, 40.50098
458.5010, 174.3491
459.6910, 127.1938
460.8800, 14.20361
462.0680, 84.31250
463.2570, 9.842773
464.4460, 76.99951
465.6340, 26.36816
466.8220, 19.81689
468.0100, 25.99609
469.1980, 85.64941
470.3860, 72.47705
471.5730, 70.75293
472.7600, 25.95557
473.9480, 79.96729
475.1350, 3.160156
476.3210, 42.25684
477.5080, 36.33154
478.6950, 41.58789
479.8810, 44.61963
481.0670, 27.78223
482.2530, 2.229980
483.4390, 48.83691
484.6250, 4.494141
485.8100, 62.02002
486.9960, 116.0996
488.1810, 9.586426
489.3660, 37.59766
490.5510, 139.6069
491.7360, 35.87256
492.9200, 140.2642
494.1050, 1.581055
495.2890, 14.64844
496.4730, 15.67480
497.6570, 95.93701
498.8400, 25.19287
500.0240, 37.88770
501.2070, 148.5693
502.3910, 3.297363
503.5740, 116.3901
504.7570, 217.2163
505.9400, 180.8857
507.1220, 251.5894
508.3050, 329.3374
509.4870, 303.1797
510.6690, 399.1528
511.8510, 475.9360
513.0330, 581.7964
514.2140, 828.2666
515.3960, 966.1738
516.5770, 1219.849
517.7580, 1564.175
518.9390, 1864.945
520.1200, 2046.715
521.3010, 2250.867
522.4810, 2430.888
523.6610, 2289.233
524.8420, 1860.281
526.0220, 1420.864
527.2010, 1142.219
528.3810, 800.5674
529.5610, 770.1104
530.7400, 497.4385
531.9190, 403.7944
533.0980, 338.9102
534.2770, 291.9663
535.4560, 235.4531
536.6340, 201.7520
537.8120, 166.8726
538.9910, 130.0098
540.1690, 115.8428
541.3460, 93.50098
542.5240, 22.62842
543.7020, 73.28125
544.8790, 105.0732
546.0560, 110.6821
547.2330, 64.20020
548.4100, 112.4551
549.5870, 66.65234
550.7630, 95.74170
551.9400, 30.57568
553.1160, 139.3696
554.2920, 105.1221
555.4680, 50.83594
556.6440, 61.50439
557.8190, 53.86963
558.9950, 15.52734
560.1700, 32.98145
561.3450, 9.435059
562.5200, 63.79980
563.6950, 23.12061
564.8690, 22.36914
566.0440, 56.15430
567.2180, 105.3042
568.3920, 89.43408
569.5660, 86.51318
570.7400, 35.55078
571.9130, 212.5371
573.0870, 92.48047
574.2600, 223.3779
575.4330, 152.2305
576.6060, 199.0371
577.7790, 149.8008
578.9520, 198.5186
580.1240, 310.1904
581.2960, 352.8193
582.4690, 419.4043
583.6410, 382.9463
584.8120, 304.4424
585.9840, 357.2021
587.1560, 417.7373
588.3270, 503.6455
589.4980, 430.1797
590.6690, 308.0029
591.8400, 249.7266
593.0110, 138.1514
594.1810, 157.3330
595.3510, 210.2246
596.5220, 131.0801
597.6920, 123.7256
598.8610, 166.1104
600.0310, 10.66797
601.2010, 120.1768
602.3700, 92.38184
603.5390, 151.9004
604.7080, 145.0811
605.8770, 13.35840
607.0460, 48.45117
608.2140, 49.26758
609.3830, 8.648438
610.5510, 8.518555
611.7190, 39.96875
612.8870, 30.00000
614.0550, 64.00977
615.2220, 93.57031
616.3900, 78.82324
617.5570, 56.04492
618.7240, 46.48828
619.8910, 70.28027
621.0580, 45.46680
622.2240, 100.2285
623.3910, 129.4375
624.5570, 126.9707
625.7230, 82.41016
626.8890, 149.7471
628.0550, 98.18457
629.2200, 118.6953
630.3860, 154.6680
631.5510, 87.97559
632.7160, 51.86035
633.8810, 103.1689
635.0460, 75.91895
636.2100, 117.5566
637.3750, 53.87305
638.5390, 141.3896
639.7030, 77.39844
640.8670, 22.48633
642.0310, 39.55078
643.1950, 53.11035
644.3580, 113.4795
645.5210, 144.8682
646.6850, 130.8818
647.8480, 113.7617
649.0100, 84.79102
650.1730, 48.79785
651.3350, 88.36035
652.4980, 63.62695
653.6600, 150.3955
654.8220, 39.70605
655.9840, 89.08105
657.1450, 166.1367
658.3070, 53.03516
659.4680, 47.06543
660.6300, 188.4590
661.7910, 213.3213
662.9510, 129.5684
664.1120, 195.4463
665.2730, 61.10840
666.4330, 108.9961
667.5930, 103.9209
668.7530, 50.50098
669.9130, 94.71680
671.0730, 80.89746
672.2320, 131.4189
673.3920, 139.1318
674.5510, 169.5469
675.7100, 99.25977
676.8690, 169.5586
678.0280, 91.28809
679.1860, 155.9648
680.3450, 119.5068
681.5030, 138.9219
682.6610, 172.8115
683.8190, 131.0586
684.9770, 167.0098
686.1340, 180.5186
687.2920, 234.5596
688.4490, 239.4766
689.6060, 256.1484
690.7630, 311.5234
691.9200, 423.9951
693.0760, 521.6113
694.2330, 617.5801
695.3890, 812.9268
696.5450, 1007.410
697.7010, 1235.899
698.8570, 1636.285
700.0130, 2136.881
701.1680, 2579.788
702.3230, 3119.816
703.4780, 3850.021
704.6330, 4783.463
705.7880, 5296.175
706.9430, 5402.801
708.0970, 5183.115
709.2520, 4575.814
710.4060, 3609.700
711.5600, 2778.534
712.7140, 1893.940
713.8670, 1485.378
715.0210, 1080.689
716.1740, 719.5967
717.3270, 812.4922
718.4800, 728.8359
719.6330, 529.3447
720.7860, 402.6611
721.9380, 499.1875
723.0910, 371.0381
724.2430, 256.5615
725.3950, 300.8984
726.5470, 201.6973
727.6980, 282.3145
728.8500, 202.5342
730.0010, 215.8936
731.1530, 277.8252
732.3040, 85.97266
733.4550, 144.2988
734.6050, 142.4844
735.7560, 181.5557
736.9060, 185.4199
738.0560, 179.9473
739.2060, 178.1963
740.3560, 161.2432
741.5060, 142.7148
742.6560, 138.7041
743.8050, 167.0684
744.9540, 139.2109
746.1030, 80.08789
747.2520, 143.8779
748.4010, 1.429688
749.5500, 248.9922
750.6980, 121.1836
751.8460, 22.87793
752.9950, 175.3887
754.1420, 6.597656
755.2900, 80.01367
756.4380, 99.16406
757.5850, 29.68848
758.7330, 28.63281
759.8800, 101.4258
761.0270, 126.4893
762.1730, 98.07422
763.3200, 91.14648
764.4670, 113.6631
765.6130, 101.7363
766.7590, 110.3906
767.9050, 105.9141
769.0510, 116.1699
770.1960, 99.78906
771.3420, 88.56738
772.4870, 98.70605
773.6320, 52.59375
774.7770, 121.6143
775.9220, 185.3271
777.0670, 107.6338
778.2110, 195.0645
779.3560, 89.61523
780.5000, 295.2188
781.6440, 154.2354
782.7880, 191.3262
783.9320, 268.5049
785.0750, 286.7383
786.2180, 238.1406
787.3620, 229.1729
788.5050, 84.19727
789.6480, 141.2393
790.7900, 245.9346
791.9330, 103.5508
793.0750, 85.21094
794.2170, 147.4580
795.3590, 171.2686
796.5010, 126.1631
797.6430, 40.71387
798.7850, 146.0000
799.9260, 55.44824
801.0670, 7.575195
802.2080, 167.0576
803.3490, 99.39648
804.4900, 76.65527
805.6310, 144.5312
806.7710, 235.0811
807.9110, 191.8848
809.0510, 113.9922
810.1910, 56.51660
811.3310, 109.6924
812.4710, 49.29492
813.6100, 115.9082
814.7490, 205.2070
815.8880, 163.6670
817.0270, 165.1553
818.1660, 159.5518
819.3050, 174.8535
820.4430, 157.3672
821.5820, 39.17676
822.7200, 135.1592
823.8580, 113.2852
824.9950, 212.4629
826.1330, 213.2188
827.2710, 88.50781
828.4080, 8.458984
829.5450, 255.1240
830.6820, 120.0801
831.8190, 197.7480
832.9560, 159.2373
834.0920, 225.3984
835.2280, 288.0635
836.3650, 268.2686
837.5010, 313.8496
838.6360, 210.6689
839.7720, 334.8252
840.9080, 255.8994
842.0430, 228.1484
843.1780, 279.7568
844.3130, 320.9121
845.4480, 209.0010
846.5830, 335.7285
847.7170, 268.6123
848.8520, 232.8291
849.9860, 338.4121
851.1200, 280.6406
852.2540, 167.5068
853.3870, 343.4473
854.5210, 266.9102
855.6540, 256.4814
856.7880, 288.1719
857.9210, 221.6875
859.0540, 366.1953
860.1860, 188.6689
861.3190, 216.3330
862.4510, 328.5146
863.5840, 117.0059
864.7160, 433.3584
865.8480, 385.1064
866.9790, 223.6426
868.1110, 279.6455
869.2420, 235.3994
870.3740, 300.7041
871.5050, 228.0742
872.6360, 281.2119
873.7660, 271.8389
874.8970, 206.5674
876.0280, 140.0361
877.1580, 228.0684
878.2880, 141.9043
879.4180, 264.5977
880.5480, 341.2900
881.6770, 57.75391
882.8070, 239.8389
883.9360, 37.89941
885.0650, 383.4922
886.1940, 45.91992
887.3230, 101.7080
888.4520, 267.0996
889.5800, 103.9082
890.7090, 153.6484
891.8370, 224.8066
892.9650, 111.9229
894.0930, 94.16699
895.2200, 176.3516
896.3480, 49.21973
897.4750, 106.6025
898.6020, 203.4893
899.7290, 74.52441
900.8560, 193.3965
901.9830, 330.2480
903.1090, 134.6104
904.2360, 13.55957
905.3620, 157.5596
906.4880, 89.98438
907.6140, 242.0928
908.7400, 68.36621
909.8650, 243.1016
910.9900, 45.87598
912.1160, 154.2627
913.2410, 82.18164
914.3660, 100.7920
915.4900, 74.54297
916.6150, 85.73828
917.7390, 24.27930
918.8640, 88.21777
919.9880, 239.9199
921.1120, 158.5605
922.2350, 193.8818
923.3590, 24.03223
924.4820, 144.4219
925.6060, 176.9287
926.7290, 72.75684
927.8520, 68.13379
928.9740, 232.7354
930.0970, 148.7227
931.2190, 58.68066
932.3420, 40.66699
933.4640, 217.4297
934.5860, 95.14551
935.7080, 178.7090
936.8290, 92.73047
937.9510, 48.78125
939.0720, 67.41992
940.1930, 96.84375
941.3140, 95.78906
942.4350, 74.27539
943.5560, 145.7656
944.6760, 98.81836
945.7960, 131.5039
946.9170, 56.69922
948.0370, 169.6250
949.1560, 7.830078
950.2760, 142.9473
951.3960, 173.4258
952.5150, 2.220703
953.6340, 145.9707
954.7530, 67.90234
955.8720, 200.9668
956.9910, 36.05859
958.1090, 21.57422
959.2280, 24.87695
960.3460, 13.06055
961.4640, 12.07031
962.5820, 38.72070
963.6990, 51.74414
964.8170, 123.0215
965.9340, 157.8418
967.0510, 173.7051
968.1690, 57.28516
969.2850, 321.5391
970.4020, 166.3984
971.5190, 134.0586
972.6350, 114.2207
973.7510, 115.3574
974.8670, 334.1543
975.9830, 265.1445
977.0990, 391.7988
978.2150, 234.1406
979.3300, 226.5469
980.4450, 88.04492
981.5600, 222.7754
982.6750, 363.4160
983.7900, 248.1523
984.9050, 99.33203
986.0190, 134.2812
987.1340, 110.8594
988.2480, 175.0781
989.3620, 127.9375
990.4750, 15.00391
991.5890, 106.4043
992.7020, 290.8828
993.8160, 83.16602
994.9290, 128.3633
996.0420, 73.46289
997.1550, 12.75977
998.2670, 132.8789
999.3800, 2.562500
1000.492, 203.5840
1001.604, 362.8262
1002.716, 200.3184
1003.828, 336.4180
1004.940, 289.0449
1006.051, 122.9199
1007.163, 210.9199
1008.274, 389.9414
1009.385, 421.4277
1010.496, 602.7988
1011.606, 523.4922
1012.717, 674.7656
1013.827, 1069.250
1014.937, 1087.094
1016.047, 1157.852
1017.157, 1524.475
1018.267, 1916.611
1019.377, 2011.576
1020.486, 1859.859
1021.595, 1760.354
1022.704, 1261.002
1023.813, 848.4941
1024.922, 616.5215
1026.030, 509.1309
1027.139, 325.1367
1028.247, 279.8633
1029.355, 288.8809
1030.463, 170.2324
1031.571, 107.0215
1032.678, 69.76953
1033.786, 83.67773
1034.893, 64.10547
1036.000, 7.054688
1037.107, 166.8320
1038.214, 128.4824
1039.321, 217.1699
1040.427, 63.32422
1041.533, 36.61133
1042.639, 57.34961
1043.745, 43.87109
1044.851, 191.9473
1045.957, 139.3867
1047.062, 272.2422
1048.168, 340.8633
1049.273, 298.1152
1050.378, 568.4453
1051.482, 418.2246
1052.587, 497.5059
1053.692, 567.8379
1054.796, 628.4492
1055.900, 697.0547
1057.004, 754.4570
1058.108, 995.9023
1059.212, 1196.379
1060.315, 1429.723
1061.418, 1427.502
1062.522, 2014.100
1063.625, 2435.170
1064.728, 3222.861
1065.830, 3811.816
1066.933, 4828.881
1068.035, 6094.396
1069.137, 7330.531
1070.239, 8770.387
1071.341, 9827.742
1072.443, 10367.18
1073.545, 10550.31
1074.646, 9241.234
1075.747, 7722.844
1076.848, 6114.926
1077.949, 4848.014
1079.050, 3858.922
1080.150, 3063.363
1081.251, 2430.035
1082.351, 2023.877
1083.451, 1701.951
1084.551, 1287.477
1085.651, 1150.283
1086.750, 1026.758
1087.850, 582.8223
1088.949, 623.3184
1090.048, 591.8164
1091.147, 439.5664
1092.246, 385.2168
1093.345, 387.8926
1094.443, 313.4297
1095.541, 387.8633
1096.639, 393.1895
1097.737, 254.4590
1098.835, 293.6738
1099.933, 294.8145
1101.030, 170.8711
1102.128, 354.8867
1103.225, 350.2539
1104.322, 297.3398
1105.419, 173.7500
1106.515, 204.5391
1107.612, 344.2949
1108.708, 66.36133
1109.804, 156.9395
1110.900, 26.87891
1111.996, 18.22070
1113.092, 38.11719
1114.187, 72.45703
1115.283, 100.8535
1116.378, 73.08984
1117.473, 66.63281
1118.568, 228.5215
1119.662, 16.59766
1120.757, 7.644531
1121.851, 115.6797
1122.946, 43.76953
1124.040, 163.8711
1125.134, 88.88672
1126.227, 142.9492
1127.321, 168.0273
1128.414, 205.0195
1129.508, 317.9668
1130.601, 162.9395
1131.693, 251.9668
1132.786, 335.1328
1133.879, 215.3301
1134.971, 396.5371
1136.064, 155.6250
1137.156, 296.8496
1138.248, 287.3711
1139.339, 194.0977
1140.431, 248.7324
1141.522, 168.4531
1142.614, 153.7949
1143.705, 129.0137
1144.796, 168.6484
1145.887, 94.17969
1146.977, 245.0586
1148.068, 248.5801
1149.158, 253.8867
1150.248, 199.8984
1151.338, 147.8281
1152.428, 185.2246
1153.518, 51.90430
1154.607, 126.9219
1155.696, 30.55664
1156.785, 274.7031
1157.874, 231.0273
1158.963, 302.5176
1160.052, 221.3262
1161.141, 166.1191
1162.229, 7.671875
1163.317, 233.5332
1164.405, 301.0352
1165.493, 462.6582
1166.581, 329.6973
1167.668, 304.9688
1168.756, 443.4375
1169.843, 270.7988
1170.930, 384.4043
1172.017, 63.57617
1173.103, 264.0430
1174.190, 1.363281
1175.276, 0.0000000E+00
##END=



