##NAMES=Spodumene
##RRUFFID=R040050
##IDEAL CHEMISTRY=LiAlSi_2_O_6_
##LOCALITY=Minas Gerais, Brazil
##OWNER=RRUFF
##SOURCE=University of Arizona Mineral Museum
##DESCRIPTION=Pale pink fragment of a single crystal, variety kunzite
##STATUS=The identification of this mineral has been confirmed by X-ray diffraction and chemical analysis
##URL=rruff.info/R040050
##MEASURED CHEMISTRY=(Li_0.99_Na_0.01_)Al_1.00_Si_2.00_O_6_
##PIN_ID=L00199
##ORIENTATION=Laser parallel to b* (0 1 0). Fiducial mark perpendicular to laser is parallel to c [0 0 1]
106.7660, 0.0000000E+00
108.0020, 78.51123
109.2390, 37.00928
110.4750, 5.935059
111.7110, 134.5703
112.9460, 186.9644
114.1820, 141.3203
115.4170, 201.9761
116.6530, 270.4629
117.8880, 411.4438
119.1230, 575.6660
120.3580, 651.1392
121.5920, 699.4897
122.8270, 919.6089
124.0610, 1263.403
125.2950, 1590.797
126.5290, 1945.721
127.7630, 2420.116
128.9970, 2703.935
130.2300, 2994.130
131.4640, 2582.670
132.6970, 2046.591
133.9300, 1668.743
135.1630, 1069.227
136.3950, 700.9795
137.6280, 528.9746
138.8600, 472.1919
140.0920, 354.6123
141.3240, 229.2207
142.5560, 257.0020
143.7880, 157.9434
145.0190, 119.0283
146.2510, 124.2427
147.4820, 69.57715
148.7130, 26.02197
149.9440, 103.5698
151.1750, 155.2139
152.4050, 107.9536
153.6360, 61.78076
154.8660, 86.69189
156.0960, 42.69531
157.3260, 13.62500
158.5560, 25.17480
159.7850, 10.30957
161.0150, 31.40039
162.2440, 4.202637
163.4730, 12.03711
164.7020, 68.90479
165.9310, 85.80811
167.1590, 14.74707
168.3880, 76.72412
169.6160, 7.739258
170.8440, 107.7920
172.0720, 94.88037
173.3000, 128.0029
174.5280, 9.157227
175.7550, 93.34131
176.9820, 60.55225
178.2100, 122.7905
179.4370, 186.0527
180.6630, 228.3237
181.8900, 302.5703
183.1170, 350.8008
184.3430, 538.0493
185.5690, 673.2993
186.7950, 787.5552
188.0210, 986.8208
189.2470, 782.0977
190.4720, 805.3867
191.6970, 503.6885
192.9230, 374.0059
194.1480, 332.3394
195.3730, 195.7544
196.5970, 201.1826
197.8220, 125.6265
199.0460, 83.08496
200.2700, 83.55713
201.4940, 3.044434
202.7180, 38.54590
203.9420, 11.06201
205.1660, 0.5922850
206.3890, 79.13232
207.6120, 19.31592
208.8350, 66.76611
210.0580, 31.78223
211.2810, 33.72119
212.5040, 55.01025
213.7260, 57.85693
214.9480, 19.53174
216.1700, 29.89258
217.3920, 47.37207
218.6140, 47.89258
219.8360, 17.45361
221.0570, 90.07812
222.2790, 135.7500
223.5000, 142.4639
224.7210, 28.20166
225.9410, 16.95459
227.1620, 47.75781
228.3820, 172.5996
229.6030, 127.5073
230.8230, 50.43066
232.0430, 110.3633
233.2630, 89.32373
234.4820, 243.2876
235.7020, 130.2524
236.9210, 37.21484
238.1400, 73.17383
239.3590, 194.1289
240.5780, 194.0776
241.7970, 216.0225
243.0150, 187.9609
244.2340, 313.8970
245.4520, 377.8237
246.6700, 602.7441
247.8880, 745.6577
249.1060, 748.5664
250.3230, 659.4736
251.5400, 576.3774
252.7580, 584.2803
253.9750, 357.7554
255.1920, 394.3755
256.4080, 302.1479
257.6250, 302.7544
258.8410, 296.1440
260.0580, 154.3789
261.2740, 217.6196
262.4900, 179.0083
263.7050, 108.3662
264.9210, 135.8379
266.1360, 41.31348
267.3520, 133.9497
268.5670, 44.48682
269.7820, 138.1206
270.9960, 93.77832
272.2110, 85.44141
273.4250, 55.14746
274.6400, 46.88281
275.8540, 97.64355
277.0680, 134.4307
278.2810, 127.2417
279.4950, 174.0645
280.7090, 228.9951
281.9220, 221.4067
283.1350, 314.2808
284.3480, 338.1694
285.5610, 466.0713
286.7730, 630.9858
287.9860, 747.9111
289.1980, 856.8462
290.4100, 1050.792
291.6220, 1092.746
292.8340, 1317.708
294.0460, 1407.677
295.2570, 1501.653
296.4690, 1481.635
297.6800, 1307.623
298.8910, 1066.616
300.1020, 786.6128
301.3120, 629.6143
302.5230, 425.6191
303.7330, 338.6230
304.9440, 234.2656
306.1540, 179.2725
307.3630, 74.27295
308.5730, 11.72656
309.7830, 26.73047
310.9920, 56.25879
312.2010, 22.42529
313.4100, 50.44336
314.6190, 14.47559
315.8280, 72.34033
317.0370, 39.00195
318.2450, 71.88477
319.4530, 33.96484
320.6610, 62.98633
321.8690, 0.2211910
323.0770, 76.65234
324.2850, 32.74902
325.4920, 222.0552
326.6990, 158.2031
327.9060, 217.7915
329.1130, 213.2471
330.3200, 327.3452
331.5270, 257.5786
332.7330, 274.3950
333.9390, 189.8076
335.1450, 302.9717
336.3510, 179.0122
337.5570, 129.4888
338.7630, 268.6943
339.9680, 330.3057
341.1740, 329.6748
342.3790, 447.1719
343.5840, 765.4214
344.7890, 851.1240
345.9930, 1135.583
347.1980, 1549.625
348.4020, 1924.259
349.6060, 2370.768
350.8100, 3041.892
352.0140, 3768.461
353.2180, 4416.472
354.4210, 4959.972
355.6250, 5063.213
356.8280, 4345.512
358.0310, 3577.283
359.2340, 2667.718
360.4360, 1847.505
361.6390, 1295.653
362.8410, 1076.407
364.0430, 646.1494
365.2450, 610.7852
366.4470, 310.5425
367.6490, 366.1611
368.8510, 297.7715
370.0520, 227.4932
371.2530, 181.0815
372.4540, 196.6611
373.6550, 224.2295
374.8560, 133.7891
376.0560, 144.3394
377.2570, 178.8784
378.4570, 65.40674
379.6570, 170.9263
380.8570, 161.4365
382.0570, 220.9341
383.2560, 221.4209
384.4560, 263.8965
385.6550, 215.3623
386.8540, 164.8149
388.0530, 281.2563
389.2520, 316.0454
390.4510, 242.8496
391.6490, 301.2891
392.8470, 348.0762
394.0450, 276.8247
395.2430, 356.7275
396.4410, 253.0835
397.6390, 196.0908
398.8360, 247.8154
400.0340, 74.90918
401.2310, 80.66943
402.4280, 25.76025
403.6250, 6.216797
404.8210, 90.30518
406.0180, 75.08496
407.2140, 99.77441
408.4100, 88.69629
409.6060, 102.3174
410.8020, 76.78467
411.9980, 147.2368
413.1930, 105.8789
414.3890, 110.4067
415.5840, 215.0811
416.7790, 130.2324
417.9740, 202.7061
419.1680, 153.8525
420.3630, 126.5972
421.5570, 199.1367
422.7510, 180.3945
423.9450, 109.4219
425.1390, 42.59229
426.3330, 171.3354
427.5270, 152.2427
428.7200, 188.1304
429.9130, 214.9976
431.1060, 257.8447
432.2990, 297.6704
433.4920, 329.4761
434.6840, 525.2607
435.8770, 576.0234
437.0690, 603.7646
438.2610, 761.4854
439.4530, 835.1836
440.6450, 945.8594
441.8360, 1011.513
443.0280, 1136.146
444.2190, 1014.754
445.4100, 838.3403
446.6010, 721.9038
447.7920, 657.4458
448.9820, 478.9658
450.1730, 411.4648
451.3630, 257.9404
452.5530, 220.8496
453.7430, 259.0640
454.9330, 85.47412
456.1230, 213.8188
457.3120, 211.7349
458.5010, 122.3760
459.6910, 66.94385
460.8800, 116.3555
462.0680, 12.11426
463.2570, 7.299316
464.4460, 79.41943
465.6340, 32.96143
466.8220, 113.6362
468.0100, 12.68213
469.1980, 10.10840
470.3860, 20.40527
471.5730, 1.061035
472.7600, 117.1577
473.9480, 27.11865
475.1350, 4.484375
476.3210, 13.96973
477.5080, 103.7754
478.6950, 39.86230
479.8810, 29.41113
481.0670, 5.690430
482.2530, 20.67432
483.4390, 54.39014
484.6250, 25.87695
485.8100, 83.08838
486.9960, 34.74365
488.1810, 32.07910
489.3660, 8.416504
490.5510, 1.981934
491.7360, 47.87109
492.9200, 6.543457
494.1050, 21.57861
495.2890, 67.25049
496.4730, 24.19092
497.6570, 82.60400
498.8400, 12.46094
500.0240, 180.4658
501.2070, 24.09131
502.3910, 51.45312
503.5740, 79.04102
504.7570, 172.4009
505.9400, 173.5645
507.1220, 208.3384
508.3050, 167.8271
509.4870, 207.5762
510.6690, 250.1372
511.8510, 172.2720
513.0330, 299.4521
514.2140, 420.1660
515.3960, 426.5479
516.5770, 553.1777
517.7580, 682.9971
518.9390, 659.3115
520.1200, 850.5518
521.3010, 919.6152
522.4810, 974.2461
523.6610, 845.1914
524.8420, 745.5967
526.0220, 560.9531
527.2010, 339.6260
528.3810, 455.4062
529.5610, 302.8467
530.7400, 130.2793
531.9190, 124.5400
533.0980, 209.8594
534.2770, 124.7158
535.4560, 131.7441
536.6340, 92.44043
537.8120, 221.0615
538.9910, 63.54980
540.1690, 130.5264
541.3460, 41.07715
542.5240, 119.8467
543.7020, 81.47461
544.8790, 188.1348
546.0560, 31.93066
547.2330, 102.7695
548.4100, 121.5000
549.5870, 63.29297
550.7630, 131.9951
551.9400, 165.7129
553.1160, 166.2832
554.2920, 30.03906
555.4680, 141.5371
556.6440, 103.0898
557.8190, 23.36621
558.9950, 144.1221
560.1700, 218.5723
561.3450, 71.98926
562.5200, 117.3672
563.6950, 180.7070
564.8690, 232.0107
566.0440, 263.1914
567.2180, 255.8721
568.3920, 276.0684
569.5660, 298.2334
570.7400, 242.3594
571.9130, 339.4492
573.0870, 339.5029
574.2600, 519.5215
575.4330, 511.5039
576.6060, 785.4482
577.7790, 767.3545
578.9520, 788.2217
580.1240, 1031.055
581.2960, 1060.849
582.4690, 1128.608
583.6410, 1257.329
584.8120, 1372.012
585.9840, 1469.656
587.1560, 1428.263
588.3270, 1264.215
589.4980, 1075.749
590.6690, 1021.606
591.8400, 992.2607
593.0110, 851.8428
594.1810, 741.5361
595.3510, 459.7861
596.5220, 471.8350
597.6920, 370.6465
598.8610, 314.5400
600.0310, 260.5488
601.2010, 268.9170
602.3700, 192.7363
603.5390, 291.6787
604.7080, 129.4658
605.8770, 130.3799
607.0460, 129.8965
608.2140, 123.6729
609.3830, 138.1035
610.5510, 141.3838
611.7190, 101.6875
612.8870, 3.881836
614.0550, 71.22656
615.2220, 78.48926
616.3900, 96.65527
617.5570, 29.45605
618.7240, 115.6133
619.8910, 120.2305
621.0580, 113.5020
622.2240, 175.2520
623.3910, 233.2383
624.5570, 43.65137
625.7230, 103.0684
626.8890, 108.6494
628.0550, 175.0293
629.2200, 7.422852
630.3860, 11.39062
631.5510, 78.57422
632.7160, 1.627930
633.8810, 70.43359
635.0460, 13.42285
636.2100, 79.78613
637.3750, 45.68750
638.5390, 67.49414
639.7030, 56.50586
640.8670, 122.8926
642.0310, 179.1162
643.1950, 119.5645
644.3580, 167.7930
645.5210, 218.1416
646.6850, 66.28809
647.8480, 128.7324
649.0100, 60.97461
650.1730, 100.9414
651.3350, 197.8125
652.4980, 180.2119
653.6600, 47.83887
654.8220, 120.6416
655.9840, 56.10645
657.1450, 12.19824
658.3070, 126.9043
659.4680, 138.4658
660.6300, 9.543945
661.7910, 33.53613
662.9510, 191.1250
664.1120, 74.83398
665.2730, 80.65625
666.4330, 4.283203
667.5930, 205.9082
668.7530, 43.26660
669.9130, 38.47754
671.0730, 72.11230
672.2320, 51.22070
673.3920, 155.3760
674.5510, 107.0195
675.7100, 178.8125
676.8690, 189.5439
678.0280, 2.721680
679.1860, 90.00098
680.3450, 185.0508
681.5030, 107.0664
682.6610, 125.9326
683.8190, 273.4883
684.9770, 387.9316
686.1340, 319.5205
687.2920, 339.0771
688.4490, 364.7236
689.6060, 453.3027
690.7630, 480.6436
691.9200, 679.8926
693.0760, 756.1289
694.2330, 987.7432
695.3890, 1296.817
696.5450, 1727.469
697.7010, 1849.532
698.8570, 2623.268
700.0130, 3052.410
701.1680, 3926.841
702.3230, 4753.407
703.4780, 5785.060
704.6330, 6922.154
705.7880, 7629.421
706.9430, 8159.998
708.0970, 7783.041
709.2520, 6877.670
710.4060, 5400.906
711.5600, 4085.447
712.7140, 3099.748
713.8670, 2349.961
715.0210, 1705.715
716.1740, 1413.519
717.3270, 1066.226
718.4800, 982.6074
719.6330, 741.2412
720.7860, 636.4287
721.9380, 458.9775
723.0910, 525.9834
724.2430, 397.1592
725.3950, 422.5869
726.5470, 219.9629
727.6980, 397.6582
728.8500, 225.6631
730.0010, 265.6836
731.1530, 274.7588
732.3040, 240.2812
733.4550, 100.2178
734.6050, 299.9248
735.7560, 188.4170
736.9060, 161.8047
738.0560, 85.33691
739.2060, 184.6299
740.3560, 120.2314
741.5060, 128.4365
742.6560, 148.8848
743.8050, 41.01660
744.9540, 78.89355
746.1030, 85.43359
747.2520, 107.6846
748.4010, 170.1680
749.5500, 48.99609
750.6980, 97.48730
751.8460, 135.3330
752.9950, 111.6396
754.1420, 223.9219
755.2900, 157.3711
756.4380, 120.1992
757.5850, 30.58301
758.7330, 17.41016
759.8800, 184.5254
761.0270, 24.66602
762.1730, 0.9394530
763.3200, 163.2500
764.4670, 7.179688
765.6130, 99.26074
766.7590, 141.7041
767.9050, 93.87109
769.0510, 126.6357
770.1960, 17.78418
771.3420, 25.54688
772.4870, 120.0039
773.6320, 151.9883
774.7770, 255.9746
775.9220, 142.2295
777.0670, 152.7832
778.2110, 167.9902
779.3560, 32.65234
780.5000, 19.75391
781.6440, 69.97559
782.7880, 82.21973
783.9320, 178.5332
785.0750, 120.4258
786.2180, 127.4717
787.3620, 17.11523
788.5050, 23.16016
789.6480, 305.9795
790.7900, 43.02930
791.9330, 220.5342
793.0750, 53.16504
794.2170, 59.99512
795.3590, 208.5449
796.5010, 231.6006
797.6430, 120.5898
798.7850, 85.88379
799.9260, 190.5107
801.0670, 150.2725
802.2080, 111.0225
803.3490, 144.6680
804.4900, 136.6895
805.6310, 7.841797
806.7710, 226.4561
807.9110, 265.8428
809.0510, 132.4707
810.1910, 193.3330
811.3310, 218.0244
812.4710, 174.5820
813.6100, 136.5146
814.7490, 253.2188
815.8880, 82.97754
817.0270, 74.01465
818.1660, 211.4600
819.3050, 77.96289
820.4430, 292.8896
821.5820, 216.8887
822.7200, 253.9463
823.8580, 318.9053
824.9950, 74.04395
826.1330, 247.9219
827.2710, 120.2236
828.4080, 161.1660
829.5450, 150.3330
830.6820, 42.01562
831.8190, 134.6924
832.9560, 182.3770
834.0920, 20.74316
835.2280, 173.0117
836.3650, 135.1787
837.5010, 143.2422
838.6360, 141.2012
839.7720, 168.0566
840.9080, 98.80957
842.0430, 286.4541
843.1780, 202.0010
844.3130, 85.44043
845.4480, 398.7715
846.5830, 238.0059
847.7170, 150.1377
848.8520, 192.1650
849.9860, 198.0869
851.1200, 291.9033
852.2540, 264.6172
853.3870, 272.2275
854.5210, 97.73535
855.6540, 258.4863
856.7880, 110.5566
857.9210, 248.6123
859.0540, 123.6924
860.1860, 307.4590
861.3190, 232.7871
862.4510, 52.75488
863.5840, 147.4023
864.7160, 296.7529
865.8480, 276.8916
866.9790, 248.5645
868.1110, 125.4932
869.2420, 249.1270
870.3740, 286.3096
871.5050, 322.7715
872.6360, 330.9375
873.7660, 279.0742
874.8970, 13.28906
876.0280, 226.9824
877.1580, 241.7627
878.2880, 52.16504
879.4180, 162.9062
880.5480, 204.7217
881.6770, 264.5850
882.8070, 307.3623
883.9360, 250.1221
885.0650, 155.0303
886.1940, 33.33301
887.3230, 197.7383
888.4520, 151.2090
889.5800, 149.4814
890.7090, 116.1064
891.8370, 176.3545
892.9650, 15.34668
894.0930, 47.58008
895.2200, 136.6934
896.3480, 173.9922
897.4750, 151.6387
898.6020, 0.6757810
899.7290, 177.8037
900.8560, 194.4785
901.9830, 246.5156
903.1090, 21.91016
904.2360, 221.5010
905.3620, 0.7607420
906.4880, 170.0059
907.6140, 14.09473
908.7400, 240.1816
909.8650, 34.50488
910.9900, 183.9209
912.1160, 51.91016
913.2410, 255.9072
914.3660, 195.4424
915.4900, 131.5566
916.6150, 76.32422
917.7390, 141.2197
918.8640, 111.7217
919.9880, 54.03223
921.1120, 55.13965
922.2350, 43.46875
923.3590, 135.0605
924.4820, 79.44824
925.6060, 42.44434
926.7290, 0.1103520
927.8520, 157.7012
928.9740, 79.62012
930.0970, 73.19824
931.2190, 58.58594
932.3420, 4.966797
933.4640, 39.77734
934.5860, 152.3457
935.7080, 77.26172
936.8290, 127.9082
937.9510, 131.2969
939.0720, 14.28125
940.1930, 19.97852
941.3140, 87.68555
942.4350, 91.62305
943.5560, 233.9844
944.6760, 33.67969
945.7960, 77.50977
946.9170, 212.3281
948.0370, 169.8594
949.1560, 6.126953
950.2760, 197.7715
951.3960, 57.38672
952.5150, 192.2539
953.6340, 21.40234
954.7530, 206.8730
955.8720, 114.1680
956.9910, 99.81055
958.1090, 296.7344
959.2280, 230.8379
960.3460, 85.71875
961.4640, 381.5293
962.5820, 442.9375
963.6990, 363.7793
964.8170, 454.4629
965.9340, 432.3906
967.0510, 405.6992
968.1690, 540.1504
969.2850, 977.7559
970.4020, 1060.549
971.5190, 1017.418
972.6350, 1548.199
973.7510, 1573.869
974.8670, 1933.867
975.9830, 2265.160
977.0990, 2194.445
978.2150, 2220.965
979.3300, 2232.928
980.4450, 2074.119
981.5600, 1676.910
982.6750, 1331.441
983.7900, 1074.420
984.9050, 905.3945
986.0190, 771.6914
987.1340, 728.6680
988.2480, 468.5586
989.3620, 352.0566
990.4750, 249.6758
991.5890, 225.5566
992.7020, 435.9102
993.8160, 74.65234
994.9290, 114.0078
996.0420, 28.05273
997.1550, 29.76562
998.2670, 236.0918
999.3800, 172.9375
1000.492, 99.58789
1001.604, 216.9941
1002.716, 223.9355
1003.828, 164.1289
1004.940, 85.36523
1006.051, 200.6406
1007.163, 153.7363
1008.274, 168.4707
1009.385, 319.1738
1010.496, 343.4551
1011.606, 174.6641
1012.717, 321.6836
1013.827, 432.3145
1014.937, 762.8711
1016.047, 872.5234
1017.157, 1020.182
1018.267, 1208.449
1019.377, 1448.438
1020.486, 1275.355
1021.595, 1369.742
1022.704, 1021.041
1023.813, 848.3652
1024.922, 666.5078
1026.030, 584.7207
1027.139, 255.0215
1028.247, 392.5840
1029.355, 292.8125
1030.463, 76.72656
1031.571, 108.5605
1032.678, 230.7656
1033.786, 26.25195
1034.893, 137.7812
1036.000, 88.64844
1037.107, 78.99219
1038.214, 7.830078
1039.321, 103.6523
1040.427, 24.21680
1041.533, 183.7109
1042.639, 129.3457
1043.745, 182.3828
1044.851, 148.6230
1045.957, 25.66406
1047.062, 0.6269530
1048.168, 132.6133
1049.273, 160.9570
1050.378, 32.34180
1051.482, 140.3887
1052.587, 31.98242
1053.692, 287.9551
1054.796, 39.06641
1055.900, 222.4590
1057.004, 55.02148
1058.108, 144.4629
1059.212, 214.9453
1060.315, 287.8125
1061.418, 374.5957
1062.522, 202.3008
1063.625, 639.9277
1064.728, 605.4688
1065.830, 546.9375
1066.933, 886.3125
1068.035, 1113.613
1069.137, 1348.834
1070.239, 1719.400
1071.341, 1840.725
1072.443, 2035.654
1073.545, 2145.057
1074.646, 1961.139
1075.747, 1629.008
1076.848, 1178.307
1077.949, 1175.613
1079.050, 767.9883
1080.150, 597.3125
1081.251, 558.8242
1082.351, 486.9941
1083.451, 487.8223
1084.551, 263.6230
1085.651, 265.3008
1086.750, 433.8184
1087.850, 309.2637
1088.949, 81.36328
1090.048, 461.6738
1091.147, 242.4941
1092.246, 273.7578
1093.345, 175.9629
1094.443, 78.07422
1095.541, 278.5293
1096.639, 241.3945
1097.737, 432.2773
1098.835, 29.52344
1099.933, 206.0430
1101.030, 145.0625
1102.128, 50.05273
1103.225, 202.8711
1104.322, 464.9297
1105.419, 365.9160
1106.515, 104.7168
1107.612, 228.5039
1108.708, 100.9824
1109.804, 189.1348
1110.900, 153.0039
1111.996, 154.8086
1113.092, 62.66602
1114.187, 33.42188
1115.283, 170.0703
1116.378, 137.5039
1117.473, 126.5762
1118.568, 283.2461
1119.662, 306.1543
1120.757, 41.88672
1121.851, 329.4414
1122.946, 243.0859
1124.040, 224.6289
1125.134, 32.51758
1126.227, 299.4883
1127.321, 311.6094
1128.414, 131.7891
1129.508, 259.6484
1130.601, 323.7695
1131.693, 348.7539
1132.786, 137.9004
1133.879, 71.88086
1134.971, 318.1035
1136.064, 220.0547
1137.156, 275.0352
1138.248, 70.85156
1139.339, 381.4551
1140.431, 4.875000
1141.522, 97.00195
1142.614, 130.6797
1143.705, 188.9883
1144.796, 193.5684
1145.887, 150.6387
1146.977, 25.19531
1148.068, 52.75000
1149.158, 0.0000000E+00
##END=



