##NAMES=Spodumene
##RRUFFID=R040050
##IDEAL CHEMISTRY=LiAlSi_2_O_6_
##LOCALITY=Minas Gerais, Brazil
##OWNER=RRUFF
##SOURCE=University of Arizona Mineral Museum
##DESCRIPTION=Pale pink fragment of a single crystal, variety kunzite
##STATUS=The identification of this mineral has been confirmed by X-ray diffraction and chemical analysis
##URL=rruff.info/R040050
##MEASURED CHEMISTRY=(Li_0.99_Na_0.01_)Al_1.00_Si_2.00_O_6_
##PIN_ID=L00199
##ORIENTATION=Laser parallel to b* (0 1 0). Fiducial mark perpendicular to laser is parallel to c [0 0 1]
124.0610, 0.0000000E+00
125.2950, 7.5438999E-02
126.5290, 25.80151
127.7630, 54.68066
128.9970, 97.56885
130.2300, 99.07251
131.4640, 74.73193
132.6970, 80.60083
133.9300, 70.83667
135.1630, 70.20825
136.3950, 5.298340
137.6280, 36.58447
138.8600, 67.17285
140.0920, 21.78613
141.3240, 66.13672
142.5560, 52.84326
143.7880, 54.78418
145.0190, 79.47827
146.2510, 46.22095
147.4820, 104.6838
148.7130, 56.59814
149.9440, 53.52783
151.1750, 26.40991
152.4050, 69.68457
153.6360, 36.59473
154.8660, 85.45679
156.0960, 67.24072
157.3260, 15.96851
158.5560, 35.68408
159.7850, 65.98877
161.0150, 34.91187
162.2440, 0.1511230
163.4730, 57.83301
164.7020, 78.49585
165.9310, 70.46069
167.1590, 98.66650
168.3880, 47.16089
169.6160, 58.30103
170.8440, 17.04053
172.0720, 45.23706
173.3000, 63.32202
174.5280, 62.63965
175.7550, 49.50757
176.9820, 57.79688
178.2100, 89.19580
179.4370, 36.99023
180.6630, 103.7458
181.8900, 93.68774
183.1170, 150.8491
184.3430, 129.3738
185.5690, 174.6001
186.7950, 94.40356
188.0210, 108.1621
189.2470, 131.2878
190.4720, 125.5618
191.6970, 91.37720
192.9230, 140.8621
194.1480, 109.4009
195.3730, 30.35864
196.5970, 92.61670
197.8220, 50.54272
199.0460, 111.8833
200.2700, 62.59131
201.4940, 56.90527
202.7180, 10.18579
203.9420, 25.79834
205.1660, 55.41992
206.3890, 121.7639
207.6120, 51.93945
208.8350, 72.10962
210.0580, 28.27588
211.2810, 61.42822
212.5040, 9.564453
213.7260, 17.68311
214.9480, 102.6047
216.1700, 9.079102
217.3920, 41.36621
218.6140, 19.64722
219.8360, 4.099365
221.0570, 38.97144
222.2790, 52.16602
223.5000, 36.47656
224.7210, 33.37183
225.9410, 24.18091
227.1620, 94.49805
228.3820, 73.18823
229.6030, 76.97998
230.8230, 105.1042
232.0430, 61.75269
233.2630, 51.38037
234.4820, 13.33667
235.7020, 34.34277
236.9210, 63.01221
238.1400, 97.66479
239.3590, 97.33936
240.5780, 91.30640
241.7970, 58.67554
243.0150, 54.30615
244.2340, 49.15820
245.4520, 48.15015
246.6700, 81.73169
247.8880, 83.85986
249.1060, 146.6826
250.3230, 105.4990
251.5400, 152.9192
252.7580, 140.1951
253.9750, 49.25146
255.1920, 94.99072
256.4080, 28.36792
257.6250, 33.56714
258.8410, 19.73804
260.0580, 98.88574
261.2740, 7.5679999E-03
262.4900, 27.19971
263.7050, 19.88696
264.9210, 0.9245610
266.1360, 11.87720
267.3520, 70.53613
268.5670, 15.22607
269.7820, 44.86865
270.9960, 79.68311
272.2110, 7.199219
273.4250, 71.26074
274.6400, 10.79517
275.8540, 46.89624
277.0680, 61.52271
278.2810, 10.09619
279.4950, 33.56104
280.7090, 41.04907
281.9220, 73.53906
283.1350, 86.31909
284.3480, 50.62329
285.5610, 115.8276
286.7730, 86.84912
287.9860, 123.8984
289.1980, 114.8528
290.4100, 142.8936
291.6220, 202.8589
292.8340, 212.0457
294.0460, 219.1873
295.2570, 307.0225
296.4690, 218.6636
297.6800, 140.4351
298.8910, 150.9790
300.1020, 141.5735
301.3120, 136.0720
302.5230, 130.6523
303.7330, 43.68335
304.9440, 69.42212
306.1540, 23.35034
307.3630, 19.05664
308.5730, 36.47534
309.7830, 10.35229
310.9920, 9.061768
312.2010, 34.58130
313.4100, 17.25464
314.6190, 29.77832
315.8280, 31.77295
317.0370, 40.59351
318.2450, 19.12207
319.4530, 29.62354
320.6610, 1.950439
321.8690, 26.60205
323.0770, 25.23462
324.2850, 63.98047
325.4920, 30.61499
326.6990, 70.20020
327.9060, 78.67505
329.1130, 102.0972
330.3200, 99.62598
331.5270, 15.73950
332.7330, 86.05835
333.9390, 8.655029
335.1450, 3.812012
336.3510, 28.79883
337.5570, 31.16577
338.7630, 5.697266
339.9680, 83.40405
341.1740, 25.34058
342.3790, 56.67163
343.5840, 110.7266
344.7890, 170.9148
345.9930, 171.9600
347.1980, 201.2998
348.4020, 232.4014
349.6060, 243.1394
350.8100, 315.1501
352.0140, 528.5200
353.2180, 547.5354
354.4210, 669.5127
355.6250, 673.2290
356.8280, 590.9751
358.0310, 450.4163
359.2340, 331.8706
360.4360, 179.2466
361.6390, 169.7129
362.8410, 104.3828
364.0430, 74.64209
365.2450, 168.4722
366.4470, 16.90405
367.6490, 93.80054
368.8510, 45.72681
370.0520, 111.6741
371.2530, 35.73901
372.4540, 46.66431
373.6550, 43.70898
374.8560, 4.427490
376.0560, 66.12231
377.2570, 43.69800
378.4570, 43.19482
379.6570, 85.52905
380.8570, 79.76074
382.0570, 84.34229
383.2560, 118.8499
384.4560, 105.3289
385.6550, 131.8586
386.8540, 208.6450
388.0530, 213.2104
389.2520, 259.7554
390.4510, 312.4551
391.6490, 246.2849
392.8470, 370.3359
394.0450, 366.0569
395.2430, 278.8269
396.4410, 236.5642
397.6390, 176.7886
398.8360, 147.4399
400.0340, 102.3899
401.2310, 46.03369
402.4280, 76.39331
403.6250, 87.68628
404.8210, 74.18237
406.0180, 49.49121
407.2140, 111.8398
408.4100, 69.86987
409.6060, 65.80762
410.8020, 98.14917
411.9980, 144.5996
413.1930, 28.39331
414.3890, 8.549072
415.5840, 135.7957
416.7790, 39.13306
417.9740, 64.69263
419.1680, 111.7703
420.3630, 60.69238
421.5570, 20.58643
422.7510, 42.29297
423.9450, 33.19189
425.1390, 29.02490
426.3330, 54.79053
427.5270, 65.11670
428.7200, 84.71973
429.9130, 113.2837
431.1060, 112.9233
432.2990, 131.1377
433.4920, 105.6538
434.6840, 118.9351
435.8770, 61.63330
437.0690, 67.03613
438.2610, 135.2695
439.4530, 176.1055
440.6450, 132.2832
441.8360, 257.7246
443.0280, 172.1533
444.2190, 207.5190
445.4100, 165.5684
446.6010, 32.53760
447.7920, 116.1167
448.9820, 65.76758
450.1730, 137.3096
451.3630, 104.8604
452.5530, 57.44434
453.7430, 90.73486
454.9330, 130.3735
456.1230, 9.921387
457.3120, 69.72021
458.5010, 46.27734
459.6910, 7.879395
460.8800, 95.46094
462.0680, 95.18066
463.2570, 130.3232
464.4460, 46.68604
465.6340, 45.56543
466.8220, 12.71338
468.0100, 17.08936
469.1980, 36.10742
470.3860, 57.42432
471.5730, 64.68506
472.7600, 81.04883
473.9480, 80.25879
475.1350, 73.13379
476.3210, 2.306152
477.5080, 100.9937
478.6950, 135.6602
479.8810, 38.55322
481.0670, 87.26270
482.2530, 85.07666
483.4390, 88.39404
484.6250, 16.51123
485.8100, 66.61621
486.9960, 37.30371
488.1810, 53.86377
489.3660, 1.384766
490.5510, 1.123047
491.7360, 71.46729
492.9200, 30.09131
494.1050, 20.30225
495.2890, 64.06055
496.4730, 36.11279
497.6570, 50.48291
498.8400, 70.44336
500.0240, 85.35303
501.2070, 84.48145
502.3910, 151.1929
503.5740, 66.60596
504.7570, 12.19092
505.9400, 112.8032
507.1220, 40.43262
508.3050, 76.20947
509.4870, 209.0005
510.6690, 178.0229
511.8510, 161.6382
513.0330, 116.6025
514.2140, 197.0327
515.3960, 154.9131
516.5770, 229.7812
517.7580, 299.4385
518.9390, 231.2534
520.1200, 322.8057
521.3010, 371.6221
522.4810, 301.4678
523.6610, 357.3843
524.8420, 255.2397
526.0220, 238.9790
527.2010, 214.7305
528.3810, 120.7075
529.5610, 162.7300
530.7400, 155.2681
531.9190, 109.6641
533.0980, 104.4380
534.2770, 45.87354
535.4560, 121.7251
536.6340, 102.1411
537.8120, 102.5776
538.9910, 218.2080
540.1690, 67.47998
541.3460, 30.78711
542.5240, 33.47559
543.7020, 99.29443
544.8790, 94.08057
546.0560, 111.4609
547.2330, 44.06885
548.4100, 65.38428
549.5870, 41.63281
550.7630, 117.0635
551.9400, 25.51611
553.1160, 49.69727
554.2920, 39.18359
555.4680, 99.95898
556.6440, 52.25977
557.8190, 153.6455
558.9950, 8.213867
560.1700, 5.741699
561.3450, 14.82861
562.5200, 79.65820
563.6950, 62.25146
564.8690, 28.87207
566.0440, 41.38574
567.2180, 78.81348
568.3920, 60.28369
569.5660, 74.73047
570.7400, 17.19141
571.9130, 80.70068
573.0870, 120.1431
574.2600, 4.404785
575.4330, 157.8682
576.6060, 48.12988
577.7790, 108.3779
578.9520, 138.5674
580.1240, 223.7964
581.2960, 132.8994
582.4690, 60.31348
583.6410, 54.26074
584.8120, 60.19043
585.9840, 126.7671
587.1560, 136.2266
588.3270, 146.1831
589.4980, 144.6274
590.6690, 113.6997
591.8400, 19.38818
593.0110, 96.78564
594.1810, 131.9990
595.3510, 36.95801
596.5220, 36.03076
597.6920, 20.27490
598.8610, 41.98926
600.0310, 23.46143
601.2010, 25.74658
602.3700, 199.3921
603.5390, 97.87939
604.7080, 5.585938
605.8770, 135.7612
607.0460, 59.36035
608.2140, 60.88574
609.3830, 45.00879
610.5510, 29.97168
611.7190, 40.92041
612.8870, 28.54053
614.0550, 51.66211
615.2220, 36.49268
616.3900, 24.30420
617.5570, 50.60254
618.7240, 39.46484
619.8910, 4.248535
621.0580, 33.60303
622.2240, 108.5464
623.3910, 156.9248
624.5570, 135.2793
625.7230, 157.3550
626.8890, 60.28760
628.0550, 105.4590
629.2200, 48.31787
630.3860, 152.6045
631.5510, 62.46387
632.7160, 43.62598
633.8810, 35.88770
635.0460, 106.7661
636.2100, 99.47266
637.3750, 40.09033
638.5390, 126.3086
639.7030, 126.5342
640.8670, 62.89160
642.0310, 150.8940
643.1950, 102.8169
644.3580, 9.885742
645.5210, 2.392578
646.6850, 10.57080
647.8480, 97.22705
649.0100, 150.0093
650.1730, 160.3867
651.3350, 197.7495
652.4980, 168.8384
653.6600, 208.0435
654.8220, 102.7935
655.9840, 90.72168
657.1450, 79.73975
658.3070, 102.3486
659.4680, 130.8716
660.6300, 55.29346
661.7910, 80.55127
662.9510, 45.84814
664.1120, 52.97412
665.2730, 120.3418
666.4330, 99.80566
667.5930, 66.14404
668.7530, 75.07422
669.9130, 178.6567
671.0730, 200.1230
672.2320, 97.66113
673.3920, 165.2920
674.5510, 52.98975
675.7100, 143.7666
676.8690, 125.5181
678.0280, 66.81738
679.1860, 139.5664
680.3450, 94.78955
681.5030, 183.0464
682.6610, 81.13574
683.8190, 105.5010
684.9770, 199.4019
686.1340, 117.9517
687.2920, 148.4893
688.4490, 212.2773
689.6060, 114.7891
690.7630, 330.9624
691.9200, 174.5156
693.0760, 221.4116
694.2330, 313.6265
695.3890, 300.9360
696.5450, 406.1333
697.7010, 418.2568
698.8570, 555.5986
700.0130, 584.3965
701.1680, 743.4746
702.3230, 1023.744
703.4780, 1313.751
704.6330, 1443.673
705.7880, 1582.749
706.9430, 1724.368
708.0970, 1561.853
709.2520, 1357.863
710.4060, 1190.452
711.5600, 792.8555
712.7140, 657.0859
713.8670, 470.7666
715.0210, 397.7881
716.1740, 274.4521
717.3270, 277.4834
718.4800, 320.7539
719.6330, 137.9385
720.7860, 243.2598
721.9380, 156.5215
723.0910, 181.3418
724.2430, 162.2559
725.3950, 202.0547
726.5470, 173.3662
727.6980, 124.8936
728.8500, 148.1602
730.0010, 57.12207
731.1530, 80.72656
732.3040, 11.67090
733.4550, 139.8447
734.6050, 135.8213
735.7560, 35.74707
736.9060, 127.2559
738.0560, 5.302734
739.2060, 134.3438
740.3560, 118.2568
741.5060, 140.9346
742.6560, 107.5010
743.8050, 133.5566
744.9540, 26.65332
746.1030, 11.00879
747.2520, 73.56445
748.4010, 111.9355
749.5500, 39.71777
750.6980, 39.47754
751.8460, 68.92383
752.9950, 120.4570
754.1420, 100.3975
755.2900, 134.0029
756.4380, 80.78613
757.5850, 117.4932
758.7330, 105.8672
759.8800, 20.25098
761.0270, 112.0850
762.1730, 104.8203
763.3200, 82.91797
764.4670, 152.1533
765.6130, 47.26953
766.7590, 121.0410
767.9050, 157.9941
769.0510, 27.61523
770.1960, 31.23828
771.3420, 169.7588
772.4870, 165.6113
773.6320, 131.3760
774.7770, 154.7256
775.9220, 127.7090
777.0670, 128.6592
778.2110, 94.47852
779.3560, 160.0410
780.5000, 141.3125
781.6440, 154.0811
782.7880, 159.1670
783.9320, 49.56055
785.0750, 141.8271
786.2180, 69.78711
787.3620, 46.69141
788.5050, 80.63281
789.6480, 19.87988
790.7900, 137.2891
791.9330, 21.00684
793.0750, 31.50684
794.2170, 48.77441
795.3590, 127.7061
796.5010, 129.9014
797.6430, 135.8203
798.7850, 156.7793
799.9260, 129.8438
801.0670, 152.8408
802.2080, 133.6162
803.3490, 56.65430
804.4900, 41.13574
805.6310, 34.61426
806.7710, 115.6797
807.9110, 119.2773
809.0510, 48.49121
810.1910, 106.4102
811.3310, 37.85742
812.4710, 168.7881
813.6100, 135.2988
814.7490, 23.68750
815.8880, 211.7383
817.0270, 167.3242
818.1660, 102.0137
819.3050, 124.7354
820.4430, 103.7041
821.5820, 188.1025
822.7200, 48.07129
823.8580, 184.9492
824.9950, 125.3311
826.1330, 147.7871
827.2710, 55.46484
828.4080, 81.70410
829.5450, 35.18262
830.6820, 238.7568
831.8190, 153.3105
832.9560, 118.2314
834.0920, 217.5986
835.2280, 134.0537
836.3650, 114.1934
837.5010, 275.3408
838.6360, 274.3750
839.7720, 66.57227
840.9080, 267.4609
842.0430, 223.0654
843.1780, 110.8174
844.3130, 104.4111
845.4480, 211.3105
846.5830, 234.3838
847.7170, 82.70312
848.8520, 142.8164
849.9860, 84.52246
851.1200, 194.8428
852.2540, 149.3467
853.3870, 339.7656
854.5210, 291.4307
855.6540, 136.4756
856.7880, 228.8057
857.9210, 148.3486
859.0540, 32.62988
860.1860, 185.8594
861.3190, 257.3750
862.4510, 178.1084
863.5840, 247.9844
864.7160, 99.36719
865.8480, 118.7852
866.9790, 86.04785
868.1110, 142.2178
869.2420, 171.4756
870.3740, 183.3086
871.5050, 171.3477
872.6360, 233.1523
873.7660, 247.6191
874.8970, 154.8057
876.0280, 308.9844
877.1580, 69.86230
878.2880, 189.8418
879.4180, 194.1035
880.5480, 75.29883
881.6770, 135.2285
882.8070, 29.36426
883.9360, 88.94141
885.0650, 185.3662
886.1940, 179.7441
887.3230, 218.2695
888.4520, 196.0996
889.5800, 215.9727
890.7090, 184.4609
891.8370, 300.8359
892.9650, 73.55273
894.0930, 80.72656
895.2200, 309.3008
896.3480, 251.1436
897.4750, 82.98340
898.6020, 165.6777
899.7290, 16.52734
900.8560, 291.1865
901.9830, 154.2773
903.1090, 71.16797
904.2360, 188.2715
905.3620, 92.55664
906.4880, 82.62695
907.6140, 178.2568
908.7400, 249.1396
909.8650, 157.4229
910.9900, 140.5049
912.1160, 78.13281
913.2410, 168.0840
914.3660, 139.6240
915.4900, 74.95605
916.6150, 185.0420
917.7390, 73.32617
918.8640, 111.5557
919.9880, 266.4258
921.1120, 166.7148
922.2350, 206.3398
923.3590, 179.9268
924.4820, 110.4873
925.6060, 79.49219
926.7290, 46.06445
927.8520, 114.3125
928.9740, 127.1211
930.0970, 2.849609
931.2190, 169.6133
932.3420, 337.2686
933.4640, 87.78711
934.5860, 74.14844
935.7080, 52.03418
936.8290, 94.75977
937.9510, 210.0479
939.0720, 62.03613
940.1930, 120.8555
941.3140, 67.48047
942.4350, 0.4179690
943.5560, 296.2246
944.6760, 235.5547
945.7960, 148.0527
946.9170, 130.0391
948.0370, 82.50391
949.1560, 73.95898
950.2760, 69.85547
951.3960, 33.89062
952.5150, 98.69531
953.6340, 137.5352
954.7530, 187.3184
955.8720, 318.4629
956.9910, 60.72461
958.1090, 158.7227
959.2280, 278.6914
960.3460, 84.27148
961.4640, 115.8105
962.5820, 166.9180
963.6990, 162.8809
964.8170, 155.8633
965.9340, 229.1719
967.0510, 6.947266
968.1690, 234.1953
969.2850, 183.9902
970.4020, 51.94141
971.5190, 200.0137
972.6350, 198.6113
973.7510, 131.2031
974.8670, 174.8398
975.9830, 214.2559
977.0990, 150.6777
978.2150, 158.3320
979.3300, 295.0234
980.4450, 223.8535
981.5600, 136.1660
982.6750, 154.7031
983.7900, 15.62891
984.9050, 77.44141
986.0190, 209.9941
987.1340, 129.6738
988.2480, 263.5332
989.3620, 224.5703
990.4750, 161.1953
991.5890, 184.1875
992.7020, 128.6973
993.8160, 132.5898
994.9290, 60.98242
996.0420, 1.468750
997.1550, 12.58203
998.2670, 152.7539
999.3800, 135.1543
1000.492, 77.65430
1001.604, 4.703125
1002.716, 47.82812
1003.828, 16.92578
1004.940, 78.92969
1006.051, 41.27148
1007.163, 117.1914
1008.274, 26.03516
1009.385, 129.3477
1010.496, 85.75391
1011.606, 119.3320
1012.717, 45.43945
1013.827, 16.72070
1014.937, 19.42969
1016.047, 37.91211
1017.157, 78.00586
1018.267, 15.27148
1019.377, 5.123047
1020.486, 10.98633
1021.595, 77.07812
1022.704, 85.06445
1023.813, 111.5977
1024.922, 144.7969
1026.030, 44.40430
1027.139, 122.7910
1028.247, 17.45117
1029.355, 65.50977
1030.463, 11.66602
1031.571, 115.1426
1032.678, 66.25391
1033.786, 104.6270
1034.893, 116.0664
1036.000, 39.58984
1037.107, 167.4746
1038.214, 181.4805
1039.321, 40.07227
1040.427, 200.2539
1041.533, 9.957031
1042.639, 31.46680
1043.745, 229.2910
1044.851, 29.62109
1045.957, 171.2891
1047.062, 208.1953
1048.168, 294.5664
1049.273, 303.3730
1050.378, 250.0098
1051.482, 238.5254
1052.587, 187.4980
1053.692, 150.3496
1054.796, 208.0156
1055.900, 161.2207
1057.004, 175.6387
1058.108, 181.7500
1059.212, 165.3066
1060.315, 186.3066
1061.418, 159.4531
1062.522, 184.1738
1063.625, 226.2480
1064.728, 226.7773
1065.830, 236.6719
1066.933, 256.3105
1068.035, 313.4746
1069.137, 451.0781
1070.239, 459.7715
1071.341, 580.7500
1072.443, 654.8457
1073.545, 487.8047
1074.646, 643.7617
1075.747, 481.7598
1076.848, 444.6133
1077.949, 447.4023
1079.050, 380.7734
1080.150, 316.1152
1081.251, 243.3711
1082.351, 306.4492
1083.451, 205.3203
1084.551, 335.0801
1085.651, 181.7617
1086.750, 186.3066
1087.850, 324.1289
1088.949, 65.20703
1090.048, 165.0098
1091.147, 326.2227
1092.246, 268.6758
1093.345, 343.3164
1094.443, 213.8203
1095.541, 309.1797
1096.639, 109.1172
1097.737, 263.4160
1098.835, 214.7520
1099.933, 78.58398
1101.030, 382.2422
1102.128, 65.80664
1103.225, 249.7988
1104.322, 337.2637
1105.419, 176.0918
1106.515, 152.7793
1107.612, 135.5898
1108.708, 53.02344
1109.804, 89.08789
1110.900, 36.55469
1111.996, 74.68359
1113.092, 219.5078
1114.187, 216.1211
1115.283, 172.5547
1116.378, 1.1719000E-02
1117.473, 255.9863
1118.568, 53.28711
1119.662, 164.7266
1120.757, 67.46094
1121.851, 312.4453
1122.946, 320.6953
1124.040, 238.6074
1125.134, 100.2656
1126.227, 168.5312
1127.321, 386.4902
1128.414, 217.5645
1129.508, 163.2461
1130.601, 374.5312
1131.693, 100.8945
1132.786, 262.0059
1133.879, 165.5488
1134.971, 207.8301
1136.064, 229.5371
1137.156, 12.41016
1138.248, 188.2656
1139.339, 154.7598
1140.431, 220.6465
1141.522, 117.9863
1142.614, 19.81445
1143.705, 104.9512
1144.796, 141.7598
1145.887, 1.019531
1146.977, 0.0000000E+00
##END=



