##NAMES=Stellerite
##RRUFFID=R040174
##IDEAL CHEMISTRY=Ca_4_(Si_28_Al_8_)O_72_&#183;28H_2_O
##LOCALITY=unknown
##OWNER=RRUFF
##SOURCE=University of Arizona Mineral Museum
##DESCRIPTION=Parallel aggregates of thin tabular brown crystals
##STATUS=The identification of this mineral has been confirmed by X-ray diffraction and chemical analysis
##URL=rruff.info/R040174
##MEASURED CHEMISTRY=(Ca_3.89_Na_0.06_K_0.05_)_Σ=4_(Si_28.11_Al_7.89_)O_72_·15.18H_2_O; H_2_O estimated by difference
##PIN_ID=M00192
##ORIENTATION=Laser parallel to (1 0 1). Fiducial mark perpendicular to laser is parallel to b [0 1 0]
88.496, 0.000
89.890, 11.980
91.284, 121.773
92.678, 130.528
94.071, 183.640
95.465, 329.825
96.858, 533.047
98.251, 519.784
99.644, 746.494
101.036, 1010.363
102.428, 1129.948
103.820, 1426.506
105.212, 1789.902
106.604, 1757.711
107.995, 1948.148
109.387, 2230.067
110.777, 2462.727
112.168, 2975.648
113.559, 3248.527
114.949, 3682.658
116.339, 3802.982
117.729, 4023.457
119.119, 4252.455
120.508, 4392.660
121.897, 4349.152
123.286, 4211.995
124.675, 4081.639
126.063, 4128.457
127.452, 4032.769
128.840, 3804.854
130.228, 3624.957
131.615, 3383.293
133.003, 3470.062
134.390, 3155.441
135.777, 3139.586
137.164, 3152.632
138.550, 2924.695
139.937, 2980.523
141.323, 2751.702
142.709, 2970.959
144.094, 3064.204
145.480, 3252.725
146.865, 3222.836
148.250, 3405.108
149.635, 3479.949
151.019, 3516.191
152.403, 3498.374
153.788, 3321.354
155.171, 3232.551
156.555, 3153.999
157.939, 2965.675
159.322, 2837.536
160.705, 2589.545
162.088, 2531.674
163.470, 2333.931
164.853, 2196.322
166.235, 2078.861
167.617, 1851.552
168.998, 1954.400
170.380, 1637.412
171.761, 1670.590
173.142, 1423.983
174.523, 1337.648
175.904, 1191.597
177.284, 1055.835
178.664, 900.361
180.044, 815.165
181.424, 660.235
182.803, 605.560
184.183, 501.126
185.562, 466.921
186.940, 342.931
188.319, 319.138
189.698, 145.524
191.076, 132.078
192.454, 88.788
193.831, 94.354
195.209, 22.638
196.586, 170.238
197.963, 262.995
199.340, 95.649
200.717, 318.230
202.093, 270.768
203.470, 293.280
204.846, 235.769
206.221, 408.229
207.597, 230.664
208.972, 293.070
210.347, 225.446
211.722, 87.791
213.097, 110.104
214.472, 17.616
215.846, 53.789
217.220, 83.155
218.594, 170.977
219.967, 268.834
221.341, 386.726
222.714, 384.639
224.087, 442.495
225.460, 560.193
226.832, 577.562
228.204, 634.554
229.577, 671.154
230.948, 767.326
232.320, 823.178
233.692, 846.534
235.063, 814.692
236.434, 850.723
237.805, 856.963
239.175, 783.419
240.545, 810.104
241.916, 796.990
243.286, 814.097
244.655, 711.335
246.025, 858.750
247.394, 806.302
248.763, 884.069
250.132, 931.948
251.501, 949.902
252.869, 967.932
254.237, 987.881
255.605, 1068.349
256.973, 1130.097
258.340, 1152.453
259.708, 1225.253
261.075, 1408.384
262.442, 1571.766
263.808, 1635.328
265.175, 1829.027
266.541, 1992.824
267.907, 2226.693
269.273, 2430.601
270.639, 2484.514
272.004, 2688.410
273.369, 2752.279
274.734, 2816.112
276.099, 2909.903
277.463, 2955.002
278.828, 2990.190
280.192, 3061.016
281.556, 2924.593
282.919, 2958.047
284.283, 2701.340
285.646, 2574.465
287.009, 2397.439
288.372, 2270.277
289.734, 2052.992
291.097, 1975.597
292.459, 1884.754
293.821, 1760.161
295.183, 1772.857
296.544, 1605.120
297.905, 1527.316
299.266, 1499.453
300.627, 1341.533
301.988, 1313.564
303.348, 1365.549
304.709, 1267.465
306.069, 1309.153
307.428, 1330.533
308.788, 1291.464
310.147, 1231.799
311.507, 1351.615
312.865, 1200.863
314.224, 1239.660
315.583, 1308.248
316.941, 1316.821
318.299, 1356.815
319.657, 1356.809
321.015, 1402.771
322.372, 1321.510
323.729, 1330.288
325.086, 1279.108
326.443, 1317.970
327.800, 1216.870
329.156, 1285.810
330.512, 1254.787
331.868, 1173.804
333.224, 1232.856
334.579, 1311.945
335.935, 1251.070
337.290, 1280.229
338.645, 1269.421
339.999, 1318.646
341.354, 1217.901
342.708, 1277.188
344.062, 1326.502
345.416, 1355.845
346.769, 1505.213
348.123, 1424.605
349.476, 1624.023
350.829, 1663.463
352.182, 1692.926
353.534, 1841.762
354.887, 1870.462
356.239, 1988.282
357.591, 2226.361
358.942, 2331.855
360.294, 2405.443
361.645, 2513.340
362.996, 2663.365
364.347, 2816.559
365.698, 3054.358
367.048, 3410.868
368.398, 3801.109
369.748, 3870.770
371.098, 4081.572
372.448, 4698.998
373.797, 4863.479
375.146, 5463.989
376.495, 5822.883
377.844, 6230.998
379.192, 6791.173
380.540, 7311.500
381.889, 7968.699
383.236, 8643.467
384.584, 9402.648
385.932, 10226.822
387.279, 11147.910
388.626, 12446.499
389.973, 13120.095
391.319, 14766.843
392.666, 16237.392
394.012, 17537.340
395.358, 19460.432
396.704, 21094.814
398.049, 23037.355
399.394, 24424.975
400.740, 26092.646
402.084, 27303.346
403.429, 28112.369
404.774, 28394.586
406.118, 28538.066
407.462, 27692.236
408.806, 26923.322
410.150, 25624.113
411.493, 24007.832
412.836, 22318.656
414.179, 21150.609
415.522, 19121.717
416.865, 17854.416
418.207, 16514.789
419.549, 15235.161
420.891, 14165.182
422.233, 13026.218
423.575, 12137.013
424.916, 11297.345
426.257, 10397.665
427.598, 9967.970
428.939, 9088.260
430.279, 8648.537
431.619, 8248.799
432.959, 7739.043
434.299, 7519.272
435.639, 7109.485
436.978, 6869.682
438.318, 6839.865
439.657, 6390.029
440.996, 6500.180
442.334, 6260.314
443.673, 6560.436
445.011, 6569.129
446.349, 6660.628
447.687, 6900.705
449.024, 7050.769
450.361, 7400.817
451.699, 7740.857
453.036, 7840.883
454.372, 8130.897
455.709, 7970.899
457.045, 8090.894
458.381, 7860.873
459.717, 7580.842
461.053, 7300.803
462.388, 6610.753
463.724, 6370.691
465.059, 5730.619
466.394, 5410.537
467.728, 4890.445
469.063, 4690.346
470.397, 4320.241
471.731, 4150.131
473.065, 4090.020
474.398, 4099.908
475.732, 4029.803
477.065, 4229.698
478.398, 4309.597
479.731, 4769.500
481.063, 5389.407
482.396, 5899.314
483.728, 6809.225
485.060, 7659.137
486.391, 9149.051
487.723, 10488.965
489.054, 12158.881
490.385, 13788.796
491.716, 14948.713
493.047, 15248.948
494.377, 15658.545
495.708, 14608.458
497.038, 13068.372
498.368, 11488.283
499.697, 9478.197
501.027, 7968.459
502.356, 6428.648
503.685, 5218.592
505.014, 4158.632
506.342, 3588.625
507.671, 2948.532
508.999, 2428.646
510.327, 1978.729
511.655, 1698.902
512.982, 1329.295
514.310, 1179.655
515.637, 1069.779
516.964, 780.467
518.291, 700.450
519.617, 544.361
520.944, 481.538
522.270, 341.729
523.596, 284.723
524.921, 215.597
526.247, 177.584
527.572, 138.531
528.897, 99.446
530.222, 140.487
531.547, 32.037
532.871, 46.771
534.196, 44.668
535.520, 125.818
536.844, 172.300
538.167, 21.118
539.491, 170.034
540.814, 108.648
542.137, 67.554
543.460, 136.670
544.783, 55.842
546.105, 164.848
547.427, 123.985
548.749, 43.314
550.071, 92.504
551.393, 151.964
552.714, 141.282
554.035, 30.936
555.356, 50.476
556.677, 20.210
557.998, 99.984
559.318, 99.836
560.638, 60.230
561.958, 119.708
563.278, 169.605
564.597, 29.754
565.917, 39.916
567.236, 9.892
568.555, 69.675
569.874, 30.561
571.192, 69.155
572.511, 1.147
573.829, 18.554
575.147, 11.770
576.464, 228.253
577.782, 197.891
579.099, 137.511
580.416, 167.171
581.733, 86.759
583.050, 216.333
584.366, 215.889
585.683, 205.432
586.999, 325.009
588.315, 234.536
589.630, 444.045
590.946, 373.536
592.261, 393.009
593.576, 572.463
594.891, 591.899
596.206, 601.313
597.520, 710.711
598.834, 870.089
600.148, 799.501
601.462, 988.839
602.776, 1128.206
604.089, 1157.516
605.402, 1176.806
606.715, 1316.078
608.028, 1405.329
609.341, 1504.559
610.653, 1553.766
611.965, 1562.952
613.277, 1642.117
614.589, 1651.262
615.901, 1760.383
617.212, 1759.488
618.523, 1628.570
619.834, 1777.632
621.145, 1636.668
622.456, 1785.682
623.766, 1554.672
625.076, 1533.639
626.386, 1452.584
627.696, 1311.504
629.006, 1240.399
630.315, 1199.272
631.624, 1168.121
632.933, 1176.945
634.242, 1005.746
635.551, 934.521
636.859, 803.271
638.167, 801.992
639.475, 840.689
640.783, 619.360
642.090, 718.005
643.398, 576.622
644.705, 495.212
646.012, 623.773
647.318, 532.310
648.625, 420.820
649.931, 369.304
651.237, 447.759
652.543, 416.187
653.849, 304.585
655.155, 412.955
656.460, 301.820
657.765, 180.132
659.070, 199.070
660.375, 257.501
661.679, 236.178
662.984, 247.984
664.288, 273.769
665.592, 224.807
666.895, 233.913
668.199, 212.649
669.502, 161.740
670.805, 170.378
672.108, 229.317
673.411, 99.046
674.713, 357.621
676.016, 127.002
677.318, 195.605
678.620, 290.089
679.921, 11.208
681.223, 112.877
682.524, 187.506
683.825, 215.660
685.126, 244.055
686.427, 259.211
687.727, 159.317
689.028, 287.597
690.328, 247.970
691.628, 325.623
692.927, 165.540
694.227, 302.519
695.526, 338.729
696.825, 215.869
698.124, 270.923
699.423, 315.812
700.721, 296.125
702.020, 257.553
703.318, 254.087
704.616, 274.525
705.913, 249.222
707.211, 323.092
708.508, 230.111
709.805, 379.877
711.102, 244.301
712.399, 309.987
713.695, 365.023
714.992, 305.002
716.288, 474.691
717.584, 484.135
718.879, 232.484
720.175, 427.618
721.470, 328.902
722.765, 376.859
724.060, 403.176
725.355, 269.758
726.649, 413.336
727.944, 339.766
729.238, 343.680
730.532, 449.674
731.825, 174.233
733.119, 414.349
734.412, 340.720
735.705, 257.892
736.998, 434.058
738.291, 311.354
739.584, 307.570
740.876, 414.583
742.168, 261.036
743.460, 381.452
744.752, 297.685
746.043, 353.908
747.334, 319.666
748.626, 295.877
749.916, 381.871
751.207, 287.306
752.498, 325.381
753.788, 549.136
755.078, 265.062
756.368, 420.330
757.658, 266.159
758.947, 444.132
760.237, 309.273
761.526, 395.604
762.815, 440.738
764.104, 415.866
765.392, 361.071
766.680, 446.479
767.969, 351.465
769.257, 536.526
770.544, 381.584
771.832, 417.872
773.119, 502.591
774.406, 387.673
775.693, 482.330
776.980, 517.192
778.267, 391.741
779.553, 656.676
780.839, 391.141
782.125, 385.856
783.411, 540.235
784.697, 494.899
785.982, 729.477
787.267, 393.728
788.552, 448.420
789.837, 622.588
791.122, 416.770
792.406, 530.852
793.690, 464.892
794.974, 518.979
796.258, 442.933
797.542, 386.846
798.825, 490.716
800.108, 464.546
801.391, 468.406
802.674, 462.750
803.957, 426.453
805.239, 490.389
806.522, 314.007
807.804, 387.584
809.085, 421.119
810.367, 144.612
811.649, 348.059
812.930, 111.112
814.211, 224.192
815.492, 157.471
816.772, 130.609
818.053, 103.747
819.333, 3.076
820.613, 39.833
821.893, 102.726
823.173, 35.479
824.452, 107.964
825.732, 40.435
827.011, 13.097
828.290, 95.149
829.568, 17.909
830.847, 69.967
832.125, 67.738
833.403, 15.179
834.681, 26.196
835.959, 74.548
837.236, 117.283
838.514, 49.186
839.791, 98.845
841.068, 3.046
842.345, 145.548
843.621, 63.781
844.898, 77.729
846.174, 10.481
847.450, 30.566
848.726, 62.229
850.001, 13.935
851.277, 54.758
852.552, 13.266
853.827, 11.646
855.102, 110.074
856.376, 71.226
857.651, 7.442
858.925, 156.020
860.199, 34.850
861.473, 56.494
862.746, 22.405
864.020, 58.926
865.293, 29.923
866.566, 31.339
867.839, 22.572
869.112, 73.798
870.384, 34.981
871.656, 56.176
872.928, 57.201
874.200, 111.628
875.472, 70.546
876.744, 20.474
878.015, 21.460
879.286, 32.408
880.557, 33.335
881.828, 135.773
883.098, 55.015
884.369, 5.769
885.639, 53.888
886.909, 106.771
888.178, 12.604
889.448, 107.925
890.717, 21.528
891.987, 98.972
893.256, 10.562
894.524, 19.862
895.793, 69.800
897.061, 50.517
898.330, 40.801
899.598, 141.049
900.865, 21.267
902.133, 61.451
903.401, 221.603
904.668, 21.725
905.935, 81.815
907.202, 31.875
908.468, 181.850
909.735, 31.850
911.001, 48.231
912.267, 191.685
913.533, 18.427
914.799, 151.425
916.064, 141.250
917.330, 111.049
918.595, 50.818
919.860, 140.561
921.124, 110.276
922.389, 99.966
923.653, 30.370
924.918, 179.253
926.182, 58.853
927.445, 148.425
928.709, 87.974
929.972, 207.496
931.236, 46.996
932.499, 216.470
933.761, 75.921
935.024, 165.346
936.286, 64.748
937.549, 74.127
938.811, 183.480
940.073, 22.812
941.334, 252.120
942.596, 121.404
943.857, 170.669
945.118, 169.915
946.379, 109.142
947.640, 268.347
948.900, 227.532
950.161, 136.698
951.421, 355.846
952.681, 104.976
953.940, 5.915
955.200, 333.172
956.459, 52.240
957.719, 221.289
958.978, 220.320
960.236, 209.335
961.495, 218.332
962.753, 205.012
964.012, 165.758
965.270, 214.049
966.527, 262.801
967.785, 331.258
969.043, 289.594
970.300, 287.806
971.557, 253.766
972.814, 161.615
974.071, 369.787
975.327, 307.557
976.583, 385.731
977.840, 343.560
979.095, 250.549
980.351, 458.646
981.607, 375.891
982.862, 463.871
984.117, 475.924
985.372, 491.292
986.627, 526.051
987.882, 547.798
989.136, 555.973
990.390, 463.857
991.644, 674.160
992.898, 700.932
994.152, 498.409
995.405, 681.062
996.659, 629.111
997.912, 735.180
999.165, 583.021
1000.417, 721.010
1001.670, 628.615
1002.922, 672.092
1004.174, 708.211
1005.426, 584.473
1006.678, 704.593
1007.930, 762.669
1009.181, 709.326
1010.432, 866.720
1011.683, 751.757
1012.934, 879.831
1014.185, 775.740
1015.435, 713.828
1016.685, 779.342
1017.935, 907.326
1019.185, 715.278
1020.435, 883.457
1021.684, 868.821
1022.934, 896.941
1024.183, 1025.068
1025.432, 935.746
1026.680, 949.072
1027.929, 937.117
1029.177, 845.188
1030.425, 913.331
1031.673, 881.485
1032.921, 1090.996
1034.169, 989.273
1035.416, 1077.349
1036.663, 1032.159
1037.911, 1010.680
1039.157, 1068.135
1040.404, 1059.805
1041.650, 883.701
1042.897, 1122.236
1044.143, 989.979
1045.389, 1018.236
1046.634, 1062.513
1047.880, 900.933
1049.125, 1009.317
1050.371, 968.134
1051.615, 976.458
1052.860, 954.959
1054.105, 804.021
1055.349, 992.410
1056.593, 961.062
1057.837, 759.514
1059.081, 1018.583
1060.325, 967.074
1061.568, 1013.386
1062.812, 1012.483
1064.055, 900.388
1065.298, 989.445
1066.540, 858.469
1067.783, 867.375
1069.025, 1126.036
1070.267, 895.080
1071.509, 1034.018
1072.751, 1062.919
1073.993, 990.546
1075.234, 1119.703
1076.475, 1158.456
1077.716, 1177.594
1078.957, 1406.486
1080.198, 1245.652
1081.438, 1454.447
1082.679, 1483.615
1083.919, 1422.490
1085.159, 1721.659
1086.398, 1770.502
1087.638, 1809.400
1088.877, 2018.580
1090.116, 2077.281
1091.355, 2136.527
1092.594, 2185.813
1093.833, 2195.464
1095.071, 2324.920
1096.309, 2304.025
1097.547, 2423.759
1098.785, 2452.957
1100.023, 2432.427
1101.260, 2601.950
1102.498, 2612.881
1103.735, 2634.171
1104.972, 2809.445
1106.208, 2688.877
1107.445, 2898.473
1108.681, 3028.124
1109.918, 2797.455
1111.154, 2827.429
1112.389, 2946.639
1113.625, 2896.181
1114.860, 3215.573
1116.096, 3014.787
1117.331, 2893.122
1118.566, 3041.178
1119.800, 3123.889
1121.035, 3144.814
1122.269, 2916.703
1123.503, 3009.246
1124.737, 2973.867
1125.971, 3001.812
1127.205, 3041.217
1128.438, 2920.895
1129.671, 2980.379
1130.904, 2961.533
1132.137, 2880.970
1133.370, 2990.324
1134.602, 2890.084
1135.834, 2969.389
1137.066, 2889.901
1138.298, 2789.670
1139.530, 2689.497
1140.762, 2710.018
1141.993, 2679.934
1143.224, 2822.022
1144.455, 2551.912
1145.686, 2782.151
1146.917, 2652.963
1148.147, 2713.074
1149.377, 2683.201
1150.607, 2741.900
1151.837, 2642.868
1153.067, 2753.619
1154.296, 2864.436
1155.526, 2424.667
1156.755, 2649.188
1157.984, 2395.259
1159.213, 2615.207
1160.441, 2517.536
1161.670, 2448.304
1162.898, 2397.829
1164.126, 2418.602
1165.354, 2189.811
1166.581, 2100.473
1167.809, 2092.795
1169.036, 2142.924
1170.263, 2005.282
1171.490, 1835.771
1172.717, 1825.947
1173.943, 1713.119
1175.170, 1591.285
1176.396, 1755.412
1177.622, 1481.148
1178.848, 1281.746
1180.073, 1352.277
1181.299, 1407.887
1182.524, 1338.072
1183.749, 1348.995
1184.974, 1080.754
1186.199, 1171.416
1187.423, 1131.831
1188.648, 971.916
1189.872, 1017.080
1191.096, 857.032
1192.320, 966.818
1193.543, 841.934
1194.767, 711.880
1195.990, 781.749
1197.213, 652.624
1198.436, 653.110
1199.659, 603.540
1200.881, 573.437
1202.104, 682.734
1203.326, 623.707
1204.548, 403.992
1205.770, 533.759
1206.991, 419.607
1208.213, 389.829
1209.434, 599.103
1210.655, 367.464
1211.876, 346.735
1213.096, 476.525
1214.317, 256.681
1215.537, 325.955
1216.757, 385.621
1217.977, 377.935
1219.197, 317.185
1220.417, 226.727
1221.636, 216.458
1222.855, 355.693
1224.074, 195.893
1225.293, 425.112
1226.512, 304.983
1227.731, 154.281
1228.949, 293.473
1230.167, 272.673
1231.385, 311.849
1232.603, 191.013
1233.820, 262.136
1235.038, 220.300
1236.255, 240.843
1237.472, 170.722
1238.689, 149.820
1239.906, 78.910
1241.122, 128.183
1242.338, 257.238
1243.555, 66.854
1244.771, 245.797
1245.986, 134.722
1247.202, 123.812
1248.417, 242.638
1249.633, 71.433
1250.848, 240.290
1252.063, 88.968
1253.277, 117.608
1254.492, 106.226
1255.706, 184.806
1256.920, 33.865
1258.134, 302.357
1259.348, 140.823
1260.562, 179.544
1261.775, 247.771
1262.988, 5.964
1264.201, 314.099
1265.414, 142.164
1266.627, 50.293
1267.839, 198.684
1269.052, 306.690
1270.264, 84.604
1271.476, 162.348
1272.688, 200.021
1273.899, 137.688
1275.111, 185.191
1276.322, 17.400
1277.533, 199.960
1278.744, 227.202
1279.955, 134.602
1281.165, 253.258
1282.376, 10.341
1283.586, 147.973
1284.796, 134.950
1286.006, 158.125
1287.215, 134.028
1288.425, 19.188
1289.634, 157.512
1290.843, 74.154
1292.052, 10.733
1293.261, 107.383
1294.469, 103.834
1295.678, 119.773
1296.886, 6.519
1298.094, 22.745
1299.302, 18.910
1300.509, 95.008
1301.717, 48.965
1302.924, 72.953
1304.131, 172.897
1305.338, 11.312
1306.545, 34.396
1307.752, 370.035
1308.958, 35.615
1310.164, 11.276
1311.370, 46.729
1312.576, 7.880
1313.782, 127.413
1314.987, 7.364
1316.193, 67.673
1317.398, 112.644
1318.603, 82.450
1319.807, 97.644
1321.012, 32.938
1322.216, 58.317
1323.421, 56.213
1324.625, 62.933
1325.829, 54.938
1327.032, 109.361
1328.236, 33.584
1329.439, 7.733
1330.642, 52.433
1331.845, 76.449
1333.048, 120.403
1334.251, 45.697
1335.453, 121.874
1336.656, 181.855
1337.858, 44.518
1339.060, 139.036
1340.261, 152.539
1341.463, 36.003
1342.664, 59.446
1343.866, 62.924
1345.067, 118.780
1346.267, 279.439
1347.468, 37.621
1348.669, 85.710
1349.869, 173.730
1351.069, 48.319
1352.269, 99.591
1353.469, 387.456
1354.668, 84.728
1355.868, 313.051
1357.067, 180.790
1358.266, 118.424
1359.465, 306.085
1360.664, 213.713
1361.862, 21.285
1363.061, 428.746
1364.259, 245.514
1365.457, 202.643
1366.655, 389.396
1367.852, 126.029
1369.050, 432.650
1370.247, 169.291
1371.444, 305.468
1372.641, 331.517
1373.838, 328.207
1375.035, 345.049
1376.231, 380.809
1377.427, 76.334
1378.623, 453.086
1379.819, 238.729
1381.015, 174.795
1382.211, 438.707
1383.406, 425.121
1384.601, 301.211
1385.796, 575.637
1386.991, 185.619
1388.185, 437.391
1389.380, 561.895
1390.574, 295.170
1391.768, 376.449
1392.962, 378.207
1394.156, 310.936
1395.350, 418.686
1396.543, 329.238
1397.736, 322.814
1398.929, 473.562
1400.122, 192.480
1401.315, 381.994
1402.507, 514.379
1403.700, 201.520
1404.892, 327.350
1406.084, 367.984
1407.276, 270.145
1408.467, 337.527
1409.659, 247.586
1410.850, 159.551
1412.041, 207.826
1413.232, 203.609
1414.423, 232.787
1415.614, 271.305
1416.804, 192.570
1417.994, 319.379
1419.184, 286.553
1420.374, 216.156
1421.564, 307.607
1422.753, 135.213
1423.943, 14.676
1425.132, 517.689
1426.321, 55.506
1427.510, 302.496
1428.698, 329.844
1429.887, 51.793
1431.075, 466.406
1432.263, 339.111
1433.451, 185.330
1434.639, 430.217
1435.827, 116.154
1437.014, 350.545
1438.201, 376.561
1439.388, 301.758
1440.575, 297.039
1441.762, 332.637
1442.949, 167.865
1444.135, 491.088
1445.321, 94.627
1446.507, 239.951
1447.693, 365.189
1448.879, 108.301
1450.064, 272.678
1451.250, 328.055
1452.435, 53.475
1453.620, 189.566
1454.805, 275.176
1455.989, 214.541
1457.174, 117.723
1458.358, 236.510
1459.542, 161.053
1460.726, 435.537
1461.910, 119.160
1463.093, 223.387
1464.277, 477.471
1465.460, 51.453
1466.643, 294.885
1467.826, 208.688
1469.009, 132.383
1470.191, 134.488
1471.373, 177.600
1472.556, 18.090
1473.738, 417.373
1474.919, 133.078
1476.101, 139.080
1477.283, 245.596
1478.464, 152.961
1479.645, 138.152
1480.826, 185.113
1482.007, 52.137
1483.187, 70.904
1484.368, 4.797
1485.548, 0.000
##END=



