##NAMES=Stellerite
##RRUFFID=R040174
##IDEAL CHEMISTRY=Ca_4_(Si_28_Al_8_)O_72_&#183;28H_2_O
##LOCALITY=unknown
##OWNER=RRUFF
##SOURCE=University of Arizona Mineral Museum
##DESCRIPTION=Parallel aggregates of thin tabular brown crystals
##STATUS=The identification of this mineral has been confirmed by X-ray diffraction and chemical analysis
##URL=rruff.info/R040174
##MEASURED CHEMISTRY=(Ca_3.89_Na_0.06_K_0.05_)_Σ=4_(Si_28.11_Al_7.89_)O_72_·15.18H_2_O; H_2_O estimated by difference
##PIN_ID=L00419
##ORIENTATION=Laser parallel to -b* (0 -1 0). Fiducial mark perpendicular to laser is parallel to -c [0 0 -1]
97.628, 0.000
99.023, 25.074
100.418, 2.392
101.812, 389.613
103.206, 635.687
104.600, 1001.492
105.994, 1502.979
107.387, 1961.217
108.781, 2270.412
110.174, 2626.494
111.566, 3056.331
112.959, 3537.384
114.351, 3797.650
115.744, 4225.854
117.136, 4271.277
118.527, 4273.059
119.919, 3910.462
121.310, 3872.875
122.701, 3869.576
124.092, 3969.785
125.482, 3692.854
126.873, 3568.272
128.263, 3705.646
129.653, 3564.660
131.042, 3655.612
132.432, 3558.868
133.821, 3505.645
135.210, 3625.525
136.599, 3927.340
137.987, 3980.600
139.376, 4315.381
140.764, 4481.773
142.152, 4629.808
143.539, 4959.248
144.927, 5259.405
146.314, 5679.522
147.701, 5889.057
149.088, 6017.889
150.474, 6246.035
151.861, 6203.562
153.247, 6290.537
154.633, 6017.013
156.018, 5943.037
157.404, 5598.652
158.789, 5433.894
160.174, 5018.793
161.559, 4603.375
162.943, 4515.167
164.327, 4036.342
165.711, 3676.799
167.095, 3450.535
168.479, 3135.459
169.862, 3059.559
171.246, 2731.462
172.628, 2558.553
174.011, 2493.062
175.394, 2320.806
176.776, 2084.778
178.158, 1797.229
179.540, 1836.474
180.922, 1657.046
182.303, 1477.932
183.684, 1402.466
185.065, 1311.620
186.446, 1344.940
187.826, 1205.924
189.207, 1157.699
190.587, 1057.018
191.967, 1011.842
193.346, 919.959
194.726, 877.370
196.105, 815.806
197.484, 652.627
198.862, 727.405
200.241, 552.072
201.619, 556.910
202.997, 501.932
204.375, 437.124
205.753, 402.479
207.130, 257.983
208.507, 363.632
209.884, 369.414
211.261, 275.323
212.638, 231.350
214.014, 247.487
215.390, 153.727
216.766, 140.056
218.141, 76.460
219.517, 152.931
220.892, 105.329
222.267, 123.496
223.642, 62.655
225.016, 109.306
226.391, 45.979
227.765, 47.330
229.139, 29.374
230.512, 43.911
231.886, 32.813
233.259, 40.450
234.632, 43.704
236.005, 176.949
237.377, 120.187
238.749, 153.410
240.122, 116.618
241.493, 89.782
242.865, 232.840
244.237, 75.725
245.608, 48.561
246.979, 141.393
248.350, 44.231
249.720, 127.072
251.090, 30.045
252.461, 83.078
253.830, 96.224
255.200, 79.450
256.570, 42.735
257.939, 26.077
259.308, 109.522
260.677, 123.032
262.045, 26.645
263.414, 128.564
264.782, 117.240
266.150, 143.875
267.517, 119.026
268.885, 83.064
270.252, 86.222
271.619, 188.670
272.986, 40.562
274.353, 211.968
275.719, 133.006
277.085, 123.726
278.451, 134.181
279.817, 24.417
281.182, 114.450
282.548, 14.335
283.913, 44.080
285.278, 23.721
286.642, 23.277
288.007, 37.230
289.371, 77.797
290.735, 108.416
292.099, 59.077
293.462, 139.765
294.826, 90.480
296.189, 171.208
297.552, 161.943
298.914, 302.668
300.277, 193.370
301.639, 384.041
303.001, 374.671
304.363, 355.256
305.724, 495.786
307.086, 556.255
308.447, 644.735
309.808, 786.984
311.168, 867.241
312.529, 907.430
313.889, 1037.550
315.249, 1067.607
316.609, 1177.603
317.969, 1117.540
319.328, 1187.419
320.687, 1207.244
322.046, 1147.016
323.405, 1076.735
324.764, 1166.404
326.122, 1006.024
327.480, 1035.559
328.838, 1035.007
330.196, 874.374
331.553, 873.556
332.910, 832.532
334.267, 891.342
335.624, 779.933
336.981, 798.368
338.337, 726.661
339.693, 684.840
341.049, 692.876
342.405, 590.822
343.760, 628.608
345.116, 546.270
346.471, 543.767
347.826, 671.122
349.180, 528.309
350.535, 535.332
351.889, 622.190
353.243, 618.922
354.597, 685.534
355.950, 652.055
357.304, 708.510
358.657, 664.949
360.010, 861.368
361.362, 747.773
362.715, 874.177
364.067, 1020.609
365.419, 1097.038
366.771, 1273.464
368.123, 1319.884
369.474, 1596.307
370.825, 1622.720
372.176, 1709.123
373.527, 1945.521
374.877, 2211.943
376.228, 2388.354
377.578, 2485.521
378.928, 2622.080
380.277, 2798.465
381.627, 2886.568
382.976, 3006.345
384.325, 3169.795
385.674, 3358.926
387.023, 3640.625
388.371, 3868.537
389.719, 4010.133
391.067, 4264.664
392.415, 4684.271
393.762, 4857.844
395.110, 5194.039
396.457, 5733.473
397.804, 6213.627
399.150, 6590.543
400.497, 7030.508
401.843, 7661.811
403.189, 8263.425
404.535, 8912.396
405.881, 9527.175
407.226, 10059.664
408.571, 10183.370
409.916, 10611.867
411.261, 10417.939
412.605, 10469.150
413.950, 10024.521
415.294, 9595.849
416.638, 9245.188
417.981, 8676.309
419.325, 8008.408
420.668, 7543.805
422.011, 7012.590
423.354, 6580.557
424.697, 6083.305
426.039, 5688.217
427.381, 5248.259
428.723, 4934.535
430.065, 4631.892
431.406, 4291.297
432.748, 4000.186
434.089, 3523.229
435.430, 3494.133
436.770, 3155.510
438.111, 2820.967
439.451, 2856.717
440.791, 2601.680
442.131, 2382.392
443.471, 2337.984
444.810, 2128.797
446.149, 1997.768
447.488, 2137.620
448.827, 2057.271
450.166, 2009.803
451.504, 2093.598
452.842, 2068.024
454.180, 2000.798
455.518, 2115.535
456.855, 2129.006
458.193, 2233.908
459.530, 2248.599
460.867, 2183.447
462.203, 2158.237
463.540, 2082.998
464.876, 1887.714
466.212, 1932.385
467.548, 1807.010
468.883, 1841.593
470.219, 1806.130
471.554, 1620.624
472.889, 1595.072
474.224, 1739.479
475.558, 1773.842
476.892, 1828.160
478.227, 1882.436
479.561, 2196.669
480.894, 2310.859
482.228, 2565.006
483.561, 2649.110
484.894, 3373.171
486.227, 3637.190
487.559, 4151.166
488.892, 4865.101
490.224, 5638.992
491.556, 6532.844
492.888, 7556.650
494.220, 8080.420
495.551, 8884.149
496.882, 9157.840
498.213, 9141.490
499.544, 8325.105
500.874, 7768.705
502.205, 6692.561
503.535, 5836.721
504.865, 4870.189
506.194, 4044.729
507.524, 3398.536
508.853, 2913.005
510.182, 2317.440
511.511, 2021.277
512.840, 1805.128
514.168, 1609.109
515.496, 1303.937
516.824, 1128.582
518.152, 1013.519
519.480, 878.593
520.807, 1003.036
522.134, 657.889
523.461, 629.867
524.788, 673.977
526.114, 468.747
527.441, 482.613
528.767, 478.976
530.093, 382.871
531.418, 386.403
532.744, 371.437
534.069, 232.911
535.394, 287.187
536.719, 142.153
538.044, 185.543
539.368, 209.902
540.693, 73.401
542.017, 36.902
543.340, 39.507
544.664, 43.915
545.987, 172.784
547.311, 90.296
548.634, 13.304
549.956, 108.644
551.279, 21.362
552.601, 175.158
553.923, 337.633
555.245, 29.812
556.567, 44.593
557.889, 147.676
559.210, 130.224
560.531, 2.943
561.852, 44.737
563.173, 72.280
564.493, 60.202
565.813, 83.550
567.133, 85.890
568.453, 107.873
569.773, 0.216
571.092, 11.913
572.412, 33.859
573.731, 95.865
575.049, 297.224
576.368, 110.613
577.686, 192.015
579.005, 23.740
580.323, 156.326
581.640, 157.585
582.958, 178.911
584.275, 220.392
585.593, 321.940
586.909, 213.404
588.226, 284.693
589.543, 185.981
590.859, 227.267
592.175, 268.543
593.491, 369.839
594.807, 351.131
596.122, 422.444
597.438, 303.768
598.753, 475.110
600.068, 466.461
601.382, 467.797
602.697, 549.140
604.011, 450.470
605.325, 661.789
606.639, 763.095
607.952, 724.388
609.266, 695.655
610.579, 856.915
611.892, 888.139
613.205, 989.342
614.518, 990.509
615.830, 1041.652
617.142, 1032.760
618.454, 1183.830
619.766, 1214.877
621.078, 1165.888
622.389, 1076.861
623.700, 1167.804
625.011, 1338.709
626.322, 1159.583
627.632, 1180.420
628.943, 1191.220
630.253, 1122.001
631.563, 1142.746
632.872, 903.456
634.182, 974.127
635.491, 864.762
636.800, 865.365
638.109, 895.932
639.418, 746.464
640.726, 676.959
642.035, 673.007
643.343, 637.844
644.651, 668.233
645.958, 588.587
647.266, 638.902
648.573, 639.181
649.880, 419.428
651.187, 549.639
652.494, 419.812
653.800, 509.949
655.106, 290.049
656.412, 320.111
657.718, 280.137
659.024, 210.126
660.329, 140.092
661.634, 290.016
662.939, 89.900
664.244, 189.762
665.549, 89.582
666.853, 89.359
668.157, 159.091
669.461, 148.782
670.765, 128.432
672.069, 48.038
673.372, 58.312
674.675, 37.099
675.978, 26.553
677.281, 65.953
678.583, 35.306
679.886, 105.396
681.188, 83.791
682.490, 33.138
683.792, 102.225
685.093, 18.732
686.394, 90.243
687.696, 129.173
688.997, 8.061
690.297, 103.108
691.598, 45.769
692.898, 4.784
694.198, 123.090
695.498, 31.928
696.798, 101.109
698.097, 93.055
699.397, 73.922
700.696, 75.193
701.995, 83.773
703.293, 76.677
704.592, 16.518
705.890, 16.359
707.188, 93.356
708.486, 1.432
709.784, 116.365
711.081, 94.386
712.378, 33.614
713.675, 107.288
714.972, 64.912
716.269, 42.098
717.565, 206.160
718.862, 11.711
720.158, 40.861
721.453, 11.128
722.749, 54.953
724.045, 111.496
725.340, 49.251
726.635, 162.952
727.930, 101.579
729.224, 78.756
730.519, 275.169
731.813, 16.938
733.107, 209.608
734.401, 126.746
735.694, 1.283
736.988, 258.506
738.281, 205.517
739.574, 162.524
740.867, 154.700
742.160, 189.735
743.452, 287.195
744.744, 274.632
746.036, 322.705
747.328, 329.786
748.620, 407.105
749.911, 366.776
751.202, 483.738
752.493, 490.982
753.784, 461.042
755.075, 678.136
756.365, 584.837
757.655, 612.660
758.945, 609.718
760.235, 603.315
761.525, 712.879
762.814, 659.407
764.103, 756.250
765.392, 837.593
766.681, 734.204
767.969, 861.785
769.258, 1048.141
770.546, 936.240
771.834, 1052.555
773.122, 1089.109
774.409, 1238.612
775.697, 1225.104
776.984, 1251.500
778.271, 1389.351
779.558, 1425.517
780.844, 1582.982
782.131, 1649.044
783.417, 1765.306
784.703, 1995.852
785.989, 1922.262
787.274, 2088.367
788.560, 2084.215
789.845, 2260.020
791.130, 2357.367
792.415, 2303.184
793.699, 2419.764
794.983, 2515.522
796.268, 2461.160
797.552, 2588.063
798.835, 2483.758
800.119, 2709.295
801.402, 2454.802
802.686, 2490.274
803.969, 2497.187
805.251, 2382.595
806.534, 2158.032
807.816, 2103.375
809.098, 1918.686
810.380, 1913.963
811.662, 1389.249
812.944, 1534.440
814.225, 1162.970
815.506, 997.465
816.787, 1072.584
818.068, 821.364
819.349, 546.012
820.629, 660.611
821.909, 544.619
823.189, 419.039
824.469, 483.556
825.749, 417.708
827.028, 350.949
828.307, 394.311
829.586, 327.319
830.865, 280.129
832.144, 233.508
833.422, 206.417
834.700, 242.139
835.978, 145.670
837.256, 268.478
838.534, 242.128
839.811, 293.222
841.088, 284.081
842.365, 241.462
843.642, 222.764
844.919, 138.501
846.195, 91.378
847.472, 63.500
848.748, 67.134
850.023, 9.736
851.299, 23.134
852.575, 56.458
853.850, 179.617
855.125, 37.146
856.400, 186.124
857.674, 119.491
858.949, 201.122
860.223, 133.820
861.497, 37.348
862.771, 149.723
864.045, 153.374
865.318, 116.886
866.591, 137.663
867.864, 61.317
869.137, 104.673
870.410, 97.826
871.682, 81.867
872.955, 174.683
874.227, 32.070
875.499, 280.292
876.770, 33.620
878.042, 12.741
879.313, 310.509
880.584, 65.652
881.855, 32.118
883.126, 71.294
884.396, 9.336
885.667, 78.589
886.937, 118.425
888.207, 128.246
889.476, 18.625
890.746, 63.345
892.015, 95.178
893.284, 81.165
894.553, 127.620
895.822, 15.960
897.090, 19.698
898.359, 16.583
899.627, 67.108
900.895, 20.783
902.163, 45.562
903.430, 88.052
904.698, 11.650
905.965, 54.771
907.232, 28.764
908.499, 142.280
909.765, 14.217
911.032, 9.261
912.298, 202.721
913.564, 376.165
914.830, 212.998
916.095, 23.015
917.361, 83.584
918.626, 59.762
919.891, 16.908
921.156, 126.398
922.420, 30.309
923.685, 92.956
924.949, 26.209
926.213, 60.555
927.477, 22.641
928.740, 35.822
930.004, 31.009
931.267, 72.131
932.530, 24.741
933.793, 78.364
935.056, 21.457
936.318, 85.462
937.581, 2.434
938.843, 30.579
940.104, 83.582
941.366, 136.576
942.628, 30.440
943.889, 62.518
945.150, 14.531
946.411, 58.400
947.672, 111.322
948.932, 25.764
950.193, 47.127
951.453, 140.012
952.713, 102.885
953.973, 145.754
955.232, 31.387
956.491, 151.451
957.751, 54.283
959.010, 127.105
960.268, 209.922
961.527, 82.730
962.785, 55.533
964.044, 188.332
965.302, 78.875
966.559, 183.879
967.817, 156.631
969.075, 100.621
970.332, 182.080
971.589, 15.221
972.846, 27.471
974.102, 80.162
975.359, 12.854
976.615, 55.537
977.871, 168.221
979.127, 200.906
980.383, 113.594
981.638, 296.289
982.893, 148.984
984.149, 371.732
985.404, 304.486
986.658, 267.275
987.913, 369.863
989.167, 202.664
990.421, 455.469
991.675, 378.287
992.929, 441.109
994.183, 343.949
995.436, 496.799
996.689, 469.529
997.942, 472.074
999.195, 574.523
1000.448, 546.990
1001.700, 669.236
1002.952, 771.545
1004.204, 514.002
1005.456, 636.965
1006.708, 466.879
1007.959, 509.873
1009.210, 642.691
1010.461, 445.695
1011.712, 578.637
1012.963, 661.186
1014.213, 734.225
1015.464, 817.287
1016.714, 460.207
1017.964, 743.246
1019.214, 845.973
1020.463, 628.891
1021.712, 801.789
1022.962, 704.631
1024.210, 817.740
1025.459, 848.471
1026.708, 808.400
1027.956, 984.273
1029.204, 796.092
1030.452, 769.223
1031.700, 817.961
1032.948, 928.807
1034.195, 721.682
1035.442, 854.305
1036.689, 607.234
1037.936, 920.336
1039.183, 793.502
1040.429, 706.219
1041.676, 839.180
1042.922, 802.285
1044.168, 810.359
1045.413, 755.572
1046.659, 808.398
1047.904, 731.246
1049.149, 813.230
1050.394, 886.344
1051.639, 909.277
1052.884, 759.828
1054.128, 863.055
1055.372, 855.977
1056.616, 686.049
1057.860, 779.055
1059.104, 892.426
1060.347, 664.641
1061.590, 727.596
1062.833, 651.023
1064.076, 674.424
1065.319, 767.834
1066.561, 660.896
1067.803, 759.428
1069.046, 512.662
1070.287, 814.891
1071.529, 568.312
1072.771, 699.955
1074.012, 673.350
1075.253, 736.582
1076.494, 716.719
1077.735, 799.832
1078.975, 733.055
1080.216, 794.793
1081.456, 808.182
1082.696, 600.279
1083.936, 1023.750
1085.175, 806.988
1086.415, 715.910
1087.654, 1008.938
1088.893, 762.531
1090.132, 1116.092
1091.371, 919.662
1092.609, 1191.664
1093.847, 1167.080
1095.085, 1170.934
1096.323, 1121.355
1097.561, 1224.936
1098.799, 1167.219
1100.036, 1230.682
1101.273, 1194.266
1102.510, 1178.172
1103.747, 1371.766
1104.983, 1333.889
1106.220, 1617.488
1107.456, 1341.023
1108.692, 1384.994
1109.928, 1598.625
1111.163, 1492.227
1112.399, 1656.648
1113.634, 1690.258
1114.869, 1480.203
1116.104, 1723.982
1117.339, 1767.801
1118.573, 1616.615
1119.808, 1850.232
1121.042, 1813.168
1122.276, 2407.520
1123.509, 2241.152
1124.743, 2074.609
1125.976, 1848.410
1127.210, 1792.043
1128.443, 1795.879
1129.675, 1742.617
1130.908, 1757.422
1132.141, 1798.391
1133.373, 1773.127
1134.605, 1776.770
1135.837, 1721.490
1137.068, 1825.684
1138.300, 1699.871
1139.531, 2094.305
1140.762, 1638.473
1141.993, 1646.209
1143.224, 1930.377
1144.455, 1424.707
1145.685, 2109.455
1146.915, 1593.076
1148.145, 1556.975
1149.375, 1791.791
1150.605, 1545.406
1151.834, 1559.336
1153.063, 1612.703
1154.292, 1436.330
1155.521, 1645.859
1156.750, 1449.611
1157.978, 1423.482
1159.207, 1334.170
1160.435, 1358.949
1161.663, 1373.723
1162.891, 1328.488
1164.118, 1233.248
1165.345, 1397.760
1166.573, 1072.510
1167.800, 1076.822
1169.026, 1511.082
1170.253, 1125.732
1171.480, 909.645
1172.706, 1093.715
1173.932, 977.367
1175.158, 1042.004
1176.383, 816.102
1177.609, 1029.555
1178.834, 963.848
1180.059, 698.324
1181.284, 992.211
1182.509, 746.688
1183.734, 690.432
1184.958, 864.988
1186.182, 622.070
1187.406, 885.953
1188.630, 761.285
1189.854, 587.252
1191.077, 661.064
1192.301, 582.184
1193.524, 596.197
1194.747, 560.242
1195.969, 467.865
1197.192, 621.602
1198.414, 256.557
1199.636, 370.793
1200.858, 474.801
1202.080, 549.867
1203.302, 223.602
1204.523, 367.770
1205.744, 302.297
1206.966, 435.887
1208.186, 280.594
1209.407, 128.523
1210.628, 241.670
1211.848, 237.924
1213.068, 271.029
1214.288, 404.926
1215.508, 229.410
1216.727, 332.475
1217.947, 385.568
1219.166, 229.150
1220.385, 452.166
1221.604, 125.162
1222.822, 228.137
1224.041, 491.104
1225.259, 975.588
1226.477, 509.121
1227.695, 422.441
1228.913, 185.400
1230.130, 358.535
1231.348, 245.799
1232.565, 435.666
1233.782, 298.535
1234.999, 129.051
1236.215, 222.746
1237.432, 626.195
1238.648, 220.213
1239.864, 313.047
1241.080, 415.896
1242.296, 248.992
1243.511, 331.801
1244.726, 264.598
1245.942, 238.053
1247.156, 420.832
1248.371, 135.121
1249.586, 517.883
1250.800, 260.625
1252.014, 224.047
1253.228, 436.771
1254.442, 129.428
1255.656, 212.521
1256.869, 485.137
1258.083, 17.729
1259.296, 311.346
1260.509, 373.879
1261.722, 187.008
1262.934, 179.516
1264.147, 262.004
1265.359, 245.461
1266.571, 297.852
1267.783, 30.514
1268.994, 345.643
1270.206, 347.912
1271.417, 200.154
1272.628, 462.934
1273.839, 195.123
1275.050, 158.004
1276.260, 480.289
1277.471, 157.600
1278.681, 17.201
1279.891, 339.205
1281.101, 21.498
1282.310, 123.500
1283.520, 125.301
1284.729, 67.305
1285.938, 131.352
1287.147, 38.949
1288.356, 134.156
1289.564, 95.609
1290.773, 27.021
1291.981, 308.477
1293.189, 199.781
1294.397, 21.037
1295.604, 353.150
1296.812, 194.330
1298.019, 124.521
1299.226, 266.559
1300.433, 62.482
1301.640, 238.412
1302.846, 209.189
1304.053, 80.078
1305.259, 30.523
1306.465, 31.072
1307.671, 31.572
1308.876, 32.027
1310.082, 61.453
1311.287, 32.809
1312.492, 93.113
1313.697, 103.369
1314.902, 43.580
1316.106, 183.738
1317.310, 143.844
1318.515, 243.893
1319.719, 43.900
1320.922, 133.848
1322.126, 293.707
1323.329, 83.520
1324.533, 63.277
1325.736, 182.971
1326.939, 62.576
1328.141, 212.123
1329.344, 51.613
1330.546, 18.959
1331.748, 170.379
1332.950, 150.338
1334.152, 1.154
1335.354, 177.951
1336.555, 82.994
1337.757, 135.973
1338.958, 124.889
1340.159, 186.248
1341.359, 192.508
1342.560, 21.211
1343.760, 79.861
1344.960, 118.459
1346.160, 17.002
1347.360, 175.488
1348.560, 83.926
1349.759, 42.309
1350.959, 200.645
1352.158, 28.934
1353.357, 32.826
1354.555, 365.322
1355.754, 6.537
1356.952, 321.553
1358.151, 99.607
1359.349, 37.627
1360.546, 335.607
1361.744, 284.258
1362.941, 162.188
1364.139, 390.096
1365.336, 658.152
1366.533, 317.457
1367.730, 353.791
1368.926, 138.412
1370.123, 149.299
1371.319, 198.320
1372.515, 114.008
1373.711, 232.283
1374.906, 343.723
1376.102, 45.125
1377.297, 316.154
1378.492, 72.586
1379.687, 108.635
1380.882, 159.820
1382.077, 70.975
1383.271, 481.748
1384.465, 302.814
1385.659, 243.844
1386.853, 474.396
1388.047, 324.395
1389.240, 155.291
1390.434, 335.729
1391.627, 56.541
1392.820, 316.328
1394.013, 537.029
1395.205, 157.492
1396.398, 667.434
1397.590, 744.500
1398.782, 203.545
1399.974, 601.861
1401.166, 340.451
1402.357, 94.848
1403.549, 583.373
1404.740, 171.980
1405.931, 390.059
1407.122, 319.574
1408.313, 96.549
1409.503, 398.162
1410.693, 217.799
1411.883, 3.975
1413.073, 480.033
1414.263, 366.303
1415.453, 163.393
1416.642, 600.365
1417.831, 128.420
1419.020, 264.889
1420.209, 372.680
1421.398, 9.492
1422.587, 326.381
1423.775, 217.850
1424.963, 247.184
1426.151, 630.828
1427.339, 205.758
1428.526, 109.631
1429.714, 514.111
1430.901, 9.121
1432.088, 342.977
1433.275, 446.803
1434.462, 231.062
1435.648, 610.148
1436.835, 321.887
1438.021, 55.104
1439.207, 542.180
1440.393, 308.256
1441.579, 545.314
1442.764, 599.920
1443.949, 254.529
1445.135, 830.316
1446.320, 623.488
1447.504, 213.387
1448.689, 795.660
1449.873, 568.170
1451.058, 502.289
1452.242, 706.828
1453.426, 559.615
1454.609, 650.094
1455.793, 942.162
1456.976, 405.676
1458.159, 807.955
1459.342, 788.484
1460.525, 569.900
1461.708, 942.564
1462.890, 812.561
1464.073, 636.605
1465.255, 858.938
1466.437, 509.412
1467.619, 568.645
1468.800, 1011.707
1469.982, 281.643
1471.163, 742.385
1472.344, 791.088
1473.525, 487.318
1474.706, 718.652
1475.886, 629.584
1477.066, 117.469
1478.247, 958.268
1479.427, 289.031
1480.607, 330.184
1481.786, 621.734
1482.966, 273.445
1484.145, 454.979
1485.324, 586.410
1486.503, 467.775
1487.682, 619.057
1488.860, 630.297
1490.039, 111.723
1491.217, 533.293
1492.395, 385.223
1493.573, 197.514
1494.751, 510.213
1495.928, 313.217
1497.106, 226.658
1498.283, 320.412
1499.460, 144.453
1500.637, 268.838
1501.814, 373.680
1502.990, 10.879
1504.166, 415.270
1505.342, 372.191
1506.518, 69.977
1507.694, 378.770
1508.870, 188.832
1510.045, 291.939
1511.221, 404.461
1512.396, 1.404
1513.571, 386.301
1514.745, 0.000
##END=



