##NAMES=Stellerite
##RRUFFID=R040174
##IDEAL CHEMISTRY=Ca_4_(Si_28_Al_8_)O_72_&#183;28H_2_O
##LOCALITY=unknown
##OWNER=RRUFF
##SOURCE=University of Arizona Mineral Museum
##DESCRIPTION=Parallel aggregates of thin tabular brown crystals
##STATUS=The identification of this mineral has been confirmed by X-ray diffraction and chemical analysis
##URL=rruff.info/R040174
##MEASURED CHEMISTRY=(Ca_3.89_Na_0.06_K_0.05_)_Σ=4_(Si_28.11_Al_7.89_)O_72_·15.18H_2_O; H_2_O estimated by difference
##PIN_ID=M00192
##ORIENTATION=Laser parallel to (1 0 1). Fiducial mark perpendicular to laser is parallel to b [0 1 0]
80.125, 0.000
81.521, 60.961
82.916, 17.296
84.311, 467.825
85.706, 511.746
87.101, 1250.559
88.496, 914.232
89.890, 1197.328
91.284, 1556.097
92.678, 1397.627
94.071, 1569.272
95.465, 1658.851
96.858, 1864.723
98.251, 1916.227
99.644, 1893.682
101.036, 2097.117
102.428, 2075.470
103.820, 2557.393
105.212, 2671.856
106.604, 2588.106
107.995, 2585.595
109.387, 2593.922
110.777, 2752.790
112.168, 2761.998
113.559, 2762.589
114.949, 2725.889
116.339, 2523.394
117.729, 2437.377
119.119, 2286.730
120.508, 2449.677
121.897, 2284.064
123.286, 2296.521
124.675, 2446.592
126.063, 2724.587
127.452, 2750.513
128.840, 3234.479
130.228, 3416.675
131.615, 3717.270
133.003, 4326.408
134.390, 4734.219
135.777, 5430.815
137.164, 6216.295
138.550, 6850.747
139.937, 7624.252
141.323, 8086.872
142.709, 9248.668
144.094, 9750.091
145.480, 10464.734
146.865, 10784.564
148.250, 11153.184
149.635, 11237.624
151.019, 11007.314
152.403, 11060.727
153.788, 10323.942
155.171, 10072.705
156.555, 9528.699
157.939, 8823.528
159.322, 8533.981
160.705, 7872.300
162.088, 7265.503
163.470, 6856.119
164.853, 6213.271
166.235, 5775.930
167.617, 5369.347
168.998, 5051.726
170.380, 4644.685
171.761, 4281.086
173.142, 3943.629
174.523, 3644.803
175.904, 3376.239
177.284, 3187.925
178.664, 2779.844
180.044, 2691.985
181.424, 2394.335
182.803, 2276.877
184.183, 2129.594
185.562, 1922.471
186.940, 1725.490
188.319, 1698.641
189.698, 1371.908
191.076, 1435.285
192.454, 1068.758
193.831, 902.321
195.209, 965.966
196.586, 809.682
197.963, 653.457
199.340, 607.272
200.717, 511.106
202.093, 414.938
203.470, 348.744
204.846, 342.515
206.221, 206.243
207.597, 199.933
208.972, 63.581
210.347, 57.191
211.722, 130.763
213.097, 25.701
214.472, 12.202
215.846, 58.739
217.220, 34.692
218.594, 22.820
219.967, 148.541
221.341, 95.202
222.714, 141.892
224.087, 218.607
225.460, 315.351
226.832, 282.122
228.204, 298.967
229.577, 225.901
230.948, 293.020
232.320, 240.286
233.692, 247.811
235.063, 305.637
236.434, 223.902
237.805, 172.589
239.175, 241.675
240.545, 241.143
241.916, 150.949
243.286, 161.062
244.655, 61.381
246.025, 9.157
247.394, 85.075
248.763, 60.554
250.132, 117.196
251.501, 124.598
252.869, 152.578
254.237, 101.004
255.605, 129.801
256.973, 188.872
258.340, 58.153
259.708, 217.591
261.075, 137.151
262.442, 296.814
263.808, 166.547
265.175, 266.312
266.541, 406.084
267.907, 405.842
269.273, 445.562
270.639, 385.237
272.004, 584.855
273.369, 614.412
274.734, 753.899
276.099, 863.316
277.463, 1042.659
278.828, 1161.922
280.192, 1261.089
281.556, 1420.144
282.919, 1569.054
284.283, 1727.799
285.646, 1756.362
287.009, 1834.736
288.372, 1932.929
289.734, 1970.949
291.097, 2058.807
292.459, 2276.510
293.821, 2394.067
295.183, 2521.487
296.544, 2488.777
297.905, 2665.942
299.266, 2652.988
300.627, 2849.921
301.988, 2956.743
303.348, 2863.463
304.709, 2960.080
306.069, 3066.601
307.428, 3043.028
308.788, 2989.362
310.147, 2825.534
311.507, 2951.523
312.865, 2787.246
314.224, 2652.765
315.583, 2607.929
316.941, 2582.685
318.299, 2276.907
319.657, 2240.656
321.015, 2363.945
322.372, 2166.781
323.729, 2169.263
325.086, 2011.360
326.443, 1973.176
327.800, 1824.851
329.156, 1746.488
330.512, 1768.110
331.868, 1799.715
333.224, 1611.307
334.579, 1612.867
335.935, 1624.417
337.290, 1595.956
338.645, 1577.494
339.999, 1559.031
341.354, 1510.562
342.708, 1462.089
344.062, 1583.610
345.416, 1475.125
346.769, 1576.639
348.123, 1598.144
349.476, 1609.648
350.829, 1731.164
352.182, 1682.690
353.534, 1854.217
354.887, 1865.745
356.239, 1867.273
357.591, 2208.834
358.942, 2110.385
360.294, 2501.954
361.645, 2573.525
362.996, 2825.082
364.347, 2976.660
365.698, 3328.238
367.048, 3689.815
368.398, 4131.386
369.748, 4292.885
371.098, 4434.338
372.448, 5033.173
373.797, 5191.699
375.146, 5752.645
376.495, 6106.402
377.844, 6401.016
379.192, 6872.701
380.540, 7150.312
381.889, 7524.237
383.236, 8030.266
384.584, 8279.885
385.932, 8866.438
387.279, 9528.425
388.626, 10184.077
389.973, 10711.853
391.319, 11738.646
392.666, 12419.780
394.012, 13306.864
395.358, 14687.101
396.704, 15667.042
398.049, 17083.539
399.394, 17785.164
400.740, 18830.057
402.084, 19790.887
403.429, 19984.689
404.774, 20192.357
406.118, 20323.209
407.462, 19358.500
408.806, 18717.660
410.150, 17999.574
411.493, 16961.748
412.836, 15937.359
414.179, 15101.757
415.522, 13723.906
416.865, 12841.349
418.207, 11923.024
419.549, 11094.588
420.891, 10213.001
422.233, 9406.407
423.575, 8590.210
424.916, 7892.524
426.257, 7263.270
427.598, 6764.688
428.939, 6135.941
430.279, 5646.823
431.619, 5417.916
432.959, 4948.850
434.299, 4729.588
435.639, 4270.285
436.978, 4180.944
438.318, 4051.564
439.657, 3582.146
440.996, 3642.688
442.334, 3273.191
443.673, 3313.657
445.011, 3094.087
446.349, 3014.479
447.687, 3164.835
449.024, 3025.156
450.361, 3165.442
451.699, 3335.697
453.036, 3185.916
454.372, 3316.104
455.709, 3236.259
457.045, 3406.383
458.381, 3286.476
459.717, 3486.539
461.053, 3366.572
462.388, 3306.575
463.724, 3396.549
465.059, 3256.494
466.394, 3246.411
467.728, 3296.300
469.063, 3286.161
470.397, 3385.994
471.731, 3445.802
473.065, 3865.582
474.398, 3985.338
475.732, 4205.070
477.065, 4704.779
478.398, 5304.470
479.731, 6104.140
481.063, 7083.793
482.396, 7923.432
483.728, 9603.057
485.060, 10882.671
486.391, 13422.275
487.723, 15611.873
489.054, 17991.459
490.385, 20521.037
491.716, 22350.613
493.047, 23900.176
494.377, 24269.844
495.708, 24999.717
497.038, 19909.602
498.368, 17339.580
499.697, 14489.745
501.027, 12099.824
502.356, 9889.905
503.685, 8150.067
505.014, 6720.133
506.342, 5721.461
507.671, 4631.494
508.999, 4163.598
510.327, 3428.290
511.655, 2973.062
512.982, 2515.406
514.310, 2238.464
515.637, 2020.981
516.964, 1641.748
518.291, 1582.277
519.617, 1429.471
520.944, 1202.998
522.270, 1202.962
523.596, 1001.717
524.921, 944.306
526.247, 926.977
527.572, 819.133
528.897, 699.474
530.222, 629.579
531.547, 611.434
532.871, 381.046
534.196, 223.125
535.520, 373.125
536.844, 156.691
538.167, 387.466
539.491, 97.315
540.814, 247.538
542.137, 227.234
543.460, 87.162
544.783, 117.584
546.105, 57.462
547.427, 117.213
548.749, 106.987
550.071, 87.403
551.393, 247.591
552.714, 107.863
554.035, 238.010
555.356, 108.410
556.677, 68.802
557.998, 79.257
559.318, 79.709
560.638, 30.621
561.958, 58.995
563.278, 28.320
564.597, 87.679
565.917, 56.642
567.236, 65.238
568.555, 35.320
569.874, 53.836
571.192, 83.237
572.511, 62.698
573.829, 22.190
575.147, 121.712
576.464, 20.890
577.782, 0.482
579.099, 40.091
580.416, 30.273
581.733, 59.381
583.050, 19.069
584.366, 41.212
585.683, 11.479
586.999, 81.725
588.315, 161.950
589.630, 102.171
590.946, 132.379
592.261, 212.566
593.576, 192.769
594.891, 292.955
596.206, 273.123
597.520, 353.271
598.834, 603.404
600.148, 523.541
601.462, 633.660
602.776, 853.763
604.089, 783.863
605.402, 883.947
606.715, 944.013
608.028, 984.065
609.341, 1164.103
610.653, 1294.121
611.965, 1314.128
613.277, 1414.117
614.589, 1440.589
615.901, 1434.043
617.212, 1473.996
618.523, 1473.932
619.834, 1473.852
621.145, 1443.752
622.456, 1533.638
623.766, 1433.505
625.076, 1343.354
626.386, 1373.185
627.696, 1232.997
629.006, 1202.790
630.315, 1032.565
631.624, 1092.321
632.933, 1052.059
634.242, 901.777
635.551, 861.478
636.859, 778.458
638.167, 730.820
639.475, 650.463
640.783, 530.087
642.090, 489.689
643.398, 459.285
644.705, 308.860
646.012, 338.414
647.318, 337.949
648.625, 287.474
649.931, 216.978
651.237, 186.461
652.543, 135.922
653.849, 135.359
655.155, 109.464
656.460, 64.160
657.765, 83.521
659.070, 82.857
660.375, 62.166
661.679, 84.228
662.984, 0.701
664.288, 89.914
665.592, 10.900
666.895, 51.763
668.199, 52.694
669.502, 13.696
670.805, 24.750
672.108, 15.858
673.411, 147.020
674.713, 21.698
676.016, 89.618
677.318, 31.027
678.620, 87.503
679.921, 113.978
681.223, 15.581
682.524, 16.750
683.825, 8.463
685.126, 29.898
686.427, 48.376
687.727, 3.321
689.028, 155.421
690.328, 6.219
691.628, 62.202
692.927, 29.090
694.227, 18.858
695.526, 117.223
696.825, 45.407
698.124, 165.886
699.423, 123.981
700.721, 41.862
702.020, 162.116
703.318, 209.733
704.616, 227.808
705.913, 95.749
707.211, 174.252
708.508, 172.792
709.805, 236.520
711.102, 194.220
712.399, 228.696
713.695, 235.371
714.992, 254.557
716.288, 202.296
717.584, 351.675
718.879, 246.239
720.175, 342.301
721.470, 165.083
722.765, 265.695
724.060, 289.385
725.355, 68.275
726.649, 312.684
727.944, 294.834
729.238, 302.494
730.532, 408.495
731.825, 148.500
733.119, 421.741
734.412, 279.681
735.705, 374.496
736.998, 490.978
738.291, 557.671
739.584, 343.640
740.876, 590.767
742.168, 437.370
743.460, 504.046
744.752, 523.989
746.043, 561.644
747.334, 618.027
748.626, 472.352
749.916, 679.296
751.207, 615.727
752.498, 792.317
753.788, 709.025
755.078, 760.396
756.368, 906.917
757.658, 863.680
758.947, 963.798
760.237, 1000.041
761.526, 1136.651
762.815, 1153.887
764.104, 1170.354
765.392, 1156.811
766.680, 1364.063
767.969, 1370.335
769.257, 1566.598
770.544, 1482.518
771.832, 1622.529
773.119, 1848.724
774.406, 1894.960
775.693, 2150.801
776.980, 2187.403
778.267, 2173.145
779.553, 2478.920
780.839, 2384.770
782.125, 2510.469
783.411, 3016.009
784.697, 2921.707
785.982, 3287.355
787.267, 3112.955
788.552, 3448.590
789.837, 3494.047
791.122, 3449.538
792.406, 3754.854
793.690, 3720.080
794.974, 3895.591
796.258, 4100.734
797.542, 4188.486
798.825, 4473.555
800.108, 4478.586
801.391, 4653.809
802.674, 4611.005
803.957, 4555.926
805.239, 4511.002
806.522, 4175.735
807.804, 3910.301
809.085, 3424.896
810.367, 3061.185
811.649, 2733.241
812.930, 2247.505
814.211, 1851.713
815.492, 1565.640
816.772, 1319.618
818.053, 1104.670
819.333, 996.211
820.613, 848.016
821.893, 817.188
823.173, 806.235
824.452, 747.667
825.732, 558.338
827.011, 539.505
828.290, 472.377
829.568, 315.443
830.847, 461.800
832.125, 461.776
833.403, 215.272
834.681, 249.933
835.959, 90.717
837.236, 301.370
838.514, 172.494
839.791, 135.389
841.068, 168.473
842.345, 49.765
843.621, 133.266
844.898, 104.270
846.174, 27.312
847.450, 226.775
848.726, 79.021
850.001, 62.188
851.277, 15.041
852.552, 118.233
853.827, 101.301
855.102, 16.118
856.376, 117.017
857.651, 60.318
858.925, 73.664
860.199, 6.425
861.473, 9.472
862.746, 77.526
864.020, 135.636
865.293, 91.409
866.566, 111.576
867.839, 4.559
869.112, 7.584
870.384, 19.646
871.656, 23.325
872.928, 106.217
874.200, 9.154
875.472, 88.304
876.744, 74.558
878.015, 42.590
879.286, 39.363
880.557, 122.154
881.828, 55.057
883.098, 77.688
884.369, 10.412
885.639, 107.278
886.909, 14.632
888.178, 37.980
889.448, 100.577
890.717, 46.848
891.987, 25.688
893.256, 1.794
894.524, 10.694
895.793, 53.158
897.061, 44.400
898.330, 12.010
899.598, 160.347
900.865, 117.317
902.133, 24.931
903.401, 167.154
904.668, 89.357
905.935, 51.539
907.202, 76.303
908.468, 75.793
909.735, 7.865
911.001, 60.084
912.267, 111.912
913.533, 13.888
914.799, 14.157
916.064, 27.768
917.330, 19.671
918.595, 18.447
919.860, 43.404
921.124, 35.235
922.389, 107.048
923.653, 71.157
924.918, 20.582
926.182, 2.304
927.445, 84.003
928.709, 14.315
929.972, 87.342
931.236, 68.982
932.499, 40.605
933.761, 65.990
935.024, 93.799
936.286, 45.372
937.549, 46.930
938.811, 48.470
940.073, 29.996
941.334, 61.506
942.596, 43.001
943.857, 74.480
945.118, 85.945
946.379, 7.396
947.640, 138.832
948.900, 59.745
950.161, 91.641
951.421, 213.013
952.681, 24.373
953.940, 54.279
955.200, 127.034
956.459, 28.337
957.719, 229.627
958.978, 50.903
960.236, 32.171
961.495, 83.427
962.753, 214.675
964.012, 25.914
965.270, 27.143
966.527, 238.365
967.785, 149.579
969.043, 70.787
970.300, 211.994
971.557, 183.193
972.814, 224.400
974.071, 475.621
975.327, 296.858
976.583, 368.103
977.840, 279.355
979.095, 290.613
980.351, 338.054
981.607, 513.213
982.862, 404.562
984.117, 485.924
985.372, 457.261
986.627, 568.652
987.882, 689.562
989.136, 660.976
990.390, 729.242
991.644, 713.417
992.898, 714.700
994.152, 835.504
995.405, 766.657
996.659, 837.707
997.912, 828.439
999.165, 879.884
1000.417, 950.875
1001.670, 841.798
1002.922, 890.613
1004.174, 811.780
1005.426, 962.880
1006.678, 1051.704
1007.930, 942.883
1009.181, 853.841
1010.432, 1134.860
1011.683, 915.201
1012.934, 1195.723
1014.185, 960.859
1015.435, 1032.154
1016.685, 1096.495
1017.935, 1177.720
1019.185, 1128.144
1020.435, 1208.745
1021.684, 1187.723
1022.934, 1188.646
1024.183, 1299.924
1025.432, 1280.713
1026.680, 1315.572
1027.929, 1316.769
1029.177, 1384.609
1030.425, 1335.730
1031.673, 1197.225
1032.921, 1514.451
1034.169, 1175.792
1035.416, 1296.859
1036.663, 1320.927
1037.911, 1270.851
1039.157, 1482.071
1040.404, 1223.563
1041.650, 1341.592
1042.897, 1372.814
1044.143, 1273.656
1045.389, 1304.861
1046.634, 1376.263
1047.880, 1124.705
1049.125, 1305.147
1050.371, 1246.967
1051.615, 1230.968
1052.860, 1182.321
1054.105, 1064.204
1055.349, 1205.891
1056.593, 1267.459
1057.837, 1474.332
1059.081, 1466.021
1060.325, 1127.438
1061.568, 1265.466
1062.812, 1127.336
1064.055, 1138.826
1065.298, 1109.655
1066.540, 1091.221
1067.783, 982.776
1069.025, 1133.503
1070.267, 1075.176
1071.509, 1136.825
1072.751, 1058.786
1073.993, 1106.619
1075.234, 1178.237
1076.475, 1259.777
1077.716, 1251.680
1078.957, 1372.786
1080.198, 1384.721
1081.438, 1501.499
1082.679, 1548.349
1083.919, 1700.225
1085.159, 1731.167
1086.398, 1904.036
1087.638, 1836.141
1088.877, 1938.154
1090.116, 2030.245
1091.355, 2032.225
1092.594, 2034.087
1093.833, 2226.087
1095.071, 2328.145
1096.309, 2219.882
1097.547, 2442.044
1098.785, 2491.471
1100.023, 2433.548
1101.260, 2515.926
1102.498, 2427.779
1103.735, 2717.882
1104.972, 2719.969
1106.208, 2641.864
1107.445, 2863.955
1108.681, 2926.096
1109.918, 2748.033
1111.154, 2710.183
1112.389, 2822.282
1113.625, 2794.273
1114.860, 2986.823
1116.096, 2868.930
1117.331, 2746.536
1118.566, 2862.256
1119.800, 2920.252
1121.035, 2924.025
1122.269, 2708.686
1123.503, 2775.904
1124.737, 2755.982
1125.971, 2778.507
1127.205, 2690.635
1128.438, 2713.415
1129.671, 2605.545
1130.904, 2503.457
1132.137, 2585.913
1133.370, 2618.044
1134.602, 2494.789
1135.834, 2483.342
1137.066, 2386.518
1138.298, 2351.908
1139.530, 2351.457
1140.762, 2313.938
1141.993, 2206.120
1143.224, 2238.892
1144.455, 2131.205
1145.686, 2023.980
1146.917, 1887.111
1148.147, 1872.367
1149.377, 1882.467
1150.607, 1865.621
1151.837, 1868.463
1153.067, 1911.555
1154.296, 1804.891
1155.526, 1647.536
1156.755, 1823.918
1157.984, 1577.169
1159.213, 1729.283
1160.441, 1532.740
1161.670, 1615.105
1162.898, 1667.832
1164.126, 1495.210
1165.354, 1528.625
1166.581, 1471.703
1167.809, 1265.545
1169.036, 1337.975
1170.263, 1360.761
1171.490, 1263.453
1172.717, 1436.850
1173.943, 1342.971
1175.170, 1189.203
1176.396, 1299.287
1177.622, 1098.218
1178.848, 1125.655
1180.073, 1171.637
1181.299, 955.851
1182.524, 1078.860
1183.749, 1002.699
1184.974, 906.648
1186.199, 1020.697
1187.423, 953.474
1188.648, 988.362
1189.872, 915.891
1191.096, 895.421
1192.320, 868.081
1193.543, 753.467
1194.767, 687.726
1195.990, 700.639
1197.213, 616.433
1198.436, 709.448
1199.659, 653.222
1200.881, 648.350
1202.104, 499.206
1203.326, 589.494
1204.548, 551.533
1205.770, 484.049
1206.991, 477.637
1208.213, 409.724
1209.434, 462.322
1210.655, 339.170
1211.876, 351.131
1213.096, 423.425
1214.317, 259.510
1215.537, 341.420
1216.757, 383.575
1217.977, 236.115
1219.197, 278.342
1220.417, 180.688
1221.636, 342.625
1222.855, 304.682
1224.074, 277.025
1225.293, 308.815
1226.512, 250.896
1227.731, 279.835
1228.949, 245.291
1230.167, 297.352
1231.385, 209.237
1232.603, 181.557
1233.820, 86.101
1235.038, 112.723
1236.255, 79.645
1237.472, 141.707
1238.689, 233.720
1239.906, 195.274
1241.122, 227.187
1242.338, 178.698
1243.555, 140.555
1244.771, 212.021
1245.986, 253.478
1247.202, 95.319
1248.417, 336.732
1249.633, 108.130
1250.848, 189.525
1252.063, 220.912
1253.277, 232.288
1254.492, 143.654
1255.706, 215.009
1256.920, 166.350
1258.134, 217.677
1259.348, 168.989
1260.562, 40.386
1261.775, 351.669
1262.988, 112.910
1264.201, 274.139
1265.414, 155.348
1266.627, 26.701
1267.839, 108.257
1269.052, 99.793
1270.264, 111.271
1271.476, 102.727
1272.688, 253.812
1273.899, 44.878
1275.111, 205.916
1276.322, 83.089
1277.533, 127.857
1278.744, 298.782
1279.955, 99.750
1281.165, 70.622
1282.376, 1.383
1283.586, 72.110
1284.796, 192.771
1286.006, 131.168
1287.215, 204.086
1288.425, 64.530
1289.634, 174.927
1290.843, 65.286
1292.052, 15.571
1293.261, 95.780
1294.469, 85.928
1295.678, 16.021
1296.886, 56.067
1298.094, 26.010
1299.302, 5.868
1300.509, 105.680
1301.717, 44.541
1302.924, 15.157
1304.131, 244.792
1305.338, 4.395
1306.545, 173.955
1307.752, 93.482
1308.958, 57.029
1310.164, 12.404
1311.370, 41.795
1312.576, 1.147
1313.782, 170.432
1314.987, 140.320
1316.193, 108.844
1317.398, 17.968
1318.603, 32.950
1319.807, 33.919
1321.012, 94.943
1322.216, 75.987
1323.421, 51.874
1324.625, 28.414
1325.829, 0.312
1327.032, 58.989
1328.236, 7.625
1329.439, 6.211
1330.642, 4.742
1331.845, 93.217
1333.048, 8.359
1334.251, 49.990
1335.453, 81.690
1336.656, 116.531
1337.858, 15.296
1339.060, 2.818
1340.261, 70.879
1341.463, 21.109
1342.664, 56.846
1343.866, 14.754
1345.067, 147.384
1346.267, 210.389
1347.468, 91.877
1348.669, 245.787
1349.869, 133.413
1351.069, 21.002
1352.269, 228.546
1353.469, 106.053
1354.668, 36.479
1355.868, 250.933
1357.067, 168.307
1358.266, 24.355
1359.465, 252.927
1360.664, 190.173
1361.862, 97.383
1363.061, 164.554
1364.259, 131.690
1365.457, 228.790
1366.655, 195.989
1367.852, 123.025
1369.050, 270.028
1370.247, 177.002
1371.444, 163.944
1372.641, 120.859
1373.838, 167.761
1375.035, 204.616
1376.231, 103.375
1377.427, 0.179
1378.623, 276.683
1379.819, 183.320
1381.015, 139.737
1382.211, 146.388
1383.406, 363.074
1384.601, 159.605
1385.796, 316.088
1386.991, 162.518
1388.185, 318.790
1389.380, 395.324
1390.574, 151.600
1391.768, 247.318
1392.962, 256.575
1394.156, 276.054
1395.350, 345.357
1396.543, 294.705
1397.736, 314.012
1398.929, 492.704
1400.122, 261.654
1401.315, 279.996
1402.507, 378.366
1403.700, 236.672
1404.892, 355.029
1406.084, 377.627
1407.276, 296.188
1408.467, 283.891
1409.659, 220.848
1410.850, 169.102
1412.041, 170.278
1413.232, 180.546
1414.423, 181.494
1415.614, 278.126
1416.804, 334.601
1417.994, 420.937
1419.184, 292.668
1420.374, 319.295
1421.564, 416.480
1422.753, 236.372
1423.943, 251.065
1425.132, 484.814
1426.321, 260.248
1427.510, 297.232
1428.698, 484.961
1429.887, 149.818
1431.075, 472.905
1432.263, 465.060
1433.451, 378.426
1434.639, 453.623
1435.827, 278.786
1437.014, 387.290
1438.201, 476.915
1439.388, 469.178
1440.575, 427.260
1441.762, 390.373
1442.949, 272.793
1444.135, 387.238
1445.321, 214.906
1446.507, 412.906
1447.693, 467.650
1448.879, 321.039
1450.064, 355.041
1451.250, 358.650
1452.435, 342.953
1453.620, 333.596
1454.805, 336.686
1455.989, 277.949
1457.174, 331.801
1458.358, 324.396
1459.542, 317.852
1460.726, 521.227
1461.910, 365.219
1463.093, 178.293
1464.277, 452.020
1465.460, 285.539
1466.643, 318.848
1467.826, 441.951
1469.009, 434.631
1470.191, 377.367
1471.373, 429.934
1472.556, 311.029
1473.738, 541.414
1474.919, 322.451
1476.101, 274.096
1477.283, 435.637
1478.464, 216.770
1479.645, 338.084
1480.826, 209.521
1482.007, 310.654
1483.187, 412.584
1484.368, 254.566
1485.548, 406.852
1486.728, 439.258
1487.908, 212.160
1489.088, 215.176
1490.268, 438.391
1491.447, 161.623
1492.626, 294.812
1493.805, 187.951
1494.984, 181.141
1496.163, 364.387
1497.341, 437.625
1498.520, 370.822
1499.698, 373.988
1500.876, 227.127
1502.054, 280.283
1503.232, 193.498
1504.409, 296.904
1505.586, 50.467
1506.763, 384.221
1507.940, 18.186
1509.117, 202.350
1510.294, 216.689
1511.470, 241.172
1512.647, 165.775
1513.823, 130.516
1514.999, 45.422
1516.174, 250.516
1517.350, 24.145
1518.526, 71.490
1519.701, 297.439
1520.876, 42.256
1522.051, 178.768
1523.226, 205.648
1524.400, 132.672
1525.574, 35.002
1526.749, 146.859
1527.923, 45.270
1529.097, 100.289
1530.270, 0.289
1531.444, 29.975
1532.617, 0.000
##END=



