##NAMES=Stellerite
##RRUFFID=R040174
##IDEAL CHEMISTRY=Ca_4_(Si_28_Al_8_)O_72_&#183;28H_2_O
##LOCALITY=unknown
##OWNER=RRUFF
##SOURCE=University of Arizona Mineral Museum
##DESCRIPTION=Parallel aggregates of thin tabular brown crystals
##STATUS=The identification of this mineral has been confirmed by X-ray diffraction and chemical analysis
##URL=rruff.info/R040174
##MEASURED CHEMISTRY=(Ca_3.89_Na_0.06_K_0.05_)_Σ=4_(Si_28.11_Al_7.89_)O_72_·15.18H_2_O; H_2_O estimated by difference
##PIN_ID=M00192
##ORIENTATION=Laser parallel to (1 0 1). Fiducial mark perpendicular to laser is parallel to b [0 1 0]
87.101, 0.000
88.496, 37.573
89.890, 23.027
91.284, 141.655
92.678, 162.680
94.071, 104.128
95.465, 201.635
96.858, 273.833
98.251, 295.516
99.644, 445.916
101.036, 564.849
102.428, 626.672
103.820, 730.681
105.212, 791.550
106.604, 865.689
107.995, 931.712
109.387, 987.372
110.777, 1119.353
112.168, 1293.438
113.559, 1458.542
114.949, 1450.202
116.339, 1618.527
117.729, 1554.505
119.119, 1586.401
120.508, 1596.305
121.897, 1692.043
123.286, 1553.854
124.675, 1596.959
126.063, 1769.552
127.452, 1690.805
128.840, 1765.890
130.228, 1731.922
131.615, 1674.051
133.003, 1965.304
134.390, 1897.776
135.777, 2009.550
137.164, 2250.697
138.550, 2211.369
139.937, 2302.866
141.323, 2283.096
142.709, 2551.579
144.094, 2640.808
145.480, 2837.550
146.865, 2951.468
148.250, 2985.061
149.635, 3140.929
151.019, 3019.921
152.403, 3004.476
153.788, 2957.276
155.171, 2785.746
156.555, 2684.175
157.939, 2492.695
159.322, 2411.285
160.705, 2223.922
162.088, 2090.599
163.470, 2019.321
164.853, 1774.290
166.235, 1645.376
167.617, 1504.368
168.998, 1526.035
170.380, 1267.922
171.761, 1263.480
173.142, 1096.037
174.523, 1055.181
175.904, 949.667
177.284, 838.312
178.664, 794.112
180.044, 745.059
181.424, 647.146
182.803, 572.366
184.183, 527.710
185.562, 393.169
186.940, 307.734
188.319, 241.805
189.698, 139.141
191.076, 115.967
192.454, 77.867
193.831, 43.833
195.209, 12.862
196.586, 96.053
197.963, 15.917
199.340, 136.745
200.717, 159.556
202.093, 172.364
203.470, 132.176
204.846, 185.990
206.221, 181.806
207.597, 164.624
208.972, 165.443
210.347, 133.262
211.722, 110.008
213.097, 125.902
214.472, 28.723
215.846, 11.544
217.220, 62.635
218.594, 93.300
219.967, 125.912
221.341, 128.177
222.714, 188.355
224.087, 168.504
225.460, 199.521
226.832, 195.333
228.204, 296.889
229.577, 356.188
230.948, 269.244
232.320, 334.103
233.692, 322.834
235.063, 267.564
236.434, 280.382
237.805, 216.316
239.175, 147.332
240.545, 148.410
241.916, 109.049
243.286, 186.762
244.655, 99.009
246.025, 114.319
247.394, 138.694
248.763, 109.120
250.132, 56.579
251.501, 69.079
252.869, 72.810
254.237, 98.513
255.605, 97.951
256.973, 117.523
258.340, 103.508
259.708, 46.700
261.075, 41.039
262.442, 172.483
263.808, 147.005
265.175, 271.582
266.541, 259.195
267.907, 286.824
269.273, 404.450
270.639, 429.056
272.004, 474.636
273.369, 505.183
274.734, 507.692
276.099, 532.165
277.463, 648.598
278.828, 632.989
280.192, 633.331
281.556, 616.600
282.919, 583.870
284.283, 620.828
285.646, 536.778
287.009, 552.629
288.372, 595.391
289.734, 548.068
291.097, 518.669
292.459, 457.199
293.821, 474.662
295.183, 493.063
296.544, 450.406
297.905, 457.695
299.266, 462.932
300.627, 458.120
301.988, 472.263
303.348, 443.361
304.709, 486.411
306.069, 395.367
307.428, 490.110
308.788, 543.511
310.147, 426.582
311.507, 497.653
312.865, 446.046
314.224, 526.836
315.583, 388.815
316.941, 469.756
318.299, 458.702
319.657, 450.656
321.015, 498.619
322.372, 398.588
323.729, 549.566
325.086, 454.550
326.443, 298.542
327.800, 425.540
329.156, 367.542
330.512, 326.550
331.868, 405.562
333.224, 297.577
334.579, 439.594
335.935, 364.615
337.290, 458.640
338.645, 437.660
339.999, 404.684
341.354, 465.713
342.708, 450.744
344.062, 577.777
345.416, 487.813
346.769, 624.851
348.123, 553.890
349.476, 619.929
350.829, 614.966
352.182, 618.106
353.534, 1088.035
354.887, 736.981
356.239, 634.711
357.591, 875.729
358.942, 1281.340
360.294, 1193.174
361.645, 974.104
362.996, 1085.425
364.347, 1095.337
365.698, 1249.531
367.048, 1334.378
368.398, 1495.002
369.748, 1560.973
371.098, 1742.089
372.448, 1855.096
373.797, 1894.073
375.146, 2058.744
376.495, 2345.413
377.844, 2433.617
379.192, 2698.121
380.540, 2779.532
381.889, 3055.414
383.236, 3228.749
384.584, 3495.450
385.932, 3811.729
387.279, 4253.408
388.626, 4670.178
389.973, 4902.107
391.319, 5484.003
392.666, 5909.838
394.012, 6452.021
395.358, 7133.772
396.704, 7837.731
398.049, 8399.925
399.394, 8891.677
400.740, 9556.999
402.084, 9998.708
403.429, 10174.592
404.774, 10386.057
406.118, 10399.540
407.462, 9943.342
408.806, 9754.808
410.150, 9336.364
411.493, 8770.051
412.836, 8151.536
414.179, 7605.584
415.522, 7072.764
416.865, 6504.540
418.207, 6047.213
419.549, 5589.965
420.891, 5061.968
422.233, 4792.979
423.575, 4394.116
424.916, 4055.653
426.257, 3697.223
427.598, 3438.585
428.939, 3099.617
430.279, 2990.530
431.619, 2791.187
432.959, 2556.997
434.299, 2622.924
435.639, 2254.640
436.978, 2156.502
438.318, 2241.031
439.657, 1976.534
440.996, 2068.013
442.334, 1985.465
443.673, 1945.892
445.011, 2013.295
446.349, 1867.673
447.687, 1974.028
449.024, 2075.359
450.361, 2135.667
451.699, 2168.950
453.036, 2209.213
454.372, 2364.452
455.709, 2290.669
457.045, 2410.864
458.381, 2306.036
459.717, 2347.186
461.053, 2261.313
462.388, 2034.420
463.724, 2025.504
465.059, 1853.568
466.394, 1814.609
467.728, 1683.630
469.063, 1533.630
470.397, 1542.610
471.731, 1470.574
473.065, 1422.521
474.398, 1573.453
475.732, 1528.372
477.065, 1677.277
478.398, 1774.168
479.731, 1996.047
481.063, 2299.911
482.396, 2619.762
483.728, 3073.219
485.060, 3449.422
486.391, 4179.231
487.723, 4849.026
489.054, 5618.806
490.385, 6648.572
491.716, 7228.379
493.047, 7828.306
494.377, 7628.360
495.708, 7088.477
497.038, 6568.602
498.368, 5688.720
499.697, 4778.774
501.027, 4049.096
502.356, 3229.202
503.685, 2699.086
505.014, 2065.234
506.342, 1801.762
507.671, 1466.957
508.999, 1228.207
510.327, 1047.997
511.655, 961.823
512.982, 695.002
514.310, 622.547
515.637, 596.435
516.964, 433.865
518.291, 372.496
519.617, 385.417
520.944, 167.496
522.270, 272.228
523.596, 220.896
524.921, 163.979
526.247, 137.979
527.572, 106.035
528.897, 91.153
530.222, 80.436
531.547, 99.866
532.871, 116.668
534.196, 66.182
535.520, 72.351
536.844, 46.551
538.167, 1.684
539.491, 11.458
540.814, 64.531
542.137, 21.533
543.460, 74.799
544.783, 66.895
546.105, 30.732
547.427, 74.338
548.749, 5.171
550.071, 7.660
551.393, 58.878
552.714, 0.479
554.035, 23.080
555.356, 28.301
556.677, 0.024
557.998, 24.316
559.318, 49.396
560.638, 29.812
561.958, 58.006
563.278, 57.428
564.597, 19.475
565.917, 26.418
567.236, 62.590
568.555, 55.573
569.874, 23.463
571.192, 20.457
572.511, 31.651
573.829, 53.222
575.147, 86.932
576.464, 8.144
577.782, 8.388
579.099, 2.328
580.416, 57.055
581.733, 21.711
583.050, 33.341
584.366, 26.941
585.683, 54.511
586.999, 128.054
588.315, 150.572
589.630, 225.068
590.946, 163.545
592.261, 129.998
593.576, 174.438
594.891, 133.854
596.206, 253.245
597.520, 270.613
598.834, 307.958
600.148, 220.306
601.462, 350.640
602.776, 474.951
604.089, 352.246
605.402, 345.517
606.715, 533.767
608.028, 515.993
609.341, 526.195
610.653, 639.375
611.965, 565.530
613.277, 701.661
614.589, 673.767
615.901, 697.850
617.212, 725.920
618.523, 686.967
619.834, 699.998
621.145, 648.005
622.456, 739.987
623.766, 669.945
625.076, 633.879
626.386, 627.790
627.696, 523.675
629.006, 523.537
630.315, 508.375
631.624, 428.186
632.933, 463.974
634.242, 359.736
635.551, 382.473
636.859, 298.186
638.167, 261.874
639.475, 335.536
640.783, 358.175
642.090, 266.789
643.398, 285.378
644.705, 260.149
646.012, 312.479
647.318, 224.990
648.625, 206.477
649.931, 173.937
651.237, 140.614
652.543, 122.773
653.849, 116.148
655.155, 115.493
656.460, 126.808
657.765, 59.095
659.070, 107.349
660.375, 156.572
661.679, 89.769
662.984, 29.933
664.288, 71.063
665.592, 55.162
666.895, 160.255
668.199, 16.292
669.502, 40.399
670.805, 30.467
672.108, 121.657
673.411, 28.897
674.713, 176.881
676.016, 107.797
677.318, 75.515
678.620, 158.469
679.921, 25.896
681.223, 100.560
682.524, 134.567
683.825, 98.119
685.126, 153.614
686.427, 94.385
687.727, 67.815
689.028, 233.649
690.328, 68.201
691.628, 157.755
692.927, 187.620
694.227, 280.317
695.526, 163.006
696.825, 188.749
698.124, 176.165
699.423, 239.168
700.721, 165.813
702.020, 214.420
703.318, 136.102
704.616, 240.875
705.913, 235.526
707.211, 317.557
708.508, 273.961
709.805, 173.760
711.102, 152.920
712.399, 234.395
713.695, 270.461
714.992, 210.382
716.288, 324.036
717.584, 296.549
718.879, 133.937
720.175, 260.532
721.470, 224.551
722.765, 265.684
724.060, 388.072
725.355, 256.169
726.649, 337.820
727.944, 276.716
729.238, 246.591
730.532, 282.673
731.825, 247.142
733.119, 301.326
734.412, 244.176
735.705, 192.699
736.998, 334.740
738.291, 215.607
739.584, 271.304
740.876, 282.021
742.168, 269.915
743.460, 273.132
744.752, 265.186
746.043, 205.041
747.334, 293.341
748.626, 346.294
749.916, 343.597
751.207, 292.540
752.498, 379.830
753.788, 362.015
755.078, 354.127
756.368, 431.307
757.658, 323.512
758.947, 429.080
760.237, 397.098
761.526, 312.339
762.815, 512.246
764.104, 507.171
765.392, 500.061
766.680, 560.837
767.969, 532.468
769.257, 597.069
770.544, 476.730
771.832, 653.187
773.119, 615.704
774.406, 531.167
775.693, 761.722
776.980, 691.196
778.267, 682.839
779.553, 718.288
780.839, 720.475
782.125, 587.279
783.411, 794.574
784.697, 828.940
785.982, 851.189
787.267, 727.401
788.552, 939.727
789.837, 969.884
791.122, 792.013
792.406, 863.244
793.690, 908.392
794.974, 839.786
796.258, 961.807
797.542, 874.833
798.825, 1070.878
800.108, 924.819
801.391, 979.732
802.674, 984.619
803.957, 903.423
805.239, 908.064
806.522, 785.539
807.804, 800.911
809.085, 800.229
810.367, 563.518
811.649, 596.826
812.930, 467.825
814.211, 511.999
815.492, 366.353
816.772, 348.400
818.053, 336.027
819.333, 218.944
820.613, 174.766
821.893, 215.005
823.173, 105.166
824.452, 245.931
825.732, 110.289
827.011, 25.261
828.290, 186.649
829.568, 4.801
830.847, 203.626
832.125, 89.294
833.403, 53.718
834.681, 151.326
835.959, 18.031
837.236, 118.701
838.514, 91.258
839.791, 13.024
841.068, 62.517
842.345, 24.127
843.621, 50.861
844.898, 7.857
846.174, 45.241
847.450, 82.433
848.726, 27.301
850.001, 70.859
851.277, 19.493
852.552, 92.094
853.827, 82.891
855.102, 12.548
856.376, 75.216
857.651, 21.633
858.925, 17.600
860.199, 18.135
861.473, 67.849
862.746, 67.439
864.020, 129.042
865.293, 44.578
866.566, 29.023
867.839, 1.392
869.112, 80.149
870.384, 12.709
871.656, 14.752
872.928, 11.466
874.200, 2.925
875.472, 15.468
876.744, 40.953
878.015, 25.579
879.286, 5.146
880.557, 71.273
881.828, 116.322
883.098, 63.015
884.369, 87.665
885.639, 21.383
886.909, 18.877
888.178, 8.126
889.448, 35.316
890.717, 12.535
891.987, 67.739
893.256, 42.002
894.524, 35.105
895.793, 23.267
897.061, 14.590
898.330, 6.471
899.598, 14.628
900.865, 51.290
902.133, 8.749
903.401, 45.772
904.668, 28.781
905.935, 45.773
907.202, 101.249
908.468, 39.579
909.735, 17.537
911.001, 30.602
912.267, 46.230
913.533, 1.952
914.799, 56.848
916.064, 44.634
917.330, 45.406
918.595, 64.166
919.860, 118.913
921.124, 108.648
922.389, 68.372
923.653, 55.917
924.918, 99.758
926.182, 40.578
927.445, 62.057
928.709, 73.680
929.972, 25.292
931.236, 63.892
932.499, 40.481
933.761, 41.412
935.024, 110.627
936.286, 52.184
937.549, 72.729
938.811, 93.267
940.073, 38.793
941.334, 113.311
942.596, 83.820
943.857, 38.319
945.118, 50.811
946.379, 3.709
947.640, 238.759
948.900, 57.220
950.161, 44.671
951.421, 210.114
952.681, 72.549
953.940, 105.975
955.200, 116.395
956.459, 69.809
957.719, 112.215
958.978, 132.616
960.236, 152.018
961.495, 103.413
962.753, 133.804
964.012, 141.188
965.270, 202.571
966.527, 238.952
967.785, 216.325
969.043, 194.697
970.300, 135.067
971.557, 196.436
972.814, 138.776
974.071, 200.141
975.327, 234.195
976.583, 235.576
977.840, 319.716
979.095, 277.502
980.351, 313.908
981.607, 386.142
982.862, 317.544
984.117, 476.629
985.372, 331.254
986.627, 408.606
987.882, 429.517
989.136, 466.764
990.390, 505.393
991.644, 501.656
992.898, 535.688
994.152, 475.357
995.405, 430.347
996.659, 498.087
997.912, 629.505
999.165, 545.640
1000.417, 627.548
1001.670, 563.643
1002.922, 563.793
1004.174, 714.003
1005.426, 606.180
1006.678, 674.842
1007.930, 585.994
1009.181, 591.929
1010.432, 676.349
1011.683, 593.277
1012.934, 718.418
1014.185, 554.783
1015.435, 676.187
1016.685, 684.045
1017.935, 685.046
1019.185, 695.614
1020.435, 736.887
1021.684, 757.881
1022.934, 717.799
1024.183, 758.806
1025.432, 819.447
1026.680, 770.531
1027.929, 801.729
1029.177, 781.178
1030.425, 761.854
1031.673, 713.234
1032.921, 755.702
1034.169, 718.474
1035.416, 834.207
1036.663, 794.147
1037.911, 805.371
1039.157, 906.555
1040.404, 787.869
1041.650, 819.096
1042.897, 860.580
1044.143, 741.981
1045.389, 803.359
1046.634, 834.724
1047.880, 675.341
1049.125, 856.361
1050.371, 737.738
1051.615, 736.297
1052.860, 677.672
1054.105, 569.227
1055.349, 820.717
1056.593, 672.293
1057.837, 717.917
1059.081, 727.446
1060.325, 748.945
1061.568, 779.056
1062.812, 770.689
1064.055, 562.075
1065.298, 713.769
1066.540, 615.421
1067.783, 537.185
1069.025, 748.952
1070.267, 580.842
1071.509, 612.732
1072.751, 574.545
1073.993, 623.600
1075.234, 635.506
1076.475, 585.443
1077.716, 597.398
1078.957, 709.280
1080.198, 670.965
1081.438, 832.820
1082.679, 794.584
1083.919, 816.359
1085.159, 1018.292
1086.398, 1010.125
1087.638, 902.084
1088.877, 1024.025
1090.116, 986.188
1091.355, 988.135
1092.594, 1110.084
1093.833, 1081.905
1095.071, 1173.784
1096.309, 1235.393
1097.547, 1147.348
1098.785, 1219.289
1100.023, 1241.169
1101.260, 1293.129
1102.498, 1205.091
1103.735, 1407.401
1104.972, 1339.365
1106.208, 1281.332
1107.445, 1393.561
1108.681, 1526.602
1109.918, 1508.759
1111.154, 1410.730
1112.389, 1472.705
1113.625, 1505.021
1114.860, 1587.340
1116.096, 1579.319
1117.331, 1571.598
1118.566, 1461.640
1119.800, 1595.971
1121.035, 1671.327
1122.269, 1690.261
1123.503, 1485.222
1124.737, 1565.472
1125.971, 1537.717
1127.205, 1409.838
1128.438, 1422.340
1129.671, 1354.330
1130.904, 1366.923
1132.137, 1358.916
1133.370, 1320.912
1134.602, 1233.152
1135.834, 1335.686
1137.066, 1323.601
1138.298, 1175.686
1139.530, 1347.771
1140.762, 1102.539
1141.993, 1164.672
1143.224, 1307.324
1144.455, 1189.888
1145.686, 1272.553
1146.917, 1224.932
1148.147, 1220.988
1149.377, 1119.962
1150.607, 1226.104
1151.837, 1178.981
1153.067, 1161.580
1154.296, 1164.176
1155.526, 1026.612
1156.755, 1189.130
1157.984, 951.884
1159.213, 1094.457
1160.441, 1166.942
1161.670, 1009.177
1162.898, 941.515
1164.126, 914.917
1165.354, 877.639
1166.581, 902.401
1167.809, 833.489
1169.036, 865.965
1170.263, 899.626
1171.490, 742.465
1172.717, 798.753
1173.943, 868.869
1175.170, 671.641
1176.396, 698.743
1177.622, 625.920
1178.848, 578.196
1180.073, 723.002
1181.299, 606.281
1182.524, 598.955
1183.749, 545.297
1184.974, 527.577
1186.199, 569.981
1187.423, 544.691
1188.648, 557.256
1189.872, 574.649
1191.096, 410.878
1192.320, 543.098
1193.543, 352.650
1194.767, 439.789
1195.990, 382.377
1197.213, 375.996
1198.436, 308.769
1199.659, 372.578
1200.881, 249.000
1202.104, 261.119
1203.326, 285.251
1204.548, 207.275
1205.770, 299.319
1206.991, 256.342
1208.213, 318.301
1209.434, 310.470
1210.655, 222.842
1211.876, 204.674
1213.096, 257.292
1214.317, 93.604
1215.537, 255.903
1216.757, 257.876
1217.977, 159.728
1219.197, 232.965
1220.417, 105.164
1221.636, 187.479
1222.855, 269.988
1224.074, 91.850
1225.293, 144.749
1226.512, 146.696
1227.731, 128.656
1228.949, 200.358
1230.167, 182.267
1231.385, 213.864
1232.603, 225.447
1233.820, 128.128
1235.038, 309.677
1236.255, 51.673
1237.472, 173.410
1238.689, 174.901
1239.906, 156.412
1241.122, 218.083
1242.338, 179.517
1243.555, 211.319
1244.771, 142.681
1245.986, 254.094
1247.202, 185.703
1248.417, 217.096
1249.633, 68.476
1250.848, 160.030
1252.063, 191.387
1253.277, 92.735
1254.492, 14.290
1255.706, 112.876
1256.920, 183.322
1258.134, 200.133
1259.348, 79.951
1260.562, 81.344
1261.775, 272.856
1262.988, 94.065
1264.201, 265.294
1265.414, 36.467
1266.627, 7.619
1267.839, 98.751
1269.052, 169.866
1270.264, 81.288
1271.476, 112.346
1272.688, 143.385
1273.899, 54.404
1275.111, 245.406
1276.322, 36.385
1277.533, 227.327
1278.744, 198.203
1279.955, 129.052
1281.165, 59.877
1282.376, 79.418
1283.586, 171.214
1284.796, 171.805
1286.006, 27.654
1287.215, 162.854
1288.425, 43.321
1289.634, 63.708
1290.843, 44.021
1292.052, 114.275
1293.261, 124.489
1294.469, 44.638
1295.678, 45.257
1296.886, 24.808
1298.094, 64.809
1299.302, 64.779
1300.509, 104.719
1301.717, 85.176
1302.924, 42.494
1304.131, 73.120
1305.338, 94.018
1306.545, 153.747
1307.752, 133.445
1308.958, 3.113
1310.164, 52.748
1311.370, 17.657
1312.576, 118.106
1313.782, 101.377
1314.987, 0.828
1316.193, 40.241
1317.398, 40.382
1318.603, 101.053
1319.807, 48.209
1321.012, 52.564
1322.216, 53.394
1323.421, 145.716
1324.625, 15.213
1325.829, 13.810
1327.032, 62.792
1328.236, 38.264
1329.439, 150.621
1330.642, 119.467
1331.845, 11.728
1333.048, 77.029
1334.251, 54.255
1335.453, 35.599
1336.656, 153.002
1337.858, 88.434
1339.060, 49.935
1340.261, 68.507
1341.463, 6.915
1342.664, 45.283
1343.866, 3.616
1345.067, 38.091
1346.267, 160.152
1347.468, 1.636
1348.669, 176.535
1349.869, 174.675
1351.069, 47.216
1352.269, 190.840
1353.469, 138.868
1354.668, 86.861
1355.868, 264.822
1357.067, 52.753
1358.266, 36.158
1359.465, 90.229
1360.664, 164.371
1361.862, 188.994
1363.061, 15.913
1364.259, 98.058
1365.457, 77.814
1366.655, 53.406
1367.852, 171.393
1369.050, 26.780
1370.247, 142.445
1371.444, 135.210
1372.641, 192.774
1373.838, 141.408
1375.035, 218.937
1376.231, 256.796
1377.427, 34.298
1378.623, 281.755
1379.819, 99.456
1381.015, 156.444
1382.211, 213.701
1383.406, 200.830
1384.601, 157.863
1385.796, 274.784
1386.991, 134.669
1388.185, 274.508
1389.380, 274.330
1390.574, 163.762
1391.768, 223.245
1392.962, 261.642
1394.156, 171.316
1395.350, 220.225
1396.543, 269.499
1397.736, 258.458
1398.929, 306.842
1400.122, 185.883
1401.315, 144.879
1402.507, 166.817
1403.700, 192.372
1404.892, 161.431
1406.084, 273.240
1407.276, 212.269
1408.467, 258.018
1409.659, 235.713
1410.850, 343.586
1412.041, 361.432
1413.232, 134.287
1414.423, 231.766
1415.614, 269.492
1416.804, 226.682
1417.994, 354.586
1419.184, 221.143
1420.374, 235.336
1421.564, 281.267
1422.753, 206.403
1423.943, 177.893
1425.132, 367.952
1426.321, 218.374
1427.510, 330.519
1428.698, 381.197
1429.887, 327.656
1431.075, 320.790
1432.263, 294.005
1433.451, 319.543
1434.639, 317.797
1435.827, 292.352
1437.014, 307.773
1438.201, 270.589
1439.388, 206.713
1440.575, 274.776
1441.762, 279.809
1442.949, 294.814
1444.135, 372.579
1445.321, 351.521
1446.507, 340.769
1447.693, 354.223
1448.879, 237.565
1450.064, 232.209
1451.250, 297.184
1452.435, 152.751
1453.620, 276.110
1454.805, 220.154
1455.989, 225.379
1457.174, 270.177
1458.358, 314.614
1459.542, 189.087
1460.726, 423.820
1461.910, 187.988
1463.093, 252.371
1464.277, 456.264
1465.460, 179.033
1466.643, 311.934
1467.826, 255.570
1469.009, 229.135
1470.191, 192.516
1471.373, 354.943
1472.556, 269.086
1473.738, 370.912
1474.919, 263.805
1476.101, 176.673
1477.283, 249.965
1478.464, 193.354
1479.645, 206.695
1480.826, 210.403
1482.007, 194.371
1483.187, 328.562
1484.368, 192.798
1485.548, 217.079
1486.728, 321.517
1487.908, 216.001
1489.088, 120.523
1490.268, 405.001
1491.447, 79.496
1492.626, 193.957
1493.805, 298.399
1494.984, 42.826
1496.163, 247.256
1497.341, 261.779
1498.520, 56.382
1499.698, 261.092
1500.876, 165.952
1502.054, 190.984
1503.232, 276.182
1504.409, 141.540
1505.586, 67.028
1506.763, 123.365
1507.940, 58.357
1509.117, 144.205
1510.294, 140.206
1511.470, 66.369
1512.647, 222.793
1513.823, 59.478
1514.999, 13.555
1516.174, 173.708
1517.350, 1.293
1518.526, 49.255
1519.701, 247.670
1520.876, 16.606
1522.051, 127.262
1523.226, 187.453
1524.400, 148.208
1525.574, 3.787
1526.749, 0.000
##END=



