##NAMES=Sulphur
##RRUFFID=R040135
##IDEAL CHEMISTRY=S
##LOCALITY=Sicily, Italy
##OWNER=RRUFF
##SOURCE=University of Arizona Mineral Museum
##DESCRIPTION=Yellow fragments
##STATUS=The identification of this mineral has been confirmed by X-ray diffraction and chemical analysis
##URL=rruff.info/R040135
##MEASURED CHEMISTRY=S_1.00_
##PIN_ID=L00272
##ORIENTATION=Laser parallel to -c* (0 0 -1). Fiducial mark perpendicular to laser is parallel to a [1 0 0]
55.323, 0.000
56.716, 9.129
58.108, 17.352
59.501, 18.050
60.893, 21.121
62.285, 22.159
63.677, 24.089
65.069, 17.603
66.460, 2.088
67.851, 5.947
69.242, 0.080
70.633, 3.578
72.024, 1.484
73.414, 0.958
74.805, 9.046
76.195, 40.460
77.585, 70.247
78.974, 131.373
80.364, 209.806
81.753, 287.519
83.142, 345.486
84.531, 454.686
85.920, 659.099
87.308, 1054.708
88.697, 1633.498
90.085, 1963.457
91.473, 1783.576
92.860, 1483.860
94.248, 1132.314
95.635, 912.929
97.022, 752.690
98.409, 652.581
99.796, 619.589
101.183, 565.702
102.569, 558.910
103.955, 568.206
105.341, 600.583
106.727, 595.036
108.113, 601.561
109.498, 609.153
110.883, 578.808
112.268, 588.525
113.653, 596.298
115.038, 566.127
116.422, 584.009
117.806, 548.941
119.190, 585.921
120.574, 556.948
121.958, 583.020
123.341, 552.134
124.725, 518.291
126.108, 523.514
127.491, 524.865
128.873, 507.388
130.256, 512.117
131.638, 481.864
133.020, 503.745
134.402, 521.643
135.784, 514.546
137.165, 588.456
138.547, 661.363
139.928, 796.248
141.309, 1191.115
142.690, 1799.968
144.070, 2696.810
145.450, 4023.642
146.831, 6233.469
148.211, 8196.296
149.590, 8192.123
150.970, 7188.957
152.349, 6716.796
153.729, 7296.642
155.108, 7818.497
156.487, 7622.358
157.865, 6388.228
159.244, 4200.109
160.622, 2445.002
162.000, 1529.905
163.378, 1050.819
164.755, 772.744
166.133, 610.681
167.510, 514.630
168.887, 451.591
170.264, 385.565
171.641, 337.551
173.017, 318.549
174.394, 291.559
175.770, 243.582
177.146, 259.617
178.522, 287.664
179.897, 324.722
181.272, 415.792
182.648, 498.873
184.023, 641.966
185.397, 788.069
186.772, 973.184
188.146, 866.309
189.521, 771.444
190.895, 665.590
192.269, 675.747
193.642, 759.914
195.016, 765.578
196.389, 759.098
197.762, 609.284
199.135, 536.534
200.507, 465.334
201.880, 487.241
203.252, 526.295
204.624, 595.643
205.996, 790.501
207.368, 1089.449
208.740, 1972.022
210.111, 3412.086
211.482, 5547.114
212.853, 10480.149
214.224, 16670.197
215.594, 20680.252
216.965, 23280.312
218.335, 33080.387
219.705, 37040.453
221.075, 24989.709
222.444, 11539.047
223.814, 4769.448
225.183, 2484.901
226.552, 1465.391
227.921, 1035.913
229.290, 830.485
230.658, 720.110
232.026, 718.633
233.394, 707.106
234.762, 725.862
236.130, 786.587
237.498, 833.424
238.865, 894.287
240.232, 1073.191
241.599, 1454.125
242.966, 1997.086
244.332, 2985.074
245.699, 3500.088
247.065, 3015.125
248.431, 1968.184
249.797, 1073.265
251.162, 618.366
252.528, 366.487
253.893, 227.627
255.258, 179.785
256.623, 129.961
257.988, 116.152
259.352, 94.360
260.717, 98.584
262.081, 77.821
263.445, 95.072
264.808, 77.337
266.172, 82.615
267.535, 102.904
268.898, 92.205
270.261, 86.518
271.624, 106.843
272.987, 112.179
274.349, 108.526
275.711, 75.882
277.073, 99.249
278.435, 61.630
279.797, 83.021
281.158, 72.423
282.519, 68.835
283.881, 41.255
285.241, 46.684
286.602, 49.124
287.963, 36.572
289.323, 44.026
290.683, 47.488
292.043, 53.956
293.403, 78.429
294.762, 59.907
296.122, 84.389
297.481, 67.874
298.840, 66.363
300.199, 96.855
301.557, 77.351
302.916, 82.851
304.274, 55.354
305.632, 57.861
306.990, 39.371
308.348, 52.885
309.705, 64.403
311.062, 48.925
312.420, 49.450
313.777, 62.980
315.133, 52.513
316.490, 65.050
317.846, 39.591
319.202, 66.135
320.558, 47.684
321.914, 37.238
323.270, 25.797
324.625, 21.359
325.980, 32.925
327.335, 10.494
328.690, 19.066
330.045, 7.642
331.400, 8.220
332.754, 6.198
334.108, 16.615
335.462, 1.035
336.816, 14.452
338.169, 13.871
339.522, 18.291
340.876, 26.714
342.229, 27.141
343.581, 26.573
344.934, 33.010
346.286, 22.453
347.639, 17.900
348.991, 24.351
350.343, 26.806
351.694, 20.266
353.046, 11.730
354.397, 27.196
355.748, 17.668
357.099, 23.143
358.450, 8.626
359.800, 9.117
361.151, 2.619
362.501, 6.136
363.851, 20.330
365.201, 33.782
366.550, 44.222
367.900, 44.649
369.249, 52.066
370.598, 55.472
371.947, 68.874
373.296, 47.272
374.644, 92.673
375.993, 82.076
377.341, 86.482
378.689, 124.890
380.036, 132.300
381.384, 136.712
382.731, 166.127
384.079, 162.549
385.426, 183.977
386.772, 206.412
388.119, 195.852
389.465, 192.298
390.812, 204.748
392.158, 210.204
393.504, 233.664
394.849, 241.129
396.195, 283.599
397.540, 296.073
398.885, 309.551
400.230, 349.034
401.575, 426.519
402.920, 489.008
404.264, 632.500
405.608, 740.995
406.952, 944.492
408.296, 1113.005
409.640, 1270.508
410.983, 1341.015
412.327, 1314.530
413.670, 1246.147
415.013, 1224.741
416.356, 1304.292
417.698, 1419.980
419.040, 1589.518
420.383, 1823.125
421.725, 2121.359
423.066, 2454.524
424.408, 2887.059
425.750, 3384.990
427.091, 3895.568
428.432, 4469.154
429.773, 5185.718
431.113, 5596.639
432.454, 6273.352
433.794, 6520.152
435.135, 7008.752
436.474, 7336.363
437.814, 7083.369
439.154, 6747.841
440.493, 5338.955
441.833, 4003.912
443.172, 2731.717
444.510, 1832.490
445.849, 1321.189
447.188, 1021.464
448.526, 859.148
449.864, 834.720
451.202, 824.299
452.540, 971.858
453.877, 1151.417
455.215, 1477.976
456.552, 1988.535
457.889, 2854.094
459.226, 3979.654
460.562, 5705.212
461.899, 8176.770
463.235, 11085.328
464.571, 15735.885
465.907, 22726.443
467.243, 29496.998
468.578, 34807.555
469.914, 37718.109
471.249, 46428.668
472.584, 51809.227
473.919, 47789.773
475.253, 35270.328
476.588, 20970.875
477.922, 12911.444
479.256, 8207.027
480.590, 5522.739
481.924, 4099.553
483.257, 2975.343
484.591, 2423.889
485.924, 1905.531
487.257, 1579.074
488.590, 1320.617
489.922, 1169.158
491.255, 1012.698
492.587, 900.237
493.919, 898.360
495.251, 810.919
496.583, 793.282
497.914, 737.936
499.245, 675.609
500.577, 639.031
501.908, 559.976
503.238, 478.882
504.569, 462.808
505.899, 427.345
507.230, 400.489
508.560, 372.870
509.889, 348.878
511.219, 359.732
512.549, 317.956
513.878, 310.636
515.207, 311.443
516.536, 339.783
517.865, 314.797
519.193, 308.612
520.522, 299.392
521.850, 277.519
523.178, 259.447
524.506, 252.962
525.834, 250.476
527.161, 233.989
528.489, 232.503
529.816, 201.016
531.143, 202.528
532.469, 186.040
533.796, 177.552
535.122, 190.064
536.449, 176.575
537.775, 154.087
539.101, 160.613
540.426, 142.128
541.752, 145.713
543.077, 160.294
544.402, 150.922
545.727, 153.680
547.052, 153.278
548.376, 153.796
549.701, 160.331
551.025, 141.837
552.349, 139.372
553.673, 135.888
554.997, 105.426
556.320, 91.930
557.644, 90.431
558.967, 57.119
560.290, 60.619
561.612, 35.160
562.935, 39.658
564.257, 13.169
565.580, 8.734
566.902, 3.240
568.224, 8.877
569.545, 7.668
570.867, 4.378
572.188, 0.006
573.509, 0.436
574.830, 2.228
576.151, 0.998
577.472, 3.952
578.792, 0.824
580.112, 3.648
581.432, 7.911
582.752, 7.122
584.072, 4.353
585.392, 3.524
586.711, 3.038
588.030, 4.600
589.349, 3.917
590.668, 0.352
591.986, 1.834
593.305, 2.677
594.623, 2.479
595.941, 5.019
597.259, 12.418
598.577, 6.368
599.894, 3.892
601.212, 1.458
602.529, 0.914
603.846, 0.318
605.163, 8.853
606.479, 0.615
607.796, 6.393
609.112, 6.035
610.428, 17.505
611.744, 28.059
613.060, 25.518
614.376, 35.049
615.691, 51.439
617.006, 42.873
618.321, 46.332
619.636, 48.725
620.951, 60.139
622.265, 47.542
623.579, 36.912
624.894, 38.348
626.208, 20.767
627.521, 27.182
628.835, 19.555
630.148, 18.908
631.462, 15.259
632.775, 11.990
634.088, 9.826
635.400, 6.308
636.713, 4.657
638.025, 0.007
639.337, 1.675
640.649, 1.347
641.961, 16.976
643.273, 1.296
644.584, 21.614
645.895, 14.929
647.206, 31.243
648.517, 35.553
649.828, 39.862
651.139, 63.169
652.449, 59.475
653.759, 64.784
655.069, 51.091
656.379, 56.401
657.689, 58.712
658.998, 44.026
660.307, 51.346
661.617, 66.670
662.926, 34.999
664.234, 33.335
665.543, 40.675
666.851, 29.017
668.160, 15.365
669.468, 21.717
670.775, 22.074
672.083, 7.432
673.391, 26.795
674.698, 21.162
676.005, 16.533
677.312, 23.905
678.619, 23.278
679.926, 11.651
681.232, 15.025
682.538, 34.396
683.844, 25.765
685.150, 34.132
686.456, 21.497
687.762, 29.860
689.067, 36.220
690.372, 28.578
691.677, 19.934
692.982, 17.287
694.287, 18.638
695.591, 8.988
696.896, 10.335
698.200, 3.681
699.504, 4.024
700.808, 1.364
702.111, 1.300
703.415, 3.032
704.718, 10.360
706.021, 8.361
707.324, 15.010
708.627, 8.332
709.929, 10.651
711.232, 7.967
712.534, 13.281
713.836, 27.593
715.138, 0.098
716.439, 22.208
717.741, 7.510
719.042, 17.810
720.343, 11.108
721.644, 5.403
722.945, 11.695
724.246, 0.971
725.546, 1.743
726.846, 0.463
728.146, 1.808
729.446, 1.976
730.746, 1.166
732.045, 1.602
733.345, 4.509
734.644, 3.269
735.943, 6.899
737.242, 3.806
738.541, 8.951
739.839, 6.283
741.137, 3.882
742.436, 6.305
743.733, 2.481
745.031, 9.678
746.329, 1.517
747.626, 4.562
748.924, 4.518
750.221, 3.329
751.518, 4.810
752.814, 0.447
754.111, 8.174
755.407, 3.455
756.703, 7.237
757.999, 0.831
759.295, 2.131
760.591, 1.836
761.886, 0.618
763.182, 5.339
764.477, 3.188
765.772, 0.048
767.067, 1.890
768.361, 0.265
769.656, 1.582
770.950, 7.568
772.244, 1.715
773.538, 0.140
774.832, 6.003
776.125, 3.143
777.419, 4.281
778.712, 9.417
780.005, 0.551
781.298, 1.683
782.591, 1.812
783.883, 6.938
785.176, 11.063
786.468, 11.186
787.760, 7.307
789.052, 12.426
790.343, 19.543
791.635, 9.641
792.926, 13.722
794.217, 20.672
795.508, 14.517
796.799, 21.382
798.089, 15.489
799.380, 31.496
800.670, 27.600
801.960, 28.701
803.250, 25.801
804.540, 32.968
805.829, 42.996
807.119, 51.091
808.408, 59.184
809.697, 72.276
810.986, 78.366
812.274, 82.455
813.563, 102.543
814.851, 115.629
816.139, 133.713
817.427, 138.796
818.715, 150.877
820.003, 153.956
821.290, 161.034
822.578, 161.211
823.865, 160.184
825.152, 154.260
826.439, 145.331
827.725, 133.685
829.012, 117.469
830.298, 114.534
831.584, 108.597
832.870, 107.659
834.155, 111.718
835.441, 112.776
836.726, 116.620
838.012, 120.462
839.297, 124.937
840.582, 127.109
841.866, 130.157
843.151, 129.203
844.435, 130.247
845.719, 152.306
847.003, 146.346
848.287, 152.384
849.571, 147.615
850.854, 149.058
852.137, 152.988
853.421, 158.944
854.704, 159.901
855.986, 181.810
857.269, 183.585
858.551, 181.518
859.834, 207.530
861.116, 223.743
862.398, 218.762
863.679, 219.757
864.961, 224.760
866.242, 226.751
867.524, 233.884
868.805, 230.893
870.086, 227.714
871.366, 229.721
872.647, 216.684
873.927, 212.687
875.207, 200.675
876.487, 198.155
877.767, 203.594
879.047, 196.448
880.326, 189.145
881.606, 180.182
882.885, 165.836
884.164, 153.705
885.443, 138.559
886.721, 125.257
888.000, 101.777
889.278, 93.525
890.556, 76.460
891.834, 72.361
893.112, 78.607
894.390, 74.538
895.667, 75.111
896.944, 80.042
898.221, 72.935
899.498, 73.892
900.775, 72.791
902.052, 84.705
903.328, 76.621
904.604, 77.277
905.880, 80.196
907.156, 65.019
908.432, 67.377
909.707, 59.309
910.983, 50.273
912.258, 41.123
913.533, 37.756
914.808, 43.839
916.083, 34.752
917.357, 40.360
918.632, 46.092
919.906, 46.994
921.180, 49.807
922.454, 68.818
923.727, 72.758
925.001, 81.726
926.274, 98.648
927.547, 106.541
928.820, 143.498
930.093, 156.442
931.366, 173.383
932.638, 176.354
933.910, 179.260
935.183, 186.176
936.454, 166.093
937.726, 145.049
938.998, 116.022
940.269, 134.995
941.541, 104.950
942.812, 90.925
944.083, 96.898
945.353, 78.861
946.624, 78.839
947.894, 81.821
949.165, 63.803
950.435, 42.790
951.705, 41.774
952.974, 32.748
954.244, 30.721
955.513, 20.693
956.783, 19.665
958.052, 26.636
959.321, 26.607
960.589, 20.588
961.858, 16.557
963.126, 24.526
964.394, 22.494
965.662, 15.712
966.930, 11.679
968.198, 20.645
969.466, 7.611
970.733, 25.576
972.000, 12.553
973.267, 19.526
974.534, 6.579
975.801, 8.671
977.067, 3.636
978.333, 8.632
979.600, 1.605
980.866, 11.568
982.131, 6.530
983.397, 5.492
984.663, 7.453
985.928, 11.414
987.193, 18.386
988.458, 4.345
989.723, 8.305
990.988, 7.265
992.252, 2.776
993.516, 6.182
994.780, 12.139
996.044, 9.108
997.308, 0.064
998.572, 8.020
999.835, 10.975
1001.099, 4.039
1002.362, 7.913
1003.625, 6.134
1004.887, 11.825
1006.150, 8.775
1007.413, 4.728
1008.675, 3.678
1009.937, 11.640
1011.199, 3.591
1012.461, 4.455
1013.722, 7.494
1014.984, 1.442
1016.245, 6.390
1017.506, 0.337
1018.767, 2.715
1020.028, 12.230
1021.288, 8.186
1022.549, 8.357
1023.809, 7.303
1025.069, 8.249
1026.329, 8.781
1027.589, 5.143
1028.848, 11.092
1030.108, 9.039
1031.367, 9.986
1032.626, 1.066
1033.885, 3.883
1035.144, 14.831
1036.402, 2.780
1037.661, 15.743
1038.919, 5.084
1040.177, 2.963
1041.435, 7.989
1042.693, 12.948
1043.950, 6.902
1045.208, 2.870
1046.465, 13.826
1047.722, 8.785
1048.979, 0.743
1050.235, 7.701
1051.492, 0.336
1052.748, 4.622
1054.005, 4.581
1055.261, 0.461
1056.517, 8.499
1057.772, 1.458
1059.028, 11.418
1060.283, 2.381
1061.538, 7.354
1062.793, 11.317
1064.048, 9.280
1065.303, 8.250
1066.558, 3.214
1067.812, 1.177
1069.066, 6.151
1070.320, 3.117
1071.574, 8.092
1072.828, 1.932
1074.081, 1.966
1075.335, 7.000
1076.588, 4.965
1077.841, 7.931
1079.094, 3.897
1080.347, 0.863
1081.599, 6.828
1082.852, 15.794
1084.104, 2.760
1085.356, 13.725
1086.608, 11.691
1087.859, 4.657
1089.111, 3.622
1090.362, 5.602
1091.614, 15.567
1092.865, 3.532
1094.115, 5.497
1095.366, 11.462
1096.617, 2.426
1097.867, 1.391
1099.117, 1.363
1100.367, 0.413
1101.617, 1.536
1102.867, 5.499
1104.116, 9.462
1105.366, 13.424
1106.615, 5.387
1107.864, 12.349
1109.113, 4.311
1110.362, 1.273
1111.610, 18.234
1112.859, 13.208
1114.107, 8.169
1115.355, 3.871
1116.603, 10.088
1117.850, 6.046
1119.098, 18.004
1120.345, 5.961
1121.593, 0.930
1122.840, 1.887
1124.087, 1.156
1125.333, 1.566
1126.580, 6.307
1127.826, 0.258
1129.072, 2.221
1130.319, 10.164
1131.564, 9.117
1132.810, 18.069
1134.056, 5.022
1135.301, 12.974
1136.546, 1.927
1137.791, 5.878
1139.036, 17.009
1140.281, 12.960
1141.526, 5.911
1142.770, 17.740
1144.014, 7.690
1145.258, 1.641
1146.502, 9.591
1147.746, 9.524
1148.990, 10.477
1150.233, 0.427
1151.476, 6.181
1152.719, 15.130
1153.962, 1.752
1155.205, 4.896
1156.448, 3.844
1157.690, 9.792
1158.932, 1.739
1160.174, 13.687
1161.416, 3.634
1162.658, 4.359
1163.900, 12.319
1165.141, 17.256
1166.382, 5.203
1167.624, 8.136
1168.864, 7.960
1170.105, 1.906
1171.346, 3.149
1172.586, 10.811
1173.827, 10.754
1175.067, 8.998
1176.307, 10.941
1177.546, 3.884
1178.786, 10.826
1180.026, 4.768
1181.265, 13.710
1182.504, 18.601
1183.743, 9.553
1184.982, 10.535
1186.220, 1.486
1187.459, 5.573
1188.697, 15.364
1189.935, 5.150
1191.173, 3.097
1192.411, 5.250
1193.649, 2.186
1194.886, 5.119
1196.124, 5.054
1197.361, 8.990
1198.598, 9.507
1199.835, 3.848
1201.071, 11.753
1202.308, 7.687
1203.544, 8.621
1204.780, 9.527
1206.016, 7.468
1207.252, 11.393
1208.488, 9.754
1209.723, 2.258
1210.959, 7.190
1212.194, 8.122
1213.429, 3.053
1214.664, 8.985
1215.899, 6.922
1217.133, 2.843
1218.368, 4.773
1219.602, 2.702
1220.836, 2.633
1222.070, 14.518
1223.304, 6.339
1224.537, 13.268
1225.770, 10.277
1227.004, 12.206
1228.237, 9.135
1229.470, 15.084
1230.703, 18.021
1231.935, 20.950
1233.168, 20.137
1234.400, 19.802
1235.632, 11.730
1236.864, 13.657
1238.096, 1.584
1239.327, 12.523
1240.559, 12.449
1241.790, 8.375
1243.021, 12.302
1244.252, 10.227
1245.483, 12.167
1246.714, 3.086
1247.944, 7.000
1249.174, 3.090
1250.404, 13.822
1251.634, 10.743
1252.864, 11.664
1254.094, 15.585
1255.323, 13.506
1256.553, 5.426
1257.782, 21.346
1259.011, 7.255
1260.240, 2.175
1261.469, 17.092
1262.697, 15.009
1263.925, 23.674
1265.154, 13.590
1266.382, 15.506
1267.610, 14.421
1268.837, 2.336
1270.065, 7.237
1271.292, 15.143
1272.519, 8.033
1273.747, 3.751
1274.973, 6.662
1276.200, 2.543
1277.427, 17.443
1278.653, 6.352
1279.879, 7.262
1281.106, 10.171
1282.332, 11.080
1283.557, 14.988
1284.783, 5.885
1286.008, 2.208
1287.234, 10.697
1288.459, 9.603
1289.684, 11.508
1290.909, 16.412
1292.133, 11.317
1293.358, 22.219
1294.582, 11.122
1295.806, 4.025
1297.030, 25.927
1298.254, 8.799
1299.478, 17.702
1300.701, 10.605
1301.925, 2.502
1303.148, 5.401
1304.371, 13.301
1305.594, 11.204
1306.816, 17.128
1308.039, 5.031
1309.261, 9.928
1310.484, 1.835
1311.706, 8.737
1312.928, 17.637
1314.149, 10.538
1315.371, 8.438
1316.592, 7.339
1317.814, 9.229
1319.035, 0.905
1320.256, 13.804
1321.477, 4.296
1322.697, 5.601
1323.918, 11.499
1325.138, 13.393
1326.358, 10.299
1327.578, 6.196
1328.798, 5.093
1330.018, 2.210
1331.237, 0.113
1332.456, 1.783
1333.676, 7.666
1334.895, 15.172
1336.113, 6.067
1337.332, 1.964
1338.551, 3.146
1339.769, 11.749
1340.987, 5.633
1342.205, 11.528
1343.423, 5.423
1344.641, 6.318
1345.859, 7.212
1347.076, 16.103
1348.293, 5.998
1349.510, 17.893
1350.727, 2.787
1351.944, 2.682
1353.161, 6.576
1354.377, 3.471
1355.593, 6.365
1356.810, 5.249
1358.026, 6.152
1359.241, 19.047
1360.457, 6.961
1361.673, 2.856
1362.888, 13.751
1364.103, 6.638
1365.318, 9.534
1366.533, 4.429
1367.748, 0.667
1368.962, 16.230
1370.177, 17.128
1371.391, 0.968
1372.605, 15.931
1373.819, 13.044
1375.033, 0.056
1376.246, 2.844
1377.460, 9.750
1378.673, 9.651
1379.886, 20.552
1381.099, 10.454
1382.312, 13.356
1383.524, 8.259
1384.737, 2.134
1385.949, 15.022
1387.161, 10.907
1388.373, 4.790
1389.585, 20.670
1390.797, 0.598
1392.008, 4.475
1393.220, 6.291
1394.431, 13.955
1395.642, 11.865
1396.853, 21.774
1398.064, 5.683
1399.274, 20.591
1400.485, 19.487
1401.695, 17.396
1402.905, 26.306
1404.115, 11.204
1405.325, 16.115
1406.534, 21.417
1407.744, 7.313
1408.953, 23.220
1410.162, 18.126
1411.371, 13.033
1412.580, 15.733
1413.789, 11.637
1414.997, 16.541
1416.206, 7.445
1417.414, 11.345
1418.622, 6.249
1419.830, 15.154
1421.038, 3.816
1422.245, 19.718
1423.453, 14.619
1424.660, 4.504
1425.867, 14.405
1427.074, 16.306
1428.281, 19.207
1429.487, 15.090
1430.694, 10.586
1431.900, 12.485
1433.106, 9.384
1434.312, 8.268
1435.518, 10.092
1436.724, 16.992
1437.929, 1.879
1439.134, 18.464
1440.340, 12.362
1441.545, 13.261
1442.750, 17.159
1443.954, 17.058
1445.159, 13.934
1446.363, 18.825
1447.568, 4.723
1448.772, 5.621
1449.976, 7.508
1451.179, 0.595
1452.383, 19.301
1453.587, 23.094
1454.790, 2.848
1455.993, 18.740
1457.196, 9.557
1458.399, 5.445
1459.601, 14.333
1460.804, 4.219
1462.006, 10.082
1463.209, 28.965
1464.411, 11.811
1465.613, 9.689
1466.814, 31.578
1468.016, 6.465
1469.217, 19.352
1470.419, 2.238
1471.620, 14.123
1472.821, 23.018
1474.021, 9.913
1475.222, 12.810
1476.423, 16.708
1477.623, 12.605
1478.823, 16.502
1480.023, 14.397
1481.223, 11.299
1482.423, 15.200
1483.622, 14.101
1484.822, 16.012
1486.021, 22.924
1487.220, 25.837
1488.419, 16.726
1489.618, 11.648
1490.816, 21.572
1492.015, 14.497
1493.213, 13.423
1494.411, 19.236
1495.609, 20.163
1496.807, 21.079
1498.005, 16.018
1499.202, 11.960
1500.400, 21.907
1501.597, 3.858
1502.794, 23.814
1503.991, 0.735
1505.187, 16.698
1506.384, 18.667
1507.580, 12.640
1508.777, 7.618
1509.973, 4.603
1511.169, 2.595
1512.365, 22.593
1513.560, 16.600
1514.756, 5.615
1515.951, 21.641
1517.146, 2.317
1518.341, 11.737
1519.536, 24.742
1520.731, 6.586
1521.926, 23.661
1523.120, 8.751
1524.314, 12.579
1525.508, 23.673
1526.702, 18.697
1527.896, 19.392
1529.090, 18.895
1530.283, 17.321
1531.476, 25.490
1532.670, 16.615
1533.863, 0.019
1535.055, 6.453
1536.248, 0.000
##END=



