##NAMES=Sulphur
##RRUFFID=R040135
##IDEAL CHEMISTRY=S
##LOCALITY=Sicily, Italy
##OWNER=RRUFF
##SOURCE=University of Arizona Mineral Museum
##DESCRIPTION=Yellow fragments
##STATUS=The identification of this mineral has been confirmed by X-ray diffraction and chemical analysis
##URL=rruff.info/R040135
##MEASURED CHEMISTRY=S_1.00_
##PIN_ID=L00272
##ORIENTATION=Laser parallel to -c* (0 0 -1). Fiducial mark perpendicular to laser is parallel to a [1 0 0]
55.323, 0.000
56.716, 19.148
58.108, 21.820
59.501, 12.924
60.893, 7.963
62.285, 8.341
63.677, 13.315
65.069, 5.988
66.460, 20.626
67.851, 9.112
69.242, 0.331
70.633, 1.811
72.024, 3.393
73.414, 14.479
74.805, 3.881
76.195, 23.650
77.585, 30.789
78.974, 71.264
80.364, 150.041
81.753, 228.093
83.142, 338.394
84.531, 469.921
85.920, 685.656
87.308, 1108.582
88.697, 1665.684
90.085, 2107.949
91.473, 1908.381
92.860, 1467.983
94.248, 1062.751
95.635, 785.672
97.022, 658.731
98.409, 534.914
99.796, 484.207
101.183, 435.600
102.569, 407.082
103.955, 423.646
105.341, 416.287
106.727, 408.999
108.113, 419.778
109.498, 418.620
110.883, 425.520
112.268, 430.539
113.653, 437.335
115.038, 431.550
116.422, 448.660
117.806, 431.816
119.190, 422.018
120.574, 427.262
121.958, 425.802
123.341, 424.298
124.725, 437.300
126.108, 425.895
127.491, 422.615
128.873, 425.477
130.256, 414.432
131.638, 433.465
133.020, 427.531
134.402, 450.600
135.784, 464.672
137.165, 494.747
138.547, 592.816
139.928, 691.862
141.309, 972.891
142.690, 1443.907
144.070, 2184.912
145.450, 3170.911
146.831, 4908.904
148.211, 6845.888
149.590, 8018.874
150.970, 9195.862
152.349, 10578.852
153.729, 13908.854
155.108, 14238.857
156.487, 9928.869
157.865, 5429.891
159.244, 2815.919
160.622, 1700.956
162.000, 1120.003
163.378, 823.059
164.755, 687.126
166.133, 530.202
167.510, 467.288
168.887, 389.384
170.264, 382.491
171.641, 329.609
173.017, 312.737
174.394, 299.876
175.770, 274.025
177.146, 243.185
178.522, 247.354
179.897, 257.534
181.272, 283.723
182.648, 299.922
184.023, 325.130
185.397, 363.347
186.772, 400.574
188.146, 447.809
189.521, 555.053
190.895, 653.306
192.269, 918.114
193.642, 1238.173
195.016, 1470.884
196.389, 1520.179
197.762, 1225.328
199.135, 982.271
200.507, 810.578
201.880, 697.929
203.252, 681.742
204.624, 721.435
205.996, 816.508
207.368, 1083.093
208.740, 1715.813
210.111, 2793.058
211.482, 5563.673
212.853, 8322.268
214.224, 13294.378
215.594, 18574.500
216.965, 24904.625
218.335, 39284.758
219.705, 46684.891
221.075, 33024.242
222.444, 15343.705
223.814, 6225.241
225.183, 3250.840
226.552, 1884.490
227.921, 1443.187
229.290, 1162.920
230.658, 978.666
232.026, 890.464
233.394, 831.305
234.762, 939.168
236.130, 976.029
237.498, 1092.900
238.865, 1324.449
240.232, 1694.464
241.599, 2408.508
242.966, 3554.577
244.332, 5673.670
245.699, 7157.788
247.065, 6160.926
248.431, 3781.086
249.797, 1938.265
251.162, 1069.462
252.528, 639.677
253.893, 459.909
255.258, 353.157
256.623, 266.421
257.988, 231.701
259.352, 204.995
260.717, 182.302
262.081, 180.621
263.445, 156.952
264.808, 155.295
266.172, 158.648
267.535, 154.012
268.898, 165.385
270.261, 164.767
271.624, 158.160
272.987, 181.564
274.349, 173.976
275.711, 164.398
277.073, 154.827
278.435, 151.268
279.797, 154.717
281.158, 133.174
282.519, 117.641
283.881, 135.118
285.241, 126.601
286.602, 112.091
287.963, 113.589
289.323, 123.093
290.683, 118.604
292.043, 111.120
293.403, 138.641
294.762, 128.166
296.122, 134.693
297.481, 121.223
298.840, 128.755
300.199, 107.289
301.557, 100.826
302.916, 105.365
304.274, 77.906
305.632, 77.450
306.990, 84.996
308.348, 59.545
309.705, 52.096
311.062, 50.650
312.420, 41.206
313.777, 45.766
315.133, 38.327
316.490, 34.891
317.846, 35.459
319.202, 26.028
320.558, 18.600
321.914, 14.178
323.270, 5.757
324.625, 12.340
325.980, 14.075
327.335, 5.492
328.690, 23.908
330.045, 14.330
331.400, 18.753
332.754, 29.180
334.108, 28.613
335.462, 13.052
336.816, 9.494
338.169, 14.937
339.522, 26.383
340.876, 9.835
342.229, 21.289
343.581, 20.748
344.934, 21.212
346.286, 21.596
347.639, 5.155
348.991, 13.630
350.343, 12.109
351.694, 4.591
353.046, 15.074
354.397, 7.562
355.748, 7.059
357.099, 7.572
358.450, 7.898
359.800, 4.646
361.151, 8.800
362.501, 4.235
363.851, 30.656
365.201, 39.064
366.550, 46.465
367.900, 44.861
369.249, 39.248
370.598, 46.631
371.947, 56.012
373.296, 48.393
374.644, 86.777
375.993, 68.161
377.341, 87.548
378.689, 83.935
380.036, 77.325
381.384, 113.716
382.731, 111.110
384.079, 128.510
385.426, 120.915
386.772, 130.324
388.119, 140.738
389.465, 155.156
390.812, 141.578
392.158, 154.003
393.504, 154.431
394.849, 128.863
396.195, 139.297
397.540, 144.735
398.885, 154.175
400.230, 141.618
401.575, 150.065
402.920, 158.515
404.264, 176.966
405.608, 185.419
406.952, 219.874
408.296, 240.330
409.640, 260.787
410.983, 284.247
412.327, 307.707
413.670, 302.169
415.013, 307.747
416.356, 349.212
417.698, 386.757
419.040, 436.660
420.383, 463.207
421.725, 528.677
423.066, 663.209
424.408, 733.681
425.750, 898.445
427.091, 1041.923
428.432, 1191.400
429.773, 1411.878
431.113, 1505.358
432.454, 1660.272
433.794, 1712.095
435.135, 1749.602
436.474, 1822.486
437.814, 1731.007
439.154, 1596.341
440.493, 1310.880
441.833, 1054.725
443.172, 783.986
444.510, 595.098
445.849, 497.600
447.188, 409.286
448.526, 411.012
449.864, 444.769
451.202, 465.691
452.540, 550.511
453.877, 634.257
455.215, 808.857
456.552, 1020.367
457.889, 1364.846
459.226, 1827.324
460.562, 2488.801
461.899, 3506.278
463.235, 4505.751
464.571, 6076.226
465.907, 8490.697
467.243, 12163.172
468.578, 18323.643
469.914, 26794.109
471.249, 40144.578
472.584, 50095.047
473.919, 49575.508
475.253, 38215.973
476.588, 22826.439
477.922, 14076.974
479.256, 8798.439
480.590, 6019.898
481.924, 4494.941
483.257, 3308.397
484.591, 2712.089
485.924, 2150.551
487.257, 1822.129
488.590, 1507.163
489.922, 1299.167
491.255, 1122.697
492.587, 942.976
493.919, 824.632
495.251, 751.308
496.583, 688.866
497.914, 630.608
499.245, 560.043
500.577, 506.802
501.908, 483.496
503.238, 443.529
504.569, 447.583
505.899, 395.598
507.230, 399.581
508.560, 383.484
509.889, 368.913
511.219, 367.419
512.549, 350.329
513.878, 329.642
515.207, 342.374
516.536, 324.126
517.865, 310.843
519.193, 293.234
520.522, 285.706
521.850, 293.497
523.178, 273.794
524.506, 266.212
525.834, 262.629
527.161, 239.046
528.489, 223.462
529.816, 230.877
531.143, 219.293
532.469, 189.707
533.796, 181.122
535.122, 173.536
536.449, 183.949
537.775, 180.362
539.101, 166.774
540.426, 155.213
541.752, 172.982
543.077, 169.546
544.402, 168.985
545.727, 156.414
547.052, 156.871
548.376, 161.303
549.701, 161.710
551.025, 179.116
552.349, 180.522
553.673, 164.927
554.997, 173.330
556.320, 145.733
557.644, 131.135
558.967, 117.536
560.290, 100.936
561.612, 85.564
562.935, 59.734
564.257, 55.131
565.580, 46.527
566.902, 36.921
568.224, 39.357
569.545, 15.781
570.867, 16.203
572.188, 11.679
573.509, 0.124
574.830, 6.528
576.151, 1.254
577.472, 5.157
578.792, 1.309
580.112, 11.691
581.432, 2.134
582.752, 14.584
584.072, 2.694
585.392, 6.959
586.711, 11.849
588.030, 16.349
589.349, 14.897
590.668, 4.627
591.986, 3.180
593.305, 5.539
594.623, 3.943
595.941, 4.516
597.259, 11.098
598.577, 3.279
599.894, 3.324
601.212, 9.973
602.529, 7.615
603.846, 5.759
605.163, 0.871
606.479, 1.528
607.796, 1.904
609.112, 4.572
610.428, 2.698
611.744, 1.448
613.060, 0.910
614.376, 5.530
615.691, 10.863
617.006, 19.160
618.321, 29.462
619.636, 37.753
620.951, 34.058
622.265, 43.343
623.579, 32.633
624.894, 33.989
626.208, 22.252
627.521, 30.543
628.835, 26.802
630.148, 25.060
631.462, 19.334
632.775, 14.588
634.088, 10.841
635.400, 2.131
636.713, 7.380
638.025, 10.627
639.337, 7.109
640.649, 12.130
641.961, 1.634
643.273, 6.599
644.584, 9.829
645.895, 23.063
647.206, 25.296
648.517, 26.535
649.828, 26.776
651.139, 32.021
652.449, 40.272
653.759, 34.529
655.069, 38.789
656.379, 37.051
657.689, 39.315
658.998, 35.585
660.307, 31.858
661.617, 24.134
662.926, 26.416
664.234, 22.702
665.543, 30.993
666.851, 28.285
668.160, 14.580
669.468, 24.878
670.775, 23.176
672.083, 18.478
673.391, 28.782
674.698, 23.087
676.005, 24.394
677.312, 25.700
678.619, 27.007
679.926, 20.312
681.232, 31.616
682.538, 30.919
683.844, 40.220
685.150, 28.519
686.456, 34.817
687.762, 33.113
689.067, 34.407
690.372, 34.700
691.677, 25.991
692.982, 24.411
694.287, 11.567
695.591, 11.853
696.896, 6.138
698.200, 3.580
699.504, 0.303
700.808, 5.972
702.111, 7.244
703.415, 4.514
704.718, 6.782
706.021, 12.049
707.324, 14.314
708.627, 17.578
709.929, 11.840
711.232, 17.100
712.534, 15.359
713.836, 14.616
715.138, 22.871
716.439, 25.125
717.741, 25.377
719.042, 25.627
720.343, 12.876
721.644, 21.122
722.945, 15.367
724.246, 5.610
725.546, 6.852
726.846, 7.091
728.146, 2.328
729.446, 4.562
730.746, 8.680
732.045, 3.090
733.345, 0.941
734.644, 1.850
735.943, 9.994
737.242, 3.216
738.541, 2.374
739.839, 3.409
741.137, 2.486
742.436, 6.280
743.733, 0.077
745.031, 0.877
746.329, 0.320
747.626, 1.080
748.924, 4.072
750.221, 0.909
751.518, 0.127
752.814, 4.016
754.111, 3.344
755.407, 1.465
756.703, 5.277
757.999, 2.672
759.295, 0.215
760.591, 0.365
761.886, 2.329
763.182, 4.749
764.477, 2.138
765.772, 9.142
767.067, 3.325
768.361, 2.563
769.656, 2.406
770.950, 0.287
772.244, 2.860
773.538, 2.006
774.832, 3.150
776.125, 1.293
777.419, 3.434
778.712, 2.574
780.005, 1.287
781.298, 9.850
782.591, 1.985
783.883, 11.120
785.176, 13.253
786.468, 3.385
787.760, 8.515
789.052, 11.645
790.343, 0.774
791.635, 9.827
792.926, 8.947
794.217, 3.072
795.508, 16.609
796.799, 18.732
798.089, 30.617
799.380, 19.731
800.670, 21.852
801.960, 26.973
803.250, 34.093
804.540, 46.212
805.829, 46.330
807.119, 54.447
808.408, 77.563
809.697, 73.678
810.986, 104.792
812.274, 107.904
813.563, 116.016
814.851, 137.126
816.139, 159.235
817.427, 157.343
818.715, 185.449
820.003, 196.555
821.290, 179.663
822.578, 187.766
823.865, 187.868
825.152, 183.993
826.439, 168.092
827.725, 152.190
829.012, 130.286
830.298, 132.381
831.584, 120.474
832.870, 135.574
834.155, 122.665
835.441, 125.754
836.726, 117.854
838.012, 128.940
839.297, 134.025
840.582, 144.109
841.866, 146.192
843.151, 151.273
844.435, 162.368
845.719, 156.447
847.003, 155.535
848.287, 162.625
849.571, 156.700
850.854, 152.784
852.137, 168.829
853.421, 161.585
854.704, 162.508
855.986, 172.556
857.269, 197.604
858.551, 197.622
859.834, 215.804
861.116, 213.867
862.398, 213.968
863.679, 231.030
864.961, 242.127
866.242, 234.268
867.524, 223.326
868.805, 222.383
870.086, 220.443
871.366, 202.506
872.647, 207.558
873.927, 201.615
875.207, 207.665
876.487, 203.714
877.767, 186.763
879.047, 190.768
880.326, 182.783
881.606, 187.798
882.885, 174.681
884.164, 162.742
885.443, 146.844
886.721, 127.927
888.000, 109.085
889.278, 85.039
890.556, 92.205
891.834, 72.181
893.112, 61.142
894.390, 72.086
895.667, 58.839
896.944, 67.365
898.221, 66.268
899.498, 64.241
900.775, 59.166
902.052, 66.124
903.328, 59.794
904.604, 58.662
905.880, 67.586
907.156, 54.579
908.432, 55.576
909.707, 58.550
910.983, 52.686
912.258, 40.809
913.533, 43.854
914.808, 32.837
916.083, 38.844
917.357, 35.578
918.632, 31.588
919.906, 40.053
921.180, 39.894
922.454, 42.919
923.727, 50.220
925.001, 50.816
926.274, 62.843
927.547, 72.863
928.820, 78.891
930.093, 94.904
931.366, 108.933
932.638, 122.955
933.910, 112.910
935.183, 123.954
936.454, 115.970
937.726, 131.015
938.998, 116.059
940.269, 126.084
941.541, 128.126
942.812, 113.167
944.083, 109.168
945.353, 108.209
946.624, 84.249
947.894, 76.271
949.165, 53.312
950.435, 45.707
951.705, 34.759
952.974, 30.800
954.244, 24.007
955.513, 24.047
956.783, 26.086
958.052, 29.125
959.321, 18.163
960.589, 12.211
961.858, 10.248
963.126, 12.284
964.394, 12.327
965.662, 8.362
966.930, 13.397
968.198, 14.442
969.466, 10.475
970.733, 10.509
972.000, 11.541
973.267, 2.574
974.534, 11.605
975.801, 12.638
977.067, 0.324
978.333, 8.717
979.600, 8.748
980.866, 10.778
982.131, 8.814
983.397, 8.854
984.663, 1.885
985.928, 8.913
987.193, 8.941
988.458, 0.968
989.723, 5.995
990.988, 7.021
992.252, 9.047
993.516, 4.072
994.780, 13.097
996.044, 0.122
997.308, 6.146
998.572, 1.170
999.835, 0.194
1001.099, 7.217
1002.362, 1.240
1003.625, 6.263
1004.887, 0.714
1006.150, 2.321
1007.413, 1.352
1008.675, 10.375
1009.937, 6.398
1011.199, 2.579
1012.461, 8.443
1013.722, 0.536
1014.984, 3.492
1016.245, 0.488
1017.506, 1.469
1018.767, 7.550
1020.028, 3.567
1021.288, 2.585
1022.549, 1.611
1023.809, 8.627
1025.069, 2.644
1026.329, 6.661
1027.589, 5.676
1028.848, 3.692
1030.108, 6.707
1031.367, 7.723
1032.626, 3.738
1033.885, 7.753
1035.144, 5.773
1036.402, 1.212
1037.661, 6.198
1038.919, 5.239
1040.177, 5.823
1041.435, 2.167
1042.693, 2.842
1043.950, 6.850
1045.208, 4.135
1046.465, 7.873
1047.722, 1.086
1048.979, 5.096
1050.235, 1.867
1051.492, 3.143
1052.748, 1.154
1054.005, 6.165
1055.261, 10.177
1056.517, 4.189
1057.772, 8.202
1059.028, 5.215
1060.283, 11.228
1061.538, 1.760
1062.793, 1.748
1064.048, 0.738
1065.303, 7.272
1066.558, 4.281
1067.812, 1.300
1069.066, 12.324
1070.320, 7.459
1071.574, 3.597
1072.828, 11.610
1074.081, 10.623
1075.335, 6.636
1076.588, 5.649
1077.841, 10.662
1079.094, 5.747
1080.347, 4.760
1081.599, 9.772
1082.852, 5.784
1084.104, 12.796
1085.356, 9.810
1086.608, 15.832
1087.859, 3.844
1089.111, 6.855
1090.362, 6.865
1091.614, 11.876
1092.865, 14.890
1094.115, 12.901
1095.366, 13.912
1096.617, 9.922
1097.867, 3.932
1099.117, 5.942
1100.367, 5.048
1101.617, 1.958
1102.867, 9.963
1104.116, 2.031
1105.366, 5.981
1106.615, 10.984
1107.864, 11.987
1109.113, 13.989
1110.362, 1.992
1111.610, 5.994
1112.859, 6.006
1114.107, 3.007
1115.355, 9.008
1116.603, 12.008
1117.850, 2.008
1119.098, 7.008
1120.345, 4.941
1121.593, 9.006
1122.840, 5.005
1124.087, 10.999
1125.333, 11.286
1126.580, 3.284
1127.826, 2.255
1129.072, 5.252
1130.319, 5.249
1131.564, 3.245
1132.810, 2.241
1134.056, 4.237
1135.301, 10.225
1136.546, 7.221
1137.791, 8.216
1139.036, 7.199
1140.281, 5.194
1141.526, 11.189
1142.770, 9.183
1144.014, 5.177
1145.258, 18.311
1146.502, 7.288
1147.746, 8.287
1148.990, 7.269
1150.233, 11.247
1151.476, 9.390
1152.719, 9.372
1153.962, 6.363
1155.205, 2.311
1156.448, 3.296
1157.690, 8.276
1158.932, 5.266
1160.174, 9.256
1161.416, 8.104
1162.658, 12.093
1163.900, 3.044
1165.141, 11.031
1166.382, 5.982
1167.624, 9.887
1168.864, 6.875
1170.105, 9.108
1171.346, 2.844
1172.586, 10.827
1173.827, 10.813
1175.067, 4.795
1176.307, 10.781
1177.546, 10.766
1178.786, 7.754
1180.026, 4.739
1181.265, 6.724
1182.504, 6.719
1183.743, 3.703
1184.982, 5.916
1186.220, 5.888
1187.459, 6.195
1188.697, 7.855
1189.935, 6.837
1191.173, 7.689
1192.411, 5.667
1193.649, 2.649
1194.886, 15.374
1196.124, 2.639
1197.361, 10.329
1198.598, 0.308
1199.835, 11.165
1201.071, 9.142
1202.308, 10.108
1203.544, 7.097
1204.780, 7.499
1206.016, 7.169
1207.252, 8.036
1208.488, 7.013
1209.723, 8.990
1210.959, 8.846
1212.194, 4.702
1213.429, 8.614
1214.664, 8.589
1215.899, 1.564
1217.133, 0.528
1218.368, 1.498
1219.602, 1.525
1220.836, 12.445
1222.070, 4.417
1223.304, 13.390
1224.537, 11.372
1225.770, 6.382
1227.004, 0.644
1228.237, 11.327
1229.470, 4.297
1230.703, 9.270
1231.935, 4.240
1233.168, 3.223
1234.400, 1.192
1235.632, 7.161
1236.864, 15.128
1238.096, 14.096
1239.327, 14.769
1240.559, 3.313
1241.790, 12.280
1243.021, 6.247
1244.252, 11.214
1245.483, 5.180
1246.714, 8.144
1247.944, 4.110
1249.174, 5.721
1250.404, 12.676
1251.634, 12.641
1252.864, 1.439
1254.094, 8.404
1255.323, 9.368
1256.553, 10.340
1257.782, 14.305
1259.011, 3.258
1260.240, 1.243
1261.469, 9.205
1262.697, 5.161
1263.925, 22.122
1265.154, 8.084
1266.382, 8.035
1267.610, 3.996
1268.837, 14.957
1270.065, 10.918
1271.292, 7.878
1272.519, 4.162
1273.747, 3.796
1274.973, 7.747
1276.200, 12.694
1277.427, 10.651
1278.653, 4.608
1279.879, 10.559
1281.106, 9.659
1282.332, 10.265
1283.557, 12.191
1284.783, 12.527
1286.008, 10.483
1287.234, 10.439
1288.459, 3.395
1289.684, 11.350
1290.909, 11.306
1292.133, 1.739
1293.358, 9.223
1294.582, 2.243
1295.806, 8.197
1297.030, 12.151
1298.254, 1.895
1299.478, 6.059
1300.701, 5.012
1301.925, 9.964
1303.148, 5.906
1304.371, 8.851
1305.594, 6.804
1306.816, 3.756
1308.039, 5.709
1309.261, 5.664
1310.484, 9.617
1311.706, 10.561
1312.928, 14.517
1314.149, 9.469
1315.371, 5.422
1316.592, 8.374
1317.814, 8.327
1319.035, 2.268
1320.256, 9.218
1321.477, 5.168
1322.697, 10.117
1323.918, 13.067
1325.138, 3.016
1326.358, 10.965
1327.578, 7.913
1328.798, 0.862
1330.018, 8.811
1331.237, 8.754
1332.456, 5.702
1333.676, 10.651
1334.895, 6.601
1336.113, 8.553
1337.332, 12.504
1338.551, 10.455
1339.769, 6.405
1340.987, 4.348
1342.205, 2.299
1343.423, 13.046
1344.641, 10.997
1345.859, 7.921
1347.076, 2.871
1348.293, 5.821
1349.510, 0.771
1350.727, 10.721
1351.944, 7.671
1353.161, 1.621
1354.377, 8.570
1355.593, 5.519
1356.810, 9.468
1358.026, 10.418
1359.241, 4.368
1360.457, 5.318
1361.673, 10.268
1362.888, 18.210
1364.103, 12.146
1365.318, 7.971
1366.533, 9.799
1367.748, 7.839
1368.962, 2.822
1370.177, 0.773
1371.391, 0.177
1372.605, 2.773
1373.819, 5.651
1375.033, 14.601
1376.246, 2.552
1377.460, 12.503
1378.673, 0.454
1379.886, 4.403
1381.099, 7.344
1382.312, 12.289
1383.524, 10.229
1384.737, 1.169
1385.949, 3.893
1387.161, 8.039
1388.373, 12.973
1389.585, 12.904
1390.797, 11.834
1392.008, 12.743
1393.220, 12.691
1394.431, 10.614
1395.642, 12.577
1396.853, 11.532
1398.064, 7.496
1399.274, 7.460
1400.485, 5.412
1401.695, 1.376
1402.905, 3.340
1404.115, 6.303
1405.325, 0.267
1406.534, 11.915
1407.744, 6.876
1408.953, 8.837
1410.162, 12.798
1411.371, 6.757
1412.580, 6.717
1413.789, 12.677
1414.997, 4.635
1416.206, 10.429
1417.414, 11.379
1418.622, 11.336
1419.830, 11.716
1421.038, 5.065
1422.245, 9.020
1423.453, 13.975
1424.660, 13.930
1425.867, 2.115
1427.074, 2.840
1428.281, 3.796
1429.487, 11.743
1430.694, 3.698
1431.900, 6.653
1433.106, 3.605
1434.312, 3.545
1435.518, 13.500
1436.724, 14.455
1437.929, 1.410
1439.134, 0.635
1440.340, 13.320
1441.545, 7.269
1442.750, 15.226
1443.954, 17.181
1445.159, 7.123
1446.363, 8.069
1447.568, 11.027
1448.772, 7.985
1449.976, 11.943
1451.179, 7.902
1452.383, 7.861
1453.587, 2.823
1454.790, 8.762
1455.993, 7.933
1457.196, 2.610
1458.399, 11.563
1459.601, 10.497
1460.804, 10.456
1462.006, 4.398
1463.209, 18.837
1464.411, 10.789
1465.613, 10.742
1466.814, 9.695
1468.016, 3.648
1469.217, 14.601
1470.419, 5.535
1471.620, 18.486
1472.821, 10.393
1474.021, 4.349
1475.222, 4.303
1476.423, 6.258
1477.623, 12.213
1478.823, 13.171
1480.023, 12.132
1481.223, 8.093
1482.423, 8.657
1483.622, 14.606
1484.822, 4.558
1486.021, 10.510
1487.220, 13.461
1488.419, 6.391
1489.618, 16.146
1490.816, 14.091
1492.015, 11.035
1493.213, 12.978
1494.411, 9.920
1495.609, 14.860
1496.807, 11.792
1498.005, 3.721
1499.202, 8.660
1500.400, 8.598
1501.597, 11.552
1502.794, 11.749
1503.991, 8.458
1505.187, 8.411
1506.384, 12.365
1507.580, 5.318
1508.777, 6.271
1509.973, 2.222
1511.169, 0.809
1512.365, 0.160
1513.560, 10.130
1514.756, 0.887
1515.951, 5.099
1517.146, 10.089
1518.341, 4.084
1519.536, 14.087
1520.731, 11.095
1521.926, 5.109
1523.120, 12.132
1524.314, 15.122
1525.508, 11.760
1526.702, 8.401
1527.896, 10.132
1529.090, 3.787
1530.283, 9.327
1531.476, 0.688
1532.670, 7.221
1533.863, 2.800
1535.055, 9.326
1536.248, 0.019
1537.441, 0.000
##END=



