##NAMES=Talc
##RRUFFID=R050087
##IDEAL CHEMISTRY=Mg_3_Si_4_O_10_(OH)_2_
##LOCALITY=St. Lawrence County, New York, USA
##OWNER=RRUFF
##SOURCE=University of Arizona Mineral Museum
##DESCRIPTION=An aggregate of colorless foliated coarse single crystals
##STATUS=The identification of this mineral has been confirmed by X-ray diffraction and chemical analysis
##URL=rruff.info/R050087
##MEASURED CHEMISTRY=(Mg_.998_Fe_.002_)_3_(Si_.997_Al_.003_)_4_O_10_(OH_.966_F_.034_)_2_
##PIN_ID=M00333
##ORIENTATION=Laser parallel to c* (0 0 1). Fiducial mark perpendicular to laser is parallel to a [1 0 0]
95.94800, 0.0000000E+00
97.18200, 394.7988
98.41600, 523.2500
99.64900, 912.8555
100.8830, 1898.967
102.1160, 2587.908
103.3490, 3614.932
104.5820, 4204.748
105.8150, 4385.332
107.0470, 5032.154
108.2800, 5472.293
109.5120, 5624.670
110.7440, 5001.947
111.9760, 4356.250
113.2080, 3928.266
114.4400, 3958.520
115.6710, 3523.432
116.9030, 3188.584
118.1340, 2353.365
119.3650, 2072.607
120.5960, 1340.861
121.8270, 605.6445
123.0580, 283.3516
124.2880, 77.91406
125.5190, 68.72852
126.7490, 118.6484
127.9790, 30.10938
129.2090, 20.50781
130.4390, 70.54688
131.6680, 186.9590
132.8980, 13.97461
134.1270, 17.53516
135.3560, 59.63086
136.5850, 58.43164
137.8140, 44.39453
139.0430, 201.1348
140.2710, 207.0059
141.5000, 180.8066
142.7280, 27.66406
143.9560, 112.5879
145.1840, 121.5898
146.4120, 111.6406
147.6390, 108.0996
148.8670, 272.7734
150.0940, 46.69727
151.3210, 40.91797
152.5490, 343.3867
153.7750, 498.0371
155.0020, 100.8633
156.2290, 74.85938
157.4550, 203.0215
158.6810, 282.3457
159.9080, 82.82617
161.1340, 58.46289
162.3590, 278.2520
163.5850, 187.1875
164.8110, 316.2676
166.0360, 240.4863
167.2610, 358.8438
168.4860, 372.3359
169.7110, 185.9258
170.9360, 423.5645
172.1610, 533.3027
173.3850, 509.1582
174.6100, 445.0039
175.8340, 467.0781
177.0580, 515.2930
178.2820, 682.6172
179.5050, 815.0781
180.7290, 986.7109
181.9520, 1368.457
183.1760, 2313.291
184.3990, 3878.172
185.6220, 6110.961
186.8450, 8036.748
188.0670, 7326.566
189.2900, 6645.430
190.5120, 8029.346
191.7340, 9566.311
192.9560, 10546.23
194.1780, 11186.11
195.4000, 11220.03
196.6220, 10704.02
197.8430, 8689.098
199.0640, 6190.248
200.2860, 4072.469
201.5070, 2633.771
202.7270, 1862.145
203.9480, 1455.451
205.1690, 1070.941
206.3890, 748.6953
207.6090, 526.2734
208.8290, 371.3867
210.0490, 266.9570
211.2690, 293.4395
212.4890, 326.3047
213.7080, 451.2383
214.9280, 747.2402
216.1470, 442.3125
217.3660, 476.4512
218.5850, 178.6543
219.8030, 392.9258
221.0220, 612.2598
222.2400, 318.6582
223.4590, 365.1328
224.6770, 368.6797
225.8950, 483.2871
227.1120, 582.9512
228.3300, 260.6758
229.5480, 348.4570
230.7650, 625.2969
231.9820, 268.1875
233.1990, 285.1387
234.4160, 279.1406
235.6330, 238.1953
236.8490, 245.3047
238.0660, 253.4648
239.2820, 346.6758
240.4980, 233.9395
241.7140, 264.5781
242.9300, 325.1699
244.1460, 178.7070
245.3610, 208.0332
246.5770, 106.8164
247.7920, 236.8613
249.0070, 290.0664
250.2220, 74.36328
251.4370, 98.93750
252.6510, 107.9922
253.8660, 156.2949
255.0800, 258.5293
256.2940, 152.2227
257.5080, 83.22266
258.7220, 318.9473
259.9360, 483.4043
261.1490, 349.5508
262.3630, 201.6719
263.5760, 48.11914
264.7890, 217.7754
266.0020, 108.3105
267.2150, 101.6406
268.4270, 252.0645
269.6400, 90.46875
270.8520, 181.0664
272.0640, 255.7461
273.2760, 248.9297
274.4880, 123.7715
275.7000, 82.86133
276.9120, 331.5469
278.1230, 413.6367
279.3340, 530.7891
280.5450, 738.8301
281.7560, 853.0801
282.9670, 992.8535
284.1780, 1171.643
285.3880, 1248.084
286.5980, 1404.580
287.8090, 1536.027
289.0190, 1488.660
290.2290, 1512.113
291.4380, 1506.221
292.6480, 1472.996
293.8570, 1225.816
295.0670, 779.7227
296.2760, 687.6719
297.4850, 229.6660
298.6930, 341.6992
299.9020, 289.7754
301.1110, 454.8906
302.3190, 240.0488
303.5270, 229.2480
304.7350, 220.4922
305.9430, 58.79102
307.1510, 235.1328
308.3580, 53.51953
309.5660, 67.05273
310.7730, 323.4023
311.9800, 190.8867
313.1870, 25.40820
314.3940, 88.96094
315.6010, 106.4395
316.8070, 164.1699
318.0130, 67.81836
319.2200, 86.49609
320.4260, 330.1406
321.6310, 121.8164
322.8370, 634.5684
324.0430, 544.3535
325.2480, 691.2168
326.4540, 814.1055
327.6590, 806.0215
328.8640, 882.9844
330.0680, 955.9766
331.2730, 1054.992
332.4780, 1054.037
333.6820, 1094.096
334.8860, 1170.199
336.0900, 1057.322
337.2940, 986.4668
338.4980, 864.6406
339.7010, 880.8379
340.9050, 1121.062
342.1080, 1089.311
343.3110, 1163.586
344.5140, 1541.887
345.7170, 1709.207
346.9200, 1769.693
348.1220, 2260.064
349.3240, 2907.551
350.5270, 3802.955
351.7290, 4867.355
352.9310, 6273.781
354.1320, 7707.225
355.3340, 8810.693
356.5350, 9856.186
357.7370, 10610.46
358.9380, 11174.73
360.1390, 11448.78
361.3400, 11677.35
362.5400, 11383.95
363.7410, 11043.56
364.9410, 9916.188
366.1410, 8213.840
367.3410, 6696.512
368.5410, 5261.197
369.7410, 4089.904
370.9400, 3243.109
372.1400, 2358.369
373.3390, 2110.125
374.5380, 1834.900
375.7370, 1645.693
376.9360, 1309.500
378.1350, 1493.324
379.3330, 1573.164
380.5310, 1151.018
381.7300, 1014.889
382.9280, 1087.775
384.1260, 664.6777
385.3230, 784.5938
386.5210, 529.5234
387.7180, 579.4824
388.9160, 218.4668
390.1130, 368.4707
391.3100, 65.49023
392.5060, 139.5254
393.7030, 74.57617
394.9000, 95.36133
396.0960, 62.79102
397.2920, 128.4727
398.4880, 87.02734
399.6840, 59.65039
400.8800, 64.34180
402.0750, 292.3496
403.2710, 87.62305
404.4660, 14.61523
405.6610, 78.59766
406.8560, 21.59180
408.0510, 160.5801
409.2450, 13.37891
410.4400, 160.3574
411.6340, 143.3516
412.8280, 103.6348
414.0220, 426.3516
415.2160, 44.70117
416.4100, 198.4297
417.6030, 219.9609
418.7970, 225.7871
419.9900, 499.4688
421.1830, 276.2070
422.3760, 698.3926
423.5690, 1257.596
424.7610, 1546.818
425.9540, 1675.072
427.1460, 1812.322
428.3380, 2110.598
429.5300, 2408.887
430.7220, 2423.014
431.9140, 2733.367
433.1050, 2725.732
434.2970, 2372.135
435.4880, 2049.574
436.6790, 1884.025
437.8700, 1328.121
439.0610, 940.6992
440.2510, 709.1816
441.4420, 526.8066
442.6320, 477.6094
443.8220, 529.4219
445.0120, 397.1074
446.2020, 581.9961
447.3910, 388.7598
448.5810, 728.3496
449.7700, 432.1230
450.9600, 734.9668
452.1490, 720.5020
453.3370, 711.9648
454.5260, 481.5508
455.7150, 833.1426
456.9030, 904.5020
458.0910, 927.4492
459.2800, 1156.131
460.4670, 883.6914
461.6550, 1185.369
462.8430, 1545.740
464.0300, 1357.375
465.2180, 1707.531
466.4050, 1794.977
467.5920, 1855.787
468.7790, 1771.441
469.9650, 1815.098
471.1520, 1418.932
472.3380, 1335.596
473.5250, 960.3379
474.7110, 675.7070
475.8970, 581.7539
477.0820, 239.4258
478.2680, 264.1055
479.4540, 476.7812
480.6390, 209.4609
481.8240, 184.1426
483.0090, 94.85547
484.1940, 181.5410
485.3780, 216.2266
486.5630, 87.91406
487.7470, 287.6035
488.9320, 29.29297
490.1160, 101.9805
491.3000, 12.33008
492.4830, 391.3379
493.6670, 229.0059
494.8500, 298.6758
496.0340, 379.3438
497.2170, 403.0137
498.4000, 419.8516
499.5820, 151.3516
500.7650, 408.0195
501.9480, 397.6855
503.1300, 403.3555
504.3120, 603.0195
505.4940, 549.6855
506.6760, 351.3496
507.8580, 373.0137
509.0390, 377.6738
510.2210, 584.3359
511.4020, 619.9922
512.5830, 324.6484
513.7640, 283.3047
514.9450, 179.9590
516.1250, 138.3516
517.3060, 629.2617
518.4860, 200.9082
519.6660, 368.5547
520.8460, 460.1973
522.0260, 221.8379
523.2060, 112.4746
524.3850, 385.1074
525.5650, 282.7383
526.7440, 253.3652
527.9230, 202.9922
529.1020, 307.6113
530.2810, 115.2305
531.4590, 204.8457
532.6380, 82.45898
533.8160, 111.0645
534.9940, 333.6680
536.1720, 297.2695
537.3500, 142.4512
538.5270, 0.6054690
539.7050, 14.97852
540.8820, 33.58398
542.0590, 90.70898
543.2360, 184.3027
544.4130, 310.8965
545.5900, 342.0898
546.7660, 355.5566
547.9430, 365.7129
549.1190, 334.4746
550.2950, 294.7871
551.4710, 216.6816
552.6470, 208.2500
553.8220, 116.1855
554.9980, 110.4102
556.1730, 18.06055
557.3480, 10.35352
558.5230, 15.25586
559.6980, 91.11328
560.8730, 12.48242
562.0470, 12.09766
563.2220, 61.69727
564.3960, 114.2969
565.5700, 137.8906
566.7440, 49.48242
567.9170, 186.0684
569.0910, 195.6523
570.2640, 158.1914
571.4380, 121.1973
572.6110, 73.29688
573.7840, 169.8145
574.9570, 91.32617
576.1290, 319.8340
577.3020, 167.3340
578.4740, 132.1738
579.6460, 48.22852
580.8180, 84.62500
581.9900, 47.01562
583.1620, 34.39844
584.3330, 35.00000
585.5040, 46.14844
586.6760, 1.517578
587.8470, 3.927734
589.0180, 40.78516
590.1880, 4.509766
591.3590, 12.21484
592.5290, 6.970703
593.7000, 143.2500
594.8700, 157.4727
596.0400, 108.6875
597.2090, 17.89453
598.3790, 11.91211
599.5490, 110.2500
600.7180, 13.42383
601.8870, 67.57812
603.0560, 20.72656
604.2250, 152.8574
605.3940, 141.0195
606.5620, 1.994141
607.7300, 150.9941
608.8990, 101.9043
610.0670, 162.7910
611.2350, 55.32812
612.4020, 126.4941
613.5700, 69.31250
614.7370, 289.1211
615.9050, 69.91992
617.0720, 185.7109
618.2390, 267.4961
619.4060, 176.2695
620.5720, 191.0371
621.7390, 191.7949
622.9050, 81.54297
624.0710, 291.2812
625.2370, 467.0137
626.4030, 293.7344
627.5690, 477.4512
628.7340, 332.1543
629.9000, 434.7148
631.0650, 374.4004
632.2300, 250.9727
633.3950, 389.6406
634.5600, 403.3027
635.7240, 386.9551
636.8890, 448.5957
638.0530, 483.5820
639.2170, 469.8594
640.3810, 564.4785
641.5450, 689.0859
642.7080, 649.6855
643.8720, 679.1680
645.0350, 1012.857
646.1980, 652.4316
647.3610, 711.9961
648.5240, 791.5508
649.6870, 1288.096
650.8490, 1359.633
652.0120, 1396.160
653.1740, 1350.678
654.3360, 1721.188
655.4980, 1865.688
656.6600, 2231.180
657.8210, 2207.662
658.9830, 2778.133
660.1440, 3197.596
661.3050, 4098.051
662.4660, 4860.496
663.6270, 5730.936
664.7870, 7589.367
665.9480, 8953.789
667.1080, 11581.21
668.2680, 14208.61
669.4280, 16906.01
670.5880, 20202.39
671.7480, 22752.77
672.9070, 24637.14
674.0670, 26453.50
675.2260, 27704.85
676.3850, 27647.20
677.5440, 27116.74
678.7030, 24890.21
679.8610, 22308.70
681.0200, 19135.74
682.1780, 15700.14
683.3360, 12619.21
684.4940, 10178.59
685.6520, 8176.977
686.8090, 6535.359
687.9670, 5408.746
689.1240, 4716.129
690.2810, 4139.535
691.4380, 3553.934
692.5950, 3003.324
693.7520, 2605.395
694.9080, 2234.059
696.0650, 2007.918
697.2210, 1787.871
698.3770, 1606.559
699.5330, 1682.203
700.6880, 1408.910
701.8440, 1352.672
702.9990, 1389.988
704.1550, 1257.293
705.3100, 1078.141
706.4650, 869.4102
707.6190, 949.3672
708.7740, 833.7500
709.9290, 779.0039
711.0830, 723.5195
712.2370, 668.9492
713.3910, 631.3594
714.5450, 590.5664
715.6980, 674.7734
716.8520, 647.9688
718.0050, 365.5781
719.1580, 659.7656
720.3110, 833.9297
721.4640, 583.9570
722.6170, 331.3555
723.7700, 490.2148
724.9220, 528.2109
726.0740, 538.6758
727.2260, 690.5820
728.3780, 355.6523
729.5300, 323.5391
730.6810, 572.3516
731.8330, 337.4727
732.9840, 456.5469
734.1350, 398.6172
735.2860, 548.6719
736.4370, 627.9570
737.5880, 449.6562
738.7380, 617.6836
739.8880, 642.7578
741.0390, 447.7148
742.1890, 411.9727
743.3380, 348.9609
744.4880, 222.4258
745.6380, 238.5977
746.7870, 481.3984
747.9360, 451.3516
749.0850, 416.3008
750.2340, 455.0625
751.3830, 379.3711
752.5310, 547.8398
753.6800, 228.7539
754.8280, 322.8672
755.9760, 165.7656
757.1240, 320.6562
758.2720, 186.5430
759.4190, 229.4219
760.5670, 498.3867
761.7140, 283.2227
762.8610, 359.0781
764.0080, 278.9258
765.1550, 220.7656
766.3020, 244.7930
767.4480, 231.9609
768.5950, 251.2500
769.7410, 284.0664
770.8870, 332.8828
772.0330, 340.6914
773.1780, 440.4922
774.3240, 473.5781
775.4690, 665.3945
776.6140, 605.1797
777.7590, 752.9570
778.9040, 864.7227
780.0490, 903.4883
781.1940, 1390.281
782.3380, 1359.031
783.4820, 1369.770
784.6260, 1713.508
785.7700, 1718.238
786.9140, 1579.961
788.0580, 1607.676
789.2010, 1545.387
790.3450, 1488.090
791.4880, 1258.789
792.6310, 1296.480
793.7730, 1146.164
794.9160, 967.8438
796.0590, 913.5195
797.2010, 760.1875
798.3430, 862.0977
799.4850, 672.8906
800.6270, 391.9727
801.7690, 439.6406
802.9100, 158.5508
804.0520, 95.18359
805.1930, 289.8086
806.3340, 269.4297
807.4750, 230.0430
808.6160, 274.7812
809.7560, 214.7930
810.8970, 384.3906
812.0370, 281.9805
813.1770, 237.5664
814.3170, 35.85938
815.4570, 188.6836
816.5960, 172.2305
817.7360, 304.7773
818.8750, 114.9648
820.0140, 17.50000
821.1530, 301.0234
822.2920, 126.5391
823.4310, 285.0508
824.5690, 342.5547
825.7070, 219.0508
826.8460, 256.5430
827.9840, 149.0273
829.1220, 100.5312
830.2590, 231.9766
831.3970, 29.56250
832.5340, 59.12891
833.6710, 146.0859
834.8080, 81.44922
835.9450, 103.1992
837.0820, 77.00000
838.2190, 107.1445
839.3550, 234.2852
840.4910, 338.4180
841.6270, 20.54688
842.7630, 86.66406
843.8990, 11.77344
845.0350, 59.87500
846.1700, 162.9648
847.3060, 235.0508
848.4410, 103.8320
849.5760, 226.2148
850.7100, 105.2578
851.8450, 199.5664
852.9800, 260.8594
854.1140, 67.88281
855.2480, 57.94141
856.3820, 85.99219
857.5160, 166.0391
858.6500, 6.378906
859.7830, 265.6445
860.9170, 14.33203
862.0500, 9.335938
863.1830, 271.6406
864.3160, 408.6250
865.4480, 93.61719
866.5810, 162.6133
867.7130, 289.8125
868.8460, 268.8281
869.9780, 328.3828
871.1100, 338.8359
872.2410, 328.8320
873.3730, 341.4766
874.5050, 316.0977
875.6360, 315.8203
876.7670, 301.8164
877.8980, 280.8008
879.0290, 353.7930
880.1590, 198.7773
881.2900, 321.8008
882.4200, 279.1719
883.5500, 153.9453
884.6800, 231.0352
885.8100, 347.1211
886.9400, 236.2227
888.0690, 151.3203
889.1990, 193.4102
890.3280, 30.50781
891.4570, 125.6016
892.5860, 326.6914
893.7140, 279.7695
894.8430, 236.8555
895.9710, 49.94141
897.1000, 184.0195
898.2280, 167.0898
899.3560, 197.1523
900.4830, 140.2188
901.6110, 117.2930
902.7380, 185.3594
903.8660, 78.42578
904.9930, 413.4961
906.1200, 162.5742
907.2460, 301.6680
908.3730, 192.7734
909.5000, 187.8711
910.6260, 21.96875
911.7520, 371.0664
912.8780, 203.1523
914.0040, 170.2344
915.1290, 231.3125
916.2550, 54.38672
917.3800, 452.4570
918.5050, 699.5234
919.6300, 528.5820
920.7550, 169.6484
921.8800, 70.71094
923.0040, 201.7695
924.1290, 81.83594
925.2530, 322.9336
926.3770, 370.0234
927.5010, 86.11328
928.6250, 88.20312
929.7480, 186.2891
930.8720, 163.3711
931.9950, 75.44922
933.1180, 22.52344
934.2410, 61.58984
935.3640, 4.648438
936.4860, 51.00391
937.6090, 19.75000
938.7310, 163.7969
939.8530, 144.8320
940.9750, 255.8672
942.0970, 333.8984
943.2180, 32.92578
944.3400, 9.945313
945.4610, 68.95703
946.5820, 88.96094
947.7030, 53.96484
948.8240, 295.9688
949.9450, 442.7734
951.0650, 83.76953
952.1860, 119.7617
953.3060, 109.2500
954.4260, 357.6680
955.5460, 227.9023
956.6650, 167.8242
957.7850, 332.7422
958.9040, 261.6562
960.0230, 355.5703
961.1420, 258.4766
962.2610, 264.4375
963.3800, 227.2812
964.4990, 239.1758
965.6170, 235.0703
966.7350, 255.9961
967.8530, 90.06641
968.9710, 271.6875
970.0890, 18.37500
971.2070, 55.70312
972.3240, 8.679688
973.4410, 64.56250
974.5580, 141.4492
975.6750, 149.3281
976.7920, 151.7344
977.9090, 152.5391
979.0250, 112.7344
980.1410, 104.4883
981.2580, 111.3750
982.3740, 157.2695
983.4890, 18.66016
984.6050, 48.54688
985.7200, 42.56250
986.8360, 9.433594
987.9510, 152.1562
989.0660, 30.96094
990.1810, 213.7031
991.2950, 150.5625
992.4100, 94.57812
993.5240, 285.6914
994.6390, 160.5000
995.7530, 12.29688
996.8660, 59.41016
997.9800, 187.2188
999.0940, 43.02344
1000.207, 250.8281
1001.320, 8.371094
1002.433, 247.5195
1003.546, 21.32031
1004.659, 50.12109
1005.772, 393.9219
1006.884, 332.7188
1007.996, 381.5156
1009.108, 140.3125
1010.220, 410.1055
1011.332, 294.9062
1012.444, 209.7070
1013.555, 426.5078
1014.666, 644.3086
1015.777, 538.8242
1016.888, 621.6172
1017.999, 683.4102
1019.110, 661.8945
1020.220, 665.7852
1021.331, 682.7891
1022.441, 546.5781
1023.551, 495.9922
1024.661, 356.5039
1025.770, 426.2891
1026.880, 444.0781
1027.989, 356.7305
1029.098, 467.6367
1030.207, 225.3281
1031.316, 234.1055
1032.425, 145.8828
1033.533, 296.6562
1034.642, 196.8281
1035.750, 366.6055
1036.858, 155.3789
1037.966, 161.4414
1039.073, 314.4375
1040.181, 385.9062
1041.288, 145.9414
1042.396, 409.7070
1043.503, 370.0000
1044.610, 515.4414
1045.716, 680.1992
1046.823, 456.9570
1047.929, 871.7109
1049.036, 1073.465
1050.142, 1167.180
1051.248, 1091.930
1052.353, 1086.680
1053.459, 1034.984
1054.564, 876.7266
1055.670, 895.4727
1056.775, 674.8359
1057.880, 547.8672
1058.985, 383.6055
1060.089, 589.3398
1061.194, 470.9258
1062.298, 314.6562
1063.402, 429.3867
1064.506, 210.4297
1065.610, 460.1523
1066.713, 268.6250
1067.817, 165.3438
1068.920, 457.4844
1070.023, 109.1719
1071.126, 406.6133
1072.229, 492.3203
1073.332, 226.0273
1074.435, 241.7344
1075.537, 346.4414
1076.639, 381.0156
1077.741, 163.3086
1078.843, 259.0078
1079.945, 104.7070
1081.046, 45.40234
1082.148, 177.0977
1083.249, 267.8047
1084.350, 78.51172
1085.451, 280.3438
1086.551, 293.3945
1087.652, 233.0977
1088.752, 246.5781
1089.853, 259.2812
1090.953, 66.98438
1092.053, 241.6836
1093.152, 47.38281
1094.252, 124.0820
1095.351, 46.78125
1096.451, 356.4766
1097.550, 153.1719
1098.649, 206.8672
1099.748, 447.5742
1100.846, 399.7070
1101.945, 454.4766
1103.043, 456.2617
1104.141, 243.0938
1105.239, 339.9453
1106.337, 81.80078
1107.434, 280.6523
1108.532, 244.5039
1109.629, 99.35938
1110.726, 204.2148
1111.823, 172.0742
1112.920, 187.3164
1114.017, 224.0664
1115.113, 294.9219
1116.210, 231.8086
1117.306, 243.6914
1118.402, 353.3047
1119.498, 496.9258
1120.593, 417.8125
1121.689, 759.6992
1122.784, 485.5859
1123.879, 344.4688
1124.974, 510.8164
1126.069, 470.7070
1127.164, 677.5977
1128.259, 369.5000
1129.353, 259.4180
1130.447, 327.3281
1131.541, 141.2383
1132.635, 138.1523
1133.729, 27.14062
1134.822, 234.7539
1135.916, 72.65234
1137.009, 43.54688
1138.102, 159.4414
1139.195, 142.3359
1140.288, 323.2383
1141.380, 302.1367
1142.473, 94.12109
1143.565, 429.0273
1144.657, 413.9258
1145.749, 29.82812
1146.841, 86.26953
1147.932, 154.5820
1149.024, 48.44141
1150.115, 44.29297
1151.206, 132.1523
1152.297, 36.74609
1153.388, 371.8711
1154.479, 37.27344
1155.569, 99.56641
1156.659, 85.41016
1157.750, 426.2500
1158.839, 26.90234
1159.929, 166.9219
1161.019, 267.7539
1162.108, 217.5820
1163.198, 705.4180
1164.287, 169.2539
1165.376, 51.91016
1166.465, 205.8984
1167.553, 285.7109
1168.642, 33.48438
1169.730, 49.68750
1170.818, 57.92188
1171.906, 67.18750
1172.994, 198.5117
1174.082, 0.7851560
1175.170, 75.91406
1176.257, 290.6211
1177.344, 100.3281
1178.431, 24.03516
1179.518, 83.74609
1180.605, 272.4609
1181.691, 14.18359
1182.778, 598.9023
1183.864, 40.67969
1184.950, 484.0273
1186.036, 57.73438
1187.122, 42.55469
1188.207, 134.8633
1189.292, 149.7578
1190.378, 190.3867
1191.463, 9.984375
1192.548, 529.6406
1193.632, 568.2695
1194.717, 0.9023440
1195.801, 394.5312
1196.886, 99.16797
1197.970, 247.8086
1199.054, 114.4531
1200.137, 251.1055
1201.221, 115.7617
1202.305, 419.4219
1203.388, 19.09375
1204.471, 56.76172
1205.554, 203.4336
1206.637, 340.1172
1207.719, 94.80078
1208.802, 8.492188
1209.884, 307.1836
1210.966, 114.8867
1212.048, 54.59375
1213.130, 303.3086
1214.212, 147.0234
1215.293, 21.25391
1216.374, 258.4609
1217.456, 206.2148
1218.536, 35.02734
1219.617, 346.7227
1220.698, 67.47656
1221.778, 114.2344
1222.859, 230.0000
1223.939, 68.77344
1225.019, 322.5469
1226.099, 260.3320
1227.178, 65.11328
1228.258, 421.9102
1229.337, 89.70703
1230.417, 50.49219
1231.496, 541.2969
1232.574, 340.0938
1233.653, 121.8945
1234.732, 95.70312
1235.810, 91.51172
1236.888, 192.3320
1237.966, 226.1562
1239.044, 42.98438
1240.122, 224.8203
1241.199, 255.6562
1242.277, 53.49609
1243.354, 22.66406
1244.431, 255.1641
1245.508, 412.9961
1246.585, 443.5859
1247.661, 264.6875
1248.738, 432.5508
1249.814, 299.4219
1250.890, 96.30469
1251.966, 90.18750
1253.042, 181.0820
1254.117, 419.9805
1255.193, 191.9180
1256.268, 295.8633
1257.343, 372.8164
1258.418, 222.7734
1259.493, 415.7383
1260.567, 87.71484
1261.642, 291.6992
1262.716, 333.6836
1263.790, 290.5938
1264.864, 365.6016
1265.938, 160.6133
1267.011, 407.6367
1268.085, 131.6680
1269.158, 350.6992
1270.231, 26.74609
1271.304, 34.20312
1272.377, 290.8477
1273.450, 556.9062
1274.522, 309.9727
1275.594, 474.0469
1276.666, 28.41797
1277.738, 172.5117
1278.810, 333.6133
1279.882, 163.7305
1280.953, 463.8516
1282.025, 224.9805
1283.096, 424.1250
1284.167, 663.6484
1285.238, 246.8125
1286.308, 293.9805
1287.379, 266.1641
1288.449, 185.3594
1289.519, 410.5625
1290.589, 396.7734
1291.659, 301.0000
1292.729, 52.23047
1293.798, 409.4766
1294.868, 208.3359
1295.937, 99.60547
1297.006, 268.8867
1298.075, 213.8867
1299.143, 308.0039
1300.212, 340.6562
1301.280, 306.7500
1302.348, 352.1250
1303.416, 302.9922
1304.484, 176.3984
1305.552, 457.8125
1306.620, 217.2422
1307.687, 37.68750
1308.754, 417.1484
1309.821, 266.6172
1310.888, 274.1055
1311.955, 37.39453
1313.021, 144.5625
1314.088, 397.0938
1315.154, 214.6289
1316.220, 231.5664
1317.286, 610.8477
1318.352, 19.42188
1319.417, 409.0117
1320.483, 155.7617
1321.548, 185.3711
1322.613, 308.9922
1323.678, 280.3086
1324.743, 310.9531
1325.807, 105.6094
1326.872, 197.2695
1327.936, 346.9492
1329.000, 225.6367
1330.064, 485.3398
1331.128, 370.0508
1332.191, 276.7773
1333.255, 235.5156
1334.318, 228.2617
1335.381, 190.4023
1336.444, 94.79688
1337.507, 163.5859
1338.569, 270.3867
1339.632, 241.5977
1340.694, 183.4219
1341.756, 145.2578
1342.818, 123.4141
1343.880, 144.8477
1344.941, 28.72656
1346.003, 217.6211
1347.064, 69.75000
1348.125, 185.6719
1349.186, 165.6055
1350.247, 49.55469
1351.308, 226.5156
1352.368, 285.5000
1353.428, 371.5273
1354.489, 428.0000
1355.549, 383.1836
1356.608, 429.6016
1357.668, 288.6562
1358.727, 161.3203
1359.787, 177.4062
1360.846, 248.5039
1361.905, 367.6211
1362.964, 229.7500
1364.022, 198.9023
1365.081, 291.0664
1366.139, 255.2422
1367.197, 407.4414
1368.255, 405.6523
1369.313, 316.8828
1370.371, 407.7383
1371.428, 315.1133
1372.486, 266.3945
1373.543, 187.6953
1374.600, 96.01172
1375.657, 243.3438
1376.713, 263.6914
1377.770, 185.0625
1378.826, 130.4453
1379.882, 319.8477
1380.938, 405.2656
1381.994, 511.3984
1383.050, 138.8516
1384.106, 16.32422
1385.161, 259.8164
1386.216, 180.3164
1387.271, 306.8438
1388.326, 272.3906
1389.381, 318.9492
1390.435, 344.5312
1391.490, 361.4141
1392.544, 333.3906
1393.598, 354.4180
1394.652, 243.0820
1395.705, 73.76562
1396.759, 17.46875
1397.812, 98.19141
1398.866, 311.8516
1399.919, 61.61719
1400.972, 316.4062
1402.024, 311.2148
1403.077, 70.04688
1404.129, 370.9219
1405.181, 509.8281
1406.233, 250.7617
1407.285, 306.7070
1408.337, 402.6758
1409.389, 153.9688
1410.440, 159.9883
1411.491, 459.0391
1412.542, 390.1172
1413.593, 279.2188
1414.644, 294.3477
1415.695, 337.4844
1416.745, 296.6406
1417.795, 532.8242
1418.845, 297.0391
1419.895, 42.27344
1420.945, 254.5430
1421.995, 230.8477
1423.044, 339.2500
1424.093, 313.7891
1425.142, 420.0430
1426.191, 245.5000
1427.240, 23.00000
1428.289, 152.5469
1429.337, 254.1211
1430.385, 353.7305
1431.433, 410.3789
1432.481, 127.0547
1433.529, 58.77344
1434.577, 307.5352
1435.624, 129.3320
1436.672, 541.1602
1437.719, 508.6172
1438.766, 459.4062
1439.812, 554.8555
1440.859, 316.2930
1441.905, 166.6914
1442.952, 7.035156
1443.998, 487.1602
1445.044, 270.3945
1446.090, 282.3477
1447.135, 92.63281
1448.181, 287.6406
1449.226, 219.1953
1450.271, 389.9023
1451.316, 250.0742
1452.361, 319.2734
1453.405, 308.4961
1454.450, 440.7461
1455.494, 293.0234
1456.538, 336.3242
1457.582, 282.0938
1458.626, 173.0039
1459.670, 217.3984
1460.713, 269.8281
1461.757, 387.2930
1462.800, 247.7852
1463.843, 254.3125
1464.886, 29.14062
1465.928, 134.4414
1466.971, 571.0742
1468.013, 167.7383
1469.055, 241.4336
1470.097, 364.1562
1471.139, 101.9102
1472.181, 142.7109
1473.222, 380.5625
1474.263, 211.4492
1475.305, 336.3672
1476.346, 389.3164
1477.386, 210.3008
1478.427, 4.703125
1479.468, 71.64062
1480.508, 489.3867
1481.548, 101.4805
1482.588, 424.6016
1483.628, 451.7656
1484.668, 69.95703
1485.707, 286.1797
1486.747, 131.4531
1487.786, 381.7617
1488.825, 328.1016
1489.864, 418.4766
1490.902, 171.8867
1491.941, 513.3242
1492.979, 272.7969
1494.017, 502.3008
1495.055, 257.8398
1496.093, 178.4102
1497.131, 112.0156
1498.168, 152.7773
1499.206, 44.25000
1500.243, 330.8125
1501.280, 423.3984
1502.317, 396.0117
1503.354, 111.6445
1504.390, 480.3008
1505.426, 159.9766
1506.463, 45.33594
1507.499, 368.3867
1508.535, 395.1445
1509.570, 255.9531
1510.606, 324.8086
1511.641, 250.7344
1512.676, 512.7109
1513.711, 62.74609
1514.746, 240.8398
1515.781, 355.9922
1516.816, 216.2070
1517.850, 243.4766
1518.884, 316.8984
1519.918, 225.2734
1520.952, 264.7148
1521.986, 367.2227
1523.019, 413.7930
1524.053, 129.4180
1525.086, 351.1172
1526.119, 261.7734
1527.152, 89.60156
1528.185, 406.4922
1529.217, 323.4609
1530.250, 98.50000
1531.282, 386.6133
1532.314, 398.8008
1533.346, 47.06250
1534.377, 608.4062
1535.409, 459.8320
1536.440, 384.3477
1537.472, 543.9609
1538.503, 270.6758
1539.534, 236.0703
1540.564, 180.8047
1541.595, 168.8086
1542.625, 375.6055
1543.656, 284.6758
1544.686, 265.8672
1545.716, 300.1914
1546.745, 155.6758
1547.775, 135.2930
1548.804, 100.9492
1549.834, 278.9609
1550.863, 241.0312
1551.892, 537.1914
1552.920, 492.6641
1553.949, 248.1250
1554.977, 535.7656
1556.006, 514.8164
1557.034, 450.3516
1558.062, 520.6797
1559.089, 547.3438
1560.117, 399.4883
1561.144, 177.4414
1562.172, 4.949219
1563.199, 288.6641
1564.226, 369.5000
1565.252, 175.8594
1566.279, 215.2266
1567.305, 166.0703
1568.332, 56.87891
1569.358, 71.14453
1570.384, 0.4960940
1571.409, 0.0000000E+00
##END=



