##NAMES=Talc
##RRUFFID=R050087
##IDEAL CHEMISTRY=Mg_3_Si_4_O_10_(OH)_2_
##LOCALITY=St. Lawrence County, New York, USA
##OWNER=RRUFF
##SOURCE=University of Arizona Mineral Museum
##DESCRIPTION=An aggregate of colorless foliated coarse single crystals
##STATUS=The identification of this mineral has been confirmed by X-ray diffraction and chemical analysis
##URL=rruff.info/R050087
##MEASURED CHEMISTRY=(Mg_.998_Fe_.002_)_3_(Si_.997_Al_.003_)_4_O_10_(OH_.966_F_.034_)_2_
##PIN_ID=M00333
##ORIENTATION=Laser parallel to c* (0 0 1). Fiducial mark perpendicular to laser is parallel to a [1 0 0]
95.94800, 0.0000000E+00
97.18200, 209.6670
98.41600, 349.7559
99.64900, 623.1865
100.8830, 907.9863
102.1160, 1413.795
103.3490, 2136.900
104.5820, 2946.096
105.8150, 3707.302
107.0470, 4445.611
108.2800, 4771.566
109.5120, 4650.129
110.7440, 3933.706
111.9760, 3199.764
113.2080, 3160.179
114.4400, 2958.777
115.6710, 2837.452
116.9030, 2467.641
118.1340, 2153.162
119.3650, 1855.041
120.5960, 1299.045
121.8270, 628.0527
123.0580, 314.9688
124.2880, 160.7207
125.5190, 89.23535
126.7490, 19.55469
127.9790, 56.70801
129.2090, 70.56152
130.4390, 107.0508
131.6680, 22.80469
132.8980, 53.68555
134.1270, 17.12598
135.3560, 16.36523
136.5850, 55.60742
137.8140, 18.30957
139.0430, 52.25684
140.2710, 43.78027
141.5000, 88.42188
142.7280, 129.8350
143.9560, 97.44824
145.1840, 13.25293
146.4120, 101.2422
147.6390, 115.4082
148.8670, 234.7783
150.0940, 71.37012
151.3210, 156.2344
152.5490, 184.2451
153.7750, 135.3975
155.0020, 171.6875
156.2290, 189.1123
157.4550, 43.66797
158.6810, 103.3516
159.9080, 22.16113
161.1340, 75.09473
162.3590, 314.1533
163.5850, 303.3369
164.8110, 269.6387
166.0360, 277.0566
167.2610, 280.9268
168.4860, 311.4668
169.7110, 342.7246
170.9360, 412.9180
172.1610, 487.4297
173.3850, 528.9990
174.6100, 615.3838
175.8340, 536.4082
177.0580, 798.8516
178.2820, 804.5938
179.5050, 1030.481
180.7290, 1378.479
181.9520, 1852.578
183.1760, 3320.078
184.3990, 5519.707
185.6220, 8762.893
186.8450, 11858.05
188.0670, 12339.22
189.2900, 13197.44
190.5120, 18746.70
191.7340, 25552.01
192.9560, 33282.39
194.1780, 40511.82
195.4000, 46102.34
196.6220, 45823.93
197.8430, 38266.58
199.0640, 25014.30
200.2860, 13542.10
201.5070, 7027.947
202.7270, 3825.862
203.9480, 2400.381
205.1690, 1764.074
206.3890, 1171.101
207.6090, 1052.188
208.8290, 659.3359
210.0490, 715.5410
211.2690, 607.8047
212.4890, 526.1230
213.7080, 471.4951
214.9280, 403.0703
216.1470, 361.1865
217.3660, 316.9238
218.5850, 309.5029
219.8030, 291.1602
221.0220, 311.8750
222.2400, 337.6680
223.4590, 422.5254
224.6770, 436.7871
225.8950, 499.4258
227.1120, 524.5547
228.3300, 493.7500
229.5480, 563.9883
230.7650, 504.2617
231.9820, 545.5693
233.1990, 435.9111
234.4160, 349.2910
235.6330, 158.7031
236.8490, 155.1455
238.0660, 184.6260
239.2820, 247.1367
240.4980, 4.686523
241.7140, 100.7285
242.9300, 83.19922
244.1460, 44.48145
245.3610, 151.5918
246.5770, 71.16309
247.7920, 8.072266
249.0070, 73.22559
250.2220, 94.57617
251.4370, 112.0508
252.6510, 79.38770
253.8660, 27.77148
255.0800, 59.08496
256.2940, 20.33594
257.5080, 100.3535
258.7220, 60.14746
259.9360, 107.8096
261.1490, 188.8594
262.3630, 116.5459
263.5760, 113.8027
264.7890, 110.0527
266.0020, 50.92480
267.2150, 78.88086
268.4270, 24.91406
269.6400, 46.97656
270.8520, 5.191406
272.0640, 120.4229
273.2760, 181.7441
274.4880, 173.6543
275.7000, 68.08984
276.9120, 348.9717
278.1230, 258.5488
279.3340, 183.9766
280.5450, 576.5898
281.7560, 566.2539
282.9670, 971.8193
284.1780, 1054.904
285.3880, 1133.691
286.5980, 1388.919
287.8090, 1666.790
289.0190, 2030.698
290.2290, 2653.639
291.4380, 2618.615
292.6480, 2369.624
293.8570, 2076.660
295.0670, 1426.770
296.2760, 779.9072
297.4850, 417.0742
298.6930, 328.2705
299.9020, 281.5400
301.1110, 144.8545
302.3190, 11.80371
303.5270, 172.5566
304.7350, 368.9414
305.9430, 229.3506
307.1510, 294.7803
308.3580, 20.23438
309.5660, 83.71094
310.7730, 66.79199
311.9800, 71.70898
313.1870, 38.76953
314.3940, 70.75977
315.6010, 18.26758
316.8070, 59.77539
318.0130, 68.30664
319.2200, 61.85742
320.4260, 18.39648
321.6310, 170.9160
322.8370, 125.4492
324.0430, 227.0000
325.2480, 174.5684
326.4540, 375.1523
327.6590, 84.75195
328.8640, 271.3477
330.0680, 568.9570
331.2730, 289.5820
332.4780, 462.2188
333.6820, 542.8750
334.8860, 502.5430
336.0900, 509.2266
337.2940, 388.9238
338.4980, 468.6367
339.7010, 604.3691
340.9050, 399.8242
342.1080, 428.5762
343.3110, 649.7988
344.5140, 607.5391
345.7170, 730.1875
346.9200, 1041.059
348.1220, 993.1211
349.3240, 1375.912
350.5270, 1465.225
351.7290, 1805.980
352.9310, 2321.793
354.1320, 2690.664
355.3340, 3423.168
356.5350, 3810.865
357.7370, 4562.605
358.9380, 5041.602
360.1390, 5822.461
361.3400, 6583.326
362.5400, 6913.197
363.7410, 6880.078
364.9410, 6701.961
366.1410, 5527.850
367.3410, 4218.744
368.5410, 3301.645
369.7410, 2202.943
370.9400, 1899.852
372.1400, 1343.762
373.3390, 1198.674
374.5380, 758.5898
375.7370, 690.5078
376.9360, 725.0898
378.1350, 544.0117
379.3330, 692.9316
380.5310, 545.8555
381.7300, 610.7832
382.9280, 523.6895
384.1260, 287.6172
385.3230, 228.5430
386.5210, 528.0156
387.7180, 341.2070
388.9160, 275.2891
390.1130, 135.4531
391.3100, 57.43945
392.5060, 41.42969
393.7030, 55.52734
394.9000, 143.3535
396.0960, 145.3613
397.2920, 135.7305
398.4880, 91.54883
399.6840, 38.82031
400.8800, 25.44141
402.0750, 117.7109
403.2710, 150.7363
404.4660, 92.31250
405.6610, 107.2129
406.8560, 5.218750
408.0510, 84.87500
409.2450, 100.6875
410.4400, 106.9570
411.6340, 107.9023
412.8280, 66.80859
414.0220, 161.0723
415.2160, 152.0879
416.4100, 157.5078
417.6030, 193.3691
418.7970, 138.3340
419.9900, 100.7500
421.1830, 50.65234
422.3760, 330.6270
423.5690, 388.5371
424.7610, 455.1934
425.9540, 702.6719
427.1460, 765.3379
428.3380, 864.2578
429.5300, 1054.057
430.7220, 1253.049
431.9140, 1547.000
433.1050, 1563.898
434.2970, 1641.438
435.4880, 1658.395
436.6790, 1415.291
437.8700, 882.0703
439.0610, 730.0879
440.2510, 551.6641
441.4420, 414.9453
442.6320, 289.4258
443.8220, 426.7090
445.0120, 263.0645
446.2020, 573.3164
447.3910, 630.4082
448.5810, 550.3438
449.7700, 515.4961
450.9600, 665.7793
452.1490, 901.8613
453.3370, 737.8145
454.5260, 888.5781
455.7150, 696.3242
456.9030, 726.0371
458.0910, 657.7656
459.2800, 645.6914
460.4670, 608.6836
461.6550, 528.0273
462.8430, 563.7090
464.0300, 504.3809
465.2180, 583.3379
466.4050, 687.3750
467.5920, 863.4609
468.7790, 855.1094
469.9650, 909.7441
471.1520, 878.3711
472.3380, 591.9883
473.5250, 246.7852
474.7110, 316.3770
475.8970, 145.9609
477.0820, 313.5332
478.2680, 188.2246
479.4540, 174.7734
480.6390, 192.4375
481.8240, 71.95898
483.0090, 11.53125
484.1940, 136.9395
485.3780, 41.39844
486.5630, 23.85352
487.7470, 3.285156
488.9320, 21.68555
490.1160, 17.12695
491.3000, 166.4805
492.4830, 43.81641
493.6670, 28.13672
494.8500, 211.4336
496.0340, 61.28516
497.2170, 55.07031
498.4000, 9.919922
499.5820, 33.19141
500.7650, 25.27734
501.9480, 222.3379
503.1300, 188.3848
504.3120, 293.4160
505.4940, 349.1738
506.6760, 320.4316
507.8580, 354.4180
509.0390, 372.3867
510.2210, 206.3398
511.4020, 62.27734
512.5830, 191.1953
513.7640, 261.0957
514.9450, 168.9824
516.1250, 142.8516
517.3060, 372.7070
518.4860, 53.54297
519.6660, 299.3574
520.8460, 153.1543
522.0260, 139.9355
523.2060, 257.6973
524.3850, 9.445313
525.5650, 207.1582
526.7440, 273.8555
527.9230, 260.5352
529.1020, 85.21875
530.2810, 152.8828
531.4590, 36.53516
532.6380, 265.1621
533.8160, 264.7715
534.9940, 103.3633
536.1720, 54.93359
537.3500, 289.4922
538.5270, 205.0391
539.7050, 104.5957
540.8820, 176.1406
542.0590, 19.67969
543.2360, 62.33008
544.4130, 21.79102
545.5900, 223.2461
546.7660, 85.90039
547.9430, 77.52539
549.1190, 143.2305
550.2950, 73.98047
551.4710, 69.22461
552.6470, 104.4082
553.8220, 33.57422
554.9980, 198.7129
556.1730, 153.3574
557.3480, 219.9668
558.5230, 154.0684
559.6980, 110.1543
560.8730, 65.21875
562.0470, 144.2637
563.2220, 119.2852
564.3960, 181.2910
565.5700, 8.277344
566.7440, 65.23047
567.9170, 54.16016
569.0910, 139.0645
570.2640, 46.95117
571.4380, 0.8125000
572.6110, 39.07227
573.7840, 233.4258
574.9570, 63.20117
576.1290, 131.9512
577.3020, 145.6836
578.4740, 123.6035
579.6460, 116.0078
580.8180, 60.70312
581.9900, 83.26953
583.1620, 151.1855
584.3330, 36.69336
585.5040, 76.70508
586.6760, 120.0820
587.8470, 101.4395
589.0180, 125.7773
590.1880, 94.30664
591.3590, 80.59961
592.5290, 101.0762
593.7000, 117.8711
594.8700, 95.17969
596.0400, 191.3984
597.2090, 223.5977
598.3790, 250.7891
599.5490, 114.9629
600.7180, 64.12109
601.8870, 116.8652
603.0560, 214.3691
604.2250, 205.4648
605.3940, 106.5430
606.5620, 102.6992
607.7300, 95.74414
608.8990, 180.7656
610.0670, 189.0918
611.2350, 252.0723
612.4020, 237.2773
613.5700, 132.2188
614.7370, 216.1367
615.9050, 219.4395
617.0720, 318.9395
618.2390, 148.8320
619.4060, 261.7031
620.5720, 150.5684
621.7390, 321.6523
622.9050, 318.7012
624.0710, 206.5996
625.2370, 392.4062
626.4030, 211.1230
627.5690, 219.9395
628.7340, 186.8203
629.9000, 164.3398
631.0650, 316.0879
632.2300, 244.9023
633.3950, 312.0527
634.5600, 427.2051
635.7240, 367.8379
636.8890, 351.3984
638.0530, 495.3203
639.2170, 452.0645
640.3810, 477.7324
641.5450, 350.2012
642.7080, 514.7266
643.8720, 507.2344
645.0350, 537.7227
646.1980, 728.1934
647.3610, 782.6465
648.5240, 733.0781
649.6870, 724.4922
650.8490, 792.6309
652.0120, 831.7734
653.1740, 918.2344
654.3360, 1048.578
655.4980, 1114.902
656.6600, 1310.199
657.8210, 1411.496
658.9830, 1908.104
660.1440, 2256.355
661.3050, 2666.590
662.4660, 3282.807
663.6270, 3741.006
664.7870, 4341.207
665.9480, 5475.367
667.1080, 6504.512
668.2680, 8235.639
669.4280, 10052.51
670.5880, 12106.60
671.7480, 14268.48
672.9070, 16285.54
674.0670, 18455.59
675.2260, 20082.52
676.3850, 21330.64
677.5440, 21552.21
678.7030, 20326.69
679.8610, 18422.78
681.0200, 16077.99
682.1780, 13027.19
683.3360, 10352.52
684.4940, 8609.982
685.6520, 6777.156
686.8090, 5673.707
687.9670, 4538.119
689.1240, 3473.191
690.2810, 3198.436
691.4380, 2512.934
692.5950, 2140.742
693.7520, 1924.697
694.9080, 1638.834
696.0650, 1530.842
697.2210, 1387.008
698.3770, 1080.125
699.5330, 939.8516
700.6880, 1005.121
701.8440, 896.9082
702.9990, 718.6074
704.1550, 705.3633
705.3100, 466.3516
706.4650, 475.5000
707.6190, 619.4473
708.7740, 460.3984
709.9290, 466.1816
711.0830, 437.8613
712.2370, 439.4570
713.3910, 371.0820
714.5450, 334.0488
715.6980, 312.3320
716.8520, 306.9121
718.0050, 371.8809
719.1580, 117.2969
720.3110, 293.4355
721.4640, 247.5430
722.6170, 128.4609
723.7700, 168.7070
724.9220, 137.9551
726.0740, 258.2812
727.2260, 257.4629
728.3780, 10.22266
729.5300, 179.8477
730.6810, 82.76367
731.8330, 19.85352
732.9840, 289.1777
734.1350, 199.1777
735.2860, 314.5293
736.4370, 263.0449
737.5880, 193.0469
738.7380, 307.7090
739.8880, 253.2734
741.0390, 275.9551
742.1890, 242.2422
743.3380, 158.4980
744.4880, 75.55664
745.6380, 226.0996
746.7870, 201.0195
747.9360, 55.23047
749.0850, 236.3711
750.2340, 11.50195
751.3830, 260.6016
752.5310, 141.5020
753.6800, 44.06836
754.8280, 27.21680
755.9760, 209.2578
757.1240, 236.6113
758.2720, 191.1504
759.4190, 81.02344
760.5670, 272.2129
761.7140, 169.1855
762.8610, 188.1562
764.0080, 42.48633
765.1550, 138.4297
766.3020, 142.3379
767.4480, 215.2383
768.5950, 101.0645
769.7410, 109.9863
770.8870, 318.8574
772.0330, 44.05859
773.1780, 144.9648
774.3240, 220.7988
775.4690, 148.1797
776.6140, 134.0371
777.7590, 181.3750
778.9040, 123.0664
780.0490, 268.9336
781.1940, 346.7617
782.3380, 433.5762
783.4820, 473.3770
784.6260, 685.1660
785.7700, 489.9434
786.9140, 442.7676
788.0580, 494.7188
789.2010, 719.5469
790.3450, 645.2754
791.4880, 581.9902
792.6310, 388.6895
793.7730, 601.3789
794.9160, 429.0547
796.0590, 420.7168
797.2010, 438.3711
798.3430, 263.1973
799.4850, 420.8262
800.6270, 228.4434
801.7690, 253.2363
802.9100, 211.8379
804.0520, 148.4277
805.1930, 289.0059
806.3340, 320.5742
807.4750, 305.3789
808.6160, 150.9219
809.7560, 173.6367
810.8970, 192.1602
812.0370, 225.6738
813.1770, 36.82422
814.3170, 18.64258
815.4570, 45.90625
816.5960, 66.76367
817.7360, 64.16016
818.8750, 184.9785
820.0140, 108.5039
821.1530, 213.1328
822.2920, 79.56250
823.4310, 53.95898
824.5690, 23.37500
825.7070, 96.72266
826.8460, 126.0605
827.9840, 237.4102
829.1220, 135.8750
830.2590, 101.2051
831.3970, 64.53125
832.5340, 91.17773
833.6710, 60.03125
834.8080, 67.31641
835.9450, 156.5840
837.0820, 206.8438
838.2190, 166.0918
839.3550, 179.3281
840.4910, 197.3301
841.6270, 200.8750
842.7630, 166.0938
843.8990, 210.3496
845.0350, 65.64844
846.1700, 129.8379
847.3060, 104.0254
848.4410, 200.2285
849.5760, 168.4277
850.7100, 292.6152
851.8450, 11.87305
852.9800, 231.0332
854.1140, 61.18359
855.2480, 179.3613
856.3820, 58.42188
857.5160, 252.5801
858.6500, 95.27344
859.7830, 84.81836
860.9170, 61.94922
862.0500, 185.0703
863.1830, 149.1836
864.3160, 195.2852
865.4480, 130.1660
866.5810, 134.2656
867.7130, 269.1230
868.8460, 94.56445
869.9780, 272.6191
871.1100, 248.6680
872.2410, 81.70508
873.3730, 11.73242
874.5050, 8.259766
875.6360, 162.7266
876.7670, 16.70508
877.8980, 117.6680
879.0290, 249.6230
880.1590, 191.5625
881.2900, 30.60742
882.4200, 74.29297
883.5500, 103.1836
884.6800, 233.7422
885.8100, 225.6211
886.9400, 169.2422
888.0690, 157.1016
889.1990, 18.95117
890.3280, 98.61133
891.4570, 227.5664
892.5860, 21.32227
893.7140, 25.93359
894.8430, 263.7812
895.9710, 68.75586
897.1000, 265.8945
898.2280, 211.5352
899.3560, 25.16602
900.4830, 272.3984
901.6110, 314.9941
902.7380, 174.5977
903.8660, 140.1895
904.9930, 93.60938
906.1200, 233.0566
907.2460, 26.62305
908.3730, 86.72266
909.5000, 154.2676
910.6260, 12.19336
911.7520, 127.3203
912.8780, 26.80469
914.0040, 217.2988
915.1290, 90.71875
916.2550, 111.1934
917.3800, 325.6641
918.5050, 308.1250
919.6300, 406.5742
920.7550, 166.0195
921.8800, 78.45312
923.0040, 44.87891
924.1290, 70.29688
925.2530, 120.7051
926.3770, 124.1035
927.5010, 173.4922
928.6250, 112.8750
929.7480, 113.2480
930.8720, 90.96680
931.9950, 198.9766
933.1180, 43.32617
934.2410, 120.6680
935.3640, 139.0020
936.4860, 40.35547
937.6090, 218.6992
938.7310, 291.0352
939.8530, 346.3613
940.9750, 235.6895
942.0970, 22.00586
943.2180, 86.31445
944.3400, 8.384766
945.4610, 233.8984
946.5820, 280.1738
947.7030, 115.4414
948.8240, 246.7637
949.9450, 212.4277
951.0650, 12.17383
952.1860, 159.1523
953.3060, 126.8848
954.4260, 35.55664
955.5460, 10.63086
956.6650, 52.80664
957.7850, 37.74609
958.9040, 187.6895
960.0230, 154.2637
961.1420, 177.2715
962.2610, 70.40039
963.3800, 32.54492
964.4990, 164.6836
965.6170, 168.2363
966.7350, 1.085938
967.8530, 82.96094
968.9710, 205.7891
970.0890, 59.56445
971.2070, 233.6152
972.3240, 220.6582
973.4410, 190.6973
974.5580, 54.31836
975.6750, 40.34961
976.7920, 236.3730
977.9090, 45.39258
979.0250, 32.40430
980.1410, 202.1406
981.2580, 96.54297
982.3740, 334.3340
983.4890, 156.3418
984.6050, 288.3398
985.7200, 56.66602
986.8360, 400.5469
987.9510, 156.4941
989.0660, 125.1523
990.1810, 333.0957
991.2950, 270.7324
992.4100, 86.66602
993.5240, 243.5605
994.6390, 256.2969
995.7530, 147.9355
996.8660, 289.8496
997.9800, 219.7617
999.0940, 144.3789
1000.207, 289.2852
1001.320, 210.1875
1002.433, 272.0840
1003.546, 134.8496
1004.659, 169.8496
1005.772, 117.6230
1006.884, 214.3242
1007.996, 362.5234
1009.108, 469.8301
1010.220, 623.6973
1011.332, 712.8848
1012.444, 759.7949
1013.555, 864.6465
1014.666, 794.4961
1015.777, 790.5254
1016.888, 1058.213
1017.999, 1265.018
1019.110, 1052.469
1020.220, 902.3223
1021.331, 980.1797
1022.441, 1079.033
1023.551, 852.3906
1024.661, 610.1562
1025.770, 470.0117
1026.880, 394.4102
1027.989, 448.7363
1029.098, 456.5840
1030.207, 235.2246
1031.316, 482.0684
1032.425, 646.9082
1033.533, 419.3457
1034.642, 529.1973
1035.750, 345.0469
1036.858, 434.8945
1037.966, 566.7383
1039.073, 625.5469
1040.181, 715.3887
1041.288, 1013.889
1042.396, 1035.670
1043.503, 1484.510
1044.610, 1532.812
1045.716, 2083.648
1046.823, 2603.164
1047.929, 3341.998
1049.036, 4283.803
1050.142, 4962.633
1051.248, 5415.461
1052.353, 5630.287
1053.459, 5399.115
1054.564, 4449.941
1055.670, 3612.705
1056.775, 2730.328
1057.880, 1969.061
1058.985, 1584.883
1060.089, 964.7070
1061.194, 1121.527
1062.298, 985.3496
1063.402, 755.1699
1064.506, 632.9922
1065.610, 700.8125
1066.713, 486.4453
1067.817, 534.2656
1068.920, 343.9980
1070.023, 348.6270
1071.126, 164.4570
1072.229, 397.2715
1073.332, 268.1777
1074.435, 108.0000
1075.537, 370.5723
1076.639, 357.3945
1077.741, 310.0410
1078.843, 220.8633
1079.945, 256.6855
1081.046, 50.50586
1082.148, 234.3418
1083.249, 346.1797
1084.350, 80.77148
1085.451, 82.62500
1086.551, 6.958984
1087.652, 159.8262
1088.752, 165.4219
1089.853, 67.20703
1090.953, 172.9551
1092.053, 152.8477
1093.152, 100.0039
1094.252, 321.9023
1095.351, 264.8008
1096.451, 303.5781
1097.550, 8.521484
1098.649, 238.3750
1099.748, 62.93945
1100.846, 299.2812
1101.945, 273.1816
1103.043, 140.0859
1104.141, 218.9922
1105.239, 188.9004
1106.337, 48.01562
1107.434, 412.2637
1108.532, 328.0801
1109.629, 183.9707
1110.726, 61.82031
1111.823, 27.62109
1112.920, 6.867188
1114.017, 82.86328
1115.113, 28.99023
1116.210, 218.8398
1117.306, 247.6953
1118.402, 272.4727
1119.498, 265.3340
1120.593, 333.5312
1121.689, 530.8359
1122.784, 467.7051
1123.879, 363.5781
1124.974, 456.4551
1126.069, 304.3672
1127.164, 333.2832
1128.259, 81.95117
1129.353, 241.8730
1130.447, 12.20508
1131.541, 265.7109
1132.635, 290.6328
1133.729, 182.5547
1134.822, 284.4805
1135.916, 186.4082
1137.009, 37.33789
1138.102, 197.2715
1139.195, 189.2090
1140.288, 252.1523
1141.380, 157.1035
1142.473, 113.0586
1143.565, 155.0195
1144.657, 75.98242
1145.749, 389.9473
1146.841, 31.92383
1147.932, 199.9199
1149.024, 55.91602
1150.115, 30.08398
1151.206, 140.9043
1152.297, 97.89844
1153.388, 102.8926
1154.479, 128.8926
1155.569, 105.1504
1156.659, 65.18945
1157.750, 91.22852
1158.839, 202.2754
1159.929, 67.33594
1161.019, 30.39844
1162.108, 283.4902
1163.198, 77.58398
1164.287, 7.679688
1165.376, 84.78125
1166.465, 138.8867
1167.553, 114.9961
1168.642, 197.1094
1169.730, 172.5762
1170.818, 324.3477
1171.906, 182.4727
1172.994, 174.5996
1174.082, 249.7344
1175.170, 57.87500
1176.257, 258.0234
1177.344, 265.1777
1178.431, 147.3555
1179.518, 287.5371
1180.605, 189.7246
1181.691, 240.9141
1182.778, 17.10938
1183.864, 130.3086
1184.950, 154.5117
1186.036, 262.7207
1187.122, 183.9336
1188.207, 205.1504
1189.292, 185.3730
1190.378, 333.6016
1191.463, 266.8301
1192.548, 283.5879
1193.632, 291.3086
1194.717, 284.5566
1195.801, 146.8066
1196.886, 240.0605
1197.970, 241.3223
1199.054, 102.4141
1200.137, 276.8047
1201.221, 6.029297
1202.305, 141.2559
1203.388, 17.98828
1204.471, 77.24023
1205.554, 246.4727
1206.637, 226.7109
1207.719, 202.9531
1208.802, 155.2070
1209.884, 250.4629
1210.966, 208.7266
1212.048, 214.9941
1213.130, 289.2695
1214.212, 192.5469
1215.293, 131.8301
1216.374, 149.1191
1217.456, 152.8418
1218.536, 302.4160
1219.617, 192.6797
1220.698, 60.36719
1221.778, 331.6445
1222.859, 39.07812
1223.939, 385.1855
1225.019, 175.4551
1226.099, 344.7285
1227.178, 171.1484
1228.258, 230.8887
1229.337, 115.1777
1230.417, 175.4746
1231.496, 219.8008
1232.574, 144.1328
1233.653, 77.46875
1234.732, 94.81055
1235.810, 2.156250
1236.888, 4.080078
1237.966, 193.2715
1239.044, 505.6270
1240.122, 310.9902
1241.199, 49.35742
1242.277, 344.7305
1243.354, 68.29297
1244.431, 231.1699
1245.508, 113.5293
1246.585, 146.8945
1247.661, 55.26172
1248.738, 284.6562
1249.814, 34.94141
1250.890, 72.44922
1251.966, 272.8457
1253.042, 209.2480
1254.117, 429.8262
1255.193, 208.2422
1256.268, 141.6621
1257.343, 13.91211
1258.418, 136.5137
1259.493, 103.9473
1260.567, 346.6738
1261.642, 64.11719
1262.716, 164.5684
1263.790, 201.0254
1264.864, 88.48828
1265.938, 137.9570
1267.011, 317.4316
1268.085, 104.9141
1269.158, 300.4043
1270.231, 51.89844
1271.304, 233.4004
1272.377, 360.9082
1273.450, 191.4238
1274.522, 161.9453
1275.594, 205.4023
1276.666, 197.9375
1277.738, 76.47852
1278.810, 168.0273
1279.882, 238.9883
1280.953, 343.5508
1282.025, 160.1172
1283.096, 204.7969
1284.167, 45.62109
1285.238, 309.9492
1286.308, 211.5254
1287.379, 98.10547
1288.449, 423.6953
1289.519, 145.3105
1290.589, 308.9336
1291.659, 237.5605
1292.729, 81.19531
1293.798, 261.8418
1294.868, 177.4902
1295.937, 91.14844
1297.006, 302.8164
1298.075, 333.4883
1299.143, 157.1680
1300.212, 477.8555
1301.280, 164.5527
1302.348, 262.2559
1303.416, 109.3594
1304.484, 301.0781
1305.552, 365.8047
1306.620, 460.7793
1307.687, 131.5234
1308.754, 271.2891
1309.821, 145.0625
1310.888, 200.8418
1311.955, 251.6309
1313.021, 234.4297
1314.088, 201.2344
1315.154, 337.0508
1316.220, 267.8711
1317.286, 101.6992
1318.352, 247.5312
1319.417, 361.3750
1320.483, 72.22266
1321.548, 273.0742
1322.613, 234.9336
1323.678, 262.7930
1324.743, 209.6602
1325.807, 227.9961
1326.872, 407.4180
1327.936, 271.3828
1329.000, 244.2695
1330.064, 332.1523
1331.128, 33.94922
1332.191, 239.8633
1333.255, 397.7773
1334.318, 281.6875
1335.381, 147.6094
1336.444, 122.5156
1337.507, 130.4297
1338.569, 98.89062
1339.632, 278.2773
1340.694, 161.2109
1341.756, 186.1523
1342.818, 282.1055
1343.880, 130.0625
1344.941, 107.0312
1346.003, 9.925781
1347.064, 253.9062
1348.125, 92.10156
1349.186, 257.8789
1350.247, 333.8633
1351.308, 189.6016
1352.368, 40.59766
1353.428, 337.6016
1354.489, 6.378906
1355.549, 195.6406
1356.608, 294.6758
1357.668, 260.7188
1358.727, 390.7695
1359.787, 253.8320
1360.846, 169.9023
1361.905, 73.97656
1362.964, 55.05469
1364.022, 35.49219
1365.081, 59.57031
1366.139, 108.7773
1367.197, 170.8984
1368.255, 306.0273
1369.313, 369.1680
1370.371, 409.4570
1371.428, 193.7500
1372.486, 415.9414
1373.543, 141.1445
1374.600, 31.35547
1375.657, 286.5781
1376.713, 153.8047
1377.770, 86.27344
1378.826, 248.4844
1379.882, 112.7070
1380.938, 36.06250
1381.994, 338.1719
1383.050, 288.4141
1384.106, 91.67188
1385.161, 258.1797
1386.216, 166.4492
1387.271, 145.7305
1388.326, 215.0273
1389.381, 207.3281
1390.435, 214.4648
1391.490, 241.9688
1392.544, 198.3008
1393.598, 227.6484
1394.652, 184.0039
1395.705, 116.3672
1396.759, 115.7422
1397.812, 373.1328
1398.866, 92.53516
1399.919, 306.9414
1400.972, 177.3633
1402.024, 52.20312
1403.077, 212.2344
1404.129, 300.6836
1405.181, 224.1445
1406.233, 174.6172
1407.285, 21.10938
1408.337, 73.38281
1409.389, 6.863281
1410.440, 102.6680
1411.491, 290.9570
1412.542, 228.5156
1413.593, 174.0859
1414.644, 69.67578
1415.695, 300.4609
1416.745, 48.13672
1417.795, 367.7734
1418.845, 51.42578
1419.895, 273.0977
1420.945, 205.7852
1421.995, 36.49609
1423.044, 276.2227
1424.093, 90.96484
1425.142, 395.7344
1426.191, 193.5195
1427.240, 167.3281
1428.289, 254.1602
1429.337, 16.98047
1430.385, 252.8945
1431.433, 350.8008
1432.481, 87.41016
1433.529, 127.3828
1434.577, 222.9727
1435.624, 71.80078
1436.672, 105.6445
1437.719, 375.5078
1438.766, 187.3828
1439.812, 301.2695
1440.859, 177.6602
1441.905, 204.3008
1442.952, 240.9219
1443.998, 324.4883
1445.044, 358.9062
1446.090, 227.2500
1447.135, 187.5859
1448.181, 42.73047
1449.226, 140.2891
1450.271, 115.8594
1451.316, 319.4648
1452.361, 162.1094
1453.405, 160.1836
1454.450, 313.8555
1455.494, 8.531250
1456.538, 269.2305
1457.582, 346.9375
1458.626, 506.6602
1459.670, 107.3945
1460.713, 218.2305
1461.757, 20.12109
1462.800, 282.9531
1463.843, 249.8047
1464.886, 188.5195
1465.928, 418.4023
1466.971, 313.3047
1468.013, 96.21875
1469.055, 249.1562
1470.097, 99.10938
1471.139, 397.0820
1472.181, 147.0742
1473.222, 237.1172
1474.263, 211.1797
1475.305, 120.2578
1476.346, 115.3750
1477.386, 164.9805
1478.427, 297.1172
1479.468, 498.2773
1480.508, 408.4609
1481.548, 356.6602
1482.588, 118.8828
1483.628, 226.1172
1484.668, 145.3750
1485.707, 94.35547
1486.747, 156.9492
1487.786, 97.43359
1488.825, 132.7344
1489.864, 263.0547
1490.902, 234.3945
1491.941, 287.5820
1492.979, 316.9883
1494.017, 423.4141
1495.055, 104.7969
1496.093, 255.1953
1497.131, 401.6133
1498.168, 105.0469
1499.206, 197.4961
1500.243, 285.9648
1501.280, 353.7578
1502.317, 342.2422
1503.354, 272.1211
1504.390, 254.4648
1505.426, 276.8125
1506.463, 215.1758
1507.499, 225.5352
1508.535, 287.9180
1509.570, 297.3203
1510.606, 300.7578
1511.641, 342.2227
1512.676, 455.7148
1513.711, 379.2617
1514.746, 197.8359
1515.781, 362.4414
1516.816, 293.0703
1517.850, 173.8281
1518.884, 313.6094
1519.918, 252.4297
1520.952, 221.2852
1521.986, 257.1641
1523.019, 298.0742
1524.053, 275.8359
1525.086, 88.00781
1526.119, 287.0508
1527.152, 170.1172
1528.185, 213.2266
1529.217, 316.3594
1530.250, 414.5625
1531.282, 417.8477
1532.314, 434.1602
1533.346, 400.5391
1534.377, 288.9453
1535.409, 353.3984
1536.440, 109.8945
1537.472, 408.4727
1538.503, 503.3516
1539.534, 53.69141
1540.564, 54.35938
1541.595, 458.5039
1542.625, 180.7500
1543.656, 286.1055
1544.686, 233.5820
1545.716, 390.1758
1546.745, 222.8867
1547.775, 284.7383
1548.804, 280.7383
1549.834, 241.8867
1550.863, 340.2109
1551.892, 452.7227
1552.920, 272.4336
1553.949, 424.3672
1554.977, 396.5586
1556.006, 372.7695
1557.034, 264.8242
1558.062, 31.74219
1559.089, 302.6094
1560.117, 142.8125
1561.144, 461.7617
1562.172, 428.3008
1563.199, 151.1836
1564.226, 55.19531
1565.252, 177.7852
1566.279, 62.62109
1567.305, 250.5977
1568.332, 48.27734
1569.358, 254.1484
1570.384, 0.3984380
1571.409, 0.0000000E+00
##END=



