##NAMES=Thomsonite-Ca
##RRUFFID=R050103
##IDEAL CHEMISTRY=NaCa_2_(Al_5_Si_5_)O_20_&#183;6H_2_O
##LOCALITY=Seeberg, Bohemia, Czech Republic
##OWNER=RRUFF
##SOURCE=Rock Currier
##DESCRIPTION=Colorless prismatic crystals
##STATUS=The identification of this mineral has been confirmed by X-ray diffraction and chemical analysis
##URL=rruff.info/R050103
##MEASURED CHEMISTRY=Na_1.00_(Ca_0.92_Sr_0.08_)_2_(Al_5.00_Si_5.00_)O_20_Â·6H_2_O
##PIN_ID=L00148
##ORIENTATION=Laser parallel to -b* (0 -1 0). Fiducial mark perpendicular to laser is parallel to -c [0 0 -1]
139.937, 0.000
141.323, 4.064
142.709, 25.545
144.094, 9.544
145.480, 6.475
146.865, 310.996
148.250, 507.809
149.635, 726.025
151.019, 1202.958
152.403, 1576.529
153.788, 1906.734
155.171, 2222.752
156.555, 2490.236
157.939, 2835.073
159.322, 2970.542
160.705, 3058.148
162.088, 3296.961
163.470, 3656.387
164.853, 3748.541
166.235, 4237.926
167.617, 4402.904
168.998, 4717.020
170.380, 4668.569
171.761, 4837.842
173.142, 5045.299
174.523, 5653.541
175.904, 6424.670
177.284, 7128.344
178.664, 7772.053
180.044, 8273.522
181.424, 8402.681
182.803, 7839.758
184.183, 7254.967
185.562, 6438.505
186.940, 5421.467
188.319, 4595.165
189.698, 4086.645
191.076, 3608.171
192.454, 3498.776
193.831, 3225.628
195.209, 3364.600
196.586, 3237.348
197.963, 3263.331
199.340, 3219.014
200.717, 2884.416
202.093, 2769.555
203.470, 2084.447
204.846, 1809.104
206.221, 1433.414
207.597, 1322.430
208.972, 1183.270
210.347, 1083.992
211.722, 1346.788
213.097, 1298.328
214.472, 1586.721
215.846, 1892.731
217.220, 2171.038
218.594, 2370.123
219.967, 2517.088
221.341, 2703.828
222.714, 2610.588
224.087, 2417.514
225.460, 2154.642
226.832, 1681.989
228.204, 1499.561
229.577, 1037.349
230.948, 775.349
232.320, 514.547
233.692, 375.938
235.063, 342.504
236.434, 94.234
237.805, 144.113
239.175, 147.872
240.545, 47.735
241.916, 89.488
243.286, 64.142
244.655, 98.706
246.025, 164.189
247.394, 8.602
248.763, 194.963
250.132, 181.705
251.501, 154.394
252.869, 270.100
254.237, 431.822
255.605, 523.562
256.973, 821.309
258.340, 861.053
259.708, 1030.778
261.075, 1020.479
262.442, 980.152
263.808, 909.799
265.175, 709.422
266.541, 829.021
267.907, 538.599
269.273, 518.153
270.639, 170.663
272.004, 65.587
273.369, 190.296
274.734, 120.093
276.099, 11.641
277.463, 111.307
278.828, 146.652
280.192, 56.381
281.556, 217.570
282.919, 162.747
284.283, 140.914
285.646, 45.070
287.009, 247.216
288.372, 81.377
289.734, 17.618
291.097, 22.044
292.459, 124.291
293.821, 21.340
295.183, 220.163
296.544, 252.730
297.905, 337.186
299.266, 693.607
300.627, 620.035
301.988, 876.492
303.348, 1032.982
304.709, 1154.714
306.069, 1367.058
307.428, 1320.328
308.788, 1584.011
310.147, 1378.128
311.507, 1572.497
312.865, 1157.042
314.224, 1191.707
315.583, 1266.452
316.941, 1161.245
318.299, 1316.053
319.657, 1230.845
321.015, 1395.625
322.372, 1370.357
323.729, 1415.073
325.086, 1669.718
326.443, 1484.283
327.800, 1668.766
329.156, 1563.153
330.512, 1597.413
331.868, 1771.520
333.224, 1555.475
334.579, 1839.291
335.935, 1732.977
337.290, 2116.550
338.645, 2089.998
339.999, 2263.306
341.354, 2386.484
342.708, 2359.510
344.062, 2422.430
345.416, 2555.218
346.769, 2427.897
348.123, 2050.484
349.476, 1812.965
350.829, 1875.386
352.182, 1617.650
353.534, 1759.579
354.887, 1571.133
356.239, 1462.284
357.591, 1363.096
358.942, 1183.602
360.294, 1384.062
361.645, 1064.504
362.996, 1094.914
364.347, 1085.334
365.698, 855.726
367.048, 986.090
368.398, 656.452
369.748, 706.744
371.098, 496.866
372.448, 496.758
373.797, 646.374
375.146, 435.627
376.495, 714.646
377.844, 703.362
379.192, 851.951
380.540, 830.493
381.889, 789.033
383.236, 1017.581
384.584, 896.137
385.932, 1004.701
387.279, 1043.271
388.626, 1091.850
389.973, 1290.433
391.319, 1169.021
392.666, 1287.611
394.012, 1056.206
395.358, 974.802
396.704, 773.133
398.049, 501.336
399.394, 576.452
400.740, 262.901
402.084, 374.581
403.429, 32.636
404.774, 128.150
406.118, 115.338
407.462, 119.565
408.806, 61.459
410.150, 117.679
411.493, 38.477
412.836, 48.687
414.179, 84.475
415.522, 193.344
416.865, 61.743
418.207, 170.136
419.549, 328.523
420.891, 366.907
422.233, 535.289
423.575, 473.667
424.916, 832.043
426.257, 880.415
427.598, 928.784
428.939, 1327.152
430.279, 1315.516
431.619, 1763.878
432.959, 1841.113
434.299, 2316.587
435.639, 2873.993
436.978, 3068.802
438.318, 3600.199
439.657, 4095.346
440.996, 4768.175
442.334, 4856.764
443.673, 5105.337
445.011, 4767.451
446.349, 4481.033
447.687, 4240.730
449.024, 3447.839
450.361, 3045.452
451.699, 2637.164
453.036, 2158.701
454.372, 1855.519
455.709, 1499.876
457.045, 1507.526
458.381, 1255.341
459.717, 1193.539
461.053, 1281.851
462.388, 1030.177
463.724, 1238.517
465.059, 1216.870
466.394, 1495.217
467.728, 1973.556
469.063, 2081.880
470.397, 2790.188
471.731, 3098.479
473.065, 3406.750
474.398, 3685.002
475.732, 3613.230
477.065, 3461.975
478.398, 2740.202
479.731, 2498.366
481.063, 2180.943
482.396, 1759.081
483.728, 1757.298
485.060, 1525.392
486.391, 1543.463
487.723, 1481.766
489.054, 1359.793
490.385, 1507.942
491.716, 1375.928
493.047, 1653.894
494.377, 1371.839
495.708, 1429.783
497.038, 1579.926
498.368, 1217.830
499.697, 1305.747
501.027, 1098.352
502.356, 1086.235
503.685, 1102.119
505.014, 859.971
506.342, 1111.011
507.671, 824.028
508.999, 1071.858
510.327, 1120.544
511.655, 1078.344
512.982, 1441.938
514.310, 1397.521
515.637, 1695.510
516.964, 1954.399
518.291, 2272.384
519.617, 2663.714
520.944, 3063.906
522.270, 3701.903
523.596, 4168.156
524.921, 5256.108
526.247, 6384.017
527.572, 7587.217
528.897, 9445.096
530.222, 11764.684
531.547, 14152.544
532.871, 16640.482
534.196, 19018.715
535.520, 21476.582
536.844, 22174.865
538.167, 22882.732
539.491, 21000.609
540.814, 19748.496
542.137, 17186.379
543.460, 15124.278
544.783, 13022.179
546.105, 10840.080
547.427, 9917.978
548.749, 8305.875
550.071, 6733.771
551.393, 6001.664
552.714, 4999.557
554.035, 4447.449
555.356, 4005.338
556.677, 3063.228
557.998, 3161.118
559.318, 2469.021
560.638, 2336.473
561.958, 2234.457
563.278, 1650.398
564.597, 1827.607
565.917, 1404.841
567.236, 1403.343
568.555, 1320.489
569.874, 959.846
571.192, 1124.755
572.511, 782.154
573.829, 1024.290
575.147, 822.438
576.464, 490.011
577.782, 938.073
579.099, 436.515
580.416, 674.961
581.733, 603.406
583.050, 441.852
584.366, 480.296
585.683, 368.737
586.999, 497.191
588.315, 445.643
589.630, 274.094
590.946, 412.543
592.261, 190.996
593.576, 629.463
594.891, 377.932
596.206, 386.460
597.520, 455.019
598.834, 243.634
600.148, 732.314
601.462, 411.037
602.776, 659.846
604.089, 768.722
605.402, 527.661
606.715, 816.639
608.028, 655.705
609.341, 674.817
610.653, 653.958
611.965, 273.128
613.277, 602.303
614.589, 301.494
615.901, 240.687
617.212, 319.879
618.523, 259.069
619.834, 378.258
621.145, 187.443
622.456, 246.626
623.766, 245.805
625.076, 184.982
626.386, 474.156
627.696, 323.327
629.006, 322.495
630.315, 361.661
631.624, 90.822
632.933, 229.981
634.242, 10.862
635.551, 58.284
636.859, 137.427
638.167, 93.433
639.475, 369.714
640.783, 181.194
642.090, 237.805
643.398, 117.059
644.705, 16.051
646.012, 295.154
647.318, 44.139
648.625, 273.120
649.931, 162.332
651.237, 211.308
652.543, 243.960
653.849, 47.072
655.155, 231.870
656.460, 196.998
657.765, 84.066
659.070, 295.317
660.375, 135.625
661.679, 203.185
662.984, 57.893
664.288, 89.123
665.592, 144.675
666.895, 176.609
668.199, 122.017
669.502, 90.834
670.805, 122.279
672.108, 67.010
673.411, 174.320
674.713, 64.054
676.016, 49.062
677.318, 30.734
678.620, 82.310
679.921, 119.414
681.223, 108.797
682.524, 136.449
683.825, 65.353
685.126, 415.955
686.427, 5.895
687.727, 272.218
689.028, 133.575
690.328, 61.672
691.628, 299.761
692.927, 48.224
694.227, 436.295
695.526, 289.998
696.825, 348.058
698.124, 556.108
699.423, 388.561
700.721, 616.599
702.020, 504.630
703.318, 482.654
704.616, 620.673
705.913, 318.683
707.211, 546.687
708.508, 614.683
709.805, 442.672
711.102, 820.653
712.399, 378.628
713.695, 576.596
714.992, 614.556
716.288, 532.509
717.584, 810.456
718.879, 419.934
720.175, 877.875
721.470, 595.812
722.765, 673.744
724.060, 981.711
725.355, 445.375
726.649, 953.369
727.944, 761.371
729.238, 532.609
730.532, 1050.624
731.825, 568.630
733.119, 936.774
734.412, 814.767
735.705, 593.604
736.998, 1061.573
738.291, 669.532
739.584, 827.480
740.876, 675.419
742.168, 635.774
743.460, 863.690
744.752, 671.596
746.043, 749.490
747.334, 737.373
748.626, 725.274
749.916, 973.137
751.207, 710.986
752.498, 808.982
753.788, 776.812
755.078, 654.627
756.368, 902.432
757.658, 590.225
758.947, 818.004
760.237, 655.771
761.526, 573.525
762.815, 781.267
764.104, 468.994
765.392, 666.707
766.680, 594.407
767.969, 412.092
769.257, 849.763
770.544, 497.420
771.832, 595.062
773.119, 712.688
774.406, 360.302
775.693, 567.901
776.980, 305.484
778.267, 573.055
779.553, 560.608
780.839, 258.149
782.125, 695.675
783.411, 303.187
784.697, 340.683
785.982, 478.165
787.267, 205.632
788.552, 403.085
789.837, 259.986
791.122, 247.366
792.406, 364.775
793.690, 12.267
794.974, 415.075
796.258, 222.300
797.542, 119.614
798.825, 376.910
800.108, 153.939
801.391, 311.209
802.674, 198.320
803.957, 125.562
805.239, 292.787
806.522, 10.002
807.804, 197.161
809.085, 262.095
810.367, 50.770
811.649, 276.297
812.930, 58.644
814.211, 135.679
815.492, 274.684
816.772, 141.691
818.053, 455.481
819.333, 42.735
820.613, 224.188
821.893, 150.227
823.173, 102.871
824.452, 448.170
825.732, 17.199
827.011, 93.798
828.290, 279.474
829.568, 113.963
830.847, 129.202
832.125, 56.515
833.403, 140.021
834.681, 298.155
835.959, 135.386
837.236, 211.062
838.514, 37.800
839.791, 108.669
841.068, 323.412
842.345, 40.136
843.621, 376.238
844.898, 232.303
846.174, 18.730
847.450, 294.720
848.726, 78.872
850.001, 247.518
851.277, 323.896
852.552, 59.731
853.827, 436.617
855.102, 462.956
856.376, 239.289
857.651, 375.614
858.925, 161.931
860.199, 418.253
861.473, 214.565
862.746, 390.871
864.020, 507.187
865.293, 133.494
866.566, 449.796
867.839, 236.090
869.112, 192.376
870.384, 468.656
871.656, 15.072
872.928, 371.176
874.200, 127.466
875.472, 133.748
876.744, 400.023
878.015, 83.705
879.286, 242.506
880.557, 198.712
881.828, 45.091
883.098, 301.066
884.369, 117.217
885.639, 63.360
886.909, 289.499
888.178, 4.371
889.448, 331.740
890.717, 127.854
891.987, 153.960
893.256, 180.058
894.524, 33.828
895.793, 502.253
897.061, 208.334
898.330, 114.408
899.598, 510.475
900.865, 86.534
902.133, 282.587
903.401, 378.633
904.668, 54.740
905.935, 460.838
907.202, 206.932
908.468, 353.020
909.735, 449.098
911.001, 135.199
912.267, 611.291
913.533, 247.376
914.799, 403.458
916.064, 609.529
917.330, 115.595
918.595, 741.655
919.860, 427.707
921.124, 353.752
922.389, 629.790
923.653, 435.820
924.918, 771.843
926.182, 617.860
927.445, 553.869
928.709, 1069.870
929.972, 605.866
931.236, 851.855
932.499, 947.840
933.761, 833.816
935.024, 1279.790
936.286, 1065.756
937.549, 1081.715
938.811, 1317.669
940.073, 1093.617
941.334, 1419.560
942.596, 1245.498
943.857, 1151.432
945.118, 1497.358
946.379, 1299.249
947.640, 1465.186
948.900, 1551.161
950.161, 1106.875
951.421, 1762.841
952.681, 1408.688
953.940, 1644.645
955.200, 1710.597
956.459, 1456.310
957.719, 1792.252
958.978, 1564.509
960.236, 1950.441
961.495, 2156.381
962.753, 1726.128
964.012, 2282.057
965.270, 2067.506
966.527, 2033.277
967.785, 2609.378
969.043, 1915.231
970.300, 2421.212
971.557, 2332.363
972.814, 2118.358
974.071, 2574.908
975.327, 2262.405
976.583, 2398.465
977.840, 2604.160
979.095, 2250.049
980.351, 2726.733
981.607, 2814.343
982.862, 2660.484
984.117, 3534.578
985.372, 3130.754
986.627, 3586.947
987.882, 3714.142
989.136, 3600.333
990.390, 3912.912
991.644, 3729.108
992.898, 3665.325
994.152, 3744.885
995.405, 3051.102
996.659, 3547.988
997.912, 2873.822
999.165, 2600.032
1000.417, 2899.811
1001.670, 2456.016
1002.922, 2642.215
1004.174, 2149.688
1005.426, 1875.883
1006.678, 2002.332
1007.930, 1628.801
1009.181, 1594.988
1010.432, 1793.857
1011.683, 1370.037
1012.934, 1926.215
1014.185, 1536.557
1015.435, 1562.727
1016.685, 1579.490
1017.935, 1315.652
1019.185, 1441.812
1020.435, 1518.547
1021.684, 1154.697
1022.934, 1539.307
1024.183, 1137.016
1025.432, 1243.156
1026.680, 1219.646
1027.929, 1036.652
1029.177, 1297.078
1030.425, 993.666
1031.673, 899.785
1032.921, 1212.660
1034.169, 659.262
1035.416, 865.371
1036.663, 742.371
1037.911, 618.473
1039.157, 923.711
1040.404, 812.158
1041.650, 758.248
1042.897, 904.346
1044.143, 526.117
1045.389, 909.777
1046.634, 997.260
1047.880, 673.543
1049.125, 1009.625
1050.371, 786.156
1051.615, 1112.301
1052.860, 1088.912
1054.105, 861.227
1055.349, 1457.139
1056.593, 1313.766
1057.837, 1190.289
1059.081, 1726.346
1060.325, 1248.934
1061.568, 1684.980
1062.812, 1771.021
1064.055, 1697.770
1065.298, 2093.801
1066.540, 1649.922
1067.783, 2156.146
1069.025, 2222.168
1070.267, 1928.264
1071.509, 2264.277
1072.751, 2020.285
1073.993, 2006.291
1075.234, 2252.291
1076.475, 1838.289
1077.716, 2084.283
1078.957, 2000.275
1080.198, 1526.775
1081.438, 2102.762
1082.679, 1648.752
1083.919, 1605.361
1085.159, 1851.354
1086.398, 1407.348
1087.638, 1653.611
1088.877, 1419.611
1090.116, 1135.613
1091.355, 1371.619
1092.594, 1047.627
1093.833, 1153.637
1095.071, 1009.650
1096.309, 605.682
1097.547, 1151.719
1098.785, 797.758
1100.023, 714.033
1101.260, 1160.074
1102.498, 346.119
1103.735, 852.164
1104.972, 898.209
1106.208, 594.256
1107.445, 990.236
1108.681, 586.238
1109.918, 572.240
1111.154, 938.191
1112.389, 364.135
1113.625, 610.074
1114.860, 566.018
1116.096, 101.910
1117.331, 547.949
1118.566, 213.805
1119.800, 79.723
1121.035, 445.582
1122.269, 11.418
1123.503, 487.244
1124.737, 333.107
1125.971, 38.965
1127.205, 584.752
1128.438, 10.537
1129.671, 376.311
1130.904, 502.117
1132.137, 192.084
1133.370, 466.439
1134.602, 312.236
1135.834, 38.014
1137.066, 574.326
1138.298, 139.914
1139.530, 295.863
1140.762, 271.584
1141.993, 92.824
1143.224, 484.230
1144.455, 9.791
1145.686, 215.293
1146.917, 510.945
1148.147, 133.572
1149.377, 481.885
1150.607, 427.336
1151.837, 77.221
1153.067, 498.592
1154.296, 94.014
1155.526, 89.422
1156.755, 375.330
1157.984, 29.283
1159.213, 226.080
1160.441, 431.904
1161.670, 52.754
1162.898, 572.562
1164.126, 17.865
1165.354, 253.150
1166.581, 448.426
1167.809, 23.688
1169.036, 308.939
1170.263, 394.285
1171.490, 170.480
1172.717, 514.695
1173.943, 79.859
1175.170, 5.014
1176.396, 510.152
1177.622, 55.309
1178.848, 310.453
1180.073, 185.725
1181.299, 50.830
1182.524, 505.926
1183.749, 1.205
1184.974, 256.273
1186.199, 371.312
1187.423, 23.646
1188.648, 341.377
1189.872, 359.713
1191.096, 75.275
1192.320, 479.707
1193.543, 4.756
1194.767, 130.213
1195.990, 315.992
1197.213, 70.955
1198.436, 155.918
1199.659, 51.350
1200.881, 243.693
1202.104, 511.201
1203.326, 46.250
1204.548, 71.146
1205.770, 506.051
1206.991, 88.992
1208.213, 285.898
1209.434, 330.695
1210.655, 15.498
1211.876, 550.289
1213.096, 165.061
1214.317, 139.824
1215.537, 664.596
1216.757, 170.152
1217.977, 494.939
1219.197, 349.742
1220.417, 244.576
1221.636, 599.451
1222.855, 344.525
1224.074, 359.426
1225.293, 574.395
1226.512, 83.297
1227.731, 404.510
1228.949, 360.795
1230.167, 57.082
1231.385, 593.367
1232.603, 379.656
1233.820, 145.945
1235.038, 702.238
1236.255, 228.533
1237.472, 804.828
1238.689, 581.125
1239.906, 227.424
1241.122, 853.725
1242.338, 510.029
1243.555, 326.336
1244.771, 672.648
1245.986, 168.818
1247.202, 504.873
1248.417, 500.586
1249.633, 256.910
1250.848, 712.746
1252.063, 478.412
1253.277, 399.348
1254.492, 785.502
1255.706, 341.098
1256.920, 675.322
1258.134, 733.006
1259.348, 238.078
1260.562, 794.006
1261.775, 487.908
1262.988, 156.213
1264.201, 801.588
1265.414, 186.928
1266.627, 488.973
1267.839, 708.889
1269.052, 773.662
1270.264, 799.266
1271.476, 604.041
1272.688, 402.891
1273.899, 797.770
1275.111, 351.869
1276.322, 556.551
1277.533, 671.176
1278.744, 45.062
1279.955, 740.283
1281.165, 421.906
1282.376, 58.062
1283.586, 640.930
1284.796, 175.697
1286.006, 419.863
1287.215, 456.477
1288.425, 29.852
1289.634, 363.955
1290.843, 396.971
1292.052, 120.092
1293.261, 554.285
1294.469, 248.252
1295.678, 212.398
1296.886, 716.676
1298.094, 70.918
1299.302, 425.127
1300.509, 488.270
1301.717, 41.090
1302.924, 725.062
1304.131, 438.385
1305.338, 52.160
1306.545, 765.834
1307.752, 229.398
1308.958, 222.850
1310.164, 905.641
1311.370, 238.854
1312.576, 771.945
1313.782, 385.232
1314.987, 138.527
1316.193, 822.025
1317.398, 465.555
1318.603, 338.812
1319.807, 792.326
1321.012, 246.104
1322.216, 689.803
1323.421, 713.840
1324.625, 137.852
1325.829, 533.248
1327.032, 496.992
1328.236, 119.232
1329.439, 542.996
1330.642, 212.580
1331.845, 337.369
1333.048, 511.789
1334.251, 83.160
1335.453, 770.428
1336.656, 485.525
1337.858, 48.590
1339.060, 691.783
1340.261, 2.959
1341.463, 222.436
1342.664, 618.002
1343.866, 83.184
1345.067, 679.080
1346.267, 595.188
1347.468, 171.494
1348.669, 767.197
1349.869, 604.420
1351.069, 210.719
1352.269, 818.971
1353.469, 302.066
1354.668, 709.490
1355.868, 592.525
1357.067, 262.676
1358.266, 615.395
1359.465, 692.752
1360.664, 78.332
1361.862, 714.859
1363.061, 393.357
1364.259, 364.152
1365.457, 777.918
1366.655, 283.924
1367.852, 579.387
1369.050, 596.615
1370.247, 2.725
1371.444, 0.000
##END=



