##NAMES=Thomsonite-Ca
##RRUFFID=R050091
##IDEAL CHEMISTRY=NaCa_2_(Al_5_Si_5_)O_20_&#183;6H_2_O
##LOCALITY=Amudikha River, near Mirny, Yakutia, Siberia, Russia
##OWNER=RRUFF
##SOURCE=Rock Currier
##DESCRIPTION=Radial groups of colorless bladed crystals
##STATUS=The identification of this mineral has been confirmed by X-ray diffraction and chemical analysis
##URL=rruff.info/R050091
##MEASURED CHEMISTRY=(Na_0.94_[box]_0.06_)_Σ=1_(Ca_1.71_Na_0.29_)_Σ=2_(Si_5.35_Al_4.65_)O_20_·7.09H_2_O
##PIN_ID=L00326
##ORIENTATION=Laser parallel to b* (0 1 0). Fiducial mark perpendicular to laser is parallel to c [0 0 1]
52.937, 0.000
54.335, 21.685
55.734, 43.770
57.132, 118.121
58.530, 43.480
59.927, 64.717
61.325, 26.875
62.722, 106.186
64.119, 118.763
65.515, 60.806
66.912, 135.216
68.308, 169.243
69.704, 133.547
71.100, 135.613
72.496, 116.887
73.891, 111.596
75.287, 83.692
76.682, 53.135
78.076, 44.087
79.471, 28.928
80.865, 14.218
82.260, 32.209
83.653, 48.203
85.047, 2.763
86.441, 27.967
87.834, 14.121
89.227, 2.451
90.620, 67.981
92.013, 139.677
93.405, 237.514
94.797, 334.468
96.189, 409.530
97.581, 525.692
98.973, 672.945
100.364, 788.277
101.755, 964.686
103.146, 1014.167
104.537, 1189.707
105.927, 1215.298
107.318, 1332.936
108.708, 1522.619
110.098, 1502.671
111.487, 1775.817
112.877, 2021.135
114.266, 2287.045
115.655, 2458.824
117.044, 2553.439
118.432, 2540.899
119.821, 2560.220
121.209, 2586.409
122.597, 2639.478
123.984, 2785.436
125.372, 2839.289
126.759, 2842.045
128.146, 2969.713
129.533, 2915.295
130.920, 2830.801
132.306, 2740.234
133.692, 2622.599
135.078, 2540.903
136.464, 2567.179
137.850, 2565.509
139.235, 2634.874
140.620, 2910.251
142.005, 3023.627
143.390, 3265.985
144.774, 3547.310
146.159, 3846.586
147.543, 4234.850
148.927, 4483.209
150.310, 4852.627
151.694, 5154.981
153.077, 5636.237
154.460, 5784.429
155.843, 5985.596
157.226, 6208.750
158.608, 6327.892
159.990, 6776.026
161.372, 7016.152
162.754, 7583.271
164.135, 7952.387
165.517, 8446.491
166.898, 8758.637
168.279, 9132.175
169.659, 9754.813
171.040, 10389.665
172.420, 11652.418
173.800, 12686.293
175.180, 14227.118
176.560, 15724.686
177.939, 16652.271
179.318, 17589.895
180.697, 16977.529
182.076, 15915.189
183.455, 14172.868
184.833, 12420.572
186.211, 10798.296
187.589, 9396.040
188.967, 8303.807
190.344, 7411.594
191.722, 6979.403
193.099, 6507.231
194.475, 6097.078
195.852, 6001.938
197.229, 5458.809
198.605, 5155.687
199.981, 4499.580
201.357, 4072.485
202.732, 3573.404
204.108, 3217.337
205.483, 2954.287
206.858, 2774.252
208.233, 2784.233
209.607, 2802.230
210.981, 3086.245
212.356, 3433.277
213.730, 3937.327
215.103, 4412.395
216.477, 4957.481
217.850, 5720.587
219.223, 6189.416
220.596, 6428.998
221.969, 6247.302
223.341, 5814.302
224.713, 5207.026
226.085, 4493.521
227.457, 3805.434
228.829, 3239.382
230.200, 2750.130
231.571, 2374.393
232.942, 1917.737
234.313, 1567.535
235.684, 1292.878
237.054, 967.204
238.424, 841.472
239.794, 635.829
241.164, 600.688
242.533, 518.144
243.902, 464.624
245.272, 444.530
246.640, 465.190
248.009, 599.461
249.378, 612.973
250.746, 852.379
252.114, 1005.342
253.482, 1330.494
254.849, 1691.509
256.217, 1993.280
257.584, 2264.385
258.951, 2404.575
260.318, 2380.782
261.684, 1952.005
263.051, 1672.243
264.417, 1277.498
265.783, 976.767
267.148, 801.052
268.514, 539.350
269.879, 335.663
271.244, 250.990
272.609, 115.332
273.974, 33.687
275.338, 15.053
276.703, 29.576
278.067, 90.218
279.431, 17.891
280.794, 117.575
282.158, 122.297
283.521, 101.056
284.884, 136.846
286.247, 129.675
287.609, 141.541
288.972, 148.447
290.334, 107.392
291.696, 117.367
293.058, 43.373
294.419, 24.390
295.781, 21.588
297.142, 70.572
298.503, 151.563
299.864, 157.562
301.224, 300.569
302.584, 354.584
303.945, 358.607
305.304, 441.638
306.664, 453.677
308.024, 451.725
309.383, 467.781
310.742, 486.847
312.101, 467.921
313.460, 513.004
314.818, 549.096
316.176, 616.197
317.534, 675.307
318.892, 744.893
320.250, 847.557
321.607, 892.697
322.964, 954.847
324.321, 1013.010
325.678, 1057.184
327.035, 1021.368
328.391, 1136.564
329.747, 1159.747
331.103, 1277.886
332.459, 1360.931
333.815, 1547.886
335.170, 1737.753
336.525, 1928.533
337.880, 2249.262
339.235, 2396.010
340.589, 2557.786
341.944, 2591.597
343.298, 2548.435
344.652, 2416.310
346.005, 2200.215
347.359, 1987.157
348.712, 1920.132
350.065, 1680.131
351.418, 1707.158
352.771, 1580.207
354.123, 1638.276
355.475, 1598.364
356.828, 1653.473
358.179, 1760.601
359.531, 1788.749
360.882, 1981.918
362.234, 1937.106
363.585, 1925.316
364.936, 1683.545
366.286, 1439.795
367.637, 1219.066
368.987, 944.358
370.337, 816.670
371.687, 762.004
373.036, 877.359
374.386, 911.734
375.735, 983.131
377.084, 1135.549
378.432, 1073.989
379.781, 1061.449
381.129, 969.931
382.478, 918.577
383.825, 820.915
385.173, 786.419
386.521, 792.934
387.868, 746.459
389.215, 717.998
390.562, 674.551
391.909, 576.119
393.255, 551.702
394.602, 365.304
395.948, 321.924
397.294, 222.563
398.639, 99.225
399.985, 51.909
401.330, 3.615
402.675, 79.658
404.020, 94.943
405.365, 114.246
406.709, 68.575
408.054, 67.431
409.398, 48.247
410.742, 0.569
412.085, 54.146
413.429, 119.888
414.772, 185.663
416.115, 385.463
417.458, 464.288
418.800, 618.134
420.143, 737.000
421.485, 861.886
422.827, 1101.792
424.169, 1312.215
425.511, 1648.664
426.852, 1894.629
428.193, 2208.614
429.534, 2612.620
430.875, 2834.645
432.216, 3182.690
433.556, 3509.755
434.896, 4025.840
436.236, 4649.945
437.576, 5193.682
438.916, 6021.809
440.255, 6518.172
441.594, 7021.116
442.933, 7205.847
444.272, 6966.326
445.611, 6737.184
446.949, 6120.844
448.287, 5706.002
449.625, 5026.467
450.963, 4561.551
452.300, 3966.266
453.638, 3495.412
454.975, 3177.257
456.312, 2882.353
457.649, 2584.757
458.985, 2523.245
460.321, 2565.756
461.658, 2673.293
462.994, 2902.855
464.329, 3298.441
465.665, 3832.053
467.000, 4580.690
468.335, 5659.351
469.670, 6710.038
471.005, 8010.750
472.340, 8731.487
473.674, 9062.248
475.008, 8473.067
476.342, 7383.881
477.676, 6327.719
479.009, 5297.581
480.342, 4487.469
481.676, 3810.381
483.009, 3346.319
484.341, 3217.553
485.674, 2914.542
487.006, 2727.571
488.338, 2663.915
489.670, 2529.979
491.002, 2554.667
492.333, 2531.965
493.665, 2561.966
494.996, 2492.096
496.327, 2341.324
497.657, 2269.606
498.988, 2061.839
500.318, 1895.833
501.648, 1725.759
502.978, 1545.752
504.308, 1550.065
505.637, 1452.841
506.967, 1512.977
508.296, 1475.539
509.625, 1628.075
510.953, 1683.300
512.282, 1862.415
513.610, 2001.090
514.938, 2217.803
516.266, 2626.563
517.594, 2971.364
518.921, 3484.213
520.249, 4070.103
521.576, 4690.033
522.903, 5819.007
524.229, 7082.024
525.556, 8500.076
526.882, 10482.169
528.208, 12774.305
529.534, 15706.467
530.860, 18758.666
532.185, 22080.900
533.511, 25643.170
534.836, 27435.469
536.161, 29387.807
537.485, 28900.178
538.810, 27652.574
540.134, 25335.002
541.458, 22347.451
542.782, 19549.928
544.106, 16762.439
545.429, 14514.980
546.753, 12497.543
548.076, 10650.133
549.399, 9062.747
550.721, 7865.384
552.044, 6798.047
553.366, 5867.733
554.688, 5063.445
556.010, 4536.182
557.332, 3981.940
558.653, 3463.722
559.975, 3089.525
561.296, 2847.314
562.617, 2507.482
563.937, 2274.856
565.258, 2092.220
566.578, 1828.058
567.898, 1739.990
569.218, 1548.918
570.538, 1413.789
571.858, 1361.792
573.177, 1137.817
574.496, 1084.863
575.815, 1069.930
577.134, 870.019
578.452, 847.128
579.771, 780.257
581.089, 662.407
582.407, 604.578
583.724, 560.769
585.042, 510.980
586.359, 414.211
587.676, 431.461
588.993, 463.732
590.310, 380.021
591.627, 388.331
592.943, 399.659
594.259, 413.007
595.575, 501.374
596.891, 608.763
598.206, 695.186
599.522, 753.658
600.837, 962.159
602.152, 1064.716
603.467, 1304.331
604.781, 1439.997
606.096, 1484.722
607.410, 1583.506
608.724, 1510.351
610.038, 1357.257
611.351, 1186.215
612.665, 1000.227
613.978, 835.273
615.291, 724.347
616.604, 562.439
617.916, 448.547
619.229, 367.672
620.541, 337.812
621.853, 294.967
623.165, 231.137
624.476, 179.323
625.788, 148.525
627.099, 129.740
628.410, 81.971
629.721, 102.216
631.032, 78.475
632.342, 0.748
633.652, 65.034
634.962, 59.334
636.272, 26.647
637.582, 72.974
638.891, 32.314
640.201, 67.667
641.510, 11.968
642.818, 19.406
644.127, 2.792
645.436, 12.811
646.744, 20.646
648.052, 48.908
649.360, 7.268
650.668, 29.401
651.975, 77.977
653.282, 32.600
654.590, 32.479
655.896, 95.399
657.203, 47.004
658.510, 86.299
659.816, 44.798
661.122, 90.734
662.428, 58.895
663.734, 85.137
665.039, 72.694
666.345, 27.538
667.650, 42.234
668.955, 13.835
670.260, 25.408
671.564, 50.346
672.869, 50.940
674.173, 74.923
675.477, 133.248
676.781, 161.719
678.084, 150.149
679.388, 217.177
680.691, 213.672
681.994, 246.629
683.297, 303.624
684.599, 324.467
685.902, 385.886
687.204, 354.051
688.506, 395.821
689.808, 494.812
691.109, 418.539
692.411, 601.998
693.712, 548.499
695.013, 630.845
696.314, 688.755
697.615, 643.276
698.915, 758.535
700.216, 764.780
701.516, 732.842
702.816, 810.280
704.115, 860.765
705.415, 886.197
706.714, 811.058
708.013, 865.757
709.312, 868.551
710.611, 869.299
711.910, 913.276
713.208, 891.918
714.506, 883.445
715.804, 881.807
717.102, 882.164
718.399, 909.476
719.697, 959.854
720.994, 936.175
722.291, 960.562
723.588, 878.991
724.884, 953.375
726.181, 971.814
727.477, 919.361
728.773, 943.807
730.069, 870.123
731.365, 896.401
732.660, 851.673
733.955, 816.937
735.250, 833.194
736.545, 822.444
737.840, 794.686
739.134, 820.920
740.429, 779.146
741.723, 785.364
743.017, 771.573
744.310, 759.775
745.604, 786.967
746.897, 760.151
748.190, 776.326
749.483, 736.491
750.776, 767.647
752.069, 745.794
753.361, 730.931
754.653, 747.058
755.945, 739.175
757.237, 718.056
758.529, 703.226
759.820, 656.462
761.111, 647.535
762.402, 590.596
763.693, 563.646
764.984, 592.683
766.274, 536.707
767.564, 479.718
768.854, 497.716
770.144, 427.700
771.434, 434.671
772.724, 417.627
774.013, 396.569
775.302, 325.497
776.591, 399.411
777.880, 338.310
779.168, 305.194
780.456, 323.064
781.745, 260.918
783.033, 249.758
784.320, 256.582
785.608, 238.391
786.895, 229.185
788.183, 226.931
789.470, 223.693
790.756, 226.439
792.043, 231.170
793.329, 183.884
794.616, 187.582
795.902, 182.264
797.188, 161.659
798.473, 154.308
799.759, 151.925
801.044, 84.235
802.329, 90.833
803.614, 63.815
804.899, 53.195
806.183, 33.877
807.467, 6.564
808.752, 2.873
810.036, 41.291
811.319, 10.253
812.603, 18.438
813.886, 20.200
815.169, 25.100
816.452, 36.273
817.735, 8.190
819.018, 11.749
820.300, 3.116
821.583, 5.952
822.865, 8.481
824.146, 53.898
825.428, 16.891
826.710, 58.924
827.991, 33.020
829.272, 54.166
830.553, 40.372
831.834, 23.632
833.114, 48.936
834.394, 40.299
835.675, 15.715
836.955, 32.173
838.234, 29.680
839.514, 10.765
840.793, 18.818
842.073, 28.443
843.352, 0.117
844.630, 4.177
845.909, 23.559
847.187, 8.341
848.466, 12.840
849.744, 28.994
851.022, 8.126
852.299, 15.229
853.577, 4.694
854.854, 23.349
856.131, 15.367
857.408, 34.360
858.685, 33.372
859.961, 66.280
861.238, 28.210
862.514, 31.118
863.790, 27.004
865.066, 52.867
866.341, 42.711
867.617, 51.534
868.892, 76.342
870.167, 76.131
871.442, 86.388
872.717, 73.665
873.991, 91.406
875.265, 80.131
876.540, 72.838
877.813, 85.526
879.087, 73.546
880.361, 55.849
881.634, 69.482
882.907, 99.097
884.180, 107.695
885.453, 146.276
886.726, 107.840
887.998, 139.388
889.270, 127.919
890.542, 148.433
891.814, 153.930
893.086, 127.411
894.357, 186.875
895.628, 156.322
896.900, 145.753
898.170, 190.167
899.441, 155.566
900.712, 190.949
901.982, 178.316
903.252, 204.991
904.522, 228.334
905.792, 267.317
907.062, 274.618
908.331, 303.903
909.600, 313.172
910.869, 387.424
912.138, 415.661
913.407, 449.882
914.675, 487.088
915.944, 525.278
917.212, 591.452
918.480, 593.611
919.747, 575.754
921.015, 633.882
922.282, 626.994
923.549, 704.091
924.816, 745.173
926.083, 830.241
927.350, 856.293
928.616, 868.331
929.882, 969.354
931.148, 1032.361
932.414, 1177.354
933.680, 1189.338
934.945, 1284.307
936.211, 1322.260
937.476, 1433.200
938.741, 1450.125
940.005, 1529.038
941.270, 1691.937
942.534, 1648.823
943.799, 1809.695
945.063, 1822.553
946.326, 1839.396
947.590, 1941.226
948.853, 1915.042
950.117, 2078.847
951.380, 2015.638
952.643, 2095.417
953.905, 2146.133
955.168, 2103.857
956.430, 2277.378
957.692, 2208.670
958.954, 2295.396
960.216, 2384.154
961.478, 2446.161
962.739, 2601.201
964.000, 2612.915
965.261, 2763.308
966.522, 2871.887
967.783, 2807.890
969.043, 2818.099
970.303, 2948.375
971.563, 2921.947
972.823, 2993.788
974.083, 3050.474
975.343, 3104.051
976.602, 3141.779
977.861, 3114.806
979.120, 3367.176
980.379, 3391.152
981.638, 3460.787
982.896, 3695.272
984.154, 3572.794
985.412, 3875.715
986.670, 3916.167
987.928, 4044.154
989.185, 4142.101
990.443, 4060.194
991.700, 4041.706
992.957, 4001.467
994.214, 3810.620
995.470, 3737.545
996.727, 3538.734
997.983, 3354.193
999.239, 3313.610
1000.495, 3008.177
1001.750, 2895.175
1003.006, 2691.559
1004.261, 2591.202
1005.516, 2448.862
1006.771, 2297.729
1008.026, 2191.383
1009.280, 2093.476
1010.535, 1971.553
1011.789, 2002.014
1013.043, 1852.987
1014.297, 1733.021
1015.550, 1775.969
1016.804, 1564.311
1018.057, 1466.525
1019.310, 1395.559
1020.563, 1219.068
1021.816, 1256.896
1023.068, 1064.210
1024.321, 984.679
1025.573, 919.219
1026.825, 835.709
1028.077, 776.167
1029.328, 672.674
1030.580, 589.135
1031.831, 598.483
1033.082, 519.923
1034.333, 541.485
1035.584, 503.143
1036.834, 486.796
1038.085, 525.387
1039.335, 478.977
1040.585, 487.565
1041.834, 516.152
1043.084, 478.737
1044.334, 557.321
1045.583, 538.925
1046.832, 516.508
1048.081, 591.089
1049.329, 582.961
1050.578, 694.571
1051.826, 691.150
1053.074, 669.728
1054.322, 823.305
1055.570, 838.885
1056.818, 875.464
1058.065, 989.066
1059.312, 950.647
1060.559, 1157.228
1061.806, 1160.809
1063.053, 1218.526
1064.299, 1287.179
1065.546, 1333.789
1066.792, 1405.375
1068.038, 1486.954
1069.284, 1465.566
1070.529, 1527.251
1071.775, 1549.835
1073.020, 1520.538
1074.265, 1548.122
1075.510, 1536.972
1076.754, 1433.582
1077.999, 1556.167
1079.243, 1360.870
1080.487, 1412.457
1081.731, 1280.045
1082.975, 1251.978
1084.219, 1255.571
1085.462, 1111.164
1086.705, 1116.767
1087.948, 1049.390
1089.191, 974.432
1090.434, 987.241
1091.676, 892.002
1092.919, 831.607
1094.161, 844.256
1095.403, 727.863
1096.645, 714.470
1097.886, 687.099
1099.128, 634.006
1100.369, 637.636
1101.610, 546.333
1102.851, 553.991
1104.091, 520.604
1105.332, 453.278
1106.572, 444.981
1107.812, 438.602
1109.052, 384.328
1110.292, 420.970
1111.532, 324.626
1112.771, 348.623
1114.010, 306.299
1115.249, 286.999
1116.488, 267.737
1117.727, 233.554
1118.966, 196.314
1120.204, 219.156
1121.442, 203.003
1122.680, 178.757
1123.918, 153.545
1125.155, 146.002
1126.393, 166.173
1127.630, 122.027
1128.867, 127.975
1130.104, 102.845
1131.341, 91.148
1132.577, 87.303
1133.814, 77.203
1135.050, 83.114
1136.286, 86.340
1137.522, 77.524
1138.757, 72.499
1139.993, 57.520
1141.228, 50.112
1142.463, 26.721
1143.698, 38.940
1144.933, 38.852
1146.167, 37.679
1147.402, 14.150
1148.636, 22.251
1149.870, 25.834
1151.104, 39.456
1152.338, 21.830
1153.571, 54.483
1154.804, 13.658
1156.037, 7.764
1157.270, 4.962
1158.503, 9.778
1159.736, 14.952
1160.968, 22.182
1162.200, 31.704
1163.432, 22.620
1164.664, 7.814
1165.896, 21.113
1167.127, 27.713
1168.359, 2.298
1169.590, 17.025
1170.821, 28.795
1172.052, 19.082
1173.282, 3.258
1174.513, 13.442
1175.743, 11.717
1176.973, 22.805
1178.203, 2.360
1179.433, 23.737
1180.662, 18.009
1181.892, 40.214
1183.121, 4.506
1184.350, 4.271
1185.579, 10.455
1186.807, 21.662
1188.036, 17.872
1189.264, 19.043
1190.492, 17.287
1191.720, 20.180
1192.948, 0.391
1194.176, 18.849
1195.403, 9.037
1196.630, 11.809
1197.857, 0.622
1199.084, 5.505
1200.311, 11.663
1201.537, 11.812
1202.764, 11.825
1203.990, 21.969
1205.216, 2.116
1206.442, 9.035
1207.667, 21.099
1208.893, 18.270
1210.118, 4.680
1211.343, 1.634
1212.568, 3.455
1213.793, 9.584
1215.017, 47.648
1216.242, 5.525
1217.466, 2.340
1218.690, 24.039
1219.914, 2.830
1221.137, 18.290
1222.361, 7.571
1223.584, 9.445
1224.807, 16.457
1226.030, 1.930
1227.253, 27.075
1228.476, 20.130
1229.698, 26.951
1230.920, 64.138
1232.142, 52.175
1233.364, 18.263
1234.586, 14.238
1235.808, 10.199
1237.029, 3.922
1238.250, 2.267
1239.471, 24.996
1240.692, 14.022
1241.913, 44.014
1243.133, 44.962
1244.353, 20.952
1245.574, 5.103
1246.794, 21.868
1248.013, 6.810
1249.233, 16.825
1250.452, 34.804
1251.672, 14.770
1252.891, 8.764
1254.110, 59.690
1255.328, 6.773
1256.547, 53.696
1257.765, 56.719
1258.983, 36.289
1260.201, 42.610
1261.419, 28.508
1262.637, 21.474
1263.854, 7.360
1265.072, 22.297
1266.289, 5.215
1267.506, 6.070
1268.723, 30.925
1269.939, 25.766
1271.156, 30.363
1272.372, 20.406
1273.588, 22.218
1274.804, 6.013
1276.020, 12.202
1277.235, 20.596
1278.451, 5.642
1279.666, 37.304
1280.881, 44.049
1282.096, 15.212
1283.310, 8.506
1284.525, 12.218
1285.739, 30.922
1286.953, 13.615
1288.167, 17.302
1289.381, 4.025
1290.595, 7.304
1291.808, 21.566
1293.022, 15.444
1294.235, 32.713
1295.448, 0.653
1296.660, 1.049
1297.873, 3.545
1299.085, 32.847
1300.298, 23.808
1301.510, 7.638
1302.722, 20.916
1303.933, 2.554
1305.145, 8.035
1306.356, 15.468
1307.567, 2.962
1308.778, 3.284
1309.989, 27.248
1311.200, 9.699
1312.410, 33.214
1313.621, 11.075
1314.831, 12.311
1316.041, 17.382
1317.250, 3.019
1318.460, 28.358
1319.670, 26.725
1320.879, 11.081
1322.088, 68.546
1323.297, 13.119
1324.506, 7.200
1325.714, 12.521
1326.922, 22.818
1328.131, 12.105
1329.339, 17.316
1330.547, 0.766
1331.754, 22.021
1332.962, 21.309
1334.169, 30.542
1335.376, 16.766
1336.583, 40.980
1337.790, 24.184
1338.997, 17.356
1340.203, 25.539
1341.410, 33.712
1342.616, 24.583
1343.822, 38.704
1345.028, 30.846
1346.233, 33.123
1347.439, 2.759
1348.644, 35.118
1349.849, 34.222
1351.054, 0.718
1352.259, 53.351
1353.463, 27.411
1354.668, 67.458
1355.872, 56.361
1357.076, 45.328
1358.280, 35.311
1359.483, 50.326
1360.687, 0.320
1361.890, 32.270
1363.094, 11.138
1364.297, 32.098
1365.499, 33.928
1366.702, 28.863
1367.905, 63.495
1369.107, 77.385
1370.309, 5.258
1371.511, 65.002
1372.713, 44.847
1373.914, 0.321
1375.116, 31.154
1376.317, 42.953
1377.518, 29.766
1378.719, 61.528
1379.920, 5.260
1381.121, 30.561
1382.321, 36.162
1383.521, 4.231
1384.721, 37.335
1385.921, 45.856
1387.121, 61.391
1388.321, 46.610
1389.520, 65.007
1390.719, 51.468
1391.918, 64.889
1393.117, 41.283
1394.316, 45.266
1395.514, 48.701
1396.713, 41.970
1397.911, 92.209
1399.109, 25.469
1400.307, 66.797
1401.505, 35.041
1402.702, 40.085
1403.899, 59.601
1405.097, 61.928
1406.294, 39.571
1407.490, 62.674
1408.687, 45.693
1409.884, 47.633
1411.080, 55.925
1412.276, 53.412
1413.472, 69.504
1414.668, 57.277
1415.863, 50.939
1417.059, 46.687
1418.254, 56.996
1419.449, 71.819
1420.644, 43.460
1421.839, 71.436
1423.033, 12.135
1424.228, 67.819
1425.422, 74.479
1426.616, 45.897
1427.810, 63.327
1429.004, 58.672
1430.197, 49.371
1431.391, 70.841
1432.584, 34.296
1433.777, 47.620
1434.970, 26.056
1436.163, 50.498
1437.355, 48.918
1438.548, 39.943
1439.740, 43.044
1440.932, 73.444
1442.124, 37.039
1443.315, 21.396
1444.507, 50.472
1445.698, 37.215
1446.889, 59.365
1448.080, 45.639
1449.271, 51.010
1450.462, 53.355
1451.652, 3.863
1452.843, 21.945
1454.033, 49.175
1455.223, 19.156
1456.413, 35.066
1457.602, 47.238
1458.792, 30.366
1459.981, 46.480
1461.170, 52.360
1462.359, 40.247
1463.548, 36.954
1464.737, 8.727
1465.925, 44.527
1467.113, 69.290
1468.302, 28.067
1469.490, 61.879
1470.677, 58.796
1471.865, 36.774
1473.052, 0.750
1474.240, 41.689
1475.427, 18.168
1476.614, 61.147
1477.800, 62.150
1478.987, 34.141
1480.173, 45.983
1481.360, 37.686
1482.546, 27.594
1483.732, 59.480
1484.917, 42.325
1486.103, 43.927
1487.288, 52.781
1488.474, 2.676
1489.659, 39.533
1490.844, 8.828
1492.028, 21.805
1493.213, 37.678
1494.397, 70.606
1495.582, 47.536
1496.766, 43.918
1497.950, 23.779
1499.133, 20.709
1500.317, 43.320
1501.500, 17.929
1502.683, 57.778
1503.866, 50.611
1505.049, 51.443
1506.232, 39.264
1507.415, 53.090
1508.597, 29.816
1509.779, 40.156
1510.961, 8.485
1512.143, 22.731
1513.325, 53.760
1514.506, 30.666
1515.688, 20.609
1516.869, 12.329
1518.050, 41.810
1519.231, 4.447
1520.411, 49.492
1521.592, 27.544
1522.772, 26.703
1523.952, 0.177
1525.132, 1.695
1526.312, 0.000
##END=



