##NAMES=Thomsonite-Ca
##RRUFFID=R050091
##IDEAL CHEMISTRY=NaCa_2_(Al_5_Si_5_)O_20_&#183;6H_2_O
##LOCALITY=Amudikha River, near Mirny, Yakutia, Siberia, Russia
##OWNER=RRUFF
##SOURCE=Rock Currier
##DESCRIPTION=Radial groups of colorless bladed crystals
##STATUS=The identification of this mineral has been confirmed by X-ray diffraction and chemical analysis
##URL=rruff.info/R050091
##MEASURED CHEMISTRY=(Na_0.94_[box]_0.06_)_Σ=1_(Ca_1.71_Na_0.29_)_Σ=2_(Si_5.35_Al_4.65_)O_20_·7.09H_2_O
##PIN_ID=L00326
##ORIENTATION=Laser parallel to b* (0 1 0). Fiducial mark perpendicular to laser is parallel to c [0 0 1]
52.937, 0.000
54.335, 0.932
55.734, 102.758
57.132, 258.119
58.530, 121.079
59.927, 113.847
61.325, 129.892
62.722, 136.636
64.119, 135.897
65.515, 155.039
66.912, 247.119
68.308, 230.613
69.704, 371.711
71.100, 326.632
72.496, 371.191
73.891, 235.222
75.287, 318.470
76.682, 124.867
78.076, 131.557
79.471, 11.479
80.865, 62.588
82.260, 24.037
83.653, 26.125
85.047, 6.974
86.441, 116.564
87.834, 15.662
89.227, 7.461
90.620, 118.926
92.013, 99.411
93.405, 194.924
94.797, 236.409
96.189, 426.853
97.581, 557.254
98.973, 777.605
100.364, 850.902
101.755, 996.267
103.146, 1030.589
104.537, 1141.771
105.927, 1314.805
107.318, 1464.715
108.708, 1636.926
110.098, 1738.615
111.487, 2013.231
112.877, 2131.770
114.266, 2563.072
115.655, 2663.056
117.044, 2782.688
118.432, 2744.758
119.821, 2781.201
121.209, 2742.000
122.597, 2875.192
123.984, 3037.811
125.372, 3032.884
126.759, 3129.441
128.146, 3138.507
129.533, 3124.102
130.920, 2989.249
132.306, 2783.970
133.692, 2586.282
135.078, 2460.204
136.464, 2478.864
137.850, 2471.570
139.235, 2537.273
140.620, 2690.927
142.005, 2890.487
143.390, 3003.922
144.774, 3257.205
146.159, 3461.309
147.543, 3653.924
148.927, 3862.907
150.310, 4274.804
151.694, 4554.812
153.077, 4992.667
154.460, 5194.225
155.843, 5439.597
157.226, 5901.822
158.608, 5971.926
159.990, 6401.923
161.372, 6743.792
162.754, 7460.749
164.135, 7808.598
165.517, 8691.918
166.898, 9465.216
168.279, 10078.238
169.659, 11423.286
171.040, 12469.563
172.420, 14317.970
173.800, 15976.181
175.180, 18054.686
176.560, 19848.770
177.939, 20848.131
179.318, 20847.635
180.697, 20447.582
182.076, 19004.502
183.455, 16760.703
184.833, 14345.568
186.211, 12309.161
187.589, 10492.715
188.967, 9186.246
190.344, 7999.750
191.722, 7493.229
193.099, 6776.675
194.475, 6266.083
195.852, 6050.445
197.229, 5461.750
198.605, 5029.000
199.981, 4397.190
201.357, 4033.323
202.732, 3641.401
204.108, 3356.425
205.483, 3098.398
206.858, 3172.320
208.233, 3343.194
209.607, 3447.021
210.981, 3877.802
212.356, 4357.540
213.730, 5080.232
215.103, 6156.884
216.477, 6727.495
217.850, 7610.068
219.223, 8155.904
220.596, 8310.771
221.969, 8165.050
223.341, 7288.577
224.713, 6551.368
226.085, 5637.327
227.457, 4743.550
228.829, 4297.023
230.200, 3642.848
231.571, 3202.100
232.942, 2497.004
234.313, 2036.238
235.684, 1564.907
237.054, 1287.811
238.424, 1029.722
239.794, 774.981
241.164, 641.522
242.533, 536.148
243.902, 476.562
245.272, 460.072
246.640, 506.716
248.009, 614.701
249.378, 707.753
250.746, 978.348
252.114, 1148.319
253.482, 1648.646
254.849, 2091.499
256.217, 2531.617
257.584, 2771.531
258.951, 2748.191
260.318, 2553.979
261.684, 1961.517
263.051, 1539.293
264.417, 1128.024
265.783, 835.708
267.148, 594.346
268.514, 457.937
269.879, 267.477
271.244, 141.964
272.609, 75.394
273.974, 15.240
275.338, 97.965
276.703, 43.809
278.067, 163.767
279.431, 100.878
280.794, 186.128
282.158, 91.539
283.521, 137.082
284.884, 179.767
286.247, 172.602
287.609, 175.581
288.972, 197.704
290.334, 192.973
291.696, 240.385
293.058, 166.949
294.419, 195.644
295.781, 116.475
297.142, 146.419
298.503, 10.482
299.864, 20.626
301.224, 35.147
302.584, 97.852
303.945, 154.497
305.304, 156.084
306.664, 188.042
308.024, 343.089
309.383, 248.512
310.742, 280.885
312.101, 415.204
313.460, 407.463
314.818, 514.662
316.176, 571.814
317.534, 682.927
318.892, 763.001
320.250, 907.039
321.607, 1035.039
322.964, 1053.006
324.321, 1126.939
325.678, 1212.829
327.035, 1290.658
328.391, 1380.373
329.747, 1375.909
331.103, 1529.223
332.459, 1707.324
333.815, 1956.200
335.170, 2191.847
336.525, 2476.253
337.880, 2837.435
339.235, 2960.430
340.589, 3210.302
341.944, 3254.114
343.298, 3170.907
344.652, 2998.688
346.005, 2727.462
347.359, 2452.230
348.712, 2301.998
350.065, 2103.764
351.418, 2187.535
352.771, 2052.317
354.123, 2136.094
355.475, 2159.868
356.828, 2354.640
358.179, 2491.409
359.531, 2664.176
360.882, 2863.942
362.234, 2749.706
363.585, 2752.470
364.936, 2339.234
366.286, 2017.999
367.637, 1705.763
368.987, 1357.529
370.337, 1206.296
371.687, 1084.066
373.036, 1193.838
374.386, 1237.612
375.735, 1271.390
377.084, 1307.170
378.432, 1219.954
379.781, 1203.742
381.129, 952.534
382.478, 828.274
383.825, 801.968
385.173, 682.617
386.521, 651.226
387.868, 622.796
389.215, 677.332
390.562, 698.837
391.909, 681.314
393.255, 787.765
394.602, 646.195
395.948, 1096.603
397.294, 1125.994
398.639, 411.369
399.985, 978.732
401.330, 782.083
402.675, 314.426
404.020, 217.356
405.365, 461.849
406.709, 646.095
408.054, 316.289
409.398, 675.688
410.742, 547.553
412.085, 491.820
413.429, 579.147
414.772, 634.509
416.115, 707.688
417.458, 754.260
418.800, 947.635
420.143, 1194.010
421.485, 1380.379
422.827, 1738.743
424.169, 2009.098
425.511, 2369.445
426.852, 2809.782
428.193, 3204.110
429.534, 3651.063
430.875, 3932.446
432.216, 4375.940
433.556, 4776.265
434.896, 5464.437
436.236, 6111.530
437.576, 6996.471
438.916, 7826.851
440.255, 8349.742
441.594, 9116.625
442.933, 9178.212
444.272, 9015.783
445.611, 8610.552
446.949, 7782.700
448.287, 7225.358
449.625, 6403.897
450.963, 5987.115
452.300, 5174.701
453.638, 4596.388
454.975, 4238.762
456.312, 3796.418
457.649, 3582.127
458.985, 3502.046
460.321, 3511.587
461.658, 3818.583
462.994, 4036.725
464.329, 4780.279
465.665, 5339.463
467.000, 6642.705
468.335, 7951.257
469.670, 9690.627
471.005, 11159.633
472.340, 12108.802
473.674, 12358.565
475.008, 11278.327
476.342, 9798.575
477.676, 8439.092
479.009, 6879.637
480.342, 5875.200
481.676, 5006.782
483.009, 4527.860
484.341, 4311.538
485.674, 3746.399
487.006, 3678.732
488.338, 3558.649
489.670, 3420.046
491.002, 3477.150
492.333, 3402.045
493.665, 3483.867
494.996, 3355.015
496.327, 3191.600
497.657, 3036.388
498.988, 2739.091
500.318, 2583.780
501.648, 2279.058
502.978, 2106.547
504.308, 2001.330
505.637, 1987.097
506.967, 1963.236
508.296, 1950.942
509.625, 2108.549
510.953, 2288.826
512.282, 2451.071
513.610, 2614.562
514.938, 2879.099
516.266, 3414.683
517.594, 3865.317
518.921, 4480.007
520.249, 5261.749
521.576, 6208.543
522.903, 7648.389
524.229, 9170.287
525.556, 11072.233
526.882, 13574.224
528.208, 16696.254
529.534, 20208.326
530.860, 24020.426
532.185, 28522.561
533.511, 32804.734
534.836, 34886.961
536.161, 36022.117
537.485, 35801.504
538.810, 34413.828
540.134, 31366.189
541.458, 27518.580
542.782, 24231.002
544.106, 20563.461
545.429, 18045.951
546.753, 15218.465
548.076, 13071.014
549.399, 11253.591
550.721, 9656.202
552.044, 8508.840
553.366, 7221.511
554.688, 6211.211
556.010, 5633.940
557.332, 4880.701
558.653, 4419.490
559.975, 3896.309
561.296, 3560.157
562.617, 3180.036
563.937, 2782.726
565.258, 2591.668
566.578, 2311.644
567.898, 2076.655
569.218, 1907.699
570.538, 1784.772
571.858, 1688.876
573.177, 1521.852
574.496, 1366.168
575.815, 1235.356
577.134, 1091.573
578.452, 965.818
579.771, 847.092
581.089, 796.393
582.407, 652.722
583.724, 627.079
585.042, 561.464
586.359, 499.877
587.676, 444.319
588.993, 448.790
590.310, 426.539
591.627, 434.831
592.943, 455.410
594.259, 508.036
595.575, 561.727
596.891, 661.503
598.206, 833.353
599.522, 907.305
600.837, 1208.343
602.152, 1423.491
603.467, 1779.721
604.781, 1943.047
606.096, 1961.479
607.410, 2047.015
608.724, 1883.655
610.038, 1683.404
611.351, 1486.263
612.665, 1209.241
613.978, 1002.319
615.291, 835.506
616.604, 730.778
617.916, 562.144
619.229, 407.568
620.541, 397.052
621.853, 295.580
623.165, 212.147
624.476, 266.749
625.788, 146.385
627.099, 164.054
628.410, 110.455
629.721, 141.931
631.032, 152.795
632.342, 144.166
633.652, 57.522
634.962, 71.680
636.272, 45.475
637.582, 17.637
638.891, 46.066
640.201, 29.035
641.510, 1.302
642.818, 14.586
644.127, 37.241
645.436, 15.107
646.744, 37.250
648.052, 22.447
649.360, 85.848
650.668, 49.836
651.975, 59.477
653.282, 37.358
654.590, 130.928
655.896, 126.209
657.203, 122.323
658.510, 133.785
659.816, 111.684
661.122, 116.009
662.428, 86.773
663.734, 66.312
665.039, 79.087
666.345, 9.444
667.650, 62.476
668.955, 85.849
670.260, 132.211
671.564, 85.227
672.869, 126.584
674.173, 63.787
675.477, 133.901
676.781, 196.765
678.084, 229.857
679.388, 250.953
680.691, 242.594
681.994, 327.112
683.297, 343.501
684.599, 416.906
685.902, 427.044
687.204, 446.906
688.506, 494.951
689.808, 512.371
691.109, 557.848
692.411, 620.228
693.712, 700.370
695.013, 766.292
696.314, 774.396
697.615, 865.505
698.915, 943.001
700.216, 876.441
701.516, 973.922
702.816, 1003.420
704.115, 944.992
705.415, 997.559
706.714, 990.381
708.013, 976.882
709.312, 956.298
710.611, 996.805
711.910, 1046.265
713.208, 987.664
714.506, 1025.062
715.804, 1030.471
717.102, 1056.746
718.399, 1083.024
719.697, 972.296
720.994, 1057.695
722.291, 991.906
723.588, 1046.253
724.884, 1016.385
726.181, 1041.514
727.477, 1021.661
728.773, 1003.778
730.069, 929.968
731.365, 967.084
732.660, 868.197
733.955, 857.305
735.250, 812.409
736.545, 765.508
737.840, 829.602
739.134, 733.691
740.429, 763.775
741.723, 701.854
743.017, 665.926
744.310, 675.992
745.604, 632.052
746.897, 627.104
748.190, 641.151
749.483, 546.190
750.776, 617.221
752.069, 547.245
753.361, 554.260
754.653, 566.266
755.945, 562.263
757.237, 515.250
758.529, 488.225
759.820, 479.190
761.111, 469.144
762.402, 370.085
763.693, 438.013
764.984, 380.929
766.274, 339.830
767.564, 360.716
768.854, 309.588
770.144, 331.443
771.434, 262.283
772.724, 262.105
774.013, 262.911
775.302, 206.698
776.591, 223.468
777.880, 198.219
779.168, 194.951
780.456, 217.664
781.745, 133.358
783.033, 190.033
784.320, 172.688
785.608, 153.322
786.895, 175.937
788.183, 194.531
789.470, 145.105
790.756, 172.657
792.043, 174.189
793.329, 202.699
794.616, 124.188
795.902, 106.174
797.188, 120.558
798.473, 91.751
799.759, 118.470
801.044, 56.600
802.329, 59.245
803.614, 68.175
804.899, 53.308
806.183, 44.448
807.467, 27.379
808.752, 3.803
810.036, 18.990
811.319, 55.716
812.603, 20.453
813.886, 47.796
815.169, 27.373
816.452, 54.259
817.735, 75.153
819.018, 24.446
820.300, 48.321
821.583, 21.118
822.865, 16.598
824.146, 57.058
825.428, 23.789
826.710, 28.579
827.991, 41.431
829.272, 55.352
830.553, 50.808
831.834, 53.931
833.114, 37.575
834.394, 45.794
835.675, 27.488
836.955, 25.057
838.234, 7.138
839.514, 12.673
840.793, 19.165
842.073, 42.616
843.352, 7.966
844.630, 8.603
845.909, 28.705
847.187, 18.975
848.466, 50.203
849.744, 16.399
851.022, 44.552
852.299, 32.671
853.577, 34.752
854.854, 81.797
856.131, 78.814
857.408, 70.803
858.685, 71.765
859.961, 58.698
861.238, 81.599
862.514, 102.473
863.790, 81.319
865.066, 93.138
866.341, 107.930
867.617, 108.694
868.892, 106.431
870.167, 138.142
871.442, 137.830
872.717, 139.496
873.991, 109.137
875.265, 153.751
876.540, 121.341
877.813, 181.903
879.087, 174.442
880.361, 167.957
881.634, 192.446
882.907, 157.911
884.180, 180.558
885.453, 191.243
886.726, 190.156
887.998, 232.523
889.270, 213.865
890.542, 243.181
891.814, 240.474
893.086, 233.741
894.357, 262.984
895.628, 236.202
896.900, 228.397
898.170, 232.568
899.441, 222.715
900.712, 263.838
901.982, 288.938
903.252, 271.013
904.522, 352.063
905.792, 324.089
907.062, 426.091
908.331, 475.068
909.600, 477.021
910.869, 601.950
912.138, 594.855
913.407, 679.735
914.675, 700.592
915.944, 751.423
917.212, 835.232
918.480, 752.016
919.747, 798.780
921.015, 849.521
922.282, 871.239
923.549, 953.933
924.816, 997.603
926.083, 1019.250
927.350, 1149.873
928.616, 1198.472
929.882, 1330.051
931.148, 1397.606
932.414, 1473.138
933.680, 1576.650
934.945, 1684.139
936.211, 1787.604
937.476, 1854.047
938.741, 1871.467
940.005, 2029.865
941.270, 2099.240
942.534, 2215.594
943.799, 2333.924
945.063, 2322.235
946.326, 2417.523
947.590, 2504.716
948.853, 2507.808
950.117, 2669.929
951.380, 2481.902
952.643, 2680.962
953.905, 2680.307
955.168, 2719.702
956.430, 2870.299
957.692, 2834.474
958.954, 2932.296
960.216, 3014.354
961.478, 3028.097
962.739, 3227.534
964.000, 3201.785
965.261, 3361.367
966.522, 3468.376
967.783, 3415.777
969.043, 3502.609
970.303, 3520.202
971.563, 3442.020
972.823, 3671.410
974.083, 3701.472
975.343, 3645.865
976.602, 3784.809
977.861, 3736.800
979.120, 3992.447
980.379, 4028.246
981.638, 4144.132
982.896, 4266.266
984.154, 4289.170
985.412, 4576.067
986.670, 4586.418
987.928, 4766.889
989.185, 4831.487
990.443, 4738.064
991.700, 4742.913
992.957, 4581.033
994.214, 4423.971
995.470, 4391.532
996.727, 4055.029
997.983, 3905.440
999.239, 3792.446
1000.495, 3521.493
1001.750, 3393.353
1003.006, 3226.202
1004.261, 2975.661
1005.516, 2938.171
1006.771, 2692.636
1008.026, 2624.090
1009.280, 2407.723
1010.535, 2251.106
1011.789, 2316.237
1013.043, 2125.704
1014.297, 2061.235
1015.550, 1994.672
1016.804, 1829.149
1018.057, 1775.688
1019.310, 1600.223
1020.563, 1426.742
1021.816, 1358.249
1023.068, 1170.686
1024.321, 1078.334
1025.573, 988.127
1026.825, 859.832
1028.077, 845.397
1029.328, 729.402
1030.580, 697.169
1031.831, 621.910
1033.082, 551.671
1034.333, 606.362
1035.584, 571.347
1036.834, 521.099
1038.085, 518.852
1039.335, 485.601
1040.585, 496.346
1041.834, 581.087
1043.084, 500.823
1044.334, 563.555
1045.583, 565.289
1046.832, 557.288
1048.081, 648.015
1049.329, 617.987
1050.578, 699.004
1051.826, 733.723
1053.074, 747.456
1054.322, 887.168
1055.570, 864.876
1056.818, 938.582
1058.065, 1012.295
1059.312, 1060.051
1060.559, 1253.759
1061.806, 1221.453
1063.053, 1281.143
1064.299, 1450.882
1065.546, 1396.567
1066.792, 1557.311
1068.038, 1604.992
1069.284, 1612.577
1070.529, 1726.390
1071.775, 1650.065
1073.020, 1682.869
1074.265, 1733.540
1075.510, 1590.210
1076.754, 1617.877
1077.999, 1625.559
1079.243, 1494.721
1080.487, 1515.385
1081.731, 1395.136
1082.975, 1363.334
1084.219, 1412.994
1085.462, 1216.673
1086.705, 1217.337
1087.948, 1180.030
1089.191, 1067.753
1090.434, 1023.489
1091.676, 944.259
1092.919, 922.059
1094.161, 870.832
1095.403, 769.594
1096.645, 808.362
1097.886, 722.076
1099.128, 670.759
1100.369, 668.527
1101.610, 548.310
1102.851, 576.813
1104.091, 542.476
1105.332, 462.144
1106.572, 459.022
1107.812, 397.697
1109.052, 421.075
1110.292, 363.873
1111.532, 356.696
1112.771, 331.483
1114.010, 321.252
1115.249, 293.707
1116.488, 252.460
1117.727, 237.287
1118.966, 234.226
1120.204, 208.190
1121.442, 121.401
1122.680, 184.459
1123.918, 157.671
1125.155, 121.685
1126.393, 161.533
1127.630, 87.546
1128.867, 129.684
1130.104, 95.843
1131.341, 89.964
1132.577, 93.200
1133.814, 78.465
1135.050, 58.763
1136.286, 82.264
1137.522, 62.635
1138.757, 37.961
1139.993, 48.584
1141.228, 38.918
1142.463, 31.857
1143.698, 10.233
1144.933, 28.660
1146.167, 32.129
1147.402, 25.490
1148.636, 35.859
1149.870, 14.262
1151.104, 25.693
1152.338, 20.136
1153.571, 39.592
1154.804, 48.102
1156.037, 62.873
1157.270, 17.831
1158.503, 10.940
1159.736, 56.187
1160.968, 2.368
1162.200, 61.263
1163.432, 28.303
1164.664, 36.749
1165.896, 49.745
1167.127, 5.190
1168.359, 22.130
1169.590, 31.953
1170.821, 30.390
1172.052, 26.063
1173.282, 14.187
1174.513, 2.335
1175.743, 10.293
1176.973, 12.296
1178.203, 37.129
1179.433, 30.596
1180.662, 4.788
1181.892, 9.209
1183.121, 11.004
1184.350, 30.356
1185.579, 38.116
1186.807, 25.484
1188.036, 24.874
1189.264, 18.380
1190.492, 38.673
1191.720, 11.051
1192.948, 33.672
1194.176, 10.835
1195.403, 20.654
1196.630, 9.825
1197.857, 11.326
1199.084, 40.152
1200.311, 9.557
1201.537, 60.940
1202.764, 27.305
1203.990, 27.610
1205.216, 12.933
1206.442, 2.195
1207.667, 13.445
1208.893, 18.772
1210.118, 18.018
1211.343, 5.414
1212.568, 21.800
1213.793, 4.141
1215.017, 39.430
1216.242, 22.117
1217.466, 2.829
1218.690, 25.426
1219.914, 2.313
1221.137, 67.895
1222.361, 26.183
1223.584, 29.506
1224.807, 18.847
1226.030, 12.857
1227.253, 47.332
1228.476, 2.517
1229.698, 12.987
1230.920, 29.186
1232.142, 20.380
1233.364, 24.991
1234.586, 18.234
1235.808, 11.646
1237.029, 8.705
1238.250, 1.143
1239.471, 0.709
1240.692, 1.028
1241.913, 3.712
1243.133, 2.864
1244.353, 16.000
1245.574, 24.204
1246.794, 4.357
1248.013, 1.584
1249.233, 29.922
1250.452, 37.218
1251.672, 40.333
1252.891, 1.526
1254.110, 44.599
1255.328, 10.258
1256.547, 9.840
1257.765, 7.935
1258.983, 22.169
1260.201, 34.302
1261.419, 0.387
1262.637, 4.538
1263.854, 47.528
1265.072, 18.601
1266.289, 20.687
1267.506, 1.264
1268.723, 9.911
1269.939, 0.031
1271.156, 29.982
1272.372, 8.971
1273.588, 47.066
1274.804, 17.032
1276.020, 17.983
1277.235, 33.916
1278.451, 12.836
1279.666, 12.734
1280.881, 10.627
1282.096, 1.506
1283.310, 5.372
1284.525, 20.220
1285.739, 14.948
1286.953, 23.869
1288.167, 3.321
1289.381, 17.508
1290.595, 9.286
1291.808, 7.155
1293.022, 30.912
1294.235, 8.340
1295.448, 24.395
1296.660, 20.121
1297.873, 18.838
1299.085, 17.604
1300.298, 9.810
1301.510, 29.016
1302.722, 5.309
1303.933, 12.914
1305.145, 20.279
1306.356, 24.338
1307.567, 10.077
1308.778, 0.490
1309.989, 25.082
1311.200, 15.358
1312.410, 26.348
1313.621, 1.880
1314.831, 13.600
1316.041, 10.047
1317.250, 7.213
1318.460, 27.741
1319.670, 11.439
1320.879, 0.878
1322.088, 29.359
1323.297, 25.643
1324.506, 16.042
1325.714, 2.571
1326.922, 25.799
1328.131, 11.843
1329.339, 39.271
1330.547, 11.400
1331.754, 36.912
1332.962, 31.213
1334.169, 13.503
1335.376, 53.782
1336.583, 33.051
1337.790, 8.692
1338.997, 14.584
1340.203, 14.890
1341.410, 13.108
1342.616, 14.086
1343.822, 14.985
1345.028, 22.169
1346.233, 26.893
1347.439, 30.685
1348.644, 44.684
1349.849, 39.849
1351.054, 53.965
1352.259, 60.025
1353.463, 37.156
1354.668, 60.249
1355.872, 21.332
1357.076, 22.354
1358.280, 31.416
1359.483, 43.408
1360.687, 16.449
1361.890, 39.565
1363.094, 46.438
1364.297, 44.437
1365.499, 69.292
1366.702, 36.337
1367.905, 27.301
1369.107, 23.271
1370.309, 32.197
1371.511, 58.629
1372.713, 76.548
1373.914, 12.368
1375.116, 61.726
1376.317, 49.607
1377.518, 8.459
1378.719, 36.315
1379.920, 15.132
1381.121, 22.015
1382.321, 46.676
1383.521, 72.123
1384.721, 32.585
1385.921, 50.085
1387.121, 55.605
1388.321, 95.198
1389.520, 39.815
1390.719, 52.198
1391.918, 32.930
1393.117, 12.312
1394.316, 51.657
1395.514, 90.712
1396.713, 51.056
1397.911, 54.082
1399.109, 49.223
1400.307, 72.718
1401.505, 57.926
1402.702, 27.165
1403.899, 48.265
1405.097, 98.086
1406.294, 98.673
1407.490, 67.078
1408.687, 55.066
1409.884, 51.064
1411.080, 101.899
1412.276, 27.857
1413.472, 52.708
1414.668, 77.542
1415.863, 37.336
1417.059, 34.594
1418.254, 62.586
1419.449, 60.254
1420.644, 62.284
1421.839, 67.375
1423.033, 57.601
1424.228, 38.488
1425.422, 51.969
1426.616, 44.371
1427.810, 52.928
1429.004, 40.429
1430.197, 40.697
1431.391, 45.266
1432.584, 23.577
1433.777, 38.516
1434.970, 9.450
1436.163, 43.634
1437.355, 68.964
1438.548, 62.394
1439.740, 71.794
1440.932, 70.046
1442.124, 17.105
1443.315, 51.087
1444.507, 58.350
1445.698, 20.698
1446.889, 57.742
1448.080, 73.681
1449.271, 34.051
1450.462, 47.803
1451.652, 31.219
1452.843, 63.854
1454.033, 47.730
1455.223, 1.746
1456.413, 86.839
1457.602, 27.840
1458.792, 43.687
1459.981, 13.886
1461.170, 41.815
1462.359, 26.639
1463.548, 82.544
1464.737, 8.956
1465.925, 1.766
1467.113, 61.526
1468.302, 27.198
1469.490, 25.507
1470.677, 90.135
1471.865, 18.783
1473.052, 43.638
1474.240, 34.564
1475.427, 35.497
1476.614, 34.472
1477.800, 37.497
1478.987, 21.398
1480.173, 56.122
1481.360, 8.152
1482.546, 4.841
1483.732, 49.941
1484.917, 10.916
1486.103, 31.718
1487.288, 51.656
1488.474, 44.599
1489.659, 2.561
1490.844, 49.835
1492.028, 6.760
1493.213, 57.500
1494.397, 60.446
1495.582, 2.613
1496.766, 70.562
1497.950, 68.549
1499.133, 12.549
1500.317, 34.565
1501.500, 15.579
1502.683, 24.601
1503.866, 29.041
1505.049, 37.785
1506.232, 12.648
1507.415, 44.096
1508.597, 1.296
1509.779, 64.523
1510.961, 3.960
1512.143, 45.740
1513.325, 40.462
1514.506, 44.276
1515.688, 25.180
1516.869, 66.919
1518.050, 40.403
1519.231, 32.250
1520.411, 11.062
1521.592, 33.269
1522.772, 0.114
1523.952, 0.000
##END=



