##NAMES=Thomsonite-Ca
##RRUFFID=R050091
##IDEAL CHEMISTRY=NaCa_2_(Al_5_Si_5_)O_20_&#183;6H_2_O
##LOCALITY=Amudikha River, near Mirny, Yakutia, Siberia, Russia
##OWNER=RRUFF
##SOURCE=Rock Currier
##DESCRIPTION=Radial groups of colorless bladed crystals
##STATUS=The identification of this mineral has been confirmed by X-ray diffraction and chemical analysis
##URL=rruff.info/R050091
##MEASURED CHEMISTRY=(Na_0.94_[box]_0.06_)_Σ=1_(Ca_1.71_Na_0.29_)_Σ=2_(Si_5.35_Al_4.65_)O_20_·7.09H_2_O
##PIN_ID=L00456
##ORIENTATION=Laser parallel to a* (1 0 0). Fiducial mark perpendicular to laser is parallel to b [0 1 0]
140.355, 0.000
141.740, 1.375
143.124, 62.491
144.509, 14.900
145.893, 149.313
147.277, 181.003
148.660, 231.595
150.044, 368.824
151.427, 507.317
152.810, 685.059
154.193, 678.536
155.576, 889.749
156.958, 885.947
158.341, 1000.622
159.723, 1244.920
161.105, 1055.190
162.486, 1281.032
163.867, 1262.548
165.249, 1537.588
166.630, 1645.305
168.010, 1963.759
169.391, 2341.443
170.771, 2752.716
172.151, 3396.238
173.531, 3907.097
174.911, 4759.427
176.290, 5515.709
177.669, 6093.723
179.049, 6607.616
180.427, 6125.599
181.806, 5934.848
183.184, 4982.545
184.562, 4277.850
185.940, 3555.913
187.318, 2802.431
188.696, 2430.052
190.073, 2016.405
191.450, 1928.836
192.827, 1626.277
194.204, 1687.455
195.580, 1594.550
196.956, 1500.549
198.332, 1382.059
199.708, 1148.092
201.084, 1145.325
202.459, 993.972
203.834, 907.133
205.209, 933.785
206.584, 802.814
207.958, 928.919
209.333, 832.494
210.707, 885.574
212.081, 875.026
213.454, 878.213
214.828, 1074.519
216.201, 1124.760
217.574, 1248.939
218.947, 1346.058
220.320, 1470.120
221.692, 1492.130
223.064, 1362.147
224.436, 1261.330
225.808, 997.670
227.179, 966.175
228.551, 701.837
229.922, 565.646
231.293, 386.593
232.663, 258.666
234.034, 258.852
235.404, 113.143
236.774, 127.525
238.144, 42.011
239.514, 3.480
240.883, 37.890
242.252, 79.251
243.621, 26.572
244.990, 134.858
246.359, 72.115
247.727, 70.352
249.095, 91.584
250.463, 34.826
251.831, 26.089
253.198, 71.624
254.566, 23.621
255.933, 118.687
257.299, 71.230
258.666, 138.196
260.033, 83.218
261.399, 0.807
262.765, 8.153
264.131, 78.793
265.496, 47.872
266.862, 51.945
268.227, 61.155
269.592, 43.896
270.957, 45.812
272.321, 22.240
273.685, 65.718
275.050, 29.973
276.413, 33.532
277.777, 66.940
279.141, 164.509
280.504, 123.014
281.867, 291.472
283.230, 257.874
284.592, 339.164
285.955, 468.298
287.317, 427.285
288.679, 673.160
290.041, 695.921
291.403, 858.626
292.764, 1030.311
294.125, 1161.989
295.486, 1513.669
296.847, 1698.359
298.207, 2036.056
299.568, 2353.764
300.928, 2625.480
302.288, 2954.206
303.647, 3152.942
305.007, 3813.610
306.366, 3798.948
307.725, 4135.516
309.084, 4102.765
310.443, 3817.505
311.801, 3516.265
313.159, 3059.016
314.517, 3010.736
315.875, 2705.408
317.233, 2780.027
318.590, 2776.571
319.947, 2825.031
321.304, 2984.394
322.661, 2925.652
324.018, 3020.810
325.374, 2977.858
326.730, 3018.802
328.086, 3156.637
329.442, 3018.357
330.797, 3373.949
332.153, 3392.388
333.508, 3707.676
334.863, 4049.815
336.217, 4268.804
337.572, 4759.656
338.926, 4897.355
340.280, 5200.927
341.634, 4967.372
342.988, 4727.699
344.341, 4530.924
345.694, 3917.044
347.047, 3838.076
348.400, 3259.018
349.753, 3112.862
351.105, 2771.613
352.457, 2330.216
353.809, 2167.557
355.161, 1698.586
356.512, 1589.286
357.864, 1303.693
359.215, 1078.833
360.566, 907.826
361.916, 793.722
363.267, 624.543
364.617, 484.258
365.967, 450.798
367.317, 307.150
368.667, 149.322
370.016, 153.368
371.366, 27.255
372.715, 76.077
374.064, 26.861
375.412, 19.620
376.761, 27.364
378.109, 0.097
379.457, 42.817
380.805, 22.472
382.152, 1.222
383.500, 39.906
384.847, 21.419
386.194, 37.241
387.541, 34.892
388.887, 118.531
390.233, 111.163
391.580, 164.784
392.926, 232.396
394.271, 233.437
395.617, 297.915
396.962, 246.411
398.307, 294.507
399.652, 256.808
400.997, 144.083
402.341, 163.844
403.686, 101.512
405.030, 133.646
406.374, 134.149
407.717, 72.917
409.061, 79.682
410.404, 80.615
411.747, 175.272
413.090, 120.550
414.433, 253.433
415.775, 256.205
417.117, 260.938
418.459, 415.383
419.801, 410.199
421.143, 576.821
422.484, 682.817
423.825, 767.656
425.166, 985.958
426.507, 1079.843
427.848, 1427.716
429.188, 1654.382
430.528, 1976.525
431.868, 2512.808
433.208, 2926.028
434.547, 3750.078
435.887, 4240.161
437.226, 5139.545
438.565, 5747.968
439.904, 6218.944
441.242, 6877.881
442.580, 6606.498
443.918, 6751.075
445.256, 6109.526
446.594, 5560.334
447.932, 5103.506
449.269, 4304.684
450.606, 3848.867
451.943, 3218.056
453.280, 2825.251
454.616, 2521.452
455.952, 2052.659
457.288, 1965.872
458.624, 1618.090
459.960, 1526.315
461.295, 1466.546
462.631, 1343.782
463.966, 1320.469
465.300, 1230.717
466.635, 1263.942
467.969, 1350.147
469.304, 1451.329
470.638, 1615.490
471.972, 1646.627
473.305, 1786.742
474.639, 1721.120
475.972, 1675.187
477.305, 1673.057
478.638, 1446.076
479.970, 1544.597
481.303, 1448.976
482.635, 1563.927
483.967, 1580.836
485.298, 1575.743
486.630, 1841.299
487.961, 1864.163
489.293, 2116.006
490.624, 2345.405
491.954, 2441.208
493.285, 2671.262
494.615, 2544.029
495.945, 2608.777
497.275, 2387.414
498.605, 2210.129
499.935, 2087.266
501.264, 1873.930
502.593, 1881.620
503.922, 1802.001
505.251, 1805.860
506.579, 1956.387
507.908, 1936.688
509.236, 2177.319
510.564, 2196.169
511.891, 2526.769
513.219, 2744.967
514.546, 3104.396
515.873, 3739.415
517.200, 3935.900
518.527, 4762.493
519.853, 5553.086
521.180, 6333.674
522.506, 7890.266
523.832, 8990.854
525.157, 11341.445
526.483, 13562.050
527.808, 16332.436
529.133, 20692.174
530.458, 23771.957
531.783, 29600.941
533.107, 32630.371
534.431, 36289.406
535.756, 38548.406
537.079, 37107.480
538.403, 36536.309
539.727, 32325.574
541.050, 28843.715
542.373, 24922.646
543.696, 20851.955
545.018, 18430.248
546.341, 14829.571
547.663, 12918.895
548.985, 11088.722
550.307, 8988.527
551.629, 8118.571
552.950, 6645.905
554.271, 5950.256
555.592, 5168.895
556.913, 4434.331
558.234, 4138.992
559.554, 3445.523
560.875, 3199.654
562.195, 2808.919
563.514, 2522.008
564.834, 2371.320
566.154, 1983.708
567.473, 1938.955
568.792, 1743.312
570.111, 1640.755
571.429, 1528.686
572.748, 1315.450
574.066, 1294.643
575.384, 1154.848
576.702, 1025.075
578.019, 988.312
579.337, 856.561
580.654, 849.820
581.971, 747.090
583.288, 711.382
584.605, 672.694
585.921, 581.048
587.237, 613.439
588.553, 470.865
589.869, 512.328
591.185, 491.823
592.500, 368.352
593.815, 416.896
595.130, 339.478
596.445, 362.088
597.760, 327.711
599.074, 256.346
600.389, 297.989
601.703, 287.639
603.016, 219.294
604.330, 180.954
605.644, 159.617
606.957, 189.282
608.270, 88.948
609.583, 151.616
610.895, 68.286
612.208, 13.957
613.520, 83.629
614.832, 70.302
616.144, 123.978
617.455, 38.654
618.767, 6.331
620.078, 93.009
621.389, 17.312
622.700, 80.363
624.011, 59.040
625.321, 50.717
626.631, 35.395
627.941, 13.074
629.251, 42.754
630.561, 18.435
631.870, 10.882
633.180, 19.798
634.489, 48.521
635.798, 52.146
637.106, 17.187
638.415, 13.523
639.723, 56.137
641.031, 50.201
642.339, 15.445
643.647, 19.908
644.954, 21.734
646.261, 81.378
647.568, 39.976
648.875, 28.657
650.182, 7.708
651.488, 17.926
652.795, 31.561
654.101, 64.801
655.407, 20.881
656.712, 55.196
658.018, 24.600
659.323, 25.015
660.628, 59.386
661.933, 4.114
663.238, 61.252
664.542, 15.718
665.847, 5.456
667.151, 99.711
668.455, 42.062
669.758, 53.091
671.062, 17.541
672.365, 5.804
673.668, 16.011
674.971, 56.790
676.274, 38.487
677.577, 27.007
678.879, 93.649
680.181, 24.167
681.483, 89.443
682.785, 86.604
684.086, 163.705
685.388, 177.318
686.689, 142.009
687.990, 278.479
689.290, 205.198
690.591, 264.848
691.891, 287.947
693.192, 342.022
694.491, 413.101
695.791, 335.344
697.091, 458.948
698.390, 526.430
699.689, 446.049
700.988, 594.648
702.287, 542.075
703.586, 549.634
704.884, 651.197
706.182, 560.764
707.480, 720.333
708.778, 627.917
710.076, 707.489
711.373, 717.062
712.670, 671.718
713.968, 769.296
715.264, 736.006
716.561, 749.577
717.857, 831.150
719.154, 707.863
720.450, 862.536
721.746, 760.972
723.041, 774.619
724.337, 802.194
725.632, 732.797
726.927, 772.372
728.222, 674.022
729.517, 719.638
730.811, 681.205
732.105, 630.682
733.400, 682.240
734.693, 574.795
735.987, 553.346
737.281, 549.893
738.574, 466.435
739.867, 543.973
741.160, 458.507
742.453, 454.595
743.745, 454.119
745.038, 409.638
746.330, 452.152
747.622, 368.660
748.913, 330.373
750.205, 437.870
751.496, 283.361
752.788, 361.846
754.079, 337.325
755.369, 290.799
756.660, 343.265
757.950, 220.726
759.241, 277.181
760.531, 287.629
761.820, 234.071
763.110, 299.506
764.399, 223.935
765.689, 251.358
766.978, 264.775
768.267, 233.185
769.555, 340.588
770.844, 233.985
772.132, 345.376
773.420, 290.760
774.708, 294.138
775.996, 325.509
777.283, 309.429
778.570, 342.787
779.857, 328.139
781.144, 255.484
782.431, 301.822
783.718, 244.155
785.004, 255.480
786.290, 251.799
787.576, 186.822
788.862, 237.128
790.147, 135.601
791.433, 177.894
792.718, 180.655
794.003, 111.529
795.288, 150.802
796.572, 147.088
797.857, 175.349
799.141, 183.932
800.425, 96.180
801.709, 166.422
802.992, 100.082
804.276, 141.311
805.559, 156.265
806.842, 78.482
808.125, 69.693
809.407, 44.991
810.690, 26.188
811.972, 80.940
813.254, 6.143
814.536, 46.295
815.818, 9.734
817.099, 1.328
818.381, 65.917
819.662, 8.632
820.943, 18.462
822.223, 15.318
823.504, 22.595
824.784, 25.865
826.065, 70.922
827.345, 8.337
828.624, 9.763
829.904, 7.259
831.183, 27.702
832.462, 22.342
833.741, 28.589
835.020, 16.486
836.299, 30.582
837.577, 13.707
838.856, 5.852
840.134, 39.012
841.412, 46.793
842.689, 39.406
843.967, 16.362
845.244, 3.122
846.521, 13.129
847.798, 3.601
849.075, 31.680
850.351, 21.010
851.628, 3.307
852.904, 5.638
854.180, 27.017
855.455, 2.333
856.731, 46.302
858.006, 74.933
859.281, 49.558
860.556, 60.179
861.831, 35.794
863.106, 38.404
864.380, 79.009
865.655, 18.609
866.929, 36.203
868.202, 8.208
869.476, 52.365
870.750, 60.932
872.023, 56.505
873.296, 16.017
874.569, 36.466
875.842, 18.021
877.114, 67.501
878.386, 27.977
879.658, 49.448
880.930, 15.914
882.202, 22.374
883.474, 74.829
884.745, 6.718
886.016, 48.722
887.287, 71.158
888.558, 43.599
889.829, 103.036
891.099, 41.468
892.369, 34.896
893.639, 85.319
894.909, 2.261
896.179, 69.151
897.448, 45.559
898.718, 51.962
899.987, 87.361
901.256, 3.756
902.524, 86.145
903.793, 86.529
905.061, 39.909
906.329, 107.286
907.597, 71.658
908.865, 137.029
910.133, 111.397
911.400, 87.766
912.667, 192.133
913.934, 181.499
915.201, 194.864
916.468, 266.225
917.734, 253.583
919.001, 339.938
920.267, 371.289
921.532, 456.636
922.798, 531.981
924.064, 463.323
925.329, 643.670
926.594, 663.013
927.859, 731.354
929.124, 847.693
930.388, 814.031
931.653, 845.369
932.917, 887.704
934.181, 921.036
935.445, 1015.376
936.708, 939.714
937.972, 1014.050
939.235, 1118.383
940.498, 993.715
941.761, 1171.045
943.024, 1100.380
944.286, 1091.712
945.548, 1266.054
946.811, 1094.395
948.072, 1270.734
949.334, 1263.090
950.596, 1238.444
951.857, 1386.800
953.118, 1290.153
954.379, 1432.503
955.640, 1577.860
956.901, 1507.214
958.161, 1839.569
959.421, 1789.922
960.681, 1996.273
961.941, 2173.568
963.201, 2164.623
964.460, 2437.994
965.720, 2330.372
966.979, 2339.702
968.238, 2467.375
969.496, 2293.459
970.755, 2397.859
972.013, 2529.615
973.272, 2363.715
974.529, 2654.853
975.787, 2570.917
977.045, 2763.269
978.302, 2951.429
979.560, 3029.532
980.817, 3500.625
982.073, 3566.823
983.330, 3844.198
984.587, 4270.454
985.843, 4470.841
987.099, 4796.474
988.355, 5008.223
989.611, 4866.037
990.866, 5202.340
992.122, 4809.572
993.377, 4763.037
994.632, 4714.260
995.887, 4142.560
997.141, 4254.417
998.396, 3843.309
999.650, 3554.213
1000.904, 3551.962
1002.158, 3092.356
1003.412, 3075.888
1004.665, 2887.495
1005.918, 2521.931
1007.172, 2585.552
1008.425, 2344.048
1009.677, 2311.552
1010.930, 2338.059
1012.182, 2048.567
1013.434, 2216.071
1014.687, 2105.588
1015.938, 1999.110
1017.190, 2129.550
1018.441, 1885.071
1019.693, 1955.462
1020.944, 1847.994
1022.195, 1777.527
1023.445, 1879.923
1024.696, 1657.515
1025.946, 1603.195
1027.197, 1625.667
1028.446, 1385.224
1029.696, 1455.746
1030.946, 1328.298
1032.195, 1286.774
1033.445, 1357.291
1034.694, 1202.588
1035.942, 1201.241
1037.191, 1267.812
1038.440, 1187.828
1039.688, 1309.404
1040.936, 1276.983
1042.184, 1303.564
1043.432, 1372.147
1044.679, 1320.915
1045.927, 1458.488
1047.174, 1554.088
1048.421, 1578.711
1049.668, 1789.317
1050.914, 1716.941
1052.161, 2022.363
1053.407, 2139.992
1054.653, 2035.672
1055.899, 2408.306
1057.145, 2457.944
1058.391, 2640.146
1059.636, 2940.790
1060.881, 2881.564
1062.126, 3238.674
1063.371, 3397.684
1064.615, 3462.016
1065.860, 3789.678
1067.104, 3650.343
1068.348, 3652.043
1069.592, 3887.713
1070.836, 3652.496
1072.079, 3837.235
1073.323, 3666.913
1074.566, 3428.434
1075.809, 3555.122
1077.052, 3156.059
1078.294, 3159.882
1079.537, 3107.600
1080.779, 2694.804
1082.021, 2738.503
1083.263, 2500.204
1084.504, 2220.675
1085.746, 2157.381
1086.987, 1883.225
1088.228, 1824.986
1089.469, 1685.698
1090.710, 1493.428
1091.951, 1475.230
1093.191, 1245.948
1094.431, 1192.570
1095.671, 1169.296
1096.911, 996.061
1098.151, 983.420
1099.390, 881.152
1100.630, 767.885
1101.869, 802.620
1103.108, 717.357
1104.346, 621.228
1105.585, 655.084
1106.823, 540.911
1108.062, 611.839
1109.300, 531.676
1110.537, 378.543
1111.775, 513.424
1113.013, 352.261
1114.250, 409.090
1115.487, 374.883
1116.724, 298.642
1117.961, 328.405
1119.197, 277.176
1120.434, 256.948
1121.670, 290.094
1122.906, 229.875
1124.142, 230.861
1125.377, 222.656
1126.613, 154.451
1127.848, 196.358
1129.083, 149.183
1130.318, 150.137
1131.553, 187.055
1132.787, 98.889
1134.022, 132.740
1135.256, 152.670
1136.490, 75.524
1137.724, 142.404
1138.957, 104.278
1140.191, 40.157
1141.424, 106.029
1142.657, 71.943
1143.890, 107.935
1145.123, 102.994
1146.355, 53.955
1147.588, 115.816
1148.820, 39.761
1150.052, 63.691
1151.284, 110.912
1152.516, 12.156
1153.747, 73.273
1154.978, 30.346
1156.209, 18.289
1157.440, 104.781
1158.671, 13.810
1159.902, 59.792
1161.132, 53.098
1162.362, 51.045
1163.592, 62.396
1164.822, 52.642
1166.052, 31.630
1167.281, 109.718
1168.511, 22.849
1169.740, 38.880
1170.969, 63.924
1172.197, 7.139
1173.426, 59.940
1174.654, 31.031
1175.883, 1.986
1177.111, 62.999
1178.338, 8.036
1179.566, 42.992
1180.794, 28.059
1182.021, 19.895
1183.248, 74.192
1184.475, 36.258
1185.702, 46.765
1186.928, 46.144
1188.155, 13.101
1189.381, 11.990
1190.607, 56.037
1191.833, 5.787
1193.059, 14.670
1194.284, 15.888
1195.509, 10.807
1196.735, 17.762
1197.960, 25.195
1199.184, 19.053
1200.409, 26.028
1201.633, 10.000
1202.858, 50.847
1204.082, 36.842
1205.306, 11.112
1206.529, 53.798
1207.753, 19.345
1208.976, 8.454
1210.199, 6.511
1211.422, 11.496
1212.645, 32.317
1213.868, 36.262
1215.090, 20.166
1216.313, 50.935
1217.535, 2.944
1218.757, 14.890
1219.978, 33.689
1221.200, 28.319
1222.421, 30.411
1223.643, 2.512
1224.864, 1.222
1226.084, 26.934
1227.305, 6.028
1228.526, 76.129
1229.746, 56.821
1230.966, 41.359
1232.186, 69.365
1233.406, 4.091
1234.625, 24.899
1235.845, 55.538
1237.064, 34.364
1238.283, 18.068
1239.502, 60.691
1240.721, 25.469
1241.939, 57.128
1243.157, 32.722
1244.376, 36.554
1245.594, 69.021
1246.811, 57.591
1248.029, 50.341
1249.247, 45.904
1250.464, 12.520
1251.681, 16.651
1252.898, 24.625
1254.115, 6.411
1255.331, 23.951
1256.548, 17.486
1257.764, 15.127
1258.980, 26.707
1260.196, 29.446
1261.411, 39.803
1262.627, 52.518
1263.842, 55.802
1265.057, 73.268
1266.272, 49.730
1267.487, 3.256
1268.702, 80.695
1269.916, 10.121
1271.130, 73.571
1272.344, 72.976
1273.558, 31.371
1274.772, 78.820
1275.986, 23.200
1277.199, 33.786
1278.412, 67.152
1279.625, 21.489
1280.838, 35.152
1282.051, 60.481
1283.263, 5.198
1284.475, 71.176
1285.687, 61.479
1286.899, 20.119
1288.111, 52.198
1289.323, 37.455
1290.534, 21.681
1291.745, 45.897
1292.957, 18.896
1294.167, 52.293
1295.378, 60.467
1296.589, 11.629
1297.799, 96.782
1299.009, 11.281
1300.219, 26.845
1301.429, 58.960
1302.639, 11.937
1303.848, 38.152
1305.057, 49.225
1306.267, 8.712
1307.476, 57.336
1308.684, 8.375
1309.893, 12.400
1311.101, 47.405
1312.310, 24.400
1313.518, 20.385
1314.725, 37.357
1315.933, 34.320
1317.141, 72.272
1318.348, 29.062
1319.555, 28.990
1320.762, 60.908
1321.969, 46.805
1323.176, 40.701
1324.382, 59.585
1325.589, 3.540
1326.795, 37.318
1328.001, 26.434
1329.206, 30.269
1330.412, 51.093
1331.617, 59.459
1332.823, 47.477
1334.028, 73.043
1335.233, 25.818
1336.437, 14.583
1337.642, 18.193
1338.846, 13.605
1340.051, 51.120
1341.255, 41.816
1342.458, 43.478
1343.662, 82.203
1344.866, 34.886
1346.069, 34.775
1347.272, 209.152
1348.475, 27.795
1349.678, 21.428
1350.880, 44.489
1352.083, 2.897
1353.285, 43.580
1354.487, 28.715
1355.689, 18.944
1356.891, 54.845
1358.093, 24.411
1359.294, 30.969
1360.495, 76.534
1361.696, 17.099
1362.897, 22.523
1364.098, 52.512
1365.298, 18.033
1366.499, 78.707
1367.699, 10.212
1368.899, 57.465
1370.099, 75.830
1371.298, 11.357
1372.498, 6.291
1373.697, 102.760
1374.896, 29.178
1376.095, 42.800
1377.294, 41.333
1378.493, 22.665
1379.691, 75.656
1380.889, 19.778
1382.087, 42.816
1383.285, 79.974
1384.483, 9.708
1385.681, 84.332
1386.878, 66.359
1388.075, 25.109
1389.272, 80.818
1390.469, 106.571
1391.666, 19.299
1392.862, 107.128
1394.059, 45.068
1395.255, 87.993
1396.451, 121.493
1397.647, 15.160
1398.842, 84.941
1400.038, 84.664
1401.233, 33.420
1402.428, 118.774
1403.623, 78.356
1404.818, 24.132
1406.013, 85.441
1407.207, 45.871
1408.401, 61.080
1409.595, 115.713
1410.789, 36.995
1411.983, 81.525
1413.177, 51.089
1414.370, 43.466
1415.563, 78.160
1416.756, 61.675
1417.949, 34.857
1419.142, 122.903
1420.335, 9.193
1421.527, 74.228
1422.719, 81.532
1423.911, 3.770
1425.103, 61.335
1426.295, 51.246
1427.486, 32.505
1428.677, 121.775
1429.869, 21.428
1431.060, 32.760
1432.250, 108.828
1433.441, 59.372
1434.632, 92.162
1435.822, 103.073
1437.012, 63.740
1438.202, 90.991
1439.392, 53.482
1440.581, 62.242
1441.771, 113.095
1442.960, 105.384
1444.149, 93.895
1445.338, 184.277
1446.527, 73.258
1447.715, 102.742
1448.904, 152.443
1450.092, 102.150
1451.280, 150.791
1452.468, 125.189
1453.656, 63.564
1454.843, 166.436
1456.031, 87.983
1457.218, 76.374
1458.405, 153.992
1459.592, 95.689
1460.778, 98.788
1461.965, 139.127
1463.151, 76.733
1464.337, 136.979
1465.523, 95.471
1466.709, 60.865
1467.895, 115.463
1469.080, 86.979
1470.266, 54.417
1471.451, 63.391
1472.636, 70.914
1473.821, 62.541
1475.005, 113.821
1476.190, 33.913
1477.374, 66.211
1478.558, 92.792
1479.742, 15.355
1480.926, 101.955
1482.109, 91.543
1483.293, 32.135
1484.476, 94.724
1485.659, 31.338
1486.842, 18.943
1488.025, 95.590
1489.207, 37.269
1490.390, 67.957
1491.572, 61.653
1492.754, 31.372
1493.936, 89.113
1495.118, 75.872
1496.299, 74.933
1497.481, 90.469
1498.662, 65.367
1499.843, 45.334
1501.024, 41.094
1502.205, 12.131
1503.385, 19.214
1504.565, 83.209
1505.746, 6.605
1506.926, 55.644
1508.106, 74.967
1509.285, 43.376
1510.465, 38.883
1511.644, 64.502
1512.823, 15.117
1514.002, 57.208
1515.181, 15.311
1516.360, 32.744
1517.538, 77.819
1518.717, 0.119
1519.895, 2.330
1521.073, 0.000
##END=



