##NAMES=Thomsonite-Ca
##RRUFFID=R050091
##IDEAL CHEMISTRY=NaCa_2_(Al_5_Si_5_)O_20_&#183;6H_2_O
##LOCALITY=Amudikha River, near Mirny, Yakutia, Siberia, Russia
##OWNER=RRUFF
##SOURCE=Rock Currier
##DESCRIPTION=Radial groups of colorless bladed crystals
##STATUS=The identification of this mineral has been confirmed by X-ray diffraction and chemical analysis
##URL=rruff.info/R050091
##MEASURED CHEMISTRY=(Na_0.94_[box]_0.06_)_Σ=1_(Ca_1.71_Na_0.29_)_Σ=2_(Si_5.35_Al_4.65_)O_20_·7.09H_2_O
##PIN_ID=M00227
##ORIENTATION=Laser parallel to c* (0 0 1). Fiducial mark perpendicular to laser is parallel to a [1 0 0]
71.747, 0.000
73.144, 4.142
74.540, 458.453
75.937, 1113.660
77.333, 2077.052
78.729, 2648.289
80.125, 3769.886
81.521, 4184.198
82.916, 4743.434
84.311, 4832.570
85.706, 4536.121
87.101, 4198.213
88.496, 3915.013
89.890, 3561.359
91.284, 3598.541
92.678, 3810.260
94.071, 4051.807
95.465, 4723.342
96.858, 5270.455
98.251, 6006.566
99.644, 6807.590
101.036, 7716.539
102.428, 8623.729
103.820, 9578.979
105.212, 10699.582
106.604, 12140.719
107.995, 13802.688
109.387, 15661.913
110.777, 16751.916
112.168, 18159.275
113.559, 18105.672
114.949, 17771.195
116.339, 16923.703
117.729, 15307.874
119.119, 13393.504
120.508, 10980.909
121.897, 8823.691
123.286, 7495.969
124.675, 5639.257
126.063, 4511.005
127.452, 3617.472
128.840, 2655.508
130.228, 1994.166
131.615, 1258.800
133.003, 867.674
134.390, 615.661
135.777, 625.438
137.164, 411.664
138.550, 1005.627
139.937, 966.357
141.323, 1533.920
142.709, 1829.376
144.094, 2349.779
145.480, 2483.177
146.865, 2791.613
148.250, 2864.127
149.635, 2677.757
151.019, 2430.535
152.403, 2136.525
153.788, 1738.922
155.171, 1387.611
156.555, 1203.297
157.939, 1121.874
159.322, 1179.290
160.705, 1499.820
162.088, 1744.804
163.470, 2172.237
164.853, 2692.516
166.235, 3122.287
167.617, 4125.234
168.998, 4993.004
170.380, 6080.886
171.761, 7555.119
173.142, 9152.878
174.523, 11417.684
175.904, 13251.042
177.284, 14817.296
178.664, 15849.968
180.044, 15874.138
181.424, 15799.106
182.803, 14561.794
184.183, 12675.431
185.562, 10646.540
186.940, 9428.626
188.319, 7785.297
189.698, 6717.557
191.076, 5769.934
192.454, 5310.295
193.831, 4947.789
195.209, 4636.641
196.586, 4315.046
197.963, 3800.699
199.340, 3480.522
200.717, 2871.287
202.093, 2438.666
203.470, 2208.945
204.846, 2049.199
206.221, 2050.387
207.597, 2208.542
208.972, 2429.598
210.347, 2723.563
211.722, 3204.427
213.097, 3906.180
214.472, 4838.816
215.846, 5995.318
217.220, 7132.676
218.594, 8182.877
219.967, 9173.919
221.341, 9817.799
222.714, 10423.523
224.087, 10600.083
225.460, 11027.485
226.832, 11501.729
228.204, 11870.814
229.577, 11991.747
230.948, 11355.839
232.320, 9523.416
233.692, 7440.738
235.063, 5251.066
236.434, 3408.199
237.805, 2067.430
239.175, 1076.975
240.545, 399.367
241.916, 48.526
243.286, 326.996
244.655, 521.936
246.025, 684.404
247.394, 650.232
248.763, 676.123
250.132, 565.320
251.501, 198.217
252.869, 82.419
254.237, 192.987
255.605, 419.932
256.973, 713.338
258.340, 763.141
259.708, 673.281
261.075, 498.710
262.442, 217.379
263.808, 19.755
265.175, 263.745
266.541, 227.680
267.907, 273.586
269.273, 405.507
270.639, 420.501
272.004, 544.599
273.369, 457.854
274.734, 522.264
276.099, 445.860
277.463, 521.639
278.828, 286.632
280.192, 180.792
281.556, 84.127
282.919, 14.637
284.283, 66.689
285.646, 173.865
287.009, 44.888
288.372, 26.292
289.734, 3.289
291.097, 22.370
292.459, 136.280
293.821, 108.482
295.183, 123.976
296.544, 25.772
297.905, 2.859
299.266, 10.759
300.627, 96.078
301.988, 75.119
303.348, 75.879
304.709, 0.364
306.069, 21.554
307.428, 26.541
308.788, 58.930
310.147, 175.623
311.507, 137.646
312.865, 159.988
314.224, 262.653
315.583, 192.667
316.941, 61.009
318.299, 74.646
319.657, 80.579
321.015, 56.194
322.372, 17.602
323.729, 101.296
325.086, 291.243
326.443, 289.712
327.800, 283.958
329.156, 542.011
330.512, 500.897
331.868, 711.616
333.224, 935.038
334.579, 1182.073
335.935, 1422.028
337.290, 1685.488
338.645, 1903.791
339.999, 2120.556
341.354, 2298.996
342.708, 2435.221
344.062, 2543.269
345.416, 2628.054
346.769, 2619.513
348.123, 2634.609
349.476, 2528.413
350.829, 2671.966
352.182, 2584.271
353.534, 2478.277
354.887, 2589.938
356.239, 2495.166
357.591, 2568.919
358.942, 2580.255
360.294, 2710.207
361.645, 2607.848
362.996, 2434.261
364.347, 2408.487
365.698, 2176.593
367.048, 2011.601
368.398, 1736.509
369.748, 1620.315
371.098, 1595.024
372.448, 1428.632
373.797, 1513.142
375.146, 1493.552
376.495, 1560.865
377.844, 1688.079
379.192, 1428.197
380.540, 1489.216
381.889, 1284.140
383.236, 1186.967
384.584, 1084.700
385.932, 989.337
387.279, 862.882
388.626, 851.331
389.973, 770.685
391.319, 653.939
392.666, 725.085
394.012, 669.128
395.358, 649.054
396.704, 622.846
398.049, 707.498
399.394, 692.016
400.740, 678.497
402.084, 724.904
403.429, 647.224
404.774, 660.399
406.118, 670.980
407.462, 657.770
408.806, 666.244
410.150, 796.099
411.493, 786.819
412.836, 936.381
414.179, 1069.273
415.522, 1201.934
416.865, 1420.565
418.207, 1577.458
419.549, 1736.213
420.891, 2005.829
422.233, 2289.306
423.575, 2682.640
424.916, 2901.832
426.257, 3646.903
427.598, 4034.352
428.939, 4512.147
430.279, 5296.784
431.619, 5763.980
432.959, 6370.590
434.299, 7280.699
435.639, 8358.442
436.978, 8946.347
438.318, 10117.251
439.657, 10668.619
440.996, 11463.963
442.334, 11532.860
443.673, 11279.773
445.011, 10748.112
446.349, 10147.041
447.687, 9112.730
449.024, 8378.532
450.361, 7378.671
451.699, 6504.931
453.036, 5967.084
454.372, 5388.527
455.709, 5253.027
457.045, 4660.877
458.381, 4765.223
459.717, 4769.350
461.053, 4886.684
462.388, 5357.117
463.724, 6036.861
465.059, 7134.031
466.394, 8189.219
467.728, 9704.112
469.063, 11511.416
470.397, 13324.106
471.731, 14614.899
473.065, 15770.519
474.398, 15326.183
475.732, 14592.865
477.065, 12555.415
478.398, 11003.731
479.731, 9400.684
481.063, 8143.778
482.396, 7164.803
483.728, 6638.342
485.060, 6476.893
486.391, 6269.240
487.723, 6287.168
489.054, 6283.502
490.385, 6610.447
491.716, 6866.463
493.047, 6809.094
494.377, 7020.700
495.708, 6936.261
497.038, 6581.783
498.368, 6035.290
499.697, 5556.768
501.027, 4997.243
502.356, 4543.705
503.685, 3919.178
505.014, 3549.665
506.342, 3189.137
507.671, 3025.608
508.999, 2866.079
510.327, 2914.556
511.655, 2806.031
512.982, 3087.515
514.310, 3369.002
515.637, 3593.461
516.964, 4131.896
518.291, 4523.307
519.617, 5458.684
520.944, 6451.048
522.270, 7475.391
523.596, 9331.709
524.921, 11249.020
526.247, 13784.325
527.572, 16769.617
528.897, 20529.883
530.222, 25260.125
531.547, 29552.348
532.871, 34357.547
534.196, 37860.715
535.520, 40750.859
536.844, 41588.461
538.167, 42046.094
539.491, 39894.172
540.814, 36501.223
542.137, 32441.256
543.460, 28463.268
544.783, 24445.250
546.105, 20800.219
547.427, 18116.857
548.749, 15385.343
550.071, 13181.772
551.393, 11372.158
552.714, 9914.735
554.035, 8516.297
555.356, 7467.371
556.677, 6498.833
557.998, 5621.861
559.318, 5204.570
560.638, 4510.998
561.958, 4039.145
563.278, 3577.815
564.597, 3392.707
565.917, 3033.046
567.236, 2765.574
568.555, 2646.844
569.874, 2179.338
571.192, 2201.126
572.511, 1972.456
573.829, 1959.812
575.147, 1553.176
576.464, 1669.529
577.782, 1344.876
579.099, 1230.216
580.416, 1153.549
581.733, 1036.875
583.050, 960.196
584.366, 827.514
585.683, 784.380
586.999, 752.011
588.315, 713.680
589.630, 766.200
590.946, 785.829
592.261, 847.573
593.576, 769.468
594.891, 726.717
596.206, 784.120
597.520, 920.465
598.834, 1107.991
600.148, 1220.990
601.462, 1386.756
602.776, 1620.070
604.089, 1691.900
605.402, 1839.756
606.715, 1855.205
608.028, 1881.012
609.341, 1659.018
610.653, 1407.964
611.965, 1204.930
613.277, 1050.132
614.589, 906.272
615.901, 768.176
617.212, 682.809
618.523, 566.179
619.834, 508.614
621.145, 476.097
622.456, 497.633
623.766, 402.226
625.076, 537.897
626.386, 389.645
627.696, 462.480
629.006, 125.418
630.315, 435.997
631.624, 189.473
632.933, 214.112
634.242, 393.999
635.551, 186.056
636.859, 117.118
638.167, 32.858
639.475, 9.931
640.783, 32.567
642.090, 126.836
643.398, 92.898
644.705, 269.718
646.012, 74.612
647.318, 117.095
648.625, 162.179
649.931, 124.695
651.237, 102.197
652.543, 46.765
653.849, 85.101
655.155, 108.694
656.460, 138.376
657.765, 196.182
659.070, 225.231
660.375, 66.371
661.679, 319.276
662.984, 193.025
664.288, 223.600
665.592, 326.430
666.895, 345.521
668.199, 314.309
669.502, 559.374
670.805, 381.204
672.108, 545.592
673.411, 477.135
674.713, 520.030
676.016, 569.738
677.318, 580.264
678.620, 577.021
679.921, 627.773
681.223, 730.052
682.524, 774.309
683.825, 672.423
685.126, 879.034
686.427, 932.399
687.727, 919.191
689.028, 1088.748
690.328, 1080.879
691.628, 1275.468
692.927, 1313.710
694.227, 1429.516
695.526, 1510.688
696.825, 1657.859
698.124, 1542.007
699.423, 1700.008
700.721, 1519.851
702.020, 1628.869
703.318, 1582.126
704.616, 1487.989
705.913, 1387.865
707.211, 1499.754
708.508, 1533.665
709.805, 1409.595
711.102, 1216.547
712.399, 1311.644
713.695, 1266.646
714.992, 1422.668
716.288, 1182.710
717.584, 1318.774
718.879, 1068.858
720.175, 1041.967
721.470, 1315.100
722.765, 1068.254
724.060, 1008.429
725.355, 1009.621
726.649, 882.822
727.944, 873.028
729.238, 955.239
730.532, 703.451
731.825, 762.666
733.119, 655.884
734.412, 490.104
735.705, 441.328
736.998, 372.651
738.291, 349.779
739.584, 328.010
740.876, 317.240
742.168, 278.849
743.460, 249.866
744.752, 201.941
746.043, 177.177
747.334, 129.413
748.626, 98.647
749.916, 20.880
751.207, 23.107
752.498, 72.330
753.788, 69.548
755.078, 1.238
756.368, 59.964
757.658, 10.840
758.947, 73.342
760.237, 75.517
761.526, 11.317
762.815, 117.834
764.104, 70.979
765.392, 100.114
766.680, 157.240
767.969, 80.358
769.257, 437.465
770.544, 322.562
771.832, 478.649
773.119, 506.726
774.406, 464.792
775.693, 585.845
776.980, 426.886
778.267, 441.916
779.553, 339.932
780.839, 334.935
782.125, 216.925
783.411, 216.899
784.697, 32.858
785.982, 90.799
787.267, 86.720
788.552, 69.620
789.837, 78.500
791.122, 96.310
792.406, 34.902
793.690, 47.835
794.974, 17.467
796.258, 116.041
797.542, 11.533
798.825, 5.924
800.108, 62.579
801.391, 107.945
802.674, 179.566
803.957, 41.322
805.239, 135.141
806.522, 39.072
807.804, 65.766
809.085, 132.140
810.367, 84.327
811.649, 164.603
812.930, 110.012
814.211, 208.525
815.492, 210.195
816.772, 95.024
818.053, 138.952
819.333, 142.002
820.613, 145.177
821.893, 123.478
823.173, 158.894
824.452, 122.445
825.732, 3.113
827.011, 4.835
828.290, 6.230
829.568, 33.562
830.847, 18.301
832.125, 10.797
833.403, 34.845
834.681, 44.145
835.959, 27.211
837.236, 8.345
838.514, 56.463
839.791, 98.236
841.068, 39.982
842.345, 67.690
843.621, 162.372
844.898, 67.035
846.174, 140.677
847.450, 301.325
848.726, 123.946
850.001, 203.537
851.277, 173.103
852.552, 210.639
853.827, 309.147
855.102, 211.650
856.376, 157.136
857.651, 340.593
858.925, 331.028
860.199, 320.438
861.473, 264.818
862.746, 400.172
864.020, 425.496
865.293, 229.794
866.566, 407.061
867.839, 367.301
869.112, 487.514
870.384, 380.696
871.656, 368.894
872.928, 287.061
874.200, 406.213
875.472, 430.333
876.744, 433.425
878.015, 436.500
879.286, 401.547
880.557, 592.562
881.828, 518.547
883.098, 620.503
884.369, 602.429
885.639, 712.324
886.909, 788.191
888.178, 780.026
889.448, 899.832
890.717, 907.299
891.987, 930.355
893.256, 940.071
894.524, 996.757
895.793, 962.412
897.061, 1051.035
898.330, 1000.627
899.598, 1141.188
900.865, 1269.718
902.133, 1279.219
903.401, 1268.464
904.668, 1598.678
905.935, 1714.054
907.202, 1740.374
908.468, 2083.293
909.735, 2475.487
911.001, 2688.156
912.267, 2981.550
913.533, 3058.448
914.799, 3451.960
916.064, 3648.119
917.330, 3900.097
918.595, 3764.154
919.860, 3986.218
921.124, 4203.103
922.389, 4148.104
923.653, 4321.074
924.918, 4505.012
926.182, 4577.918
927.445, 4696.793
928.709, 4983.637
929.972, 5060.451
931.236, 5220.235
932.499, 5262.988
933.761, 5424.711
935.024, 5358.404
936.286, 5344.068
937.549, 5419.191
938.811, 5024.515
940.073, 5121.778
941.334, 4868.924
942.596, 4680.018
943.857, 4621.189
945.118, 4532.772
946.379, 4295.656
947.640, 4369.089
948.900, 4304.229
950.161, 4203.763
951.421, 4267.560
952.681, 4310.298
953.940, 4354.474
955.200, 4368.241
956.459, 4356.553
957.719, 4375.309
958.978, 4296.371
960.236, 4251.650
961.495, 4211.664
962.753, 4250.579
964.012, 4229.363
965.270, 4141.480
966.527, 4230.326
967.785, 4224.980
969.043, 4131.787
970.300, 4192.760
971.557, 4203.467
972.814, 4212.904
974.071, 4259.640
975.327, 4377.088
976.583, 4450.770
977.840, 4816.884
979.095, 4749.838
980.351, 4981.678
981.607, 5429.453
982.862, 5513.606
984.117, 5655.321
985.372, 6265.170
986.627, 5899.506
987.882, 6304.081
989.136, 6360.847
990.390, 6109.852
991.644, 6279.025
992.898, 6029.757
994.152, 5651.561
995.405, 5481.018
996.659, 5181.981
997.912, 5005.035
999.165, 4632.021
1000.417, 4512.137
1001.670, 4144.537
1002.922, 4083.271
1004.174, 3633.143
1005.426, 3693.622
1006.678, 3345.954
1007.930, 3204.534
1009.181, 3076.990
1010.432, 2995.896
1011.683, 2940.723
1012.934, 2865.317
1014.185, 2657.998
1015.435, 2760.746
1016.685, 2655.523
1017.935, 2740.422
1019.185, 2513.391
1020.435, 2293.975
1021.684, 2083.637
1022.934, 1929.130
1024.183, 1778.546
1025.432, 1641.031
1026.680, 1538.677
1027.929, 1453.421
1029.177, 1340.007
1030.425, 1176.487
1031.673, 1275.853
1032.921, 1270.781
1034.169, 990.424
1035.416, 987.034
1036.663, 1090.711
1037.911, 1113.036
1039.157, 998.759
1040.404, 1080.460
1041.650, 1069.207
1042.897, 1218.521
1044.143, 1081.106
1045.389, 1179.426
1046.634, 1342.731
1047.880, 1219.035
1049.125, 1283.559
1050.371, 1257.858
1051.615, 1459.439
1052.860, 1211.721
1054.105, 1574.471
1055.349, 1599.730
1056.593, 1444.979
1057.837, 1660.220
1059.081, 1891.835
1060.325, 1862.053
1061.568, 1892.272
1062.812, 1957.479
1064.055, 1993.676
1065.298, 2172.863
1066.540, 2109.037
1067.783, 2180.199
1069.025, 2087.349
1070.267, 2368.485
1071.509, 2254.611
1072.751, 2223.727
1073.993, 2489.838
1075.234, 2291.938
1076.475, 2317.026
1077.716, 2445.168
1078.957, 2368.864
1080.198, 2368.919
1081.438, 2519.074
1082.679, 2428.104
1083.919, 2290.990
1085.159, 2234.997
1086.398, 2322.992
1087.638, 2058.977
1088.877, 2003.951
1090.116, 1723.917
1091.355, 1705.873
1092.594, 1503.844
1093.833, 1391.805
1095.071, 1311.770
1096.309, 1246.725
1097.547, 1217.681
1098.785, 960.663
1100.023, 895.638
1101.260, 836.638
1102.498, 811.602
1103.735, 556.588
1104.972, 671.622
1106.208, 479.665
1107.445, 514.088
1108.681, 458.174
1109.918, 490.303
1111.154, 396.020
1112.389, 373.351
1113.625, 301.770
1114.860, 290.000
1116.096, 252.284
1117.331, 213.393
1118.566, 110.888
1119.800, 167.287
1121.035, 273.724
1122.269, 200.743
1123.503, 392.556
1124.737, 311.899
1125.971, 262.482
1127.205, 161.897
1128.438, 43.531
1129.671, 156.271
1130.904, 90.947
1132.137, 171.833
1133.370, 74.402
1134.602, 71.488
1135.834, 19.022
1137.066, 7.261
1138.298, 69.799
1139.530, 16.341
1140.762, 90.749
1141.993, 33.467
1143.224, 37.825
1144.455, 53.593
1145.686, 144.834
1146.917, 24.190
1148.147, 105.659
1149.377, 12.494
1150.607, 3.407
1151.837, 7.721
1153.067, 78.125
1154.296, 46.474
1155.526, 19.086
1156.755, 29.048
1157.984, 33.194
1159.213, 50.854
1160.441, 104.235
1161.670, 84.403
1162.898, 67.509
1164.126, 28.880
1165.354, 26.530
1166.581, 12.048
1167.809, 101.611
1169.036, 157.701
1170.263, 120.212
1171.490, 39.965
1172.717, 116.934
1173.943, 83.540
1175.170, 45.494
1176.396, 94.733
1177.622, 117.687
1178.848, 142.618
1180.073, 22.477
1181.299, 88.775
1182.524, 93.605
1183.749, 75.106
1184.974, 198.935
1186.199, 77.655
1187.423, 80.736
1188.648, 67.370
1189.872, 228.638
1191.096, 112.112
1192.320, 183.091
1193.543, 228.917
1194.767, 207.740
1195.990, 125.172
1197.213, 196.925
1198.436, 117.000
1199.659, 208.557
1200.881, 72.432
1202.104, 273.141
1203.326, 200.986
1204.548, 314.640
1205.770, 97.442
1206.991, 208.047
1208.213, 227.398
1209.434, 196.814
1210.655, 234.798
1211.876, 231.504
1213.096, 235.510
1214.317, 227.525
1215.537, 266.712
1216.757, 218.734
1217.977, 231.979
1219.197, 244.272
1220.417, 209.305
1221.636, 227.791
1222.855, 347.753
1224.074, 185.912
1225.293, 51.294
1226.512, 289.092
1227.731, 176.207
1228.949, 270.240
1230.167, 25.957
1231.385, 205.711
1232.603, 291.656
1233.820, 245.487
1235.038, 269.397
1236.255, 245.104
1237.472, 288.191
1238.689, 213.108
1239.906, 292.076
1241.122, 213.816
1242.338, 326.398
1243.555, 317.215
1244.771, 300.096
1245.986, 245.806
1247.202, 206.177
1248.417, 262.628
1249.633, 251.995
1250.848, 267.151
1252.063, 232.707
1253.277, 133.249
1254.492, 219.038
1255.706, 210.265
1256.920, 78.470
1258.134, 175.808
1259.348, 166.812
1260.562, 344.302
1261.775, 237.404
1262.988, 52.483
1264.201, 189.534
1265.414, 223.559
1266.627, 225.556
1267.839, 92.704
1269.052, 150.634
1270.264, 53.520
1271.476, 249.375
1272.688, 50.340
1273.899, 214.121
1275.111, 188.624
1276.322, 177.331
1277.533, 27.803
1278.744, 214.416
1279.955, 19.868
1281.165, 236.260
1282.376, 66.402
1283.586, 249.403
1284.796, 145.637
1286.006, 84.845
1287.215, 156.033
1288.425, 182.308
1289.634, 53.306
1290.843, 133.281
1292.052, 53.438
1293.261, 169.055
1294.469, 76.254
1295.678, 61.927
1296.886, 13.726
1298.094, 11.370
1299.302, 89.501
1300.509, 99.306
1301.717, 42.584
1302.924, 161.324
1304.131, 6.569
1305.338, 114.839
1306.545, 2.705
1307.752, 19.618
1308.958, 108.829
1310.164, 50.840
1311.370, 9.200
1312.576, 56.640
1313.782, 39.814
1314.987, 12.860
1316.193, 36.974
1317.398, 151.252
1318.603, 21.295
1319.807, 126.149
1321.012, 0.141
1322.216, 109.669
1323.421, 110.533
1324.625, 122.535
1325.829, 33.784
1327.032, 119.336
1328.236, 207.873
1329.439, 4.293
1330.642, 121.984
1331.845, 47.290
1333.048, 139.538
1334.251, 22.692
1335.453, 71.768
1336.656, 0.549
1337.858, 71.892
1339.060, 14.699
1340.261, 9.668
1341.463, 46.229
1342.664, 3.946
1343.866, 109.011
1345.067, 42.225
1346.267, 60.928
1347.468, 40.077
1348.669, 63.197
1349.869, 39.824
1351.069, 63.393
1352.269, 11.582
1353.469, 97.405
1354.668, 61.365
1355.868, 143.295
1357.067, 188.199
1358.266, 170.379
1359.465, 123.934
1360.664, 157.764
1361.862, 98.691
1363.061, 81.736
1364.259, 10.502
1365.457, 41.229
1366.655, 143.969
1367.852, 90.644
1369.050, 45.232
1370.247, 164.247
1371.444, 83.158
1372.641, 96.648
1373.838, 166.215
1375.035, 149.899
1376.231, 101.103
1377.427, 122.629
1378.623, 98.215
1379.819, 140.687
1381.015, 52.807
1382.211, 77.664
1383.406, 60.285
1384.601, 109.606
1385.796, 143.882
1386.991, 84.109
1388.185, 65.266
1389.380, 102.404
1390.574, 179.129
1391.768, 156.134
1392.962, 171.312
1394.156, 27.006
1395.350, 117.047
1396.543, 115.729
1397.736, 58.906
1398.929, 295.404
1400.122, 191.137
1401.315, 142.523
1402.507, 27.446
1403.700, 91.150
1404.892, 234.838
1406.084, 238.908
1407.276, 263.290
1408.467, 236.424
1409.659, 256.652
1410.850, 136.175
1412.041, 246.926
1413.232, 291.950
1414.423, 243.751
1415.614, 137.782
1416.804, 287.745
1417.994, 228.953
1419.184, 231.728
1420.374, 181.859
1421.564, 295.939
1422.753, 257.533
1423.943, 309.979
1425.132, 261.055
1426.321, 156.703
1427.510, 220.095
1428.698, 335.348
1429.887, 249.664
1431.075, 134.731
1432.263, 268.890
1433.451, 224.575
1434.639, 225.929
1435.827, 345.389
1437.014, 201.434
1438.201, 454.409
1439.388, 366.674
1440.575, 273.963
1441.762, 316.392
1442.949, 281.531
1444.135, 304.350
1445.321, 344.303
1446.507, 489.285
1447.693, 281.844
1448.879, 509.289
1450.064, 388.792
1451.250, 480.131
1452.435, 386.132
1453.620, 670.758
1454.805, 508.915
1455.989, 543.913
1457.174, 540.847
1458.358, 471.759
1459.542, 536.937
1460.726, 433.863
1461.910, 419.248
1463.093, 554.300
1464.277, 452.901
1465.460, 444.840
1466.643, 468.498
1467.826, 286.042
1469.009, 565.057
1470.191, 295.494
1471.373, 381.487
1472.556, 374.804
1473.738, 487.120
1474.919, 286.405
1476.101, 436.735
1477.283, 434.270
1478.464, 195.008
1479.645, 169.904
1480.826, 335.045
1482.007, 202.177
1483.187, 352.387
1484.368, 225.538
1485.548, 320.696
1486.728, 299.911
1487.908, 211.117
1489.088, 107.308
1490.268, 67.618
1491.447, 155.787
1492.626, 5.926
1493.805, 246.479
1494.984, 342.984
1496.163, 182.620
1497.341, 294.349
1498.520, 217.200
1499.698, 152.189
1500.876, 245.330
1502.054, 74.619
1503.232, 41.039
1504.409, 15.580
1505.586, 72.266
1506.763, 123.113
1507.940, 67.141
1509.117, 93.531
1510.294, 149.754
1511.470, 76.205
1512.647, 24.902
1513.823, 224.857
1514.999, 164.752
1516.174, 227.572
1517.350, 8.736
1518.526, 98.713
1519.701, 77.727
1520.876, 147.844
1522.051, 115.861
1523.226, 84.803
1524.400, 0.000
##END=



