##NAMES=Thomsonite-Ca
##RRUFFID=R050103
##IDEAL CHEMISTRY=NaCa_2_(Al_5_Si_5_)O_20_&#183;6H_2_O
##LOCALITY=Seeberg, Bohemia, Czech Republic
##OWNER=RRUFF
##SOURCE=Rock Currier
##DESCRIPTION=Colorless prismatic crystals
##STATUS=The identification of this mineral has been confirmed by X-ray diffraction and chemical analysis
##URL=rruff.info/R050103
##MEASURED CHEMISTRY=Na_1.00_(Ca_0.92_Sr_0.08_)_2_(Al_5.00_Si_5.00_)O_20_Â·6H_2_O
##PIN_ID=M00072
##ORIENTATION=Laser parallel to a* (1 0 0). Fiducial mark perpendicular to laser is parallel to b [0 1 0]
93.48000, 0.0000000E+00
94.71400, 8.449219
95.94800, 113.8535
97.18200, 294.9248
98.41600, 352.0479
99.64900, 487.3770
100.8830, 510.9365
102.1160, 725.5371
103.3490, 1064.678
104.5820, 1423.092
105.8150, 1711.097
107.0470, 1943.708
108.2800, 2298.819
109.5120, 2458.551
110.7440, 2595.412
111.9760, 3117.007
113.2080, 4048.399
114.4400, 4879.268
115.6710, 6284.062
116.9030, 7249.320
118.1340, 6336.633
119.3650, 4162.676
120.5960, 3239.179
121.8270, 2814.936
123.0580, 2373.768
124.2880, 1845.530
125.5190, 1775.101
126.7490, 1507.375
127.9790, 1191.264
129.2090, 1040.075
130.4390, 729.8984
131.6680, 546.8779
132.8980, 532.0840
134.1270, 303.4922
135.3560, 201.6934
136.5850, 158.1162
137.8140, 266.4746
139.0430, 432.5703
140.2710, 319.4141
141.5000, 440.0127
142.7280, 438.3916
143.9560, 485.5693
145.1840, 761.5645
146.4120, 618.3887
147.6390, 700.0576
148.8670, 962.5830
150.0940, 1016.970
151.3210, 1041.229
152.5490, 1431.362
153.7750, 1424.379
155.0020, 1570.278
156.2290, 1763.070
157.4550, 1829.754
158.6810, 1920.334
159.9080, 2167.814
161.1340, 2208.196
162.3590, 2531.484
163.5850, 2698.916
164.8110, 2782.048
166.0360, 3046.970
167.2610, 3616.377
168.4860, 4126.551
169.7110, 4468.164
170.9360, 5225.582
172.1610, 5718.170
173.3850, 6263.980
174.6100, 7070.195
175.8340, 7160.285
177.0580, 7412.464
178.2820, 7374.288
179.5050, 6926.352
180.7290, 6455.718
181.9520, 5887.445
183.1760, 5094.820
184.3990, 4409.251
185.6220, 4065.968
186.8450, 3178.498
188.0670, 2797.077
189.2900, 2498.696
190.5120, 2102.352
191.7340, 1953.042
192.9560, 1851.762
194.1780, 1742.507
195.4000, 1470.276
196.6220, 1475.066
197.8430, 1451.874
199.0640, 1187.697
200.2860, 1152.531
201.5070, 1113.377
202.7270, 826.2285
203.9480, 816.0752
205.1690, 733.9082
206.3890, 652.7168
207.6090, 821.4990
208.8290, 729.2539
210.0490, 784.9775
211.2690, 859.6699
212.4890, 824.3311
213.7080, 931.9590
214.9280, 941.5537
216.1470, 1013.067
217.3660, 1119.647
218.5850, 1214.143
219.8030, 1265.606
221.0220, 1222.233
222.2400, 983.4297
223.4590, 1043.789
224.6770, 794.1143
225.8950, 654.4033
227.1120, 557.6592
228.3300, 371.8789
229.5480, 163.0625
230.7650, 134.2090
231.9820, 199.6455
233.1990, 44.66992
234.4160, 304.6436
235.6330, 63.23828
236.8490, 166.4619
238.0660, 256.5859
239.2820, 122.5498
240.4980, 117.4307
241.7140, 265.2734
242.9300, 190.2061
244.1460, 328.0938
245.3610, 206.0371
246.5770, 160.4248
247.7920, 204.2969
249.0070, 5.445313
250.2220, 73.27148
251.4370, 35.84180
252.6510, 13.81934
253.8660, 69.61621
255.0800, 44.39453
256.2940, 140.5820
257.5080, 264.2822
258.7220, 201.6934
259.9360, 86.99121
261.1490, 96.76172
262.3630, 22.47559
263.5760, 49.44141
264.7890, 37.25488
266.0020, 36.14355
267.2150, 24.89941
268.4270, 26.85352
269.6400, 71.63574
270.8520, 67.12988
272.0640, 93.23145
273.2760, 99.03711
274.4880, 108.8438
275.7000, 128.6436
276.9120, 66.41992
278.1230, 209.1602
279.3340, 139.8535
280.5450, 403.4990
281.7560, 534.0977
282.9670, 438.6484
284.1780, 605.1504
285.3880, 626.6035
286.5980, 742.0098
287.8090, 968.3711
289.0190, 1198.686
290.2290, 1388.956
291.4380, 1617.184
292.6480, 1815.367
293.8570, 2006.508
295.0670, 2361.605
296.2760, 2653.662
297.4850, 3081.676
298.6930, 3359.650
299.9020, 3606.583
301.1110, 3974.477
302.3190, 3999.329
303.5270, 4374.141
304.7350, 4574.914
305.9430, 4727.648
307.1510, 4672.344
308.3580, 4490.000
309.5660, 4510.534
310.7730, 4251.858
311.9800, 4069.953
313.1870, 3807.896
314.3940, 3774.589
315.6010, 3584.996
316.8070, 3639.202
318.0130, 3664.332
319.2200, 3589.406
320.4260, 3818.416
321.6310, 3948.400
322.8370, 3882.359
324.0430, 3958.231
325.2480, 3905.039
326.4540, 4057.807
327.6590, 4200.540
328.8640, 4174.244
330.0680, 4527.922
331.2730, 4639.567
332.4780, 4706.185
333.6820, 4846.773
334.8860, 5005.335
336.0900, 5377.867
337.2940, 5409.369
338.4980, 5339.841
339.7010, 5382.283
340.9050, 5206.696
342.1080, 4929.080
343.3110, 4812.432
344.5140, 4373.756
345.7170, 4074.047
346.9200, 3730.308
348.1220, 3345.538
349.3240, 2934.738
350.5270, 2616.906
351.7290, 2278.045
352.9310, 1892.151
354.1320, 1726.229
355.3340, 1453.583
356.5350, 1414.288
357.7370, 1050.272
358.9380, 1005.226
360.1390, 777.1494
361.3400, 626.0410
362.5400, 494.9043
363.7410, 394.7363
364.9410, 331.5391
366.1410, 262.3115
367.3410, 227.0537
368.5410, 43.76465
369.7410, 16.57910
370.9400, 6.007813
372.1400, 35.53027
373.3390, 21.00195
374.5380, 54.39453
375.7370, 34.23242
376.9360, 48.91309
378.1350, 82.94531
379.3330, 32.60449
380.5310, 3.422852
381.7300, 21.84570
382.9280, 59.57324
384.1260, 62.24023
385.3230, 54.81445
386.5210, 51.99609
387.7180, 1.913086
388.9160, 79.71973
390.1130, 118.2861
391.3100, 57.01562
392.5060, 226.7588
393.7030, 183.9229
394.9000, 253.7441
396.0960, 139.3438
397.2920, 83.08105
398.4880, 194.7598
399.6840, 134.9023
400.8800, 100.0127
402.0750, 176.0879
403.2710, 14.87012
404.4660, 4.104492
405.6610, 47.59668
406.8560, 95.59961
408.0510, 183.0859
409.2450, 27.43359
410.4400, 136.8584
411.6340, 110.6719
412.8280, 209.4463
414.0220, 307.0293
415.2160, 229.5791
416.4100, 288.0967
417.6030, 427.3291
418.7970, 486.1484
419.9900, 755.4434
421.1830, 807.6787
422.3760, 986.0273
423.5690, 1265.342
424.7610, 1682.623
425.9540, 1774.871
427.1460, 2274.086
428.3380, 2489.271
429.5300, 3024.423
430.7220, 3672.541
431.9140, 4230.629
433.1050, 5041.684
434.2970, 5536.708
435.4880, 6297.699
436.6790, 6872.661
437.8700, 7275.594
439.0610, 7493.133
440.2510, 7542.451
441.4420, 7403.201
442.6320, 7095.010
443.8220, 6627.788
445.0120, 6192.527
446.2020, 5539.258
447.3910, 5010.947
448.5810, 4414.609
449.7700, 3717.242
450.9600, 3178.845
452.1490, 2921.418
453.3370, 2615.965
454.5260, 2120.483
455.7150, 2119.975
456.9030, 1881.442
458.0910, 1656.885
459.2800, 1804.304
460.4670, 1605.701
461.6550, 1373.075
462.8430, 1566.430
464.0300, 1497.761
465.2180, 1416.071
466.4050, 1586.361
467.5920, 1638.745
468.7790, 1766.997
469.9650, 1842.226
471.1520, 1910.433
472.3380, 1978.621
473.5250, 2051.789
474.7110, 1791.938
475.8970, 1949.069
477.0820, 1622.180
478.2680, 1755.271
479.4540, 1737.342
480.6390, 1751.397
481.8240, 1769.451
483.0090, 1858.008
484.1940, 1971.508
485.3780, 2102.508
486.5630, 2198.490
487.7470, 2371.455
488.9320, 2460.865
490.1160, 2512.332
491.3000, 2655.244
492.4830, 2605.139
493.6670, 2654.045
494.8500, 2599.906
496.0340, 2598.750
497.2170, 2380.578
498.4000, 2357.719
499.5820, 2209.182
500.7650, 2191.961
501.9480, 2170.723
503.1300, 2116.471
504.3120, 2098.199
505.4940, 2181.914
506.6760, 2454.613
507.8580, 2596.295
509.0390, 2903.965
510.2210, 3056.398
511.4020, 3520.523
512.5830, 3712.162
513.7640, 4379.186
514.9450, 5054.805
516.1250, 5880.070
517.3060, 6709.883
518.4860, 7834.254
519.6660, 9046.742
520.8460, 10662.41
522.0260, 12661.75
523.2060, 15162.28
524.3850, 17761.88
525.5650, 21072.88
526.7440, 24903.86
527.9230, 28248.16
529.1020, 31537.00
530.2810, 34940.45
531.4590, 38238.46
532.6380, 39965.94
533.8160, 41057.38
534.9940, 41160.47
536.1720, 39717.57
537.3500, 37450.68
538.5270, 34371.41
539.7050, 30586.81
540.8820, 26757.60
542.0590, 23423.70
543.2360, 20012.46
544.4130, 17288.67
545.5900, 14773.09
546.7660, 12857.62
547.9430, 11016.24
549.1190, 9705.062
550.2950, 8281.303
551.4710, 7323.398
552.6470, 6494.652
553.8220, 5557.725
554.9980, 5015.980
556.1730, 4489.227
557.3480, 4093.477
558.5230, 3732.723
559.6980, 3388.961
560.8730, 3113.197
562.0470, 2655.432
563.2220, 2477.668
564.3960, 2414.912
565.5700, 2059.150
566.7440, 1958.383
567.9170, 1880.613
569.0910, 1768.836
570.2640, 1592.059
571.4380, 1525.443
572.6110, 1403.037
573.7840, 1355.695
574.9570, 1190.902
576.1290, 1149.143
577.3020, 1006.383
578.4740, 988.6230
579.6460, 864.8555
580.8180, 877.0918
581.9900, 738.3223
583.1620, 681.5508
584.3330, 529.7793
585.5040, 586.0039
586.6760, 568.2246
587.8470, 602.4395
589.0180, 438.6562
590.1880, 502.8691
591.3590, 566.0781
592.5290, 346.2891
593.7000, 320.4961
594.8700, 349.7051
596.0400, 330.9102
597.2090, 301.1152
598.3790, 387.3164
599.5490, 350.5176
600.7180, 253.7148
601.8870, 314.9121
603.0560, 109.1055
604.2250, 287.2988
605.3940, 58.50586
606.5620, 145.7129
607.7300, 1.912109
608.8990, 24.12891
610.0670, 164.3438
611.2350, 192.5547
612.4020, 99.76758
613.5700, 100.9883
614.7370, 107.5391
615.9050, 98.43164
617.0720, 154.6758
618.2390, 131.9219
619.4060, 195.1680
620.5720, 308.4121
621.7390, 263.1973
622.9050, 321.4727
624.0710, 370.7441
625.2370, 295.0566
626.4030, 364.3398
627.5690, 439.6250
628.7340, 199.9082
629.9000, 261.1914
631.0650, 313.4746
632.2300, 155.7539
633.3950, 24.03516
634.5600, 178.3125
635.7240, 194.6367
636.8890, 67.91406
638.0530, 113.1895
639.2170, 158.4668
640.3810, 35.74023
641.5450, 205.0137
642.7080, 201.2871
643.8720, 153.5586
645.0350, 233.8320
646.1980, 143.1016
647.3610, 209.3711
648.5240, 135.6406
649.6870, 232.9102
650.8490, 235.1777
652.0120, 348.4727
653.1740, 233.8066
654.3360, 142.8242
655.4980, 39.21680
656.6600, 114.1641
657.8210, 78.23438
658.9830, 89.67578
660.1440, 59.86133
661.3050, 19.72656
662.4660, 205.2656
663.6270, 91.81445
664.7870, 35.38477
665.9480, 185.9336
667.1080, 55.53320
668.2680, 102.8770
669.4280, 68.66797
670.5880, 49.08008
671.7480, 108.8047
672.9070, 100.2422
674.0670, 194.2480
675.2260, 78.68359
676.3850, 73.20898
677.5440, 29.46484
678.7030, 58.57812
679.8610, 44.99219
681.0200, 129.3848
682.1780, 132.6270
683.3360, 100.0996
684.4940, 167.3574
685.6520, 115.6270
686.8090, 219.5762
687.9670, 208.8711
689.1240, 229.4883
690.2810, 113.0664
691.4380, 308.3418
692.5950, 241.6465
693.7520, 348.1211
694.9080, 578.3984
696.0650, 568.5332
697.2210, 553.8262
698.3770, 561.1055
699.5330, 679.3535
700.6880, 605.4199
701.8440, 688.4219
702.9990, 670.9941
704.1550, 617.2148
705.3100, 666.4805
706.4650, 687.6836
707.6190, 698.8809
708.7740, 791.0703
709.9290, 744.3594
711.0830, 835.5332
712.2370, 900.6992
713.3910, 868.8574
714.5450, 886.1699
715.6980, 843.5898
716.8520, 848.9316
718.0050, 886.1465
719.1580, 783.5547
720.3110, 991.6621
721.4640, 855.7598
722.6170, 911.8516
723.7700, 821.9297
724.9220, 898.0020
726.0740, 738.0625
727.2260, 878.1191
728.3780, 716.1641
729.5300, 712.1992
730.6810, 761.2266
731.8330, 838.8906
732.9840, 772.9004
734.1350, 751.9023
735.2860, 613.8945
736.4370, 458.8770
737.5880, 711.8516
738.7380, 229.8184
739.8880, 553.7754
741.0390, 472.7227
742.1890, 495.6602
743.3380, 383.6484
744.4880, 251.5684
745.6380, 455.4805
746.7870, 377.7109
747.9360, 307.5977
749.0850, 265.4824
750.2340, 398.3574
751.3830, 333.4492
752.5310, 267.3223
753.6800, 474.5508
754.8280, 377.8984
755.9760, 453.2070
757.1240, 233.0195
758.2720, 147.8242
759.4190, 34.38281
760.5670, 158.6465
761.7140, 327.3789
762.8610, 124.2422
764.0080, 233.9551
765.1550, 148.6543
766.3020, 217.3457
767.4480, 205.0430
768.5950, 318.7129
769.7410, 296.3730
770.8870, 175.0195
772.0330, 397.6328
773.1780, 118.2598
774.3240, 301.8770
775.4690, 341.4824
776.6140, 232.0762
777.7590, 466.6602
778.9040, 422.2344
780.0490, 264.7969
781.1940, 174.3496
782.3380, 226.8926
783.4820, 404.4238
784.6260, 194.9473
785.7700, 438.4570
786.9140, 138.9590
788.0580, 198.4492
789.2010, 419.9297
790.3450, 139.4004
791.4880, 13.14258
792.6310, 191.2734
793.7730, 82.67773
794.9160, 205.6992
796.0590, 387.0820
797.2010, 319.4531
798.3430, 94.79102
799.4850, 45.06055
800.6270, 103.2012
801.7690, 188.4336
802.9100, 191.1758
804.0520, 127.4414
805.1930, 119.8633
806.3340, 9.146484
807.4750, 4.666016
808.6160, 1.642578
809.7560, 82.42773
810.8970, 38.72266
812.0370, 49.85938
813.1770, 27.98828
814.3170, 94.53516
815.4570, 9.402344
816.5960, 41.68164
817.7360, 44.09570
818.8750, 189.8398
820.0140, 145.9004
821.1530, 207.9453
822.2920, 98.78320
823.4310, 42.38867
824.5690, 112.3984
825.7070, 32.17578
826.8460, 24.05469
827.9840, 0.3183590
829.1220, 59.39844
830.2590, 17.95508
831.3970, 184.8047
832.5340, 0.4960940
833.6710, 53.16992
834.8080, 53.83203
835.9450, 186.4883
837.0820, 0.1347660
838.2190, 0.7636720
839.3550, 24.62305
840.4910, 83.95898
841.6270, 42.53516
842.7630, 120.0996
843.8990, 58.65820
845.0350, 96.20898
846.1700, 25.75000
847.3060, 205.2832
848.4410, 244.8105
849.5760, 154.3301
850.7100, 136.1582
851.8450, 5.269531
852.9800, 6.679688
854.1140, 72.08398
855.2480, 2.480469
856.3820, 114.5938
857.5160, 343.2383
858.6500, 332.6074
859.7830, 296.9688
860.9170, 479.3242
862.0500, 144.6738
863.1830, 166.0156
864.3160, 297.3516
865.4480, 185.6816
866.5810, 65.00586
867.7130, 5.675781
868.8460, 192.6250
869.9780, 122.9238
871.1100, 141.2148
872.2410, 100.5000
873.3730, 174.7793
874.5050, 267.0527
875.6360, 40.32031
876.7670, 97.58398
877.8980, 107.8555
879.0290, 47.87891
880.1590, 69.35352
881.2900, 76.58008
882.4200, 55.19922
883.5500, 119.9863
884.6800, 227.1680
885.8100, 96.34375
886.9400, 37.48438
888.0690, 12.66211
889.1990, 6.197266
890.3280, 91.06641
891.4570, 8.990234
892.5860, 133.0762
893.7140, 235.1582
894.8430, 102.2539
895.9710, 123.1953
897.1000, 122.8301
898.2280, 58.10938
899.3560, 53.89258
900.4830, 180.9434
901.6110, 279.9941
902.7380, 2.041016
903.8660, 41.08398
904.9930, 101.1250
906.1200, 169.1621
907.2460, 122.1953
908.3730, 64.22852
909.5000, 410.2109
910.6260, 142.2363
911.7520, 243.2598
912.8780, 282.2812
914.0040, 132.3008
915.1290, 326.3203
916.2550, 254.3516
917.3800, 361.3945
918.5050, 224.4336
919.6300, 414.4707
920.7550, 161.5137
921.8800, 574.5664
923.0040, 605.6230
924.1290, 797.7148
925.2530, 636.8203
926.3770, 1023.920
927.5010, 830.3711
928.6250, 848.4727
929.7480, 889.3867
930.8720, 1010.516
931.9950, 1119.641
933.1180, 1146.768
934.2410, 1040.838
935.3640, 1296.535
936.4860, 1213.768
937.6090, 1176.053
938.7310, 1296.346
939.8530, 1372.686
940.9750, 1249.041
942.0970, 1407.363
943.2180, 1150.559
944.3400, 1220.445
945.4610, 1477.268
946.5820, 1396.533
947.7030, 1477.850
948.8240, 1493.082
949.9450, 1399.512
951.0650, 1639.209
952.1860, 1522.525
953.3060, 1690.875
954.4260, 1909.359
955.5460, 1817.613
956.6650, 1971.080
957.7850, 1894.557
958.9040, 2360.363
960.0230, 2136.848
961.1420, 2348.201
962.2610, 2365.211
963.3800, 2493.732
964.4990, 2641.219
965.6170, 2513.543
966.7350, 2595.057
967.8530, 2643.709
968.9710, 2801.205
970.0890, 2726.711
971.2070, 2617.244
972.3240, 2894.963
973.4410, 2819.742
974.5580, 2879.951
975.6750, 3191.510
976.7920, 3175.023
977.9090, 3628.594
979.0250, 3614.168
980.1410, 4069.752
981.2580, 4378.230
982.3740, 4756.824
983.4890, 4986.420
984.6050, 5166.766
985.7200, 5536.473
986.8360, 5428.812
987.9510, 5591.240
989.0660, 5782.887
990.1810, 5590.156
991.2950, 5519.814
992.4100, 5046.479
993.5240, 5043.152
994.6390, 4592.834
995.7530, 4456.520
996.8660, 4209.217
997.9800, 3973.918
999.0940, 3985.629
1000.207, 3721.348
1001.320, 3494.072
1002.433, 3142.160
1003.546, 3031.902
1004.659, 2720.650
1005.772, 2474.406
1006.884, 2396.172
1007.996, 2393.945
1009.108, 2208.725
1010.220, 2320.516
1011.332, 2321.158
1012.444, 1954.963
1013.555, 2087.721
1014.666, 2064.543
1015.777, 1901.371
1016.888, 2340.766
1017.999, 2246.613
1019.110, 2135.467
1020.220, 1980.334
1021.331, 2079.979
1022.441, 1982.844
1023.551, 2065.352
1024.661, 1766.742
1025.770, 1603.172
1026.880, 1868.355
1027.989, 1424.881
1029.098, 1499.820
1030.207, 1501.457
1031.316, 1327.688
1032.425, 1495.533
1033.533, 1428.256
1034.642, 1253.969
1035.750, 1336.986
1036.858, 1231.998
1037.966, 1185.033
1039.073, 1460.078
1040.181, 1309.133
1041.288, 1476.199
1042.396, 1473.271
1043.503, 1516.355
1044.610, 1413.449
1045.716, 1619.551
1046.823, 1683.662
1047.929, 2012.785
1049.036, 1963.484
1050.142, 2119.092
1051.248, 2216.246
1052.353, 2285.635
1053.459, 2493.002
1054.564, 2570.375
1055.670, 2701.109
1056.775, 2996.648
1057.880, 3147.051
1058.985, 3356.301
1060.089, 3602.822
1061.194, 3762.068
1062.298, 3989.322
1063.402, 4204.586
1064.506, 4303.855
1065.610, 4374.135
1066.713, 4394.301
1067.817, 4275.717
1068.920, 4302.020
1070.023, 4140.736
1071.126, 4068.057
1072.229, 3886.383
1073.332, 3785.713
1074.435, 3551.053
1075.537, 3500.402
1076.639, 3508.771
1077.741, 3235.436
1078.843, 3084.852
1079.945, 3217.277
1081.046, 2767.545
1082.148, 2751.986
1083.249, 2436.449
1084.350, 2419.910
1085.451, 2171.379
1086.551, 1830.854
1087.652, 1835.391
1088.752, 1746.977
1089.853, 1737.246
1090.953, 1351.844
1092.053, 1228.463
1093.152, 1049.088
1094.252, 1020.785
1095.351, 1063.432
1096.451, 934.0898
1097.550, 779.4648
1098.649, 794.1367
1099.748, 654.8125
1100.846, 662.4980
1101.945, 992.1914
1103.043, 663.8926
1104.141, 842.4062
1105.239, 643.1230
1106.337, 494.8457
1107.434, 668.5859
1108.532, 499.3320
1109.629, 420.0820
1110.726, 412.8398
1111.823, 457.5996
1112.920, 299.3652
1114.017, 310.3066
1115.113, 495.9141
1116.210, 261.6914
1117.306, 415.4785
1118.402, 523.3066
1119.498, 643.1875
1120.593, 561.0293
1121.689, 718.8770
1122.784, 260.7285
1123.879, 369.5859
1124.974, 365.4473
1126.069, 514.3105
1127.164, 349.3789
1128.259, 336.2754
1129.353, 237.1738
1130.447, 128.0977
1131.541, 279.0234
1132.635, 161.9531
1133.729, 159.8887
1134.822, 417.8340
1135.916, 319.7910
1137.009, 274.7539
1138.102, 159.7227
1139.195, 24.69531
1140.288, 63.66992
1141.380, 27.64844
1142.473, 59.36914
1143.565, 267.5996
1144.657, 207.5723
1145.749, 182.5625
1146.841, 239.5684
1147.932, 73.57422
1149.024, 35.59961
1150.115, 99.62891
1151.206, 20.69531
1152.297, 26.76172
1153.388, 59.96289
1154.479, 122.0469
1155.569, 40.13281
1156.659, 288.2520
1157.750, 75.62500
1158.839, 64.53516
1159.929, 234.5254
1161.019, 19.41602
1162.108, 137.3301
1163.198, 140.6855
1164.287, 96.28125
1165.376, 13.29883
1166.465, 72.67773
1167.553, 314.6562
1168.642, 47.65430
1169.730, 49.65430
1170.818, 101.6562
1171.906, 229.6562
1172.994, 44.66016
1174.082, 238.6621
1175.170, 84.67578
1176.257, 43.85938
1177.344, 212.8730
1178.431, 71.89258
1179.518, 56.08789
1180.605, 38.09961
1181.691, 16.86523
1182.778, 100.8301
1183.864, 20.20703
1184.950, 32.25781
1186.036, 21.48828
1187.122, 129.4141
1188.207, 36.57617
1189.292, 179.2422
1190.378, 160.0547
1191.463, 246.3789
1192.548, 243.7207
1193.632, 273.4941
1194.717, 118.3066
1195.801, 72.11328
1196.886, 89.07812
1197.970, 88.83008
1199.054, 262.3789
1200.137, 46.92188
1201.221, 111.7441
1202.305, 236.4102
1203.388, 60.07422
1204.471, 95.73828
1205.554, 111.3965
1206.637, 220.8242
1207.719, 6.482422
1208.802, 311.1348
1209.884, 216.1289
1210.966, 19.13672
1212.048, 66.63867
1213.130, 40.56445
1214.212, 162.1895
1215.293, 189.9746
1216.374, 97.59180
1217.456, 118.2070
1218.536, 213.8184
1219.617, 14.57227
1220.698, 383.0176
1221.778, 160.6035
1222.859, 257.1875
1223.939, 36.76562
1225.019, 90.34375
1226.099, 62.91602
1227.178, 2.486328
1228.258, 82.04297
1229.337, 341.5938
1230.417, 146.1445
1231.496, 307.2227
1232.574, 251.7656
1233.653, 2.302734
1234.732, 367.8242
1235.810, 290.3438
1236.888, 296.8594
1237.966, 371.3711
1239.044, 204.2227
1240.122, 219.7266
1241.199, 352.2246
1242.277, 156.7441
1243.354, 316.2344
1244.431, 369.7168
1245.508, 150.1973
1246.585, 147.6738
1247.661, 270.1426
1248.738, 30.26953
1249.814, 209.1602
1250.890, 360.5820
1251.966, 192.0020
1253.042, 135.4141
1254.117, 123.8223
1255.193, 351.2266
1256.268, 38.97461
1257.343, 165.5918
1258.418, 409.9785
1259.493, 274.9863
1260.567, 108.3574
1261.642, 321.7207
1262.716, 364.5820
1263.790, 255.2051
1264.864, 335.8867
1265.938, 287.7617
1267.011, 268.3379
1268.085, 355.1973
1269.158, 391.5645
1270.231, 408.1016
1271.304, 422.8008
1272.377, 425.1641
1273.450, 392.6797
1274.522, 329.2090
1275.594, 299.8184
1276.666, 233.1348
1277.738, 269.4395
1278.810, 419.1758
1279.882, 231.1562
1280.953, 379.4395
1282.025, 82.71484
1283.096, 270.9785
1284.167, 220.2363
1285.238, 378.7227
1286.308, 185.1758
1287.379, 353.1445
1288.449, 388.2109
1289.519, 119.5078
1290.589, 303.7656
1291.659, 167.7148
1292.729, 253.9883
1293.798, 210.8145
1294.868, 279.2812
1295.937, 343.9355
1297.006, 280.1055
1298.075, 319.2539
1299.143, 265.3926
1300.212, 391.5215
1301.280, 170.6445
1302.348, 169.7559
1303.416, 319.2344
1304.484, 69.32812
1305.552, 200.4102
1306.620, 191.4453
1307.687, 262.5078
1308.754, 306.1328
1309.821, 399.5742
1310.888, 410.6074
1311.955, 326.6328
1313.021, 437.2246
1314.088, 345.0332
1315.154, 385.4863
1316.220, 460.1309
1317.286, 474.5723
1318.352, 404.5430
1319.417, 521.5098
1320.483, 207.4668
1321.548, 246.4082
1322.613, 437.3438
1323.678, 616.2754
1324.743, 292.2031
1325.807, 284.1270
1326.872, 410.0449
1327.936, 323.9590
1329.000, 238.4590
1330.064, 183.3594
1331.128, 267.2559
1332.191, 242.1465
1333.255, 207.0332
1334.318, 1.083984
1335.381, 179.7891
1336.444, 153.3770
1337.507, 15.24609
1338.569, 74.10742
1339.632, 58.86914
1340.694, 22.81055
1341.756, 144.8066
1342.818, 56.65234
1343.880, 110.4883
1344.941, 244.3203
1346.003, 230.1484
1347.064, 290.9766
1348.125, 308.1211
1349.186, 355.9395
1350.247, 230.7520
1351.308, 393.5625
1352.368, 227.3047
1353.428, 271.0781
1354.489, 148.8223
1355.549, 104.8496
1356.608, 236.5820
1357.668, 291.2930
1358.727, 2.992188
1359.787, 131.6875
1360.846, 160.3633
1361.905, 268.2188
1362.964, 117.2422
1364.022, 126.8809
1365.081, 204.4648
1366.139, 23.73828
1367.197, 118.3008
1368.255, 367.8574
1369.313, 100.4043
1370.371, 206.9492
1371.428, 139.6719
1372.486, 186.4316
1373.543, 158.1426
1374.600, 166.6289
1375.657, 80.10742
1376.713, 170.5176
1377.770, 136.9570
1378.826, 242.3906
1379.882, 221.8203
1380.938, 327.6816
1381.994, 260.3242
1383.050, 74.26367
1384.106, 54.94531
1385.161, 153.9297
1386.216, 62.69922
1387.271, 375.6465
1388.326, 226.9961
1389.381, 9.332031
1390.435, 47.65820
1391.490, 20.11719
1392.544, 22.40430
1393.598, 77.69922
1394.652, 23.13086
1395.705, 236.4082
1396.759, 153.6777
1397.812, 227.9434
1398.866, 21.80078
1399.919, 83.45117
1400.972, 78.72852
1402.024, 20.03320
1403.077, 138.1895
1404.129, 286.4023
1405.181, 31.70508
1406.233, 106.0977
1407.285, 200.0547
1408.337, 266.4023
1409.389, 184.4238
1410.440, 168.5566
1411.491, 3.314453
1412.542, 79.80469
1413.593, 133.9199
1414.644, 34.04492
1415.695, 112.1816
1416.745, 148.5195
1417.795, 171.6445
1418.845, 112.8066
1419.895, 44.73438
1420.945, 236.6777
1421.995, 29.60742
1423.044, 47.43164
1424.093, 309.8926
1425.142, 223.8125
1426.191, 257.0469
1427.240, 215.8926
1428.289, 135.7207
1429.337, 21.46680
1430.385, 302.3184
1431.433, 279.9160
1432.481, 0.9687500
1433.529, 311.6797
1434.577, 161.3789
1435.624, 362.6191
1436.672, 171.3066
1437.719, 370.9648
1438.766, 329.9023
1439.812, 553.5469
1440.859, 523.1719
1441.905, 330.7461
1442.952, 660.3438
1443.998, 594.8945
1445.044, 406.8945
1446.090, 540.4043
1447.135, 433.4102
1448.181, 698.0938
1449.226, 701.7754
1450.271, 748.5273
1451.316, 758.3184
1452.361, 674.1211
1453.405, 724.9199
1454.450, 643.9023
1455.494, 747.3184
1456.538, 606.8535
1457.582, 331.3223
1458.626, 659.9316
1459.670, 790.7148
1460.713, 267.5000
1461.757, 423.2969
1462.800, 533.0918
1463.843, 487.8809
1464.886, 415.6836
1465.928, 650.8496
1466.971, 213.6406
1468.013, 334.4395
1469.055, 527.2383
1470.097, 327.6133
1471.139, 409.3711
1472.181, 441.1641
1473.222, 575.9570
1474.263, 247.5977
1475.305, 419.4336
1476.346, 420.2773
1477.386, 598.1172
1478.427, 531.5098
1479.468, 510.7539
1480.508, 441.7266
1481.548, 351.3633
1482.588, 391.0430
1483.628, 270.5977
1484.668, 195.1016
1485.707, 436.1387
1486.747, 221.0469
1487.786, 67.11719
1488.825, 352.8848
1489.864, 459.5957
1490.902, 17.86719
1491.941, 457.2031
1492.979, 404.1113
1494.017, 290.5195
1495.055, 316.7480
1496.093, 106.2246
1497.131, 96.63281
1498.168, 94.03711
1499.206, 430.1523
1500.243, 200.2695
1501.280, 296.1836
1502.317, 237.5195
1503.354, 261.5586
1504.390, 270.6016
1505.426, 47.64844
1506.463, 94.69922
1507.499, 232.7617
1508.535, 259.8242
1509.570, 29.89453
1510.606, 214.9570
1511.641, 317.0000
1512.676, 151.0039
1513.711, 261.0000
1514.746, 235.9727
1515.781, 177.0820
1516.816, 426.8203
1517.850, 323.6836
1518.884, 122.5117
1519.918, 389.3086
1520.952, 207.0547
1521.986, 263.7617
1523.019, 167.4102
1524.053, 162.0078
1525.086, 152.6172
1526.119, 182.4141
1527.152, 188.2383
1528.185, 388.0898
1529.217, 141.0000
1530.250, 339.8477
1531.282, 287.9375
1532.314, 118.1797
1533.346, 261.4336
1534.377, 349.3047
1535.409, 183.9883
1536.440, 414.4961
1537.472, 323.1523
1538.503, 227.1836
1539.534, 520.9531
1540.564, 126.1484
1541.595, 214.7578
1542.625, 310.3594
1543.656, 278.3477
1544.686, 177.9258
1545.716, 184.6875
1546.745, 124.9961
1547.775, 37.16797
1548.804, 125.0117
1549.834, 46.83203
1550.863, 289.8672
1551.892, 333.0000
1552.920, 165.0508
1553.949, 253.7500
1554.977, 215.9688
1556.006, 53.94922
1557.034, 315.9062
1558.062, 187.4062
1559.089, 21.46484
1560.117, 228.4961
1561.144, 185.8477
1562.172, 64.52344
1563.199, 185.3438
1564.226, 450.0977
1565.252, 279.2148
1566.279, 243.4688
1567.305, 312.1094
1568.332, 1.742188
1569.358, 185.1289
1570.384, 0.0000000E+00
##END=



