##NAMES=Thomsonite-Ca
##RRUFFID=R050103
##IDEAL CHEMISTRY=NaCa_2_(Al_5_Si_5_)O_20_&#183;6H_2_O
##LOCALITY=Seeberg, Bohemia, Czech Republic
##OWNER=RRUFF
##SOURCE=Rock Currier
##DESCRIPTION=Colorless prismatic crystals
##STATUS=The identification of this mineral has been confirmed by X-ray diffraction and chemical analysis
##URL=rruff.info/R050103
##MEASURED CHEMISTRY=Na_1.00_(Ca_0.92_Sr_0.08_)_2_(Al_5.00_Si_5.00_)O_20_Â·6H_2_O
##PIN_ID=L00148
##ORIENTATION=Laser parallel to -b* (0 -1 0). Fiducial mark perpendicular to laser is parallel to -c [0 0 -1]
109.387, 0.000
110.777, 6.561
112.168, 496.833
113.559, 1250.765
114.949, 1842.076
116.339, 2262.664
117.729, 2593.666
119.119, 2953.288
120.508, 2714.179
121.897, 2863.426
123.286, 2459.270
124.675, 2260.331
126.063, 2135.711
127.452, 1665.729
128.840, 1739.972
130.228, 1077.459
131.615, 1097.655
133.003, 709.925
134.390, 614.763
135.777, 424.795
137.164, 126.743
138.550, 239.398
139.937, 18.598
141.323, 271.502
142.709, 89.380
144.094, 101.588
145.480, 319.347
146.865, 258.578
148.250, 491.823
149.635, 391.299
151.019, 804.330
152.403, 807.715
153.788, 986.212
155.171, 1177.832
156.555, 1194.663
157.939, 1361.644
159.322, 1296.262
160.705, 1561.157
162.088, 1675.524
163.470, 1759.408
164.853, 1952.848
166.235, 1925.880
167.617, 2468.534
168.998, 2570.840
170.380, 3032.814
171.761, 3525.237
173.142, 4005.452
174.523, 4933.078
175.904, 5722.479
177.284, 6870.135
178.664, 7388.005
180.044, 8159.993
181.424, 8022.236
182.803, 7357.285
184.183, 6694.428
185.562, 5569.674
186.940, 4935.052
188.319, 3810.412
189.698, 3353.195
191.076, 2880.514
192.454, 2590.742
193.831, 2547.960
195.209, 2125.646
196.586, 2149.307
197.963, 1823.046
199.340, 1926.873
200.717, 1570.795
202.093, 1287.809
203.470, 1296.915
204.846, 1015.111
206.221, 1093.393
207.597, 750.754
208.972, 778.193
210.347, 908.702
211.722, 724.272
213.097, 928.900
214.472, 824.577
215.846, 1140.298
217.220, 1014.057
218.594, 1232.850
219.967, 1523.672
221.341, 1309.518
222.714, 1663.387
224.087, 1338.274
225.460, 1403.172
226.832, 1114.061
228.204, 842.928
229.577, 863.771
230.948, 468.588
232.320, 501.383
233.692, 32.151
235.063, 156.890
236.434, 35.399
237.805, 90.716
239.175, 44.058
240.545, 316.415
241.916, 28.834
243.286, 352.002
244.655, 184.013
246.025, 208.494
247.394, 263.313
248.763, 69.227
250.132, 235.298
251.501, 35.544
252.869, 73.382
254.237, 71.229
255.605, 222.724
256.973, 27.867
258.340, 360.662
259.708, 106.702
261.075, 170.041
262.442, 205.577
263.808, 143.241
265.175, 126.336
266.541, 90.202
267.907, 49.646
269.273, 6.316
270.639, 16.537
272.004, 69.785
273.369, 110.121
274.734, 8.618
276.099, 145.697
277.463, 130.220
278.828, 12.826
280.192, 135.938
281.556, 216.447
282.919, 108.271
284.283, 488.347
285.646, 193.623
287.009, 524.060
288.372, 435.626
289.734, 611.295
291.097, 904.048
292.459, 679.861
293.821, 1269.715
295.183, 1276.594
296.544, 1613.486
297.905, 2090.380
299.266, 2147.268
300.627, 2674.145
301.988, 2821.004
303.348, 3427.845
304.709, 3644.660
306.069, 4201.451
307.428, 4638.201
308.788, 4744.880
310.147, 5021.477
311.507, 4637.990
312.865, 4394.424
314.224, 3980.781
315.583, 3607.059
316.941, 3633.257
318.299, 3309.376
319.657, 3585.424
321.015, 3421.400
322.372, 3607.311
323.729, 3783.157
325.086, 3618.941
326.443, 4084.665
327.800, 3820.331
329.156, 3965.941
330.512, 3901.498
331.868, 3967.002
333.224, 4252.454
334.579, 4187.855
335.935, 4623.202
337.290, 4808.459
338.645, 5093.544
339.999, 5508.328
341.354, 5352.688
342.708, 5846.679
344.062, 5270.396
345.416, 5203.971
346.769, 4707.562
348.123, 4421.121
349.476, 4144.729
350.829, 3458.316
352.182, 3341.909
353.534, 2705.489
354.887, 2538.947
356.239, 2122.332
357.591, 1665.600
358.942, 1608.860
360.294, 1162.162
361.645, 1115.450
362.996, 685.779
364.347, 744.094
365.698, 621.403
367.048, 322.713
368.398, 404.006
369.748, 124.337
371.098, 112.643
372.448, 104.923
373.797, 31.824
375.146, 74.371
376.495, 46.466
377.844, 122.635
379.192, 51.708
380.540, 8.257
381.889, 97.728
383.236, 166.320
384.584, 250.538
385.932, 64.374
387.279, 286.173
388.626, 251.951
389.973, 42.707
391.319, 369.423
392.666, 209.116
394.012, 392.788
395.358, 313.439
396.704, 337.781
398.049, 403.390
399.394, 90.532
400.740, 228.391
402.084, 137.996
403.429, 198.580
404.774, 202.919
406.118, 59.158
407.462, 278.936
408.806, 98.787
410.150, 81.374
411.493, 105.633
412.836, 66.443
414.179, 169.689
415.522, 124.463
416.865, 280.374
418.207, 107.184
419.549, 262.024
420.891, 567.797
422.233, 408.519
423.575, 711.178
424.916, 582.822
426.257, 1084.414
427.598, 1195.997
428.939, 1447.574
430.279, 2018.755
431.619, 2047.017
432.959, 2764.671
434.299, 3339.016
435.639, 4130.861
436.978, 5179.089
438.318, 5518.688
439.657, 7140.210
440.996, 7299.615
442.334, 7901.104
443.673, 8222.571
445.011, 7494.014
446.349, 7315.434
447.687, 6586.827
449.024, 5848.195
450.361, 5159.536
451.699, 4320.850
453.036, 3922.137
454.372, 3053.395
455.709, 2914.626
457.045, 2545.827
458.381, 2097.001
459.717, 2018.165
461.053, 1639.280
462.388, 1750.367
463.724, 1451.425
465.059, 1432.454
466.394, 1593.455
467.728, 1404.427
469.063, 1665.371
470.397, 1546.286
471.731, 1947.174
473.065, 1938.033
474.398, 2038.865
475.732, 2189.670
477.065, 1930.449
478.398, 2091.202
479.731, 1862.006
481.063, 1692.707
482.396, 1853.500
483.728, 1504.150
485.060, 2024.777
486.391, 1735.377
487.723, 1965.953
489.054, 2326.530
490.385, 2147.059
491.716, 2697.562
493.047, 2598.042
494.377, 2658.531
495.708, 2798.997
497.038, 2639.439
498.368, 2849.860
499.697, 2330.260
501.027, 2470.665
502.356, 2292.475
503.685, 2052.845
505.014, 2363.387
506.342, 2012.606
507.671, 2272.949
508.999, 2239.662
510.327, 2420.018
511.655, 2836.456
512.982, 2807.922
514.310, 3418.383
515.637, 3623.630
516.964, 4143.896
518.291, 4920.176
519.617, 5293.373
520.944, 6743.660
522.270, 7336.731
523.596, 8927.050
524.921, 11009.317
526.247, 12592.868
527.572, 15843.095
528.897, 19026.074
530.222, 23494.670
531.547, 28423.195
532.871, 33041.262
534.196, 38162.840
535.520, 41890.055
536.844, 43920.668
538.167, 44589.055
539.491, 41305.195
540.814, 38778.133
542.137, 33225.797
543.460, 29638.781
544.783, 24938.660
546.105, 20745.174
547.427, 18415.162
548.749, 14854.984
550.071, 13090.576
551.393, 10730.532
552.714, 9270.013
554.035, 8379.937
555.356, 6909.849
556.677, 6209.746
557.998, 5379.628
559.318, 4786.909
560.638, 4246.553
561.958, 3755.164
563.278, 3604.826
564.597, 2934.544
565.917, 2906.183
567.236, 2536.300
568.555, 2156.390
569.874, 2305.714
571.192, 1885.463
572.511, 1904.968
573.829, 1745.283
575.147, 1405.570
576.464, 1635.925
577.782, 1145.987
579.099, 1066.336
580.416, 1096.675
581.733, 937.002
583.050, 1137.318
584.366, 797.626
585.683, 1037.927
586.999, 768.218
588.315, 898.498
589.630, 978.773
590.946, 309.053
592.261, 799.342
593.576, 669.653
594.891, 609.999
596.206, 720.350
597.520, 370.743
598.834, 651.130
600.148, 501.518
601.462, 471.894
602.776, 532.264
604.089, 162.624
605.402, 572.975
606.715, 153.314
608.028, 413.646
609.341, 353.969
610.653, 144.280
611.965, 404.583
613.277, 244.877
614.589, 305.161
615.901, 315.437
617.212, 95.703
618.523, 515.959
619.834, 136.208
621.145, 456.448
622.456, 416.679
623.766, 416.901
625.076, 847.116
626.386, 537.321
627.696, 937.521
629.006, 627.711
630.315, 347.894
631.624, 638.067
632.933, 148.235
634.242, 378.395
635.551, 208.546
636.859, 78.691
638.167, 388.828
639.475, 68.958
640.783, 239.080
642.090, 219.193
643.398, 149.302
644.705, 509.401
646.012, 89.496
647.318, 539.584
648.625, 419.666
649.931, 209.740
651.237, 667.018
652.543, 217.080
653.849, 557.136
655.155, 377.185
656.460, 167.228
657.765, 353.470
659.070, 6.500
660.375, 173.508
661.679, 66.801
662.984, 123.207
664.288, 177.413
665.592, 242.390
666.895, 97.363
668.199, 74.661
669.502, 154.979
670.805, 74.603
672.108, 215.826
673.411, 243.609
674.713, 69.176
676.016, 179.809
677.318, 110.425
678.620, 174.199
679.921, 104.923
681.223, 1.379
682.524, 19.536
683.825, 219.512
685.126, 169.094
686.427, 249.828
687.727, 74.572
689.028, 183.494
690.328, 362.419
691.628, 91.376
692.927, 550.339
694.227, 409.338
695.526, 278.339
696.825, 587.352
698.124, 236.390
699.423, 725.435
700.721, 544.547
702.020, 583.654
703.318, 842.773
704.616, 511.887
705.913, 860.997
707.211, 600.121
708.508, 569.241
709.805, 908.359
711.102, 667.473
712.399, 916.582
713.695, 835.686
714.992, 664.785
716.288, 923.894
717.584, 802.999
718.879, 892.106
720.175, 1041.209
721.470, 651.010
722.765, 1160.144
724.060, 749.271
725.355, 998.439
726.649, 887.606
727.944, 809.643
729.238, 1028.804
730.532, 847.959
731.825, 857.153
733.119, 966.342
734.412, 727.686
735.705, 896.864
736.998, 576.036
738.291, 775.204
739.584, 654.365
740.876, 484.326
742.168, 883.477
743.460, 472.623
744.752, 751.764
746.043, 660.898
747.334, 390.028
748.626, 749.153
749.916, 398.272
751.207, 597.387
752.498, 506.496
753.788, 266.062
755.078, 605.161
756.368, 294.255
757.658, 413.856
758.947, 412.941
760.237, 152.020
761.526, 571.095
762.815, 220.164
764.104, 179.229
765.392, 498.290
766.680, 147.347
767.969, 496.399
769.257, 385.448
770.544, 424.492
771.832, 413.533
773.119, 302.550
774.406, 561.583
775.693, 320.611
776.980, 419.639
778.267, 538.661
779.553, 147.681
780.839, 566.697
782.125, 405.710
783.411, 354.721
784.697, 553.728
785.982, 152.732
787.267, 611.734
788.552, 170.733
789.837, 149.731
791.122, 388.725
792.406, 87.638
793.690, 436.628
794.974, 325.498
796.258, 204.483
797.542, 433.467
798.825, 82.448
800.108, 391.428
801.391, 110.379
802.674, 169.354
803.957, 368.328
805.239, 92.700
806.522, 166.206
807.804, 215.111
809.085, 114.015
810.367, 352.918
811.649, 78.181
812.930, 240.663
814.211, 218.084
815.492, 33.073
816.772, 395.565
818.053, 5.509
819.333, 14.309
820.613, 206.722
821.893, 124.524
823.173, 258.094
824.452, 55.670
825.732, 94.236
827.011, 298.003
828.290, 133.264
829.568, 249.410
830.847, 24.850
832.125, 116.214
833.403, 139.595
834.681, 141.854
835.959, 284.714
837.236, 29.988
838.514, 61.427
839.791, 434.384
841.068, 127.040
842.345, 191.299
843.621, 139.876
844.898, 8.460
846.174, 266.949
847.450, 15.589
848.726, 124.240
850.001, 242.904
851.277, 101.575
852.552, 430.302
853.827, 219.035
855.102, 237.776
856.376, 366.574
857.651, 195.379
858.925, 664.190
860.199, 443.009
861.473, 451.835
862.746, 660.674
864.020, 369.521
865.293, 548.374
866.566, 367.236
867.839, 176.106
869.112, 484.983
870.384, 113.870
871.656, 372.765
872.928, 201.668
874.200, 29.421
875.472, 529.490
876.744, 68.410
878.015, 157.340
879.286, 356.276
880.557, 84.779
881.828, 374.146
883.098, 53.106
884.369, 142.073
885.639, 191.049
886.909, 69.940
888.178, 279.057
889.448, 98.064
890.717, 207.079
891.987, 426.104
893.256, 34.843
894.524, 284.210
895.793, 183.271
897.061, 112.350
898.330, 301.438
899.598, 40.541
900.865, 289.653
902.133, 198.773
903.401, 27.938
904.668, 357.111
905.935, 23.707
907.202, 135.499
908.468, 324.712
909.735, 26.064
911.001, 273.162
912.267, 262.398
913.533, 101.667
914.799, 610.945
916.064, 120.232
917.330, 309.569
918.595, 418.916
919.860, 198.271
921.124, 567.639
922.389, 147.016
923.653, 576.403
924.918, 695.803
926.182, 345.211
927.445, 894.633
928.709, 874.062
929.972, 883.536
931.236, 1153.020
932.499, 882.514
933.761, 1452.023
935.024, 1161.541
936.286, 1091.069
937.549, 1500.608
938.811, 950.158
940.073, 1459.717
941.334, 1409.287
942.596, 1208.869
943.857, 1608.461
945.118, 1238.064
946.379, 1567.680
947.640, 1627.309
948.900, 1536.947
950.161, 1736.597
951.421, 1546.259
952.681, 1595.932
953.940, 1965.615
955.200, 1545.311
956.459, 2115.016
957.719, 1937.523
958.978, 1997.252
960.236, 2436.992
961.495, 2236.742
962.753, 2456.506
964.012, 2830.076
965.270, 2439.863
966.527, 3159.670
967.785, 2916.197
969.043, 2586.029
970.300, 3185.201
971.557, 2534.800
972.814, 3014.779
974.071, 2766.541
975.327, 2676.572
976.583, 3266.666
977.840, 2856.771
979.095, 3296.955
980.351, 3519.365
981.607, 3549.601
982.862, 4169.067
984.117, 4493.249
985.372, 4743.639
986.627, 5369.266
987.882, 5399.692
989.136, 6050.146
990.390, 5948.334
991.644, 5938.876
992.898, 6002.777
994.152, 5463.349
995.405, 5303.932
996.659, 5224.193
997.912, 4444.806
999.165, 4745.816
1000.417, 4277.250
1001.670, 4497.900
1002.922, 4529.878
1004.174, 3780.552
1005.426, 3791.234
1006.678, 3163.148
1007.930, 2913.858
1009.181, 2974.580
1010.432, 2305.312
1011.683, 2526.073
1012.934, 2567.613
1014.185, 2238.396
1015.435, 2769.190
1016.685, 2170.371
1017.935, 2461.188
1019.185, 2682.012
1020.435, 2222.845
1021.684, 2783.689
1022.934, 2474.834
1024.183, 2315.699
1025.432, 2645.871
1026.680, 1857.170
1027.929, 2218.062
1029.177, 2048.963
1030.425, 1629.872
1031.673, 1987.918
1032.921, 1644.907
1034.169, 1405.845
1035.416, 1546.789
1036.663, 1083.759
1037.911, 1672.562
1039.157, 1343.919
1040.404, 1474.897
1041.650, 1695.885
1042.897, 1261.584
1044.143, 1531.781
1045.389, 1632.805
1046.634, 1505.864
1047.880, 2006.905
1049.125, 1759.147
1050.371, 1970.238
1051.615, 2341.336
1052.860, 2030.383
1054.105, 2541.494
1055.349, 2652.615
1056.593, 2497.429
1057.837, 3038.562
1059.081, 3009.788
1060.325, 3330.423
1061.568, 3811.578
1062.812, 3478.015
1064.055, 4199.189
1065.298, 4210.383
1066.540, 4070.511
1067.783, 4761.715
1069.025, 4373.033
1070.267, 4734.250
1071.509, 4645.469
1072.751, 4127.295
1073.993, 4598.529
1075.234, 4109.766
1076.475, 3991.224
1077.716, 4242.471
1078.957, 3511.412
1080.198, 3672.668
1081.438, 3523.925
1082.679, 2995.998
1083.919, 3357.266
1085.159, 2838.533
1086.398, 2769.811
1087.638, 2931.090
1088.877, 2142.374
1090.116, 2483.660
1091.355, 2054.948
1092.594, 2046.511
1093.833, 1987.804
1095.071, 1449.098
1096.309, 1511.200
1097.547, 1642.498
1098.785, 923.796
1100.023, 1315.190
1101.260, 986.492
1102.498, 948.108
1103.735, 1189.410
1104.972, 780.711
1106.208, 1122.262
1107.445, 863.596
1108.681, 584.929
1109.918, 986.263
1111.154, 527.597
1112.389, 679.411
1113.625, 640.771
1114.860, 202.131
1116.096, 603.826
1117.331, 475.198
1118.566, 356.566
1119.800, 617.939
1121.035, 169.312
1122.269, 440.719
1123.503, 662.136
1124.737, 223.549
1125.971, 615.099
1127.205, 426.512
1128.438, 97.919
1129.671, 569.392
1130.904, 10.825
1132.137, 202.393
1133.370, 513.846
1134.602, 44.709
1135.834, 406.856
1137.066, 288.292
1138.298, 39.719
1139.530, 552.358
1140.762, 146.251
1141.993, 225.129
1143.224, 426.553
1144.455, 152.114
1145.686, 519.357
1146.917, 0.603
1148.147, 8.205
1149.377, 473.575
1150.607, 175.241
1151.837, 275.895
1153.067, 217.029
1154.296, 171.837
1155.526, 520.115
1156.755, 101.199
1157.984, 172.282
1159.213, 317.969
1160.441, 0.981
1161.670, 290.063
1162.898, 331.076
1164.126, 12.084
1165.354, 483.064
1166.581, 114.042
1167.809, 145.005
1169.036, 345.958
1170.263, 36.865
1171.490, 257.767
1172.717, 288.642
1173.943, 19.515
1175.170, 460.351
1176.396, 161.182
1177.622, 151.957
1178.848, 472.724
1180.073, 76.504
1181.299, 434.233
1182.524, 255.073
1183.749, 74.250
1184.974, 356.386
1186.199, 37.025
1187.423, 157.656
1188.648, 348.390
1189.872, 50.921
1191.096, 149.661
1192.320, 163.490
1193.543, 5.946
1194.767, 344.595
1195.990, 13.711
1197.213, 264.226
1198.436, 334.730
1199.659, 94.421
1200.881, 346.025
1202.104, 306.994
1203.326, 32.583
1204.548, 437.813
1205.770, 138.862
1206.991, 179.234
1208.213, 479.599
1209.434, 47.746
1210.655, 332.568
1211.876, 325.406
1213.096, 104.314
1214.317, 475.914
1215.537, 146.877
1216.757, 427.081
1217.977, 527.269
1219.197, 58.414
1220.417, 528.576
1221.636, 368.721
1222.855, 128.805
1224.074, 658.875
1225.293, 80.480
1226.512, 309.532
1227.731, 629.531
1228.949, 49.730
1230.167, 409.703
1231.385, 359.666
1232.603, 250.942
1233.820, 540.884
1235.038, 320.814
1236.255, 290.736
1237.472, 800.646
1238.689, 130.545
1239.906, 550.389
1241.122, 630.102
1242.338, 59.801
1243.555, 719.476
1244.771, 289.130
1245.986, 178.777
1247.202, 728.390
1248.417, 127.946
1249.633, 567.438
1250.848, 576.897
1252.063, 146.497
1253.277, 675.896
1254.492, 235.272
1255.706, 304.799
1256.920, 824.121
1258.134, 103.415
1259.348, 472.958
1260.562, 692.164
1261.775, 131.340
1262.988, 420.484
1264.201, 509.603
1265.414, 318.694
1266.627, 827.759
1267.839, 206.799
1269.052, 499.042
1270.264, 798.029
1271.476, 186.989
1272.688, 767.387
1273.899, 606.291
1275.111, 215.176
1276.322, 994.047
1277.533, 192.504
1278.744, 421.049
1279.955, 879.356
1281.165, 194.944
1282.376, 822.995
1283.586, 570.867
1284.796, 58.518
1286.006, 760.372
1287.215, 241.384
1288.425, 192.468
1289.634, 672.143
1290.843, 151.205
1292.052, 621.969
1293.261, 590.797
1294.469, 81.418
1295.678, 851.154
1296.886, 461.697
1298.094, 271.811
1299.302, 742.318
1300.509, 62.490
1301.717, 502.969
1302.924, 662.961
1304.131, 26.592
1305.338, 606.777
1306.545, 547.131
1307.752, 240.318
1308.958, 660.109
1310.164, 404.639
1311.370, 524.787
1312.576, 782.387
1313.782, 380.916
1314.987, 680.816
1316.193, 610.631
1317.398, 405.066
1318.603, 834.662
1319.807, 437.377
1321.012, 456.920
1322.216, 854.363
1323.421, 243.547
1324.625, 372.021
1325.829, 641.277
1327.032, 160.197
1328.236, 518.381
1329.439, 346.232
1330.642, 195.211
1331.845, 694.141
1333.048, 153.037
1334.251, 161.484
1335.453, 550.307
1336.656, 22.160
1337.858, 446.432
1339.060, 464.635
1340.261, 106.691
1341.463, 581.537
1342.664, 190.139
1343.866, 97.893
1345.067, 526.418
1346.267, 74.328
1347.468, 422.787
1348.669, 451.154
1349.869, 59.508
1351.069, 577.559
1352.269, 225.758
1353.469, 6.262
1354.668, 651.951
1355.868, 10.035
1357.067, 235.779
1358.266, 414.070
1359.465, 52.271
1360.664, 390.297
1361.862, 547.648
1363.061, 36.189
1364.259, 584.648
1365.457, 331.045
1366.655, 228.609
1367.852, 686.695
1369.050, 64.830
1370.247, 362.996
1371.444, 741.145
1372.641, 129.445
1373.838, 437.789
1375.035, 456.229
1376.231, 14.893
1377.427, 753.533
1378.623, 271.959
1379.819, 300.828
1381.015, 759.342
1382.211, 247.932
1383.406, 526.402
1384.601, 636.871
1385.796, 334.643
1386.991, 681.131
1388.185, 576.869
1389.380, 151.941
1390.574, 859.322
1391.768, 307.605
1392.962, 374.309
1394.156, 897.721
1395.350, 104.031
1396.543, 615.803
1397.736, 741.865
1398.929, 95.102
1400.122, 670.863
1401.315, 365.252
1402.507, 63.031
1403.700, 647.432
1404.892, 331.350
1406.084, 415.006
1407.276, 630.012
1408.467, 134.768
1409.659, 409.182
1410.850, 484.342
1412.041, 31.557
1413.232, 634.029
1414.423, 387.818
1415.614, 0.219
1416.804, 736.359
1417.994, 252.865
1419.184, 269.691
1420.374, 727.539
1421.564, 94.641
1422.753, 459.234
1423.943, 403.982
1425.132, 8.125
1426.321, 596.904
1427.510, 0.000
##END=



