##NAMES=Thomsonite-Ca
##RRUFFID=R050091
##IDEAL CHEMISTRY=NaCa_2_(Al_5_Si_5_)O_20_&#183;6H_2_O
##LOCALITY=Amudikha River, near Mirny, Yakutia, Siberia, Russia
##OWNER=RRUFF
##SOURCE=Rock Currier
##DESCRIPTION=Radial groups of colorless bladed crystals
##STATUS=The identification of this mineral has been confirmed by X-ray diffraction and chemical analysis
##URL=rruff.info/R050091
##MEASURED CHEMISTRY=(Na_0.94_[box]_0.06_)_Σ=1_(Ca_1.71_Na_0.29_)_Σ=2_(Si_5.35_Al_4.65_)O_20_·7.09H_2_O
##PIN_ID=M00227
##ORIENTATION=Laser parallel to c* (0 0 1). Fiducial mark perpendicular to laser is parallel to a [1 0 0]
73.144, 0.000
74.540, 47.334
75.937, 2.570
77.333, 49.379
78.729, 26.471
80.125, 55.556
81.521, 8.921
82.916, 153.738
84.311, 158.534
85.706, 265.716
87.101, 242.357
88.496, 305.158
89.890, 480.082
91.284, 569.177
92.678, 738.604
94.071, 822.646
95.465, 1025.706
96.858, 1207.282
98.251, 1332.951
99.644, 1484.025
101.036, 1654.961
102.428, 1720.501
103.820, 1793.806
105.212, 1903.453
106.604, 2073.957
107.995, 2137.442
109.387, 2492.267
110.777, 2743.368
112.168, 3003.583
113.559, 3037.773
114.949, 2996.860
116.339, 2980.781
117.729, 2997.452
119.119, 2986.785
120.508, 2838.715
121.897, 2911.181
123.286, 3114.154
124.675, 3021.424
126.063, 3153.985
127.452, 3205.136
128.840, 3189.328
130.228, 3038.219
131.615, 2776.111
133.003, 2538.703
134.390, 2244.846
135.777, 2100.574
137.164, 1918.923
138.550, 2054.921
139.937, 1981.596
141.323, 2131.970
142.709, 2197.065
144.094, 2405.898
145.480, 2610.485
146.865, 2748.839
148.250, 2993.972
149.635, 3242.739
151.019, 3495.627
152.403, 3831.169
153.788, 4193.627
155.171, 4555.390
156.555, 5056.430
157.939, 5494.479
159.322, 6112.292
160.705, 6730.429
162.088, 7537.203
163.470, 8278.839
164.853, 9242.368
166.235, 10511.816
167.617, 11859.193
168.998, 13528.520
170.380, 15340.804
171.761, 17592.057
173.142, 19986.717
174.523, 23224.307
175.904, 25721.994
177.284, 27885.182
178.664, 29373.125
180.044, 29038.383
181.424, 28272.441
182.803, 25704.393
184.183, 22636.539
185.562, 19444.939
186.940, 16834.660
188.319, 14127.646
189.698, 12222.646
191.076, 10471.265
192.454, 9363.967
193.831, 8345.742
195.209, 7581.588
196.586, 6886.502
197.963, 6093.482
199.340, 5448.523
200.717, 5001.625
202.093, 4638.781
203.470, 4323.992
204.846, 4212.254
206.221, 4247.562
207.597, 4594.917
208.972, 4954.308
210.347, 5283.725
211.722, 6088.157
213.097, 7144.593
214.472, 8135.026
215.846, 9506.453
217.220, 10671.877
218.594, 11699.298
219.967, 12529.720
221.341, 12280.139
222.714, 11967.556
224.087, 10793.970
225.460, 9705.387
226.832, 8338.801
228.204, 7052.218
229.577, 5987.634
230.948, 4965.050
232.320, 4083.165
233.692, 3228.731
235.063, 2640.471
236.434, 2049.029
237.805, 1658.740
239.175, 1339.621
240.545, 1062.979
241.916, 878.660
243.286, 760.786
244.655, 695.347
246.025, 734.852
247.394, 816.083
248.763, 1038.419
250.132, 1241.908
251.501, 1724.437
252.869, 2200.314
254.237, 2755.501
255.605, 3288.964
256.973, 3708.672
258.340, 4038.601
259.708, 3793.730
261.075, 3270.038
262.442, 2507.510
263.808, 1898.128
265.175, 1297.882
266.541, 939.755
267.907, 625.735
269.273, 341.808
270.639, 237.961
272.004, 58.188
273.369, 52.475
274.734, 63.185
276.099, 101.822
277.463, 184.453
278.828, 92.101
280.192, 167.741
281.556, 166.421
282.919, 194.119
284.283, 180.854
285.646, 141.626
287.009, 292.430
288.372, 310.304
289.734, 182.260
291.097, 315.278
292.459, 367.403
293.821, 277.662
295.183, 336.043
296.544, 218.569
297.905, 263.208
299.266, 186.971
300.627, 62.835
301.988, 86.772
303.348, 8.216
304.709, 4.849
306.069, 135.033
307.428, 169.885
308.788, 269.708
310.147, 294.506
311.507, 373.278
312.865, 451.026
314.224, 571.751
315.583, 643.454
316.941, 891.135
318.299, 990.795
319.657, 1084.434
321.015, 1352.049
322.372, 1404.640
323.729, 1630.209
325.086, 1743.756
326.443, 1858.281
327.800, 1864.785
329.156, 2166.270
330.512, 2205.735
331.868, 2461.182
333.224, 2779.608
334.579, 3212.019
335.935, 3525.411
337.290, 4065.780
338.645, 4332.079
339.999, 4682.209
341.354, 4798.178
342.708, 4922.950
344.062, 4540.544
345.416, 4320.855
346.769, 3989.926
348.123, 3695.705
349.476, 3306.232
350.829, 3202.547
352.182, 3161.757
353.534, 3150.916
354.887, 3230.084
356.239, 3350.263
357.591, 3643.454
358.942, 3895.655
360.294, 4154.867
361.645, 4208.090
362.996, 4080.323
364.347, 3886.567
365.698, 3380.820
367.048, 2967.084
368.398, 2402.359
369.748, 2021.645
371.098, 1878.939
372.448, 1718.245
373.797, 1674.561
375.146, 1599.886
376.495, 1605.223
377.844, 1696.570
379.192, 1794.928
380.540, 1391.297
381.889, 980.678
383.236, 743.069
384.584, 528.472
385.932, 347.886
387.279, 245.312
388.626, 118.750
389.973, 123.196
391.319, 25.349
392.666, 13.914
394.012, 27.494
395.358, 65.098
396.704, 63.765
398.049, 64.520
399.394, 40.382
400.740, 54.336
402.084, 136.320
403.429, 85.381
404.774, 59.498
406.118, 47.336
407.462, 25.829
408.806, 85.967
410.150, 193.768
411.493, 325.583
412.836, 435.410
414.179, 600.250
415.522, 703.099
416.865, 1094.957
418.207, 1237.821
419.549, 1399.692
420.891, 1852.568
422.233, 2258.449
423.575, 2726.334
424.916, 3235.875
426.257, 3767.113
427.598, 4379.005
428.939, 5039.901
430.279, 5800.798
431.619, 6185.695
432.959, 6806.594
434.299, 7668.231
435.639, 8871.681
436.978, 9558.647
438.318, 10768.401
439.657, 11749.476
440.996, 12772.539
442.334, 13033.329
443.673, 12959.062
445.011, 12546.050
446.349, 11785.690
447.687, 10878.504
449.024, 9809.367
450.361, 8850.068
451.699, 7847.159
453.036, 7052.352
454.372, 6375.388
455.709, 5991.585
457.045, 5325.271
458.381, 5306.764
459.717, 5185.561
461.053, 5503.748
462.388, 5845.080
463.724, 6620.000
465.059, 7697.100
466.394, 8975.447
467.728, 10706.566
469.063, 12852.713
470.397, 14698.904
471.731, 16326.127
473.065, 17612.387
474.398, 17234.686
475.732, 16324.014
477.065, 14066.365
478.398, 12316.771
479.731, 10552.220
481.063, 9056.710
482.396, 7979.237
483.728, 7225.793
485.060, 6768.390
486.391, 6291.022
487.723, 5876.709
489.054, 5633.426
490.385, 5518.188
491.716, 5452.010
493.047, 5222.877
494.377, 5223.807
495.708, 5061.767
497.038, 4820.806
498.368, 4548.896
499.697, 4166.048
501.027, 3836.260
502.356, 3587.369
503.685, 3363.839
505.014, 3191.320
506.342, 3097.831
507.671, 3132.391
508.999, 3141.979
510.327, 3401.641
511.655, 3511.353
512.982, 3799.115
514.310, 4264.929
515.637, 4667.778
516.964, 5413.686
518.291, 6061.650
519.617, 7250.654
520.944, 8479.711
522.270, 9735.799
523.596, 12008.927
524.921, 14336.109
526.247, 17364.342
527.572, 20975.615
528.897, 25271.936
530.222, 30984.289
531.547, 36570.684
532.871, 42281.125
534.196, 46518.598
535.520, 49734.102
536.844, 50616.922
538.167, 50937.223
539.491, 48097.828
540.814, 44350.469
542.137, 39175.156
543.460, 34283.871
544.783, 29685.615
546.105, 25343.402
547.427, 22612.223
548.749, 19118.398
550.071, 16261.723
551.393, 14329.232
552.714, 12385.481
554.035, 10601.999
555.356, 9208.389
556.677, 8272.926
557.998, 7140.493
559.318, 6462.553
560.638, 5769.877
561.958, 5069.481
563.278, 4528.158
564.597, 4254.439
565.917, 3832.522
567.236, 3475.960
568.555, 3191.308
569.874, 2815.751
571.192, 2565.234
572.511, 2442.758
573.829, 2195.321
575.147, 1824.923
576.464, 1834.564
577.782, 1565.246
579.099, 1319.967
580.416, 1234.728
581.733, 1126.527
583.050, 1073.367
584.366, 896.245
585.683, 898.163
586.999, 766.120
588.315, 633.117
589.630, 717.153
590.946, 756.229
592.261, 761.343
593.576, 749.500
594.891, 836.700
596.206, 964.077
597.520, 1120.875
598.834, 1363.758
600.148, 1620.278
601.462, 1928.892
602.776, 2341.600
604.089, 2514.410
605.402, 2812.319
606.715, 2986.318
608.028, 3024.444
609.341, 2702.702
610.653, 2286.062
611.965, 2048.556
613.277, 1773.273
614.589, 1414.041
615.901, 1049.354
617.212, 964.372
618.523, 817.513
619.834, 756.758
621.145, 566.076
622.456, 558.475
623.766, 355.961
625.076, 455.883
626.386, 366.881
627.696, 371.705
629.006, 213.227
630.315, 329.196
631.624, 202.432
632.933, 86.491
634.242, 256.750
635.551, 157.997
636.859, 186.921
638.167, 179.811
639.475, 226.165
640.783, 147.734
642.090, 206.523
643.398, 131.590
644.705, 258.083
646.012, 234.992
647.318, 160.672
648.625, 237.340
649.931, 174.409
651.237, 94.664
652.543, 68.496
653.849, 126.422
655.155, 113.685
656.460, 79.827
657.765, 129.398
659.070, 11.973
660.375, 53.986
661.679, 216.399
662.984, 5.662
664.288, 2.404
665.592, 94.318
666.895, 58.762
668.199, 73.824
669.502, 226.593
670.805, 105.700
672.108, 237.615
673.411, 238.341
674.713, 268.971
676.016, 351.423
677.318, 408.925
678.620, 456.544
679.921, 462.508
681.223, 515.246
682.524, 567.517
683.825, 534.658
685.126, 663.250
686.427, 744.305
687.727, 749.311
689.028, 834.165
690.328, 825.885
691.628, 969.690
692.927, 1023.518
694.227, 1139.271
695.526, 957.581
696.825, 1239.356
698.124, 1177.406
699.423, 1345.947
700.721, 1195.749
702.020, 1437.579
703.318, 1394.399
704.616, 1266.227
705.913, 1252.067
707.211, 1296.920
708.508, 1499.812
709.805, 1431.738
711.102, 1375.703
712.399, 1409.714
713.695, 1325.773
714.992, 1455.878
716.288, 1376.022
717.584, 1474.209
718.879, 1316.458
720.175, 1324.757
721.470, 1573.098
722.765, 1400.972
724.060, 1403.247
725.355, 1313.246
726.649, 1257.650
727.944, 1243.057
729.238, 1313.466
730.532, 1081.878
731.825, 1162.292
733.119, 1105.708
734.412, 931.126
735.705, 911.544
736.998, 873.964
738.291, 818.384
739.584, 751.804
740.876, 788.224
742.168, 686.644
743.460, 545.062
744.752, 573.480
746.043, 579.896
747.334, 491.311
748.626, 454.724
749.916, 406.134
751.207, 342.541
752.498, 310.946
753.788, 308.346
755.078, 303.743
756.368, 295.134
757.658, 215.521
758.947, 207.901
760.237, 219.275
761.526, 181.642
762.815, 193.001
764.104, 94.353
765.392, 81.694
766.680, 87.026
767.969, 1.652
769.257, 121.657
770.544, 34.047
771.832, 13.221
773.119, 31.474
774.406, 33.714
775.693, 51.938
776.980, 21.456
778.267, 12.343
779.553, 38.479
780.839, 53.344
782.125, 64.258
783.411, 57.230
784.697, 46.256
785.982, 48.333
787.267, 27.463
788.552, 3.366
789.837, 121.833
791.122, 50.923
792.406, 64.292
793.690, 21.895
794.974, 23.357
796.258, 40.865
797.542, 27.431
798.825, 96.046
800.108, 11.250
801.391, 63.485
802.674, 109.293
803.957, 50.199
805.239, 115.171
806.522, 4.754
807.804, 170.361
809.085, 62.609
810.367, 106.935
811.649, 96.361
812.930, 110.884
814.211, 116.511
815.492, 185.248
816.772, 54.128
818.053, 21.894
819.333, 62.136
820.613, 117.215
821.893, 14.406
823.173, 8.654
824.452, 12.959
825.732, 76.677
827.011, 36.716
828.290, 34.181
829.568, 49.282
830.847, 14.289
832.125, 132.078
833.403, 90.419
834.681, 31.268
835.959, 7.028
837.236, 34.152
838.514, 56.291
839.791, 39.395
841.068, 42.459
842.345, 49.484
843.621, 157.481
844.898, 139.419
846.174, 138.422
847.450, 199.333
848.726, 91.236
850.001, 164.107
851.277, 166.953
852.552, 164.773
853.827, 202.564
855.102, 167.330
856.376, 207.068
857.651, 251.779
858.925, 356.478
860.199, 234.149
861.473, 241.792
862.746, 300.411
864.020, 220.004
865.293, 207.568
866.566, 323.115
867.839, 214.637
869.112, 268.129
870.384, 408.593
871.656, 245.026
872.928, 248.431
874.200, 274.805
875.472, 292.151
876.744, 307.472
878.015, 324.766
879.286, 333.030
880.557, 427.265
881.828, 344.470
883.098, 323.652
884.369, 349.804
885.639, 428.927
886.909, 508.018
888.178, 419.078
889.448, 444.107
890.717, 572.109
891.987, 483.081
893.256, 531.021
894.524, 526.948
895.793, 570.846
897.061, 515.711
898.330, 535.546
899.598, 578.351
900.865, 612.124
902.133, 579.873
903.401, 499.591
904.668, 666.289
905.935, 834.955
907.202, 787.590
908.468, 936.194
909.735, 1062.767
911.001, 1164.309
912.267, 1232.819
913.533, 1344.298
914.799, 1555.746
916.064, 1500.162
917.330, 1589.548
918.595, 1625.901
919.860, 1517.225
921.124, 1745.439
922.389, 1572.699
923.653, 1703.538
924.918, 1773.752
926.182, 1937.937
927.445, 1972.090
928.709, 2096.213
929.972, 2250.309
931.236, 2374.346
932.499, 2631.977
933.761, 2799.539
935.024, 2780.282
936.286, 2865.334
937.549, 3194.943
938.811, 3134.292
940.073, 3352.832
941.334, 3410.175
942.596, 3466.539
943.857, 3661.229
945.118, 3740.960
946.379, 3675.233
947.640, 3892.295
948.900, 4130.141
950.161, 3951.714
951.421, 4005.866
952.681, 4076.607
953.940, 4260.582
955.200, 4124.573
956.459, 4172.167
957.719, 4347.579
958.978, 4348.418
960.236, 4350.167
961.495, 4504.584
962.753, 4635.127
964.012, 4628.244
965.270, 4657.366
966.527, 4949.054
967.785, 4856.349
969.043, 4994.796
970.300, 5013.766
971.557, 4964.567
972.814, 5013.839
974.071, 4968.498
975.327, 5215.449
976.583, 5156.068
977.840, 5415.879
979.095, 5531.880
980.351, 5667.978
981.607, 5932.256
982.862, 6021.516
984.117, 6047.647
985.372, 6601.443
986.627, 6281.466
987.882, 6583.958
989.136, 6718.581
990.390, 6541.756
991.644, 6618.467
992.898, 6400.242
994.152, 6213.173
995.405, 6009.232
996.659, 5598.396
997.912, 5462.185
999.165, 5028.248
1000.417, 4685.856
1001.670, 4427.201
1002.922, 4352.403
1004.174, 3868.376
1005.426, 3722.520
1006.678, 3558.621
1007.930, 3302.574
1009.181, 3203.887
1010.432, 3001.815
1011.683, 3031.745
1012.934, 2814.308
1014.185, 2845.576
1015.435, 2598.553
1016.685, 2518.872
1017.935, 2254.441
1019.185, 2188.312
1020.435, 1979.169
1021.684, 1735.016
1022.934, 1620.952
1024.183, 1657.777
1025.432, 1278.042
1026.680, 1245.870
1027.929, 993.656
1029.177, 945.610
1030.425, 947.725
1031.673, 914.714
1032.921, 818.294
1034.169, 766.210
1035.416, 755.225
1036.663, 715.191
1037.911, 702.689
1039.157, 718.640
1040.404, 745.989
1041.650, 792.021
1042.897, 966.767
1044.143, 753.570
1045.389, 891.558
1046.634, 1006.291
1047.880, 945.960
1049.125, 972.931
1050.371, 1080.749
1051.615, 1196.930
1052.860, 1053.627
1054.105, 1227.865
1055.349, 1191.564
1056.593, 1239.229
1057.837, 1345.835
1059.081, 1562.706
1060.325, 1556.291
1061.568, 1700.968
1062.812, 1863.578
1064.055, 1993.367
1065.298, 1956.951
1066.540, 2052.669
1067.783, 2140.203
1069.025, 2205.801
1070.267, 2429.525
1071.509, 2401.697
1072.751, 2224.174
1073.993, 2426.112
1075.234, 2318.781
1076.475, 2313.358
1077.716, 2323.135
1078.957, 2193.350
1080.198, 2051.947
1081.438, 2202.394
1082.679, 1873.150
1083.919, 1989.962
1085.159, 1753.507
1086.398, 1808.987
1087.638, 1626.671
1088.877, 1650.914
1090.116, 1469.472
1091.355, 1352.389
1092.594, 1294.083
1093.833, 1143.757
1095.071, 1082.632
1096.309, 1000.275
1097.547, 963.839
1098.785, 907.493
1100.023, 841.204
1101.260, 802.178
1102.498, 696.783
1103.735, 597.676
1104.972, 665.623
1106.208, 521.291
1107.445, 518.309
1108.681, 403.348
1109.918, 506.367
1111.154, 365.351
1112.389, 424.625
1113.625, 313.723
1114.860, 250.405
1116.096, 294.758
1117.331, 273.983
1118.566, 262.029
1119.800, 234.228
1121.035, 257.354
1122.269, 225.901
1123.503, 243.082
1124.737, 198.325
1125.971, 192.704
1127.205, 135.054
1128.438, 92.272
1129.671, 125.794
1130.904, 33.230
1132.137, 63.671
1133.370, 99.621
1134.602, 68.180
1135.834, 60.495
1137.066, 115.867
1138.298, 77.283
1139.530, 57.792
1140.762, 245.489
1141.993, 44.209
1143.224, 114.974
1144.455, 46.651
1145.686, 21.326
1146.917, 42.185
1148.147, 17.437
1149.377, 4.775
1150.607, 6.543
1151.837, 69.038
1153.067, 16.183
1154.296, 19.576
1155.526, 143.049
1156.755, 61.947
1157.984, 64.948
1159.213, 71.085
1160.441, 12.708
1161.670, 3.713
1162.898, 47.198
1164.126, 43.615
1165.354, 12.538
1166.581, 71.676
1167.809, 79.473
1169.036, 98.916
1170.263, 44.911
1171.490, 98.899
1172.717, 5.364
1173.943, 18.272
1175.170, 17.422
1176.396, 31.385
1177.622, 0.481
1178.848, 19.572
1180.073, 30.100
1181.299, 35.867
1182.524, 11.270
1183.749, 73.862
1184.974, 163.473
1186.199, 30.715
1187.423, 5.345
1188.648, 7.547
1189.872, 74.305
1191.096, 62.063
1192.320, 12.663
1193.543, 71.212
1194.767, 84.851
1195.990, 10.495
1197.213, 50.984
1198.436, 18.560
1199.659, 76.182
1200.881, 34.548
1202.104, 75.064
1203.326, 81.418
1204.548, 104.807
1205.770, 28.107
1206.991, 121.394
1208.213, 71.076
1209.434, 85.339
1210.655, 40.976
1211.876, 88.214
1213.096, 54.440
1214.317, 155.621
1215.537, 80.823
1216.757, 49.017
1217.977, 100.306
1219.197, 47.526
1220.417, 8.033
1221.636, 58.241
1222.855, 78.339
1224.074, 29.424
1225.293, 0.315
1226.512, 68.736
1227.731, 139.774
1228.949, 30.801
1230.167, 21.812
1231.385, 86.809
1232.603, 106.795
1233.820, 58.768
1235.038, 14.272
1236.255, 92.779
1237.472, 16.756
1238.689, 67.728
1239.906, 75.622
1241.122, 31.500
1242.338, 88.367
1243.555, 146.223
1244.771, 66.069
1245.986, 103.952
1247.202, 26.774
1248.417, 159.583
1249.633, 47.375
1250.848, 42.148
1252.063, 127.908
1253.277, 37.656
1254.492, 33.389
1255.706, 50.108
1256.920, 63.812
1258.134, 18.489
1259.348, 1.870
1260.562, 6.001
1261.775, 22.345
1262.988, 51.903
1264.201, 45.446
1265.414, 147.971
1266.627, 86.542
1267.839, 17.017
1269.052, 84.473
1270.264, 38.907
1271.476, 77.325
1272.688, 48.707
1273.899, 84.060
1275.111, 28.394
1276.322, 16.292
1277.533, 16.028
1278.744, 8.152
1279.955, 24.455
1281.165, 68.654
1282.376, 1.889
1283.586, 47.030
1284.796, 34.153
1286.006, 34.781
1287.215, 73.248
1288.425, 95.252
1289.634, 47.242
1290.843, 51.000
1292.052, 22.086
1293.261, 61.940
1294.469, 23.331
1295.678, 42.177
1296.886, 20.795
1298.094, 78.595
1299.302, 30.199
1300.509, 20.795
1301.717, 105.527
1302.924, 129.864
1304.131, 31.445
1305.338, 41.213
1306.545, 87.206
1307.752, 12.537
1308.958, 38.979
1310.164, 52.124
1311.370, 27.985
1312.576, 112.514
1313.782, 46.024
1314.987, 13.514
1316.193, 59.884
1317.398, 144.331
1318.603, 35.310
1319.807, 81.691
1321.012, 1.085
1322.216, 23.279
1323.421, 31.281
1324.625, 7.622
1325.829, 35.854
1327.032, 6.962
1328.236, 150.942
1329.439, 108.163
1330.642, 71.625
1331.845, 32.330
1333.048, 35.854
1334.251, 59.668
1335.453, 86.799
1336.656, 49.725
1337.858, 88.499
1339.060, 64.498
1340.261, 60.536
1341.463, 31.755
1342.664, 99.081
1343.866, 30.527
1345.067, 13.566
1346.267, 40.771
1347.468, 99.621
1348.669, 88.481
1349.869, 140.375
1351.069, 175.178
1352.269, 23.044
1353.469, 135.793
1354.668, 25.586
1355.868, 153.177
1357.067, 173.949
1358.266, 0.567
1359.465, 128.347
1360.664, 168.047
1361.862, 80.596
1363.061, 163.341
1364.259, 17.622
1365.457, 79.906
1366.655, 200.441
1367.852, 193.042
1369.050, 57.428
1370.247, 165.355
1371.444, 113.887
1372.641, 143.492
1373.838, 128.767
1375.035, 134.974
1376.231, 133.540
1377.427, 151.440
1378.623, 128.794
1379.819, 71.434
1381.015, 85.770
1382.211, 82.444
1383.406, 98.719
1384.601, 111.852
1385.796, 136.183
1386.991, 129.265
1388.185, 200.444
1389.380, 89.566
1390.574, 133.274
1391.768, 167.127
1392.962, 197.582
1394.156, 205.145
1395.350, 207.561
1396.543, 186.183
1397.736, 200.630
1398.929, 189.067
1400.122, 168.809
1401.315, 176.672
1402.507, 184.782
1403.700, 180.905
1404.892, 159.933
1406.084, 219.979
1407.276, 137.395
1408.467, 254.450
1409.659, 74.319
1410.850, 255.168
1412.041, 160.978
1413.232, 95.401
1414.423, 180.954
1415.614, 111.908
1416.804, 200.571
1417.994, 189.266
1419.184, 156.178
1420.374, 105.412
1421.564, 245.521
1422.753, 139.225
1423.943, 221.390
1425.132, 60.778
1426.321, 123.447
1427.510, 156.694
1428.698, 247.974
1429.887, 209.240
1431.075, 182.802
1432.263, 185.482
1433.451, 86.451
1434.639, 281.819
1435.827, 246.332
1437.014, 188.106
1438.201, 312.026
1439.388, 323.236
1440.575, 205.438
1441.762, 228.588
1442.949, 294.342
1444.135, 297.864
1445.321, 216.647
1446.507, 223.342
1447.693, 271.660
1448.879, 297.302
1450.064, 309.914
1451.250, 394.488
1452.435, 222.808
1453.620, 411.084
1454.805, 342.562
1455.989, 270.987
1457.174, 417.246
1458.358, 296.543
1459.542, 394.817
1460.726, 378.038
1461.910, 254.201
1463.093, 262.332
1464.277, 224.526
1465.460, 225.746
1466.643, 227.963
1467.826, 187.015
1469.009, 194.156
1470.191, 179.453
1471.373, 182.738
1472.556, 247.000
1473.738, 256.232
1474.919, 57.320
1476.101, 251.615
1477.283, 65.100
1478.464, 77.576
1479.645, 150.169
1480.826, 275.846
1482.007, 156.516
1483.187, 287.222
1484.368, 117.949
1485.548, 174.703
1486.728, 158.467
1487.908, 192.233
1489.088, 146.021
1490.268, 306.825
1491.447, 141.660
1492.626, 0.470
1493.805, 131.449
1494.984, 165.420
1496.163, 60.449
1497.341, 66.544
1498.520, 113.708
1499.698, 62.951
1500.876, 43.282
1502.054, 13.313
1503.232, 52.161
1504.409, 85.712
1505.586, 6.346
1506.763, 71.077
1507.940, 152.922
1509.117, 76.986
1510.294, 79.932
1511.470, 89.998
1512.647, 123.191
1513.823, 95.357
1514.999, 79.893
1516.174, 147.544
1517.350, 1.396
1518.526, 179.165
1519.701, 26.641
1520.876, 80.146
1522.051, 0.155
1523.226, 0.000
##END=



