##NAMES=Thomsonite-Ca
##RRUFFID=R050103
##IDEAL CHEMISTRY=NaCa_2_(Al_5_Si_5_)O_20_&#183;6H_2_O
##LOCALITY=Seeberg, Bohemia, Czech Republic
##OWNER=RRUFF
##SOURCE=Rock Currier
##DESCRIPTION=Colorless prismatic crystals
##STATUS=The identification of this mineral has been confirmed by X-ray diffraction and chemical analysis
##URL=rruff.info/R050103
##MEASURED CHEMISTRY=Na_1.00_(Ca_0.92_Sr_0.08_)_2_(Al_5.00_Si_5.00_)O_20_Â·6H_2_O
##PIN_ID=L00148
##ORIENTATION=Laser parallel to -b* (0 -1 0). Fiducial mark perpendicular to laser is parallel to -c [0 0 -1]
120.508, 0.000
121.897, 229.253
123.286, 184.000
124.675, 472.969
126.063, 694.027
127.452, 839.068
128.840, 1158.192
130.228, 876.282
131.615, 997.895
133.003, 578.948
134.390, 384.206
135.777, 121.246
137.164, 0.327
138.550, 46.130
139.937, 99.666
141.323, 53.398
142.709, 104.862
144.094, 110.035
145.480, 458.507
146.865, 411.793
148.250, 612.532
149.635, 736.461
151.019, 1039.396
152.403, 1105.411
153.788, 1349.283
155.171, 1664.825
156.555, 1874.764
157.939, 2370.833
159.322, 2517.790
160.705, 2840.229
162.088, 3297.375
163.470, 3893.431
164.853, 4462.981
166.235, 5234.308
167.617, 6145.137
168.998, 7144.702
170.380, 8112.863
171.761, 9439.643
173.142, 10895.162
174.523, 13199.513
175.904, 15152.793
177.284, 17325.082
178.664, 18746.447
180.044, 20196.963
181.424, 20106.684
182.803, 18588.746
184.183, 16790.611
185.562, 14028.890
186.940, 11865.739
188.319, 9592.019
189.698, 8077.775
191.076, 6763.113
192.454, 6038.177
193.831, 5472.899
195.209, 4758.055
196.586, 4427.408
197.963, 3817.430
199.340, 3641.974
200.717, 3130.712
202.093, 2763.841
203.470, 2599.247
204.846, 2405.812
206.221, 2401.903
207.597, 2406.821
208.972, 2775.261
210.347, 3153.171
211.722, 3423.632
213.097, 4118.495
214.472, 4767.382
215.846, 5787.261
217.220, 6594.781
218.594, 7419.198
219.967, 8542.339
221.341, 8675.554
222.714, 8808.843
224.087, 7982.192
225.460, 7215.601
226.832, 6009.056
228.204, 5092.551
229.577, 4296.080
230.948, 3418.636
232.320, 3026.214
233.692, 2366.811
235.063, 1983.420
236.434, 1581.041
237.805, 1324.668
239.175, 1107.301
240.545, 733.937
241.916, 821.573
243.286, 496.202
244.655, 540.814
246.025, 477.399
247.394, 483.941
248.763, 601.432
250.132, 605.867
251.501, 911.246
252.869, 1074.571
254.237, 1441.845
255.605, 2001.664
256.973, 2397.438
258.340, 3059.618
259.708, 3115.254
261.075, 3107.422
262.442, 2484.038
263.808, 1973.972
265.175, 1480.110
266.541, 1094.923
267.907, 848.015
269.273, 492.543
270.639, 402.040
272.004, 238.507
273.369, 97.943
274.734, 104.350
276.099, 44.729
277.463, 62.077
278.828, 41.618
280.192, 93.401
281.556, 18.298
282.919, 136.390
284.283, 20.298
285.646, 198.557
287.009, 91.341
288.372, 163.181
289.734, 149.147
291.097, 186.329
292.459, 280.676
293.821, 150.228
295.183, 275.326
296.544, 175.521
297.905, 143.800
299.266, 82.164
300.627, 30.395
301.988, 132.411
303.348, 98.990
304.709, 11.812
306.069, 155.457
307.428, 224.666
308.788, 92.809
310.147, 246.873
311.507, 165.863
312.865, 305.773
314.224, 423.606
315.583, 388.364
316.941, 692.045
318.299, 714.654
319.657, 847.189
321.015, 948.655
322.372, 1130.051
323.729, 1172.377
325.086, 1225.625
326.443, 1452.785
327.800, 1382.843
329.156, 1551.785
330.512, 1571.603
331.868, 1653.298
333.224, 1932.876
334.579, 1844.344
335.935, 2172.708
337.290, 2341.972
338.645, 2748.143
339.999, 2959.225
341.354, 3080.222
342.708, 3353.139
344.062, 3222.979
345.416, 3192.746
346.769, 2828.436
348.123, 2709.054
349.476, 2488.619
350.829, 2238.125
352.182, 2343.578
353.534, 2082.984
354.887, 2288.338
356.239, 2216.650
357.591, 2290.914
358.942, 2528.123
360.294, 2547.262
361.645, 2840.283
362.996, 3024.165
364.347, 3050.797
365.698, 2918.179
367.048, 2541.313
368.398, 2216.168
369.748, 1738.713
371.098, 1502.910
372.448, 1299.764
373.797, 1280.392
375.146, 1316.861
376.495, 1275.252
377.844, 1389.619
379.192, 1266.957
380.540, 1187.277
381.889, 968.593
383.236, 683.911
384.584, 756.229
385.932, 400.549
387.279, 475.870
388.626, 213.191
389.973, 256.511
391.319, 269.830
392.666, 109.148
394.012, 304.464
395.358, 110.779
396.704, 178.092
398.049, 108.403
399.394, 58.289
400.740, 32.001
402.084, 64.713
403.429, 38.445
404.774, 15.812
406.118, 4.373
407.462, 52.134
408.806, 65.354
410.150, 61.189
411.493, 193.240
412.836, 94.330
414.179, 324.560
415.522, 281.793
416.865, 557.029
418.207, 548.267
419.549, 796.506
420.891, 944.745
422.233, 1105.981
423.575, 1537.198
424.916, 1613.393
426.257, 2141.573
427.598, 2440.750
428.939, 2989.910
430.279, 3491.074
431.619, 3751.864
432.959, 4322.303
434.299, 4811.675
435.639, 5448.797
436.978, 6016.184
438.318, 6711.723
439.657, 7918.079
440.996, 8228.911
442.334, 8596.641
443.673, 8869.229
445.011, 8404.556
446.349, 7949.794
447.687, 7231.399
449.024, 6489.755
450.361, 5643.623
451.699, 4998.393
453.036, 4580.857
454.372, 3837.432
455.709, 3572.229
457.045, 3349.226
458.381, 3172.541
459.717, 3157.900
461.053, 3107.196
462.388, 3363.389
463.724, 3639.658
465.059, 4147.934
466.394, 5002.119
467.728, 5911.381
469.063, 7411.281
470.397, 8889.719
471.731, 10729.851
473.065, 11989.318
474.398, 12609.765
475.732, 12210.711
477.065, 10681.530
478.398, 9322.825
479.731, 7734.125
481.063, 6515.454
482.396, 5626.782
483.728, 4708.139
485.060, 4709.497
486.391, 4060.857
487.723, 3752.263
489.054, 3643.672
490.385, 3345.095
491.716, 3426.549
493.047, 3298.022
494.377, 3259.549
495.708, 3251.084
497.038, 3032.661
498.368, 2854.276
499.697, 2585.908
501.027, 2497.598
502.356, 2249.296
503.685, 2021.026
505.014, 2112.796
506.342, 1799.471
507.671, 2019.792
508.999, 1893.302
510.327, 1966.238
511.655, 2069.450
512.982, 2063.070
514.310, 2595.075
515.637, 2659.509
516.964, 3301.548
518.291, 3473.624
519.617, 3925.711
520.944, 5017.813
522.270, 5549.942
523.596, 6622.085
524.921, 8114.255
526.247, 9686.439
527.572, 12158.648
528.897, 14640.875
530.222, 18213.117
531.547, 22145.389
532.871, 25917.682
534.196, 30229.996
535.520, 33322.332
536.844, 34884.703
538.167, 35447.094
539.491, 33019.512
540.814, 31211.949
542.137, 26574.416
543.460, 24026.912
544.783, 20459.426
546.105, 17451.977
547.427, 15624.544
548.749, 13026.647
550.071, 11408.979
551.393, 9621.413
552.714, 8543.218
554.035, 7535.888
555.356, 6347.793
556.677, 5580.023
557.998, 5012.010
559.318, 4401.170
560.638, 4092.868
561.958, 3501.911
563.278, 3252.346
564.597, 2844.096
565.917, 2705.795
567.236, 2517.871
568.555, 2207.491
569.874, 2019.704
571.192, 1892.516
572.511, 1714.959
573.829, 1565.066
575.147, 1454.201
576.464, 1290.363
577.782, 1211.552
579.099, 1042.768
580.416, 939.010
581.733, 808.279
583.050, 901.575
584.366, 651.899
585.683, 847.250
586.999, 639.628
588.315, 586.033
589.630, 528.466
590.946, 346.928
592.261, 548.419
593.576, 501.946
594.891, 580.518
596.206, 508.134
597.520, 555.802
598.834, 864.519
600.148, 896.308
601.462, 1168.183
602.776, 1504.123
604.089, 1478.158
605.402, 1972.248
606.715, 1956.449
608.028, 2030.733
609.341, 1975.119
610.653, 1739.602
611.965, 1444.193
613.277, 1122.916
614.589, 1038.736
615.901, 804.687
617.212, 623.742
618.523, 721.111
619.834, 392.820
621.145, 519.098
622.456, 483.846
623.766, 453.252
625.076, 613.630
626.386, 524.290
627.696, 735.289
629.006, 537.396
630.315, 389.992
631.624, 479.365
632.933, 103.021
634.242, 294.097
635.551, 147.591
636.859, 106.322
638.167, 291.192
639.475, 119.973
640.783, 244.490
642.090, 209.315
643.398, 175.229
644.705, 294.432
646.012, 221.360
647.318, 329.953
648.625, 403.135
649.931, 254.010
651.237, 397.689
652.543, 143.812
653.849, 341.904
655.155, 199.082
656.460, 170.374
657.765, 166.753
659.070, 73.146
660.375, 34.813
661.679, 45.649
662.984, 59.490
664.288, 117.596
665.592, 120.386
666.895, 0.994
668.199, 72.184
669.502, 84.901
670.805, 71.947
672.108, 106.114
673.411, 173.187
674.713, 53.565
676.016, 68.747
677.318, 173.186
678.620, 79.273
679.921, 201.581
681.223, 131.022
682.524, 211.292
683.825, 231.350
685.126, 169.729
686.427, 357.007
687.727, 297.296
689.028, 448.597
690.328, 424.906
691.628, 438.229
692.927, 495.561
694.227, 479.904
695.526, 542.258
696.825, 709.621
698.124, 589.995
699.423, 840.378
700.721, 661.771
702.020, 772.175
703.318, 852.586
704.616, 742.008
705.913, 793.439
707.211, 835.883
708.508, 854.335
709.805, 927.800
711.102, 965.272
712.399, 852.756
713.695, 784.251
714.992, 936.757
716.288, 845.289
717.584, 856.833
718.879, 914.404
720.175, 948.994
721.470, 862.597
722.765, 967.212
724.060, 793.837
725.355, 802.485
726.649, 927.144
727.944, 831.808
729.238, 876.480
730.532, 774.158
731.825, 711.843
733.119, 849.531
734.412, 612.225
735.705, 632.922
736.998, 643.625
738.291, 586.331
739.584, 407.041
740.876, 437.755
742.168, 448.474
743.460, 383.194
744.752, 407.920
746.043, 343.646
747.334, 257.377
748.626, 424.109
749.916, 230.844
751.207, 317.581
752.498, 298.319
753.788, 153.060
755.078, 292.802
756.368, 138.544
757.658, 196.287
758.947, 205.030
760.237, 142.771
761.526, 191.513
762.815, 55.252
764.104, 94.990
765.392, 204.726
766.680, 25.458
767.969, 100.188
769.257, 66.913
770.544, 71.635
771.832, 21.350
773.119, 33.941
774.406, 37.260
775.693, 50.390
776.980, 97.967
778.267, 40.611
779.553, 151.819
780.839, 12.654
782.125, 12.883
783.411, 30.444
784.697, 60.960
785.982, 3.354
787.267, 102.732
788.552, 39.900
789.837, 5.425
791.122, 191.730
792.406, 79.974
793.690, 80.258
794.974, 71.521
796.258, 67.637
797.542, 39.784
798.825, 126.081
800.108, 50.963
801.391, 2.006
802.674, 74.004
803.957, 20.068
805.239, 143.174
806.522, 40.617
807.804, 99.607
809.085, 83.913
810.367, 11.704
811.649, 148.704
812.930, 37.777
814.211, 39.758
815.492, 73.349
816.772, 25.010
818.053, 9.599
819.333, 63.849
820.613, 68.317
821.893, 74.241
823.173, 18.473
824.452, 76.129
825.732, 2.798
827.011, 45.286
828.290, 52.832
829.568, 114.988
830.847, 40.797
832.125, 14.409
833.403, 63.343
834.681, 2.918
835.959, 79.790
837.236, 24.482
838.514, 61.152
839.791, 182.821
841.068, 144.658
842.345, 170.115
843.621, 184.759
844.898, 148.389
846.174, 188.048
847.450, 164.694
848.726, 217.333
850.001, 211.960
851.277, 157.573
852.552, 234.173
853.827, 240.759
855.102, 254.330
856.376, 392.909
857.651, 336.474
858.925, 595.024
860.199, 540.564
861.473, 564.090
862.746, 614.602
864.020, 468.103
865.293, 434.588
866.566, 381.099
867.839, 445.597
869.112, 407.079
870.384, 341.553
871.656, 303.012
872.928, 377.456
874.200, 183.886
875.472, 458.300
876.744, 327.699
878.015, 292.084
879.286, 460.454
880.557, 187.808
881.828, 381.145
883.098, 370.468
884.369, 330.773
885.639, 336.064
886.909, 315.351
888.178, 388.620
889.448, 266.881
890.717, 401.126
891.987, 431.354
893.256, 291.568
894.524, 360.766
895.793, 326.946
897.061, 287.116
898.330, 374.270
899.598, 365.411
900.865, 413.538
902.133, 477.648
903.401, 389.752
904.668, 390.840
905.935, 314.911
907.202, 557.977
908.468, 622.025
909.735, 566.059
911.001, 660.076
912.267, 684.078
913.533, 568.064
914.799, 782.034
916.064, 755.989
917.330, 729.936
918.595, 743.865
919.860, 767.778
921.124, 921.676
922.389, 655.556
923.653, 879.423
924.918, 803.272
926.182, 864.887
927.445, 1096.227
928.709, 1100.030
929.972, 1117.439
931.236, 1371.212
932.499, 1265.057
933.761, 1628.639
935.024, 1640.897
936.286, 1682.072
937.549, 1915.772
938.811, 1888.715
940.073, 2042.387
941.334, 2132.653
942.596, 2095.512
943.857, 2419.145
945.118, 2366.647
946.379, 2450.252
947.640, 2518.128
948.900, 2611.707
950.161, 2605.207
951.421, 2639.428
952.681, 2592.934
953.940, 2614.975
955.200, 2512.058
956.459, 2612.646
957.719, 2665.440
958.978, 2668.801
960.236, 2794.201
961.495, 2820.527
962.753, 2932.747
964.012, 3124.890
965.270, 2908.027
966.527, 3246.900
967.785, 3283.615
969.043, 3183.314
970.300, 3403.983
971.557, 3271.335
972.814, 3418.501
974.071, 3385.256
975.327, 3375.541
976.583, 3512.262
977.840, 3463.899
979.095, 3697.175
980.351, 3705.377
981.607, 3878.788
982.862, 4022.328
984.117, 4252.848
985.372, 4256.156
986.627, 4548.045
987.882, 4521.408
989.136, 4703.990
990.390, 4689.795
991.644, 4523.173
992.898, 4596.546
994.152, 4253.682
995.405, 4117.047
996.659, 3900.639
997.912, 3513.996
999.165, 3558.992
1000.417, 3342.710
1001.670, 3226.055
1002.922, 3279.588
1004.174, 2922.924
1005.426, 2816.280
1006.678, 2404.790
1007.930, 2018.141
1009.181, 2121.486
1010.432, 1815.555
1011.683, 1958.924
1012.934, 1902.446
1014.185, 1776.364
1015.435, 1929.713
1016.685, 1692.550
1017.935, 1665.890
1019.185, 1709.459
1020.435, 1384.136
1021.684, 1567.463
1022.934, 1360.784
1024.183, 1244.372
1025.432, 1247.686
1026.680, 961.241
1027.929, 924.572
1029.177, 757.972
1030.425, 691.268
1031.673, 714.559
1032.921, 608.037
1034.169, 411.321
1035.416, 634.602
1036.663, 320.375
1037.911, 513.647
1039.157, 418.383
1040.404, 421.648
1041.650, 464.910
1042.897, 358.351
1044.143, 401.607
1045.389, 425.142
1046.634, 409.237
1047.880, 572.486
1049.125, 466.566
1050.371, 500.069
1051.615, 653.339
1052.860, 448.689
1054.105, 742.106
1055.349, 575.368
1056.593, 650.752
1057.837, 704.007
1059.081, 767.265
1060.325, 800.781
1061.568, 924.032
1062.812, 957.633
1064.055, 1060.940
1065.298, 1234.187
1066.540, 1119.164
1067.783, 1232.405
1069.025, 1245.646
1070.267, 1398.884
1071.509, 1392.119
1072.751, 1295.781
1073.993, 1409.030
1075.234, 1372.277
1076.475, 1365.960
1077.716, 1459.226
1078.957, 1222.492
1080.198, 1235.785
1081.438, 1369.076
1082.679, 1132.408
1083.919, 1285.870
1085.159, 1139.208
1086.398, 1202.560
1087.638, 1245.908
1088.877, 979.258
1090.116, 992.766
1091.355, 806.129
1092.594, 869.508
1093.833, 872.872
1095.071, 636.261
1096.309, 629.714
1097.547, 683.123
1098.785, 516.529
1100.023, 519.935
1101.260, 493.379
1102.498, 236.819
1103.735, 530.268
1104.972, 343.740
1106.208, 507.225
1107.445, 460.753
1108.681, 214.279
1109.918, 427.840
1111.154, 261.428
1112.389, 255.168
1113.625, 288.808
1114.860, 152.444
1116.096, 226.178
1117.331, 169.860
1118.566, 153.556
1119.800, 317.261
1121.035, 100.989
1122.269, 234.743
1123.503, 348.526
1124.737, 222.320
1125.971, 216.141
1127.205, 169.967
1128.438, 103.789
1129.671, 237.630
1130.904, 8.532
1132.137, 95.297
1133.370, 129.138
1134.602, 17.026
1135.834, 146.959
1137.066, 190.784
1138.298, 45.395
1139.530, 258.418
1140.762, 92.217
1141.993, 64.028
1143.224, 209.804
1144.455, 166.466
1145.686, 197.223
1146.917, 29.111
1148.147, 5.456
1149.377, 138.378
1150.607, 12.029
1151.837, 75.634
1153.067, 95.215
1154.296, 81.188
1155.526, 132.893
1156.755, 86.597
1157.984, 9.830
1159.213, 67.590
1160.441, 31.160
1161.670, 5.284
1162.898, 99.861
1164.126, 146.595
1165.354, 106.907
1166.581, 20.404
1167.809, 16.108
1169.036, 127.360
1170.263, 130.827
1171.490, 14.282
1172.717, 177.732
1173.943, 21.179
1175.170, 74.625
1176.396, 58.059
1177.622, 121.489
1178.848, 154.917
1180.073, 38.343
1181.299, 181.764
1182.524, 115.183
1183.749, 31.399
1184.974, 172.004
1186.199, 14.498
1187.423, 108.893
1188.648, 142.529
1189.872, 46.282
1191.096, 109.666
1192.320, 23.270
1193.543, 3.099
1194.767, 130.273
1195.990, 0.938
1197.213, 44.300
1198.436, 127.658
1199.659, 18.672
1200.881, 64.670
1202.104, 178.011
1203.326, 18.591
1204.548, 104.733
1205.770, 139.313
1206.991, 42.633
1208.213, 195.948
1209.434, 29.791
1210.655, 93.100
1211.876, 126.533
1213.096, 10.164
1214.317, 163.127
1215.537, 187.077
1216.757, 220.364
1217.977, 213.651
1219.197, 31.322
1220.417, 134.541
1221.636, 197.718
1222.855, 31.137
1224.074, 194.288
1225.293, 178.021
1226.512, 141.527
1227.731, 294.671
1228.949, 224.144
1230.167, 91.239
1231.385, 244.373
1232.603, 128.076
1233.820, 221.205
1235.038, 234.329
1236.255, 87.491
1237.472, 440.601
1238.689, 123.698
1239.906, 266.689
1241.122, 409.673
1242.338, 112.644
1243.555, 345.606
1244.771, 148.539
1245.986, 141.462
1247.202, 364.366
1248.417, 137.257
1249.633, 340.124
1250.848, 342.979
1252.063, 135.734
1253.277, 338.469
1254.492, 251.177
1255.706, 154.101
1256.920, 346.761
1258.134, 99.385
1259.348, 292.187
1260.562, 484.763
1261.775, 117.314
1262.988, 239.845
1264.201, 382.352
1265.414, 234.835
1266.627, 307.292
1267.839, 239.726
1269.052, 243.327
1270.264, 425.710
1271.476, 238.063
1272.688, 340.398
1273.899, 432.714
1275.111, 225.013
1276.322, 457.185
1277.533, 228.940
1278.744, 211.525
1279.955, 443.562
1281.165, 104.687
1282.376, 256.318
1283.586, 217.645
1284.796, 151.504
1286.006, 271.499
1287.215, 164.736
1288.425, 106.363
1289.634, 359.866
1290.843, 203.540
1292.052, 201.653
1293.261, 234.454
1294.469, 87.790
1295.678, 240.684
1296.886, 243.638
1298.094, 74.732
1299.302, 418.649
1300.509, 31.716
1301.717, 94.767
1302.924, 318.011
1304.131, 38.860
1305.338, 204.484
1306.545, 364.825
1307.752, 3.652
1308.958, 259.403
1310.164, 332.317
1311.370, 154.509
1312.576, 446.351
1313.782, 206.814
1314.987, 239.702
1316.193, 409.997
1317.398, 292.668
1318.603, 435.201
1319.807, 298.099
1321.012, 328.691
1322.216, 421.607
1323.421, 393.912
1324.625, 286.740
1325.829, 388.943
1327.032, 171.726
1328.236, 214.492
1329.439, 357.048
1330.642, 109.772
1331.845, 262.237
1333.048, 74.905
1334.251, 57.578
1335.453, 240.133
1336.656, 82.778
1337.858, 75.409
1339.060, 168.027
1340.261, 89.364
1341.463, 153.232
1342.664, 225.564
1343.866, 68.138
1345.067, 230.566
1346.267, 183.126
1347.468, 125.683
1348.669, 188.216
1349.869, 10.749
1351.069, 273.279
1352.269, 385.819
1353.469, 48.360
1354.668, 270.622
1355.868, 113.201
1357.067, 185.894
1358.266, 188.464
1359.465, 41.261
1360.664, 203.697
1361.862, 316.607
1363.061, 43.986
1364.259, 237.285
1365.457, 180.865
1366.655, 73.368
1367.852, 331.959
1369.050, 34.396
1370.247, 56.870
1371.444, 289.376
1372.641, 81.896
1373.838, 114.423
1375.035, 416.958
1376.231, 39.480
1377.427, 361.989
1378.623, 184.186
1379.819, 125.883
1381.015, 357.144
1382.211, 307.953
1383.406, 395.691
1384.601, 397.249
1385.796, 227.618
1386.991, 338.768
1388.185, 445.274
1389.380, 236.306
1390.574, 375.075
1391.768, 145.247
1392.962, 342.918
1394.156, 503.170
1395.350, 142.943
1396.543, 331.727
1397.736, 368.636
1398.929, 36.198
1400.122, 343.675
1401.315, 288.984
1402.507, 37.042
1403.700, 274.385
1404.892, 182.262
1406.084, 150.426
1407.276, 228.351
1408.467, 76.051
1409.659, 123.487
1410.850, 361.365
1412.041, 10.044
1413.232, 295.979
1414.423, 212.334
1415.614, 71.115
1416.804, 389.988
1417.994, 249.092
1419.184, 92.653
1420.374, 207.168
1421.564, 0.827
1422.753, 70.180
1423.943, 223.932
1425.132, 0.000
##END=



