##NAMES=Thomsonite-Ca
##RRUFFID=R050091
##IDEAL CHEMISTRY=NaCa_2_(Al_5_Si_5_)O_20_&#183;6H_2_O
##LOCALITY=Amudikha River, near Mirny, Yakutia, Siberia, Russia
##OWNER=RRUFF
##SOURCE=Rock Currier
##DESCRIPTION=Radial groups of colorless bladed crystals
##STATUS=The identification of this mineral has been confirmed by X-ray diffraction and chemical analysis
##URL=rruff.info/R050091
##MEASURED CHEMISTRY=(Na_0.94_[box]_0.06_)_Σ=1_(Ca_1.71_Na_0.29_)_Σ=2_(Si_5.35_Al_4.65_)O_20_·7.09H_2_O
##PIN_ID=L00326
##ORIENTATION=Laser parallel to b* (0 1 0). Fiducial mark perpendicular to laser is parallel to c [0 0 1]
52.937, 0.000
54.335, 21.406
55.734, 131.305
57.132, 113.909
58.530, 102.581
59.927, 104.994
61.325, 116.942
62.722, 128.035
64.119, 134.161
65.515, 140.613
66.912, 187.026
68.308, 156.253
69.704, 81.640
71.100, 96.119
72.496, 35.229
73.891, 41.704
75.287, 22.520
76.682, 20.655
78.076, 3.899
79.471, 20.160
80.865, 39.151
82.260, 36.134
83.653, 21.321
85.047, 48.459
86.441, 39.453
87.834, 50.644
89.227, 88.016
90.620, 175.558
92.013, 270.258
93.405, 337.108
94.797, 447.114
96.189, 578.271
97.581, 733.572
98.973, 958.005
100.364, 1100.564
101.755, 1296.354
103.146, 1358.288
104.537, 1406.310
105.927, 1563.415
107.318, 1721.598
108.708, 1938.912
110.098, 2224.578
111.487, 2920.341
112.877, 4098.148
114.266, 4269.851
115.655, 4885.584
117.044, 4935.813
118.432, 5208.786
119.821, 5154.800
121.209, 4549.858
122.597, 4114.955
123.984, 3893.095
125.372, 3570.277
126.759, 3269.500
128.146, 3088.765
129.533, 2841.073
130.920, 2689.423
132.306, 2403.815
133.692, 2297.338
135.078, 2258.048
136.464, 2324.810
137.850, 2280.650
139.235, 2310.553
140.620, 2365.500
142.005, 2479.471
143.390, 2618.452
144.774, 2701.422
146.159, 2934.372
147.543, 3147.415
148.927, 3317.360
150.310, 3668.340
151.694, 3841.278
153.077, 4150.251
154.460, 4295.237
155.843, 4401.239
157.226, 4673.257
158.608, 4554.295
159.990, 4680.353
161.372, 4746.432
162.754, 4945.531
164.135, 5053.467
165.517, 5262.757
166.898, 5434.293
168.279, 5404.384
169.659, 5654.424
171.040, 5837.490
172.420, 6290.583
173.800, 6694.703
175.180, 7180.848
176.560, 7847.021
177.939, 8226.221
179.318, 8585.449
180.697, 8234.702
182.076, 7683.979
183.455, 6895.286
184.833, 6022.618
186.211, 5467.978
187.589, 4751.362
188.967, 4354.774
190.344, 3959.214
191.722, 3774.681
193.099, 3639.174
194.475, 3561.693
195.852, 3623.240
197.229, 3407.814
198.605, 3335.416
199.981, 2880.046
201.357, 2621.704
202.732, 2317.392
204.108, 1928.108
205.483, 1740.853
206.858, 1486.626
208.233, 1435.428
209.607, 1315.259
210.981, 1264.117
212.356, 1268.958
213.730, 1325.262
215.103, 1388.272
216.477, 1454.585
217.850, 1621.472
219.223, 1706.290
220.596, 1785.912
221.969, 1740.310
223.341, 1611.465
224.713, 1464.378
226.085, 1241.033
227.457, 1020.411
228.829, 877.549
230.200, 690.453
231.571, 547.097
232.942, 378.382
234.313, 325.392
235.684, 174.992
237.054, 127.810
238.424, 131.064
239.794, 3.424
241.164, 6.901
242.533, 16.230
243.902, 36.883
245.272, 42.661
246.640, 12.308
248.009, 19.496
249.378, 55.869
250.746, 130.731
252.114, 179.743
253.482, 248.216
254.849, 313.899
256.217, 383.772
257.584, 444.675
258.951, 398.607
260.318, 476.568
261.684, 452.556
263.051, 469.572
264.417, 376.614
265.783, 311.683
267.148, 309.776
268.514, 128.894
269.879, 141.036
271.244, 10.201
272.609, 25.610
273.974, 45.403
275.338, 108.182
276.703, 9.037
278.067, 60.724
279.431, 26.525
280.794, 0.205
282.158, 45.083
283.521, 161.393
284.884, 140.721
286.247, 212.070
287.609, 286.439
288.972, 356.827
290.334, 495.234
291.696, 582.661
293.058, 804.106
294.419, 908.571
295.781, 1229.054
297.142, 1381.556
298.503, 1642.076
299.864, 1990.614
301.224, 2222.168
302.584, 2564.740
303.945, 2815.328
305.304, 3037.932
306.664, 3234.554
308.024, 3343.191
309.383, 3284.846
310.742, 3139.522
312.101, 2877.214
313.460, 2561.913
314.818, 2470.615
316.176, 2332.335
317.534, 2289.080
318.892, 2466.852
320.250, 2416.640
321.607, 2502.455
322.964, 2506.286
324.321, 2552.144
325.678, 2571.030
327.035, 2538.943
328.391, 2594.865
329.747, 2612.779
331.103, 2720.700
332.459, 2891.650
333.815, 3150.620
335.170, 3359.620
336.525, 3567.646
337.880, 3969.705
339.235, 4082.794
340.589, 4218.905
341.944, 4257.051
343.298, 3952.220
344.652, 3864.414
346.005, 3456.626
347.359, 2990.862
348.712, 2807.126
350.065, 2418.409
351.418, 2207.715
352.771, 1836.038
354.123, 1627.376
355.475, 1283.735
356.828, 1102.108
358.179, 956.497
359.531, 714.901
360.882, 610.321
362.234, 443.755
363.585, 399.205
364.936, 325.669
366.286, 149.148
367.637, 72.642
368.987, 45.850
370.337, 36.336
371.687, 84.814
373.036, 104.296
374.386, 2.785
375.735, 11.270
377.084, 108.231
378.432, 152.722
379.781, 199.226
381.129, 251.744
382.478, 200.269
383.825, 242.801
385.173, 288.343
386.521, 395.894
387.868, 447.455
389.215, 530.029
390.562, 533.616
391.909, 537.217
393.255, 457.832
394.602, 359.464
395.948, 346.114
397.294, 219.782
398.639, 147.472
399.985, 121.180
401.330, 57.911
402.675, 14.312
404.020, 43.633
405.365, 50.856
406.709, 93.242
408.054, 77.935
409.398, 41.489
410.742, 48.717
412.085, 36.938
413.429, 17.156
414.772, 75.636
416.115, 144.445
417.458, 205.270
418.800, 336.110
420.143, 378.966
421.485, 467.836
422.827, 582.722
424.169, 706.622
425.511, 874.537
426.852, 1016.466
428.193, 1137.409
429.534, 1584.367
430.875, 1781.340
432.216, 2310.326
433.556, 2684.325
434.896, 3230.479
436.236, 3912.797
437.576, 4479.932
438.916, 5279.987
440.255, 5693.637
441.594, 6209.720
442.933, 6276.763
444.272, 6066.873
445.611, 5834.997
446.949, 5195.132
448.287, 4766.282
449.625, 4089.446
450.963, 3631.620
452.300, 3145.809
453.638, 2658.010
454.975, 2369.225
456.312, 2021.452
457.649, 1735.691
458.985, 1504.943
460.321, 1336.207
461.658, 1333.483
462.994, 1168.772
464.329, 1272.072
465.665, 1287.385
467.000, 1367.709
468.335, 1561.060
469.670, 1714.407
471.005, 1959.810
472.340, 2078.181
473.674, 2108.563
475.008, 2039.222
476.342, 1852.626
477.676, 1762.944
479.009, 1557.420
480.342, 1481.857
481.676, 1470.464
483.009, 1339.922
484.341, 1487.221
485.674, 1444.623
487.006, 1547.119
488.338, 1659.343
489.670, 1784.160
491.002, 1931.393
492.333, 2090.292
493.665, 2136.661
494.996, 2162.891
496.327, 2144.660
497.657, 2034.350
498.988, 1890.271
500.318, 1784.227
501.648, 1657.361
502.978, 1533.846
504.308, 1654.250
505.637, 1603.058
506.967, 1699.290
508.296, 1740.945
509.625, 1925.726
510.953, 2094.145
512.282, 2273.886
513.610, 2619.537
514.938, 2779.062
516.266, 3250.734
517.594, 3771.413
518.921, 4429.097
520.249, 5289.793
521.576, 6119.498
522.903, 7436.207
524.229, 8900.931
525.556, 10743.667
526.882, 13106.418
528.208, 15859.173
529.534, 19400.055
530.860, 22861.398
532.185, 26960.377
533.511, 31038.309
534.836, 32820.961
536.161, 35083.332
537.485, 34046.160
538.810, 32548.998
540.134, 29551.857
541.458, 25644.723
542.782, 22517.594
544.106, 18630.480
545.429, 16143.363
546.753, 13596.256
548.076, 11629.154
549.399, 9712.060
550.721, 8364.966
552.044, 7180.875
553.366, 6197.791
554.688, 5349.712
556.010, 4736.639
557.332, 4057.568
558.653, 3696.502
559.975, 3343.438
561.296, 2950.380
562.617, 2676.324
563.937, 2427.391
565.258, 2165.089
566.578, 1983.708
567.898, 1767.174
569.218, 1635.443
570.538, 1503.384
571.858, 1491.870
573.177, 1205.209
574.496, 1183.217
575.815, 1158.228
577.134, 997.240
578.452, 982.254
579.771, 895.270
581.089, 809.288
582.407, 784.306
583.724, 732.325
585.042, 688.345
586.359, 607.366
587.676, 569.388
588.993, 536.410
590.310, 544.433
591.627, 489.456
592.943, 454.479
594.259, 433.507
595.575, 381.542
596.891, 369.599
598.206, 426.656
599.522, 357.723
600.837, 415.789
602.152, 415.856
603.467, 401.922
604.781, 398.986
606.096, 356.050
607.410, 340.671
608.724, 291.173
610.038, 278.232
611.351, 246.289
612.665, 201.345
613.978, 192.888
615.291, 169.451
616.604, 154.501
617.916, 128.548
619.229, 97.594
620.541, 89.636
621.853, 83.677
623.165, 26.714
624.476, 77.749
625.788, 14.781
627.099, 25.809
628.410, 8.167
629.721, 35.844
631.032, 34.852
632.342, 5.855
633.652, 25.852
634.962, 20.156
636.272, 22.185
637.582, 60.763
638.891, 23.293
640.201, 27.626
641.510, 17.459
642.818, 34.566
644.127, 19.703
645.436, 30.864
646.744, 8.054
648.052, 14.262
649.360, 24.491
650.668, 0.253
651.975, 29.017
653.282, 21.316
654.590, 35.641
655.896, 39.000
657.203, 7.393
658.510, 41.806
659.816, 15.256
661.122, 13.696
662.428, 17.808
663.734, 10.426
665.039, 32.865
666.345, 20.576
667.650, 12.690
668.955, 23.736
670.260, 47.494
671.564, 3.292
672.869, 64.328
674.173, 63.123
675.477, 69.633
676.781, 99.767
678.084, 72.377
679.388, 141.805
680.691, 151.731
681.994, 126.003
683.297, 177.684
684.599, 215.088
685.902, 267.848
687.204, 258.723
688.506, 291.229
689.808, 346.075
691.109, 290.604
692.411, 458.428
693.712, 418.112
695.013, 498.401
696.314, 595.992
697.615, 563.930
698.915, 617.340
700.216, 655.562
701.516, 640.837
702.816, 724.835
704.115, 712.113
705.415, 714.830
706.714, 725.161
708.013, 759.376
709.312, 776.580
710.611, 790.059
711.910, 852.406
713.208, 820.609
714.506, 870.172
715.804, 868.340
717.102, 858.069
718.399, 934.268
719.697, 843.855
720.994, 900.693
722.291, 909.276
723.588, 919.374
724.884, 931.454
726.181, 913.861
727.477, 909.470
728.773, 920.713
730.069, 872.912
731.365, 911.104
732.660, 871.201
733.955, 882.435
735.250, 906.509
736.545, 854.638
737.840, 830.689
739.134, 834.743
740.429, 825.771
741.723, 829.786
743.017, 825.791
744.310, 833.895
745.604, 808.875
746.897, 793.844
748.190, 838.802
749.483, 819.748
750.776, 845.682
752.069, 820.604
753.361, 767.513
754.653, 1023.411
755.945, 1250.298
757.237, 1412.172
758.529, 1273.033
759.820, 876.883
761.111, 703.721
762.402, 669.547
763.693, 741.360
764.984, 677.162
766.274, 676.951
767.564, 667.728
768.854, 624.494
770.144, 657.247
771.434, 642.488
772.724, 618.495
774.013, 664.433
775.302, 573.138
776.591, 598.830
777.880, 583.511
779.168, 560.179
780.456, 542.835
781.745, 461.465
783.033, 498.097
784.320, 404.673
785.608, 415.281
786.895, 405.878
788.183, 357.196
789.470, 369.769
790.756, 366.427
792.043, 339.064
793.329, 276.463
794.616, 303.829
795.902, 274.344
797.188, 248.015
798.473, 238.583
799.759, 240.055
801.044, 211.798
802.329, 192.946
803.614, 210.678
804.899, 117.741
806.183, 163.333
807.467, 169.062
808.752, 74.251
810.036, 142.517
811.319, 70.551
812.603, 75.548
813.886, 80.364
815.169, 51.827
816.452, 91.369
817.735, 18.506
819.018, 35.215
820.300, 96.497
821.583, 12.651
822.865, 47.163
824.146, 25.649
825.428, 6.615
826.710, 15.000
827.991, 5.229
829.272, 19.445
830.553, 17.348
831.834, 10.836
833.114, 29.008
834.394, 30.828
835.675, 20.694
836.955, 11.585
838.234, 7.497
839.514, 29.427
840.793, 47.385
842.073, 11.617
843.352, 15.390
844.630, 10.582
845.909, 0.544
847.187, 13.506
848.466, 7.577
849.744, 44.665
851.022, 2.789
852.299, 14.074
853.577, 24.073
854.854, 38.756
856.131, 5.422
857.408, 32.385
858.685, 1.815
859.961, 13.973
861.238, 51.753
862.514, 57.526
863.790, 15.707
865.066, 5.041
866.341, 29.781
867.617, 2.486
868.892, 32.236
870.167, 6.049
871.442, 18.654
872.717, 20.649
873.991, 24.973
875.265, 5.318
876.540, 13.673
877.813, 2.045
879.087, 14.425
880.361, 6.852
881.634, 2.030
882.907, 9.358
884.180, 7.937
885.453, 29.509
886.726, 0.924
887.998, 57.636
889.270, 9.190
890.542, 43.739
891.814, 20.282
893.086, 57.819
894.357, 103.352
895.628, 47.879
896.900, 0.598
898.170, 60.919
899.441, 32.440
900.712, 61.957
901.982, 83.469
903.252, 40.977
904.522, 86.480
905.792, 71.982
907.062, 84.480
908.331, 91.977
909.600, 97.471
910.869, 129.597
912.138, 152.446
913.407, 201.930
914.675, 223.410
915.944, 272.886
917.212, 320.363
918.480, 318.836
919.747, 399.309
921.015, 423.778
922.282, 441.246
923.549, 562.710
924.816, 532.171
926.083, 621.629
927.350, 708.085
928.616, 707.537
929.882, 800.994
931.148, 810.449
932.414, 862.901
933.680, 934.363
934.945, 1046.822
936.211, 1035.089
937.476, 1089.482
938.741, 1035.199
940.005, 1104.656
941.270, 1114.112
942.534, 1090.567
943.799, 1225.030
945.063, 1237.499
946.326, 1254.967
947.590, 1273.443
948.853, 1274.918
950.117, 1342.400
951.380, 1326.895
952.643, 1432.397
953.905, 1496.916
955.168, 1406.441
956.430, 1568.973
957.692, 1637.516
958.954, 1723.062
960.216, 1931.620
961.478, 1992.188
962.739, 2195.769
964.000, 2228.364
965.261, 2373.965
966.522, 2466.581
967.783, 2392.173
969.043, 2457.805
970.303, 2462.169
971.563, 2441.723
972.823, 2586.378
974.083, 2583.733
975.343, 2635.383
976.602, 2750.693
977.861, 2810.957
979.120, 3057.971
980.379, 3108.222
981.638, 3356.751
982.896, 3650.651
984.154, 3787.071
985.412, 4132.677
986.670, 4333.780
987.928, 4570.538
989.185, 4768.881
990.443, 4824.495
991.700, 4889.746
992.957, 4823.884
994.214, 4517.396
995.470, 4637.579
996.727, 4244.096
997.983, 4063.313
999.239, 4043.666
1000.495, 3683.408
1001.750, 3563.841
1003.006, 3325.922
1004.261, 3157.523
1005.516, 3061.308
1006.771, 2789.032
1008.026, 2705.037
1009.280, 2597.756
1010.535, 2452.032
1011.789, 2449.691
1013.043, 2331.460
1014.297, 2238.233
1015.550, 2288.726
1016.804, 2146.343
1018.057, 2109.099
1019.310, 2031.488
1020.563, 1840.267
1021.816, 1913.488
1023.068, 1717.232
1024.321, 1676.584
1025.573, 1648.693
1026.825, 1516.062
1028.077, 1549.930
1029.328, 1367.524
1030.580, 1289.397
1031.831, 1360.771
1033.082, 1159.512
1034.333, 1198.302
1035.584, 1121.095
1036.834, 1091.979
1038.085, 1157.728
1039.335, 1093.632
1040.585, 1134.479
1041.834, 1228.405
1043.084, 1123.320
1044.334, 1256.254
1045.583, 1275.193
1046.832, 1259.138
1048.081, 1393.105
1049.329, 1417.079
1050.578, 1589.041
1051.826, 1627.009
1053.074, 1675.982
1054.322, 1878.960
1055.570, 1921.666
1056.818, 2066.654
1058.065, 2250.446
1059.312, 2270.444
1060.559, 2502.528
1061.806, 2616.534
1063.053, 2730.897
1064.299, 3038.953
1065.546, 3029.973
1066.792, 3251.799
1068.038, 3393.828
1069.284, 3354.473
1070.529, 3460.513
1071.775, 3399.924
1073.020, 3340.972
1074.265, 3373.025
1075.510, 3213.083
1076.754, 3171.177
1077.999, 3169.244
1079.243, 2952.039
1080.487, 2986.116
1081.731, 2735.198
1082.975, 2591.148
1084.219, 2545.242
1085.462, 2260.402
1086.705, 2219.558
1087.948, 2123.665
1089.191, 1885.908
1090.434, 1866.024
1091.676, 1628.144
1092.919, 1658.283
1094.161, 1528.411
1095.403, 1329.543
1096.645, 1393.711
1097.886, 1157.850
1099.128, 1065.087
1100.369, 1080.288
1101.610, 983.481
1102.851, 954.888
1104.091, 879.151
1105.332, 852.359
1106.572, 830.862
1107.812, 798.029
1109.052, 751.219
1110.292, 732.427
1111.532, 637.628
1112.771, 627.838
1114.010, 562.065
1115.249, 511.249
1116.488, 494.443
1117.727, 467.632
1118.966, 386.978
1120.204, 401.226
1121.442, 330.562
1122.680, 295.869
1123.918, 300.131
1125.155, 274.394
1126.393, 265.739
1127.630, 263.962
1128.867, 213.359
1130.104, 226.640
1131.341, 176.172
1132.577, 179.841
1133.814, 203.576
1135.050, 137.450
1136.286, 160.044
1137.522, 140.395
1138.757, 124.793
1139.993, 134.193
1141.228, 103.590
1142.463, 92.773
1143.698, 93.286
1144.933, 92.619
1146.167, 115.126
1147.402, 97.608
1148.636, 62.993
1149.870, 70.470
1151.104, 25.927
1152.338, 68.432
1153.571, 54.986
1154.804, 87.461
1156.037, 83.107
1157.270, 70.626
1158.503, 62.712
1159.736, 39.958
1160.968, 51.456
1162.200, 66.962
1163.432, 48.428
1164.664, 37.825
1165.896, 12.550
1167.127, 17.065
1168.359, 23.801
1169.590, 62.468
1170.821, 35.980
1172.052, 4.670
1173.282, 45.714
1174.513, 5.520
1175.743, 42.059
1176.973, 28.573
1178.203, 32.694
1179.433, 43.291
1180.662, 23.879
1181.892, 47.374
1183.121, 43.577
1184.350, 35.295
1185.579, 42.304
1186.807, 40.907
1188.036, 19.818
1189.264, 17.653
1190.492, 14.149
1191.720, 9.613
1192.948, 16.120
1194.176, 14.628
1195.403, 5.853
1196.630, 42.688
1197.857, 21.823
1199.084, 5.446
1200.311, 28.232
1201.537, 57.713
1202.764, 19.817
1203.990, 10.642
1205.216, 20.888
1206.442, 11.516
1207.667, 2.129
1208.893, 18.225
1210.118, 10.349
1211.343, 1.013
1212.568, 41.387
1213.793, 19.132
1215.017, 29.249
1216.242, 15.063
1217.466, 17.227
1218.690, 9.341
1219.914, 15.927
1221.137, 19.760
1222.361, 71.712
1223.584, 8.999
1224.807, 27.294
1226.030, 31.019
1227.253, 26.313
1228.476, 33.704
1229.698, 48.119
1230.920, 48.159
1232.142, 7.613
1233.364, 9.800
1234.586, 33.068
1235.808, 0.454
1237.029, 38.851
1238.250, 32.084
1239.471, 22.271
1240.692, 29.489
1241.913, 29.729
1243.133, 20.010
1244.353, 39.159
1245.574, 6.300
1246.794, 16.436
1248.013, 19.570
1249.233, 18.290
1250.452, 5.843
1251.672, 19.962
1252.891, 2.896
1254.110, 58.215
1255.328, 28.323
1256.547, 25.426
1257.765, 28.532
1258.983, 27.627
1260.201, 24.704
1261.419, 49.768
1262.637, 34.826
1263.854, 62.881
1265.072, 3.926
1266.289, 25.965
1267.506, 7.000
1268.723, 14.079
1269.939, 26.166
1271.156, 27.171
1272.372, 11.167
1273.588, 52.153
1274.804, 7.133
1276.020, 32.140
1277.235, 3.104
1278.451, 1.049
1279.666, 31.477
1280.881, 1.563
1282.096, 12.611
1283.310, 29.268
1284.525, 20.123
1285.739, 22.113
1286.953, 25.990
1288.167, 4.158
1289.381, 10.624
1290.595, 50.398
1291.808, 13.158
1293.022, 16.909
1294.235, 40.647
1295.448, 20.375
1296.660, 31.146
1297.873, 20.856
1299.085, 15.557
1300.298, 31.294
1301.510, 24.026
1302.722, 22.634
1303.933, 1.283
1305.145, 1.080
1306.356, 29.541
1307.567, 28.144
1308.778, 37.799
1309.989, 61.380
1311.200, 10.948
1312.410, 28.647
1313.621, 11.202
1314.831, 22.264
1316.041, 31.251
1317.250, 13.755
1318.460, 11.751
1319.670, 10.724
1320.879, 29.187
1322.088, 36.638
1323.297, 4.079
1324.506, 23.506
1325.714, 24.921
1326.922, 17.677
1328.131, 4.705
1329.339, 13.077
1330.547, 25.569
1331.754, 23.763
1332.962, 7.880
1334.169, 6.586
1335.376, 41.690
1336.583, 49.069
1337.790, 38.321
1338.997, 37.583
1340.203, 34.813
1341.410, 4.888
1342.616, 30.080
1343.822, 19.257
1345.028, 12.422
1346.233, 34.653
1347.439, 36.793
1348.644, 36.196
1349.849, 33.391
1351.054, 45.694
1352.259, 56.785
1353.463, 56.067
1354.668, 37.852
1355.872, 51.556
1357.076, 47.584
1358.280, 26.617
1359.483, 41.837
1360.687, 12.855
1361.890, 67.238
1363.094, 28.352
1364.297, 61.954
1365.499, 42.909
1366.702, 26.853
1367.905, 54.782
1369.107, 51.668
1370.309, 11.575
1371.511, 35.745
1372.713, 25.625
1373.914, 0.514
1375.116, 36.470
1376.317, 15.340
1377.518, 65.099
1378.719, 34.854
1379.920, 13.652
1381.121, 26.300
1382.321, 39.065
1383.521, 48.822
1384.721, 41.455
1385.921, 36.058
1387.121, 28.585
1388.321, 61.096
1389.520, 67.276
1390.719, 58.442
1391.918, 100.978
1393.117, 55.459
1394.316, 55.909
1395.514, 67.420
1396.713, 52.756
1397.911, 65.038
1399.109, 64.331
1400.307, 62.587
1401.505, 58.847
1402.702, 76.892
1403.899, 87.924
1405.097, 75.003
1406.294, 59.115
1407.490, 57.193
1408.687, 74.218
1409.884, 109.278
1411.080, 80.003
1412.276, 45.275
1413.472, 42.096
1414.668, 75.286
1415.863, 75.368
1417.059, 57.239
1418.254, 64.089
1419.449, 45.735
1420.644, 80.185
1421.839, 67.978
1423.033, 3.308
1424.228, 47.532
1425.422, 34.328
1426.616, 76.735
1427.810, 67.588
1429.004, 13.048
1430.197, 24.290
1431.391, 24.717
1432.584, 61.124
1433.777, 58.405
1434.970, 52.613
1436.163, 35.155
1437.355, 66.368
1438.548, 47.555
1439.740, 10.041
1440.932, 58.280
1442.124, 50.622
1443.315, 23.692
1444.507, 72.486
1445.698, 56.678
1446.889, 63.698
1448.080, 54.003
1449.271, 45.429
1450.462, 64.720
1451.652, 15.440
1452.843, 39.618
1454.033, 55.081
1455.223, 6.180
1456.413, 27.130
1457.602, 42.060
1458.792, 31.232
1459.981, 39.334
1461.170, 52.381
1462.359, 47.339
1463.548, 53.300
1464.737, 42.195
1465.925, 47.536
1467.113, 64.055
1468.302, 50.942
1469.490, 53.652
1470.677, 51.301
1471.865, 22.121
1473.052, 91.811
1474.240, 35.588
1475.427, 9.850
1476.614, 79.455
1477.800, 51.862
1478.987, 1.465
1480.173, 48.428
1481.360, 13.398
1482.546, 23.374
1483.732, 77.788
1484.917, 9.452
1486.103, 81.262
1487.288, 46.047
1488.474, 0.143
1489.659, 61.435
1490.844, 39.678
1492.028, 0.579
1493.213, 43.174
1494.397, 51.900
1495.582, 44.605
1496.766, 23.287
1497.950, 61.949
1499.133, 2.581
1500.317, 42.219
1501.500, 22.661
1502.683, 3.646
1503.866, 26.150
1505.049, 2.165
1506.232, 31.465
1507.415, 13.618
1508.597, 12.351
1509.779, 56.378
1510.961, 53.052
1512.143, 31.712
1513.325, 41.082
1514.506, 38.576
1515.688, 35.387
1516.869, 33.811
1518.050, 0.702
1519.231, 19.707
1520.411, 24.047
1521.592, 9.763
1522.772, 50.838
1523.952, 38.835
1525.132, 0.000
##END=



