##NAMES=Thomsonite-Ca
##RRUFFID=R050091
##IDEAL CHEMISTRY=NaCa_2_(Al_5_Si_5_)O_20_&#183;6H_2_O
##LOCALITY=Amudikha River, near Mirny, Yakutia, Siberia, Russia
##OWNER=RRUFF
##SOURCE=Rock Currier
##DESCRIPTION=Radial groups of colorless bladed crystals
##STATUS=The identification of this mineral has been confirmed by X-ray diffraction and chemical analysis
##URL=rruff.info/R050091
##MEASURED CHEMISTRY=(Na_0.94_[box]_0.06_)_Σ=1_(Ca_1.71_Na_0.29_)_Σ=2_(Si_5.35_Al_4.65_)O_20_·7.09H_2_O
##PIN_ID=L00456
##ORIENTATION=Laser parallel to a* (1 0 0). Fiducial mark perpendicular to laser is parallel to b [0 1 0]
147.277, 0.000
148.660, 46.621
150.044, 22.874
151.427, 27.626
152.810, 201.856
154.193, 17.842
155.576, 349.300
156.958, 271.771
158.341, 530.412
159.723, 640.578
161.105, 758.446
162.486, 1141.536
163.867, 1246.897
165.249, 1716.223
166.630, 2127.802
168.010, 2661.242
169.391, 3343.918
170.771, 4228.901
172.151, 5489.893
173.531, 6586.322
174.911, 8563.207
176.290, 10310.476
177.669, 12373.306
179.049, 13913.396
180.427, 13867.623
181.806, 14291.559
183.184, 12712.256
184.562, 11849.077
185.940, 10332.017
187.318, 8881.420
188.696, 8077.837
190.073, 7112.977
191.450, 6908.831
192.827, 6284.256
194.204, 6523.109
195.580, 6196.519
196.956, 5943.855
198.332, 5460.872
199.708, 4719.882
201.084, 4382.205
202.459, 3542.934
203.834, 3204.976
205.209, 2965.938
206.584, 2595.752
207.958, 2787.105
209.333, 2602.524
210.707, 3071.440
212.081, 3070.730
213.454, 3409.413
214.828, 3847.042
216.201, 4106.410
217.574, 4746.088
218.947, 4936.259
220.320, 5514.267
221.692, 5359.906
223.064, 5306.235
224.436, 5180.357
225.808, 4562.284
227.179, 4345.028
228.551, 3670.141
229.922, 3489.432
231.293, 2821.299
232.663, 2346.786
234.034, 1946.004
235.404, 1476.824
236.774, 1402.594
238.144, 978.547
239.514, 871.175
240.883, 720.368
242.252, 581.911
243.621, 508.363
244.990, 391.020
246.359, 409.859
247.727, 276.860
249.095, 335.001
250.463, 258.266
251.831, 302.641
253.198, 349.110
254.566, 291.658
255.933, 444.271
257.299, 359.066
258.666, 372.848
260.033, 311.987
261.399, 88.676
262.765, 34.331
264.131, 104.063
265.496, 54.510
266.862, 212.008
268.227, 154.558
269.592, 160.157
270.957, 234.803
272.321, 177.500
273.685, 247.254
275.050, 161.072
276.413, 145.967
277.777, 118.958
279.141, 86.068
280.504, 68.310
281.867, 3.312
283.230, 45.816
284.592, 143.219
285.955, 207.521
287.317, 158.647
288.679, 281.445
290.041, 317.809
291.403, 454.733
292.764, 574.200
294.125, 661.262
295.486, 874.008
296.847, 906.524
298.207, 1191.930
299.568, 1133.287
300.928, 1237.613
302.288, 1150.936
303.647, 1040.273
305.007, 1079.634
306.366, 757.020
307.725, 678.430
309.084, 424.866
310.443, 304.322
311.801, 202.720
313.159, 38.060
314.517, 5.236
315.875, 140.331
317.233, 121.816
318.590, 155.299
319.947, 177.825
321.304, 111.454
322.661, 113.187
324.018, 36.023
325.374, 15.989
326.730, 45.922
328.086, 136.681
329.442, 117.275
330.797, 239.705
332.153, 327.959
333.508, 484.043
334.863, 530.955
336.217, 665.688
337.572, 878.240
338.926, 913.599
340.280, 1230.770
341.634, 1289.719
342.988, 1597.413
344.341, 1898.833
345.694, 2008.981
347.047, 2439.871
348.400, 2390.517
349.753, 2653.938
351.105, 2438.149
352.457, 2280.163
353.809, 2089.983
355.161, 1735.607
356.512, 1631.037
357.864, 1332.258
359.215, 1198.251
360.566, 1016.000
361.916, 843.492
363.267, 774.736
364.617, 637.762
365.967, 680.601
367.317, 576.253
368.667, 552.596
370.016, 619.461
371.366, 601.732
372.715, 867.421
374.064, 858.540
375.412, 1004.197
376.761, 1117.482
378.109, 1013.506
379.457, 1124.400
380.805, 941.207
382.152, 959.956
383.500, 829.673
384.847, 822.378
386.194, 786.075
387.541, 728.767
388.887, 855.453
390.233, 821.135
391.580, 879.802
392.926, 953.432
394.271, 1060.975
395.617, 1143.284
396.962, 1073.333
398.307, 1166.182
399.652, 1101.918
400.997, 1015.429
402.341, 1021.483
403.686, 920.924
405.030, 1082.812
406.374, 994.246
407.717, 992.754
409.061, 1077.475
410.404, 1043.789
411.747, 1269.906
413.090, 1252.126
414.433, 1482.981
415.775, 1539.446
417.117, 1668.301
418.459, 1950.655
419.801, 1980.342
421.143, 2374.184
422.484, 2491.550
423.825, 2855.980
425.166, 3243.456
426.507, 3484.618
427.848, 4127.042
429.188, 4475.732
430.528, 5266.180
431.868, 6034.426
433.208, 6721.137
434.547, 7964.595
435.887, 8737.823
437.226, 10186.614
438.565, 11116.501
439.904, 11748.234
441.242, 12542.185
442.580, 11957.399
443.918, 12017.259
445.256, 10719.325
446.594, 9913.743
447.932, 8989.104
449.269, 7563.932
450.606, 6940.117
451.943, 5960.673
453.280, 5523.052
454.616, 5069.980
455.952, 4488.326
457.288, 4665.188
458.624, 4478.077
459.960, 4752.990
461.295, 4956.929
462.631, 5301.896
463.966, 6369.886
465.300, 7222.904
466.635, 8841.949
467.969, 10631.017
469.304, 12789.996
470.638, 15327.972
471.972, 16305.496
473.305, 17393.680
474.639, 16088.970
475.972, 14603.452
477.305, 12781.758
478.638, 10288.131
479.970, 9255.072
481.303, 7677.605
482.635, 7276.754
483.967, 6683.396
485.298, 6325.556
486.630, 6753.902
487.961, 6541.988
489.293, 7106.269
490.624, 7376.368
491.954, 7694.944
493.285, 8045.261
494.615, 7915.633
495.945, 7975.860
497.275, 7337.198
498.605, 6632.977
499.935, 5983.981
501.264, 4902.645
502.593, 4628.324
503.922, 3800.994
505.251, 3517.678
506.579, 3270.377
507.908, 2962.068
509.236, 3104.783
510.564, 2869.505
511.891, 3094.249
513.219, 3248.015
514.546, 3395.793
515.873, 3974.585
517.200, 4134.403
518.527, 5004.233
519.853, 5644.096
521.180, 6656.965
522.506, 8105.861
523.832, 9174.775
525.157, 11713.605
526.483, 14132.549
527.808, 17381.168
529.133, 21589.730
530.458, 25138.613
531.783, 31507.451
533.107, 34656.488
534.431, 39315.539
535.756, 42044.625
537.079, 41303.742
538.403, 41612.863
539.727, 37432.027
541.050, 34401.203
542.373, 30170.416
543.696, 25709.658
545.018, 22788.910
546.341, 18748.195
547.663, 16367.503
548.985, 14016.835
550.307, 11746.190
551.629, 10575.568
552.950, 8484.964
554.271, 7974.383
555.592, 6863.824
556.913, 6004.294
558.234, 5620.791
559.554, 4718.315
560.875, 4534.868
562.195, 3961.446
563.514, 3752.056
564.834, 3469.698
566.154, 3076.376
567.473, 3057.091
568.792, 2719.845
570.111, 2574.641
571.429, 2466.478
572.748, 2180.359
574.066, 2217.281
575.384, 1910.243
576.702, 1880.244
578.019, 1767.281
579.337, 1595.356
580.654, 1625.468
581.971, 1376.619
583.288, 1385.827
584.605, 1275.100
585.921, 1143.473
587.237, 1211.934
588.553, 1006.523
589.869, 1061.224
591.185, 1041.039
592.500, 913.985
593.815, 1068.047
595.130, 926.244
596.445, 1077.551
597.760, 1089.964
599.074, 1120.476
600.389, 1316.077
601.703, 1274.761
603.016, 1446.510
604.330, 1429.312
605.644, 1391.158
606.957, 1492.042
608.270, 1142.967
609.583, 1022.927
610.895, 846.920
612.208, 661.943
613.520, 600.993
614.832, 414.069
616.144, 338.168
617.455, 233.290
618.767, 235.435
620.078, 257.603
621.389, 65.793
622.700, 159.005
624.011, 61.240
625.321, 37.497
626.631, 90.775
627.941, 41.076
629.251, 76.404
630.561, 62.241
631.870, 24.868
633.180, 29.462
634.489, 121.016
635.798, 18.518
637.106, 107.946
638.415, 98.686
639.723, 91.589
641.031, 223.812
642.339, 69.030
643.647, 171.210
644.954, 50.390
646.261, 53.308
647.568, 136.442
648.875, 67.581
650.182, 104.707
651.488, 88.834
652.795, 79.133
654.101, 94.246
655.407, 1.264
656.712, 80.869
658.018, 14.592
659.323, 46.995
660.628, 57.201
661.933, 225.199
663.238, 170.501
664.542, 288.526
665.847, 334.131
667.151, 349.965
668.455, 407.059
669.758, 462.839
671.062, 518.045
672.365, 554.882
673.668, 541.045
674.971, 691.385
676.274, 626.131
677.577, 695.785
678.879, 741.794
680.181, 706.051
681.483, 845.020
682.785, 885.249
684.086, 971.592
685.388, 1057.739
686.689, 1097.091
687.990, 1297.048
689.290, 1254.557
690.591, 1520.982
691.891, 1518.537
693.192, 1652.343
694.491, 1958.121
695.791, 1935.316
697.091, 1984.990
698.390, 2026.611
699.689, 1984.885
700.988, 2010.796
702.287, 1916.956
703.586, 1939.490
704.884, 1897.006
706.182, 1740.089
707.480, 1913.568
708.778, 1711.113
710.076, 1693.612
711.373, 1679.121
712.670, 1594.214
713.968, 1591.742
715.264, 1500.404
716.561, 1571.950
717.857, 1553.504
719.154, 1313.212
720.450, 1473.783
721.746, 1252.367
723.041, 1289.954
724.337, 1266.549
725.632, 1096.150
726.927, 1107.759
728.222, 969.375
729.517, 915.997
730.811, 827.625
732.105, 720.259
733.400, 738.899
734.693, 645.545
735.987, 559.196
737.281, 531.853
738.574, 424.514
739.867, 455.179
741.160, 372.849
742.453, 333.522
743.745, 368.198
745.038, 299.877
746.330, 327.558
747.622, 239.241
748.913, 230.924
750.205, 238.606
751.496, 178.289
752.788, 245.970
754.079, 190.650
755.369, 197.327
756.660, 243.002
757.950, 233.674
759.241, 298.343
760.531, 290.008
761.820, 349.668
763.110, 455.324
764.399, 461.977
765.689, 611.624
766.978, 655.266
768.267, 753.903
769.555, 969.535
770.844, 988.161
772.132, 1173.781
773.420, 1162.396
774.708, 1126.004
775.996, 1127.606
777.283, 955.201
778.570, 1004.790
779.857, 799.373
781.144, 676.948
782.431, 710.516
783.718, 529.077
785.004, 553.630
786.290, 496.778
787.576, 415.862
788.862, 433.835
790.147, 280.914
791.433, 307.089
792.718, 313.599
794.003, 172.095
795.288, 277.135
796.572, 204.564
797.857, 214.306
799.141, 128.107
800.425, 48.371
801.709, 149.524
802.992, 86.666
804.276, 84.328
805.559, 89.646
806.842, 21.534
808.125, 67.727
809.407, 37.657
810.690, 11.434
811.972, 25.521
813.254, 91.215
814.536, 9.974
815.818, 66.862
817.099, 70.762
818.381, 17.270
819.662, 89.719
820.943, 28.787
822.223, 79.901
823.504, 74.088
824.784, 32.346
826.065, 41.654
827.345, 78.016
828.624, 16.452
829.904, 101.930
831.183, 12.505
832.462, 73.088
833.741, 12.753
835.020, 8.541
836.299, 27.195
837.577, 72.020
838.856, 56.779
840.134, 43.642
841.412, 37.436
842.689, 2.494
843.967, 24.518
845.244, 2.517
846.521, 46.482
847.798, 48.442
849.075, 6.616
850.351, 21.289
851.628, 3.171
852.904, 81.019
854.180, 63.853
855.455, 10.670
856.731, 81.457
858.006, 28.229
859.281, 42.976
860.556, 111.705
861.831, 90.419
863.106, 108.120
864.380, 108.816
865.655, 16.498
866.929, 118.151
868.202, 27.792
869.476, 120.408
870.750, 138.025
872.023, 71.628
873.296, 146.215
874.569, 105.790
875.842, 126.351
877.114, 191.900
878.386, 110.441
879.658, 182.967
880.930, 236.483
882.202, 183.984
883.474, 264.471
884.745, 194.954
886.016, 283.422
887.287, 297.875
888.558, 308.315
889.829, 403.741
891.099, 309.153
892.369, 437.552
893.639, 426.935
894.909, 385.304
896.179, 548.658
897.448, 448.998
898.718, 548.323
899.987, 577.634
901.256, 597.932
902.524, 747.214
903.793, 779.482
905.061, 839.738
906.329, 1064.978
907.597, 966.205
908.865, 1281.421
910.133, 1409.623
911.400, 1441.812
912.667, 1729.985
913.934, 1736.144
915.201, 2018.290
916.468, 2176.420
917.734, 2247.536
919.001, 2644.638
920.267, 2683.727
921.532, 2989.806
922.798, 3452.870
924.064, 3408.919
925.329, 3912.957
926.594, 3833.981
927.859, 3995.990
929.124, 4205.989
930.388, 4018.974
931.653, 4104.948
932.917, 4143.909
934.181, 3885.854
935.445, 4034.787
936.708, 3633.707
937.972, 3561.612
939.235, 3638.511
940.498, 3116.399
941.761, 3309.278
943.024, 2955.158
944.286, 2783.026
945.548, 2840.898
946.811, 2535.755
948.072, 2626.610
949.334, 2463.489
950.596, 2323.361
951.857, 2465.250
953.118, 2161.894
954.379, 2261.769
955.640, 2222.654
956.901, 2101.535
958.161, 2253.417
959.421, 2083.471
960.681, 2190.340
961.941, 2276.111
963.201, 2115.477
964.460, 2320.773
965.720, 2211.138
966.979, 2150.710
968.238, 2353.500
969.496, 2173.996
970.755, 2292.777
972.013, 2428.988
973.272, 2423.979
974.529, 2711.719
975.787, 2796.784
977.045, 3037.432
978.302, 3296.459
979.560, 3403.171
980.817, 3922.713
982.073, 3980.860
983.330, 4260.108
984.587, 4584.008
985.843, 4565.680
987.099, 4812.645
988.355, 4867.362
989.611, 4553.979
990.866, 4770.803
992.122, 4208.436
993.377, 4204.475
994.632, 4097.971
995.887, 3625.562
997.141, 3658.032
998.396, 3299.159
999.650, 3085.424
1000.904, 3069.865
1002.158, 2743.084
1003.412, 2700.529
1004.665, 2521.140
1005.918, 2287.621
1007.172, 2338.465
1008.425, 2077.028
1009.677, 2145.623
1010.930, 2121.953
1012.182, 1993.618
1013.434, 2195.219
1014.687, 2026.944
1015.938, 1937.593
1017.190, 2074.674
1018.441, 1877.840
1019.693, 1959.363
1020.944, 1760.492
1022.195, 1637.135
1023.445, 1626.636
1024.696, 1379.675
1025.946, 1319.310
1027.197, 1271.624
1028.446, 999.375
1029.696, 1046.014
1030.946, 892.542
1032.195, 842.175
1033.445, 854.806
1034.694, 696.756
1035.942, 774.385
1037.191, 706.046
1038.440, 691.820
1039.688, 822.448
1040.936, 708.518
1042.184, 692.140
1043.432, 748.767
1044.679, 655.435
1045.927, 786.057
1047.174, 722.677
1048.421, 760.573
1049.668, 855.189
1050.914, 761.976
1052.161, 909.589
1053.407, 913.242
1054.653, 842.409
1055.899, 1065.017
1057.145, 946.623
1058.391, 979.431
1059.636, 1154.032
1060.881, 1075.818
1062.126, 1235.454
1063.371, 1212.087
1064.615, 1199.908
1065.860, 1399.507
1067.104, 1336.232
1068.348, 1376.021
1069.592, 1519.616
1070.836, 1381.377
1072.079, 1605.968
1073.323, 1572.579
1074.566, 1608.789
1075.809, 1862.376
1077.052, 1730.960
1078.294, 1975.534
1079.537, 2008.115
1080.779, 1854.578
1082.021, 1964.162
1083.263, 1937.743
1084.504, 1912.686
1085.746, 1890.275
1086.987, 1657.083
1088.228, 1711.727
1089.469, 1564.322
1090.710, 1415.041
1091.951, 1435.687
1093.191, 1207.277
1094.431, 1185.261
1095.671, 1077.848
1096.911, 895.433
1098.151, 992.163
1099.390, 834.744
1100.630, 719.939
1101.869, 779.584
1103.108, 584.229
1104.346, 579.808
1105.585, 568.382
1106.823, 446.987
1108.062, 520.797
1109.300, 407.370
1110.537, 367.941
1111.775, 367.728
1113.013, 273.326
1114.250, 298.561
1115.487, 294.260
1116.724, 156.062
1117.961, 230.921
1119.197, 179.608
1120.434, 162.537
1121.670, 206.463
1122.906, 183.199
1124.142, 241.367
1125.377, 132.342
1126.613, 101.264
1127.848, 137.408
1129.083, 98.265
1130.318, 88.275
1131.553, 144.183
1132.787, 61.094
1134.022, 48.908
1135.256, 84.019
1136.490, 29.976
1137.724, 116.321
1138.957, 55.292
1140.191, 17.413
1141.424, 74.601
1142.657, 37.616
1143.890, 43.191
1145.123, 33.415
1146.355, 61.490
1147.588, 120.826
1148.820, 22.168
1150.052, 27.152
1151.284, 78.181
1152.516, 3.194
1153.747, 125.353
1154.978, 92.413
1156.209, 51.752
1157.440, 81.387
1158.671, 11.554
1159.902, 11.643
1161.132, 75.279
1162.362, 43.721
1163.592, 77.290
1164.822, 30.533
1166.052, 16.373
1167.281, 64.734
1168.511, 64.189
1169.740, 35.745
1170.969, 82.021
1172.197, 12.053
1173.426, 32.026
1174.654, 17.750
1175.883, 24.732
1177.111, 42.735
1178.338, 20.244
1179.566, 50.633
1180.794, 55.616
1182.021, 42.369
1183.248, 77.263
1184.475, 27.684
1185.702, 1.505
1186.928, 124.494
1188.155, 10.540
1189.381, 55.281
1190.607, 63.842
1191.833, 28.725
1193.059, 67.509
1194.284, 53.649
1195.509, 4.372
1196.735, 108.411
1197.960, 1.863
1199.184, 50.614
1200.409, 33.612
1201.633, 9.529
1202.858, 63.197
1204.082, 51.013
1205.306, 19.203
1206.529, 63.494
1207.753, 5.110
1208.976, 40.793
1210.199, 41.528
1211.422, 0.356
1212.645, 95.020
1213.868, 19.887
1215.090, 4.756
1216.313, 77.398
1217.535, 15.824
1218.757, 98.793
1219.978, 47.471
1221.200, 6.412
1222.421, 128.182
1223.643, 59.769
1224.864, 11.650
1226.084, 78.914
1227.305, 8.943
1228.526, 76.599
1229.746, 78.133
1230.966, 1.380
1232.186, 109.895
1233.406, 10.912
1234.625, 53.523
1235.845, 91.011
1237.064, 35.551
1238.283, 53.160
1239.502, 100.630
1240.721, 3.214
1241.939, 111.673
1243.157, 69.125
1244.376, 33.572
1245.594, 92.009
1246.811, 0.441
1248.029, 53.980
1249.247, 54.396
1250.464, 5.084
1251.681, 120.316
1252.898, 63.709
1254.115, 18.491
1255.331, 75.869
1256.548, 76.241
1257.764, 26.869
1258.980, 79.220
1260.196, 2.626
1261.411, 59.088
1262.627, 36.403
1263.842, 28.815
1265.057, 95.115
1266.272, 23.404
1267.487, 28.733
1268.702, 119.005
1269.916, 12.269
1271.130, 35.620
1272.344, 52.840
1273.558, 19.052
1274.772, 90.324
1275.986, 47.504
1277.199, 80.762
1278.412, 161.915
1279.625, 13.943
1280.838, 44.452
1282.051, 94.556
1283.263, 5.354
1284.475, 114.855
1285.687, 1.091
1286.899, 42.936
1288.111, 89.079
1289.323, 11.082
1290.534, 38.126
1291.745, 71.099
1292.957, 23.161
1294.167, 115.136
1295.378, 82.476
1296.589, 21.557
1297.799, 117.615
1299.009, 48.471
1300.219, 52.348
1301.429, 146.213
1302.639, 12.937
1303.848, 73.895
1305.057, 40.410
1306.267, 24.811
1307.476, 100.940
1308.684, 76.583
1309.893, 19.711
1311.101, 57.031
1312.310, 51.187
1313.518, 58.843
1314.725, 95.004
1315.933, 6.365
1317.141, 94.246
1318.348, 43.444
1319.555, 22.403
1320.762, 54.225
1321.969, 10.652
1323.176, 47.876
1324.382, 78.527
1325.589, 52.028
1326.795, 43.512
1328.001, 0.733
1329.206, 11.813
1330.412, 105.590
1331.617, 37.862
1332.823, 42.264
1334.028, 74.259
1335.233, 14.370
1336.437, 56.980
1337.642, 107.445
1338.846, 16.768
1340.051, 32.074
1341.255, 75.089
1342.458, 3.367
1343.662, 124.493
1344.866, 26.741
1346.069, 50.937
1347.272, 88.604
1348.475, 56.814
1349.678, 63.011
1350.880, 102.055
1352.083, 16.771
1353.285, 93.203
1354.487, 65.914
1355.689, 42.012
1356.891, 135.909
1358.093, 32.064
1359.294, 31.029
1360.495, 99.911
1361.696, 44.977
1362.897, 92.862
1364.098, 63.699
1365.298, 9.710
1366.499, 117.109
1367.699, 92.120
1368.899, 115.093
1370.099, 131.060
1371.298, 10.988
1372.498, 95.062
1373.697, 109.956
1374.896, 29.217
1376.095, 77.222
1377.294, 8.978
1378.493, 19.520
1379.691, 141.120
1380.889, 61.795
1382.087, 44.361
1383.285, 85.688
1384.483, 48.397
1385.681, 148.940
1386.878, 112.904
1388.075, 75.429
1389.272, 141.019
1390.469, 92.367
1391.666, 49.739
1392.862, 139.610
1394.059, 50.892
1395.255, 103.188
1396.451, 134.188
1397.647, 17.208
1398.842, 138.324
1400.038, 124.391
1401.233, 27.635
1402.428, 120.815
1403.623, 61.972
1404.818, 43.651
1406.013, 140.363
1407.207, 48.943
1408.401, 73.850
1409.595, 100.704
1410.789, 62.514
1411.983, 85.537
1413.177, 82.558
1414.370, 47.230
1415.563, 137.640
1416.756, 83.686
1417.949, 47.547
1419.142, 119.246
1420.335, 43.444
1421.527, 107.242
1422.719, 176.650
1423.911, 16.197
1425.103, 78.985
1426.295, 86.555
1427.486, 28.146
1428.677, 156.565
1429.869, 64.742
1431.060, 29.446
1432.250, 156.388
1433.441, 45.066
1434.632, 80.439
1435.822, 130.007
1437.012, 52.486
1438.202, 107.018
1439.392, 82.612
1440.581, 22.013
1441.771, 94.916
1442.960, 125.291
1444.149, 58.799
1445.338, 144.474
1446.527, 65.054
1447.715, 116.650
1448.904, 147.187
1450.092, 54.428
1451.280, 101.681
1452.468, 112.899
1453.656, 27.926
1454.843, 158.926
1456.031, 121.131
1457.218, 60.304
1458.405, 181.183
1459.592, 46.020
1460.778, 83.156
1461.965, 175.131
1463.151, 51.456
1464.337, 108.901
1465.523, 120.542
1466.709, 29.393
1467.895, 118.074
1469.080, 80.568
1470.266, 17.389
1471.451, 131.999
1472.636, 37.557
1473.821, 76.560
1475.005, 173.339
1476.190, 18.704
1477.374, 121.123
1478.558, 138.725
1479.742, 1.477
1480.926, 188.140
1482.109, 93.342
1483.293, 62.038
1484.476, 159.694
1485.659, 19.350
1486.842, 42.081
1488.025, 154.033
1489.207, 50.722
1490.390, 116.631
1491.572, 130.533
1492.754, 10.459
1493.936, 142.413
1495.118, 146.243
1496.299, 6.769
1497.481, 146.846
1498.662, 76.885
1499.843, 12.647
1501.024, 90.779
1502.205, 37.782
1503.385, 95.960
1504.565, 105.941
1505.746, 7.793
1506.926, 101.525
1508.106, 123.289
1509.285, 58.658
1510.465, 90.264
1511.644, 43.438
1512.823, 21.157
1514.002, 138.805
1515.181, 2.641
1516.360, 33.106
1517.538, 122.435
1518.717, 34.606
1519.895, 46.191
1521.073, 83.065
1522.251, 0.000
##END=



