##NAMES=Tilleyite
##RRUFFID=R050227
##IDEAL CHEMISTRY=Ca_5_Si_2_O_7_(CO_3_)_2_
##LOCALITY=Crestmore Quarry, Riverside County, California, USA
##OWNER=RRUFF
##SOURCE=Marcus Origlieri
##DESCRIPTION=Aggregate of colorless subhedral crystals
##STATUS=The identification of this mineral has been confirmed by X-ray diffraction.
##URL=rruff.info/R050227
##PIN_ID=L00359
##ORIENTATION=Laser parallel to (1 0 1). Fiducial mark perpendicular to laser is parallel to b [0 1 0]
95.94800, 0.0000000E+00
97.18200, 105.0420
98.41600, 2.124023
99.64900, 4.143555
100.8830, 64.83203
102.1160, 26.08984
103.3490, 231.9717
104.5820, 578.9609
105.8150, 1228.076
107.0470, 2098.696
108.2800, 3012.329
109.5120, 3613.576
110.7440, 3273.115
111.9760, 3000.685
113.2080, 2516.072
114.4400, 2235.095
115.6710, 1797.597
116.9030, 1456.436
118.1340, 1514.485
119.3650, 1690.636
120.5960, 1831.793
121.8270, 2168.875
123.0580, 2300.817
124.2880, 1972.559
125.5190, 1579.056
126.7490, 1209.262
127.9790, 986.1357
129.2090, 709.6387
130.4390, 399.7373
131.6680, 388.3955
132.8980, 279.5850
134.1270, 392.2617
135.3560, 215.3779
136.5850, 300.9014
137.8140, 299.7998
139.0430, 599.0527
140.2710, 769.6377
141.5000, 514.5410
142.7280, 573.7480
143.9560, 350.2471
145.1840, 508.0244
146.4120, 514.0771
147.6390, 561.4072
148.8670, 649.0186
150.0940, 880.7705
151.3210, 1131.512
152.5490, 1552.469
153.7750, 1931.150
155.0020, 2498.096
156.2290, 3181.280
157.4550, 3885.700
158.6810, 4026.343
159.9080, 3591.200
161.1340, 3034.264
162.3590, 2478.525
163.5850, 1944.978
164.8110, 1333.612
166.0360, 915.4199
167.2610, 483.3955
168.4860, 325.5312
169.7110, 174.7871
170.9360, 79.02344
172.1610, 36.23340
173.3850, 43.43848
174.6100, 14.66602
175.8340, 32.92969
177.0580, 83.23828
178.2820, 70.59961
179.5050, 265.0225
180.7290, 336.5098
181.9520, 240.0654
183.1760, 177.6953
184.3990, 136.4062
185.6220, 138.2480
186.8450, 206.9131
188.0670, 527.1748
189.2900, 446.2539
190.5120, 730.4189
191.7340, 925.6699
192.9560, 1086.006
194.1780, 1428.462
195.4000, 1513.109
196.6220, 1406.918
197.8430, 1578.944
199.0640, 1346.263
200.2860, 1280.786
201.5070, 1272.371
202.7270, 1304.097
203.9480, 1020.928
205.1690, 857.9170
206.3890, 488.0762
207.6090, 446.3945
208.8290, 325.8965
210.0490, 153.5420
211.2690, 185.3438
212.4890, 5.188477
213.7080, 126.0732
214.9280, 191.9941
216.1470, 144.9561
217.3660, 198.9531
218.5850, 251.9844
219.8030, 306.0479
221.0220, 532.1455
222.2400, 546.2744
223.4590, 832.4355
224.6770, 1091.633
225.8950, 1308.875
227.1120, 1413.279
228.3300, 1592.514
229.5480, 1440.871
230.7650, 1498.249
231.9820, 1312.649
233.1990, 1286.071
234.4160, 1169.512
235.6330, 816.9746
236.8490, 735.4541
238.0660, 562.9502
239.2820, 644.4629
240.4980, 567.9883
241.7140, 452.5273
242.9300, 493.6875
244.1460, 589.3457
245.3610, 561.7568
246.5770, 678.6299
247.7920, 1024.058
249.0070, 1098.166
250.2220, 1288.121
251.4370, 1409.301
252.6510, 1987.687
253.8660, 2362.264
255.0800, 2921.013
256.2940, 3547.925
257.5080, 4378.986
258.7220, 4930.193
259.9360, 5432.528
261.1490, 5556.990
262.3630, 5140.570
263.5760, 4871.262
264.7890, 4435.058
266.0020, 3826.952
267.2150, 3370.943
268.4270, 3135.024
269.6400, 2842.191
270.8520, 2911.810
272.0640, 2909.141
273.2760, 3061.568
274.4880, 3133.888
275.7000, 3431.437
276.9120, 3928.052
278.1230, 3942.730
279.3340, 4165.472
280.5450, 4320.274
281.7560, 4343.158
282.9670, 4468.137
284.1780, 4722.784
285.3880, 4835.869
286.5980, 4919.197
287.8090, 5009.381
289.0190, 5088.176
290.2290, 4946.828
291.4380, 5023.377
292.6480, 4889.790
293.8570, 4972.100
295.0670, 5030.308
296.2760, 5809.221
297.4850, 6525.252
298.6930, 7444.477
299.9020, 8476.657
301.1110, 9220.920
302.3190, 9784.215
303.5270, 8962.123
304.7350, 8192.112
305.9430, 7146.040
307.1510, 6370.321
308.3580, 5522.488
309.5660, 4755.537
310.7730, 4408.770
311.9800, 4149.646
313.1870, 3972.330
314.3940, 3546.311
315.6010, 3595.718
316.8070, 3289.546
318.0130, 3040.622
319.2200, 2905.395
320.4260, 2816.549
321.6310, 2495.388
322.8370, 2251.482
324.0430, 2207.234
325.2480, 1768.327
326.4540, 1655.870
327.6590, 1505.547
328.8640, 1318.740
330.0680, 1150.251
331.2730, 1020.397
332.4780, 969.9141
333.6820, 940.3105
334.8860, 992.6221
336.0900, 1044.940
337.2940, 1173.188
338.4980, 1352.574
339.7010, 1487.771
340.9050, 1739.259
342.1080, 1718.463
343.3110, 2166.669
344.5140, 2367.361
345.7170, 2753.568
346.9200, 3253.773
348.1220, 3602.978
349.3240, 4141.863
350.5270, 4681.363
351.7290, 5100.968
352.9310, 5610.298
354.1320, 6127.557
355.3340, 6009.621
356.5350, 5818.396
357.7370, 5314.811
358.9380, 4784.963
360.1390, 4249.105
361.3400, 3725.238
362.5400, 3141.362
363.7410, 2702.475
364.9410, 2229.584
366.1410, 1832.793
367.3410, 1619.032
368.5410, 1351.104
369.7410, 1040.164
370.9400, 1007.231
372.1400, 891.6367
373.3390, 712.7529
374.5380, 734.7637
375.7370, 604.7764
376.9360, 322.7598
378.1350, 249.7305
379.3330, 246.6865
380.5310, 206.6299
381.7300, 158.5586
382.9280, 310.4727
384.1260, 221.3711
385.3230, 54.25488
386.5210, 50.87598
387.7180, 117.9873
388.9160, 97.85840
390.1130, 231.7383
391.3100, 41.62402
392.5060, 119.5137
393.7030, 117.4092
394.9000, 127.3047
396.0960, 76.19824
397.2920, 147.0918
398.4880, 44.98340
399.6840, 35.86914
400.8800, 110.7559
402.0750, 236.6348
403.2710, 233.5088
404.4660, 275.3760
405.6610, 142.2354
406.8560, 89.08594
408.0510, 136.1807
409.2450, 186.0146
410.4400, 51.83691
411.6340, 142.6494
412.8280, 189.4482
414.0220, 10.52344
415.2160, 60.54688
416.4100, 62.34082
417.6030, 19.50684
418.7970, 220.4385
419.9900, 52.22852
421.1830, 146.8838
422.3760, 191.9082
423.5690, 136.4854
424.7610, 159.8555
425.9540, 79.77637
427.1460, 3.571289
428.3380, 109.4697
429.5300, 15.66016
430.7220, 70.84277
431.9140, 1.804688
433.1050, 26.92383
434.2970, 24.93555
435.4880, 114.4141
436.6790, 0.8701170
437.8700, 5.609375
439.0610, 147.1328
440.2510, 19.65918
441.4420, 100.5254
442.6320, 193.5410
443.8220, 1.250000
445.0120, 143.4023
446.2020, 75.96875
447.3910, 66.38672
448.5810, 92.51953
449.7700, 56.79297
450.9600, 5.611328
452.1490, 93.27539
453.3370, 51.29688
454.5260, 12.11914
455.7150, 55.47656
456.9030, 42.91211
458.0910, 32.43945
459.2800, 6.011719
460.4670, 104.2480
461.6550, 66.17969
462.8430, 8.937500
464.0300, 64.32617
465.2180, 13.36914
466.4050, 108.4609
467.5920, 213.4219
468.7790, 85.93555
469.9650, 73.95898
471.1520, 174.4121
472.3380, 103.8535
473.5250, 207.2422
474.7110, 214.6074
475.8970, 68.94922
477.0820, 207.2461
478.2680, 171.5801
479.4540, 192.8066
480.6390, 163.9980
481.8240, 249.2773
483.0090, 146.4121
484.1940, 254.5078
485.3780, 257.5742
486.5630, 114.6074
487.7470, 337.6016
488.9320, 341.5605
490.1160, 242.4785
491.3000, 99.36328
492.4830, 161.2051
493.6670, 138.0078
494.8500, 73.69727
496.0340, 78.56055
497.2170, 23.27930
498.4000, 120.9414
499.5820, 185.5820
500.7650, 338.1875
501.9480, 393.6543
503.1300, 424.4688
504.3120, 452.8281
505.4940, 435.3105
506.6760, 258.7539
507.8580, 234.1582
509.0390, 226.5254
510.2210, 327.8770
511.4020, 352.1914
512.5830, 265.4668
513.7640, 183.7051
514.9450, 251.9199
516.1250, 342.0977
517.3060, 274.2559
518.4860, 435.3926
519.6660, 402.4922
520.8460, 632.5605
522.0260, 716.5898
523.2060, 1004.572
524.3850, 1107.520
525.5650, 1216.422
526.7440, 1277.287
527.9230, 1278.812
529.1020, 1229.057
530.2810, 1219.410
531.4590, 1038.141
532.6380, 990.8281
533.8160, 920.5098
534.9940, 804.1504
536.1720, 742.4102
537.3500, 669.3066
538.5270, 575.8203
539.7050, 500.2910
540.8820, 426.8711
542.0590, 399.9766
543.2360, 449.3184
544.4130, 384.8262
545.5900, 586.0840
546.7660, 396.4668
547.9430, 531.8008
549.1190, 261.9727
550.2950, 621.5742
551.4710, 428.6582
552.6470, 396.6953
553.8220, 369.6914
554.9980, 271.6543
556.1730, 258.2051
557.3480, 246.2148
558.5230, 300.8770
559.6980, 268.8164
560.8730, 303.5469
562.0470, 347.2285
563.2220, 241.8672
564.3960, 166.4590
565.5700, 3.998047
566.7440, 52.55859
567.9170, 317.7598
569.0910, 130.4141
570.2640, 300.6270
571.4380, 293.6035
572.6110, 225.7207
573.7840, 115.2285
574.9570, 230.8633
576.1290, 275.5996
577.3020, 162.4668
578.4740, 25.42773
579.6460, 324.4609
580.8180, 236.7832
581.9900, 304.9746
583.1620, 145.9590
584.3330, 29.97070
585.5040, 130.8711
586.6760, 156.7207
587.8470, 149.0605
589.0180, 93.17578
590.1880, 120.9902
591.3590, 158.1055
592.5290, 94.33398
593.7000, 124.7734
594.8700, 70.51953
596.0400, 201.6289
597.2090, 195.8652
598.3790, 195.8789
599.5490, 186.3438
600.7180, 134.9961
601.8870, 91.74414
603.0560, 193.7480
604.2250, 15.23828
605.3940, 321.1133
606.5620, 143.3496
607.7300, 172.3535
608.8990, 325.8926
610.0670, 139.7168
611.2350, 271.0840
612.4020, 250.2148
613.5700, 318.9023
614.7370, 316.4121
615.9050, 309.7051
617.0720, 318.2363
618.2390, 240.4609
619.4060, 327.5039
620.5720, 324.5859
621.7390, 230.1777
622.9050, 369.9629
624.0710, 353.7539
625.2370, 354.3555
626.4030, 520.5039
627.5690, 369.9316
628.7340, 485.8262
629.9000, 519.6621
631.0650, 658.4609
632.2300, 701.6270
633.3950, 779.0449
634.5600, 1156.111
635.7240, 1160.248
636.8890, 1548.775
638.0530, 1731.912
639.2170, 2283.510
640.3810, 2783.193
641.5450, 3447.643
642.7080, 4278.504
643.8720, 5142.619
645.0350, 6359.953
646.1980, 7105.410
647.3610, 7286.662
648.5240, 7082.766
649.6870, 6302.117
650.8490, 5460.473
652.0120, 4359.574
653.1740, 3434.619
654.3360, 2669.506
655.4980, 2140.402
656.6600, 1926.730
657.8210, 1208.049
658.9830, 1193.920
660.1440, 935.4512
661.3050, 937.2441
662.4660, 775.0020
663.6270, 520.7188
664.7870, 649.3965
665.9480, 512.0391
667.1080, 598.0566
668.2680, 537.6230
669.4280, 426.1074
670.5880, 368.6641
671.7480, 494.1230
672.9070, 505.8652
674.0670, 384.2480
675.2260, 486.5898
676.3850, 307.8965
677.5440, 449.1641
678.7030, 319.3945
679.8610, 233.5879
681.0200, 141.7441
682.1780, 281.8535
683.3360, 215.9297
684.4940, 389.3594
685.6520, 233.9609
686.8090, 243.7402
687.9670, 366.6641
689.1240, 172.2969
690.2810, 296.1387
691.4380, 382.9473
692.5950, 286.7188
693.7520, 456.5645
694.9080, 569.0215
696.0650, 566.1055
697.2210, 720.6562
698.3770, 693.1426
699.5330, 743.4609
700.6880, 893.8828
701.8440, 961.3887
702.9990, 764.4746
704.1550, 613.9531
705.3100, 593.5879
706.4650, 441.6191
707.6190, 546.8672
708.7740, 393.6660
709.9290, 267.7773
711.0830, 390.8203
712.2370, 515.5391
713.3910, 672.8906
714.5450, 628.5898
715.6980, 714.4414
716.8520, 767.5684
718.0050, 660.1797
719.1580, 688.9746
720.3110, 520.9336
721.4640, 612.9238
722.6170, 380.9746
723.7700, 346.6035
724.9220, 295.6113
726.0740, 63.99609
727.2260, 335.2695
728.3780, 219.7734
729.5300, 217.6621
730.6810, 112.9785
731.8330, 99.51953
732.9840, 188.4609
734.1350, 160.5703
735.2860, 248.1445
736.4370, 141.7148
737.5880, 162.2949
738.7380, 26.15625
739.8880, 155.9629
741.0390, 54.68555
742.1890, 0.2656250
743.3380, 151.1445
744.4880, 70.26562
745.6380, 20.44727
746.7870, 273.0137
747.9360, 0.2167970
749.0850, 76.97461
750.2340, 55.67188
751.3830, 60.31836
752.5310, 1.042969
753.6800, 23.86914
754.8280, 183.1016
755.9760, 125.6367
757.1240, 123.0781
758.2720, 340.5664
759.4190, 14.03320
760.5670, 12.34766
761.7140, 100.7383
762.8610, 49.10938
764.0080, 24.44922
765.1550, 111.7578
766.3020, 97.32812
767.4480, 210.3184
768.5950, 169.5664
769.7410, 78.79297
770.8870, 99.00195
772.0330, 75.81055
773.1780, 42.03906
774.3240, 175.3574
775.4690, 8.599609
776.6140, 44.58789
777.7590, 39.36914
778.9040, 274.3027
780.0490, 74.78516
781.1940, 22.05664
782.3380, 265.8711
783.4820, 48.66797
784.6260, 99.44531
785.7700, 81.20312
786.9140, 77.05273
788.0580, 37.61914
789.2010, 120.2715
790.3450, 198.9082
791.4880, 62.47070
792.6310, 187.0879
793.7730, 66.36719
794.9160, 51.88477
796.0590, 184.5430
797.2010, 10.04688
798.3430, 72.33789
799.4850, 127.7031
800.6270, 174.0566
801.7690, 259.3926
802.9100, 105.7188
804.0520, 6.027344
805.1930, 150.3223
806.3340, 84.39844
807.4750, 18.81641
808.6160, 60.01758
809.7560, 124.7949
810.8970, 141.3105
812.0370, 98.40430
813.1770, 97.48633
814.3170, 61.55664
815.4570, 154.6172
816.5960, 183.6680
817.7360, 35.55469
818.8750, 152.8652
820.0140, 35.88672
821.1530, 4.312500
822.2920, 91.31641
823.4310, 79.75195
824.5690, 60.25000
825.7070, 20.12695
826.8460, 48.52148
827.9840, 199.3867
829.1220, 185.2422
830.2590, 56.91016
831.3970, 188.9043
832.5340, 27.71289
833.6710, 86.51758
834.8080, 35.31641
835.9450, 204.1094
837.0820, 149.8965
838.2190, 269.6816
839.3550, 35.46094
840.4910, 133.2383
841.6270, 232.0117
842.7630, 328.8105
843.8990, 189.6426
845.0350, 204.4727
846.1700, 105.3047
847.3060, 169.1348
848.4410, 125.7832
849.5760, 246.7910
850.7100, 123.6230
851.8450, 59.45703
852.9800, 109.2871
854.1140, 183.1211
855.2480, 67.97461
856.3820, 195.8262
857.5160, 172.2891
858.6500, 175.5332
859.7830, 187.3867
860.9170, 121.2559
862.0500, 90.12891
863.1830, 189.8906
864.3160, 402.7695
865.4480, 419.6602
866.5810, 535.5508
867.7130, 749.0820
868.8460, 378.5078
869.9780, 354.4238
871.1100, 161.3105
872.2410, 365.2402
873.3730, 225.0742
874.5050, 242.0059
875.6360, 203.3066
876.7670, 44.24414
877.8980, 358.2246
879.0290, 221.3359
880.1590, 17.64258
881.2900, 356.7363
882.4200, 113.6738
883.5500, 232.7070
884.6800, 330.9844
885.8100, 249.5586
886.9400, 534.8301
888.0690, 506.9473
889.1990, 434.5781
890.3280, 606.1738
891.4570, 821.2480
892.5860, 873.3281
893.7140, 1230.414
894.8430, 1310.512
895.9710, 1415.938
897.1000, 1756.336
898.2280, 2288.404
899.3560, 3034.910
900.4830, 3994.873
901.6110, 5537.025
902.7380, 7563.162
903.8660, 10687.33
904.9930, 14202.52
906.1200, 18242.61
907.2460, 21037.81
908.3730, 19415.22
909.5000, 16313.82
910.6260, 12364.06
911.7520, 8988.859
912.8780, 6593.455
914.0040, 4388.289
915.1290, 3044.598
916.2550, 2394.473
917.3800, 1962.066
918.5050, 1406.416
919.6300, 1157.621
920.7550, 1184.998
921.8800, 1025.393
923.0040, 1202.473
924.1290, 997.6797
925.2530, 1082.117
926.3770, 1362.572
927.5010, 1379.812
928.6250, 1279.301
929.7480, 1236.424
930.8720, 1004.525
931.9950, 989.0645
933.1180, 796.9238
934.2410, 554.5000
935.3640, 713.0918
936.4860, 472.7051
937.6090, 383.3359
938.7310, 335.9863
939.8530, 335.2422
940.9750, 225.9297
942.0970, 251.6875
943.2180, 312.0527
944.3400, 439.1035
945.4610, 558.5508
946.5820, 769.3418
947.7030, 1033.156
948.8240, 1159.992
949.9450, 1524.867
951.0650, 1934.766
952.1860, 2044.684
953.3060, 2021.627
954.4260, 1908.598
955.5460, 1615.592
956.6650, 1137.211
957.7850, 593.6484
958.9040, 859.8926
960.0230, 701.9844
961.1420, 408.0977
962.2610, 494.2383
963.3800, 69.40820
964.4990, 458.6016
965.6170, 199.7090
966.7350, 199.9531
967.8530, 321.2246
968.9710, 101.5215
970.0890, 315.8535
971.2070, 140.2090
972.3240, 191.5938
973.4410, 429.0059
974.5580, 459.4434
975.6750, 561.9102
976.7920, 496.4023
977.9090, 782.9238
979.0250, 705.4727
980.1410, 776.0488
981.2580, 781.6504
982.3740, 1043.281
983.4890, 1117.939
984.6050, 852.6270
985.7200, 661.3418
986.8360, 417.0840
987.9510, 280.8555
989.0660, 157.2070
990.1810, 66.94531
991.2950, 73.34180
992.4100, 81.22656
993.5240, 236.1426
994.6390, 478.1191
995.7530, 196.1191
996.8660, 2.193359
997.9800, 201.3164
999.0940, 328.5059
1000.207, 380.7266
1001.320, 348.9746
1002.433, 644.6855
1003.546, 398.0020
1004.659, 513.3496
1005.772, 618.7266
1006.884, 541.1367
1007.996, 961.5762
1009.108, 845.6016
1010.220, 726.1230
1011.332, 1208.672
1012.444, 1473.963
1013.555, 1508.699
1014.666, 980.0742
1015.777, 731.7695
1016.888, 886.5156
1017.999, 502.2910
1019.110, 551.1133
1020.220, 443.9629
1021.331, 402.8516
1022.441, 455.7734
1023.551, 530.7383
1024.661, 220.7402
1025.770, 310.7773
1026.880, 197.8438
1027.989, 140.4277
1029.098, 162.5586
1030.207, 327.7285
1031.316, 158.9375
1032.425, 33.38672
1033.533, 180.6641
1034.642, 71.97656
1035.750, 188.3242
1036.858, 70.70312
1037.966, 5.113281
1039.073, 39.55664
1040.181, 36.22266
1041.288, 94.54297
1042.396, 115.0039
1043.503, 232.6289
1044.610, 190.3906
1045.716, 193.0898
1046.823, 335.8613
1047.929, 362.1289
1049.036, 40.97070
1050.142, 132.8672
1051.248, 78.80273
1052.353, 4.580078
1053.459, 23.77344
1054.564, 34.80859
1055.670, 114.8770
1056.775, 252.0078
1057.880, 274.8691
1058.985, 436.3672
1060.089, 329.5977
1061.194, 325.8809
1062.298, 209.2012
1063.402, 389.5762
1064.506, 293.0039
1065.610, 183.4668
1066.713, 541.9688
1067.817, 387.5039
1068.920, 331.0723
1070.023, 500.6758
1071.126, 785.3125
1072.229, 832.9824
1073.332, 1415.686
1074.435, 1963.426
1075.537, 3197.223
1076.639, 4746.057
1077.741, 8071.926
1078.843, 13814.86
1079.945, 13902.51
1081.046, 14063.47
1082.148, 14855.00
1083.249, 10173.07
1084.350, 7197.168
1085.451, 4662.309
1086.551, 3993.477
1087.652, 3504.680
1088.752, 4608.914
1089.853, 6416.188
1090.953, 9666.516
1092.053, 16152.90
1093.152, 25286.32
1094.252, 25089.77
1095.351, 17063.82
1096.451, 11042.33
1097.550, 7278.883
1098.649, 3956.480
1099.748, 2122.109
1100.846, 1106.773
1101.945, 911.0781
1103.043, 581.8086
1104.141, 648.5703
1105.239, 433.3672
1106.337, 459.1914
1107.434, 347.3594
1108.532, 125.2500
1109.629, 333.1797
1110.726, 206.1406
1111.823, 175.1367
1112.920, 279.1680
1114.017, 213.2266
1115.113, 243.3242
1116.210, 163.4492
1117.306, 253.6133
1118.402, 424.8047
1119.498, 652.0312
1120.593, 576.3047
1121.689, 476.5820
1122.784, 457.9062
1123.879, 546.2656
1124.974, 500.0078
1126.069, 668.7109
1127.164, 266.1602
1128.259, 210.1562
1129.353, 37.14453
1130.447, 131.3633
1131.541, 22.93750
1132.635, 228.5391
1133.729, 47.82812
1134.822, 178.6719
1135.916, 212.3516
1137.009, 76.06641
1138.102, 273.8086
1139.195, 326.5977
1140.288, 21.58594
1141.380, 13.25000
1142.473, 102.8789
1143.565, 117.2500
1144.657, 35.90625
1145.749, 8.699219
1146.841, 101.5977
1147.932, 218.9570
1149.024, 182.9141
1150.115, 35.89453
1151.206, 61.91016
1152.297, 49.95312
1153.388, 140.0195
1154.479, 244.1172
1155.569, 144.2422
1156.659, 208.3945
1157.750, 310.5781
1158.839, 15.21484
1159.929, 261.0156
1161.019, 335.2773
1162.108, 199.5625
1163.198, 33.12500
1164.287, 139.2031
1165.376, 298.5625
1166.465, 27.94531
1167.553, 328.3633
1168.642, 37.81250
1169.730, 70.28125
1170.818, 167.7812
1171.906, 128.3086
1172.994, 46.14062
1174.082, 128.4219
1175.170, 49.98828
1176.257, 291.6055
1177.344, 101.0547
1178.431, 55.29688
1179.518, 144.3516
1180.605, 81.02734
1181.691, 129.7305
1182.778, 221.4570
1183.864, 231.2070
1184.950, 247.2188
1186.036, 178.9648
1187.122, 237.7930
1188.207, 310.6445
1189.292, 334.5391
1190.378, 215.4570
1191.463, 292.3945
1192.548, 15.36328
1193.632, 422.3516
1194.717, 249.3633
1195.801, 297.4023
1196.886, 52.46484
1197.970, 246.5469
1199.054, 106.6562
1200.137, 117.7891
1201.221, 210.9414
1202.305, 91.12109
1203.388, 236.3164
1204.471, 149.5391
1205.554, 288.7891
1206.637, 263.0703
1207.719, 206.3750
1208.802, 345.7031
1209.884, 95.05078
1210.966, 151.4219
1212.048, 77.18750
1213.130, 194.1875
1214.212, 355.5898
1215.293, 63.01172
1216.374, 323.4570
1217.456, 133.9180
1218.536, 374.4023
1219.617, 230.9336
1220.698, 357.4766
1221.778, 132.0508
1222.859, 232.6367
1223.939, 339.2500
1225.019, 0.8828130
1226.099, 173.5312
1227.178, 392.1953
1228.258, 289.8867
1229.337, 231.5938
1230.417, 342.3242
1231.496, 19.93359
1232.574, 245.8203
1233.653, 220.5898
1234.732, 234.3828
1235.810, 368.1875
1236.888, 11.01562
1237.966, 262.8594
1239.044, 603.7188
1240.122, 304.0938
1241.199, 227.8828
1242.277, 290.8047
1243.354, 516.7539
1244.431, 162.7227
1245.508, 390.7109
1246.585, 173.7109
1247.661, 437.1680
1248.738, 286.2070
1249.814, 221.2617
1250.890, 286.3359
1251.966, 237.4297
1253.042, 344.5391
1254.117, 15.66797
1255.193, 102.1953
1256.268, 319.9102
1257.343, 160.9766
1258.418, 48.91797
1259.493, 144.8789
1260.567, 91.10547
1261.642, 134.1055
1262.716, 165.1211
1263.790, 3.722656
1264.864, 274.7617
1265.938, 339.8047
1267.011, 149.8750
1268.085, 136.7578
1269.158, 152.8633
1270.231, 135.4258
1271.304, 159.5625
1272.377, 257.7148
1273.450, 132.1758
1274.522, 168.2500
1275.594, 181.4453
1276.666, 11.65234
1277.738, 149.8789
1278.810, 364.1133
1279.882, 360.3672
1280.953, 337.6406
1282.025, 373.9219
1283.096, 265.2266
1284.167, 305.4414
1285.238, 348.8711
1286.308, 286.2148
1287.379, 317.5742
1288.449, 239.4648
1289.519, 332.8477
1290.589, 314.2500
1291.659, 208.6680
1292.729, 269.8945
1293.798, 363.3359
1294.868, 312.7969
1295.937, 554.2461
1297.006, 355.7344
1298.075, 357.2344
1299.143, 224.7695
1300.212, 341.3242
1301.280, 154.8867
1302.348, 161.5703
1303.416, 187.1562
1304.484, 190.6562
1305.552, 54.73047
1306.620, 49.86719
1307.687, 42.75000
1308.754, 280.6289
1309.821, 195.2617
1310.888, 300.9062
1311.955, 399.5703
1313.021, 21.23828
1314.088, 353.9219
1315.154, 133.6172
1316.220, 305.3242
1317.286, 470.2656
1318.352, 349.9883
1319.417, 270.7227
1320.483, 322.4727
1321.548, 433.4023
1322.613, 64.16797
1323.678, 420.9414
1324.743, 303.7383
1325.807, 154.5352
1326.872, 248.3477
1327.936, 417.1758
1329.000, 208.0117
1330.064, 385.9961
1331.128, 342.8516
1332.191, 421.7227
1333.255, 394.6055
1334.318, 248.0117
1335.381, 204.9141
1336.444, 343.8281
1337.507, 264.7734
1338.569, 307.6016
1339.632, 273.6406
1340.694, 381.4727
1341.756, 329.4375
1342.818, 484.4219
1343.880, 439.6250
1344.941, 483.7695
1346.003, 413.4141
1347.064, 436.6484
1348.125, 464.6758
1349.186, 412.6445
1350.247, 447.1094
1351.308, 368.8008
1352.368, 461.4805
1353.428, 474.2656
1354.489, 472.3516
1355.549, 449.4062
1356.608, 188.5586
1357.668, 371.6719
1358.727, 208.7969
1359.787, 247.3086
1360.846, 200.4375
1361.905, 353.5742
1362.964, 375.7266
1364.022, 234.8867
1365.081, 103.7539
1366.139, 133.9414
1367.197, 17.13281
1368.255, 6.335938
1369.313, 224.5469
1370.371, 302.2383
1371.428, 397.4688
1372.486, 456.7148
1373.543, 192.9531
1374.600, 21.20312
1375.657, 414.4609
1376.713, 125.7266
1377.770, 325.0117
1378.826, 252.2969
1379.882, 447.6016
1380.938, 191.9102
1381.994, 457.8750
1383.050, 174.9336
1384.106, 164.2383
1385.161, 77.04297
1386.216, 326.8906
1387.271, 259.5547
1388.326, 71.90625
1389.381, 480.2656
1390.435, 72.64062
1391.490, 291.1797
1392.544, 7.359375
1393.598, 110.0156
1394.652, 40.60156
1395.705, 220.8633
1396.759, 80.25781
1397.812, 284.6680
1398.866, 145.0312
1399.919, 213.4648
1400.972, 294.8828
1402.024, 165.3047
1403.077, 265.7383
1404.129, 443.7461
1405.181, 102.2031
1406.233, 544.6641
1407.285, 221.7930
1408.337, 663.4844
1409.389, 330.9766
1410.440, 357.4336
1411.491, 434.8945
1412.542, 353.3633
1413.593, 357.0078
1414.644, 467.4883
1415.695, 300.9844
1416.745, 281.4883
1417.795, 270.0000
1418.845, 248.5391
1419.895, 174.3633
1420.945, 364.9023
1421.995, 25.54688
1423.044, 47.00000
1424.093, 618.3398
1425.142, 249.5273
1426.191, 380.1016
1427.240, 207.7266
1428.289, 229.3047
1429.337, 213.8906
1430.385, 268.4961
1431.433, 122.1172
1432.481, 104.9219
1433.529, 289.5742
1434.577, 133.2344
1435.624, 224.9062
1436.672, 191.5625
1437.719, 404.1719
1438.766, 208.6016
1439.812, 370.2422
1440.859, 293.7148
1441.905, 203.2109
1442.952, 63.37109
1443.998, 230.9062
1445.044, 39.08984
1446.090, 73.19531
1447.135, 12.56641
1448.181, 116.2344
1449.226, 156.9844
1450.271, 25.74219
1451.316, 190.5195
1452.361, 95.30469
1453.405, 99.10156
1454.450, 269.8906
1455.494, 15.67969
1456.538, 340.4727
1457.582, 206.3008
1458.626, 122.1562
1459.670, 48.98047
1460.713, 157.8789
1461.757, 66.71484
1462.800, 312.5664
1463.843, 423.4180
1464.886, 57.28516
1465.928, 274.1562
1466.971, 160.0547
1468.013, 78.96875
1469.055, 302.8906
1470.097, 225.8281
1471.139, 158.0781
1472.181, 73.00000
1473.222, 82.91016
1474.263, 497.2852
1475.305, 74.21094
1476.346, 305.1367
1477.386, 2.074219
1478.427, 13.06250
1479.468, 103.1484
1480.508, 96.39062
1481.548, 165.7031
1482.588, 233.7109
1483.628, 255.2930
1484.668, 315.4062
1485.707, 321.7266
1486.747, 232.0586
1487.786, 227.4102
1488.825, 193.7812
1489.864, 283.1758
1490.902, 480.5703
1491.941, 150.9844
1492.979, 373.4141
1494.017, 184.8633
1495.055, 38.67578
1496.093, 59.80859
1497.131, 246.3047
1498.168, 290.5156
1499.206, 394.7070
1500.243, 405.3828
1501.280, 485.8203
1502.317, 401.2773
1503.354, 321.8125
1504.390, 144.3633
1505.426, 170.9844
1506.463, 229.5312
1507.499, 205.1484
1508.535, 332.5977
1509.570, 410.1484
1510.606, 303.4023
1511.641, 108.0000
1512.676, 426.6328
1513.711, 152.2812
1514.746, 295.6523
1515.781, 383.3359
1516.816, 63.19531
1517.850, 453.7656
1518.884, 150.3594
1519.918, 74.96484
1520.952, 227.5898
1521.986, 384.2461
1523.019, 320.8281
1524.053, 84.27344
1525.086, 310.1172
1526.119, 356.8047
1527.152, 329.2148
1528.185, 443.6289
1529.217, 195.1523
1530.250, 320.6719
1531.282, 21.17578
1532.314, 65.67578
1533.346, 291.1562
1534.377, 240.2656
1535.409, 387.4414
1536.440, 277.6289
1537.472, 78.78516
1538.503, 266.8984
1539.534, 204.9570
1540.564, 174.0977
1541.595, 266.3398
1542.625, 125.5312
1543.656, 66.67969
1544.686, 227.5078
1545.716, 305.8398
1546.745, 187.7305
1547.775, 23.22656
1548.804, 53.18359
1549.834, 357.7070
1550.863, 143.6094
1551.892, 343.4883
1552.920, 298.8398
1553.949, 298.1250
1554.977, 330.3125
1556.006, 392.7383
1557.034, 184.2891
1558.062, 317.2422
1559.089, 508.9336
1560.117, 254.6367
1561.144, 109.2852
1562.172, 155.6797
1563.199, 61.51172
1564.226, 133.0234
1565.252, 115.8750
1566.279, 120.5508
1567.305, 225.8789
1568.332, 155.7031
1569.358, 149.7148
1570.384, 0.9414060
1571.409, 0.0000000E+00
##END=



