##NAMES=Tilleyite
##RRUFFID=R050227
##IDEAL CHEMISTRY=Ca_5_Si_2_O_7_(CO_3_)_2_
##LOCALITY=Crestmore Quarry, Riverside County, California, USA
##OWNER=RRUFF
##SOURCE=Marcus Origlieri
##DESCRIPTION=Aggregate of colorless subhedral crystals
##STATUS=The identification of this mineral has been confirmed by X-ray diffraction.
##URL=rruff.info/R050227
##PIN_ID=L00359
##ORIENTATION=Laser parallel to (1 0 1). Fiducial mark perpendicular to laser is parallel to b [0 1 0]
95.94800, 0.0000000E+00
97.18200, 164.6943
98.41600, 156.8110
99.64900, 321.6035
100.8830, 122.1714
102.1160, 141.6807
103.3490, 41.11377
104.5820, 316.0083
105.8150, 623.3848
107.0470, 928.5186
108.2800, 1769.990
109.5120, 2046.469
110.7440, 1849.697
111.9760, 1666.531
113.2080, 1466.789
114.4400, 1273.308
115.6710, 1142.022
116.9030, 1229.723
118.1340, 1448.307
119.3650, 1684.690
120.5960, 2309.800
121.8270, 2710.572
123.0580, 2807.960
124.2880, 2465.924
125.5190, 1895.535
126.7490, 1304.115
127.9790, 943.1162
129.2090, 785.5088
130.4390, 666.2783
131.6680, 500.4053
132.8980, 495.9023
134.1270, 504.6582
135.3560, 461.6953
136.5850, 567.9941
137.8140, 880.5361
139.0430, 1097.310
140.2710, 1317.301
141.5000, 1518.539
142.7280, 1850.896
143.9560, 1872.486
145.1840, 2050.260
146.4120, 2264.220
147.6390, 1942.366
148.8670, 1921.706
150.0940, 1559.244
151.3210, 1523.977
152.5490, 1477.964
153.7750, 1685.074
155.0020, 2123.052
156.2290, 2398.463
157.4550, 2630.834
158.6810, 2898.424
159.9080, 2706.129
161.1340, 2022.990
162.3590, 1319.000
163.5850, 910.1514
164.8110, 638.4346
166.0360, 292.8457
167.2610, 266.3789
168.4860, 3.027344
169.7110, 199.7754
170.9360, 14.55957
172.1610, 28.66504
173.3850, 82.06152
174.6100, 111.7695
175.8340, 121.5068
177.0580, 231.2822
178.2820, 516.0996
179.5050, 480.9648
180.7290, 537.8799
181.9520, 643.8467
183.1760, 566.8691
184.3990, 386.9473
185.6220, 370.0889
186.8450, 301.2939
188.0670, 182.5635
189.2900, 334.8936
190.5120, 343.2812
191.7340, 527.7256
192.9560, 638.2344
194.1780, 875.8770
195.4000, 1127.653
196.6220, 1286.576
197.8430, 1278.678
199.0640, 1303.934
200.2860, 1068.394
201.5070, 934.0439
202.7270, 849.8545
203.9480, 613.8057
205.1690, 498.8555
206.3890, 291.9668
207.6090, 358.1738
208.8290, 0.5175780
210.0490, 49.85156
211.2690, 108.3262
212.4890, 112.1201
213.7080, 37.50000
214.9280, 170.8311
216.1470, 83.85840
217.3660, 30.56738
218.5850, 34.29004
219.8030, 4.027344
221.0220, 1.778320
222.2400, 27.54492
223.4590, 248.3291
224.6770, 273.1299
225.8950, 349.9434
227.1120, 578.7803
228.3300, 558.6133
229.5480, 639.4160
230.7650, 635.2285
231.9820, 535.0488
233.1990, 684.8760
234.4160, 706.7119
235.6330, 532.5605
236.8490, 454.4199
238.0660, 539.2871
239.2820, 477.1611
240.4980, 399.0361
241.7140, 429.9160
242.9300, 424.7969
244.1460, 426.0742
245.3610, 404.6553
246.5770, 512.4141
247.7920, 568.6104
249.0070, 655.5000
250.2220, 653.8662
251.4370, 792.4287
252.6510, 916.1426
253.8660, 958.9951
255.0800, 1274.975
256.2940, 1458.071
257.5080, 1602.277
258.7220, 1818.585
259.9360, 1971.985
261.1490, 1836.474
262.3630, 1843.045
263.5760, 1655.693
264.7890, 1599.414
266.0020, 1522.202
267.2150, 1301.058
268.4270, 1144.976
269.6400, 1314.953
270.8520, 1181.986
272.0640, 1419.073
273.2760, 1617.456
274.4880, 1731.936
275.7000, 1826.375
276.9120, 2001.931
278.1230, 2211.478
279.3340, 2243.061
280.5450, 2459.541
281.7560, 2346.965
282.9670, 2620.425
284.1780, 2685.918
285.3880, 2727.446
286.5980, 2839.006
287.8090, 3170.911
289.0190, 3253.727
290.2290, 3046.091
291.4380, 3039.754
292.6480, 2788.412
293.8570, 2861.821
295.0670, 2704.879
296.2760, 2888.756
297.4850, 3331.040
298.6930, 3688.939
299.9020, 4352.395
301.1110, 4516.684
302.3190, 4851.561
303.5270, 4543.316
304.7350, 4219.772
305.9430, 3622.068
307.1510, 3072.613
308.3580, 2726.818
309.5660, 2350.214
310.7730, 2192.613
311.9800, 2036.576
313.1870, 1946.572
314.3940, 2025.088
315.6010, 1780.980
316.8070, 1733.682
318.0130, 1570.953
319.2200, 1484.660
320.4260, 1392.868
321.6310, 1339.913
322.8370, 1388.832
324.0430, 1142.305
325.2480, 1183.599
326.4540, 1011.924
327.6590, 744.7432
328.8640, 727.4814
330.0680, 646.4961
331.2730, 626.8828
332.4780, 523.4736
333.6820, 610.7812
334.8860, 569.1992
336.0900, 590.0762
337.2940, 638.6855
338.4980, 656.0352
339.7010, 725.1641
340.9050, 783.2930
342.1080, 841.5674
343.3110, 737.8340
344.5140, 913.9805
345.7170, 984.3682
346.9200, 1265.564
348.1220, 1415.029
349.3240, 1491.669
350.5270, 1738.761
351.7290, 2078.234
352.9310, 2213.310
354.1320, 2424.696
355.3340, 2575.566
356.5350, 2433.382
357.7370, 2160.893
358.9380, 2003.919
360.1390, 1864.192
361.3400, 1709.196
362.5400, 1605.548
363.7410, 1449.167
364.9410, 1416.129
366.1410, 1207.071
367.3410, 1124.015
368.5410, 1274.945
369.7410, 1059.946
370.9400, 1013.062
372.1400, 845.2441
373.3390, 762.5215
374.5380, 679.7852
375.7370, 626.9971
376.9360, 422.9971
378.1350, 346.1240
379.3330, 339.9355
380.5310, 209.7324
381.7300, 300.5166
382.9280, 314.2852
384.1260, 206.0400
385.3230, 167.7793
386.5210, 337.5049
387.7180, 278.2207
388.9160, 264.9307
390.1130, 268.6367
391.3100, 248.3447
392.5060, 382.0547
393.7030, 436.7637
394.9000, 533.4912
396.0960, 556.2129
397.2920, 568.1104
398.4880, 559.6416
399.6840, 533.3467
400.8800, 476.0439
402.0750, 432.7314
403.2710, 324.4102
404.4660, 262.0811
405.6610, 216.7422
406.8560, 122.3916
408.0510, 170.0293
409.2450, 196.6533
410.4400, 166.2666
411.6340, 167.8672
412.8280, 184.5352
414.0220, 152.0273
415.2160, 211.5859
416.4100, 53.12891
417.6030, 43.65625
418.7970, 66.16406
419.9900, 50.65430
421.1830, 65.25879
422.3760, 113.7109
423.5690, 57.55957
424.7610, 147.5498
425.9540, 176.2002
427.1460, 162.8545
428.3380, 167.9961
429.5300, 180.9951
430.7220, 65.31836
431.9140, 96.06152
433.1050, 26.50391
434.2970, 77.68066
435.4880, 3.541016
436.6790, 39.10352
437.8700, 0.3193360
439.0610, 107.6768
440.2510, 45.18359
441.4420, 169.2900
442.6320, 27.67383
443.8220, 46.01270
445.0120, 102.7637
446.2020, 67.91699
447.3910, 62.15527
448.5810, 106.4609
449.7700, 13.91504
450.9600, 87.29883
452.1490, 57.61621
453.3370, 68.95117
454.5260, 64.53320
455.7150, 192.7061
456.9030, 65.74902
458.0910, 42.71973
459.2800, 22.97949
460.4670, 75.97070
461.6550, 69.52344
462.8430, 159.9072
464.0300, 6.292969
465.2180, 7.147461
466.4050, 31.23730
467.5920, 11.85938
468.7790, 4.196289
469.9650, 3.014648
471.1520, 1.168945
472.3380, 39.35059
473.5250, 5.529297
474.7110, 98.31641
475.8970, 167.6572
477.0820, 143.1904
478.2680, 106.4902
479.4540, 301.7441
480.6390, 286.9678
481.8240, 369.3105
483.0090, 353.5986
484.1940, 184.7480
485.3780, 186.8672
486.5630, 216.1562
487.7470, 158.2266
488.9320, 204.2646
490.1160, 139.2920
491.3000, 97.28516
492.4830, 256.2451
493.6670, 135.1865
494.8500, 285.0967
496.0340, 148.0244
497.2170, 66.92188
498.4000, 72.79004
499.5820, 143.6270
500.7650, 280.4404
501.9480, 381.2305
503.1300, 278.0107
504.3120, 448.7588
505.4940, 318.4756
506.6760, 554.1797
507.8580, 553.8574
509.0390, 376.5225
510.2210, 359.1572
511.4020, 223.7646
512.5830, 194.3389
513.7640, 175.8809
514.9450, 151.1104
516.1250, 152.0391
517.3060, 162.4834
518.4860, 210.9746
519.6660, 178.4316
520.8460, 310.8545
522.0260, 404.2461
523.2060, 391.6113
524.3850, 449.9541
525.5650, 643.2705
526.7440, 713.5518
527.9230, 686.8027
529.1020, 518.0205
530.2810, 655.2061
531.4590, 660.3594
532.6380, 526.6689
533.8160, 531.2129
534.9940, 364.2725
536.1720, 495.2979
537.3500, 381.3438
538.5270, 527.7959
539.7050, 542.7207
540.8820, 585.6494
542.0590, 631.5078
543.2360, 802.3311
544.4130, 838.2979
545.5900, 983.5391
546.7660, 974.0498
547.9430, 1021.947
549.1190, 905.5986
550.2950, 781.2168
551.4710, 676.8301
552.6470, 583.7705
553.8220, 589.9180
554.9980, 454.4102
556.1730, 461.8662
557.3480, 489.2891
558.5230, 442.4287
559.6980, 480.4844
560.8730, 363.5898
562.0470, 244.5850
563.2220, 310.5957
564.3960, 178.7627
565.5700, 141.6465
566.7440, 217.7783
567.9170, 212.8730
569.0910, 297.9287
570.2640, 174.9502
571.4380, 332.9307
572.6110, 174.5645
573.7840, 243.2783
574.9570, 141.4395
576.1290, 259.2920
577.3020, 220.1396
578.4740, 120.2256
579.6460, 132.6484
580.8180, 93.23828
581.9900, 126.4121
583.1620, 66.95508
584.3330, 123.9219
585.5040, 121.0176
586.6760, 188.4648
587.8470, 186.0176
589.0180, 180.3906
590.1880, 185.7363
591.3590, 155.6729
592.5290, 115.0205
593.7000, 121.5234
594.8700, 2.314453
596.0400, 60.49023
597.2090, 222.6221
598.3790, 87.18555
599.5490, 52.35449
600.7180, 188.6904
601.8870, 65.57324
603.0560, 59.75586
604.2250, 68.82910
605.3940, 45.78223
606.5620, 144.4414
607.7300, 46.35938
608.8990, 76.88477
610.0670, 15.63867
611.2350, 135.6426
612.4020, 174.8252
613.5700, 219.8535
614.7370, 77.19141
615.9050, 191.9395
617.0720, 139.5391
618.2390, 190.8838
619.4060, 225.2041
620.5720, 194.8428
621.7390, 159.3311
622.9050, 169.0469
624.0710, 295.4189
625.2370, 283.6162
626.4030, 151.4355
627.5690, 357.6953
628.7340, 244.6816
629.9000, 474.9502
631.0650, 434.8779
632.2300, 415.5078
633.3950, 472.4912
634.5600, 588.7412
635.7240, 795.0273
636.8890, 970.0820
638.0530, 1160.141
639.2170, 1421.624
640.3810, 1658.215
641.5450, 2227.005
642.7080, 2939.420
643.8720, 3377.297
645.0350, 4285.148
646.1980, 4838.001
647.3610, 5242.446
648.5240, 5147.615
649.6870, 4530.766
650.8490, 3641.928
652.0120, 2914.520
653.1740, 2342.957
654.3360, 1774.174
655.4980, 1460.666
656.6600, 1202.965
657.8210, 900.4180
658.9830, 816.7559
660.1440, 612.9219
661.3050, 615.4570
662.4660, 550.8789
663.6270, 561.5156
664.7870, 429.6680
665.9480, 295.9883
667.1080, 399.2793
668.2680, 290.5410
669.4280, 257.7754
670.5880, 324.1328
671.7480, 177.3066
672.9070, 114.2031
674.0670, 268.3145
675.2260, 292.3965
676.3850, 206.4492
677.5440, 106.4727
678.7030, 284.4629
679.8610, 207.4238
681.0200, 220.3574
682.1780, 214.2637
683.3360, 171.1406
684.4940, 102.9883
685.6520, 222.8203
686.8090, 210.6055
687.9670, 377.3652
689.1240, 403.0977
690.2810, 199.8008
691.4380, 234.3340
692.5950, 348.9824
693.7520, 552.6055
694.9080, 898.1992
696.0650, 1279.766
697.2210, 1253.307
698.3770, 1221.820
699.5330, 1125.312
700.6880, 1112.781
701.8440, 1035.598
702.9990, 1141.504
704.1550, 815.4805
705.3100, 720.2715
706.4650, 416.3574
707.6190, 527.3965
708.7740, 381.6836
709.9290, 346.5098
711.0830, 448.7461
712.2370, 391.5176
713.3910, 560.2930
714.5450, 754.8828
715.6980, 853.0020
716.8520, 918.9375
718.0050, 773.3809
719.1580, 756.9121
720.3110, 797.8184
721.4640, 799.3379
722.6170, 812.3242
723.7700, 628.1621
724.9220, 388.7480
726.0740, 368.6543
727.2260, 318.5742
728.3780, 274.4902
729.5300, 136.4727
730.6810, 26.32227
731.8330, 54.02539
732.9840, 323.7676
734.1350, 192.5137
735.2860, 184.4648
736.4370, 258.5625
737.5880, 183.1250
738.7380, 200.4102
739.8880, 66.41992
741.0390, 32.82812
742.1890, 49.77148
743.3380, 72.60547
744.4880, 60.74805
745.6380, 52.47656
746.7870, 27.66992
747.9360, 84.12109
749.0850, 135.7773
750.2340, 105.4707
751.3830, 69.32812
752.5310, 169.2246
753.6800, 105.3438
754.8280, 78.44336
755.9760, 2.005859
757.1240, 64.71680
758.2720, 161.4375
759.4190, 73.13867
760.5670, 6.326172
761.7140, 139.2070
762.8610, 187.8320
764.0080, 12.56055
765.1550, 145.8164
766.3020, 120.3633
767.4480, 37.10352
768.5950, 96.37500
769.7410, 183.8379
770.8870, 17.71484
772.0330, 65.68750
773.1780, 156.9238
774.3240, 41.35156
775.4690, 3.392578
776.6140, 5.833984
777.7590, 113.0508
778.9040, 4.748047
780.0490, 26.41992
781.1940, 134.5684
782.3380, 107.7031
783.4820, 41.15820
784.6260, 16.93164
785.7700, 48.00195
786.9140, 25.01172
788.0580, 22.00586
789.2010, 106.9824
790.3450, 155.9453
791.4880, 26.10742
792.6310, 256.1953
793.7730, 45.55664
794.9160, 24.29492
796.0590, 234.0195
797.2010, 89.72852
798.3430, 48.42578
799.4850, 0.1093750
800.6270, 20.22656
801.7690, 2.404297
802.9100, 162.0117
804.0520, 148.6074
805.1930, 199.1895
806.3340, 111.7637
807.4750, 18.32422
808.6160, 80.87305
809.7560, 0.7792970
810.8970, 188.2891
812.0370, 137.7930
813.1770, 253.2891
814.3170, 47.72070
815.4570, 269.7012
816.5960, 83.16797
817.7360, 199.5840
818.8750, 218.0293
820.0140, 86.46680
821.1530, 283.7148
822.2920, 22.64648
823.4310, 28.05469
824.5690, 76.45312
825.7070, 95.84570
826.8460, 77.22852
827.9840, 43.42578
829.1220, 240.9160
830.2590, 167.2461
831.3970, 140.5723
832.5340, 285.8906
833.6710, 261.2676
834.8080, 609.7051
835.9450, 511.3613
837.0820, 598.6523
838.2190, 392.9355
839.3550, 557.2148
840.4910, 607.4863
841.6270, 528.7539
842.7630, 273.0176
843.8990, 269.2773
845.0350, 186.5332
846.1700, 276.7832
847.3060, 121.0312
848.4410, 191.2734
849.5760, 18.48633
850.7100, 28.74219
851.8450, 140.9668
852.9800, 89.18750
854.1140, 166.4082
855.2480, 27.62500
856.3820, 38.15820
857.5160, 76.04297
858.6500, 198.2422
859.7830, 9.558594
860.9170, 221.6387
862.0500, 103.8379
863.1830, 289.0293
864.3160, 247.2227
865.4480, 472.4102
866.5810, 267.4609
867.7130, 619.3320
868.8460, 330.8340
869.9780, 382.0234
871.1100, 173.2207
872.2410, 223.4434
873.3730, 77.66406
874.5050, 403.8867
875.6360, 169.1094
876.7670, 319.9336
877.8980, 269.2559
879.0290, 219.1602
880.1590, 284.0664
881.2900, 210.8867
882.4200, 287.6152
883.5500, 327.8848
884.6800, 477.8711
885.8100, 316.1016
886.9400, 361.2090
888.0690, 432.1836
889.1990, 422.4512
890.3280, 471.0820
891.4570, 588.1152
892.5860, 604.2676
893.7140, 823.5000
894.8430, 966.5371
895.9710, 1257.578
897.1000, 1642.547
898.2280, 1879.828
899.3560, 2474.117
900.4830, 3692.770
901.6110, 4923.070
902.7380, 6318.383
903.8660, 8791.574
904.9930, 12088.80
906.1200, 16046.13
907.2460, 19350.62
908.3730, 19050.75
909.5000, 15795.71
910.6260, 11536.71
911.7520, 8210.223
912.8780, 5465.812
914.0040, 3796.184
915.1290, 2550.723
916.2550, 2090.611
917.3800, 1594.014
918.5050, 1157.156
919.6300, 1076.541
920.7550, 838.3125
921.8800, 841.3359
923.0040, 567.3574
924.1290, 856.3457
925.2530, 777.7988
926.3770, 770.2617
927.5010, 888.8398
928.6250, 771.1055
929.7480, 897.3613
930.8720, 697.5723
931.9950, 621.0801
933.1180, 599.5977
934.2410, 751.0312
935.3640, 433.5605
936.4860, 521.8594
937.6090, 380.6230
938.7310, 537.1992
939.8530, 230.7852
940.9750, 211.3848
942.0970, 473.9941
943.2180, 187.4590
944.3400, 454.0918
945.4610, 413.9824
946.5820, 465.6406
947.7030, 740.3105
948.8240, 647.9961
949.9450, 717.6914
951.0650, 992.4004
952.1860, 1068.123
953.3060, 1325.861
954.4260, 760.6094
955.5460, 1026.373
956.6650, 760.1504
957.7850, 541.9258
958.9040, 297.7305
960.0230, 203.5488
961.1420, 196.3789
962.2610, 271.2246
963.3800, 207.2285
964.4990, 106.1016
965.6170, 98.57031
966.7350, 92.89258
967.8530, 7.189453
968.9710, 13.24414
970.0890, 27.28320
971.2070, 217.6914
972.3240, 124.6777
973.4410, 73.68164
974.5580, 422.6992
975.6750, 558.7305
976.7920, 464.7773
977.9090, 413.8438
979.0250, 581.9219
980.1410, 489.0176
981.2580, 630.1289
982.3740, 855.2559
983.4890, 625.3984
984.6050, 645.8164
985.7200, 756.9922
986.8360, 449.1855
987.9510, 519.3984
989.0660, 333.6250
990.1810, 279.8906
991.2950, 118.4961
992.4100, 386.7949
993.5240, 159.1074
994.6390, 217.2031
995.7530, 256.5723
996.8660, 191.9570
997.9800, 167.3730
999.0940, 464.8145
1000.207, 407.2871
1001.320, 319.7402
1002.433, 258.2852
1003.546, 616.8711
1004.659, 707.4746
1005.772, 724.0977
1006.884, 1055.738
1007.996, 1052.398
1009.108, 1237.076
1010.220, 1488.773
1011.332, 1377.486
1012.444, 1617.225
1013.555, 1571.004
1014.666, 1223.803
1015.777, 924.6211
1016.888, 877.4648
1017.999, 534.3340
1019.110, 633.3516
1020.220, 349.2617
1021.331, 449.4141
1022.441, 339.3633
1023.551, 93.32617
1024.661, 298.3477
1025.770, 432.3926
1026.880, 379.4609
1027.989, 227.5508
1029.098, 296.6582
1030.207, 270.7871
1031.316, 464.9434
1032.425, 352.4844
1033.533, 361.8672
1034.642, 438.0918
1035.750, 298.2461
1036.858, 255.5098
1037.966, 166.8086
1039.073, 268.1289
1040.181, 212.4668
1041.288, 180.8359
1042.396, 13.28320
1043.503, 220.7324
1044.610, 283.4766
1045.716, 112.0195
1046.823, 239.4766
1047.929, 66.01172
1049.036, 158.5586
1050.142, 358.1211
1051.248, 136.2930
1052.353, 89.26562
1053.459, 191.8633
1054.564, 191.4824
1055.670, 96.14062
1056.775, 143.8184
1057.880, 279.5195
1058.985, 152.2363
1060.089, 317.9746
1061.194, 253.7461
1062.298, 185.6055
1063.402, 476.4883
1064.506, 330.3906
1065.610, 266.5000
1066.713, 313.4395
1067.817, 230.5039
1068.920, 438.4902
1070.023, 608.5039
1071.126, 575.5391
1072.229, 1069.594
1073.332, 974.6699
1074.435, 1783.766
1075.537, 2809.879
1076.639, 4433.012
1077.741, 6978.162
1078.843, 12892.34
1079.945, 21977.53
1081.046, 24751.75
1082.148, 18155.98
1083.249, 10678.23
1084.350, 6433.502
1085.451, 4780.793
1086.551, 4033.102
1087.652, 3929.430
1088.752, 4635.777
1089.853, 6227.141
1090.953, 9266.527
1092.053, 16336.93
1093.152, 26865.35
1094.252, 30091.80
1095.351, 21464.25
1096.451, 12545.75
1097.550, 6722.258
1098.649, 3507.789
1099.748, 2127.338
1100.846, 1122.695
1101.945, 976.1465
1103.043, 680.3926
1104.141, 491.0156
1105.239, 581.6602
1106.337, 620.3203
1107.434, 282.9980
1108.532, 542.6992
1109.629, 113.4160
1110.726, 132.1484
1111.823, 113.9023
1112.920, 156.6758
1114.017, 184.4648
1115.113, 208.2734
1116.210, 354.0996
1117.306, 123.9492
1118.402, 548.4531
1119.498, 319.3379
1120.593, 461.2422
1121.689, 503.5625
1122.784, 365.5020
1123.879, 331.4668
1124.974, 378.4492
1126.069, 537.8828
1127.164, 385.9023
1128.259, 153.9395
1129.353, 255.0312
1130.447, 25.99805
1131.541, 149.2012
1132.635, 28.47656
1133.729, 38.74805
1134.822, 155.9160
1135.916, 106.0703
1137.009, 87.56445
1138.102, 97.75000
1139.195, 114.9512
1140.288, 17.16797
1141.380, 92.39844
1142.473, 11.64648
1143.565, 243.9082
1144.657, 149.1855
1145.749, 67.47852
1146.841, 197.7871
1147.932, 142.1621
1149.024, 209.9043
1150.115, 47.74414
1151.206, 181.6035
1152.297, 69.03320
1153.388, 207.6074
1154.479, 152.9707
1155.569, 58.34570
1156.659, 186.7363
1157.750, 64.14258
1158.839, 117.6699
1159.929, 155.9922
1161.019, 135.4395
1162.108, 64.90039
1163.198, 5.626953
1164.287, 24.29297
1165.376, 57.34375
1166.465, 39.16016
1167.553, 117.3359
1168.642, 216.8438
1169.730, 42.36523
1170.818, 133.9023
1171.906, 114.4492
1172.994, 6.992188
1174.082, 8.570313
1175.170, 23.99609
1176.257, 144.5801
1177.344, 31.68750
1178.431, 60.71289
1179.518, 210.8730
1180.605, 300.4707
1181.691, 151.0820
1182.778, 273.9727
1183.864, 304.6074
1184.950, 147.2539
1186.036, 244.9141
1187.122, 112.5859
1188.207, 24.27148
1189.292, 113.9668
1190.378, 123.6758
1191.463, 209.4180
1192.548, 208.1699
1193.632, 262.9414
1194.717, 211.7266
1195.801, 0.4804690
1196.886, 196.3223
1197.970, 20.86328
1199.054, 104.9531
1200.137, 165.7773
1201.221, 85.61523
1202.305, 37.46289
1203.388, 224.3203
1204.471, 176.1934
1205.554, 216.1055
1206.637, 230.0273
1207.719, 249.9590
1208.802, 231.9023
1209.884, 236.8555
1210.966, 330.8184
1212.048, 52.79297
1213.130, 58.77344
1214.212, 119.7676
1215.293, 118.7715
1216.374, 174.7832
1217.456, 58.80664
1218.536, 212.8398
1219.617, 171.8809
1220.698, 315.9316
1221.778, 358.9922
1222.859, 275.0625
1223.939, 281.1445
1225.019, 38.23242
1226.099, 208.3320
1227.178, 177.4824
1228.258, 121.6406
1229.337, 239.8086
1230.417, 67.01367
1231.496, 185.1387
1232.574, 370.2988
1233.653, 171.4707
1234.732, 184.6582
1235.810, 195.8535
1236.888, 48.05859
1237.966, 237.2715
1239.044, 75.49414
1240.122, 225.7266
1241.199, 301.9707
1242.277, 258.2227
1243.354, 291.6230
1244.431, 188.7520
1245.508, 188.0293
1246.585, 99.31250
1247.661, 2.396484
1248.738, 198.8965
1249.814, 187.1973
1250.890, 72.49609
1251.966, 242.7832
1253.042, 111.0703
1254.117, 72.36328
1255.193, 72.33789
1256.268, 27.93164
1257.343, 157.2070
1258.418, 45.12109
1259.493, 4.857422
1260.567, 64.59570
1261.642, 66.36523
1262.716, 28.10938
1263.790, 80.91992
1264.864, 29.23047
1265.938, 6.791016
1267.011, 35.35156
1268.085, 46.71875
1269.158, 70.89062
1270.231, 130.0703
1271.304, 126.2559
1272.377, 167.4473
1273.450, 85.64258
1274.522, 56.84570
1275.594, 132.0547
1276.666, 7.730469
1277.738, 5.480469
1278.810, 207.6914
1279.882, 166.7832
1280.953, 264.0098
1282.025, 5.009766
1283.096, 63.24023
1284.167, 226.4766
1285.238, 167.7168
1286.308, 251.9648
1287.379, 213.2188
1288.449, 312.4766
1289.519, 201.7422
1290.589, 273.0156
1291.659, 87.29102
1292.729, 146.2090
1293.798, 283.3125
1294.868, 213.6074
1295.937, 315.9961
1297.006, 149.3008
1298.075, 91.60938
1299.143, 105.9238
1300.212, 124.2441
1301.280, 132.5664
1302.348, 129.4043
1303.416, 55.17969
1304.484, 68.25586
1305.552, 293.6016
1306.620, 215.9824
1307.687, 220.3477
1308.754, 66.73828
1309.821, 86.13086
1310.888, 252.5312
1311.955, 122.9570
1313.021, 198.3867
1314.088, 263.8184
1315.154, 218.2559
1316.220, 179.7051
1317.286, 178.0879
1318.352, 117.6152
1319.417, 88.93945
1320.483, 93.57617
1321.548, 78.03906
1322.613, 118.8984
1323.678, 129.3535
1324.743, 178.6250
1325.807, 283.4180
1326.872, 280.4375
1327.936, 296.9824
1329.000, 329.7422
1330.064, 251.2266
1331.128, 265.7168
1332.191, 214.9824
1333.255, 319.1250
1334.318, 95.72070
1335.381, 290.2305
1336.444, 211.7422
1337.507, 342.2617
1338.569, 379.7832
1339.632, 269.3086
1340.694, 136.8398
1341.756, 42.37500
1342.818, 359.9121
1343.880, 227.4551
1344.941, 299.0000
1346.003, 340.5527
1347.064, 87.10742
1348.125, 327.6641
1349.186, 214.2285
1350.247, 350.7949
1351.308, 216.5000
1352.368, 200.0742
1353.428, 143.9492
1354.489, 229.1504
1355.549, 200.6035
1356.608, 238.2988
1357.668, 184.8770
1358.727, 133.6094
1359.787, 42.20117
1360.846, 179.7988
1361.905, 275.0098
1362.964, 133.6172
1364.022, 225.3574
1365.081, 227.9746
1366.139, 164.5977
1367.197, 307.2676
1368.255, 94.90039
1369.313, 126.5391
1370.371, 298.4551
1371.428, 196.1055
1372.486, 90.76172
1373.543, 161.4219
1374.600, 105.7305
1375.657, 251.1250
1376.713, 111.8047
1377.770, 222.4883
1378.826, 180.7812
1379.882, 432.4766
1380.938, 362.1777
1381.994, 182.8848
1383.050, 404.1660
1384.106, 240.8887
1385.161, 29.42773
1386.216, 402.2090
1387.271, 197.9922
1388.326, 26.56250
1389.381, 132.0352
1390.435, 174.6270
1391.490, 161.2227
1392.544, 239.8555
1393.598, 198.1680
1394.652, 235.8125
1395.705, 250.4824
1396.759, 151.1387
1397.812, 283.8008
1398.866, 234.4668
1399.919, 39.14062
1400.972, 192.8184
1402.024, 52.38672
1403.077, 294.9609
1404.129, 197.9141
1405.181, 167.2559
1406.233, 312.0117
1407.285, 394.5840
1408.337, 377.1445
1409.389, 483.4277
1410.440, 557.0000
1411.491, 602.5762
1412.542, 511.1543
1413.593, 458.3535
1414.644, 589.9297
1415.695, 394.0098
1416.745, 429.4648
1417.795, 292.1602
1418.845, 340.2734
1419.895, 395.3555
1420.945, 321.9395
1421.995, 477.5723
1423.044, 204.1641
1424.093, 398.7578
1425.142, 317.5000
1426.191, 580.0977
1427.240, 298.6855
1428.289, 486.2852
1429.337, 572.9473
1430.385, 638.5508
1431.433, 288.1484
1432.481, 539.8027
1433.529, 490.3965
1434.577, 481.2207
1435.624, 553.7969
1436.672, 95.51953
1437.719, 296.0977
1438.766, 209.6797
1439.812, 483.1992
1440.859, 343.5078
1441.905, 256.5508
1442.952, 298.7500
1443.998, 213.8750
1445.044, 69.04297
1446.090, 184.3711
1447.135, 16.64453
1448.181, 78.94922
1449.226, 184.9180
1450.271, 307.8906
1451.316, 18.87891
1452.361, 310.8789
1453.405, 360.8750
1454.450, 210.8164
1455.494, 499.7617
1456.538, 292.7109
1457.582, 0.3320310
1458.626, 94.37109
1459.670, 62.59766
1460.713, 181.5703
1461.757, 285.5430
1462.800, 264.5234
1463.843, 181.5078
1464.886, 128.3984
1465.928, 95.30078
1466.971, 153.2383
1468.013, 130.1719
1469.055, 211.1016
1470.097, 128.0352
1471.139, 113.9570
1472.181, 214.8867
1473.222, 392.8125
1474.263, 195.7422
1475.305, 351.6836
1476.346, 78.64844
1477.386, 265.6445
1478.427, 52.66797
1479.468, 138.4688
1480.508, 513.5977
1481.548, 170.7500
1482.588, 130.9922
1483.628, 319.2734
1484.668, 328.5742
1485.707, 280.8867
1486.747, 7.789063
1487.786, 172.5469
1488.825, 99.90625
1489.864, 269.2852
1490.902, 272.6836
1491.941, 9.105469
1492.979, 257.5430
1494.017, 170.9922
1495.055, 78.44922
1496.093, 404.9297
1497.131, 637.4102
1498.168, 765.9180
1499.206, 1082.445
1500.243, 1019.992
1501.280, 1359.555
1502.317, 1058.133
1503.354, 782.6836
1504.390, 667.2578
1505.426, 566.8555
1506.463, 726.4766
1507.499, 590.1094
1508.535, 272.7539
1509.570, 556.8398
1510.606, 377.2461
1511.641, 641.8477
1512.676, 387.7852
1513.711, 412.4023
1514.746, 487.0430
1515.781, 777.4375
1516.816, 488.6055
1517.850, 406.9844
1518.884, 223.3711
1519.918, 167.7695
1520.952, 262.1797
1521.986, 330.6016
1523.019, 437.0391
1524.053, 394.3477
1525.086, 392.5938
1526.119, 248.4297
1527.152, 170.3672
1528.185, 73.28516
1529.217, 129.1719
1530.250, 120.6914
1531.282, 319.5938
1532.314, 216.9961
1533.346, 346.4961
1534.377, 366.0352
1535.409, 349.3711
1536.440, 293.6250
1537.472, 57.78125
1538.503, 389.8359
1539.534, 73.77734
1540.564, 326.5898
1541.595, 275.6562
1542.625, 72.67578
1543.656, 77.57422
1544.686, 351.9648
1545.716, 175.2656
1546.745, 381.3516
1547.775, 225.4102
1548.804, 155.3242
1549.834, 330.3555
1550.863, 218.9023
1551.892, 194.8086
1552.920, 36.05469
1553.949, 255.4219
1554.977, 284.3750
1556.006, 19.19922
1557.034, 277.0078
1558.062, 154.1016
1559.089, 250.3555
1560.117, 188.0586
1561.144, 242.0781
1562.172, 392.6992
1563.199, 498.2852
1564.226, 263.5469
1565.252, 7.332031
1566.279, 286.8047
1567.305, 369.8984
1568.332, 192.5195
1569.358, 205.6641
1570.384, 80.71875
1571.409, 0.0000000E+00
##END=



