##NAMES=Tilleyite
##RRUFFID=R050227
##IDEAL CHEMISTRY=Ca_5_Si_2_O_7_(CO_3_)_2_
##LOCALITY=Crestmore Quarry, Riverside County, California, USA
##OWNER=RRUFF
##SOURCE=Marcus Origlieri
##DESCRIPTION=Aggregate of colorless subhedral crystals
##STATUS=The identification of this mineral has been confirmed by X-ray diffraction.
##URL=rruff.info/R050227
##PIN_ID=L00528
##ORIENTATION=Laser parallel to b* (0 1 0). Fiducial mark perpendicular to laser is parallel to -c [0 0 -1]
127.9790, 0.0000000E+00
129.2090, 146.2715
130.4390, 161.8398
131.6680, 333.0586
132.8980, 13.46680
134.1270, 63.91406
135.3560, 256.2207
136.5850, 473.7070
137.8140, 486.8086
139.0430, 657.5234
140.2710, 637.2832
141.5000, 832.1582
142.7280, 909.4629
143.9560, 953.9883
145.1840, 1181.592
146.4120, 1245.148
147.6390, 1531.557
148.8670, 1421.727
150.0940, 1614.646
151.3210, 1723.260
152.5490, 1849.002
153.7750, 1797.158
155.0020, 1881.707
156.2290, 1606.625
157.4550, 1493.887
158.6810, 1519.480
159.9080, 1189.389
161.1340, 856.6230
162.3590, 706.1641
163.5850, 510.9922
164.8110, 414.0879
166.0360, 311.4297
167.2610, 144.9883
168.4860, 71.75000
169.7110, 273.7051
170.9360, 171.8379
172.1610, 256.1562
173.3850, 245.5645
174.6100, 257.0684
175.8340, 296.6055
177.0580, 535.1816
178.2820, 328.9141
179.5050, 345.8008
180.7290, 529.8379
181.9520, 426.0195
183.1760, 225.3359
184.3990, 424.7832
185.6220, 426.3594
186.8450, 373.0586
188.0670, 434.8789
189.2900, 356.8145
190.5120, 356.8613
191.7340, 230.2422
192.9560, 589.9180
194.1780, 401.7207
195.4000, 615.5938
196.6220, 659.5273
197.8430, 801.5273
199.0640, 643.5898
200.2860, 568.7090
201.5070, 601.8711
202.7270, 573.0117
203.9480, 544.1211
205.1690, 372.2109
206.3890, 416.3105
207.6090, 333.4219
208.8290, 185.6504
210.0490, 242.9023
211.2690, 351.1816
212.4890, 186.4922
213.7080, 169.8301
214.9280, 47.79688
216.1470, 204.6113
217.3660, 19.05469
218.5850, 80.53516
219.8030, 29.93359
221.0220, 61.64648
222.2400, 145.6426
223.4590, 82.17188
224.6770, 76.01953
225.8950, 209.9004
227.1120, 151.8203
228.3300, 135.8105
229.5480, 294.9141
230.7650, 248.0684
231.9820, 206.2539
233.1990, 374.4746
234.4160, 283.7207
235.6330, 445.9961
236.8490, 539.2969
238.0660, 296.6387
239.2820, 398.0039
240.4980, 189.4082
241.7140, 310.8516
242.9300, 493.4512
244.1460, 231.0801
245.3610, 273.7324
246.5770, 313.4043
247.7920, 237.6152
249.0070, 454.7676
250.2220, 335.4629
251.4370, 405.1797
252.6510, 626.9160
253.8660, 397.8516
255.0800, 884.8965
256.2940, 643.0547
257.5080, 900.1426
258.7220, 995.7402
259.9360, 1030.355
261.1490, 1178.473
262.3630, 1119.643
263.5760, 1290.312
264.7890, 1261.998
266.0020, 1204.699
267.2150, 1559.412
268.4270, 1607.141
269.6400, 1874.881
270.8520, 2234.635
272.0640, 2566.400
273.2760, 2934.180
274.4880, 3488.412
275.7000, 3744.330
276.9120, 4081.895
278.1230, 4247.676
279.3340, 4427.945
280.5450, 4448.123
281.7560, 4289.455
282.9670, 4197.918
284.1780, 3688.506
285.3880, 3377.199
286.5980, 3125.996
287.8090, 2859.082
289.0190, 2791.055
290.2290, 2516.102
291.4380, 2347.227
292.6480, 2228.420
293.8570, 2058.674
295.0670, 2073.994
296.2760, 2105.369
297.4850, 1895.795
298.6930, 1898.266
299.9020, 1773.783
301.1110, 1863.346
302.3190, 1737.949
303.5270, 1580.611
304.7350, 1431.311
305.9430, 1123.051
307.1510, 909.8281
308.3580, 1089.637
309.5660, 719.4785
310.7730, 755.8711
311.9800, 573.7754
313.1870, 645.7070
314.3940, 735.5820
315.6010, 543.6094
316.8070, 495.3711
318.0130, 531.4336
319.2200, 610.5176
320.4260, 416.6172
321.6310, 490.6934
322.8370, 491.7891
324.0430, 464.0977
325.2480, 437.2676
326.4540, 258.2656
327.6590, 493.2461
328.8640, 264.3887
330.0680, 410.5801
331.2730, 185.6406
332.4780, 170.0195
333.6820, 347.2832
334.8860, 118.8848
336.0900, 165.2266
337.2940, 126.5312
338.4980, 72.84766
339.7010, 197.1777
340.9050, 180.5156
342.1080, 128.8633
343.3110, 338.2188
344.5140, 249.5840
345.7170, 438.7871
346.9200, 507.1699
348.1220, 639.5605
349.3240, 384.9629
350.5270, 471.3750
351.7290, 507.9395
352.9310, 693.3672
354.1320, 876.8926
355.3340, 778.3828
356.5350, 841.9141
357.7370, 631.3730
358.9380, 687.2891
360.1390, 714.1426
361.3400, 794.6172
362.5400, 629.0996
363.7410, 620.8574
364.9410, 513.0508
366.1410, 521.5488
367.3410, 495.4668
368.5410, 428.2852
369.7410, 370.4844
370.9400, 349.0820
372.1400, 260.5996
373.3390, 260.4922
374.5380, 74.01758
375.7370, 107.6309
376.9360, 82.16016
378.1350, 160.3105
379.3330, 30.81445
380.5310, 75.32031
381.7300, 68.83789
382.9280, 61.36719
384.1260, 107.9043
385.3230, 70.53516
386.5210, 35.97852
387.7180, 180.4180
388.9160, 71.86133
390.1130, 86.30078
391.3100, 292.7422
392.5060, 124.1816
393.7030, 222.6230
394.9000, 246.0625
396.0960, 317.5000
397.2920, 282.9375
398.4880, 353.3359
399.6840, 392.7129
400.8800, 261.0625
402.0750, 350.3887
403.2710, 167.7129
404.4660, 88.03516
405.6610, 141.3594
406.8560, 202.6836
408.0510, 183.0059
409.2450, 132.3242
410.4400, 106.6465
411.6340, 176.6641
412.8280, 10.28320
414.0220, 278.5977
415.2160, 371.9121
416.4100, 281.2266
417.6030, 119.9727
418.7970, 218.2910
419.9900, 259.6152
421.1830, 172.9473
422.3760, 230.0762
423.5690, 206.4297
424.7610, 207.5605
425.9540, 237.0664
427.1460, 165.1699
428.3380, 245.6973
429.5300, 44.57031
430.7220, 102.0586
431.9140, 80.27148
433.1050, 229.6680
434.2970, 250.4316
435.4880, 250.2734
436.6790, 110.0742
437.8700, 89.87695
439.0610, 184.1992
440.2510, 104.5176
441.4420, 175.8340
442.6320, 162.6875
443.8220, 250.0703
445.0120, 145.7090
446.2020, 147.0703
447.3910, 129.3711
448.5810, 117.2305
449.7700, 272.5215
450.9600, 54.81836
452.1490, 147.4375
453.3370, 15.09375
454.5260, 171.7480
455.7150, 49.20898
456.9030, 83.54492
458.0910, 21.35547
459.2800, 48.10938
460.4670, 98.95898
461.6550, 104.1699
462.8430, 110.9336
464.0300, 79.55469
465.2180, 116.6523
466.4050, 18.44922
467.5920, 42.86523
468.7790, 5.939453
469.9650, 41.00391
471.1520, 42.90625
472.3380, 4.986328
473.5250, 7.992188
474.7110, 26.95898
475.8970, 256.8984
477.0820, 20.84570
478.2680, 49.77734
479.4540, 362.7012
480.6390, 401.6172
481.8240, 213.5254
483.0090, 185.4277
484.1940, 233.3516
485.3780, 314.2656
486.5630, 212.1699
487.7470, 14.06641
488.9320, 172.9453
490.1160, 97.81055
491.3000, 94.66797
492.4830, 334.5156
493.6670, 6.650391
494.8500, 328.1562
496.0340, 58.95117
497.2170, 163.2676
498.4000, 63.40430
499.5820, 292.0625
500.7650, 6.708984
501.9480, 209.3301
503.1300, 196.9434
504.3120, 130.5449
505.4940, 41.13477
506.6760, 296.7109
507.8580, 262.2773
509.0390, 293.8320
510.2210, 264.3984
511.4020, 187.9531
512.5830, 76.49414
513.7640, 130.0215
514.9450, 41.54688
516.1250, 331.0547
517.3060, 78.57617
518.4860, 300.0918
519.6660, 365.5957
520.8460, 218.1348
522.0260, 141.7070
523.2060, 217.2832
524.3850, 278.1523
525.5650, 286.3613
526.7440, 465.9609
527.9230, 511.4082
529.1020, 455.8691
530.2810, 399.3340
531.4590, 520.7949
532.6380, 207.2871
533.8160, 660.7637
534.9940, 669.2461
536.1720, 396.7539
537.3500, 429.2480
538.5270, 475.7305
539.7050, 402.2012
540.8820, 640.6582
542.0590, 402.1035
543.2360, 672.5469
544.4130, 528.9766
545.5900, 634.3965
546.7660, 519.8027
547.9430, 663.2383
549.1190, 771.6602
550.2950, 559.0664
551.4710, 330.4629
552.6470, 407.8418
553.8220, 213.2109
554.9980, 297.5664
556.1730, 263.9062
557.3480, 211.2324
558.5230, 9.544922
559.6980, 213.8301
560.8730, 124.1016
562.0470, 449.3594
563.2220, 123.3984
564.3960, 196.7461
565.5700, 4.875000
566.7440, 85.97461
567.9170, 6.058594
569.0910, 84.10938
570.2640, 47.14453
571.4380, 155.1602
572.6110, 20.98633
573.7840, 101.0000
574.9570, 10.00000
576.1290, 245.9707
577.3020, 245.9277
578.4740, 9.869141
579.6460, 244.7812
580.8180, 251.6777
581.9900, 298.5586
583.1620, 279.4258
584.3330, 41.27734
585.5040, 61.10547
586.6760, 31.08398
587.8470, 206.6738
589.0180, 10.41602
590.1880, 173.1289
591.3590, 126.8262
592.5290, 63.50586
593.7000, 84.16797
594.8700, 45.29297
596.0400, 79.91406
597.2090, 135.5195
598.3790, 220.1914
599.5490, 103.7207
600.7180, 113.1621
601.8870, 98.30273
603.0560, 302.7480
604.2250, 82.21484
605.3940, 259.9316
606.5620, 32.49609
607.7300, 56.71680
608.8990, 189.0820
610.0670, 231.9141
611.2350, 258.4766
612.4020, 141.8750
613.5700, 109.3105
614.7370, 114.9746
615.9050, 192.1445
617.0720, 201.5488
618.2390, 380.4922
619.4060, 195.6953
620.5720, 342.0293
621.7390, 315.0781
622.9050, 504.2812
624.0710, 396.2734
625.2370, 270.4473
626.4030, 553.6016
627.5690, 496.8340
628.7340, 508.1309
629.9000, 692.3145
631.0650, 567.4043
632.2300, 706.4805
633.3950, 802.6621
634.5600, 863.5273
635.7240, 1093.623
636.8890, 1170.543
638.0530, 1331.490
639.2170, 1609.412
640.3810, 1992.375
641.5450, 1916.871
642.7080, 2223.803
643.8720, 2452.717
645.0350, 2433.617
646.1980, 2343.234
647.3610, 2335.104
648.5240, 2563.959
649.6870, 2429.365
650.8490, 2352.195
652.0120, 1936.002
653.1740, 2235.715
654.3360, 1959.510
655.4980, 1935.900
656.6600, 1741.750
657.8210, 1843.332
658.9830, 1686.045
660.1440, 1833.023
661.3050, 1782.740
662.4660, 1535.555
663.6270, 1550.256
664.7870, 1519.395
665.9480, 1348.072
667.1080, 1326.770
668.2680, 1265.484
669.4280, 935.4707
670.5880, 990.2363
671.7480, 892.4297
672.9070, 790.1992
674.0670, 772.9473
675.2260, 644.2715
676.3850, 733.8320
677.5440, 550.3730
678.7030, 676.8984
679.8610, 570.4043
681.0200, 695.9902
682.1780, 432.4199
683.3360, 639.8711
684.4940, 545.3047
685.6520, 559.7188
686.8090, 580.0527
687.9670, 536.4336
689.1240, 626.8418
690.2810, 622.0156
691.4380, 667.8418
692.5950, 674.8164
693.7520, 747.1055
694.9080, 754.3750
696.0650, 747.6523
697.2210, 695.8848
698.3770, 920.6621
699.5330, 751.8574
700.6880, 802.0352
701.8440, 804.1953
702.9990, 497.5508
704.1550, 815.6758
705.3100, 1139.012
706.4650, 923.9590
707.6190, 1243.297
708.7740, 1386.193
709.9290, 1453.121
711.0830, 1906.227
712.2370, 1653.686
713.3910, 1784.623
714.5450, 1656.178
715.6980, 1546.158
716.8520, 1425.119
718.0050, 1178.580
719.1580, 1039.508
720.3110, 842.4199
721.4640, 732.3145
722.6170, 688.1914
723.7700, 582.4414
724.9220, 316.9551
726.0740, 352.7246
727.2260, 209.5371
728.3780, 311.7734
729.5300, 240.5547
730.6810, 168.3086
731.8330, 203.7246
732.9840, 179.2676
734.1350, 321.4082
735.2860, 325.9121
736.4370, 148.6074
737.5880, 173.3125
738.7380, 70.92969
739.8880, 272.6855
741.0390, 169.2754
742.1890, 394.5352
743.3380, 73.02539
744.4880, 98.66406
745.6380, 183.5801
746.7870, 213.8516
747.9360, 67.44727
749.0850, 226.0293
750.2340, 141.6133
751.3830, 12.80078
752.5310, 80.71289
753.6800, 132.2383
754.8280, 14.23633
755.9760, 169.2461
757.1240, 199.7207
758.2720, 96.17773
759.4190, 30.62500
760.5670, 139.0469
761.7140, 90.54297
762.8610, 228.7852
764.0080, 192.1035
765.1550, 91.40625
766.3020, 289.6953
767.4480, 93.97852
768.5950, 184.2461
769.7410, 168.5020
770.8870, 78.74219
772.0330, 97.97266
773.1780, 156.1992
774.3240, 107.0566
775.4690, 167.6191
776.6140, 97.86328
777.7590, 215.0938
778.9040, 231.3125
780.0490, 221.7402
781.1940, 256.3906
782.3380, 193.9238
783.4820, 238.1035
784.6260, 171.2754
785.7700, 144.4355
786.9140, 1.583984
788.0580, 91.70703
789.2010, 417.8184
790.3450, 155.9180
791.4880, 6.990234
792.6310, 190.0723
793.7730, 56.87695
794.9160, 6.875000
796.0590, 124.0938
797.2010, 33.05078
798.3430, 126.0000
799.4850, 27.06250
800.6270, 200.8359
801.7690, 1.277344
802.9100, 10.41406
804.0520, 327.4258
805.1930, 75.74609
806.3340, 32.98047
807.4750, 14.25781
808.6160, 133.3711
809.7560, 64.04688
810.8970, 44.35938
812.0370, 127.8086
813.1770, 99.65625
814.3170, 269.1094
815.4570, 183.5586
816.5960, 109.9922
817.7360, 35.42969
818.8750, 33.14844
820.0140, 110.2344
821.1530, 83.61328
822.2920, 181.9844
823.4310, 146.4297
824.5690, 157.8438
825.7070, 36.38672
826.8460, 227.6406
827.9840, 221.8945
829.1220, 142.8984
830.2590, 63.36719
831.3970, 96.59766
832.5340, 30.82031
833.6710, 86.12891
834.8080, 54.24609
835.9450, 189.4609
837.0820, 345.6641
838.2190, 373.8633
839.3550, 456.2500
840.4910, 418.4492
841.6270, 485.5156
842.7630, 258.7422
843.8990, 173.9688
845.0350, 45.20312
846.1700, 100.4375
847.3060, 104.3242
848.4410, 40.59766
849.5760, 217.0078
850.7100, 76.15625
851.8450, 105.3125
852.9800, 285.4609
854.1140, 254.6055
855.2480, 7.753906
856.3820, 161.9023
857.5160, 98.03906
858.6500, 34.18359
859.7830, 66.32031
860.9170, 89.45703
862.0500, 54.58984
863.1830, 99.74219
864.3160, 271.8906
865.4480, 217.0469
866.5810, 161.1992
867.7130, 349.3516
868.8460, 112.5039
869.9780, 147.6602
871.1100, 79.81250
872.2410, 37.97266
873.3730, 202.1250
874.5050, 114.2773
875.6360, 194.1172
876.7670, 5.312500
877.8980, 139.4961
879.0290, 79.62891
880.1590, 164.4883
881.2900, 111.4883
882.4200, 204.6250
883.5500, 218.7617
884.6800, 222.6055
885.8100, 305.7461
886.9400, 264.8867
888.0690, 322.9492
889.1990, 309.9062
890.3280, 497.0508
891.4570, 233.0781
892.5860, 610.2305
893.7140, 960.3867
894.8430, 709.4961
895.9710, 1472.871
897.1000, 1557.074
898.2280, 2301.484
899.3560, 3057.699
900.4830, 3719.918
901.6110, 4794.047
902.7380, 5534.273
903.8660, 6181.430
904.9930, 6775.664
906.1200, 7041.914
907.2460, 6851.074
908.3730, 5894.320
909.5000, 5059.621
910.6260, 3995.918
911.7520, 2658.219
912.8780, 2174.508
914.0040, 1235.820
915.1290, 895.1406
916.2550, 490.4609
917.3800, 576.7930
918.5050, 495.1367
919.6300, 526.4766
920.7550, 449.8281
921.8800, 385.1875
923.0040, 479.9844
924.1290, 465.3516
925.2530, 285.7305
926.3770, 394.1289
927.5010, 364.5156
928.6250, 693.9258
929.7480, 257.2422
930.8720, 605.7305
931.9950, 360.1641
933.1180, 389.3242
934.2410, 636.7695
935.3640, 174.1172
936.4860, 162.5781
937.6090, 227.6094
938.7310, 380.1094
939.8530, 198.5977
940.9750, 361.0625
942.0970, 329.2500
943.2180, 376.6562
944.3400, 300.6211
945.4610, 358.1211
946.5820, 194.7812
947.7030, 360.2266
948.8240, 305.8008
949.9450, 159.3867
951.0650, 277.9844
952.1860, 433.5898
953.3060, 333.1250
954.4260, 171.8047
955.5460, 269.4570
956.6650, 257.1250
957.7850, 21.19922
958.9040, 231.5547
960.0230, 25.74219
961.1420, 69.92188
962.2610, 127.6484
963.3800, 229.3906
964.4990, 228.1445
965.6170, 321.1914
966.7350, 373.6875
967.8530, 428.4570
968.9710, 424.2695
970.0890, 408.0898
971.2070, 553.9297
972.3240, 416.7773
973.4410, 508.6445
974.5580, 146.5195
975.6750, 427.4102
976.7920, 354.3242
977.9090, 774.5664
979.0250, 661.5000
980.1410, 687.1250
981.2580, 1102.086
982.3740, 1005.895
983.4890, 1253.449
984.6050, 1542.461
985.7200, 1899.484
986.8360, 2379.523
987.9510, 2925.574
989.0660, 2943.367
990.1810, 2886.875
991.2950, 2746.863
992.4100, 2288.016
993.5240, 1622.172
994.6390, 1321.348
995.7530, 1052.547
996.8660, 1034.797
997.9800, 1077.066
999.0940, 954.3477
1000.207, 942.6641
1001.320, 773.9922
1002.433, 736.9531
1003.546, 556.3164
1004.659, 1003.691
1005.772, 1027.090
1006.884, 980.5078
1007.996, 882.9414
1009.108, 832.4141
1010.220, 966.9023
1011.332, 805.4180
1012.444, 1030.984
1013.555, 1010.594
1014.666, 654.2148
1015.777, 748.8594
1016.888, 476.5156
1017.999, 447.2266
1019.110, 195.9609
1020.220, 551.7031
1021.331, 254.4648
1022.441, 419.2539
1023.551, 568.0664
1024.661, 615.8906
1025.770, 259.3125
1026.880, 302.1875
1027.989, 311.1367
1029.098, 470.0469
1030.207, 437.8516
1031.316, 537.9180
1032.425, 489.9219
1033.533, 613.9453
1034.642, 724.9883
1035.750, 571.0430
1036.858, 468.1133
1037.966, 334.5156
1039.073, 137.6250
1040.181, 418.3828
1041.288, 581.5195
1042.396, 458.6719
1043.503, 609.8438
1044.610, 460.0273
1045.716, 390.2266
1046.823, 552.4414
1047.929, 180.6914
1049.036, 297.9570
1050.142, 339.2383
1051.248, 259.1289
1052.353, 73.43750
1053.459, 551.6562
1054.564, 415.0039
1055.670, 572.3594
1056.775, 253.7383
1057.880, 389.1406
1058.985, 535.6914
1060.089, 473.1172
1061.194, 641.5742
1062.298, 554.0430
1063.402, 734.5469
1064.506, 759.0781
1065.610, 755.6211
1066.713, 777.1836
1067.817, 1016.430
1068.920, 1071.363
1070.023, 1538.988
1071.126, 1801.625
1072.229, 2025.289
1073.332, 1962.969
1074.435, 2929.691
1075.537, 3533.926
1076.639, 4785.703
1077.741, 5670.531
1078.843, 7363.375
1079.945, 9474.250
1081.046, 10902.18
1082.148, 13149.12
1083.249, 15823.09
1084.350, 20604.05
1085.451, 23048.07
1086.551, 19753.08
1087.652, 16191.11
1088.752, 13509.14
1089.853, 11132.20
1090.953, 9558.039
1092.053, 9183.164
1093.152, 9001.023
1094.252, 8023.168
1095.351, 6519.328
1096.451, 4437.508
1097.550, 3010.688
1098.649, 1878.895
1099.748, 1100.109
1100.846, 747.3320
1101.945, 761.5742
1103.043, 383.8242
1104.141, 582.0898
1105.239, 160.3672
1106.337, 421.6602
1107.434, 298.9609
1108.532, 44.27734
1109.629, 22.39062
1110.726, 59.94531
1111.823, 91.06250
1112.920, 180.6328
1114.017, 21.01953
1115.113, 82.36719
1116.210, 467.7812
1117.306, 612.1992
1118.402, 588.6328
1119.498, 738.0781
1120.593, 677.5391
1121.689, 737.0039
1122.784, 555.3945
1123.879, 882.9023
1124.974, 602.4219
1126.069, 469.9492
1127.164, 537.4844
1128.259, 311.8633
1129.353, 303.7930
1130.447, 140.3633
1131.541, 201.1719
1132.635, 402.7617
1133.729, 27.64453
1134.822, 318.9531
1135.916, 284.5781
1137.009, 41.20312
1138.102, 166.2578
1139.195, 441.9023
1140.288, 279.3945
1141.380, 263.8242
1142.473, 11.31641
1143.565, 24.72266
1144.657, 449.8945
1145.749, 302.6133
1146.841, 330.3633
1147.932, 316.1172
1149.024, 191.1289
1150.115, 72.89453
1151.206, 321.6680
1152.297, 215.4414
1153.388, 169.2227
1154.479, 56.00391
1155.569, 184.7969
1156.659, 37.40234
1157.750, 66.38281
1158.839, 179.8242
1159.929, 240.8828
1161.019, 299.5977
1162.108, 10.32422
1163.198, 105.3477
1164.287, 79.07422
1165.376, 297.8008
1166.465, 165.6797
1167.553, 236.4180
1168.642, 26.83984
1169.730, 200.9570
1170.818, 149.3047
1171.906, 244.3555
1172.994, 103.0234
1174.082, 179.6875
1175.170, 331.3594
1176.257, 356.0312
1177.344, 115.7930
1178.431, 33.73828
1179.518, 99.41797
1180.605, 159.1016
1181.691, 6.214844
1182.778, 325.4609
1183.864, 11.85938
1184.950, 259.8125
1186.036, 22.48828
1187.122, 89.16016
1188.207, 106.7070
1189.292, 50.56250
1190.378, 104.0898
1191.463, 57.73828
1192.548, 244.3867
1193.632, 402.0352
1194.717, 376.0547
1195.801, 450.2305
1196.886, 392.9844
1197.970, 420.7461
1199.054, 406.3945
1200.137, 388.0469
1201.221, 452.6992
1202.305, 124.3516
1203.388, 437.9961
1204.471, 202.6445
1205.554, 3.289063
1206.637, 87.93359
1207.719, 256.5664
1208.802, 305.2070
1209.884, 235.8477
1210.966, 296.4805
1212.048, 108.1133
1213.130, 342.7422
1214.212, 228.3672
1215.293, 20.94531
1216.374, 195.6562
1217.456, 101.2578
1218.536, 150.8555
1219.617, 73.44922
1220.698, 114.8867
1221.778, 142.9609
1222.859, 186.2227
1223.939, 293.8086
1225.019, 310.3984
1226.099, 521.9805
1227.178, 81.58203
1228.258, 47.17578
1229.337, 145.7695
1230.417, 276.3594
1231.496, 291.9531
1232.574, 303.6641
1233.653, 480.2539
1234.732, 149.8281
1235.810, 95.40625
1236.888, 95.97656
1237.966, 181.1328
1239.044, 141.6914
1240.122, 156.3359
1241.199, 85.48047
1242.277, 141.4180
1243.354, 139.9570
1244.431, 158.1992
1245.508, 288.8555
1246.585, 417.3789
1247.661, 313.1328
1248.738, 467.6445
1249.814, 73.15234
1250.890, 253.6523
1251.966, 83.81250
1253.042, 91.61328
1254.117, 107.0352
1255.193, 225.4492
1256.268, 90.85938
1257.343, 128.7383
1258.418, 28.71484
1259.493, 198.0156
1260.567, 22.69141
1261.642, 371.5703
1262.716, 319.8516
1263.790, 83.51172
1264.864, 329.0820
1265.938, 274.3398
1267.011, 9.593750
1268.085, 193.8203
1269.158, 44.95703
1270.231, 24.21484
1271.304, 23.37500
1272.377, 3.480469
1273.450, 156.9961
1274.522, 110.0117
1275.594, 184.3906
1276.666, 99.38281
1277.738, 95.63281
1278.810, 96.26953
1279.882, 178.1641
1280.953, 238.0508
1282.025, 299.2344
1283.096, 286.8164
1284.167, 334.6797
1285.238, 196.5469
1286.308, 216.8320
1287.379, 329.6758
1288.449, 165.4531
1289.519, 444.2773
1290.589, 78.10156
1291.659, 21.08594
1292.729, 118.6875
1293.798, 227.4531
1294.868, 48.21484
1295.937, 490.8555
1297.006, 225.5977
1298.075, 70.01953
1299.143, 227.7422
1300.212, 409.8281
1301.280, 341.5391
1302.348, 541.2422
1303.416, 386.9375
1304.484, 189.6250
1305.552, 61.30469
1306.620, 40.02344
1307.687, 398.6055
1308.754, 199.2188
1309.821, 229.8242
1310.888, 461.8398
1311.955, 92.43359
1313.021, 312.1250
1314.088, 243.7031
1315.154, 225.2734
1316.220, 15.83984
1317.286, 73.38672
1318.352, 142.7891
1319.417, 188.3164
1320.483, 164.3633
1321.548, 168.3711
1322.613, 146.8867
1323.678, 159.3945
1324.743, 293.8867
1325.807, 63.37891
1326.872, 227.9414
1327.936, 597.5625
1329.000, 380.0312
1330.064, 365.4922
1331.128, 511.9492
1332.191, 281.3984
1333.255, 377.8398
1334.318, 153.8945
1335.381, 210.4492
1336.444, 185.4844
1337.507, 355.2891
1338.569, 139.7031
1339.632, 279.1055
1340.694, 182.5039
1341.756, 443.8945
1342.818, 83.27344
1343.880, 365.6055
1344.941, 208.9688
1346.003, 284.4492
1347.064, 290.7930
1348.125, 276.1367
1349.186, 318.4688
1350.247, 203.7969
1351.308, 169.1367
1352.368, 218.4258
1353.428, 243.2383
1354.489, 426.9492
1355.549, 389.2148
1356.608, 485.4727
1357.668, 473.7070
1358.727, 248.7070
1359.787, 78.13281
1360.846, 292.4961
1361.905, 322.6992
1362.964, 254.8594
1364.022, 189.0195
1365.081, 22.17188
1366.139, 233.3164
1367.197, 301.4492
1368.255, 243.5820
1369.313, 95.71094
1370.371, 257.8438
1371.428, 289.9727
1372.486, 81.09766
1373.543, 237.2109
1374.600, 56.31641
1375.657, 188.4180
1376.713, 310.5156
1377.770, 241.6055
1378.826, 39.30859
1379.882, 260.8594
1380.938, 117.9219
1381.994, 297.9766
1383.050, 248.0273
1384.106, 253.4648
1385.161, 67.28516
1386.216, 257.9531
1387.271, 258.9844
1388.326, 268.7812
1389.381, 523.1562
1390.435, 199.1797
1391.490, 34.79688
1392.544, 316.2070
1393.598, 113.2109
1394.652, 258.7969
1395.705, 330.7891
1396.759, 212.9453
1397.812, 210.1641
1398.866, 377.3359
1399.919, 199.0352
1400.972, 141.1094
1402.024, 77.97266
1403.077, 433.4727
1404.129, 201.5664
1405.181, 271.1758
1406.233, 226.0391
1407.285, 365.2422
1408.337, 286.1094
1409.389, 324.5820
1410.440, 152.7969
1411.491, 433.6641
1412.542, 163.5312
1413.593, 405.4023
1414.644, 280.2773
1415.695, 350.2031
1416.745, 287.1289
1417.795, 382.1992
1418.845, 372.8242
1419.895, 262.8906
1420.945, 163.7031
1421.995, 12.63281
1423.044, 289.1680
1424.093, 403.9688
1425.142, 335.9648
1426.191, 477.8047
1427.240, 392.0000
1428.289, 626.8203
1429.337, 452.6133
1430.385, 547.4023
1431.433, 555.1992
1432.481, 796.8984
1433.529, 754.4141
1434.577, 763.1875
1435.624, 825.9688
1436.672, 693.2070
1437.719, 655.1445
1438.766, 680.9141
1439.812, 276.6953
1440.859, 187.4961
1441.905, 237.3164
1442.952, 482.2461
1443.998, 262.9961
1445.044, 260.0117
1446.090, 198.9219
1447.135, 265.1523
1448.181, 87.77734
1449.226, 203.9336
1450.271, 362.9688
1451.316, 245.1094
1452.361, 73.23828
1453.405, 57.35547
1454.450, 211.4727
1455.494, 225.5742
1456.538, 260.0820
1457.582, 276.7695
1458.626, 305.7969
1459.670, 69.89453
1460.713, 64.98438
1461.757, 571.0742
1462.800, 289.1406
1463.843, 313.2031
1464.886, 116.2109
1465.928, 487.2070
1466.971, 188.0352
1468.013, 473.0000
1469.055, 273.9492
1470.097, 270.1797
1471.139, 69.11719
1472.181, 246.9688
1473.222, 269.7305
1474.263, 213.3438
1475.305, 198.2539
1476.346, 20.07031
1477.386, 214.8438
1478.427, 36.75391
1479.468, 82.46875
1480.508, 308.5508
1481.548, 178.5625
1482.588, 145.9805
1483.628, 37.09375
1484.668, 45.84375
1485.707, 59.84375
1486.747, 475.8750
1487.786, 285.1719
1488.825, 506.2656
1489.864, 198.4648
1490.902, 139.6680
1491.941, 323.8672
1492.979, 165.0703
1494.017, 220.2773
1495.055, 171.4883
1496.093, 218.7266
1497.131, 493.9961
1498.168, 235.7891
1499.206, 809.0547
1500.243, 655.3320
1501.280, 612.6133
1502.317, 232.9023
1503.354, 370.2383
1504.390, 237.6289
1505.426, 472.0234
1506.463, 464.4258
1507.499, 452.8477
1508.535, 559.2969
1509.570, 432.7617
1510.606, 166.1992
1511.641, 135.6797
1512.676, 208.0117
1513.711, 110.7969
1514.746, 149.7031
1515.781, 245.2148
1516.816, 352.2305
1517.850, 306.7539
1518.884, 323.2969
1519.918, 200.8516
1520.952, 356.4297
1521.986, 316.7461
1523.019, 349.3828
1524.053, 292.0547
1525.086, 189.1133
1526.119, 223.5664
1527.152, 3.914063
1528.185, 58.73828
1529.217, 275.2695
1530.250, 270.9297
1531.282, 34.70703
1532.314, 276.5078
1533.346, 17.67188
1534.377, 270.1758
1535.409, 371.0703
1536.440, 195.0156
1537.472, 326.9922
1538.503, 136.9922
1539.534, 305.0195
1540.564, 314.0781
1541.595, 96.16406
1542.625, 204.2773
1543.656, 53.86328
1544.686, 145.0273
1545.716, 172.1562
1546.745, 138.2383
1547.775, 268.2656
1548.804, 61.28125
1549.834, 111.8398
1550.863, 37.30469
1551.892, 203.9180
1552.920, 248.2734
1553.949, 251.4062
1554.977, 130.4062
1556.006, 218.2422
1557.034, 296.5430
1558.062, 204.5781
1559.089, 331.7500
1560.117, 37.05078
1561.144, 113.2344
1562.172, 418.3555
1563.199, 490.6328
1564.226, 195.3320
1565.252, 355.1562
1566.279, 308.0391
1567.305, 325.7812
1568.332, 177.0664
1569.358, 229.3789
1570.384, 1.738281
1571.409, 0.0000000E+00
##END=



