##NAMES=Titanite
##RRUFFID=R050114
##IDEAL CHEMISTRY=CaTi^4+^SiO_5_
##LOCALITY=Isthak Valley Iskardu, Northern Areas Gilgit, Pakistan
##OWNER=RRUFF
##SOURCE=Syed Shah
##DESCRIPTION=Yellowish-brown fragment
##STATUS=The identification of this mineral has been confirmed by X-ray diffraction and chemical analysis
##URL=rruff.info/R050114
##MEASURED CHEMISTRY=(Ca_0.99_Na_0.01_)(Ti_0.96_Al_0.03_Fe^3+^_0.01_)Si_1.00_O_4_(O_0.95_F_0.05_)
##PIN_ID=L00350
##ORIENTATION=Laser parallel to (1 0 1). Fiducial mark perpendicular to laser is parallel to b [0 1 0]
138.970, 0.000
140.355, 13.855
141.740, 75.641
143.124, 193.424
144.509, 275.221
145.893, 177.086
147.277, 101.771
148.660, 127.488
150.044, 138.477
151.427, 714.381
152.810, 1065.826
154.193, 2419.156
155.576, 3961.430
156.958, 6400.830
158.341, 8596.055
159.723, 11285.578
161.105, 13867.867
162.486, 15271.449
163.867, 16795.020
165.249, 15887.428
166.630, 15377.688
168.010, 13324.936
169.391, 11548.424
170.771, 10207.723
172.151, 8433.504
173.531, 7997.094
174.911, 6818.576
176.290, 7236.783
177.669, 7240.648
179.049, 7269.277
180.427, 7801.922
181.806, 7737.953
183.184, 8466.859
184.562, 8128.232
185.940, 8611.752
187.318, 8127.152
188.696, 8104.211
190.073, 8252.742
191.450, 8232.586
192.827, 8703.598
194.204, 9185.654
195.580, 9678.652
196.956, 10162.492
198.332, 10397.084
199.708, 11462.377
201.084, 11719.412
202.459, 13122.184
203.834, 13654.799
205.209, 15380.656
206.584, 16290.180
207.958, 16759.635
209.333, 17761.180
210.707, 17760.029
212.081, 18636.125
213.454, 17589.602
214.828, 17830.596
216.201, 18189.232
217.574, 18115.607
218.947, 19079.818
220.320, 18681.971
221.692, 19902.146
223.064, 19740.525
224.436, 20727.314
225.808, 21062.592
227.179, 21536.625
228.551, 22509.578
229.922, 22211.586
231.293, 23222.727
232.663, 22793.096
234.034, 22942.738
235.404, 22811.736
236.774, 22300.117
238.144, 22547.936
239.514, 22485.227
240.883, 23182.012
242.252, 23808.318
243.621, 25304.166
244.990, 26909.584
246.359, 28464.574
247.727, 31099.150
249.095, 32093.326
250.463, 34127.129
251.831, 35010.539
253.198, 35253.594
254.566, 35786.285
255.933, 35038.598
257.299, 34320.551
258.666, 32592.141
260.033, 30665.225
261.399, 27661.988
262.765, 24576.334
264.131, 22525.225
265.496, 19435.504
266.862, 17380.412
268.227, 15446.412
269.592, 14142.573
270.957, 13299.922
272.321, 12000.433
273.685, 11741.975
275.050, 11191.101
276.413, 11028.392
277.777, 10936.910
279.141, 10473.131
280.504, 10712.028
281.867, 10549.903
283.230, 10827.732
284.592, 10555.496
285.955, 11003.154
287.317, 10780.650
288.679, 10937.922
290.041, 10984.927
291.403, 10011.636
292.764, 9418.050
294.125, 8004.178
295.486, 6980.023
296.847, 6725.593
298.207, 6670.892
299.568, 7735.922
300.928, 8310.694
302.288, 9425.207
303.647, 9985.100
305.007, 10404.509
306.366, 10647.091
307.725, 10300.553
309.084, 10665.826
310.443, 10536.101
311.801, 10914.803
313.159, 11242.917
314.517, 11354.236
315.875, 12316.641
317.233, 12230.007
318.590, 12764.223
319.947, 12469.203
321.304, 12164.863
322.661, 12371.124
324.018, 11827.922
325.374, 12465.190
326.730, 12582.875
328.086, 13240.926
329.442, 13929.304
330.797, 14457.968
332.153, 15476.886
333.508, 15486.024
334.863, 16075.355
336.217, 16094.845
337.572, 15374.458
338.926, 15034.156
340.280, 13873.908
341.634, 13433.687
342.988, 11863.466
344.341, 11343.228
345.694, 10122.957
347.047, 9502.635
348.400, 8922.253
349.753, 8111.799
351.105, 7891.261
352.457, 7370.632
353.809, 6989.904
355.161, 7099.070
356.512, 6558.125
357.864, 6757.058
359.215, 6295.871
360.566, 6374.553
361.916, 6253.102
363.267, 5871.516
364.617, 5999.779
365.967, 5527.869
367.317, 5545.739
368.667, 5243.329
370.016, 4720.581
371.366, 4767.449
372.715, 4053.923
374.064, 3870.013
375.412, 3175.730
376.761, 2821.087
378.109, 2386.094
379.457, 1742.758
380.805, 1344.083
382.152, 707.071
383.500, 348.701
384.847, 114.947
386.194, 111.234
387.541, 187.896
388.887, 481.053
390.233, 461.780
391.580, 759.068
392.926, 889.991
394.271, 1025.586
395.617, 1308.882
396.962, 1369.955
398.307, 1660.819
399.652, 1677.550
400.997, 1828.150
402.341, 1885.659
403.686, 1746.091
405.030, 1738.409
406.374, 1601.609
407.717, 1506.654
409.061, 1354.522
410.404, 1052.168
411.747, 787.513
413.090, 355.486
414.433, 68.025
415.775, 753.135
417.117, 1539.953
418.459, 2255.513
419.801, 3533.834
421.143, 4469.923
422.484, 5945.767
423.825, 6791.309
425.166, 7546.343
426.507, 8000.634
427.848, 7783.965
429.188, 7416.107
430.528, 6756.851
431.868, 6355.985
433.208, 5663.382
434.547, 5219.029
435.887, 5133.049
437.226, 4825.621
438.565, 4997.087
439.904, 4877.947
441.242, 5048.634
442.580, 5279.229
443.918, 5089.736
445.256, 5480.160
446.594, 5770.497
447.932, 5890.749
449.269, 6390.919
450.606, 6591.003
451.943, 7421.007
453.280, 7980.931
454.616, 9170.776
455.952, 9940.544
457.288, 11210.236
458.624, 13109.854
459.960, 14379.401
461.295, 16778.879
462.631, 19068.291
463.966, 21197.639
465.300, 24146.910
466.635, 25556.115
467.969, 28085.240
469.304, 28154.271
470.638, 27583.225
471.972, 25952.088
473.305, 22080.861
474.639, 19459.523
475.972, 15958.062
477.305, 13206.478
478.638, 10534.769
479.970, 8242.934
481.303, 6930.960
482.635, 5588.853
483.967, 4726.611
485.298, 4073.214
486.630, 3744.670
487.961, 3499.979
489.293, 3241.134
490.624, 3389.140
491.954, 3226.991
493.285, 3376.688
494.615, 3584.244
495.945, 3457.646
497.275, 3856.902
498.605, 3844.018
499.935, 4103.996
501.264, 4083.846
502.593, 4210.573
503.922, 4515.177
505.251, 4580.665
506.579, 4906.027
507.908, 5111.266
509.236, 5146.385
510.564, 5731.397
511.891, 5736.291
513.219, 6191.073
514.546, 6455.746
515.873, 6850.294
517.200, 7324.728
518.527, 7489.039
519.853, 8283.234
521.180, 8647.317
522.506, 9001.290
523.832, 9735.161
525.157, 10108.936
526.483, 11202.617
527.808, 11576.210
529.133, 12619.721
530.458, 13653.160
531.783, 14456.518
533.107, 15759.792
534.431, 16593.006
535.756, 17936.133
537.079, 19159.188
538.403, 19762.162
539.727, 21293.672
541.050, 21353.365
542.373, 22447.312
543.696, 22854.066
545.018, 22971.646
546.341, 23694.812
547.663, 22872.707
548.985, 23521.764
550.307, 22901.564
551.629, 22172.285
552.950, 21784.352
554.271, 20007.506
555.592, 19542.479
556.913, 17983.240
558.234, 16815.387
559.554, 15896.136
560.875, 13997.105
562.195, 13244.169
563.514, 11929.716
564.834, 10645.496
566.154, 9689.641
567.473, 8359.542
568.792, 8028.813
570.111, 7266.910
571.429, 7071.480
572.748, 7493.042
574.066, 7901.081
575.384, 8940.556
576.702, 9667.898
578.019, 11098.194
579.337, 12419.317
580.654, 13900.424
581.971, 16061.514
583.288, 17502.598
584.605, 19973.662
585.921, 22064.721
587.237, 24155.773
588.553, 26946.832
589.869, 28997.898
591.185, 32228.977
592.500, 34490.078
593.815, 36771.207
595.130, 40992.371
596.445, 42643.586
597.760, 45684.844
599.074, 47716.156
600.389, 49387.523
601.703, 52918.918
603.016, 52680.398
604.330, 54571.914
605.644, 54683.480
606.957, 54715.105
608.270, 55536.777
609.583, 53338.512
610.895, 53010.301
612.208, 50922.141
613.520, 49204.035
614.832, 48685.984
616.144, 45347.980
617.455, 44150.504
618.767, 41702.961
620.078, 40005.562
621.389, 37878.520
622.700, 36301.137
624.011, 34735.113
625.321, 32658.029
626.631, 31141.061
627.941, 30456.174
629.251, 28119.230
630.561, 27584.633
631.870, 25958.580
633.180, 24743.213
634.489, 23667.703
635.798, 22573.557
637.106, 21909.396
638.415, 20804.592
639.723, 19860.523
641.031, 19197.289
642.339, 17980.721
643.647, 18036.002
644.954, 16652.111
646.261, 16346.298
647.568, 15642.729
648.875, 14957.969
650.182, 14763.409
651.488, 13802.660
652.795, 13608.504
654.101, 12946.585
655.407, 12315.863
656.712, 12166.470
658.018, 11548.875
659.323, 11192.265
660.628, 11166.285
661.933, 10261.825
663.238, 10484.839
664.542, 9747.866
665.847, 9653.313
667.151, 9400.756
668.455, 8865.304
669.758, 8891.668
671.062, 8229.171
672.365, 8102.095
673.668, 8007.607
674.971, 7561.253
676.274, 7566.242
677.577, 7062.467
678.879, 6898.270
680.181, 6727.122
681.483, 6296.083
682.785, 6416.160
684.086, 5887.799
685.388, 5789.690
686.689, 5673.536
687.990, 5426.703
689.290, 5367.007
690.591, 5212.300
691.891, 5032.982
693.192, 4834.713
694.491, 4585.677
695.791, 4695.569
697.091, 4301.417
698.390, 4328.222
699.689, 4100.890
700.988, 3982.601
702.287, 3983.769
703.586, 3640.660
704.884, 3673.870
706.182, 3527.316
707.480, 3171.075
708.778, 3263.441
710.076, 3014.972
711.373, 3041.671
712.670, 3075.395
713.968, 2694.610
715.264, 2724.414
716.561, 2512.558
717.857, 2502.265
719.154, 2457.147
720.450, 2106.628
721.746, 2220.375
723.041, 2007.757
724.337, 2063.750
725.632, 1936.313
726.927, 1777.369
728.222, 1788.844
729.517, 1677.628
730.811, 1546.609
732.105, 1603.679
733.400, 1364.799
734.693, 1562.957
735.987, 1313.145
737.281, 1273.364
738.574, 1189.613
739.867, 1116.892
741.160, 1211.199
742.453, 942.535
743.745, 904.898
745.038, 1020.289
746.330, 849.705
747.622, 868.148
748.913, 715.617
750.205, 652.111
751.496, 701.629
752.788, 535.172
754.079, 649.737
755.369, 495.326
756.660, 373.936
757.950, 476.566
759.241, 274.218
760.531, 350.889
761.820, 268.578
763.110, 191.286
764.399, 240.009
765.689, 101.748
766.978, 126.502
768.267, 134.270
769.555, 61.050
770.844, 74.842
772.132, 37.356
773.420, 26.552
774.708, 33.746
775.996, 55.908
777.283, 24.457
778.570, 100.020
779.857, 36.984
781.144, 41.045
782.431, 124.883
783.718, 31.727
785.004, 123.506
786.290, 64.820
787.576, 85.991
788.862, 74.462
790.147, 114.026
791.433, 107.932
792.718, 81.157
794.003, 98.605
795.288, 116.640
796.572, 34.896
797.857, 60.939
799.141, 80.466
800.425, 3.935
801.709, 78.130
802.992, 36.292
804.276, 37.775
805.559, 127.359
806.842, 39.005
808.125, 89.865
809.407, 109.817
810.690, 130.078
811.972, 157.532
813.254, 168.974
814.536, 172.896
815.818, 190.058
817.099, 142.419
818.381, 136.104
819.662, 167.957
820.943, 192.998
822.223, 140.190
823.504, 162.510
824.784, 173.973
826.065, 94.588
827.345, 129.317
828.624, 93.181
829.904, 108.166
831.183, 121.581
832.462, 108.542
833.741, 150.940
835.020, 146.500
836.299, 158.225
837.577, 177.127
838.856, 175.214
840.134, 200.494
841.412, 183.981
842.689, 132.667
843.967, 206.532
845.244, 127.612
846.521, 138.874
847.798, 121.325
849.075, 98.959
850.351, 140.770
851.628, 118.782
852.904, 78.986
854.180, 105.365
855.455, 41.935
856.731, 45.669
858.006, 42.570
859.281, 45.359
860.556, 16.840
861.831, 89.795
863.106, 42.312
864.380, 112.685
865.655, 129.940
866.929, 137.078
868.202, 252.097
869.476, 333.026
870.750, 370.864
872.023, 504.609
873.296, 529.261
874.569, 653.818
875.842, 763.281
877.114, 896.645
878.386, 1026.909
879.658, 1043.068
880.930, 1253.121
882.202, 1283.065
883.474, 1418.899
884.745, 1524.620
886.016, 1561.229
887.287, 1602.723
888.558, 1537.104
889.829, 1485.370
891.099, 1450.521
892.369, 1288.557
893.639, 1233.476
894.909, 1109.279
896.179, 933.991
897.448, 888.559
898.718, 798.080
899.987, 769.701
901.256, 890.108
902.524, 910.552
903.793, 1021.890
905.061, 1133.151
906.329, 1271.427
907.597, 1540.597
908.865, 1779.688
910.133, 2059.673
911.400, 2367.581
912.667, 2489.455
913.934, 2694.163
915.201, 2661.784
916.468, 2542.208
917.734, 2341.477
919.001, 2024.679
920.267, 1818.706
921.532, 1533.564
922.798, 1387.401
924.064, 1159.965
925.329, 1020.974
926.594, 922.990
927.859, 844.740
929.124, 700.021
930.388, 706.462
931.653, 561.461
932.917, 586.402
934.181, 534.099
935.445, 529.640
936.708, 515.041
937.972, 476.006
939.235, 469.296
940.498, 436.653
941.761, 441.069
943.024, 456.052
944.286, 386.947
945.548, 481.456
946.811, 459.094
948.072, 430.862
949.334, 448.862
950.596, 434.891
951.857, 431.166
953.118, 528.227
954.379, 519.015
955.640, 572.931
956.901, 588.697
958.161, 582.523
959.421, 623.784
960.681, 628.581
961.941, 681.249
963.201, 702.647
964.460, 679.037
965.720, 739.490
966.979, 771.261
968.238, 778.400
969.496, 823.126
970.755, 829.739
972.013, 902.933
973.272, 886.092
974.529, 879.011
975.787, 948.185
977.045, 905.147
978.302, 954.608
979.560, 974.658
980.817, 979.357
982.073, 944.672
983.330, 948.669
984.587, 953.023
985.843, 950.984
987.099, 907.086
988.355, 910.013
989.611, 925.656
990.866, 905.631
992.122, 927.538
993.377, 866.642
994.632, 871.050
995.887, 865.339
997.141, 856.287
998.396, 852.515
999.650, 866.088
1000.904, 864.036
1002.158, 900.103
1003.412, 866.554
1004.665, 906.089
1005.918, 899.614
1007.172, 912.637
1008.425, 969.161
1009.677, 1011.618
1010.930, 1017.799
1012.182, 1126.900
1013.434, 1068.517
1014.687, 1179.151
1015.938, 1085.029
1017.190, 1155.252
1018.441, 1124.461
1019.693, 1130.641
1020.944, 1183.042
1022.195, 1113.485
1023.445, 1100.370
1024.696, 1143.244
1025.946, 1085.433
1027.197, 997.534
1028.446, 952.549
1029.696, 899.478
1030.946, 815.320
1032.195, 796.077
1033.445, 728.749
1034.694, 682.336
1035.942, 613.838
1037.191, 609.258
1038.440, 597.593
1039.688, 525.847
1040.936, 536.018
1042.184, 517.107
1043.432, 487.115
1044.679, 477.042
1045.927, 415.889
1047.174, 420.656
1048.421, 401.344
1049.668, 346.952
1050.914, 367.480
1052.161, 327.929
1053.407, 322.298
1054.653, 309.587
1055.899, 274.797
1057.145, 268.927
1058.391, 255.977
1059.636, 249.948
1060.881, 236.503
1062.126, 212.652
1063.371, 220.386
1064.615, 209.043
1065.860, 223.621
1067.104, 228.122
1068.348, 211.548
1069.592, 220.899
1070.836, 228.174
1072.079, 200.376
1073.323, 232.504
1074.566, 221.560
1075.809, 213.547
1077.052, 223.467
1078.294, 233.289
1079.537, 252.429
1080.779, 251.516
1082.021, 259.381
1083.263, 267.377
1084.504, 262.530
1085.746, 288.611
1086.987, 288.561
1088.228, 295.966
1089.469, 339.156
1090.710, 344.571
1091.951, 320.006
1093.191, 330.702
1094.431, 300.639
1095.671, 318.721
1096.911, 293.313
1098.151, 293.254
1099.390, 312.504
1100.630, 257.373
1101.869, 264.102
1103.108, 248.491
1104.346, 243.765
1105.585, 209.288
1106.823, 219.844
1108.062, 192.363
1109.300, 225.022
1110.537, 188.684
1111.775, 154.564
1113.013, 184.542
1114.250, 153.443
1115.487, 145.622
1116.724, 153.968
1117.961, 120.388
1119.197, 125.020
1120.434, 106.705
1121.670, 97.453
1122.906, 111.218
1124.142, 75.989
1125.377, 76.772
1126.613, 76.573
1127.848, 28.372
1129.083, 51.178
1130.318, 43.985
1131.553, 45.799
1132.787, 44.626
1134.022, 2.463
1135.256, 33.317
1136.490, 30.195
1137.724, 7.103
1138.957, 30.042
1140.191, 41.019
1141.424, 0.041
1142.657, 18.101
1143.890, 8.809
1145.123, 11.324
1146.355, 1.511
1147.588, 7.686
1148.820, 25.917
1150.052, 7.180
1151.284, 24.484
1152.516, 32.828
1153.747, 28.202
1154.978, 55.616
1156.209, 32.055
1157.440, 8.521
1158.671, 73.013
1159.902, 71.513
1161.132, 115.039
1162.362, 153.566
1163.592, 146.109
1164.822, 190.654
1166.052, 207.198
1167.281, 219.743
1168.511, 294.273
1169.740, 299.786
1170.969, 368.283
1172.197, 441.761
1173.426, 496.220
1174.654, 641.660
1175.883, 707.080
1177.111, 832.480
1178.338, 907.861
1179.566, 918.223
1180.794, 953.567
1182.021, 979.893
1183.248, 893.201
1184.475, 888.492
1185.702, 769.765
1186.928, 677.022
1188.155, 637.263
1189.381, 531.487
1190.607, 538.696
1191.833, 491.890
1193.059, 425.069
1194.284, 485.206
1195.509, 497.356
1196.735, 499.422
1197.960, 539.255
1199.184, 526.170
1200.409, 552.915
1201.633, 546.635
1202.858, 484.298
1204.082, 502.814
1205.306, 460.304
1206.529, 436.739
1207.753, 472.150
1208.976, 412.505
1210.199, 446.761
1211.422, 435.051
1212.645, 419.295
1213.868, 423.602
1215.090, 401.932
1216.313, 396.195
1217.535, 393.501
1218.757, 340.841
1219.978, 352.069
1221.200, 349.436
1222.421, 348.762
1223.643, 358.059
1224.864, 357.404
1226.084, 363.795
1227.305, 374.274
1228.526, 408.759
1229.746, 419.343
1230.966, 449.872
1232.186, 452.661
1233.406, 508.494
1234.625, 515.375
1235.845, 543.321
1237.064, 543.477
1238.283, 555.659
1239.502, 551.870
1240.721, 575.223
1241.939, 524.449
1243.157, 569.251
1244.376, 594.710
1245.594, 572.026
1246.811, 632.968
1248.029, 628.202
1249.247, 582.664
1250.464, 592.095
1251.681, 544.800
1252.898, 534.028
1254.115, 532.095
1255.331, 486.576
1256.548, 457.290
1257.764, 410.832
1258.980, 419.708
1260.196, 394.929
1261.411, 356.873
1262.627, 326.562
1263.842, 327.616
1265.057, 284.139
1266.272, 299.522
1267.487, 264.378
1268.702, 287.214
1269.916, 257.050
1271.130, 260.727
1272.344, 272.413
1273.558, 242.076
1274.772, 248.517
1275.986, 235.089
1277.199, 221.619
1278.412, 244.219
1279.625, 261.756
1280.838, 214.560
1282.051, 253.149
1283.263, 230.579
1284.475, 259.709
1285.687, 270.203
1286.899, 286.666
1288.111, 277.550
1289.323, 311.936
1290.534, 293.398
1291.745, 338.751
1292.957, 388.721
1294.167, 362.055
1295.378, 398.516
1296.589, 438.881
1297.799, 454.350
1299.009, 485.861
1300.219, 507.359
1301.429, 538.977
1302.639, 545.502
1303.848, 548.935
1305.057, 534.642
1306.267, 560.348
1307.476, 563.239
1308.684, 574.292
1309.893, 528.315
1311.101, 566.425
1312.310, 580.522
1313.518, 505.592
1314.725, 529.647
1315.933, 534.680
1317.141, 525.669
1318.348, 558.636
1319.555, 516.572
1320.762, 480.466
1321.969, 544.342
1323.176, 498.198
1324.382, 469.037
1325.589, 495.864
1326.795, 461.680
1328.001, 443.485
1329.206, 427.280
1330.412, 390.065
1331.617, 407.839
1332.823, 383.603
1334.028, 359.359
1335.233, 396.106
1336.437, 363.844
1337.642, 373.573
1338.846, 375.293
1340.051, 352.002
1341.255, 395.701
1342.458, 378.437
1343.662, 392.161
1344.866, 397.830
1346.069, 364.536
1347.272, 354.217
1348.475, 379.979
1349.678, 387.740
1350.880, 365.367
1352.083, 361.655
1353.285, 351.258
1354.487, 340.912
1355.689, 317.890
1356.891, 268.554
1358.093, 292.210
1359.294, 270.198
1360.495, 236.796
1361.696, 247.460
1362.897, 201.167
1364.098, 194.706
1365.298, 197.329
1366.499, 142.875
1367.699, 166.339
1368.899, 122.897
1370.099, 113.278
1371.298, 115.635
1372.498, 82.074
1373.697, 63.331
1374.896, 58.562
1376.095, 50.716
1377.294, 40.794
1378.493, 31.796
1379.691, 27.721
1380.889, 18.139
1382.087, 15.097
1383.285, 8.279
1384.483, 4.555
1385.681, 1.588
1386.878, 12.283
1388.075, 23.174
1389.272, 20.095
1390.469, 13.036
1391.666, 2.007
1392.862, 22.000
1394.059, 6.004
1395.255, 26.020
1396.451, 36.039
1397.647, 20.941
1398.842, 24.076
1400.038, 9.088
1401.233, 24.094
1402.428, 31.091
1403.623, 18.078
1404.818, 10.948
1406.013, 11.015
1407.207, 1.041
1408.401, 8.882
1409.595, 5.791
1410.789, 5.312
1411.983, 5.423
1413.177, 20.543
1414.370, 26.671
1415.563, 28.655
1416.756, 37.393
1417.949, 34.064
1419.142, 40.189
1420.335, 46.312
1421.527, 34.435
1422.719, 51.559
1423.911, 55.685
1425.103, 33.815
1426.295, 71.948
1427.486, 63.085
1428.677, 62.228
1429.869, 103.376
1431.060, 114.531
1432.250, 114.693
1433.441, 135.862
1434.632, 110.040
1435.822, 138.226
1437.012, 169.420
1438.202, 142.617
1439.392, 162.821
1440.581, 194.035
1441.771, 192.255
1442.960, 229.487
1444.149, 205.734
1445.338, 203.997
1446.527, 264.279
1447.715, 241.584
1448.904, 226.668
1450.092, 255.533
1451.280, 245.161
1452.468, 246.550
1453.656, 251.508
1454.843, 246.591
1456.031, 248.018
1457.218, 243.978
1458.405, 241.524
1459.592, 238.865
1460.778, 212.140
1461.965, 216.737
1463.151, 221.459
1464.337, 196.616
1465.523, 168.641
1466.709, 172.039
1467.895, 149.646
1469.080, 149.475
1470.266, 127.364
1471.451, 128.303
1472.636, 139.108
1473.821, 100.818
1475.005, 94.956
1476.190, 124.102
1477.374, 72.409
1478.558, 76.604
1479.742, 68.676
1480.926, 55.612
1482.109, 76.401
1483.293, 55.028
1484.476, 40.474
1485.659, 39.723
1486.842, 48.781
1488.025, 35.666
1489.207, 37.522
1490.390, 14.437
1491.572, 12.675
1492.754, 40.240
1493.936, 4.954
1495.118, 41.957
1496.299, 27.866
1497.481, 0.239
1498.662, 21.648
1499.843, 21.487
1501.024, 0.729
1502.205, 31.022
1503.385, 14.395
1504.565, 8.737
1505.746, 37.746
1506.926, 15.000
1508.106, 17.411
1509.285, 61.570
1510.465, 5.184
1511.644, 26.694
1512.823, 21.354
1514.002, 0.092
1515.181, 30.536
1516.360, 6.763
1517.538, 34.118
1518.717, 9.466
1519.895, 2.975
1521.073, 0.000
##END=



