##NAMES=Titanite
##RRUFFID=R050124
##IDEAL CHEMISTRY=CaTi^4+^SiO_5_
##LOCALITY=Capelinha, Minas Gerais, Brazil
##OWNER=RRUFF
##SOURCE=Carlos and Paulo Vasconcelos
##DESCRIPTION=Yellow tabular crystal
##STATUS=The identification of this mineral has been confirmed by X-ray diffraction and chemical analysis
##URL=rruff.info/R050124
##MEASURED CHEMISTRY=Ca_1.00_(Ti_0.93_Al_0.05_Fe^3+^_0.02_)Si_1.00_O_4_(O)_1.00_
##PIN_ID=M00396
##ORIENTATION=Laser parallel to -a* (-1 0 0). Fiducial mark perpendicular to laser is parallel to -b [0 -1 0]
148.691, 0.000
150.080, 43.746
151.469, 265.935
152.858, 538.611
154.247, 1975.891
155.635, 3154.947
157.024, 5235.340
158.411, 6973.670
159.799, 8230.673
161.187, 9349.433
162.574, 8954.579
163.961, 8551.896
165.348, 6868.391
166.734, 6071.986
168.121, 4240.718
169.507, 3112.746
170.893, 2246.449
172.278, 1610.377
173.664, 1853.280
175.049, 1314.084
176.434, 1841.871
177.819, 2205.856
179.203, 2295.816
180.587, 2872.392
181.971, 2736.100
183.355, 3246.203
184.739, 2751.706
186.122, 2771.781
187.505, 2385.781
188.888, 1843.232
190.271, 2443.709
191.653, 1896.766
193.035, 2512.020
194.417, 2159.178
195.799, 2588.006
197.180, 2568.313
198.562, 2739.932
199.943, 3142.727
201.324, 3246.571
202.704, 3991.361
204.084, 4137.001
205.465, 4503.406
206.844, 4890.627
208.224, 4812.273
209.603, 4891.633
210.983, 4359.149
212.362, 4676.382
213.740, 4071.352
215.119, 4117.604
216.497, 4341.939
217.875, 4054.409
219.253, 4675.111
220.631, 4534.142
222.008, 5071.586
223.385, 5237.527
224.762, 5612.348
226.139, 5946.655
227.515, 6170.393
228.891, 6983.482
230.267, 6875.734
231.643, 7276.908
233.018, 7466.633
234.394, 7305.189
235.769, 8122.788
237.144, 7869.570
238.518, 8645.646
239.893, 8771.112
241.267, 9906.030
242.641, 11000.462
244.014, 12054.453
245.388, 13858.039
246.761, 14791.248
248.134, 16954.107
249.507, 17886.643
250.879, 19088.861
252.252, 20610.781
253.624, 20702.408
254.996, 21843.746
256.367, 21024.811
257.739, 20535.604
259.110, 18956.123
260.481, 17216.391
261.852, 15646.390
263.222, 13196.768
264.592, 11803.221
265.962, 9988.343
267.332, 9071.807
268.702, 8240.562
270.071, 7213.703
271.440, 7335.103
272.809, 6811.037
274.178, 7721.842
275.546, 7592.304
276.915, 8264.033
278.283, 9119.516
279.650, 9670.340
281.018, 10872.938
282.385, 11589.570
283.752, 13106.146
285.119, 14912.667
286.486, 16739.119
287.852, 18785.492
289.218, 19571.779
290.584, 20217.975
291.950, 18974.037
293.316, 17129.932
294.681, 14145.621
296.046, 11201.062
297.411, 9177.321
298.775, 6899.188
300.140, 6110.729
301.504, 5359.660
302.868, 5046.229
304.231, 5309.986
305.595, 5202.713
306.958, 6323.982
308.321, 6464.282
309.684, 7969.027
311.047, 9641.232
312.409, 11472.229
313.771, 13772.605
315.133, 15128.896
316.495, 16231.114
317.856, 15005.968
319.217, 13702.996
320.578, 11501.854
321.939, 9552.249
323.299, 8663.951
324.660, 7326.775
326.020, 7150.568
327.380, 6675.207
328.739, 6700.578
330.099, 6936.594
331.458, 6733.170
332.817, 7270.234
334.176, 6817.725
335.534, 6615.580
336.892, 6543.754
338.251, 5862.201
339.608, 5970.884
340.966, 5299.768
342.323, 5128.820
343.681, 4968.016
345.037, 4737.319
346.394, 4966.696
347.751, 4456.117
349.107, 4755.556
350.463, 4144.989
351.819, 4074.398
353.174, 3713.765
354.530, 3113.074
355.885, 3092.313
357.240, 2501.470
358.594, 2490.533
359.949, 2179.496
361.303, 1968.350
362.657, 2157.086
364.011, 1775.698
365.365, 2104.182
366.718, 1652.527
368.071, 1750.733
369.424, 1718.795
370.777, 1269.707
372.129, 1574.446
373.481, 1006.979
374.833, 1016.268
376.185, 650.268
377.537, 288.945
378.888, 328.278
380.239, 263.724
381.590, 164.178
382.941, 552.058
384.291, 653.458
385.642, 547.400
386.992, 845.857
388.341, 446.903
389.691, 895.434
391.040, 708.568
392.389, 867.259
393.738, 1158.545
395.087, 856.502
396.435, 1283.045
397.784, 1069.285
399.132, 1284.161
400.479, 1106.730
401.827, 899.941
403.174, 1177.745
404.521, 550.208
405.868, 732.168
407.215, 254.674
408.561, 178.402
409.908, 465.171
411.254, 1571.671
412.599, 2002.928
413.945, 3406.942
415.290, 4529.715
416.636, 5992.247
417.980, 8454.538
419.325, 9856.590
420.670, 12188.402
422.014, 12909.979
423.358, 13491.318
424.702, 13172.421
426.045, 11693.283
427.389, 10723.877
428.732, 8813.879
430.075, 7643.008
431.417, 6181.200
432.760, 4928.477
434.102, 4384.767
435.444, 3319.923
436.786, 3133.846
438.127, 2282.532
439.469, 2044.106
440.810, 1764.847
442.151, 1124.153
443.492, 1345.287
444.832, 732.293
446.172, 738.147
447.512, 789.853
448.852, 277.409
450.192, 538.766
451.531, 172.977
452.870, 359.969
454.209, 317.800
455.548, 225.442
456.887, 609.878
458.225, 235.204
459.563, 603.324
460.901, 392.272
462.238, 383.973
463.576, 557.383
464.913, 280.576
466.250, 717.490
467.587, 362.193
468.923, 501.653
470.259, 587.878
471.596, 404.956
472.931, 917.828
474.267, 690.548
475.603, 1067.180
476.938, 1274.730
478.273, 1304.216
479.608, 1921.583
480.942, 1650.842
482.276, 2380.986
483.611, 2508.987
484.944, 2714.890
486.278, 3169.639
487.612, 3054.228
488.945, 3648.683
490.278, 3362.971
491.611, 3757.113
492.943, 3701.084
494.276, 3534.880
495.608, 3968.510
496.940, 3501.962
498.271, 3775.235
499.603, 3578.328
500.934, 3381.239
502.265, 3673.970
503.596, 3306.518
504.927, 3538.881
506.257, 3411.062
507.587, 3303.058
508.917, 3864.870
510.247, 3346.497
511.577, 4067.941
512.906, 3869.202
514.235, 3980.278
515.564, 4381.172
516.892, 4061.885
518.221, 4752.415
519.549, 4432.764
520.877, 4962.932
522.205, 5132.919
523.533, 5132.729
524.860, 5722.361
526.187, 5551.813
527.514, 6201.089
528.841, 6460.190
530.167, 6549.116
531.493, 7477.867
532.820, 7396.447
534.145, 8304.853
535.471, 8453.088
536.796, 8990.704
538.122, 9576.052
539.447, 9071.395
540.771, 9848.918
542.096, 9321.979
543.420, 9400.006
544.744, 9130.989
546.068, 8437.966
547.392, 8455.560
548.715, 7537.562
550.039, 6980.798
551.362, 6595.160
552.684, 5698.979
554.007, 5653.952
555.329, 4767.334
556.652, 4643.417
557.973, 4432.410
559.295, 4087.428
560.617, 4863.116
561.938, 4531.334
563.259, 5491.688
564.580, 6221.017
565.901, 6828.531
567.221, 8475.634
568.541, 8808.027
569.861, 10068.255
571.181, 10753.140
572.501, 11317.955
573.820, 12502.697
575.139, 12477.369
576.458, 13691.976
577.777, 14146.512
579.095, 15290.982
580.414, 16425.389
581.732, 16689.744
583.049, 18704.025
584.367, 19618.248
585.685, 21062.414
587.002, 23156.521
588.319, 24020.586
589.636, 26554.590
590.952, 27918.553
592.268, 30612.477
593.585, 33316.359
594.900, 34820.223
596.216, 38214.059
597.532, 40207.887
598.847, 43801.688
600.162, 46025.477
601.477, 47888.320
602.792, 51593.879
604.106, 52674.441
605.420, 54885.781
606.734, 56296.832
608.048, 56107.648
609.361, 56808.965
610.675, 55485.422
611.988, 55863.711
613.301, 54806.051
614.614, 51554.926
615.926, 51593.602
617.238, 49002.980
618.550, 46975.461
619.862, 45770.785
621.174, 42325.480
622.485, 41913.465
623.797, 38374.953
625.108, 38020.020
626.418, 35526.441
627.729, 33654.426
629.039, 33005.559
630.349, 29881.523
631.659, 29177.154
632.969, 27772.996
634.279, 25906.480
635.588, 25490.260
636.897, 23364.924
638.206, 22853.287
639.515, 21382.465
640.823, 20317.359
642.131, 20003.285
643.439, 18688.301
644.747, 18203.369
646.055, 17704.264
647.362, 16689.469
648.669, 16669.180
649.976, 15314.456
651.283, 15299.770
652.589, 14646.678
653.896, 13812.116
655.202, 14067.593
656.508, 12613.106
657.814, 13168.680
659.119, 12054.295
660.424, 11529.971
661.729, 11725.691
663.034, 10681.457
664.339, 11137.289
665.643, 10303.173
666.947, 9899.100
668.251, 10085.081
669.555, 8931.110
670.859, 9457.235
672.162, 8843.409
673.465, 8409.635
674.768, 8625.945
676.071, 7612.308
677.373, 7988.774
678.676, 7335.301
679.978, 7061.883
681.280, 7228.545
682.581, 6385.266
683.883, 6802.051
685.184, 6208.896
686.485, 5915.805
687.786, 6322.803
689.087, 5279.867
690.387, 5906.996
691.687, 5264.193
692.987, 4921.459
694.287, 5338.796
695.586, 4526.221
696.886, 4913.727
698.185, 4421.443
699.484, 4259.348
700.783, 4477.545
702.081, 3656.062
703.379, 3974.879
704.677, 3694.072
705.975, 3353.542
707.273, 3713.410
708.570, 2863.626
709.868, 3474.236
711.165, 2995.322
712.462, 2676.803
713.758, 3178.793
715.055, 2251.242
716.351, 2764.205
717.647, 2437.639
718.943, 2291.491
720.238, 2625.837
721.533, 1910.511
722.829, 2405.566
724.124, 2150.875
725.418, 1856.334
726.713, 2361.900
728.007, 1387.558
729.301, 1903.300
730.595, 1569.127
731.889, 1395.092
733.182, 1701.142
734.476, 987.286
735.769, 1433.532
737.061, 1249.865
738.354, 946.323
739.647, 1422.868
740.939, 656.502
742.231, 1076.270
743.523, 910.125
744.814, 506.091
746.106, 949.147
747.397, 324.293
748.688, 754.572
749.978, 570.939
751.269, 93.399
752.559, 615.968
753.849, 44.624
755.139, 389.429
756.429, 327.323
757.719, 116.688
759.008, 457.436
760.297, 56.339
761.586, 173.993
762.875, 286.429
764.163, 176.987
765.451, 435.702
766.739, 219.440
768.027, 39.508
769.315, 152.604
770.602, 359.144
771.890, 256.475
773.177, 166.093
774.463, 29.546
775.750, 174.095
777.036, 346.136
778.323, 287.064
779.609, 189.996
780.894, 109.177
782.180, 230.774
783.465, 386.009
784.750, 237.398
786.035, 134.265
787.320, 189.177
788.605, 269.271
789.889, 311.209
791.173, 168.692
792.457, 142.712
793.741, 165.082
795.024, 445.146
796.307, 329.120
797.591, 248.774
798.873, 73.838
800.156, 190.314
801.439, 536.230
802.721, 148.833
804.003, 266.321
805.285, 368.257
806.566, 54.643
807.848, 710.790
809.129, 190.018
810.410, 587.312
811.691, 768.518
812.971, 379.994
814.252, 1134.651
815.532, 710.263
816.812, 1019.942
818.092, 1267.962
819.371, 742.786
820.651, 1541.045
821.930, 1042.987
823.209, 1343.013
824.488, 1626.819
825.766, 1141.964
827.045, 1861.168
828.323, 1389.015
829.601, 1344.342
830.878, 2032.876
832.156, 1356.312
833.433, 2087.808
834.710, 1827.385
835.987, 1648.989
837.264, 2320.155
838.540, 1850.001
839.817, 2585.774
841.093, 2524.159
842.369, 2537.030
843.644, 3549.957
844.920, 2973.203
846.195, 3896.226
847.470, 4119.991
848.745, 4143.106
850.020, 5596.271
851.294, 5159.723
852.568, 6052.974
853.842, 6676.269
855.116, 6689.603
856.390, 7982.979
857.663, 7746.419
858.936, 8599.866
860.209, 9553.353
861.482, 9646.867
862.755, 11360.411
864.027, 11983.983
865.299, 13227.581
866.571, 15881.201
867.843, 16244.840
869.115, 18798.504
870.386, 19492.180
871.657, 20155.865
872.928, 21299.568
874.199, 20283.273
875.470, 20496.990
876.740, 20050.707
878.010, 19444.990
879.280, 20238.717
880.550, 19243.740
881.820, 19337.467
883.089, 19361.195
884.358, 17666.691
885.627, 17710.416
886.896, 15675.798
888.164, 14033.167
889.433, 13086.874
890.701, 10589.221
891.969, 9922.917
893.236, 8357.017
894.504, 7031.470
895.771, 6815.143
897.038, 5363.631
898.305, 5178.480
899.572, 4662.122
900.838, 3846.124
902.105, 4159.738
903.371, 3264.269
904.637, 3302.593
905.902, 3466.159
907.168, 2522.605
908.433, 3067.625
909.698, 2311.605
910.963, 2331.502
912.228, 2412.970
913.492, 1416.440
914.757, 1891.683
916.021, 1221.080
917.285, 819.546
918.548, 1200.891
919.812, 339.606
921.075, 665.412
922.338, 494.675
923.601, 52.312
924.864, 680.811
926.126, 60.332
927.388, 223.925
928.650, 214.867
929.912, 192.384
931.174, 395.092
932.435, 85.434
933.697, 116.643
934.958, 200.753
936.218, 332.471
937.479, 197.585
938.739, 19.321
940.000, 232.591
941.260, 309.147
942.520, 320.542
943.779, 148.143
945.039, 152.916
946.298, 275.141
947.557, 530.655
948.816, 145.271
950.074, 14.691
951.333, 421.513
952.591, 183.501
953.849, 464.207
955.107, 131.277
956.365, 98.010
957.622, 653.184
958.879, 92.979
960.136, 478.030
961.393, 354.306
962.650, 33.461
963.906, 658.485
965.162, 37.506
966.418, 297.748
967.674, 411.412
968.930, 21.244
970.185, 686.837
971.441, 177.520
972.696, 278.144
973.950, 684.248
975.205, 41.230
976.459, 569.891
977.714, 396.663
978.968, 30.931
980.222, 688.839
981.475, 57.058
982.729, 457.887
983.982, 527.185
985.235, 74.015
986.488, 709.001
987.740, 220.674
988.993, 314.284
990.245, 693.555
991.497, 48.045
992.749, 679.421
994.000, 397.449
995.252, 309.735
996.503, 904.572
997.754, 218.729
999.005, 740.817
1000.256, 828.662
1001.506, 339.621
1002.756, 1089.513
1004.006, 477.942
1005.256, 627.712
1006.506, 1041.998
1007.755, 413.634
1009.005, 1140.202
1010.254, 961.493
1011.502, 614.924
1012.751, 1379.288
1014.000, 686.583
1015.248, 1054.820
1016.496, 1157.323
1017.744, 582.421
1018.991, 1362.453
1020.239, 800.721
1021.486, 841.611
1022.733, 1204.429
1023.980, 487.176
1025.227, 1039.852
1026.473, 789.456
1027.719, 350.987
1028.965, 1056.444
1030.211, 255.828
1031.457, 576.127
1032.702, 647.354
1033.948, 28.491
1035.193, 819.486
1036.438, 245.390
1037.682, 157.205
1038.927, 758.915
1040.171, 25.550
1041.415, 612.035
1042.659, 426.469
1043.903, 9.176
1045.146, 743.010
1046.390, 124.740
1047.633, 295.733
1048.876, 663.641
1050.118, 1.527
1051.361, 679.138
1052.603, 332.741
1053.845, 132.259
1055.087, 819.660
1056.329, 56.859
1057.571, 437.276
1058.812, 444.331
1060.053, 77.646
1061.294, 839.131
1062.535, 216.847
1063.775, 367.467
1065.016, 875.003
1066.256, 113.512
1067.496, 839.914
1068.736, 607.239
1069.975, 295.854
1071.214, 959.037
1072.454, 324.143
1073.693, 619.867
1074.931, 926.854
1076.170, 209.991
1077.408, 916.825
1078.647, 516.583
1079.885, 369.902
1081.122, 1033.548
1082.360, 282.314
1083.597, 803.988
1084.835, 795.435
1086.072, 288.989
1087.308, 1152.338
1088.545, 388.936
1089.781, 520.525
1091.018, 1073.743
1092.254, 141.545
1093.490, 884.654
1094.725, 606.714
1095.961, 288.162
1097.196, 918.105
1098.431, 206.841
1099.666, 443.979
1100.900, 703.777
1102.135, 104.853
1103.369, 754.541
1104.603, 367.993
1105.837, 128.666
1107.071, 740.170
1108.304, 23.335
1109.538, 399.512
1110.771, 485.805
1112.004, 137.813
1113.236, 634.605
1114.469, 80.486
1115.701, 112.094
1116.933, 707.961
1118.165, 12.511
1119.397, 638.142
1120.629, 592.408
1121.860, 24.011
1123.091, 855.443
1124.322, 225.134
1125.553, 295.479
1126.783, 705.817
1128.014, 43.456
1129.244, 693.932
1130.474, 443.866
1131.704, 116.894
1132.933, 903.133
1134.163, 129.005
1135.392, 537.840
1136.621, 791.345
1137.850, 5.072
1139.079, 781.394
1140.307, 478.411
1141.535, 83.936
1142.763, 949.252
1143.991, 238.380
1145.219, 567.720
1146.446, 723.956
1147.674, 188.188
1148.901, 823.471
1150.128, 433.343
1151.354, 238.405
1152.581, 978.547
1153.807, 243.497
1155.033, 622.389
1156.259, 960.262
1157.485, 192.049
1158.710, 1042.776
1159.936, 615.450
1161.161, 452.073
1162.386, 1061.325
1163.611, 298.844
1164.835, 769.308
1166.060, 929.432
1167.284, 302.793
1168.508, 1197.102
1169.732, 640.357
1170.955, 598.563
1172.179, 1330.719
1173.402, 491.825
1174.625, 1135.881
1175.848, 1329.941
1177.070, 690.897
1178.293, 1572.502
1179.515, 1066.746
1180.737, 945.555
1181.959, 1418.542
1183.181, 686.256
1184.402, 1138.260
1185.624, 1012.666
1186.845, 387.240
1188.066, 1196.128
1189.286, 532.961
1190.507, 509.989
1191.727, 1077.610
1192.947, 180.959
1194.167, 811.436
1195.387, 1026.676
1196.607, 366.891
1197.826, 1191.688
1199.045, 592.627
1200.264, 674.786
1201.483, 1159.094
1202.702, 270.503
1203.920, 899.575
1205.138, 879.014
1206.356, 278.436
1207.574, 1230.077
1208.792, 571.151
1210.009, 629.186
1211.227, 1304.108
1212.444, 430.216
1213.661, 898.464
1214.877, 1060.112
1216.094, 190.753
1217.310, 1141.814
1218.526, 603.460
1219.742, 395.754
1220.958, 1218.269
1222.173, 204.974
1223.389, 702.759
1224.604, 930.219
1225.819, 259.797
1227.034, 994.515
1228.248, 510.957
1229.463, 404.156
1230.677, 1165.643
1231.891, 173.593
1233.105, 754.171
1234.318, 845.682
1235.532, 181.127
1236.745, 1063.703
1237.958, 595.251
1239.171, 348.420
1240.384, 1109.025
1241.596, 257.604
1242.809, 665.578
1244.021, 985.200
1245.233, 111.666
1246.444, 997.318
1247.656, 610.944
1248.867, 284.646
1250.079, 1105.292
1251.290, 347.674
1252.500, 490.715
1253.711, 1060.292
1254.921, 49.196
1256.132, 844.701
1257.342, 597.256
1258.552, 136.658
1259.761, 991.184
1260.971, 54.356
1262.180, 436.026
1263.389, 964.463
1264.598, 19.040
1265.807, 683.445
1267.015, 613.832
1268.223, 9.667
1269.432, 919.013
1270.640, 269.624
1271.847, 194.630
1273.055, 845.945
1274.262, 124.518
1275.470, 542.980
1276.677, 618.316
1277.883, 134.225
1279.090, 881.525
1280.296, 302.574
1281.503, 141.860
1282.709, 894.132
1283.915, 15.629
1285.120, 427.099
1286.326, 648.313
1287.531, 129.200
1288.736, 900.932
1289.941, 489.423
1291.146, 33.519
1292.350, 974.603
1293.555, 158.827
1294.759, 404.774
1295.963, 924.708
1297.167, 37.976
1298.370, 752.921
1299.574, 585.220
1300.777, 164.089
1301.980, 1007.943
1303.183, 269.995
1304.386, 308.820
1305.588, 1000.634
1306.790, 47.656
1307.993, 781.021
1309.195, 736.350
1310.396, 13.000
1311.598, 1008.615
1312.799, 355.887
1314.000, 194.454
1315.201, 1102.004
1316.402, 185.542
1317.603, 604.057
1318.803, 920.558
1320.003, 17.981
1321.203, 902.390
1322.403, 566.784
1323.603, 65.171
1324.802, 1010.543
1326.002, 161.898
1327.201, 356.291
1328.400, 992.671
1329.599, 46.043
1330.797, 753.413
1331.995, 702.770
1333.194, 91.850
1334.392, 927.494
1335.589, 281.828
1336.787, 183.197
1337.985, 895.936
1339.182, 99.304
1340.379, 519.666
1341.576, 839.089
1342.772, 51.521
1343.969, 811.848
1345.165, 569.280
1346.361, 26.339
1347.557, 976.883
1348.753, 199.310
1349.949, 237.739
1351.144, 874.122
1352.339, 58.382
1353.534, 488.104
1354.729, 664.729
1355.924, 187.761
1357.118, 884.707
1358.312, 430.409
1359.506, 121.917
1360.700, 1062.091
1361.894, 102.630
1363.088, 369.188
1364.281, 920.771
1365.474, 72.370
1366.667, 737.748
1367.860, 621.886
1369.052, 39.383
1370.245, 1001.875
1371.437, 243.354
1372.629, 115.704
1373.821, 1043.995
1375.013, 8.287
1376.204, 470.286
1377.395, 836.244
1378.586, 167.539
1379.777, 900.680
1380.968, 595.892
1382.159, 7.501
1383.349, 1107.674
1384.539, 180.836
1385.729, 369.995
1386.919, 1001.271
1388.109, 28.560
1389.298, 693.318
1390.487, 780.809
1391.676, 32.013
1392.865, 964.248
1394.054, 516.426
1395.242, 72.667
1396.431, 1093.590
1397.619, 98.909
1398.807, 494.902
1399.995, 989.951
1401.182, 4.719
1402.370, 745.635
1403.557, 826.168
1404.744, 92.375
1405.931, 1086.749
1407.118, 399.021
1408.304, 173.511
1409.490, 1147.688
1410.676, 246.956
1411.862, 591.232
1413.048, 1077.854
1414.234, 71.125
1415.419, 768.381
1416.604, 777.648
1417.789, 62.929
1418.974, 970.333
1420.159, 520.634
1421.343, 167.378
1422.528, 1301.706
1423.712, 178.381
1424.896, 595.738
1426.079, 967.758
1427.263, 31.045
1428.446, 910.070
1429.629, 861.399
1430.812, 94.119
1431.995, 1135.083
1433.178, 419.374
1434.360, 295.681
1435.543, 1278.323
1436.725, 191.397
1437.907, 641.346
1439.088, 1270.232
1440.270, 231.983
1441.451, 950.507
1442.632, 1110.444
1443.813, 200.689
1444.994, 1344.563
1446.175, 761.507
1447.355, 293.422
1448.535, 1499.659
1449.715, 312.496
1450.895, 662.935
1452.075, 1400.344
1453.255, 54.567
1454.434, 998.956
1455.613, 1084.120
1456.792, 186.833
1457.971, 1282.744
1459.149, 629.765
1460.328, 306.787
1461.506, 1442.463
1462.684, 378.178
1463.862, 538.846
1465.040, 1270.471
1466.217, 190.734
1467.395, 865.785
1468.572, 1057.193
1469.749, 106.503
1470.925, 988.706
1472.102, 698.165
1473.278, 132.326
1474.455, 1276.526
1475.631, 352.621
1476.807, 382.056
1477.982, 1295.690
1479.158, 91.233
1480.333, 798.681
1481.508, 1006.035
1482.683, 1.337
1483.858, 1036.668
1485.033, 771.705
1486.207, 1.000
1487.381, 1250.304
1488.555, 424.705
1489.729, 454.823
1490.903, 1280.045
1492.076, 162.421
1493.250, 678.975
1494.423, 1237.763
1495.596, 1.172
1496.769, 1029.192
1497.941, 886.864
1499.114, 32.079
1500.286, 1206.787
1501.458, 623.064
1502.630, 260.438
1503.802, 1413.339
1504.973, 264.831
1506.145, 449.243
1507.316, 1417.964
1508.487, 2.915
1509.657, 749.525
1510.828, 1131.857
1511.999, 36.167
1513.169, 1136.791
1514.339, 672.433
1515.509, 0.000
##END=



