##NAMES=Titanite
##RRUFFID=R050124
##IDEAL CHEMISTRY=CaTi^4+^SiO_5_
##LOCALITY=Capelinha, Minas Gerais, Brazil
##OWNER=RRUFF
##SOURCE=Carlos and Paulo Vasconcelos
##DESCRIPTION=Yellow tabular crystal
##STATUS=The identification of this mineral has been confirmed by X-ray diffraction and chemical analysis
##URL=rruff.info/R050124
##MEASURED CHEMISTRY=Ca_1.00_(Ti_0.93_Al_0.05_Fe^3+^_0.02_)Si_1.00_O_4_(O)_1.00_
##PIN_ID=M00396
##ORIENTATION=Laser parallel to -a* (-1 0 0). Fiducial mark perpendicular to laser is parallel to -b [0 -1 0]
152.858, 0.000
154.247, 165.363
155.635, 32.375
157.024, 7.116
158.411, 10.432
159.799, 143.329
161.187, 377.594
162.574, 392.020
163.961, 597.153
165.348, 513.659
166.734, 883.932
168.121, 883.970
169.507, 1092.361
170.893, 1327.865
172.278, 1456.363
173.664, 2128.958
175.049, 2252.893
176.434, 2642.470
177.819, 2967.066
179.203, 3266.132
180.587, 3549.200
181.971, 3596.069
183.355, 4017.059
184.739, 3991.889
186.122, 4000.052
187.505, 3871.119
188.888, 3464.738
190.271, 3560.606
191.653, 3258.620
193.035, 3588.905
194.417, 3471.278
195.799, 3865.457
197.180, 4321.197
198.562, 4538.318
199.943, 4866.666
201.324, 4846.116
202.704, 5116.564
204.084, 4787.925
205.465, 4620.114
206.844, 4553.068
208.224, 4356.724
209.603, 4392.294
210.983, 4032.854
212.362, 4258.369
213.740, 4105.842
215.119, 4063.160
216.497, 4210.205
217.875, 4156.998
219.253, 4583.555
220.631, 4519.896
222.008, 5036.039
223.385, 5221.994
224.762, 5407.775
226.139, 5763.387
227.515, 5438.887
228.891, 5915.690
230.267, 5655.723
231.643, 5758.162
233.018, 5921.175
234.394, 5513.674
235.769, 5545.582
237.144, 4956.752
238.518, 4997.322
239.893, 4797.426
241.267, 5117.141
242.641, 5736.537
244.014, 6055.663
245.388, 6844.561
246.761, 7353.266
248.134, 8181.808
249.507, 8470.210
250.879, 8628.489
252.252, 9006.667
253.624, 8504.752
254.996, 8742.759
256.367, 8170.696
257.739, 7788.570
259.110, 7216.393
260.481, 6574.162
261.852, 6101.888
263.222, 5029.572
264.592, 4558.960
265.962, 3779.604
267.332, 3279.134
268.702, 2771.637
270.071, 2251.313
271.440, 2092.853
272.809, 1537.046
274.178, 1499.896
275.546, 1082.646
276.915, 1007.441
278.283, 1057.276
279.650, 964.147
281.018, 1254.054
282.385, 1216.990
283.752, 1734.956
285.119, 2115.948
286.486, 2660.964
287.852, 3313.002
289.218, 3525.060
290.584, 4047.135
291.950, 3949.223
293.316, 3821.308
294.681, 3413.371
296.046, 3055.401
297.411, 3147.398
298.775, 2949.361
300.140, 3461.291
301.504, 3916.793
302.868, 4659.288
304.231, 5801.763
305.595, 6848.725
306.958, 8835.699
308.321, 10897.481
309.684, 14526.140
311.047, 19079.355
312.409, 24529.750
313.771, 31647.338
315.133, 36654.906
316.495, 41412.453
317.856, 40673.676
319.217, 38075.312
320.578, 33287.145
321.939, 27742.164
323.299, 23978.439
324.660, 19675.762
326.020, 17093.998
327.380, 14913.040
328.739, 13282.785
330.099, 12443.159
331.458, 11294.093
332.817, 11235.529
334.176, 9997.430
335.534, 9569.741
336.892, 8902.426
338.251, 8075.452
339.608, 7728.791
340.966, 6842.414
342.323, 6446.297
343.681, 6130.418
345.037, 5764.761
346.394, 5829.304
347.751, 5694.032
349.107, 6028.921
350.463, 5923.959
351.819, 6019.134
353.174, 5784.429
354.530, 5019.834
355.885, 4445.342
357.240, 3680.940
358.594, 3216.618
359.949, 2626.368
361.303, 2180.182
362.657, 2052.055
364.011, 1493.979
365.365, 1440.950
366.718, 963.962
368.071, 942.011
369.424, 644.095
370.777, 367.208
372.129, 324.347
373.481, 21.497
374.833, 11.373
376.185, 208.302
377.537, 422.342
378.888, 391.547
380.239, 581.908
381.590, 546.476
382.941, 591.240
384.291, 558.212
385.642, 515.384
386.992, 514.744
388.341, 317.293
389.691, 306.981
391.040, 4.195
392.389, 16.695
393.738, 200.327
395.087, 479.287
396.435, 671.184
397.784, 1055.019
399.132, 1107.796
400.479, 1598.518
401.827, 2110.188
403.174, 2512.808
404.521, 3358.381
405.868, 3721.907
407.215, 4905.389
408.561, 6028.826
409.908, 7452.222
411.254, 9705.575
412.599, 11778.887
413.945, 15122.158
415.290, 18415.391
416.636, 22838.584
417.980, 28381.732
419.325, 31974.850
420.670, 36617.938
422.014, 37630.965
423.358, 37173.973
424.702, 34986.934
426.045, 30229.863
427.389, 26202.678
428.732, 20915.176
430.075, 17037.211
431.417, 13408.756
432.760, 10419.823
434.102, 8450.507
435.444, 6540.989
436.786, 5331.411
438.127, 4021.825
439.469, 3166.231
440.810, 2538.631
442.151, 1696.022
443.492, 1394.406
444.832, 794.800
446.172, 566.187
447.512, 167.583
448.852, 24.042
450.192, 84.720
451.531, 416.447
452.870, 468.340
454.209, 570.397
455.548, 548.651
456.887, 513.099
458.225, 629.708
459.563, 386.539
460.901, 399.501
462.238, 364.605
463.576, 233.882
464.913, 107.398
466.250, 80.645
467.587, 199.251
468.923, 395.443
470.259, 574.330
471.596, 727.993
472.931, 1108.561
474.267, 1288.143
475.603, 1679.782
476.938, 1888.440
478.273, 2213.146
479.608, 2723.912
480.942, 2831.733
482.276, 3318.608
483.611, 3525.520
484.944, 3832.468
486.278, 4269.443
487.612, 4306.443
488.945, 4703.462
490.278, 4450.498
491.611, 4677.551
492.943, 4704.615
494.276, 4601.691
495.608, 4858.779
496.940, 4375.873
498.271, 4452.975
499.603, 4270.083
500.934, 4017.195
502.265, 4054.312
503.596, 3641.432
504.927, 3778.555
506.257, 3515.680
507.587, 3402.805
508.917, 3639.931
510.247, 3377.058
511.577, 3744.186
512.906, 3641.312
514.235, 3768.438
515.564, 3805.563
516.892, 3712.688
518.221, 4299.812
519.549, 3976.935
520.877, 4304.058
522.205, 4431.180
523.533, 4528.300
524.860, 5025.422
526.187, 5012.542
527.514, 5389.662
528.841, 5916.784
530.167, 6073.903
531.493, 6801.024
532.820, 6988.146
534.145, 7781.093
535.471, 8054.387
536.796, 8616.092
538.122, 9165.029
539.447, 9165.547
540.771, 9884.424
542.096, 9775.284
543.420, 9643.106
544.744, 9972.778
546.068, 9444.927
547.392, 9806.911
548.715, 9400.425
550.039, 8994.381
551.362, 8966.405
552.684, 8347.048
554.007, 7974.326
555.329, 7301.671
556.652, 6959.043
557.973, 6486.442
559.295, 5733.868
560.617, 5891.321
561.938, 5238.803
563.259, 5216.315
564.580, 5093.854
565.901, 5171.426
567.221, 5699.026
568.541, 5576.659
569.861, 6394.322
571.181, 6732.019
572.501, 6999.750
573.820, 7807.512
575.139, 7845.310
576.458, 8623.142
577.777, 9321.008
579.095, 10138.912
580.414, 11156.850
581.732, 11574.827
583.049, 13242.841
584.367, 14350.895
585.685, 15688.982
587.002, 17517.113
588.319, 18375.283
589.636, 20843.500
590.952, 22281.758
592.268, 24600.070
593.585, 27378.432
594.900, 28546.846
596.216, 32145.314
597.532, 33873.836
598.847, 37062.484
600.162, 39891.113
601.477, 41279.801
602.792, 45122.109
604.106, 45900.895
605.420, 48273.293
606.734, 50189.453
608.048, 49409.207
609.361, 51399.430
610.675, 49442.836
611.988, 50086.234
613.301, 49461.934
614.614, 46218.164
615.926, 46871.918
617.238, 44212.172
618.550, 42142.793
619.862, 41691.539
621.174, 38378.355
622.485, 38208.355
623.797, 34641.465
625.108, 34519.164
626.418, 32531.484
627.729, 30413.682
629.039, 30081.383
630.349, 27263.627
631.659, 26416.779
632.969, 25315.434
634.279, 23215.898
635.588, 23152.320
636.897, 21143.945
638.206, 20535.508
639.515, 19326.525
640.823, 18257.670
642.131, 17929.510
643.439, 16590.939
644.747, 16412.543
646.055, 15694.271
647.362, 14776.164
648.669, 14768.197
649.976, 13610.366
651.283, 13612.695
652.589, 13045.146
653.896, 12507.748
655.202, 12360.460
656.508, 11143.289
657.814, 11686.237
659.119, 10819.294
660.424, 10202.458
661.729, 10495.716
663.034, 9459.065
664.339, 9582.510
665.643, 9066.039
666.947, 8749.662
668.251, 8733.373
669.555, 8087.176
670.859, 8431.071
672.162, 7795.056
673.465, 7479.132
674.768, 7493.299
676.071, 6847.559
677.373, 6931.909
678.676, 6576.353
679.978, 6410.888
681.280, 6325.516
682.581, 5700.236
683.883, 5955.049
685.184, 5449.955
686.485, 5214.954
687.786, 5460.044
689.087, 4795.231
690.387, 5210.508
691.687, 4695.908
692.987, 4531.425
694.287, 4657.110
695.586, 4203.013
696.886, 4249.134
698.185, 4145.520
699.484, 3832.160
700.783, 3869.071
702.081, 3446.244
703.379, 3603.667
704.677, 3241.344
705.975, 3149.223
707.273, 3187.302
708.570, 2755.507
709.868, 3063.844
711.165, 2532.276
712.462, 2500.803
713.758, 2659.422
715.055, 2235.136
716.351, 2411.944
717.647, 2210.846
718.943, 2134.839
720.238, 2187.927
721.533, 1859.108
722.829, 2000.383
724.124, 1764.750
725.418, 1726.211
726.713, 1912.763
728.007, 1374.409
729.301, 1624.146
730.595, 1376.977
731.889, 1293.899
733.182, 1380.913
734.476, 1094.018
735.769, 1186.215
737.061, 1033.504
738.354, 808.883
739.647, 1035.354
740.939, 649.915
742.231, 762.568
743.523, 604.311
744.814, 413.146
746.106, 595.074
747.397, 330.093
748.688, 379.207
749.978, 218.416
751.269, 150.722
752.559, 169.131
753.849, 5.645
755.139, 73.269
756.429, 48.998
757.719, 134.170
759.008, 59.742
760.297, 132.245
761.586, 26.160
762.875, 115.959
764.163, 221.629
765.451, 3.819
766.739, 123.481
768.027, 82.547
769.315, 52.335
770.602, 202.845
771.890, 6.136
773.177, 172.120
774.463, 141.914
775.750, 28.503
777.036, 168.847
778.323, 37.049
779.609, 155.094
780.894, 161.070
782.180, 79.995
783.465, 219.864
784.750, 74.725
786.035, 98.531
787.320, 233.290
788.605, 31.249
789.889, 171.763
791.173, 31.165
792.457, 20.042
793.741, 13.773
795.024, 183.193
796.307, 9.750
797.591, 195.771
798.873, 304.703
800.156, 138.904
801.439, 473.276
802.721, 459.741
804.003, 584.467
805.285, 781.140
806.566, 683.422
807.848, 1115.432
809.129, 1144.105
810.410, 1404.907
811.691, 1745.655
812.971, 1713.677
814.252, 2156.058
815.532, 2211.706
816.812, 2525.505
818.092, 2857.682
819.371, 2770.463
820.651, 3332.301
821.930, 3247.197
823.209, 3712.162
824.488, 3930.180
825.766, 3977.251
827.045, 4584.372
828.323, 4541.546
829.601, 4858.774
830.878, 5326.047
832.156, 5233.370
833.433, 5870.742
834.710, 6038.157
835.987, 6195.621
837.264, 6853.129
838.540, 7000.680
839.817, 7898.277
841.093, 8135.917
842.369, 8593.597
843.644, 9681.318
844.920, 9779.077
846.195, 10866.882
847.470, 11364.720
848.745, 11592.592
850.020, 13350.502
851.294, 13368.443
852.568, 14316.419
853.842, 15214.425
855.116, 15192.458
856.390, 16620.518
857.663, 16598.598
858.936, 17086.709
860.209, 18054.836
861.482, 18072.982
862.755, 19681.145
864.027, 20359.322
865.299, 21487.518
866.571, 24055.729
867.843, 24313.953
869.115, 26272.191
870.386, 26380.445
871.657, 25598.711
872.928, 24476.990
874.199, 21775.275
875.470, 19383.570
876.740, 16951.877
878.010, 14280.193
879.280, 12738.519
880.550, 10676.847
881.820, 9415.187
883.089, 8753.531
884.358, 7481.880
885.627, 7000.232
886.896, 6278.589
888.164, 5526.948
889.433, 5475.311
890.701, 4613.672
891.969, 4491.036
893.236, 4144.400
894.504, 3944.955
895.771, 4114.317
897.038, 3883.025
898.305, 4216.035
899.572, 4503.758
900.838, 4774.083
902.105, 5602.991
903.371, 6063.291
904.637, 6934.779
905.902, 8396.710
907.168, 8861.092
908.433, 10493.209
909.698, 10925.169
910.963, 11776.633
912.228, 12158.381
913.492, 11018.144
914.757, 10450.239
916.021, 8939.153
917.285, 7665.624
918.548, 6686.335
919.812, 5131.269
921.075, 4257.239
922.338, 3533.235
923.601, 2602.809
924.864, 2324.336
926.126, 1718.558
927.388, 1477.479
928.650, 1263.454
929.912, 932.493
931.174, 854.836
932.435, 606.246
933.697, 388.006
934.958, 426.916
936.218, 220.332
937.479, 181.211
938.739, 154.072
940.000, 12.552
941.260, 7.326
942.520, 119.966
943.779, 174.025
945.039, 71.368
946.298, 141.966
947.557, 85.642
948.816, 154.650
950.074, 206.295
951.333, 64.646
952.591, 192.273
953.849, 95.749
955.107, 81.705
956.365, 174.189
957.622, 38.217
958.879, 127.397
960.136, 25.021
961.393, 7.570
962.650, 21.475
963.906, 26.339
965.162, 64.222
966.418, 122.397
967.674, 171.631
968.930, 153.327
970.185, 290.898
971.441, 260.772
972.696, 285.005
973.950, 444.608
975.205, 268.463
976.459, 431.828
977.714, 382.987
978.968, 309.192
980.222, 431.721
981.475, 245.266
982.729, 431.817
983.982, 407.878
985.235, 325.813
986.488, 378.893
987.740, 358.065
988.993, 362.184
990.245, 455.849
991.497, 337.819
992.749, 411.887
994.000, 375.951
995.252, 364.710
996.503, 474.525
997.754, 389.059
999.005, 603.156
1000.256, 690.934
1001.506, 648.906
1002.756, 782.999
1004.006, 703.296
1005.256, 743.115
1006.506, 881.977
1007.755, 791.442
1009.005, 959.445
1010.254, 1039.731
1011.502, 1032.607
1012.751, 1105.418
1014.000, 1096.164
1015.248, 1164.846
1016.496, 1265.462
1017.744, 1139.013
1018.991, 1285.498
1020.239, 1272.917
1021.486, 1219.270
1022.733, 1337.556
1023.980, 1203.775
1025.227, 1145.928
1026.473, 1120.013
1027.719, 939.030
1028.965, 1035.980
1030.211, 817.861
1031.457, 812.675
1032.702, 783.419
1033.948, 648.095
1035.193, 714.702
1036.438, 612.239
1037.682, 614.707
1038.927, 651.106
1040.171, 471.434
1041.415, 506.693
1042.659, 451.881
1043.903, 355.999
1045.146, 440.043
1046.390, 327.018
1047.633, 292.917
1048.876, 328.739
1050.118, 260.487
1051.361, 215.153
1052.603, 191.733
1053.845, 132.225
1055.087, 114.616
1056.329, 37.904
1057.571, 107.066
1058.812, 113.124
1060.053, 24.076
1061.294, 120.915
1062.535, 66.650
1063.775, 87.288
1065.016, 111.819
1066.256, 58.261
1067.496, 161.618
1068.736, 191.881
1069.975, 107.073
1071.214, 141.170
1072.454, 148.175
1073.693, 160.112
1074.931, 242.955
1076.170, 140.738
1077.408, 292.442
1078.647, 254.067
1079.885, 257.636
1081.122, 400.129
1082.360, 297.579
1083.597, 418.986
1084.835, 432.332
1086.072, 443.642
1087.308, 513.893
1088.545, 470.088
1089.781, 449.955
1091.018, 533.375
1092.254, 364.161
1093.490, 429.424
1094.725, 375.988
1095.961, 347.945
1097.196, 270.268
1098.431, 156.118
1099.666, 185.558
1100.900, 106.726
1102.135, 142.710
1103.369, 169.607
1104.603, 102.235
1105.837, 44.904
1107.071, 112.956
1108.304, 43.272
1109.538, 26.910
1110.771, 54.406
1112.004, 25.058
1113.236, 35.181
1114.469, 11.045
1115.701, 4.624
1116.933, 32.043
1118.165, 77.932
1119.397, 14.449
1120.629, 4.246
1121.860, 50.021
1123.091, 78.101
1124.322, 32.156
1125.553, 44.136
1126.783, 36.045
1128.014, 10.881
1129.244, 83.641
1130.474, 76.340
1131.704, 28.970
1132.933, 136.527
1134.163, 19.021
1135.392, 94.441
1136.621, 93.795
1137.850, 36.083
1139.079, 97.299
1140.307, 78.451
1141.535, 71.536
1142.763, 100.554
1143.991, 86.509
1145.219, 112.397
1146.446, 169.223
1147.674, 67.989
1148.901, 169.689
1150.128, 134.330
1151.354, 101.910
1152.581, 161.428
1153.807, 137.887
1155.033, 215.286
1156.259, 312.629
1157.485, 226.918
1158.710, 389.152
1159.936, 395.334
1161.161, 397.463
1162.386, 478.540
1163.611, 417.564
1164.835, 528.537
1166.060, 565.458
1167.284, 532.327
1168.508, 752.146
1169.732, 841.913
1170.955, 930.628
1172.179, 1184.293
1173.402, 1278.908
1174.625, 1549.472
1175.848, 1828.986
1177.070, 1843.449
1178.293, 2143.864
1179.515, 2120.228
1180.737, 2010.543
1181.959, 1976.809
1183.181, 1722.025
1184.402, 1634.194
1185.624, 1466.313
1186.845, 1213.385
1188.066, 1221.409
1189.286, 1019.385
1190.507, 1019.313
1191.727, 1054.003
1192.947, 999.838
1194.167, 1045.276
1195.387, 1115.365
1196.607, 1033.689
1197.826, 1164.362
1199.045, 1065.401
1200.264, 1007.997
1201.483, 1029.353
1202.702, 871.214
1203.920, 908.495
1205.138, 940.065
1206.356, 868.739
1207.574, 977.293
1208.792, 947.095
1210.009, 937.434
1211.227, 1067.219
1212.444, 964.993
1213.661, 1007.776
1214.877, 1102.527
1216.094, 901.122
1217.310, 1007.315
1218.526, 923.205
1219.742, 833.373
1220.958, 931.577
1222.173, 823.088
1223.389, 885.122
1224.604, 958.159
1225.819, 876.648
1227.034, 1012.668
1228.248, 1047.043
1229.463, 970.156
1230.677, 1126.978
1231.891, 1029.407
1233.105, 1090.674
1234.318, 1171.467
1235.532, 1075.836
1236.745, 1185.381
1237.958, 1133.040
1239.171, 1152.928
1240.384, 1284.361
1241.596, 1203.758
1242.809, 1291.635
1244.021, 1421.681
1245.233, 1298.950
1246.444, 1455.101
1247.656, 1423.889
1248.867, 1317.170
1250.079, 1393.904
1251.290, 1184.197
1252.500, 1086.249
1253.711, 1097.029
1254.921, 927.087
1256.132, 819.212
1257.342, 820.345
1258.552, 751.727
1259.761, 763.822
1260.971, 607.375
1262.180, 556.462
1263.389, 619.344
1264.598, 488.488
1265.807, 538.398
1267.015, 523.525
1268.223, 506.427
1269.432, 500.998
1270.640, 467.774
1271.847, 364.912
1273.055, 454.837
1274.262, 370.228
1275.470, 334.895
1276.677, 386.117
1277.883, 311.754
1279.090, 371.521
1280.296, 352.991
1281.503, 268.293
1282.709, 413.574
1283.915, 263.234
1285.120, 338.604
1286.326, 387.710
1287.531, 313.745
1288.736, 478.009
1289.941, 496.142
1291.146, 464.480
1292.350, 550.179
1293.555, 569.122
1294.759, 567.794
1295.963, 674.270
1297.167, 583.460
1298.370, 651.047
1299.574, 685.513
1300.777, 616.299
1301.980, 722.467
1303.183, 698.264
1304.386, 672.374
1305.588, 696.437
1306.790, 563.469
1307.993, 655.469
1309.195, 664.452
1310.396, 590.404
1311.598, 715.335
1312.799, 679.228
1314.000, 666.100
1315.201, 793.928
1316.402, 691.726
1317.603, 721.505
1318.803, 812.264
1320.003, 659.004
1321.203, 730.703
1322.403, 711.385
1323.603, 622.048
1324.802, 683.693
1326.002, 523.321
1327.201, 528.934
1328.400, 509.514
1329.599, 386.079
1330.797, 398.628
1331.995, 361.162
1333.194, 316.679
1334.392, 333.180
1335.589, 259.666
1336.787, 217.135
1337.985, 244.588
1339.182, 166.025
1340.379, 258.447
1341.576, 232.854
1342.772, 136.248
1343.969, 192.632
1345.165, 168.010
1346.361, 102.386
1347.557, 182.764
1348.753, 147.156
1349.949, 99.551
1351.144, 175.951
1352.339, 90.368
1353.534, 55.789
1354.729, 119.221
1355.924, 8.662
1357.118, 96.107
1358.312, 19.566
1359.506, 12.973
1360.700, 77.485
1361.894, 99.952
1363.088, 48.426
1364.281, 91.906
1365.474, 56.831
1366.667, 12.884
1367.860, 26.567
1369.052, 24.932
1370.245, 11.429
1371.437, 44.923
1372.629, 67.420
1373.821, 6.945
1375.013, 24.333
1376.204, 19.861
1377.395, 5.567
1378.586, 43.039
1379.777, 19.877
1380.968, 22.771
1382.159, 40.354
1383.349, 63.506
1384.539, 28.346
1385.729, 13.820
1386.919, 21.002
1388.109, 47.179
1389.298, 13.354
1390.487, 28.490
1391.676, 55.645
1392.865, 55.217
1394.054, 19.140
1395.242, 31.898
1396.431, 8.091
1397.619, 6.095
1398.807, 7.887
1399.995, 53.137
1401.182, 2.175
1402.370, 31.227
1403.557, 86.298
1404.744, 46.618
1405.931, 80.481
1407.118, 18.590
1408.304, 0.288
1409.490, 87.843
1410.676, 15.984
1411.862, 17.128
1413.048, 96.271
1414.234, 12.410
1415.419, 34.547
1416.604, 141.684
1417.789, 21.179
1418.974, 74.960
1420.159, 87.103
1421.343, 47.251
1422.528, 142.405
1423.712, 71.566
1424.896, 113.736
1426.079, 132.916
1427.263, 43.108
1428.446, 128.312
1429.629, 161.530
1430.812, 107.763
1431.995, 154.013
1433.178, 199.282
1434.360, 154.570
1435.543, 256.877
1436.725, 185.160
1437.907, 233.220
1439.088, 314.960
1440.270, 241.586
1441.451, 290.855
1442.632, 330.932
1443.813, 258.520
1444.994, 331.389
1446.175, 304.675
1447.355, 242.321
1448.535, 357.578
1449.715, 309.108
1450.895, 321.206
1452.075, 393.240
1453.255, 308.282
1454.434, 322.596
1455.613, 410.458
1456.792, 279.441
1457.971, 335.000
1459.149, 320.316
1460.328, 265.330
1461.506, 332.707
1462.684, 292.545
1463.862, 227.248
1465.040, 296.514
1466.217, 208.486
1467.395, 276.889
1468.572, 241.459
1469.749, 122.486
1470.925, 221.964
1472.102, 233.574
1473.278, 168.093
1474.455, 182.232
1475.631, 177.534
1476.807, 115.716
1477.982, 224.765
1479.158, 99.672
1480.333, 171.468
1481.508, 146.125
1482.683, 65.665
1483.858, 117.354
1485.033, 154.216
1486.207, 62.099
1487.381, 155.070
1488.555, 83.205
1489.729, 47.532
1490.903, 101.860
1492.076, 89.405
1493.250, 79.957
1494.423, 132.510
1495.596, 21.229
1496.769, 64.943
1497.941, 90.686
1499.114, 20.473
1500.286, 86.345
1501.458, 82.353
1502.630, 41.520
1503.802, 122.847
1504.973, 39.332
1506.145, 7.970
1507.316, 121.772
1508.487, 4.242
1509.657, 25.974
1510.828, 83.469
1511.999, 6.274
1513.169, 100.433
1514.339, 56.114
1515.509, 0.191
1516.678, 106.982
1517.848, 34.590
1519.017, 0.000
##END=



