##NAMES=Titanite
##RRUFFID=R050124
##IDEAL CHEMISTRY=CaTi^4+^SiO_5_
##LOCALITY=Capelinha, Minas Gerais, Brazil
##OWNER=RRUFF
##SOURCE=Carlos and Paulo Vasconcelos
##DESCRIPTION=Yellow tabular crystal
##STATUS=The identification of this mineral has been confirmed by X-ray diffraction and chemical analysis
##URL=rruff.info/R050124
##MEASURED CHEMISTRY=Ca_1.00_(Ti_0.93_Al_0.05_Fe^3+^_0.02_)Si_1.00_O_4_(O)_1.00_
##PIN_ID=M00070
##ORIENTATION=Laser parallel to (-1 0 -1). Fiducial mark perpendicular to laser is parallel to b [0 1 0]
119.251, 0.000
120.642, 1023.388
122.032, 7.175
123.422, 804.227
124.811, 12.511
126.201, 334.159
127.590, 621.742
128.979, 23.930
130.367, 978.492
131.756, 156.328
133.144, 938.008
134.532, 350.272
135.920, 609.442
137.307, 1054.762
138.695, 855.747
140.082, 2661.915
141.469, 2472.761
142.856, 4837.824
144.242, 5106.675
145.628, 5858.924
147.014, 6114.229
148.400, 4292.281
149.786, 4182.812
151.171, 2465.582
152.556, 3210.477
153.941, 2857.762
155.325, 3597.672
156.710, 4840.170
158.094, 4874.908
159.478, 7291.572
160.862, 7239.896
162.245, 8709.692
163.629, 8520.844
165.012, 8333.235
166.395, 8346.714
167.777, 6191.157
169.160, 6456.459
170.542, 4212.535
171.924, 4379.303
173.306, 3526.699
174.687, 2894.666
176.068, 3303.150
177.449, 2052.105
178.830, 3201.493
180.211, 2061.275
181.591, 2851.420
182.972, 2261.932
184.351, 2213.158
185.731, 2827.572
187.111, 1635.855
188.490, 2656.339
189.869, 1810.661
191.248, 2368.005
192.626, 2235.375
194.005, 1932.185
195.383, 2848.316
196.761, 1783.807
198.139, 3178.685
199.516, 2202.979
200.893, 3066.713
202.271, 3179.898
203.647, 2683.107
205.024, 3816.603
206.400, 2710.120
207.777, 4263.868
209.152, 3127.459
210.528, 3730.684
211.904, 3943.580
213.279, 3256.184
214.654, 4498.519
216.029, 3160.613
217.403, 4292.486
218.778, 3664.157
220.152, 3925.644
221.526, 4276.953
222.900, 3768.106
224.273, 5119.106
225.646, 4249.966
227.019, 5620.691
228.392, 5221.291
229.765, 5711.771
231.137, 6762.134
232.509, 6112.391
233.881, 7682.540
235.253, 6442.590
236.625, 7132.540
237.996, 6292.395
239.367, 5562.150
240.738, 5971.813
242.108, 4771.378
243.479, 6250.850
244.849, 5340.225
246.219, 6471.487
247.589, 7070.656
248.958, 7222.107
250.328, 8890.588
251.697, 8175.412
253.065, 10048.162
254.434, 9534.074
255.803, 10273.604
257.171, 10651.141
258.539, 9535.068
259.906, 10913.389
261.274, 9256.282
262.641, 9877.611
264.008, 8460.673
265.375, 7763.693
266.742, 7883.633
268.108, 5953.569
269.475, 6853.488
270.840, 5473.377
272.206, 6133.223
273.572, 5913.010
274.937, 5182.734
276.302, 6442.399
277.667, 5152.004
279.032, 6901.555
280.396, 6201.053
281.760, 7490.504
283.125, 8379.907
284.488, 8718.339
285.852, 11691.215
287.215, 11838.743
288.578, 15236.926
289.941, 16396.793
291.304, 18183.834
292.666, 19948.650
294.029, 17820.389
295.391, 18639.387
296.753, 14898.818
298.114, 13481.922
299.476, 11265.396
300.837, 8949.211
302.198, 8793.334
303.558, 6497.736
304.919, 7532.397
306.279, 6647.295
307.639, 6842.406
308.999, 8017.713
310.359, 7683.203
311.718, 10738.858
313.077, 11254.669
314.436, 14840.620
315.795, 16596.699
317.154, 17852.906
318.512, 19439.219
319.870, 16265.632
321.228, 16222.130
322.586, 12498.702
323.943, 10925.337
325.300, 9422.032
326.657, 7368.778
328.014, 7995.569
329.371, 5912.400
330.727, 7059.264
332.083, 6166.156
333.439, 5643.074
334.795, 6250.012
336.150, 4566.969
337.506, 5603.939
338.861, 3990.924
340.215, 4407.919
341.570, 4084.919
342.924, 3511.924
344.279, 4978.935
345.633, 3825.946
346.986, 5722.959
348.340, 5619.965
349.693, 6466.954
351.046, 8163.909
352.399, 6900.816
353.752, 8227.663
355.104, 6054.434
356.457, 5731.127
357.809, 4887.749
359.160, 3054.299
360.512, 3640.780
361.863, 1647.197
363.214, 2603.552
364.565, 1559.844
365.916, 1096.080
367.267, 1882.259
368.617, 338.378
369.967, 1634.438
371.317, 190.439
372.666, 926.369
374.016, 742.244
375.365, 261.938
376.714, 783.707
378.063, 740.700
379.411, 514.596
380.760, 460.158
382.108, 485.134
383.456, 129.663
384.803, 1035.609
386.151, 538.747
387.498, 766.942
388.845, 162.931
390.192, 20.942
391.539, 955.276
392.885, 358.158
394.231, 1128.449
395.577, 114.554
396.923, 572.513
398.269, 829.821
399.614, 372.560
400.959, 1105.100
402.304, 586.861
403.649, 551.215
404.993, 170.475
406.337, 602.111
407.681, 26.287
409.025, 1875.205
410.369, 926.665
411.712, 2467.943
413.055, 2888.883
414.398, 3469.361
415.741, 5999.395
417.084, 5909.104
418.426, 9528.629
419.768, 10487.781
421.110, 12366.487
422.452, 14644.636
423.793, 14122.393
425.134, 15459.944
426.475, 12867.485
427.816, 12124.967
429.157, 10202.468
430.497, 7599.980
431.837, 7607.537
433.177, 4505.106
434.517, 4992.692
435.857, 3340.327
437.196, 2557.980
438.535, 2885.730
439.874, 823.500
441.213, 2041.286
442.551, 449.231
443.889, 727.195
445.227, 1025.279
446.565, 456.607
447.903, 1071.222
449.240, 680.733
450.577, 406.905
451.914, 4.619
453.251, 607.723
454.588, 1089.564
455.924, 502.954
457.260, 1174.211
458.596, 711.416
459.932, 778.635
461.267, 2365.862
462.602, 1273.261
463.938, 4060.668
465.272, 3538.099
466.607, 5295.537
467.941, 6792.982
469.276, 5870.545
470.610, 8288.115
471.943, 6805.706
473.277, 7633.301
474.610, 7170.900
475.944, 5628.645
477.276, 6856.393
478.609, 5044.146
479.942, 5831.902
481.274, 5079.664
482.606, 4937.480
483.938, 5685.301
485.270, 4013.125
486.601, 5770.957
487.932, 4328.791
489.263, 4496.634
490.594, 5234.481
491.925, 3322.336
493.255, 5370.198
494.585, 3498.066
495.915, 4405.943
497.245, 4253.828
498.575, 2861.723
499.904, 4339.625
501.233, 2397.538
502.562, 3335.461
503.891, 2773.396
505.219, 2031.342
506.548, 3389.299
507.876, 1337.270
509.203, 2845.254
510.531, 2023.252
511.859, 1851.264
513.186, 2939.291
514.513, 1287.334
515.840, 3245.395
517.166, 1933.475
518.493, 2391.572
519.819, 2979.691
521.145, 1307.834
522.470, 3575.996
523.796, 1844.184
525.121, 2582.395
526.446, 3040.629
527.771, 1968.893
529.096, 3837.182
530.421, 2245.498
531.745, 3472.307
533.069, 3580.682
534.393, 2739.088
535.716, 4641.922
537.040, 2930.393
538.363, 4553.084
539.686, 4041.623
541.009, 3731.855
542.331, 5010.494
543.654, 2955.475
544.976, 4879.537
546.298, 3288.293
547.620, 3089.225
548.941, 3808.080
550.263, 1998.189
551.584, 3807.363
552.905, 2456.379
554.225, 2744.762
555.546, 3879.457
556.866, 2362.844
558.186, 5030.148
559.506, 4359.480
560.826, 5889.672
562.145, 7879.146
563.465, 7734.291
564.784, 12081.275
566.103, 11780.977
567.421, 14229.191
568.740, 15959.047
570.058, 15228.977
571.376, 17998.990
572.694, 15689.082
574.011, 16969.254
575.329, 16569.525
576.646, 15239.879
577.963, 17390.324
579.279, 14820.863
580.596, 16711.498
581.912, 16532.225
583.228, 16554.215
584.544, 18835.148
585.860, 17406.186
587.175, 20517.326
588.491, 19858.564
589.806, 20755.713
591.121, 24027.164
592.435, 22858.721
593.750, 26487.174
595.064, 26688.934
596.378, 28418.275
597.692, 32030.246
599.006, 31112.326
600.319, 35605.207
601.632, 35397.492
602.945, 37591.453
604.258, 40693.957
605.571, 39251.668
606.883, 42945.523
608.195, 41339.656
609.507, 42462.668
610.819, 44019.191
612.131, 40898.668
613.442, 42991.969
614.753, 39328.559
616.064, 40154.035
617.375, 38577.594
618.685, 35681.273
619.995, 36561.184
621.306, 32655.088
622.615, 32312.074
623.925, 31696.178
625.235, 28200.410
626.544, 29559.805
627.853, 25994.316
629.162, 25761.547
630.471, 24216.273
631.779, 21741.111
633.087, 23137.449
634.395, 19552.643
635.703, 20377.945
637.011, 18863.355
638.318, 16738.898
639.625, 18424.768
640.932, 15110.539
642.239, 16226.418
643.546, 14762.410
644.852, 13528.613
646.158, 14984.922
647.464, 11931.348
648.770, 13407.883
650.076, 12154.527
651.381, 11091.383
652.686, 12508.355
653.991, 9935.438
655.296, 11442.629
656.600, 10419.938
657.905, 8857.451
659.209, 10925.074
660.513, 8012.811
661.817, 9870.723
663.120, 8568.746
664.423, 7936.885
665.726, 9485.139
667.029, 6643.506
668.332, 8542.104
669.635, 7330.812
670.937, 6739.641
672.239, 8108.646
673.541, 5557.773
674.842, 7347.215
676.144, 6136.777
677.445, 5586.453
678.746, 7106.344
680.047, 4626.348
681.348, 6256.475
682.648, 5226.715
683.948, 4537.072
685.248, 5787.656
686.548, 3908.355
687.848, 5329.191
689.147, 4340.166
690.447, 3871.258
691.746, 5272.643
693.044, 2894.266
694.343, 4946.002
695.641, 3478.141
696.940, 3400.395
698.238, 4592.949
699.535, 2415.797
700.833, 4258.781
702.130, 2872.219
703.427, 2335.771
704.724, 3879.691
706.021, 1613.822
707.318, 3378.117
708.614, 2482.832
709.910, 1697.662
711.206, 3132.957
712.502, 1108.391
713.798, 2654.143
715.093, 1940.279
716.388, 1216.529
717.683, 3203.234
718.978, 810.053
720.272, 2697.184
721.567, 1944.439
722.861, 991.809
724.155, 2909.348
725.448, 667.002
726.742, 2164.764
728.035, 1732.637
729.328, 610.689
730.621, 2688.850
731.914, 397.125
733.206, 1835.504
734.499, 1383.994
735.791, 482.627
737.083, 2321.363
738.374, 59.791
739.666, 1539.143
740.957, 1228.180
742.248, 207.338
743.539, 2016.598
744.830, 214.041
746.120, 1225.391
747.410, 824.924
748.701, 235.441
749.990, 1724.225
751.280, 476.010
752.570, 623.816
753.859, 873.736
755.148, 726.244
756.437, 1793.660
757.725, 546.338
759.014, 723.586
760.302, 1053.605
761.590, 906.125
762.878, 1573.932
764.166, 295.699
765.453, 254.660
766.740, 1115.152
768.027, 874.068
769.314, 1296.477
770.601, 72.721
771.887, 168.143
773.174, 1209.109
774.460, 789.832
775.745, 1330.988
777.031, 98.104
778.316, 222.854
779.602, 1433.949
780.887, 574.873
782.172, 1528.607
783.456, 80.275
784.741, 180.893
786.025, 1232.141
787.309, 676.533
788.593, 1535.320
789.876, 516.527
791.160, 77.811
792.443, 1942.137
793.726, 246.428
795.009, 1636.945
796.291, 958.428
797.574, 169.982
798.856, 2253.656
800.138, 165.381
801.420, 1577.172
802.702, 1509.031
803.983, 520.957
805.264, 2595.395
806.545, 777.471
807.826, 2219.611
809.107, 2521.857
810.387, 1484.188
811.667, 3606.385
812.947, 2078.850
814.227, 3481.371
815.507, 4076.225
816.786, 2338.943
818.065, 4931.715
819.344, 3224.541
820.623, 3797.426
821.902, 5145.924
823.180, 3168.918
824.459, 5751.959
825.737, 4139.559
827.014, 4482.730
828.292, 5873.521
829.569, 3716.781
830.847, 5830.090
832.124, 4995.605
833.401, 4409.000
834.677, 6383.023
835.954, 4006.492
837.230, 6210.053
838.506, 6018.447
839.782, 5302.076
841.057, 8038.963
842.333, 6245.988
843.608, 7849.762
844.883, 9244.379
846.158, 8078.211
847.433, 11582.152
848.707, 11224.520
849.981, 12938.504
851.255, 14884.383
852.529, 14188.406
853.803, 18022.469
855.076, 17688.637
856.350, 19332.730
857.623, 21676.840
858.895, 19820.959
860.168, 23555.086
861.441, 23039.539
862.713, 24203.682
863.985, 27977.842
865.257, 27572.008
866.528, 32506.172
867.800, 34830.340
869.071, 35834.508
870.342, 41898.672
871.613, 39712.844
872.884, 42746.984
874.154, 41871.133
875.425, 37405.273
876.695, 40009.406
877.965, 34964.406
879.234, 34178.512
880.504, 34092.613
881.773, 30022.373
883.042, 31416.439
884.311, 27971.441
885.580, 26145.471
886.848, 25999.484
888.117, 21331.723
889.385, 22015.701
890.653, 18349.645
891.920, 15613.195
893.188, 16417.105
894.455, 11953.867
895.722, 13137.746
896.989, 11401.602
898.256, 9775.938
899.523, 11289.738
900.789, 8824.023
902.055, 9850.973
903.321, 9834.684
904.587, 7979.271
905.852, 10702.930
907.118, 8686.555
908.383, 9413.426
909.648, 11106.988
910.913, 8484.605
912.177, 10838.102
913.442, 8601.559
914.706, 7286.293
915.970, 8499.684
917.233, 4982.930
918.497, 6086.902
919.760, 4490.180
921.024, 3060.262
922.287, 4193.463
923.550, 1744.609
924.812, 2561.191
926.075, 2704.273
927.337, 661.281
928.599, 2884.283
929.861, 854.273
931.122, 1558.473
932.384, 2191.346
933.645, 90.881
934.906, 2362.379
936.167, 902.387
937.428, 645.318
938.688, 2297.855
939.948, 391.045
941.208, 1632.428
942.468, 1074.557
943.728, 66.639
944.987, 2388.646
946.247, 90.387
947.506, 1093.641
948.765, 1735.486
950.023, 242.721
951.282, 2105.346
952.540, 526.840
953.798, 608.281
955.056, 2039.670
956.314, 238.992
957.572, 2007.059
958.829, 1108.092
960.086, 269.066
961.343, 2215.627
962.600, 183.514
963.856, 1570.352
965.113, 1580.918
966.369, 58.576
967.625, 2450.646
968.881, 430.951
970.136, 1061.191
971.392, 2013.371
972.647, 256.514
973.902, 1944.230
975.157, 893.992
976.411, 76.311
977.666, 1961.240
978.920, 599.244
980.174, 819.791
981.428, 1339.971
982.682, 191.125
983.935, 2379.299
985.188, 327.869
986.441, 1026.363
987.694, 1646.721
988.947, 224.859
990.199, 1793.326
991.452, 182.746
992.704, 180.754
993.956, 1799.064
995.207, 473.113
996.459, 1574.281
997.710, 1360.943
998.961, 58.205
1000.212, 2815.305
1001.463, 282.324
1002.714, 1469.281
1003.964, 2230.297
1005.214, 277.088
1006.464, 2693.779
1007.714, 1311.570
1008.964, 988.107
1010.213, 2974.559
1011.462, 550.928
1012.711, 2547.281
1013.960, 2026.244
1015.209, 662.428
1016.457, 3138.537
1017.705, 915.779
1018.954, 1851.719
1020.201, 2767.570
1021.449, 673.334
1022.697, 3159.035
1023.944, 1575.541
1025.191, 1241.064
1026.438, 3046.527
1027.685, 481.898
1028.931, 2217.174
1030.177, 1962.363
1031.423, 52.535
1032.669, 2602.336
1033.915, 487.119
1035.161, 1001.805
1036.406, 2466.436
1037.651, 80.979
1038.896, 2285.352
1040.141, 1249.646
1041.386, 553.850
1042.630, 2397.965
1043.874, 285.951
1045.118, 1569.857
1046.362, 1683.758
1047.606, 137.564
1048.849, 2761.252
1050.092, 644.873
1051.336, 948.400
1052.578, 2241.869
1053.821, 253.721
1055.064, 1929.396
1056.306, 1062.428
1057.548, 24.633
1058.790, 2418.223
1060.032, 161.070
1061.273, 1403.871
1062.515, 2426.578
1063.756, 0.748
1064.997, 2591.848
1066.237, 1044.350
1067.478, 656.807
1068.718, 2739.160
1069.959, 121.463
1071.199, 1973.785
1072.438, 2046.014
1073.678, 269.092
1074.918, 2721.121
1076.157, 813.059
1077.396, 1085.066
1078.635, 2576.980
1079.873, 18.818
1081.112, 2380.461
1082.350, 1612.006
1083.588, 701.934
1084.826, 3343.414
1086.064, 764.818
1087.301, 1916.939
1088.539, 2838.166
1089.776, 518.711
1091.013, 3019.877
1092.250, 1720.949
1093.486, 1011.230
1094.723, 3162.121
1095.959, 511.000
1097.195, 1983.000
1098.431, 2363.670
1099.666, 92.199
1100.902, 3032.635
1102.137, 1012.975
1103.372, 1083.805
1104.607, 2763.965
1105.842, 131.582
1107.076, 2142.965
1108.311, 1462.816
1109.545, 87.469
1110.779, 2262.121
1112.012, 211.814
1113.246, 892.285
1114.479, 2361.582
1115.712, 151.484
1116.945, 2275.676
1118.178, 1494.539
1119.411, 343.312
1120.643, 2962.559
1121.875, 575.586
1123.108, 1375.146
1124.339, 2373.557
1125.571, 7.367
1126.802, 2635.578
1128.034, 926.084
1129.265, 474.076
1130.496, 2904.414
1131.727, 320.059
1132.957, 1748.504
1134.187, 2385.547
1135.418, 76.902
1136.648, 2867.033
1137.877, 729.553
1139.107, 416.791
1140.336, 3005.092
1141.566, 51.174
1142.795, 2245.711
1144.023, 2251.699
1145.252, 211.576
1146.480, 2869.824
1147.709, 1027.822
1148.937, 944.146
1150.165, 2905.803
1151.392, 41.973
1152.620, 2348.023
1153.847, 2082.672
1155.074, 438.568
1156.301, 3086.533
1157.528, 1092.262
1158.755, 1397.908
1159.981, 3049.613
1161.207, 155.107
1162.433, 2450.498
1163.659, 1957.875
1164.885, 443.111
1166.110, 3288.746
1167.336, 1173.820
1168.561, 1458.814
1169.786, 3358.637
1171.010, 523.477
1172.235, 2888.230
1173.459, 2318.037
1174.683, 902.639
1175.907, 3586.281
1177.131, 1410.932
1178.355, 2315.314
1179.578, 3655.148
1180.801, 849.375
1182.024, 3562.580
1183.247, 2484.564
1184.470, 1168.570
1185.692, 3604.258
1186.915, 970.129
1188.137, 1453.918
1189.359, 2817.920
1190.580, 21.562
1191.802, 2642.242
1193.023, 1894.824
1194.244, 948.215
1195.465, 3495.232
1196.686, 1054.930
1197.907, 1647.600
1199.127, 3410.715
1200.347, 483.758
1201.567, 2738.348
1202.787, 2373.346
1204.007, 786.172
1205.226, 3534.961
1206.446, 1187.209
1207.665, 1834.162
1208.884, 3526.740
1210.102, 691.246
1211.321, 3171.227
1212.539, 2433.609
1213.758, 1185.924
1214.976, 3887.518
1216.193, 1349.025
1217.411, 1964.242
1218.628, 3236.307
1219.846, 471.127
1221.063, 2829.602
1222.280, 2111.488
1223.496, 695.066
1224.713, 3656.830
1225.929, 949.463
1227.145, 1709.801
1228.361, 3191.373
1229.577, 486.621
1230.793, 2587.549
1232.008, 2249.016
1233.223, 483.865
1234.438, 3825.221
1235.653, 956.521
1236.868, 1486.613
1238.082, 3337.949
1239.297, 129.721
1240.511, 2370.959
1241.725, 2302.148
1242.938, 377.064
1244.152, 3428.162
1245.365, 1389.168
1246.578, 1154.764
1247.791, 3245.773
1249.004, 526.730
1250.217, 2357.537
1251.429, 2288.297
1252.642, 316.570
1253.854, 3317.318
1255.066, 1197.932
1256.277, 866.439
1257.489, 3376.887
1258.700, 394.135
1259.911, 1526.055
1261.122, 2666.428
1262.333, 92.119
1263.544, 2868.145
1264.754, 1418.354
1265.964, 498.408
1267.174, 3288.434
1268.384, 377.602
1269.594, 1439.395
1270.803, 2599.395
1272.013, 288.666
1273.222, 2612.115
1274.431, 1432.115
1275.640, 40.863
1276.848, 3300.770
1278.057, 448.900
1279.265, 1339.904
1280.473, 2709.730
1281.681, 242.424
1282.888, 2337.205
1284.096, 1596.762
1285.303, 205.082
1286.510, 2864.361
1287.717, 793.365
1288.924, 973.037
1290.131, 3212.402
1291.337, 47.633
1292.543, 1953.820
1293.749, 2463.080
1294.955, 97.773
1296.161, 2822.459
1297.366, 1037.346
1298.571, 406.320
1299.777, 3095.262
1300.981, 72.949
1302.186, 1531.771
1303.391, 2610.523
1304.595, 260.760
1305.799, 2267.844
1307.003, 1903.717
1308.207, 92.193
1309.411, 3111.635
1310.614, 468.799
1311.818, 1137.145
1313.021, 2975.432
1314.224, 56.469
1315.426, 2071.574
1316.629, 2188.674
1317.831, 63.367
1319.033, 2895.098
1320.235, 1222.941
1321.437, 530.736
1322.639, 2880.830
1323.840, 288.547
1325.042, 1776.299
1326.243, 2384.828
1327.444, 127.639
1328.644, 2719.828
1329.845, 1627.266
1331.045, 94.709
1332.245, 3274.305
1333.445, 321.654
1334.645, 1158.963
1335.845, 3084.273
1337.044, 328.449
1338.244, 2308.727
1339.443, 2338.375
1340.642, 104.473
1341.840, 3052.641
1343.039, 1220.090
1344.237, 647.197
1345.435, 2963.955
1346.633, 71.178
1347.831, 1518.344
1349.029, 2158.057
1350.226, 344.705
1351.424, 2562.477
1352.621, 992.945
1353.818, 100.092
1355.014, 3117.217
1356.211, 625.645
1357.407, 942.871
1358.604, 3360.541
1359.800, 172.127
1360.995, 2165.102
1362.191, 2344.775
1363.387, 8.023
1364.582, 3098.230
1365.777, 670.064
1366.972, 157.068
1368.167, 3474.135
1369.361, 403.457
1370.556, 1544.264
1371.750, 3134.402
1372.944, 36.324
1374.138, 2642.885
1375.331, 1992.867
1376.525, 37.166
1377.718, 3250.385
1378.911, 1168.945
1380.104, 798.762
1381.297, 3368.604
1382.490, 507.793
1383.682, 1926.014
1384.874, 2995.801
1386.066, 74.410
1387.258, 2764.154
1388.450, 1704.627
1389.641, 374.480
1390.833, 3673.660
1392.024, 762.230
1393.215, 1188.238
1394.406, 3767.879
1395.596, 34.559
1396.787, 2283.281
1397.977, 2962.420
1399.167, 268.180
1400.357, 3073.053
1401.547, 1672.389
1402.736, 235.461
1403.925, 3504.918
1405.115, 964.750
1406.304, 863.121
1407.492, 3469.604
1408.681, 148.986
1409.870, 2465.652
1411.058, 2851.945
1412.246, 170.414
1413.434, 3299.582
1414.622, 1581.666
1415.809, 363.285
1416.997, 3712.354
1418.184, 761.129
1419.371, 1438.373
1420.558, 3325.273
1421.744, 324.244
1422.931, 2460.049
1424.117, 2787.320
1425.303, 234.729
1426.489, 3233.902
1427.675, 1811.789
1428.861, 620.322
1430.046, 3545.277
1431.231, 513.811
1432.416, 1447.752
1433.601, 3292.178
1434.786, 40.141
1435.970, 2518.104
1437.155, 2948.529
1438.339, 280.803
1439.523, 3758.350
1440.707, 1672.199
1441.890, 667.783
1443.074, 4047.553
1444.257, 804.730
1445.440, 1613.828
1446.623, 3570.709
1447.806, 596.408
1448.989, 2553.066
1450.171, 3117.922
1451.353, 331.850
1452.535, 3508.061
1453.717, 2134.627
1454.899, 815.119
1456.080, 4017.643
1457.262, 1053.881
1458.443, 1406.164
1459.624, 4012.400
1460.805, 433.361
1461.985, 2479.818
1463.166, 3121.131
1464.346, 24.705
1465.526, 3590.955
1466.706, 2187.258
1467.886, 400.008
1469.065, 4093.594
1470.245, 839.760
1471.424, 1715.980
1472.603, 3681.559
1473.782, 70.639
1474.960, 2597.756
1476.139, 3040.713
1477.317, 148.230
1478.495, 3276.053
1479.673, 2564.219
1480.851, 52.496
1482.029, 3596.639
1483.206, 1495.590
1484.383, 595.719
1485.560, 4117.020
1486.737, 535.686
1487.914, 1978.195
1489.091, 3667.172
1490.267, 135.174
1491.443, 2740.994
1492.619, 3087.900
1493.795, 19.371
1494.971, 3762.148
1496.146, 1881.590
1497.322, 588.971
1498.497, 3976.545
1499.672, 851.090
1500.846, 1495.359
1502.021, 4156.953
1503.196, 470.430
1504.370, 2523.330
1505.544, 3243.309
1506.718, 305.102
1507.892, 3280.035
1509.065, 2262.725
1510.238, 8.049
1511.412, 0.000
##END=



