##NAMES=Titanite
##RRUFFID=R050039
##IDEAL CHEMISTRY=CaTi^4+^SiO_5_
##LOCALITY=Kingman, Arizona, USA
##OWNER=RRUFF
##SOURCE=University of Arizona Mineral Museum
##DESCRIPTION=Black fragment from a single crystal
##STATUS=The identification of this mineral has been confirmed by X-ray diffraction and chemical analysis
##URL=rruff.info/R050039
##MEASURED CHEMISTRY=(Ca_0.95_Y_0.05_)(Ti_0.85_Al_0.10_Fe^3+^_0.06_)Si_1.00_O_4_(O_0.93_F_0.07_)
##PIN_ID=L00539
##ORIENTATION=Laser parallel to c* (0 0 1). Fiducial mark perpendicular to laser is parallel to a [1 0 0]
132.432, 0.000
133.821, 156.340
135.210, 492.842
136.599, 385.930
137.987, 48.914
139.376, 322.043
140.764, 47.137
142.152, 6.033
143.539, 230.703
144.927, 165.914
146.314, 228.445
147.701, 327.355
149.088, 461.904
150.474, 483.285
151.861, 595.590
153.247, 563.785
154.633, 675.689
156.018, 740.945
157.404, 969.242
158.789, 950.307
160.174, 993.904
161.559, 1069.867
162.943, 978.053
164.327, 1208.336
165.711, 1170.602
167.095, 1174.730
168.479, 1170.609
169.862, 1228.139
171.246, 1207.217
172.628, 1357.752
174.011, 1369.658
175.394, 1432.818
176.776, 1267.109
178.158, 1592.434
179.540, 1518.719
180.922, 1615.898
182.303, 1753.920
183.684, 1922.738
185.065, 1962.326
186.446, 1932.701
187.826, 2173.914
189.207, 2194.115
190.587, 2358.994
191.967, 2302.879
193.346, 2437.629
194.726, 2533.090
196.105, 2609.510
197.484, 2756.547
198.862, 3004.260
200.241, 3128.285
201.619, 3231.553
202.997, 3321.066
204.375, 3341.121
205.753, 3421.680
207.130, 3832.717
208.507, 4084.215
209.884, 4026.145
211.261, 4288.484
212.638, 4441.215
214.014, 4724.316
215.390, 4827.664
216.766, 5100.926
218.141, 5234.090
219.517, 5437.209
220.892, 5570.359
222.267, 5733.576
223.642, 5818.582
225.016, 5850.303
226.391, 5873.852
227.765, 5747.543
229.139, 5591.385
230.512, 5465.393
231.886, 5079.564
233.259, 5283.912
234.632, 4958.443
236.005, 4823.299
237.377, 4858.719
238.749, 4624.957
240.122, 4812.270
241.493, 4740.631
242.865, 4739.973
244.237, 4930.254
245.608, 4951.391
246.979, 5223.309
248.350, 5155.930
249.720, 5449.061
251.090, 5082.512
252.461, 5456.105
253.830, 5389.771
255.200, 5363.451
256.570, 5377.143
257.939, 4950.838
259.308, 5144.543
260.677, 4818.256
262.045, 4741.980
263.414, 4375.711
264.782, 4209.457
266.150, 4023.215
267.517, 3556.980
268.885, 3390.760
270.252, 3044.551
271.619, 2948.350
272.986, 2422.160
274.353, 2545.977
275.719, 2219.801
277.085, 2033.629
278.451, 1997.463
279.817, 1811.297
281.182, 1525.133
282.548, 1688.967
283.913, 1282.799
285.278, 1596.629
286.642, 1600.455
288.007, 1554.273
289.371, 1728.086
290.735, 1781.889
292.099, 2095.682
293.462, 2079.465
294.826, 2153.234
296.189, 2556.992
297.552, 2499.865
298.914, 2812.336
300.277, 2884.311
301.639, 3477.141
303.001, 3316.605
304.363, 3510.859
305.724, 3895.721
307.086, 3941.090
308.447, 4177.016
309.808, 4353.402
311.168, 4410.223
312.529, 4447.441
313.889, 4585.037
315.249, 4702.984
316.609, 4661.256
317.969, 4629.842
319.328, 4598.713
320.687, 4637.863
322.046, 4557.273
323.405, 4496.932
324.764, 4576.826
326.122, 4386.941
327.480, 4567.273
328.838, 4367.809
330.196, 4318.535
331.553, 4199.449
332.910, 4060.539
334.267, 3951.795
335.624, 3723.963
336.981, 3586.623
338.337, 3493.479
339.693, 3164.283
341.049, 3355.980
342.405, 2789.783
343.760, 3042.600
345.116, 2770.668
346.471, 2769.602
347.826, 2636.898
349.180, 2593.191
350.535, 2549.871
351.889, 2525.650
353.243, 2572.799
354.597, 2555.775
355.950, 2590.920
357.304, 2633.846
358.657, 2764.559
360.010, 2628.086
361.362, 2726.273
362.715, 2676.662
364.067, 2717.332
365.419, 2696.447
366.771, 2500.875
368.123, 2823.752
369.474, 2558.340
370.825, 2360.012
372.176, 2344.588
373.527, 2018.639
374.877, 1812.736
376.228, 1636.506
377.578, 1470.252
378.928, 1234.014
380.277, 1217.791
381.627, 931.586
382.976, 955.400
384.325, 689.230
385.674, 683.074
387.023, 756.936
388.371, 660.811
389.719, 554.699
391.067, 628.602
392.415, 562.516
393.762, 716.439
395.110, 670.375
396.457, 724.316
397.804, 708.268
399.150, 662.225
400.497, 836.184
401.843, 810.141
403.189, 974.094
404.535, 938.033
405.881, 1231.959
407.226, 1165.863
408.571, 1419.744
409.916, 1573.597
411.261, 1857.418
412.605, 1921.205
413.950, 2324.957
415.294, 2358.671
416.638, 2592.348
417.981, 2935.986
419.325, 3169.586
420.668, 3273.148
422.011, 3476.672
423.354, 3457.896
424.697, 3443.601
426.039, 3337.005
427.381, 3280.369
428.723, 3133.693
430.065, 2916.977
431.406, 3140.219
432.748, 2733.419
434.089, 2686.577
435.430, 2749.691
436.770, 2422.765
438.111, 2225.796
439.451, 2268.784
440.791, 2041.729
442.131, 1864.628
443.471, 1897.484
444.810, 1840.296
446.149, 1753.062
447.488, 1855.785
448.827, 1818.463
450.166, 1861.096
451.504, 2063.682
452.842, 1786.223
454.180, 2158.717
455.518, 2171.165
456.855, 2353.567
458.193, 2435.923
459.530, 2648.285
460.867, 2810.654
462.203, 2893.031
463.540, 3028.875
464.876, 3237.816
466.212, 3160.217
467.548, 3302.611
468.883, 3284.998
470.219, 3017.373
471.554, 2969.737
472.889, 2822.086
474.224, 2689.949
475.558, 2590.055
476.892, 2479.031
478.227, 2291.309
479.561, 2183.564
480.894, 1915.798
482.228, 1588.008
483.561, 1580.194
484.894, 1142.354
486.227, 1054.491
487.559, 956.600
488.892, 808.684
490.224, 590.736
491.556, 422.763
492.888, 244.762
494.220, 306.728
495.551, 88.687
496.882, 70.604
498.213, 167.526
499.544, 65.823
500.874, 234.243
502.205, 262.820
503.535, 401.602
504.865, 480.689
506.194, 490.129
507.524, 459.913
508.853, 439.991
510.182, 442.404
511.511, 415.535
512.840, 452.233
514.168, 373.658
515.496, 405.390
516.824, 367.447
518.152, 329.814
519.480, 372.472
520.807, 285.441
522.134, 318.682
523.461, 162.209
524.788, 135.942
526.114, 59.868
527.441, 33.948
528.767, 171.831
530.093, 12.450
531.418, 183.138
532.744, 298.666
534.069, 294.139
535.394, 379.558
536.719, 534.925
538.044, 600.240
539.368, 688.536
540.693, 810.720
542.017, 795.882
543.340, 870.993
544.664, 856.054
545.987, 1001.061
547.311, 936.018
548.634, 950.920
549.956, 835.771
551.279, 910.571
552.601, 975.317
553.923, 900.012
555.245, 884.653
556.567, 819.242
557.889, 703.777
559.210, 668.259
560.531, 822.688
561.852, 647.063
563.173, 851.386
564.493, 575.655
565.813, 979.871
567.133, 984.034
568.453, 918.143
569.773, 1172.199
571.092, 1216.201
572.412, 1360.150
573.731, 1544.047
575.049, 2087.891
576.368, 2081.682
577.686, 2375.420
579.005, 2799.106
580.323, 2922.739
581.640, 3126.320
582.958, 3419.850
584.275, 3583.325
585.593, 3846.750
586.909, 3950.122
588.226, 4323.443
589.543, 4356.713
590.859, 4549.930
592.175, 4983.096
593.491, 5146.210
594.807, 5169.273
596.122, 5442.286
597.438, 5545.248
598.753, 5878.158
600.068, 5971.019
601.382, 6113.828
602.697, 6366.589
604.011, 6509.298
605.325, 6681.956
606.639, 6924.566
607.952, 6927.127
609.266, 7089.637
610.579, 7272.097
611.892, 7354.508
613.205, 7586.871
614.518, 7259.184
615.830, 7581.447
617.142, 7913.664
618.454, 7505.832
619.766, 8067.951
621.078, 7900.021
622.389, 7962.040
623.700, 7684.014
625.011, 8195.957
626.322, 8147.857
627.632, 8149.771
628.943, 8351.750
630.253, 8123.751
631.563, 8055.858
632.872, 8328.040
634.182, 8230.280
635.491, 8272.655
636.800, 8325.084
638.109, 8057.613
639.418, 8190.205
640.726, 8372.861
642.035, 8225.581
643.343, 8298.296
644.651, 8256.105
645.958, 8344.644
647.266, 8177.290
648.573, 8180.447
649.880, 8223.999
651.187, 8076.502
652.494, 8024.317
653.800, 8186.646
655.106, 8098.629
656.412, 7687.404
657.718, 7891.555
659.024, 7536.838
660.329, 7613.799
661.634, 7515.760
662.939, 7432.878
664.244, 7210.462
665.549, 7279.134
666.853, 7088.387
668.157, 6977.066
669.461, 6896.889
670.765, 6744.760
672.069, 6837.129
673.372, 6637.166
674.675, 6419.253
675.978, 6443.513
677.281, 6174.993
678.583, 6171.844
679.886, 6116.525
681.188, 5910.955
682.490, 5866.963
683.792, 5727.686
685.093, 5739.976
686.394, 5380.575
687.696, 5744.108
688.997, 5214.748
690.297, 5315.929
691.598, 5147.070
692.898, 5048.549
694.198, 5210.059
695.498, 5071.555
696.798, 4713.042
698.097, 4914.518
699.397, 4735.980
700.696, 4617.432
701.995, 4758.873
703.293, 4450.305
704.592, 4611.725
705.890, 4473.133
707.188, 4274.530
708.486, 4265.918
709.784, 4287.295
711.081, 3998.663
712.378, 3950.020
713.675, 3981.366
714.972, 3872.703
716.269, 3794.029
717.565, 3635.348
718.862, 3526.654
720.158, 3415.504
721.453, 3419.241
722.749, 3230.521
724.045, 3171.791
725.340, 3173.054
726.635, 3064.308
727.930, 2948.351
729.224, 2966.785
730.519, 2698.013
731.813, 2589.230
733.107, 2580.441
734.401, 2341.645
735.694, 2202.838
736.988, 2124.023
738.281, 2026.183
739.574, 1979.133
740.867, 1947.535
742.160, 1908.690
743.452, 1859.838
744.744, 1800.979
746.036, 1682.112
747.328, 1563.238
748.620, 1534.357
749.911, 1425.471
751.202, 1416.576
752.493, 1337.676
753.784, 1208.768
755.075, 1259.854
756.365, 1080.935
757.655, 1192.008
758.945, 833.075
760.235, 1104.137
761.525, 1045.192
762.814, 536.242
764.103, 867.286
765.392, 638.324
766.681, 659.357
767.969, 640.384
769.258, 581.406
770.546, 573.482
771.834, 573.434
773.122, 494.440
774.409, 475.441
775.697, 416.438
776.984, 353.399
778.271, 278.924
779.558, 243.534
780.844, 222.863
782.131, 300.748
783.417, 277.867
784.703, 264.976
785.989, 361.575
787.274, 340.282
788.560, 246.727
789.845, 359.770
791.130, 314.689
792.415, 270.363
793.699, 276.090
794.983, 333.175
796.268, 217.234
797.552, 390.116
798.835, 183.123
800.119, 78.108
801.402, 289.680
802.686, 111.027
803.969, 11.703
805.251, 372.346
806.534, 77.035
807.816, 83.504
809.098, 74.021
810.380, 15.483
811.662, 45.035
812.944, 194.433
814.225, 93.949
815.506, 146.543
816.787, 67.146
818.068, 22.120
819.349, 171.267
820.629, 29.637
821.909, 90.673
823.189, 181.837
824.469, 63.123
825.749, 134.543
827.028, 186.084
828.307, 237.785
829.586, 349.623
830.865, 371.621
832.144, 473.778
833.422, 566.032
834.700, 628.455
835.978, 630.968
837.256, 703.544
838.534, 866.201
839.811, 1168.886
841.088, 1141.560
842.365, 1454.250
843.642, 1616.922
844.919, 1719.576
846.195, 2032.209
847.472, 2114.818
848.748, 2187.406
850.023, 2879.971
851.299, 2672.513
852.575, 3095.031
853.850, 3217.526
855.125, 3639.999
856.400, 4022.448
857.674, 4564.873
858.949, 4867.278
860.223, 5219.656
861.497, 5842.012
862.771, 5984.344
864.045, 6516.652
865.318, 7268.937
866.591, 7601.197
867.864, 8343.435
869.137, 8745.647
870.410, 9307.835
871.682, 10020.000
872.955, 10512.144
874.227, 11043.377
875.499, 11516.349
876.770, 11908.417
878.042, 12380.460
879.313, 12622.478
880.584, 12929.320
881.855, 13296.440
883.126, 13358.382
884.396, 13500.303
885.667, 13652.196
886.937, 13924.065
888.207, 13645.911
889.476, 13577.728
890.746, 13859.524
892.015, 13101.290
893.284, 12853.033
894.553, 12634.752
895.822, 11936.443
897.090, 11868.111
898.359, 11009.753
899.627, 10661.367
900.895, 9812.959
902.163, 9364.523
903.430, 8756.062
904.698, 7817.575
905.965, 7739.063
907.232, 7100.523
908.499, 6351.959
909.765, 5853.367
911.032, 5554.750
912.298, 4886.107
913.564, 4717.438
914.830, 3978.740
916.095, 3560.019
917.361, 3281.271
918.626, 2892.494
919.891, 2534.773
921.156, 1974.864
922.420, 1816.010
923.685, 1457.128
924.949, 1108.221
926.213, 1189.285
927.477, 790.323
928.740, 491.334
930.004, 332.318
931.267, 73.272
932.530, 204.160
933.793, 104.987
935.056, 294.291
936.318, 133.852
937.581, 443.584
938.843, 323.652
940.104, 273.993
941.366, 544.582
942.628, 255.560
943.889, 426.775
945.150, 268.320
946.411, 290.108
947.672, 242.155
948.932, 64.444
950.193, 66.858
951.453, 70.349
952.713, 267.035
953.973, 314.379
955.232, 471.135
956.491, 647.421
957.751, 984.683
959.010, 1006.555
960.268, 1523.090
961.527, 1669.562
962.785, 1865.115
964.044, 2001.541
965.302, 2525.938
966.559, 2796.549
967.817, 2993.198
969.075, 3500.252
970.332, 3516.875
971.589, 3997.406
972.846, 4266.709
974.102, 4374.008
975.359, 4621.186
976.615, 4849.376
977.871, 4978.420
979.127, 5224.379
980.383, 5117.027
981.638, 5086.781
982.893, 5474.168
984.149, 5072.086
985.404, 5294.180
986.658, 5178.332
987.913, 5087.010
989.167, 5004.730
990.421, 5211.943
991.675, 5138.984
992.929, 4915.498
994.183, 5401.980
995.436, 5028.430
996.689, 4804.847
997.942, 4651.231
999.195, 4777.584
1000.448, 4563.905
1001.700, 4620.193
1002.952, 4546.453
1004.204, 4462.680
1005.456, 4438.878
1006.708, 4395.045
1007.959, 4441.181
1009.210, 4517.285
1010.461, 4463.363
1011.712, 4409.410
1012.963, 4355.426
1014.213, 4541.416
1015.464, 4487.375
1016.714, 4633.306
1017.964, 4679.207
1019.214, 4695.081
1020.463, 4880.927
1021.712, 4996.744
1022.962, 5054.904
1024.210, 5048.297
1025.459, 5214.035
1026.708, 5249.742
1027.956, 5355.426
1029.204, 5485.680
1030.452, 5826.707
1031.700, 5762.313
1032.948, 5877.891
1034.195, 6073.443
1035.442, 5948.971
1036.689, 6024.473
1037.936, 6059.950
1039.183, 6245.403
1040.429, 6270.830
1041.676, 6066.236
1042.922, 6271.616
1044.168, 5946.973
1045.413, 5902.305
1046.659, 5917.613
1047.904, 5772.901
1049.149, 5458.166
1050.394, 5353.406
1051.639, 5048.627
1052.884, 4863.822
1054.128, 4548.997
1055.372, 4534.150
1056.616, 4249.283
1057.860, 3894.392
1059.104, 3839.481
1060.347, 3634.548
1061.590, 3419.594
1062.833, 3154.621
1064.076, 2939.625
1065.319, 2684.607
1066.561, 2549.570
1067.803, 2334.513
1069.046, 2499.434
1070.287, 2334.336
1071.529, 2149.217
1072.771, 2274.078
1074.012, 2148.919
1075.253, 2213.739
1076.494, 2158.539
1077.735, 2233.318
1078.975, 2348.078
1080.216, 2362.311
1081.456, 2463.400
1082.696, 2467.038
1083.936, 2567.514
1085.175, 2676.020
1086.415, 2664.511
1087.654, 2473.484
1088.893, 2469.919
1090.132, 2319.409
1091.371, 2311.869
1092.609, 2072.429
1093.847, 1642.213
1095.085, 1721.926
1096.323, 1610.261
1097.561, 1181.605
1098.799, 1194.113
1100.036, 1006.480
1101.273, 696.855
1102.510, 790.628
1103.747, 414.612
1104.983, 649.271
1106.220, 273.946
1107.456, 208.637
1108.692, 293.390
1109.928, 128.176
1111.163, 102.982
1112.399, 27.861
1113.634, 42.772
1114.869, 87.793
1116.104, 102.888
1117.339, 11.973
1118.573, 36.802
1119.808, 111.585
1121.042, 76.332
1122.276, 21.062
1123.509, 5.769
1124.743, 50.449
1125.976, 64.771
1127.210, 199.737
1128.443, 134.403
1129.675, 263.069
1130.908, 223.828
1132.141, 28.634
1133.373, 304.412
1134.605, 168.299
1135.837, 53.202
1137.068, 236.104
1138.300, 13.084
1139.531, 8.031
1140.762, 47.035
1141.993, 292.125
1143.224, 157.236
1144.455, 532.368
1145.685, 587.532
1146.915, 632.720
1148.145, 907.929
1149.375, 1113.167
1150.605, 1398.430
1151.834, 1563.716
1153.063, 1849.025
1154.292, 2120.296
1155.521, 2479.709
1156.750, 2775.083
1157.978, 3230.478
1159.207, 3735.899
1160.435, 3951.342
1161.663, 4546.804
1162.891, 4922.293
1164.118, 5687.805
1165.345, 5803.340
1166.573, 6358.898
1167.800, 7184.480
1169.026, 7550.088
1170.253, 8035.720
1171.480, 8801.374
1172.706, 9047.048
1173.932, 9752.746
1175.158, 9738.466
1176.383, 10254.217
1177.609, 10439.984
1178.834, 10375.781
1180.059, 10541.605
1181.284, 10267.447
1182.509, 10063.311
1183.734, 10249.198
1184.958, 9585.099
1186.182, 9651.023
1187.406, 9566.966
1188.630, 9352.927
1189.854, 9008.920
1191.077, 9254.927
1192.301, 8880.956
1193.524, 8937.025
1194.747, 8913.109
1195.969, 9229.213
1197.192, 9035.338
1198.414, 8981.477
1199.636, 9067.628
1200.858, 9133.785
1202.080, 8899.951
1203.302, 8976.131
1204.523, 8902.309
1205.744, 8688.490
1206.966, 8844.676
1208.186, 8360.858
1209.407, 8477.037
1210.628, 8353.212
1211.848, 8109.376
1213.068, 8005.531
1214.288, 7751.676
1215.508, 7907.802
1216.727, 7763.910
1217.947, 7629.995
1219.166, 8046.055
1220.385, 7882.086
1221.604, 8008.084
1222.822, 8354.046
1224.041, 8269.971
1225.259, 8635.846
1226.477, 9061.678
1227.695, 9007.458
1228.913, 9633.203
1230.130, 10098.890
1231.348, 10404.578
1232.565, 10800.314
1233.782, 10916.053
1234.999, 11202.176
1236.215, 11848.079
1237.432, 11554.710
1238.648, 12051.001
1239.864, 12478.194
1241.080, 12305.929
1242.296, 12683.738
1243.511, 12562.068
1244.726, 12451.077
1245.942, 12529.841
1247.156, 12159.014
1248.371, 12218.510
1249.586, 12027.826
1250.800, 11590.685
1252.014, 11530.123
1253.228, 10940.268
1254.442, 10484.400
1255.656, 10507.739
1256.869, 9868.191
1258.083, 9668.864
1259.296, 9411.723
1260.509, 8910.084
1261.722, 8535.534
1262.934, 8471.912
1264.147, 7896.515
1265.359, 7652.768
1266.571, 7341.506
1267.783, 7294.828
1268.994, 7068.014
1270.206, 6651.319
1271.417, 6686.312
1272.628, 6560.006
1273.839, 6269.328
1275.050, 6362.197
1276.260, 6021.787
1277.471, 5908.803
1278.681, 6303.382
1279.891, 5760.872
1281.101, 6101.957
1282.310, 5991.453
1283.520, 5941.989
1284.729, 6246.898
1285.938, 6207.172
1287.147, 6138.253
1288.356, 6469.023
1289.564, 6479.672
1290.773, 6712.618
1291.981, 6703.752
1293.189, 6794.254
1294.397, 7176.760
1295.604, 7127.811
1296.812, 7288.521
1298.019, 7619.496
1299.226, 7469.566
1300.433, 7810.373
1301.640, 8110.398
1302.846, 7970.428
1304.053, 8351.863
1305.259, 8371.862
1306.465, 8211.800
1307.671, 8482.924
1308.876, 8693.305
1310.082, 8663.857
1311.287, 8754.521
1312.492, 8754.601
1313.697, 8805.706
1314.902, 8795.859
1316.106, 8686.101
1317.310, 8776.478
1318.515, 8626.462
1319.719, 8546.096
1320.922, 8626.886
1322.126, 8447.184
1323.329, 8257.524
1324.533, 8118.719
1325.736, 8037.759
1326.939, 7838.152
1328.141, 7747.076
1329.344, 7485.330
1330.546, 7405.350
1331.748, 7124.096
1332.950, 6842.560
1334.152, 6794.454
1335.354, 6422.681
1336.555, 6342.164
1337.757, 6235.451
1338.958, 5723.303
1340.159, 5842.356
1341.359, 5461.297
1342.560, 5268.934
1343.760, 5226.129
1344.960, 4882.300
1346.160, 4687.562
1347.360, 4514.723
1348.560, 4179.393
1349.759, 4203.780
1350.959, 3808.424
1352.158, 3741.807
1353.357, 3755.400
1354.555, 3288.041
1355.754, 3249.410
1356.952, 3091.380
1358.151, 2782.543
1359.349, 2672.135
1360.546, 2511.809
1361.744, 2300.134
1362.941, 2397.516
1364.139, 2034.642
1365.336, 2260.627
1366.533, 1975.539
1367.730, 1490.079
1368.926, 1533.000
1370.123, 1465.409
1371.319, 1145.547
1372.515, 1206.771
1373.711, 1038.053
1374.906, 846.826
1376.102, 818.131
1377.297, 641.588
1378.492, 505.296
1379.687, 567.836
1380.882, 432.894
1382.077, 568.981
1383.271, 391.084
1384.465, 309.188
1385.659, 330.282
1386.853, 244.359
1388.047, 119.381
1389.240, 203.354
1390.434, 131.234
1391.627, 80.962
1392.820, 126.528
1394.013, 45.058
1395.205, 119.242
1396.398, 37.462
1397.590, 58.437
1398.782, 43.436
1399.974, 25.549
1401.166, 155.453
1402.357, 30.400
1403.549, 114.343
1404.740, 64.336
1405.931, 76.404
1407.122, 57.561
1408.313, 94.814
1409.503, 25.170
1410.693, 68.615
1411.883, 28.147
1413.073, 19.762
1414.263, 68.472
1415.453, 54.271
1416.642, 89.173
1417.831, 87.233
1419.020, 16.712
1420.209, 63.505
1421.398, 30.824
1422.587, 20.742
1423.775, 69.814
1424.963, 86.517
1426.151, 85.752
1427.339, 13.117
1428.526, 179.904
1429.714, 150.808
1430.901, 195.547
1432.088, 218.179
1433.275, 59.722
1434.462, 175.216
1435.648, 258.665
1436.835, 94.108
1438.021, 208.568
1439.207, 257.079
1440.393, 233.674
1441.579, 362.399
1442.764, 270.314
1443.949, 392.467
1445.135, 402.931
1446.320, 223.777
1447.504, 432.089
1448.689, 459.945
1449.873, 289.439
1451.058, 388.957
1452.242, 378.856
1453.426, 374.828
1454.609, 485.268
1455.793, 336.955
1456.976, 477.943
1458.159, 445.962
1459.342, 431.360
1460.525, 473.125
1461.708, 504.174
1462.890, 295.050
1464.073, 316.268
1465.255, 267.171
1466.437, 164.731
1467.619, 359.210
1468.800, 167.513
1469.982, 255.162
1471.163, 293.180
1472.344, 90.225
1473.525, 150.605
1474.706, 147.987
1475.886, 3.609
1477.066, 143.320
1478.247, 47.593
1479.427, 35.111
1480.607, 120.873
1481.786, 39.832
1482.966, 35.878
1484.145, 86.648
1485.324, 101.049
1486.503, 167.843
1487.682, 239.783
1488.860, 43.414
1490.039, 228.697
1491.217, 217.912
1492.395, 137.960
1493.573, 238.280
1494.751, 153.130
1495.928, 209.562
1497.106, 387.854
1498.283, 172.611
1499.460, 177.587
1500.637, 309.452
1501.814, 133.849
1502.990, 242.436
1504.166, 285.717
1505.342, 144.637
1506.518, 228.894
1507.694, 275.632
1508.870, 138.513
1510.045, 317.014
1511.221, 175.228
1512.396, 331.802
1513.571, 194.897
1514.745, 165.154
1515.920, 26.114
1517.094, 266.242
1518.269, 60.555
1519.443, 1.293
1520.616, 0.000
##END=



