##NAMES=Titanite
##RRUFFID=R050039
##IDEAL CHEMISTRY=CaTi^4+^SiO_5_
##LOCALITY=Kingman, Arizona, USA
##OWNER=RRUFF
##SOURCE=University of Arizona Mineral Museum
##DESCRIPTION=Black fragment from a single crystal
##STATUS=The identification of this mineral has been confirmed by X-ray diffraction and chemical analysis
##URL=rruff.info/R050039
##MEASURED CHEMISTRY=(Ca_0.95_Y_0.05_)(Ti_0.85_Al_0.10_Fe^3+^_0.06_)Si_1.00_O_4_(O_0.93_F_0.07_)
##PIN_ID=L00107
##ORIENTATION=Laser parallel to (-1 0 -1). Fiducial mark perpendicular to laser is parallel to b [0 1 0]
129.268, 0.000
130.655, 22.823
132.041, 110.173
133.427, 28.524
134.813, 60.588
136.199, 25.733
137.584, 24.818
138.970, 99.008
140.355, 60.560
141.740, 12.780
143.124, 39.200
144.509, 24.116
145.893, 33.245
147.277, 81.394
148.660, 49.456
150.044, 9.349
151.427, 274.717
152.810, 191.409
154.193, 200.500
155.576, 241.789
156.958, 255.099
158.341, 310.976
159.723, 387.185
161.105, 415.720
162.486, 385.801
163.867, 407.362
165.249, 480.341
166.630, 374.678
168.010, 480.308
169.391, 477.170
170.771, 625.201
172.151, 714.312
173.531, 584.401
174.911, 625.390
176.290, 697.212
177.669, 859.814
179.049, 643.155
180.427, 867.191
181.806, 851.892
183.184, 847.223
184.562, 993.161
185.940, 1009.680
187.318, 1126.767
188.696, 1124.414
190.073, 1242.640
191.450, 1261.467
192.827, 1272.454
194.204, 1318.047
195.580, 1271.762
196.956, 1363.180
198.332, 1365.241
199.708, 1427.916
201.084, 1481.170
202.459, 1514.967
203.834, 1439.280
205.209, 1654.083
206.584, 1779.346
207.958, 1665.046
209.333, 1751.160
210.707, 1967.666
212.081, 2094.449
213.454, 2171.197
214.828, 2347.914
216.201, 2594.645
217.574, 2591.416
218.947, 2888.263
220.320, 2925.198
221.692, 2872.245
223.064, 3119.418
224.436, 2936.730
225.808, 2824.188
227.179, 2871.801
228.551, 2769.575
229.922, 2647.512
231.293, 2375.616
232.663, 2393.889
234.034, 2022.332
235.404, 1740.947
236.774, 1899.733
238.144, 1668.692
239.514, 1887.822
240.883, 1777.120
242.252, 1886.636
243.621, 1856.422
244.990, 1906.464
246.359, 2036.841
247.727, 2077.672
249.095, 2049.078
250.463, 2231.162
251.831, 2333.911
253.198, 2287.264
254.566, 2231.263
255.933, 2355.938
257.299, 2371.353
258.666, 2417.478
260.033, 2404.175
261.399, 2241.314
262.765, 2298.917
264.131, 2276.855
265.496, 2314.955
266.862, 2073.079
268.227, 2191.197
269.592, 2049.311
270.957, 2007.416
272.321, 1975.516
273.685, 1783.607
275.050, 2031.690
276.413, 1649.766
277.777, 1957.831
279.141, 1785.886
280.504, 1913.927
281.867, 2101.952
283.230, 1909.963
284.592, 2077.957
285.955, 2175.932
287.317, 2073.887
288.679, 2391.820
290.041, 2529.731
291.403, 2727.618
292.764, 2875.481
294.125, 3143.250
295.486, 3274.633
296.847, 3727.701
298.207, 3594.347
299.568, 3962.703
300.928, 4131.533
302.288, 4249.582
303.647, 4519.260
305.007, 4772.652
306.366, 5259.594
307.725, 5420.409
309.084, 5911.293
310.443, 6312.393
311.801, 6354.147
313.159, 6696.182
314.517, 6988.418
315.875, 7110.963
317.233, 7293.746
318.590, 7366.756
319.947, 7349.979
321.304, 7123.408
322.661, 7247.033
324.018, 6750.848
325.374, 6474.840
326.730, 6389.006
328.086, 6133.336
329.442, 5767.824
330.797, 5442.466
332.153, 5187.251
333.508, 4922.178
334.863, 4637.236
336.217, 4602.425
337.572, 4187.736
338.926, 4013.164
340.280, 3938.710
341.634, 3644.364
342.988, 3580.127
344.341, 3625.994
345.694, 3421.961
347.047, 3658.024
348.400, 3794.182
349.753, 3600.430
351.105, 3416.768
352.457, 3393.189
353.809, 3526.135
355.161, 3714.974
356.512, 3704.167
357.864, 3563.729
359.215, 3933.885
360.566, 3887.260
361.916, 4123.111
363.267, 4081.716
364.617, 4042.754
365.967, 4238.559
367.317, 4343.716
368.667, 4434.508
370.016, 4307.805
371.366, 4768.591
372.715, 4694.992
374.064, 4764.096
375.412, 5153.674
376.761, 5086.421
378.109, 5326.699
379.457, 5522.051
380.805, 5666.209
382.152, 5893.574
383.500, 6117.598
384.847, 6493.875
386.194, 6614.620
387.541, 6906.730
388.887, 7198.966
390.233, 7374.428
391.580, 7657.520
392.926, 7725.149
394.271, 7938.580
395.617, 8167.111
396.962, 8237.066
398.307, 8491.125
399.652, 8580.957
400.997, 8989.717
402.341, 8927.292
403.686, 9304.864
405.030, 9692.427
406.374, 9759.985
407.717, 10237.528
409.061, 10235.065
410.404, 10472.582
411.747, 11030.085
413.090, 11067.565
414.433, 11685.023
415.775, 11402.453
417.117, 11889.854
418.459, 11617.220
419.801, 11304.548
421.143, 11601.836
422.484, 11059.084
423.825, 10586.282
425.166, 10153.434
426.507, 9620.534
427.848, 9537.587
429.188, 8714.586
430.528, 8491.532
431.868, 8018.426
433.208, 7385.267
434.547, 6902.059
435.887, 6428.795
437.226, 5935.479
438.565, 5592.109
439.904, 5208.686
441.242, 4925.208
442.580, 4481.676
443.918, 4418.091
445.256, 3664.449
446.594, 3640.755
447.932, 2967.009
449.269, 2993.208
450.606, 2729.360
451.943, 2435.463
453.280, 2521.518
454.616, 2417.521
455.952, 2033.520
457.288, 2079.514
458.624, 2005.501
459.960, 1951.483
461.295, 1885.235
462.631, 1863.412
463.966, 1709.358
465.300, 1745.287
466.635, 1711.193
467.969, 1937.078
469.304, 1882.938
470.638, 2088.773
471.972, 2084.583
473.305, 1970.363
474.639, 2146.113
475.972, 2441.834
477.305, 2547.523
478.638, 2573.180
479.970, 2668.803
481.303, 2694.393
482.635, 2789.946
483.967, 2415.466
485.298, 2580.949
486.630, 2616.396
487.961, 2321.806
489.293, 2357.175
490.624, 2332.505
491.954, 2217.794
493.285, 1833.041
494.615, 1908.244
495.945, 1733.405
497.275, 1598.521
498.605, 1523.593
499.935, 1298.618
501.264, 1093.597
502.593, 1098.527
503.922, 863.411
505.251, 958.244
506.579, 753.029
507.908, 697.763
509.236, 462.446
510.564, 387.078
511.891, 401.658
513.219, 3.816
514.546, 90.592
515.873, 84.919
517.200, 79.164
518.527, 67.622
519.853, 7.389
521.180, 28.669
522.506, 69.289
523.832, 104.905
525.157, 177.786
526.483, 164.565
527.808, 251.565
529.133, 288.833
530.458, 246.391
531.783, 174.215
533.107, 215.061
534.431, 220.580
535.756, 269.146
537.079, 227.998
538.403, 307.113
539.727, 286.534
541.050, 336.250
542.373, 406.289
543.696, 351.248
545.018, 227.418
546.341, 248.417
547.663, 249.692
548.985, 141.248
550.307, 103.027
551.629, 175.009
552.950, 267.231
554.271, 29.744
555.592, 52.420
556.913, 44.729
558.234, 161.749
559.554, 218.687
560.875, 395.548
562.195, 534.910
563.514, 741.281
564.834, 966.052
566.154, 1232.392
567.473, 1478.951
568.792, 1765.452
570.111, 2061.894
571.429, 2138.273
572.748, 2394.595
574.066, 2540.856
575.384, 2577.060
576.702, 2693.204
578.019, 2949.287
579.337, 2805.314
580.654, 2851.282
581.971, 3067.193
583.288, 2913.046
584.605, 2718.843
585.921, 2864.580
587.237, 2830.262
588.553, 2855.888
589.869, 2891.458
591.185, 2896.973
592.500, 2923.551
593.815, 2922.085
595.130, 2913.184
596.445, 2908.479
597.760, 2803.721
599.074, 2778.908
600.389, 2834.043
601.703, 2761.124
603.016, 2874.154
604.330, 2719.265
605.644, 2794.479
606.957, 2789.413
608.270, 2715.491
609.583, 2981.190
610.895, 2917.512
612.208, 2913.021
613.520, 2737.747
614.832, 2902.319
616.144, 2906.843
617.455, 2681.314
618.767, 2805.739
620.078, 2850.113
621.389, 2484.438
622.700, 2898.715
624.011, 2702.943
625.321, 2847.123
626.631, 2571.255
627.941, 2915.406
629.251, 2719.517
630.561, 2643.734
631.870, 2828.029
633.180, 2662.359
634.489, 2506.832
635.798, 2781.372
637.106, 2526.002
638.415, 2670.742
639.723, 2625.506
641.031, 2470.349
642.339, 2585.199
643.647, 2590.029
644.954, 2554.824
646.261, 2519.575
647.568, 2334.282
648.875, 2458.946
650.182, 2323.566
651.488, 2528.145
652.795, 2472.680
654.101, 2427.172
655.407, 2441.623
656.712, 2306.035
658.018, 2440.405
659.323, 2264.736
660.628, 2519.027
661.933, 2213.281
663.238, 2237.499
664.542, 2331.679
665.847, 2225.822
667.151, 2219.930
668.455, 2224.005
669.758, 2188.045
671.062, 2205.611
672.365, 1857.329
673.668, 2108.737
674.971, 2219.820
676.274, 1910.345
677.577, 2047.688
678.879, 1942.590
680.181, 1954.769
681.483, 1814.541
682.785, 1949.575
684.086, 1795.281
685.388, 1835.374
686.689, 1852.985
687.990, 1733.126
689.290, 1537.670
690.591, 1759.530
691.891, 1510.931
693.192, 1671.409
694.491, 1675.494
695.791, 1785.596
697.091, 1632.489
698.390, 1396.192
699.689, 1135.439
700.988, 1448.092
702.287, 1200.929
703.586, 1097.518
704.884, 1266.453
706.182, 962.181
707.480, 1310.299
708.778, 1103.899
710.076, 911.716
711.373, 974.453
712.670, 1045.784
713.968, 893.029
715.264, 804.521
716.561, 797.099
717.857, 820.877
719.154, 614.678
720.450, 738.499
721.746, 572.343
723.041, 636.208
724.337, 680.097
725.632, 594.009
726.927, 627.945
728.222, 461.906
729.517, 615.892
730.811, 359.901
732.105, 653.938
733.400, 448.000
734.693, 452.088
735.987, 266.204
737.281, 220.347
738.574, 314.518
739.867, 338.716
741.160, 382.942
742.453, 227.199
743.745, 201.485
745.038, 135.802
746.330, 280.146
747.622, 24.522
748.913, 138.929
750.205, 203.367
751.496, 67.838
752.788, 252.340
754.079, 46.875
755.369, 151.443
756.660, 56.046
757.950, 170.682
759.241, 4.649
760.531, 19.948
761.820, 4.784
763.110, 75.971
764.399, 60.315
765.689, 90.854
766.978, 56.025
768.267, 1.171
769.555, 63.719
770.844, 72.456
772.132, 96.482
773.420, 88.617
774.708, 93.660
775.996, 78.744
777.283, 63.866
778.570, 59.029
779.857, 134.232
781.144, 119.478
782.431, 218.854
783.718, 125.041
785.004, 374.841
786.290, 308.288
787.576, 451.454
788.862, 530.449
790.147, 351.180
791.433, 546.875
792.718, 578.165
794.003, 418.123
795.288, 791.792
796.572, 778.153
797.857, 1018.248
799.141, 824.916
800.425, 900.675
801.709, 1116.462
802.992, 892.279
804.276, 1148.125
805.559, 1034.001
806.842, 1109.922
808.125, 1385.893
809.407, 1091.939
810.690, 1398.080
811.972, 1454.313
813.254, 1570.670
814.536, 1697.152
815.818, 1723.744
817.099, 1730.440
818.381, 1937.264
819.662, 2014.189
820.943, 2291.234
822.223, 2238.385
823.504, 2395.647
824.784, 2422.999
826.065, 2650.469
827.345, 2788.074
828.624, 3125.775
829.904, 3253.547
831.183, 3171.406
832.462, 3369.336
833.741, 3867.344
835.020, 3815.446
836.299, 3953.648
837.577, 4231.972
838.856, 4290.415
840.134, 4609.002
841.412, 5177.740
842.689, 5396.621
843.967, 5345.628
845.244, 5814.768
846.521, 6474.047
847.798, 6433.475
849.075, 7023.044
850.351, 7262.775
851.628, 7682.662
852.904, 8672.720
854.180, 8842.965
855.455, 9413.386
856.731, 10043.947
858.006, 10484.656
859.281, 11415.517
860.556, 11886.497
861.831, 12577.585
863.106, 13498.803
864.380, 14470.173
865.655, 14981.637
866.929, 15973.195
868.202, 16680.293
869.476, 17312.445
870.750, 18138.234
872.023, 18650.000
873.296, 19241.803
874.569, 20023.648
875.842, 20285.531
877.114, 21327.451
878.386, 20929.408
879.658, 21381.404
880.930, 21913.443
882.202, 21625.516
883.474, 21707.631
884.745, 21569.775
886.016, 21921.967
887.287, 21624.193
888.558, 21216.459
889.829, 21978.764
891.099, 20641.107
892.369, 20453.486
893.639, 19095.900
894.909, 18218.359
896.179, 17850.844
897.448, 16203.373
898.718, 15715.943
899.987, 14538.548
901.256, 13721.188
902.524, 12953.867
903.793, 11886.581
905.061, 10789.333
906.329, 10142.123
907.597, 8874.949
908.865, 8997.812
910.133, 7660.710
911.400, 7313.646
912.667, 6356.484
913.934, 5909.203
915.201, 5542.189
916.468, 4634.015
917.734, 4186.205
919.001, 3537.760
920.267, 3240.112
921.532, 2753.232
922.798, 2416.494
924.064, 1859.791
925.329, 1503.125
926.594, 1116.495
927.859, 1039.900
929.124, 693.342
930.388, 676.817
931.653, 250.329
932.917, 193.876
934.181, 192.542
935.445, 50.942
936.708, 525.556
937.972, 422.324
939.235, 249.309
940.498, 666.422
941.761, 373.879
943.024, 451.531
944.286, 539.416
945.548, 187.582
946.811, 415.849
948.072, 124.330
949.334, 12.883
950.596, 58.550
951.857, 449.998
953.118, 261.481
954.379, 693.000
955.640, 1014.553
956.901, 1396.141
958.161, 1789.638
959.421, 1984.052
960.681, 2805.232
961.941, 2839.741
963.201, 3464.650
964.460, 3905.949
965.720, 3958.309
966.979, 4796.771
968.238, 5343.881
969.496, 5646.297
970.755, 6143.057
972.013, 6505.477
973.272, 6870.805
974.529, 7169.395
975.787, 7422.547
977.045, 7624.947
978.302, 7656.096
979.560, 7497.584
980.817, 7832.001
982.073, 7540.826
983.330, 7402.990
984.587, 7495.176
985.843, 7557.379
987.099, 7289.600
988.355, 7151.840
989.611, 6914.098
990.866, 6956.371
992.122, 6748.660
993.377, 6700.968
994.632, 6513.289
995.887, 6215.627
997.141, 6247.980
998.396, 6140.346
999.650, 5762.728
1000.904, 5865.121
1002.158, 5647.527
1003.412, 5489.949
1004.665, 5502.379
1005.918, 5124.823
1007.172, 5287.277
1008.425, 5169.740
1009.677, 5452.215
1010.930, 5204.698
1012.182, 5307.189
1013.434, 5619.689
1014.687, 5532.199
1015.938, 5704.713
1017.190, 6417.236
1018.441, 5959.769
1019.693, 7042.305
1020.944, 6814.849
1022.195, 7157.400
1023.445, 7789.957
1024.696, 7712.521
1025.946, 8585.092
1027.197, 8647.671
1028.446, 8610.253
1029.696, 9602.845
1030.946, 9515.442
1032.195, 9898.047
1033.445, 10210.657
1034.694, 10213.275
1035.942, 10515.897
1037.191, 10568.528
1038.440, 10781.165
1039.688, 11213.808
1040.936, 10686.460
1042.184, 11089.113
1043.432, 10901.779
1044.679, 10524.448
1045.927, 10697.125
1047.174, 10419.804
1048.421, 10242.495
1049.668, 9465.190
1050.914, 9027.893
1052.161, 9340.600
1053.407, 8803.316
1054.653, 7766.037
1055.899, 8098.766
1057.145, 7291.500
1058.391, 6964.242
1059.636, 6486.988
1060.881, 6159.741
1062.126, 5952.502
1063.371, 5555.270
1064.615, 5238.047
1065.860, 5150.831
1067.104, 4783.629
1068.348, 4426.440
1069.592, 4409.267
1070.836, 4122.104
1072.079, 4114.951
1073.323, 4047.804
1074.566, 3670.664
1075.809, 4193.529
1077.052, 3696.401
1078.294, 4099.279
1079.537, 4072.166
1080.779, 3835.060
1082.021, 4027.958
1083.263, 3880.863
1084.504, 3769.688
1085.746, 3981.748
1086.987, 3510.242
1088.228, 3645.141
1089.469, 3290.369
1090.710, 3149.820
1091.951, 2797.585
1093.191, 2300.438
1094.431, 2247.751
1095.671, 1906.449
1096.911, 1401.487
1098.151, 1233.895
1099.390, 1132.632
1100.630, 614.856
1101.869, 538.087
1103.108, 481.343
1104.346, 164.681
1105.585, 268.078
1106.823, 11.502
1108.062, 5.031
1109.300, 121.531
1110.537, 178.093
1111.775, 184.676
1113.013, 291.340
1114.250, 308.138
1115.487, 245.045
1116.724, 222.074
1117.961, 309.177
1119.197, 216.438
1120.434, 273.805
1121.670, 231.290
1122.906, 248.891
1124.142, 156.616
1125.377, 144.404
1126.613, 292.266
1127.848, 130.271
1129.083, 8.343
1130.318, 86.417
1131.553, 315.472
1132.787, 107.391
1134.022, 169.339
1135.256, 461.317
1136.490, 413.326
1137.724, 855.365
1138.957, 827.437
1140.191, 1019.537
1141.424, 1321.670
1142.657, 1583.834
1143.890, 1886.031
1145.123, 2148.260
1146.355, 2370.521
1147.588, 3102.816
1148.820, 3385.145
1150.052, 3657.506
1151.284, 4609.902
1152.516, 4802.332
1153.747, 5584.795
1154.978, 6367.289
1156.209, 6919.815
1157.440, 7782.373
1158.671, 8264.962
1159.902, 9176.568
1161.132, 10320.228
1162.362, 10962.901
1163.592, 12145.606
1164.822, 13118.342
1166.052, 13621.107
1167.281, 15243.897
1168.511, 15656.719
1169.740, 16589.568
1170.969, 18052.449
1172.197, 18085.357
1173.426, 19398.291
1174.654, 19471.262
1175.883, 19984.254
1177.111, 20187.281
1178.338, 19980.328
1179.566, 20133.406
1180.794, 19886.514
1182.021, 19029.648
1183.248, 19512.818
1184.475, 18856.008
1185.702, 18159.225
1186.928, 18392.475
1188.155, 17935.746
1189.381, 17629.066
1190.607, 17662.410
1191.833, 17485.783
1193.059, 17499.180
1194.284, 17282.613
1195.509, 17176.070
1196.735, 17279.553
1197.960, 16713.064
1199.184, 17306.609
1200.409, 16800.172
1201.633, 16483.760
1202.858, 16477.377
1204.082, 16251.029
1205.306, 15674.712
1206.529, 15888.426
1207.753, 15082.172
1208.976, 14985.953
1210.199, 15049.761
1211.422, 14333.606
1212.645, 14827.484
1213.868, 14201.395
1215.090, 14105.339
1216.313, 14459.319
1217.535, 13973.333
1218.757, 14557.381
1219.978, 14281.465
1221.200, 14225.585
1222.421, 15199.741
1223.643, 15123.932
1224.864, 15608.157
1226.084, 16472.418
1227.305, 16036.715
1228.526, 17461.049
1229.746, 17905.412
1230.966, 17379.812
1232.186, 18904.316
1233.406, 18468.867
1234.625, 19393.609
1235.845, 20028.521
1237.064, 19743.555
1238.283, 20248.943
1239.502, 20384.373
1240.721, 20110.398
1241.939, 20726.219
1243.157, 20662.150
1244.376, 20069.389
1245.594, 20267.379
1246.811, 19524.309
1248.029, 19570.002
1249.247, 18936.389
1250.464, 18115.355
1251.681, 18169.363
1252.898, 17605.895
1254.115, 16590.656
1255.331, 16944.596
1256.548, 15412.439
1257.764, 15533.355
1258.980, 14920.147
1260.196, 13831.250
1261.411, 13739.526
1262.627, 13230.723
1263.842, 12601.866
1265.057, 12308.473
1266.272, 11882.125
1267.487, 11335.363
1268.702, 11407.704
1269.916, 10538.422
1271.130, 10668.165
1272.344, 10385.242
1273.558, 9823.659
1274.772, 10032.065
1275.986, 9637.387
1277.199, 9309.101
1278.412, 10106.851
1279.625, 9184.668
1280.838, 9412.562
1282.051, 10140.522
1283.263, 9328.559
1284.475, 9936.666
1285.687, 9714.849
1286.899, 10013.108
1288.111, 10391.441
1289.323, 10109.853
1290.534, 10188.342
1291.745, 10806.910
1292.957, 10805.556
1294.167, 11304.271
1295.378, 11243.063
1296.589, 11281.894
1297.799, 11980.653
1299.009, 11689.330
1300.219, 12037.970
1301.429, 12456.397
1302.639, 12124.627
1303.848, 12572.799
1305.057, 12890.824
1306.267, 12388.745
1307.476, 13016.601
1308.684, 12934.478
1309.893, 12552.320
1311.101, 12870.178
1312.310, 12448.048
1313.518, 12555.931
1314.725, 12693.823
1315.933, 12171.721
1317.141, 12349.612
1318.348, 12117.497
1319.555, 11795.359
1320.762, 11833.194
1321.969, 11240.992
1323.176, 11098.747
1324.382, 10816.474
1325.589, 10394.181
1326.795, 10151.884
1328.001, 9825.791
1329.206, 9467.303
1330.412, 9235.016
1331.617, 8812.728
1332.823, 8500.438
1334.028, 8290.932
1335.233, 7708.654
1336.437, 7516.393
1337.642, 7284.445
1338.846, 6562.230
1340.051, 6600.252
1341.255, 6117.846
1342.458, 5535.309
1343.662, 5752.791
1344.866, 5160.570
1346.069, 5046.867
1347.272, 4765.434
1348.475, 4364.073
1349.678, 4202.785
1350.880, 3841.568
1352.083, 3570.425
1353.285, 3589.354
1354.487, 3118.358
1355.689, 2797.436
1356.891, 2876.588
1358.093, 2375.815
1359.294, 2415.120
1360.495, 2114.500
1361.696, 1863.957
1362.897, 1893.487
1364.098, 1643.088
1365.298, 1422.750
1366.499, 1422.463
1367.699, 922.220
1368.899, 1101.982
1370.099, 1021.684
1371.298, 481.250
1372.498, 710.773
1373.697, 630.280
1374.896, 359.896
1376.095, 469.834
1377.294, 290.082
1378.493, 170.730
1379.691, 321.762
1380.889, 33.190
1382.087, 5.021
1383.285, 217.092
1384.483, 20.618
1385.681, 41.739
1386.878, 34.166
1388.075, 33.342
1389.272, 40.785
1390.469, 18.167
1391.666, 155.490
1392.862, 17.245
1394.059, 199.964
1395.255, 117.110
1396.451, 45.816
1397.647, 151.176
1398.842, 148.076
1400.038, 5.120
1401.233, 251.582
1402.428, 28.179
1403.623, 34.669
1404.818, 161.047
1406.013, 22.692
1407.207, 113.440
1408.401, 110.560
1409.595, 24.697
1410.789, 21.020
1411.983, 63.393
1413.177, 187.938
1414.370, 2.641
1415.563, 297.510
1416.756, 302.564
1417.949, 147.819
1419.142, 603.265
1420.335, 118.885
1421.527, 404.684
1422.719, 590.667
1423.911, 296.836
1425.103, 673.193
1426.295, 539.746
1427.486, 486.495
1428.677, 883.450
1429.869, 670.619
1431.060, 668.024
1432.250, 905.682
1433.441, 743.585
1434.632, 931.717
1435.822, 1019.726
1437.012, 968.446
1438.202, 1053.428
1439.392, 1097.421
1440.581, 1089.271
1441.771, 948.317
1442.960, 981.030
1444.149, 908.372
1445.338, 837.805
1446.527, 889.166
1447.715, 754.332
1448.904, 791.604
1450.092, 775.387
1451.280, 805.823
1452.468, 760.076
1453.656, 745.861
1454.843, 793.326
1456.031, 807.009
1457.218, 763.508
1458.405, 792.581
1459.592, 717.776
1460.778, 667.441
1461.965, 615.196
1463.151, 410.823
1464.337, 594.242
1465.523, 557.821
1466.709, 402.799
1467.895, 571.403
1469.080, 272.797
1470.266, 235.598
1471.451, 318.620
1472.636, 241.196
1473.821, 223.280
1475.005, 415.264
1476.190, 22.128
1477.374, 262.137
1478.558, 358.238
1479.742, 75.317
1480.926, 363.199
1482.109, 102.592
1483.293, 90.304
1484.476, 272.907
1485.659, 37.493
1486.842, 0.618
1488.025, 0.000
##END=



