##NAMES=Titanite
##RRUFFID=R050039
##IDEAL CHEMISTRY=CaTi^4+^SiO_5_
##LOCALITY=Kingman, Arizona, USA
##OWNER=RRUFF
##SOURCE=University of Arizona Mineral Museum
##DESCRIPTION=Black fragment from a single crystal
##STATUS=The identification of this mineral has been confirmed by X-ray diffraction and chemical analysis
##URL=rruff.info/R050039
##MEASURED CHEMISTRY=(Ca_0.95_Y_0.05_)(Ti_0.85_Al_0.10_Fe^3+^_0.06_)Si_1.00_O_4_(O_0.93_F_0.07_)
##PIN_ID=L00126
##ORIENTATION=Laser parallel to a* (1 0 0). Fiducial mark perpendicular to laser is parallel to b [0 1 0]
72.233, 0.000
73.628, 1.855
75.023, 99.021
76.418, 83.825
77.813, 87.996
79.208, 39.298
80.602, 156.482
81.996, 317.344
83.390, 480.760
84.784, 458.201
86.178, 550.902
87.571, 584.989
88.964, 719.009
90.357, 803.139
91.749, 897.547
93.142, 1032.348
94.534, 977.613
95.926, 735.453
97.318, 693.493
98.709, 690.871
100.101, 502.754
101.492, 428.789
102.883, 305.364
104.273, 401.438
105.664, 348.219
107.054, 405.664
108.444, 243.739
109.834, 342.418
111.223, 291.676
112.613, 331.495
114.002, 331.859
115.391, 222.737
116.780, 154.089
118.168, 15.886
119.556, 11.896
120.944, 149.283
122.332, 23.707
123.720, 12.945
125.107, 69.253
126.495, 85.232
127.882, 90.899
129.268, 16.269
130.655, 38.649
132.041, 16.153
133.427, 149.319
134.813, 165.058
136.199, 331.056
137.584, 457.306
138.970, 803.800
140.355, 790.529
141.740, 977.493
143.124, 904.692
144.509, 1032.131
145.893, 919.812
147.277, 907.746
148.660, 945.942
150.044, 634.402
151.427, 803.128
152.810, 562.123
154.193, 561.390
155.576, 590.868
156.958, 540.391
158.341, 599.978
159.723, 429.644
161.105, 499.398
162.486, 519.248
163.867, 389.195
165.249, 519.244
166.630, 459.396
168.010, 579.653
169.391, 450.012
170.771, 650.469
172.151, 601.027
173.531, 661.691
174.911, 682.461
176.290, 683.334
177.669, 854.313
179.049, 875.396
180.427, 796.517
181.806, 1017.729
183.184, 908.990
184.562, 1050.338
185.940, 1071.791
187.318, 1273.349
188.696, 1245.018
190.073, 1496.812
191.450, 1578.724
192.827, 1480.739
194.204, 2002.881
195.580, 1865.119
196.956, 2187.455
198.332, 2029.883
199.708, 2372.404
201.084, 2475.017
202.459, 2637.717
203.834, 2670.506
205.209, 2893.381
206.584, 3046.340
207.958, 3009.398
209.333, 3212.584
210.707, 3455.896
212.081, 3519.379
213.454, 3633.074
214.828, 3716.978
216.201, 4121.104
217.574, 4195.469
218.947, 4300.104
220.320, 4455.040
221.692, 4430.250
223.064, 4505.775
224.436, 4591.473
225.808, 4447.336
227.179, 4533.405
228.551, 4439.699
229.922, 4436.261
231.293, 4193.014
232.663, 4130.020
234.034, 3937.213
235.404, 3764.660
236.774, 3862.137
238.144, 3683.679
239.514, 3925.082
240.883, 3827.125
242.252, 3929.462
243.621, 3992.045
244.990, 3924.843
246.359, 4117.830
247.727, 4190.986
249.095, 4104.303
250.463, 4297.758
251.831, 4311.330
253.198, 4335.011
254.566, 4278.801
255.933, 4392.698
257.299, 4216.705
258.666, 4260.814
260.033, 4055.029
261.399, 3939.332
262.765, 3923.593
264.131, 3877.897
265.496, 3752.184
266.862, 3736.567
268.227, 3571.044
269.592, 3485.618
270.957, 3460.287
272.321, 3245.050
273.685, 3269.900
275.050, 3224.836
276.413, 2919.853
277.777, 3124.949
279.141, 2960.125
280.504, 2955.375
281.867, 2950.697
283.230, 2856.089
284.592, 2741.245
285.955, 2811.839
287.317, 2607.428
288.679, 2552.824
290.041, 2636.786
291.403, 2540.334
292.764, 2543.806
294.125, 2599.441
295.486, 2675.381
296.847, 2751.147
298.207, 2637.190
299.568, 2913.282
300.928, 2849.425
302.288, 2865.614
303.647, 3082.290
305.007, 3268.570
306.366, 3436.688
307.725, 3605.733
309.084, 3639.461
310.443, 3906.118
311.801, 3982.603
313.159, 4130.701
314.517, 4107.259
315.875, 4393.848
317.233, 4510.467
318.590, 4457.119
319.947, 4623.801
321.304, 4530.512
322.661, 4567.253
324.018, 4374.021
325.374, 4330.817
326.730, 4227.640
328.086, 4154.490
329.442, 4021.364
330.797, 3778.266
332.153, 3825.191
333.508, 3602.143
334.863, 3459.115
336.217, 3616.111
337.572, 3243.164
338.926, 3230.205
340.280, 3187.266
341.634, 3126.548
342.988, 3003.684
344.341, 3226.138
345.694, 3163.416
347.047, 3312.562
348.400, 3112.482
349.753, 3228.916
351.105, 3281.489
352.457, 3213.844
353.809, 3177.657
355.161, 3182.346
356.512, 3137.389
357.864, 3071.413
359.215, 3158.561
360.566, 3043.376
361.916, 3060.331
363.267, 3041.093
364.617, 2993.061
365.967, 3010.395
367.317, 2896.485
368.667, 2842.824
370.016, 2713.475
371.366, 2951.645
372.715, 2761.434
374.064, 2780.614
375.412, 2841.739
376.761, 2556.860
378.109, 2622.969
379.457, 2472.076
380.805, 2619.479
382.152, 2556.593
383.500, 2582.460
384.847, 2646.655
386.194, 2594.246
387.541, 2612.159
388.887, 2747.178
390.233, 2751.359
391.580, 2746.691
392.926, 2799.292
394.271, 2809.017
395.617, 2827.357
396.962, 2845.153
398.307, 2872.127
399.652, 2919.065
400.997, 2896.001
402.341, 2962.932
403.686, 2999.854
405.030, 3016.770
406.374, 3203.672
407.717, 3290.563
409.061, 3337.443
410.404, 3414.309
411.747, 3681.160
413.090, 3727.996
414.433, 3944.815
415.775, 3961.618
417.117, 4208.404
418.459, 3945.173
419.801, 4081.921
421.143, 4188.650
422.484, 3955.360
423.825, 3952.049
425.166, 3738.718
426.507, 3535.365
427.848, 3581.992
429.188, 3118.597
430.528, 3075.178
431.868, 2771.737
433.208, 2608.274
434.547, 2414.786
435.887, 2191.274
437.226, 2057.736
438.565, 1954.172
439.904, 1710.583
441.242, 1576.966
442.580, 1293.322
443.918, 1369.651
445.256, 945.952
446.594, 982.226
447.932, 788.491
449.269, 804.729
450.606, 680.936
451.943, 547.122
453.280, 463.286
454.616, 402.042
455.952, 285.548
457.288, 351.629
458.624, 327.681
459.960, 353.701
461.295, 179.687
462.631, 255.639
463.966, 31.557
465.300, 187.433
466.635, 3.275
467.969, 189.061
469.304, 144.810
470.638, 70.526
471.972, 246.204
473.305, 11.847
474.639, 177.435
475.972, 242.987
477.305, 348.507
478.638, 343.992
479.970, 319.442
481.303, 354.860
482.635, 550.244
483.967, 285.596
485.298, 460.913
486.630, 476.197
487.961, 321.448
489.293, 396.667
490.624, 431.852
491.954, 387.001
493.285, 262.117
494.615, 337.200
495.945, 262.245
497.275, 167.257
498.605, 202.232
499.935, 217.173
501.264, 22.078
502.593, 176.923
503.922, 28.269
505.251, 156.453
506.579, 31.136
507.908, 15.761
509.236, 87.680
510.564, 25.241
511.891, 20.892
513.219, 43.309
514.546, 56.464
515.873, 61.407
517.200, 44.458
518.527, 93.610
519.853, 55.889
521.180, 125.275
522.506, 113.806
523.832, 168.474
525.157, 94.310
526.483, 74.275
527.808, 237.356
529.133, 146.645
530.458, 107.087
531.783, 30.333
533.107, 123.309
534.431, 4.904
535.756, 58.959
537.079, 74.933
538.403, 123.024
539.727, 96.260
541.050, 92.126
542.373, 232.117
543.696, 46.809
545.018, 101.604
546.341, 107.529
547.663, 221.588
548.985, 49.842
550.307, 69.195
551.629, 202.663
552.950, 216.313
554.271, 29.150
555.592, 82.921
556.913, 242.948
558.234, 252.941
559.554, 452.898
560.875, 502.819
562.195, 722.705
563.514, 1032.557
564.834, 1112.374
566.154, 1532.154
567.473, 1611.900
568.792, 2061.613
570.111, 2321.291
571.429, 2350.934
572.748, 2770.542
574.066, 2770.116
575.384, 3039.658
576.702, 2869.164
578.019, 3228.639
579.337, 3228.080
580.654, 3157.486
581.971, 3336.861
583.288, 3346.202
584.605, 3205.512
585.921, 3354.788
587.237, 3334.031
588.553, 3283.244
589.869, 3422.424
591.185, 3511.572
592.500, 3503.590
593.815, 3571.035
595.130, 3428.828
596.445, 3617.853
597.760, 3356.847
599.074, 3405.810
600.389, 3434.741
601.703, 3523.644
603.016, 3562.518
604.330, 3561.361
605.644, 3660.174
606.957, 3578.960
608.270, 3667.717
609.583, 3696.443
610.895, 3635.143
612.208, 3703.813
613.520, 3642.456
614.832, 3891.072
616.144, 3849.658
617.455, 3548.220
618.767, 3816.754
620.078, 3735.260
621.389, 3663.739
622.700, 3851.753
624.011, 3640.182
625.321, 3766.803
626.631, 3715.201
627.941, 3903.660
629.251, 3731.901
630.561, 3790.453
631.870, 3827.514
633.180, 3596.219
634.489, 3695.057
635.798, 3733.986
637.106, 3552.988
638.415, 3902.096
639.723, 3641.250
641.031, 3550.484
642.339, 3579.777
643.647, 3689.096
644.954, 3538.395
646.261, 3557.673
647.568, 3396.929
648.875, 3646.166
650.182, 3445.383
651.488, 3504.578
652.795, 3303.753
654.101, 3362.908
655.407, 3332.009
656.712, 3271.126
658.018, 3300.223
659.323, 3187.100
660.628, 3306.125
661.933, 3192.343
663.238, 3008.719
664.542, 3055.738
665.847, 2931.985
667.151, 2861.718
668.455, 2865.314
669.758, 2709.130
671.062, 2791.488
672.365, 2678.923
673.668, 2554.102
674.971, 2556.253
676.274, 2495.281
677.577, 2476.641
678.879, 2413.613
680.181, 2251.277
681.483, 2145.486
682.785, 2080.870
684.086, 2234.416
685.388, 2004.254
686.689, 2039.778
687.990, 2137.784
689.290, 1834.170
690.591, 2161.165
691.891, 1776.213
693.192, 1987.263
694.491, 2107.321
695.791, 1674.378
697.091, 1883.134
698.390, 1692.172
699.689, 1494.653
700.988, 1626.436
702.287, 1677.716
703.586, 1655.692
704.884, 1335.104
706.182, 1401.735
707.480, 1316.362
708.778, 1297.348
710.076, 1338.986
711.373, 1392.438
712.670, 1283.738
713.968, 1267.427
715.264, 1158.794
716.561, 1087.879
717.857, 1096.980
719.154, 1006.102
720.450, 1065.239
721.746, 934.396
723.041, 923.573
724.337, 862.768
725.632, 801.982
726.927, 811.216
728.222, 730.469
729.517, 719.202
730.811, 673.285
732.105, 678.349
733.400, 597.684
734.693, 587.038
735.987, 586.414
737.281, 465.812
738.574, 415.230
739.867, 504.671
741.160, 484.133
742.453, 413.616
743.745, 403.123
745.038, 412.651
746.330, 442.203
747.622, 301.775
748.913, 311.373
750.205, 310.993
751.496, 200.637
752.788, 280.304
754.079, 109.994
755.369, 229.710
756.660, 139.448
757.950, 249.211
759.241, 88.999
760.531, 178.811
761.820, 58.648
763.110, 158.510
764.399, 188.396
765.689, 48.310
766.978, 18.248
768.267, 48.212
769.555, 148.201
770.844, 128.218
772.132, 98.259
773.420, 78.327
774.708, 208.422
775.996, 138.543
777.283, 168.691
778.570, 68.870
779.857, 210.657
781.144, 181.936
782.431, 200.646
783.718, 174.720
785.004, 272.758
786.290, 228.471
787.576, 388.607
788.862, 495.131
790.147, 301.377
791.433, 313.249
792.718, 443.306
794.003, 358.834
795.288, 512.180
796.572, 510.734
797.857, 661.112
799.141, 491.661
800.425, 542.205
801.709, 652.762
802.992, 503.331
804.276, 693.914
805.559, 594.509
806.842, 515.118
808.125, 795.740
809.407, 576.382
810.690, 657.037
811.972, 677.736
813.254, 918.499
814.536, 869.317
815.818, 950.206
817.099, 971.174
818.381, 1002.203
819.662, 1043.300
820.943, 1134.482
822.223, 1135.768
823.504, 1137.170
824.784, 1218.667
826.065, 1330.273
827.345, 1341.972
828.624, 1603.752
829.904, 1675.593
831.183, 1597.537
832.462, 1799.531
833.741, 2021.606
835.020, 2093.749
836.299, 2155.971
837.577, 2508.253
838.856, 2650.590
840.134, 2793.025
841.412, 3115.535
842.689, 3178.108
843.967, 3240.709
845.244, 3653.379
846.521, 3906.082
847.798, 3898.837
849.075, 4531.646
850.351, 4664.523
851.628, 5057.461
852.904, 5810.458
854.180, 5823.551
855.455, 6366.689
856.731, 6699.891
858.006, 7133.156
859.281, 7826.512
860.556, 8149.914
861.831, 8713.369
863.106, 9516.911
864.380, 10220.546
865.655, 10784.217
866.929, 11387.907
868.202, 12051.580
869.476, 12675.323
870.750, 13239.054
872.023, 13732.800
873.296, 14096.553
874.569, 14730.320
875.842, 15004.102
877.114, 15617.896
878.386, 15531.701
879.658, 15755.520
880.930, 16189.349
882.202, 16163.191
883.474, 16027.046
884.745, 15910.909
886.016, 16104.784
887.287, 15708.675
888.558, 15432.570
889.829, 15726.483
891.099, 14660.406
892.369, 14534.337
893.639, 13758.280
894.909, 13082.235
896.179, 12536.197
897.448, 11430.171
898.718, 10974.155
899.987, 10048.149
901.256, 9652.154
902.524, 8636.166
903.793, 7840.187
905.061, 7274.220
906.329, 6688.262
907.597, 5762.312
908.865, 5666.371
910.133, 4750.438
911.400, 4474.514
912.667, 3708.597
913.934, 3462.689
915.201, 3186.790
916.468, 2640.898
917.734, 2275.014
919.001, 1969.138
920.267, 1753.268
921.532, 1567.405
922.798, 1261.550
924.064, 885.703
925.329, 799.861
926.594, 484.025
927.859, 638.197
929.124, 252.375
930.388, 246.558
931.653, 15.746
932.917, 26.917
934.181, 249.926
935.445, 14.929
936.708, 394.970
937.972, 356.248
939.235, 265.744
940.498, 525.410
941.761, 360.385
943.024, 289.582
944.286, 418.963
945.548, 186.597
946.811, 310.360
948.072, 233.321
949.334, 102.438
950.596, 73.357
951.857, 218.155
953.118, 179.960
954.379, 441.772
955.640, 623.592
956.901, 945.420
958.161, 1047.253
959.421, 1149.095
960.681, 1581.098
961.941, 1632.953
963.201, 1940.516
964.460, 2393.064
965.720, 2440.748
966.979, 2894.426
968.238, 3204.373
969.496, 3256.364
970.755, 3656.951
972.013, 3910.966
973.272, 3942.513
974.529, 4101.322
975.787, 4285.410
977.045, 4460.930
978.302, 4231.857
979.560, 4199.768
980.817, 4353.840
982.073, 4134.811
983.330, 4146.686
984.587, 4100.617
985.843, 4182.479
987.099, 3884.336
988.355, 3816.188
989.611, 3668.029
990.866, 3539.866
992.122, 3441.696
993.377, 3503.518
994.632, 3295.332
995.887, 3257.138
997.141, 3268.936
998.396, 3160.725
999.650, 3022.507
1000.904, 2834.279
1002.158, 2706.043
1003.412, 2637.797
1004.665, 2689.543
1005.918, 2471.278
1007.172, 2513.004
1008.425, 2404.719
1009.677, 2526.424
1010.930, 2378.119
1012.182, 2469.803
1013.434, 2601.474
1014.687, 2583.135
1015.938, 2574.783
1017.190, 2846.419
1018.441, 2608.042
1019.693, 3019.655
1020.944, 2851.254
1022.195, 3172.842
1023.445, 3364.418
1024.696, 3345.980
1025.946, 3827.529
1027.197, 3679.067
1028.446, 3730.593
1029.696, 4172.107
1030.946, 3983.607
1032.195, 4355.096
1033.445, 4396.570
1034.694, 4318.034
1035.942, 4649.482
1037.191, 4500.920
1038.440, 4652.345
1039.688, 4813.756
1040.936, 4585.155
1042.184, 4746.543
1043.432, 4607.916
1044.679, 4439.277
1045.927, 4410.625
1047.174, 4281.961
1048.421, 4403.283
1049.668, 3894.592
1050.914, 3755.889
1052.161, 3907.172
1053.407, 3678.441
1054.653, 3229.698
1055.899, 3280.942
1057.145, 2932.175
1058.391, 2973.393
1059.636, 2664.598
1060.881, 2665.790
1062.126, 2536.969
1063.371, 2258.136
1064.615, 2429.290
1065.860, 2300.431
1067.104, 2151.560
1068.348, 2212.675
1069.592, 2213.777
1070.836, 2164.869
1072.079, 2275.947
1073.323, 2307.013
1074.566, 2168.066
1075.809, 2569.107
1077.052, 2450.137
1078.294, 2901.154
1079.537, 2852.159
1080.779, 2943.171
1082.021, 3022.590
1083.263, 3052.547
1084.504, 3145.143
1085.746, 3142.393
1086.987, 2895.738
1088.228, 3051.482
1089.469, 2802.865
1090.710, 2767.962
1091.951, 2473.399
1093.191, 2203.269
1094.431, 2155.027
1095.671, 1801.351
1096.911, 1519.908
1098.151, 1243.317
1099.390, 1084.935
1100.630, 746.458
1101.869, 638.055
1103.108, 579.671
1104.346, 361.347
1105.585, 403.031
1106.823, 212.727
1108.062, 161.435
1109.300, 16.149
1110.537, 36.861
1111.775, 76.420
1113.013, 155.753
1114.250, 78.181
1115.487, 173.659
1116.724, 114.242
1117.961, 146.897
1119.197, 124.640
1120.434, 179.459
1121.670, 140.384
1122.906, 256.392
1124.142, 181.546
1125.377, 204.805
1126.613, 132.181
1127.848, 84.634
1129.083, 24.141
1130.318, 134.670
1131.553, 164.725
1132.787, 23.873
1134.022, 87.511
1135.256, 308.902
1136.490, 249.305
1137.724, 409.716
1138.957, 620.137
1140.191, 700.567
1141.424, 781.010
1142.657, 1051.462
1143.890, 1271.924
1145.123, 1472.397
1146.355, 1712.881
1147.588, 2203.373
1148.820, 2293.875
1150.052, 2634.383
1151.284, 3244.898
1152.516, 3495.420
1153.747, 3955.946
1154.978, 4336.477
1156.209, 4927.012
1157.440, 5597.549
1158.671, 5988.092
1159.902, 6868.635
1161.132, 7269.186
1162.362, 7929.736
1163.592, 8660.293
1164.822, 9250.854
1166.052, 9721.416
1167.281, 10661.984
1168.511, 11172.552
1169.740, 11703.127
1170.969, 12443.704
1172.197, 12874.284
1173.426, 13474.865
1174.654, 13835.452
1175.883, 14146.039
1177.111, 14250.602
1178.338, 13917.223
1179.566, 14087.818
1180.794, 13678.413
1182.021, 13329.012
1183.248, 13319.610
1184.475, 12830.212
1185.702, 12380.815
1186.928, 12331.420
1188.155, 11862.026
1189.381, 11752.637
1190.607, 11393.248
1191.833, 11343.860
1193.059, 11214.475
1194.284, 10995.094
1195.509, 10875.713
1196.735, 10766.335
1197.960, 10496.961
1199.184, 10515.670
1200.409, 10358.223
1201.633, 10418.861
1202.858, 10239.509
1204.082, 10060.165
1205.306, 9700.820
1206.529, 9651.496
1207.753, 9412.184
1208.976, 9312.892
1210.199, 9043.617
1211.422, 8774.356
1212.645, 8855.112
1213.868, 8625.889
1215.090, 8386.680
1216.313, 8497.492
1217.535, 8168.323
1218.757, 8629.169
1219.978, 8200.036
1221.200, 8200.923
1222.421, 8571.819
1223.643, 8532.747
1224.864, 8743.677
1226.084, 9004.625
1227.305, 8849.535
1228.526, 9700.528
1229.746, 9652.092
1230.966, 9515.730
1232.186, 10147.141
1233.406, 9858.176
1234.625, 10401.771
1235.845, 10521.755
1237.064, 10382.661
1238.283, 10834.335
1239.502, 10835.206
1240.721, 10590.573
1241.939, 11016.411
1243.157, 10766.404
1244.376, 10588.132
1245.594, 10543.295
1246.811, 10179.113
1248.029, 10262.992
1249.247, 9718.131
1250.464, 9532.765
1251.681, 9466.106
1252.898, 9129.608
1254.115, 8673.778
1255.331, 8606.396
1256.548, 7938.879
1257.764, 7972.053
1258.980, 7689.034
1260.196, 7081.080
1261.411, 7027.998
1262.627, 6618.953
1263.842, 6313.669
1265.057, 6266.369
1266.272, 5970.506
1267.487, 5731.243
1268.702, 5724.479
1269.916, 5230.485
1271.130, 5481.242
1272.344, 5030.602
1273.558, 4884.581
1274.772, 5051.613
1275.986, 4682.512
1277.199, 4666.545
1278.412, 4989.711
1279.625, 4650.848
1280.838, 4864.090
1282.051, 5137.371
1283.263, 4670.691
1284.475, 5014.055
1285.687, 4927.457
1286.899, 5020.900
1288.111, 5194.387
1289.323, 5097.869
1290.534, 5231.388
1291.745, 5464.807
1292.957, 5588.020
1294.167, 5900.955
1295.378, 5723.695
1296.589, 5946.254
1297.799, 6228.618
1299.009, 6100.795
1300.219, 6372.795
1301.429, 6334.631
1302.639, 6396.426
1303.848, 6466.848
1305.057, 6689.992
1306.267, 6491.757
1307.476, 6773.506
1308.684, 6785.240
1309.893, 6586.955
1311.101, 6588.646
1312.310, 6590.310
1313.518, 6631.940
1314.725, 6553.533
1315.933, 6365.086
1317.141, 6476.586
1318.348, 6178.029
1319.555, 6209.406
1320.762, 6200.711
1321.969, 5741.943
1323.176, 5903.120
1324.382, 5584.254
1325.589, 5305.361
1326.795, 5226.451
1328.001, 4787.525
1329.206, 4858.581
1330.412, 4659.618
1331.617, 4400.637
1332.823, 4231.637
1334.028, 4112.625
1335.233, 3813.604
1336.437, 3744.585
1337.642, 3475.579
1338.846, 3226.594
1340.051, 3197.636
1341.255, 2858.715
1342.458, 2749.846
1343.662, 2721.089
1344.866, 2382.376
1346.069, 2343.775
1347.272, 2135.912
1348.475, 2007.625
1349.678, 1938.916
1350.880, 1583.041
1352.083, 1497.219
1353.285, 1551.448
1354.487, 1285.730
1355.689, 1180.066
1356.891, 1144.454
1358.093, 898.896
1359.294, 943.395
1360.495, 877.948
1361.696, 742.516
1362.897, 587.072
1364.098, 468.567
1365.298, 460.899
1366.499, 434.987
1367.699, 143.896
1368.899, 284.677
1370.099, 224.317
1371.298, 33.244
1372.498, 152.043
1373.697, 55.254
1374.896, 168.562
1376.095, 93.629
1377.294, 123.054
1378.493, 160.532
1379.691, 99.784
1380.889, 270.794
1382.087, 119.508
1383.285, 102.882
1384.483, 171.002
1385.681, 14.963
1386.878, 77.823
1388.075, 101.642
1389.272, 6.562
1390.469, 160.213
1391.666, 126.968
1392.862, 15.297
1394.059, 134.411
1395.255, 94.921
1396.451, 88.305
1397.647, 56.753
1398.842, 271.270
1400.038, 256.861
1401.233, 144.531
1402.428, 362.282
1403.623, 251.118
1404.818, 307.045
1406.013, 522.067
1407.207, 458.194
1408.401, 654.436
1409.595, 593.795
1410.789, 578.280
1411.983, 805.898
1413.177, 822.655
1414.370, 839.559
1415.563, 966.615
1416.756, 1103.827
1417.949, 1051.201
1419.142, 1288.740
1420.335, 1086.438
1421.527, 1344.298
1422.719, 1502.271
1423.911, 1270.340
1425.103, 1688.503
1426.295, 1566.761
1427.486, 1675.115
1428.677, 1983.571
1429.869, 1782.143
1431.060, 1910.832
1432.250, 2060.353
1433.441, 1947.809
1434.632, 2145.021
1435.822, 2177.736
1437.012, 1973.394
1438.202, 2189.433
1439.392, 2018.178
1440.581, 2014.549
1441.771, 2081.748
1442.960, 2002.608
1444.149, 2014.495
1445.338, 2145.537
1446.527, 1903.514
1447.715, 1949.357
1448.904, 1936.188
1450.092, 1812.478
1451.280, 2008.097
1452.468, 1802.969
1453.656, 1737.005
1454.843, 1750.106
1456.031, 1632.158
1457.218, 1593.025
1458.405, 1642.568
1459.592, 1380.621
1460.778, 1486.998
1461.965, 1261.484
1463.151, 1124.311
1464.337, 1187.487
1465.523, 1024.193
1466.709, 923.776
1467.895, 1046.629
1469.080, 832.006
1470.266, 747.229
1471.451, 782.170
1472.636, 616.874
1473.821, 521.513
1475.005, 586.362
1476.190, 351.866
1477.374, 508.720
1478.558, 307.819
1479.742, 107.146
1480.926, 332.002
1482.109, 77.262
1483.293, 94.586
1484.476, 259.823
1485.659, 5.323
1486.842, 28.515
1488.025, 13.588
1489.207, 3.524
1490.390, 170.957
1491.572, 0.000
##END=



