##NAMES=Titanite
##RRUFFID=R050114
##IDEAL CHEMISTRY=CaTi^4+^SiO_5_
##LOCALITY=Isthak Valley Iskardu, Northern Areas Gilgit, Pakistan
##OWNER=RRUFF
##SOURCE=Syed Shah
##DESCRIPTION=Yellowish-brown fragment
##STATUS=The identification of this mineral has been confirmed by X-ray diffraction and chemical analysis
##URL=rruff.info/R050114
##MEASURED CHEMISTRY=(Ca_0.99_Na_0.01_)(Ti_0.96_Al_0.03_Fe^3+^_0.01_)Si_1.00_O_4_(O_0.95_F_0.05_)
##PIN_ID=L00251
##ORIENTATION=Laser parallel to b* (0 1 0). Fiducial mark perpendicular to laser is parallel to -c [0 0 -1]
47.490, 0.000
48.899, 51.374
50.308, 59.102
51.717, 133.811
53.126, 170.252
54.534, 241.988
55.942, 287.511
57.350, 345.381
58.758, 375.363
60.165, 412.322
61.572, 501.507
62.979, 656.888
64.386, 647.736
65.792, 597.873
67.198, 489.369
68.604, 365.219
70.010, 271.334
71.415, 153.602
72.820, 62.959
74.225, 19.618
75.630, 71.187
77.034, 143.847
78.438, 167.717
79.842, 181.920
81.246, 141.584
82.649, 133.831
84.053, 49.779
85.455, 18.462
86.858, 196.787
88.260, 380.100
89.663, 645.308
91.065, 1020.295
92.466, 1409.935
93.868, 1894.180
95.269, 2392.118
96.670, 2900.915
98.070, 3371.680
99.471, 3883.385
100.871, 4467.892
102.271, 5239.060
103.670, 5714.771
105.070, 6086.922
106.469, 6739.419
107.868, 7124.181
109.267, 7624.137
110.665, 7975.223
112.063, 8497.381
113.461, 8610.559
114.859, 9254.714
116.256, 9539.800
117.653, 9725.780
119.050, 10102.619
120.447, 10460.284
121.843, 10718.745
123.240, 11207.977
124.636, 11457.955
126.031, 12178.654
127.427, 12340.054
128.822, 12372.137
130.217, 12564.881
131.612, 12368.181
133.006, 12361.756
134.400, 12255.580
135.794, 12239.624
137.188, 12264.045
138.581, 12469.347
139.975, 12646.104
141.368, 12848.209
142.760, 13096.341
144.153, 13380.477
145.545, 13697.070
146.937, 14025.721
148.329, 14495.834
149.720, 15316.673
151.112, 16357.508
152.503, 18208.262
153.893, 19858.973
155.284, 22379.648
156.674, 24410.312
158.064, 26790.986
159.454, 28051.697
160.843, 29062.439
162.233, 29063.234
163.622, 27824.096
165.011, 27195.033
166.399, 25396.064
167.787, 24147.186
169.175, 22488.418
170.563, 21619.764
171.951, 20891.227
173.338, 20442.814
174.725, 20454.541
176.112, 20066.406
177.499, 20228.416
178.885, 20310.576
180.271, 20422.887
181.657, 20305.357
183.043, 20527.988
184.428, 20400.775
185.813, 20363.725
187.198, 20416.842
188.583, 20600.441
189.967, 20513.574
191.351, 21287.189
192.735, 21650.979
194.119, 22294.945
195.502, 22519.090
196.885, 23383.402
198.268, 24167.900
199.651, 24842.580
201.033, 25757.434
202.415, 26602.479
203.797, 27827.707
205.179, 28223.123
206.561, 29018.725
207.942, 29294.518
209.323, 29840.504
210.703, 29786.680
212.084, 29703.053
213.464, 30119.617
214.844, 30287.641
216.224, 30375.551
217.603, 30393.301
218.983, 31270.885
220.362, 31758.297
221.741, 32345.514
223.119, 32572.439
224.497, 33040.766
225.875, 33165.238
227.253, 33491.172
228.631, 33495.129
230.008, 33348.469
231.385, 33147.480
232.762, 32695.037
234.139, 32493.893
235.515, 32300.545
236.891, 32495.773
238.267, 32143.961
239.643, 32961.711
241.018, 34222.016
242.393, 34859.922
243.768, 36970.641
245.143, 38165.621
246.517, 39896.500
247.891, 41071.883
249.265, 42318.711
250.639, 42031.031
252.012, 41773.164
253.386, 41095.660
254.759, 39768.512
256.131, 38441.707
257.504, 36205.242
258.876, 34089.102
260.248, 31453.287
261.620, 29167.787
262.991, 26852.588
264.363, 24527.693
265.734, 22743.092
267.104, 20978.770
268.475, 19724.725
269.845, 18190.945
271.215, 17317.432
272.585, 16654.174
273.955, 15801.172
275.324, 15408.416
276.693, 14755.904
278.062, 14623.630
279.431, 14301.589
280.799, 13919.780
282.167, 13918.201
283.535, 13646.844
284.903, 13495.708
286.270, 13214.790
287.638, 12774.084
289.005, 12483.591
290.371, 11843.309
291.738, 11363.230
293.104, 11103.355
294.470, 11343.684
295.836, 12054.213
297.201, 12894.936
298.567, 14085.854
299.932, 14936.972
301.296, 15868.287
302.661, 16369.797
304.025, 16551.504
305.389, 16773.389
306.753, 16925.457
308.117, 17297.689
309.480, 17280.084
310.843, 17792.617
312.206, 18005.293
313.569, 18418.104
314.931, 18291.041
316.293, 18274.109
317.655, 17837.314
319.017, 17340.650
320.378, 17234.121
321.740, 16857.723
323.101, 16701.471
324.461, 17095.350
325.822, 17639.367
327.182, 18113.521
328.542, 18747.820
329.902, 19292.260
331.261, 19466.838
332.621, 19542.096
333.980, 19368.766
335.339, 18991.420
336.697, 18406.568
338.056, 17561.859
339.414, 16597.295
340.772, 15432.870
342.129, 14308.595
343.487, 13164.466
344.844, 12420.479
346.201, 11396.641
347.557, 10752.949
348.914, 10019.403
350.270, 9556.006
351.626, 9222.754
352.982, 9189.650
354.337, 8906.696
355.693, 8613.892
357.048, 8491.235
358.402, 8268.728
359.757, 8136.370
361.111, 7694.162
362.465, 7542.105
363.819, 7170.195
365.173, 6758.440
366.526, 6456.833
367.879, 5995.376
369.232, 5584.072
370.585, 5002.921
371.937, 4291.919
373.290, 3791.071
374.642, 3230.374
375.993, 2702.830
377.345, 2227.438
378.696, 1679.244
380.047, 1359.249
381.398, 933.456
382.748, 689.864
384.099, 457.479
385.449, 283.298
386.799, 66.187
388.148, 73.479
389.497, 311.173
390.847, 479.854
392.196, 661.594
393.544, 957.471
394.893, 1108.620
396.241, 1299.109
397.589, 1433.036
398.936, 1577.464
400.284, 1643.464
401.631, 1656.061
402.978, 1566.257
404.325, 1539.995
405.672, 1456.258
407.018, 1346.994
408.364, 1077.149
409.710, 901.595
411.055, 528.267
412.401, 169.001
413.746, 379.342
415.091, 956.888
416.435, 1732.637
417.780, 2580.587
419.124, 3615.736
420.468, 4762.087
421.812, 5608.639
423.155, 6395.387
424.498, 6562.336
425.842, 6759.483
427.184, 6196.828
428.527, 5884.369
429.869, 5412.107
431.211, 5050.044
432.553, 4658.175
433.895, 4536.502
435.236, 4555.025
436.577, 4553.744
437.918, 4652.658
439.259, 4811.768
440.599, 4971.070
441.940, 5090.569
443.280, 5370.263
444.619, 5540.151
445.959, 5950.231
447.298, 6520.507
448.637, 6920.977
449.976, 7621.644
451.315, 8492.500
452.653, 9343.557
453.991, 10554.812
455.329, 12056.265
456.667, 13987.914
458.004, 16079.766
459.341, 18361.830
460.678, 21404.094
462.015, 24226.592
463.352, 27229.289
464.688, 29752.215
466.024, 31905.371
467.360, 32918.746
468.695, 32412.332
470.031, 30786.150
471.366, 27650.180
472.701, 23724.445
474.035, 20018.934
475.370, 16153.644
476.704, 13018.575
478.038, 10113.747
479.372, 7719.151
480.705, 6024.786
482.038, 4450.649
483.371, 3536.732
484.704, 2913.027
486.037, 2359.547
487.369, 2019.300
488.701, 1871.273
490.033, 1684.487
491.365, 1676.941
492.696, 1717.632
494.027, 1688.569
495.358, 1889.762
496.689, 2064.214
498.019, 2076.911
499.350, 2186.866
500.680, 2367.093
502.009, 2426.579
503.339, 2646.343
504.668, 2906.377
505.997, 2956.671
507.326, 3297.231
508.655, 3488.052
509.983, 3719.139
511.311, 4120.495
512.639, 4472.113
513.967, 4793.990
515.295, 5136.133
516.622, 5588.534
517.949, 5831.203
519.276, 6294.134
520.602, 7147.326
521.929, 7540.765
523.255, 8034.465
524.581, 8988.422
525.906, 9612.647
527.232, 10667.128
528.557, 11551.884
529.882, 12876.896
531.207, 13842.180
532.531, 15057.710
533.855, 15933.484
535.179, 17629.504
536.503, 18455.768
537.827, 19932.268
539.150, 20409.002
540.473, 21485.965
541.796, 21903.156
543.119, 22760.574
544.441, 23078.201
545.764, 23156.045
547.086, 23892.545
548.407, 23613.023
549.729, 23302.045
551.050, 22472.752
552.371, 22153.750
553.692, 20918.836
555.013, 19965.893
556.333, 18202.262
557.653, 17351.020
558.973, 16031.569
560.293, 14658.529
561.612, 13365.056
562.932, 11877.175
564.251, 10541.191
565.569, 9260.491
566.888, 7956.598
568.206, 7418.359
569.524, 6390.078
570.842, 6442.525
572.160, 6453.295
573.477, 6945.607
574.795, 7698.154
576.112, 8520.933
577.428, 10113.943
578.745, 11137.182
580.061, 12890.653
581.377, 14704.354
582.693, 16528.283
584.009, 18732.434
585.324, 20956.818
586.639, 22701.424
587.954, 25456.250
589.269, 27951.301
590.583, 30496.578
591.897, 33462.070
593.212, 36027.793
594.525, 38512.957
595.839, 40929.879
597.152, 43236.246
598.465, 45652.828
599.778, 47779.645
601.091, 48706.656
602.403, 49983.891
603.716, 50421.328
605.028, 51038.988
606.339, 51066.840
607.651, 50405.027
608.962, 49343.324
610.273, 48201.887
611.584, 46421.309
612.895, 44920.789
614.205, 43180.785
615.515, 41111.031
616.825, 39233.055
618.135, 37895.277
619.444, 35561.012
620.754, 34674.070
622.063, 32539.287
623.372, 30887.547
624.680, 29582.320
625.989, 27876.973
627.297, 26734.066
628.605, 25539.668
629.912, 24238.650
631.220, 23225.855
632.527, 21932.590
633.834, 21330.623
635.141, 20281.158
636.447, 19391.199
637.754, 18731.219
639.060, 17780.182
640.366, 16817.957
641.671, 16153.520
642.977, 15702.538
644.282, 14863.721
645.587, 14331.818
646.892, 13765.455
648.196, 13198.363
649.501, 12731.365
650.805, 12326.410
652.109, 11593.618
653.412, 11441.901
654.716, 10767.396
656.019, 10585.636
657.322, 10087.682
658.625, 9856.963
659.927, 9480.653
661.230, 9212.929
662.532, 8912.863
663.834, 8603.975
665.135, 8324.565
666.437, 7966.704
667.738, 7769.156
669.039, 7480.816
670.340, 7251.521
671.640, 6884.099
672.940, 6713.616
674.241, 6488.612
675.540, 6331.263
676.840, 6082.872
678.139, 5892.311
679.439, 5664.739
680.738, 5476.959
682.036, 5311.179
683.335, 5143.576
684.633, 5089.934
685.931, 4792.729
687.229, 4658.244
688.527, 4599.650
689.824, 4259.966
691.121, 4139.851
692.418, 3980.771
693.715, 3901.131
695.012, 3821.589
696.308, 3656.421
697.604, 3460.733
698.900, 3430.587
700.195, 3193.343
701.491, 3200.720
702.786, 3072.333
704.081, 2831.687
705.376, 2668.881
706.670, 2604.839
707.964, 2572.144
709.259, 2512.644
710.552, 2346.129
711.846, 2250.574
713.139, 2140.024
714.433, 2057.186
715.726, 1960.060
717.018, 1857.901
718.311, 1776.916
719.603, 1677.725
720.895, 1576.962
722.187, 1530.605
723.479, 1458.625
724.770, 1379.953
726.061, 1347.547
727.352, 1255.317
728.643, 1190.187
729.934, 1144.086
731.224, 1064.015
732.514, 989.649
733.804, 993.950
735.094, 851.955
736.383, 829.981
737.672, 832.029
738.961, 726.097
740.250, 681.182
741.539, 692.284
742.827, 632.400
744.115, 604.530
745.403, 502.672
746.691, 489.823
747.978, 445.983
749.265, 322.151
750.552, 406.324
751.839, 313.500
753.126, 251.679
754.412, 232.859
755.698, 211.038
756.984, 223.213
758.270, 108.384
759.555, 111.548
760.840, 73.702
762.125, 2.845
763.410, 24.973
764.695, 9.083
765.979, 49.826
767.263, 39.765
768.547, 58.734
769.831, 58.739
771.114, 119.781
772.398, 117.880
773.681, 198.038
774.964, 124.290
776.246, 169.601
777.529, 216.896
778.811, 142.060
780.093, 130.749
781.375, 167.363
782.656, 130.662
783.937, 181.102
785.219, 141.151
786.499, 123.453
787.780, 135.839
789.060, 169.149
790.341, 151.240
791.621, 141.444
792.901, 114.063
794.180, 84.690
795.459, 37.535
796.739, 87.550
798.017, 115.476
799.296, 53.882
800.575, 139.492
801.853, 118.326
803.131, 111.242
804.409, 137.507
805.686, 163.184
806.964, 171.144
808.241, 117.579
809.518, 152.424
810.795, 204.224
812.071, 151.399
813.347, 213.044
814.623, 182.092
815.899, 136.456
817.175, 147.022
818.450, 134.950
819.726, 143.032
821.001, 144.469
822.275, 124.151
823.550, 101.329
824.824, 123.657
826.098, 95.143
827.372, 120.004
828.646, 103.106
829.920, 79.446
831.193, 38.014
832.466, 78.793
833.739, 68.807
835.011, 94.055
836.284, 58.554
837.556, 115.288
838.828, 52.290
840.100, 89.531
841.371, 18.032
842.642, 5.240
843.914, 18.294
845.184, 7.135
846.455, 39.754
847.726, 83.164
848.996, 62.382
850.266, 79.395
851.536, 143.208
852.805, 153.843
854.075, 145.299
855.344, 204.572
856.613, 190.675
857.881, 279.604
859.150, 306.377
860.418, 306.996
861.686, 369.458
862.954, 466.770
864.222, 505.942
865.489, 544.975
866.756, 637.870
868.023, 694.631
869.290, 784.259
870.557, 877.750
871.823, 981.102
873.089, 1018.314
874.355, 1043.382
875.621, 1092.305
876.886, 1219.080
878.152, 1338.706
879.417, 1400.180
880.682, 1592.502
881.946, 1708.671
883.211, 1854.685
884.475, 1959.546
885.739, 2036.349
887.003, 2069.054
888.266, 2110.733
889.530, 2049.410
890.793, 1999.898
892.056, 1853.383
893.318, 1751.594
894.581, 1694.940
895.843, 1610.003
897.105, 1609.056
898.367, 1697.980
899.629, 1709.840
900.890, 1793.689
902.152, 1987.156
903.413, 2148.703
904.673, 2361.069
905.934, 2717.424
907.194, 3003.665
908.454, 3285.575
909.714, 3523.280
910.974, 3667.773
912.234, 3737.043
913.493, 3541.101
914.752, 3239.819
916.011, 2962.413
917.270, 2620.846
918.528, 2317.389
919.786, 2054.844
921.044, 1734.735
922.302, 1606.385
923.560, 1402.233
924.817, 1313.836
926.074, 1184.792
927.331, 1050.390
928.588, 1025.814
929.844, 964.081
931.101, 876.864
932.357, 857.788
933.613, 805.290
934.868, 810.300
936.124, 744.955
937.379, 760.392
938.634, 756.312
939.889, 730.956
941.144, 692.099
942.398, 685.742
943.652, 706.414
944.906, 691.151
946.160, 700.072
947.414, 709.350
948.667, 682.911
949.920, 716.435
951.173, 725.044
952.426, 725.119
953.678, 709.920
954.931, 726.515
956.183, 746.432
957.435, 747.070
958.686, 768.682
959.938, 788.078
961.189, 747.798
962.440, 750.705
963.691, 770.383
964.941, 791.593
966.192, 797.342
967.442, 782.400
968.692, 802.175
969.942, 773.379
971.191, 789.552
972.441, 778.193
973.690, 834.713
974.939, 800.019
976.187, 767.782
977.436, 817.576
978.684, 812.524
979.932, 770.922
981.180, 754.367
982.428, 770.996
983.675, 746.613
984.922, 754.415
986.169, 736.232
987.416, 730.823
988.663, 713.486
989.909, 692.698
991.155, 667.207
992.401, 658.807
993.647, 684.502
994.893, 704.671
996.138, 713.750
997.383, 729.400
998.628, 719.850
999.873, 764.863
1001.117, 785.333
1002.362, 819.075
1003.606, 894.804
1004.850, 970.885
1006.093, 1020.605
1007.337, 1085.670
1008.580, 1137.804
1009.823, 1157.133
1011.066, 1199.085
1012.308, 1203.912
1013.551, 1190.931
1014.793, 1171.161
1016.035, 1185.668
1017.277, 1181.777
1018.518, 1179.948
1019.760, 1182.023
1021.001, 1115.000
1022.242, 1090.882
1023.483, 1013.669
1024.723, 917.361
1025.964, 861.959
1027.204, 805.464
1028.444, 697.876
1029.683, 628.196
1030.923, 575.426
1032.162, 525.564
1033.401, 499.613
1034.640, 449.573
1035.879, 433.444
1037.117, 399.226
1038.355, 359.918
1039.593, 364.520
1040.831, 325.033
1042.069, 349.457
1043.306, 287.793
1044.544, 303.039
1045.781, 278.198
1047.017, 271.268
1048.254, 256.251
1049.490, 235.145
1050.726, 257.952
1051.962, 225.672
1053.198, 224.306
1054.434, 202.854
1055.669, 193.315
1056.904, 209.690
1058.139, 210.982
1059.374, 213.190
1060.608, 216.317
1061.843, 218.372
1063.077, 222.330
1064.311, 225.222
1065.544, 213.037
1066.778, 218.384
1068.011, 223.154
1069.244, 233.052
1070.477, 240.589
1071.710, 252.062
1072.942, 262.481
1074.174, 301.846
1075.406, 317.177
1076.638, 317.453
1077.870, 371.589
1079.101, 383.454
1080.332, 413.722
1081.563, 442.793
1082.794, 504.416
1084.025, 547.054
1085.255, 552.160
1086.485, 551.388
1087.715, 572.566
1088.945, 547.536
1090.175, 536.141
1091.404, 566.715
1092.633, 488.566
1093.862, 498.289
1095.091, 430.098
1096.319, 368.956
1097.548, 351.588
1098.776, 324.553
1100.004, 293.592
1101.231, 272.699
1102.459, 243.739
1103.686, 231.981
1104.913, 215.042
1106.140, 197.961
1107.367, 194.990
1108.593, 173.144
1109.819, 169.078
1111.046, 163.194
1112.271, 172.602
1113.497, 137.218
1114.722, 139.957
1115.948, 159.713
1117.173, 111.645
1118.398, 111.542
1119.622, 93.601
1120.847, 66.710
1122.071, 101.121
1123.295, 37.492
1124.519, 80.823
1125.742, 43.336
1126.966, 65.889
1128.189, 58.480
1129.412, 47.133
1130.635, 45.813
1131.857, 43.501
1133.080, 35.263
1134.302, 36.033
1135.524, 26.855
1136.746, 23.339
1137.967, 15.676
1139.188, 12.703
1140.410, 6.785
1141.631, 1.193
1142.851, 0.709
1144.072, 4.826
1145.292, 1.005
1146.512, 0.096
1147.732, 1.218
1148.952, 19.360
1150.172, 35.513
1151.391, 31.676
1152.610, 49.852
1153.829, 24.035
1155.048, 46.227
1156.266, 68.420
1157.484, 96.612
1158.702, 110.805
1159.920, 114.997
1161.138, 129.182
1162.356, 155.360
1163.573, 170.529
1164.790, 189.686
1166.007, 229.831
1167.224, 268.964
1168.440, 321.085
1169.656, 412.195
1170.872, 464.293
1172.088, 529.381
1173.304, 585.459
1174.519, 668.526
1175.735, 688.583
1176.950, 719.632
1178.165, 717.671
1179.379, 643.701
1180.594, 607.722
1181.808, 574.638
1183.022, 495.489
1184.236, 447.202
1185.449, 430.755
1186.663, 398.332
1187.876, 409.751
1189.089, 409.278
1190.302, 435.508
1191.515, 420.856
1192.727, 442.051
1193.939, 463.211
1195.151, 476.271
1196.363, 473.179
1197.575, 476.305
1198.786, 481.187
1199.997, 493.086
1201.208, 447.834
1202.419, 468.531
1203.630, 481.398
1204.840, 480.305
1206.051, 513.263
1207.261, 506.279
1208.470, 528.345
1209.680, 515.478
1210.889, 486.670
1212.099, 445.794
1213.308, 432.997
1214.516, 395.276
1215.725, 349.620
1216.933, 325.015
1218.142, 314.477
1219.350, 277.012
1220.557, 255.737
1221.765, 268.660
1222.972, 260.596
1224.180, 258.592
1225.387, 261.714
1226.593, 284.846
1227.800, 287.033
1229.006, 311.214
1230.213, 308.555
1231.419, 296.814
1232.624, 297.129
1233.830, 298.892
1235.035, 295.424
1236.241, 296.837
1237.446, 300.777
1238.650, 293.038
1239.855, 302.407
1241.059, 291.582
1242.264, 305.477
1243.468, 300.772
1244.671, 262.341
1245.875, 275.655
1247.078, 257.612
1248.282, 237.156
1249.485, 240.185
1250.687, 181.620
1251.890, 191.388
1253.092, 175.524
1254.295, 142.937
1255.497, 146.967
1256.699, 122.783
1257.900, 136.794
1259.102, 126.504
1260.303, 95.358
1261.504, 100.159
1262.705, 94.633
1263.905, 83.370
1265.106, 92.941
1266.306, 91.326
1267.506, 85.545
1268.706, 78.604
1269.905, 74.767
1271.105, 68.768
1272.304, 62.882
1273.503, 49.910
1274.702, 48.878
1275.900, 62.856
1277.099, 46.790
1278.297, 62.702
1279.495, 51.597
1280.693, 44.452
1281.891, 51.266
1283.088, 36.060
1284.285, 30.828
1285.482, 51.566
1286.679, 53.237
1287.876, 62.934
1289.072, 57.592
1290.268, 83.324
1291.464, 88.089
1292.660, 75.885
1293.856, 91.835
1295.051, 117.862
1296.247, 116.884
1297.442, 141.993
1298.637, 133.004
1299.831, 137.118
1301.026, 138.334
1302.220, 135.676
1303.414, 129.086
1304.608, 133.520
1305.802, 132.018
1306.995, 125.933
1308.188, 111.987
1309.381, 115.445
1310.574, 114.889
1311.767, 113.312
1312.960, 113.710
1314.152, 114.068
1315.344, 116.398
1316.536, 116.844
1317.728, 105.979
1318.919, 121.227
1320.110, 106.445
1321.301, 111.647
1322.492, 134.831
1323.683, 120.005
1324.874, 124.169
1326.064, 124.325
1327.254, 112.474
1328.444, 129.618
1329.634, 130.093
1330.823, 145.890
1332.013, 148.019
1333.202, 172.143
1334.391, 183.261
1335.580, 174.373
1336.768, 191.496
1337.956, 184.595
1339.145, 217.723
1340.333, 243.892
1341.520, 224.024
1342.708, 246.199
1343.895, 237.359
1345.083, 230.436
1346.270, 208.115
1347.456, 218.242
1348.643, 219.391
1349.829, 189.560
1351.016, 205.764
1352.202, 166.992
1353.387, 166.138
1354.573, 145.258
1355.759, 144.333
1356.944, 116.501
1358.129, 108.515
1359.314, 104.552
1360.498, 77.558
1361.683, 58.488
1362.867, 57.432
1364.051, 30.317
1365.235, 32.615
1366.419, 55.988
1367.602, 26.754
1368.785, 26.609
1369.968, 15.336
1371.151, 19.030
1372.334, 2.369
1373.517, 5.173
1374.699, 0.352
1375.881, 12.940
1377.063, 7.590
1378.245, 13.809
1379.426, 25.041
1380.608, 20.288
1381.789, 21.546
1382.970, 16.821
1384.150, 10.124
1385.331, 17.456
1386.511, 21.809
1387.691, 16.179
1388.871, 26.574
1390.051, 35.984
1391.231, 27.411
1392.410, 17.845
1393.589, 23.282
1394.768, 11.715
1395.947, 17.144
1397.126, 9.633
1398.304, 22.095
1399.483, 23.524
1400.661, 2.999
1401.838, 4.609
1403.016, 18.013
1404.194, 2.622
1405.371, 1.730
1406.548, 0.931
1407.725, 3.599
1408.901, 20.275
1410.078, 8.957
1411.254, 23.641
1412.430, 20.324
1413.606, 30.006
1414.782, 47.686
1415.958, 55.365
1417.133, 56.046
1418.308, 68.730
1419.483, 67.417
1420.658, 79.111
1421.832, 76.810
1423.007, 87.516
1424.181, 81.230
1425.355, 110.953
1426.529, 109.684
1427.702, 126.424
1428.876, 119.174
1430.049, 140.934
1431.222, 136.703
1432.395, 159.479
1433.567, 173.262
1434.740, 175.055
1435.912, 197.858
1437.084, 213.674
1438.256, 218.503
1439.428, 218.350
1440.599, 228.170
1441.770, 218.597
1442.942, 240.190
1444.112, 236.471
1445.283, 245.436
1446.454, 260.384
1447.624, 248.913
1448.794, 245.472
1449.964, 233.380
1451.134, 222.436
1452.303, 223.791
1453.473, 196.186
1454.642, 196.237
1455.811, 205.720
1456.980, 175.260
1458.148, 162.749
1459.317, 170.254
1460.485, 153.736
1461.653, 137.950
1462.821, 145.151
1463.989, 125.655
1465.156, 109.470
1466.323, 95.496
1467.490, 95.747
1468.657, 99.131
1469.824, 83.595
1470.991, 84.333
1472.157, 80.419
1473.323, 71.660
1474.489, 66.747
1475.655, 57.666
1476.820, 50.402
1477.986, 58.936
1479.151, 43.250
1480.316, 30.338
1481.481, 35.198
1482.645, 20.859
1483.810, 20.502
1484.974, 36.165
1486.138, 0.952
1487.302, 18.230
1488.465, 12.698
1489.629, 9.451
1490.792, 7.312
1491.955, 6.164
1493.118, 8.960
1494.281, 10.673
1495.443, 15.298
1496.606, 5.855
1497.768, 24.251
1498.930, 14.822
1500.091, 17.944
1501.253, 38.246
1502.414, 14.694
1503.575, 21.693
1504.736, 13.398
1505.897, 21.578
1507.058, 17.394
1508.218, 0.046
1509.379, 5.129
1510.539, 2.521
1511.698, 12.763
1512.858, 47.995
1514.018, 10.499
1515.177, 4.825
1516.336, 0.000
##END=



