##NAMES=Titanite
##RRUFFID=R050124
##IDEAL CHEMISTRY=CaTi^4+^SiO_5_
##LOCALITY=Capelinha, Minas Gerais, Brazil
##OWNER=RRUFF
##SOURCE=Carlos and Paulo Vasconcelos
##DESCRIPTION=Yellow tabular crystal
##STATUS=The identification of this mineral has been confirmed by X-ray diffraction and chemical analysis
##URL=rruff.info/R050124
##MEASURED CHEMISTRY=Ca_1.00_(Ti_0.93_Al_0.05_Fe^3+^_0.02_)Si_1.00_O_4_(O)_1.00_
##PIN_ID=M00259
##ORIENTATION=Laser parallel to c* (0 0 1). Fiducial mark perpendicular to laser is parallel to a [1 0 0]
148.691, 0.000
150.080, 2.979
151.469, 41.371
152.858, 23.137
154.247, 752.830
155.635, 1909.367
157.024, 3314.473
158.411, 4855.988
159.799, 5955.447
161.187, 7206.361
162.574, 7013.572
163.961, 6982.993
165.348, 5941.758
166.734, 5198.042
168.121, 4000.021
169.507, 2935.867
170.893, 2433.872
172.278, 1802.515
173.664, 1930.481
175.049, 1716.646
176.434, 2030.054
177.819, 2179.891
179.203, 2386.031
180.587, 2769.144
181.971, 2680.207
183.355, 2878.723
184.739, 2813.487
186.122, 2673.498
187.505, 2787.922
188.888, 2296.064
190.271, 2787.348
191.653, 2661.265
193.035, 3207.418
194.417, 3305.501
195.799, 3765.273
197.180, 4546.533
198.562, 4689.119
199.943, 5402.885
201.324, 5977.713
202.704, 6853.494
204.084, 7510.143
205.465, 7837.566
206.844, 8706.167
208.224, 8940.505
209.603, 9131.771
210.983, 8991.217
212.362, 9272.899
213.740, 9296.181
215.119, 9134.896
216.497, 9561.845
217.875, 9596.268
219.253, 10118.318
220.631, 10428.138
222.008, 10805.850
223.385, 11521.566
224.762, 11635.378
226.139, 12347.376
227.515, 12367.646
228.891, 12726.270
230.267, 12533.318
231.643, 12698.824
233.018, 12842.729
234.394, 12065.364
235.769, 12306.944
237.144, 11867.634
238.518, 11857.548
239.893, 12236.788
241.267, 12785.435
242.641, 14023.554
244.014, 15241.190
245.388, 16798.396
246.761, 18395.203
248.134, 20031.650
249.507, 21567.760
250.879, 22283.543
252.252, 23619.031
253.624, 23464.232
254.996, 23739.154
256.367, 23273.805
257.739, 22078.205
259.110, 20882.352
260.481, 18946.258
261.852, 16909.928
263.222, 14714.754
264.592, 12955.965
265.962, 11341.415
267.332, 9638.779
268.702, 8444.823
270.071, 7312.584
271.440, 6789.787
272.809, 6031.955
274.178, 5983.422
275.546, 5731.051
276.915, 5516.588
278.283, 5835.270
279.650, 5721.490
281.018, 5833.764
282.385, 5843.548
283.752, 5788.710
285.119, 6183.930
286.486, 6309.198
287.852, 6494.505
289.218, 6179.846
290.584, 6025.195
291.950, 5460.523
293.316, 4985.795
294.681, 4870.958
296.046, 4965.967
297.411, 5610.785
298.775, 6535.402
300.140, 7529.828
301.504, 8854.066
302.868, 9628.122
304.231, 10611.993
305.595, 10995.691
306.958, 11409.223
308.321, 11602.589
309.684, 12195.799
311.047, 12678.854
312.409, 13421.765
313.771, 14693.513
315.133, 15271.696
316.495, 16096.601
317.856, 16014.651
319.217, 15424.951
320.578, 14607.137
321.939, 13190.929
323.299, 12616.106
324.660, 12212.488
326.020, 11969.929
327.380, 12298.297
328.739, 12487.491
330.099, 13397.418
331.458, 13477.993
332.817, 14389.145
334.176, 14170.801
335.534, 13992.911
336.892, 13845.418
338.251, 12818.280
339.608, 12091.456
340.966, 11124.911
342.323, 9908.614
343.681, 9272.539
345.037, 8156.645
346.394, 7730.896
347.751, 6705.262
349.107, 6369.705
350.463, 5784.205
351.819, 5278.739
353.174, 5093.291
354.530, 4767.842
355.885, 4742.380
357.240, 4326.895
358.594, 4331.373
359.949, 4115.810
361.303, 3730.195
362.657, 3824.523
364.011, 3528.787
365.365, 3292.981
366.718, 2997.100
368.071, 2711.137
369.424, 2555.090
370.777, 2017.951
372.129, 1906.692
373.481, 1396.281
374.833, 1124.681
376.185, 722.836
377.537, 497.691
378.888, 33.211
380.239, 258.676
381.590, 386.038
382.941, 505.899
384.291, 506.287
385.642, 456.192
386.992, 433.596
388.341, 286.489
389.691, 513.825
391.040, 539.660
392.389, 738.994
393.738, 1053.877
395.087, 1149.387
396.435, 1367.542
397.784, 1479.397
399.132, 1569.978
400.479, 1534.307
401.827, 1529.373
403.174, 1489.172
404.521, 1287.694
405.868, 1204.885
407.215, 905.722
408.561, 591.125
409.908, 224.013
411.254, 384.713
412.599, 756.195
413.945, 1711.471
415.290, 2700.562
416.636, 3707.470
417.980, 5375.197
419.325, 6532.742
420.670, 8120.106
422.014, 9037.290
423.358, 9564.296
424.702, 9761.125
426.045, 8887.769
427.389, 8324.086
428.732, 7159.704
430.075, 6344.485
431.417, 5648.483
432.760, 5001.733
434.102, 4634.069
435.444, 4365.180
436.786, 4224.862
438.127, 4123.046
439.469, 3979.786
440.810, 4165.278
442.151, 3969.869
443.492, 4224.088
444.832, 4268.234
446.172, 4402.330
447.512, 4516.374
448.852, 4700.373
450.192, 5254.335
451.531, 5808.260
452.870, 6292.144
454.209, 7306.008
455.548, 8419.845
456.887, 9693.647
458.225, 11237.436
459.563, 13511.210
460.901, 15474.973
462.238, 17908.727
463.576, 20372.463
464.913, 23206.203
466.250, 25339.961
467.587, 26333.750
468.923, 26207.561
470.259, 24261.395
471.596, 21735.246
472.931, 18899.129
474.267, 15803.038
475.603, 13066.992
476.938, 10771.012
478.273, 8895.068
479.608, 7699.156
480.942, 6433.266
482.276, 5737.366
483.611, 5281.426
484.944, 4745.466
486.278, 4739.484
487.612, 4563.466
488.945, 4677.424
490.278, 4561.325
491.611, 4695.176
492.943, 4828.973
494.276, 4882.676
495.608, 4946.319
496.940, 4909.881
498.271, 4733.354
499.603, 5016.730
500.934, 4719.990
502.265, 4893.131
503.596, 4716.152
504.927, 4859.053
506.257, 4881.830
507.587, 4974.484
508.917, 5337.014
510.247, 5369.421
511.577, 5771.702
512.906, 6153.862
514.235, 6525.896
515.564, 6727.805
516.892, 7209.590
518.221, 7611.252
519.549, 7772.789
520.877, 8134.203
522.205, 8575.494
523.533, 8756.659
524.860, 9287.704
526.187, 9298.627
527.514, 9939.425
528.841, 10670.104
530.167, 10890.657
531.493, 11951.096
532.820, 12581.409
534.145, 13491.606
535.471, 14101.688
536.796, 15310.670
538.122, 16197.926
539.447, 16680.418
540.771, 17563.932
542.096, 18208.801
543.420, 18395.514
544.744, 19011.592
546.068, 18970.203
547.392, 19269.645
548.715, 19367.750
550.039, 18731.021
551.362, 18752.123
552.684, 18140.186
554.007, 17337.963
555.329, 16379.255
556.652, 15346.376
557.973, 14306.023
559.295, 13364.054
560.617, 12764.917
561.938, 11430.207
563.259, 10577.660
564.580, 9547.421
565.901, 8442.063
567.221, 7715.191
568.541, 6637.783
569.861, 6263.154
571.181, 6000.398
572.501, 5794.753
573.820, 6102.882
575.139, 6421.004
576.458, 7019.115
577.777, 7837.215
579.095, 8775.312
580.414, 9853.403
581.732, 10751.481
583.049, 12309.561
584.367, 13677.634
585.685, 15145.706
587.002, 17133.775
588.319, 18381.848
589.636, 20539.922
590.952, 22678.010
592.268, 25146.107
593.585, 27964.227
594.900, 29522.365
596.216, 32700.533
597.532, 35028.738
598.847, 37846.984
600.162, 40695.277
601.477, 42383.621
602.792, 45222.113
604.106, 47040.570
605.420, 48309.078
606.734, 50388.406
608.048, 49939.281
609.361, 50999.973
610.675, 50180.008
611.988, 50164.758
613.301, 49787.281
614.614, 46899.422
615.926, 46884.926
617.238, 45200.152
618.550, 42615.898
619.862, 42352.047
621.174, 39225.918
622.485, 38285.422
623.797, 36118.379
625.108, 34992.414
626.418, 33493.820
627.729, 31376.498
629.039, 30429.426
630.349, 28492.516
631.659, 27005.717
632.969, 26449.295
634.279, 24444.219
635.588, 23908.010
636.897, 22505.955
638.206, 21343.215
639.515, 20516.068
640.823, 19402.217
642.131, 18836.125
643.439, 17780.635
644.747, 17142.449
646.055, 16868.369
647.362, 15777.841
648.669, 15449.435
649.976, 14601.138
651.283, 14134.250
652.589, 13785.691
653.896, 13152.555
655.202, 13008.231
656.508, 12292.610
657.814, 12133.767
659.119, 11455.256
660.424, 10976.490
661.729, 10867.760
663.034, 10369.072
664.339, 10080.423
665.643, 9731.811
666.947, 9373.237
668.251, 9154.706
669.555, 8736.210
670.859, 8457.761
672.162, 8359.346
673.465, 7890.973
674.768, 7812.642
676.071, 7524.353
677.373, 7146.107
678.676, 6887.902
679.978, 6639.741
681.280, 6541.623
682.581, 6193.547
683.883, 6075.516
685.184, 5897.529
686.485, 5459.587
687.786, 5681.689
689.087, 5103.838
690.387, 5186.031
691.687, 5038.270
692.987, 4600.557
694.287, 4682.895
695.586, 4345.295
696.886, 4171.833
698.185, 4244.591
699.484, 3799.604
700.783, 3864.904
702.081, 3595.497
703.379, 3431.368
704.677, 3451.516
705.975, 3080.903
707.273, 3106.592
708.570, 2813.592
709.868, 2894.956
711.165, 2713.770
712.462, 2500.060
713.758, 2542.884
715.055, 2270.274
716.351, 2284.257
717.647, 2181.821
718.943, 1950.970
720.238, 2017.692
721.533, 1860.936
722.829, 1856.681
724.124, 1776.848
725.418, 1658.357
726.713, 1693.112
728.007, 1409.970
729.301, 1434.894
730.595, 1403.863
731.889, 1274.877
733.182, 1215.937
734.476, 1109.040
735.769, 984.186
737.061, 1021.376
738.354, 832.610
739.647, 906.887
740.939, 719.207
742.231, 628.570
743.523, 724.977
744.814, 609.426
746.106, 610.918
747.397, 403.452
748.688, 374.029
749.978, 422.649
751.269, 304.310
752.559, 299.013
753.849, 169.755
755.139, 144.538
756.429, 116.361
757.719, 11.222
759.008, 91.116
760.297, 49.049
761.586, 33.982
762.875, 87.991
764.163, 78.994
765.451, 52.990
766.739, 174.973
768.027, 118.988
769.315, 105.014
770.602, 179.049
771.890, 169.123
773.177, 176.236
774.463, 179.392
775.750, 127.490
777.036, 231.073
778.323, 284.230
779.609, 296.360
780.894, 249.087
782.180, 264.262
783.465, 262.775
784.750, 259.997
786.035, 254.145
787.320, 253.496
788.605, 267.648
789.889, 240.851
791.173, 299.428
792.457, 279.254
793.741, 200.848
795.024, 83.113
796.307, 199.782
797.591, 201.403
798.873, 151.517
800.156, 210.933
801.439, 103.279
802.721, 132.317
804.003, 129.906
805.285, 13.804
806.566, 117.953
807.848, 41.491
809.129, 19.140
810.410, 4.876
811.691, 179.969
812.971, 109.739
814.252, 258.352
815.532, 240.823
816.812, 261.024
818.092, 266.162
819.371, 242.235
820.651, 315.305
821.930, 272.369
823.209, 332.428
824.488, 450.481
825.766, 398.527
827.045, 400.564
828.323, 434.594
829.601, 451.615
830.878, 533.628
832.156, 524.633
833.433, 639.628
834.710, 698.612
835.987, 653.583
837.264, 748.542
838.540, 854.486
839.817, 1002.418
841.093, 1090.337
842.369, 1212.243
843.644, 1360.133
844.920, 1380.006
846.195, 1609.861
847.470, 1819.699
848.745, 1855.518
850.020, 2185.317
851.294, 2258.095
852.568, 2401.851
853.842, 2707.583
855.116, 2760.290
856.390, 2928.968
857.663, 3046.618
858.936, 3054.236
860.209, 3184.823
861.482, 3206.374
862.755, 3287.888
864.027, 3468.364
865.299, 3552.796
866.571, 3984.186
867.843, 3969.527
869.115, 4273.817
870.386, 4356.053
871.657, 4246.233
872.928, 4137.354
874.199, 3843.412
875.470, 3431.405
876.740, 3059.331
878.010, 2613.186
879.280, 2380.970
880.550, 2079.680
881.820, 1810.317
883.089, 1810.879
884.358, 1561.365
885.627, 1487.776
886.896, 1374.110
888.164, 1216.367
889.433, 1236.546
890.701, 1050.732
891.969, 1040.979
893.236, 995.180
894.504, 901.512
895.771, 949.717
897.038, 1000.981
898.305, 996.273
899.572, 1171.402
900.838, 1212.830
902.105, 1474.083
903.371, 1707.353
904.637, 1926.532
905.902, 2536.477
907.168, 2843.470
908.433, 3354.632
909.698, 3702.396
910.963, 3984.163
912.228, 4257.985
913.492, 4054.661
914.757, 3913.487
916.021, 3468.580
917.285, 2987.800
918.548, 2625.648
919.812, 2197.558
921.075, 1689.712
922.338, 1443.247
923.601, 1083.284
924.864, 904.525
926.126, 771.102
927.388, 620.478
928.650, 490.150
929.912, 387.906
931.174, 295.926
932.435, 260.490
933.697, 189.302
934.958, 156.627
936.218, 165.571
937.479, 17.453
938.739, 50.938
940.000, 15.057
941.260, 39.248
942.520, 9.554
943.779, 63.959
945.039, 45.850
946.298, 90.309
947.557, 55.212
948.816, 47.832
950.074, 32.143
951.333, 1.860
952.591, 21.245
953.849, 28.919
955.107, 57.464
956.365, 40.650
957.622, 128.508
958.879, 104.854
960.136, 173.626
961.393, 215.154
962.650, 191.409
963.906, 264.268
965.162, 304.667
966.418, 339.100
967.674, 406.541
968.930, 421.762
970.185, 486.175
971.441, 543.606
972.696, 611.664
973.950, 660.573
975.205, 689.533
976.459, 776.161
977.714, 830.790
978.968, 865.451
980.222, 952.028
981.475, 1044.672
982.729, 1141.381
983.982, 1253.820
985.235, 1356.967
986.488, 1474.953
987.740, 1572.804
988.993, 1623.627
990.245, 1850.726
991.497, 1861.867
992.749, 1951.766
994.000, 1948.286
995.252, 1874.670
996.503, 1852.906
997.754, 1756.127
999.005, 1674.270
1000.256, 1623.248
1001.506, 1541.116
1002.756, 1531.897
1004.006, 1466.623
1005.256, 1430.218
1006.506, 1508.719
1007.755, 1510.185
1009.005, 1555.487
1010.254, 1549.671
1011.502, 1508.678
1012.751, 1532.529
1014.000, 1503.271
1015.248, 1489.788
1016.496, 1493.174
1017.744, 1334.397
1018.991, 1412.584
1020.239, 1394.647
1021.486, 1282.632
1022.733, 1294.537
1023.980, 1155.364
1025.227, 1076.112
1026.473, 1043.782
1027.719, 945.373
1028.965, 808.886
1030.211, 772.322
1031.457, 663.680
1032.702, 678.960
1033.948, 589.163
1035.193, 509.290
1036.438, 491.340
1037.682, 451.313
1038.927, 438.211
1040.171, 416.033
1041.415, 381.778
1042.659, 372.447
1043.903, 321.038
1045.146, 330.550
1046.390, 295.985
1047.633, 268.341
1048.876, 286.617
1050.118, 193.815
1051.361, 213.932
1052.603, 188.968
1053.845, 188.923
1055.087, 222.799
1056.329, 189.595
1057.571, 153.312
1058.812, 199.947
1060.053, 164.504
1061.294, 157.983
1062.535, 163.382
1063.775, 160.703
1065.016, 183.952
1066.256, 186.138
1067.496, 184.261
1068.736, 228.318
1069.975, 212.332
1071.214, 203.294
1072.454, 225.200
1073.693, 230.068
1074.931, 255.898
1076.170, 197.692
1077.408, 182.347
1078.647, 238.413
1079.885, 198.960
1081.122, 223.369
1082.360, 209.258
1083.597, 240.493
1084.835, 250.957
1086.072, 210.021
1087.308, 246.902
1088.545, 219.002
1089.781, 208.542
1091.018, 204.141
1092.254, 160.005
1093.490, 165.989
1094.725, 125.614
1095.961, 121.803
1097.196, 79.317
1098.431, 70.675
1099.666, 63.413
1100.900, 56.350
1102.135, 17.097
1103.369, 6.443
1104.603, 30.235
1105.837, 6.627
1107.071, 23.422
1108.304, 24.105
1109.538, 35.609
1110.771, 23.137
1112.004, 11.261
1113.236, 33.392
1114.469, 0.579
1115.701, 32.365
1116.933, 3.903
1118.165, 10.823
1119.397, 14.538
1120.629, 2.306
1121.860, 1.875
1123.091, 5.995
1124.322, 18.083
1125.553, 4.114
1126.783, 3.905
1128.014, 3.974
1129.244, 10.753
1130.474, 16.261
1131.704, 9.481
1132.933, 1.249
1134.163, 12.931
1135.392, 25.568
1136.621, 12.160
1137.850, 13.294
1139.079, 17.796
1140.307, 12.347
1141.535, 4.054
1142.763, 16.411
1143.991, 31.725
1145.219, 14.996
1146.446, 13.225
1147.674, 32.411
1148.901, 38.556
1150.128, 38.660
1151.354, 31.724
1152.581, 42.747
1153.807, 44.731
1155.033, 32.675
1156.259, 51.580
1157.485, 59.447
1158.710, 81.276
1159.936, 98.169
1161.161, 103.827
1162.386, 137.550
1163.611, 148.239
1164.835, 167.896
1166.060, 155.521
1167.284, 185.114
1168.508, 224.677
1169.732, 231.208
1170.955, 296.709
1172.179, 360.179
1173.402, 386.620
1174.625, 413.031
1175.848, 558.412
1177.070, 573.764
1178.293, 664.088
1179.515, 649.383
1180.737, 649.650
1181.959, 612.888
1183.181, 557.100
1184.402, 495.284
1185.624, 435.440
1186.845, 373.570
1188.066, 329.589
1189.286, 346.442
1190.507, 311.236
1191.727, 339.795
1192.947, 301.374
1194.167, 345.789
1195.387, 375.070
1196.607, 330.409
1197.826, 329.345
1199.045, 344.347
1200.264, 297.228
1201.483, 326.093
1202.702, 327.083
1203.920, 319.919
1205.138, 344.478
1206.356, 317.327
1207.574, 338.964
1208.792, 345.539
1210.009, 326.152
1211.227, 374.738
1212.444, 388.455
1213.661, 341.169
1214.877, 339.864
1216.094, 342.731
1217.310, 339.520
1218.526, 318.260
1219.742, 274.139
1220.958, 313.023
1222.173, 293.051
1223.389, 252.854
1224.604, 287.563
1225.819, 270.590
1227.034, 322.444
1228.248, 334.365
1229.463, 343.860
1230.677, 355.932
1231.891, 364.951
1233.105, 374.902
1234.318, 380.105
1235.532, 374.161
1236.745, 373.585
1237.958, 458.289
1239.171, 457.068
1240.384, 464.388
1241.596, 473.255
1242.809, 485.013
1244.021, 503.294
1245.233, 495.149
1246.444, 519.799
1247.656, 526.513
1248.867, 487.095
1250.079, 467.201
1251.290, 426.394
1252.500, 411.301
1253.711, 399.518
1254.921, 376.840
1256.132, 337.891
1257.342, 317.530
1258.552, 262.476
1259.761, 262.511
1260.971, 200.465
1262.180, 207.592
1263.389, 217.726
1264.598, 175.521
1265.807, 201.639
1267.015, 179.533
1268.223, 170.469
1269.432, 169.278
1270.640, 165.328
1271.847, 153.287
1273.055, 141.139
1274.262, 148.922
1275.470, 108.618
1276.677, 107.079
1277.883, 144.702
1279.090, 121.590
1280.296, 138.539
1281.503, 112.471
1282.709, 113.404
1283.915, 122.945
1285.120, 97.342
1286.326, 133.954
1287.531, 142.738
1288.736, 153.593
1289.941, 164.475
1291.146, 170.593
1292.350, 184.182
1293.555, 187.046
1294.759, 202.903
1295.963, 220.786
1297.167, 238.609
1298.370, 235.476
1299.574, 250.362
1300.777, 236.180
1301.980, 277.074
1303.183, 248.995
1304.386, 269.999
1305.588, 258.061
1306.790, 235.134
1307.993, 261.336
1309.195, 274.572
1310.396, 271.529
1311.598, 290.099
1312.799, 288.351
1314.000, 292.586
1315.201, 316.796
1316.402, 281.989
1317.603, 280.153
1318.803, 308.289
1320.003, 284.410
1321.203, 289.517
1322.403, 282.617
1323.603, 240.693
1324.802, 254.755
1326.002, 252.805
1327.201, 217.842
1328.400, 227.866
1329.599, 218.876
1330.797, 190.874
1331.995, 188.865
1333.194, 161.858
1334.392, 182.816
1335.589, 184.834
1336.787, 120.769
1337.985, 156.693
1339.182, 178.638
1340.379, 142.539
1341.576, 178.076
1342.772, 147.956
1343.969, 136.831
1345.165, 173.761
1346.361, 132.654
1347.557, 120.498
1348.753, 137.334
1349.949, 115.164
1351.144, 136.043
1352.339, 120.860
1353.534, 102.671
1354.729, 125.532
1355.924, 91.330
1357.118, 118.119
1358.312, 89.901
1359.506, 64.653
1360.700, 80.405
1361.894, 72.137
1363.088, 47.860
1364.281, 48.572
1365.474, 37.309
1366.667, 29.997
1367.860, 34.717
1369.052, 12.384
1370.245, 13.041
1371.437, 21.725
1372.629, 13.644
1373.821, 8.974
1375.013, 4.259
1376.204, 14.855
1377.395, 12.437
1378.586, 19.282
1379.777, 5.011
1380.968, 9.750
1382.159, 13.505
1383.349, 0.724
1384.539, 14.059
1385.729, 9.852
1386.919, 20.659
1388.109, 12.456
1389.298, 7.262
1390.487, 8.066
1391.676, 8.861
1392.865, 1.347
1394.054, 16.444
1395.242, 6.233
1396.431, 6.019
1397.619, 7.200
1398.807, 4.570
1399.995, 22.336
1401.182, 0.100
1402.370, 17.853
1403.557, 23.405
1404.744, 0.333
1405.931, 2.933
1407.118, 5.205
1408.304, 4.519
1409.490, 18.762
1410.676, 23.049
1411.862, 19.339
1413.048, 19.631
1414.234, 19.921
1415.419, 16.208
1416.604, 31.492
1417.789, 14.773
1418.974, 34.053
1420.159, 38.334
1421.343, 23.615
1422.528, 25.897
1423.712, 41.181
1424.896, 26.469
1426.079, 32.760
1427.263, 36.055
1428.446, 21.355
1429.629, 49.661
1430.812, 43.966
1431.995, 52.278
1433.178, 38.597
1434.360, 41.926
1435.543, 55.265
1436.725, 63.614
1437.907, 55.976
1439.088, 65.350
1440.270, 66.740
1441.451, 59.939
1442.632, 70.539
1443.813, 72.767
1444.994, 75.515
1446.175, 83.998
1447.355, 69.909
1448.535, 100.648
1449.715, 93.696
1450.895, 68.667
1452.075, 77.500
1453.255, 62.954
1454.434, 61.241
1455.613, 90.063
1456.792, 52.935
1457.971, 68.881
1459.149, 62.409
1460.328, 52.744
1461.506, 50.898
1462.684, 43.021
1463.862, 36.252
1465.040, 44.750
1466.217, 48.123
1467.395, 48.489
1468.572, 55.765
1469.749, 59.091
1470.925, 45.368
1472.102, 44.425
1473.278, 34.321
1474.455, 30.564
1475.631, 45.633
1476.807, 17.642
1477.982, 45.805
1479.158, 46.923
1480.333, 24.847
1481.508, 55.688
1482.683, 5.530
1483.858, 48.244
1485.033, 28.023
1486.207, 11.920
1487.381, 17.873
1488.555, 43.941
1489.729, 35.201
1490.903, 41.426
1492.076, 12.719
1493.250, 31.997
1494.423, 47.263
1495.596, 11.483
1496.769, 30.614
1497.941, 36.387
1499.114, 29.414
1500.286, 31.266
1501.458, 17.351
1502.630, 24.290
1503.802, 41.168
1504.973, 35.733
1506.145, 8.918
1507.316, 34.556
1508.487, 5.728
1509.657, 37.263
1510.828, 37.964
1511.999, 6.778
1513.169, 18.104
1514.339, 30.445
1515.509, 0.178
1516.678, 0.000
##END=



