##NAMES=Titanite
##RRUFFID=R050039
##IDEAL CHEMISTRY=CaTi^4+^SiO_5_
##LOCALITY=Kingman, Arizona, USA
##OWNER=RRUFF
##SOURCE=University of Arizona Mineral Museum
##DESCRIPTION=Black fragment from a single crystal
##STATUS=The identification of this mineral has been confirmed by X-ray diffraction and chemical analysis
##URL=rruff.info/R050039
##MEASURED CHEMISTRY=(Ca_0.95_Y_0.05_)(Ti_0.85_Al_0.10_Fe^3+^_0.06_)Si_1.00_O_4_(O_0.93_F_0.07_)
##PIN_ID=L00539
##ORIENTATION=Laser parallel to c* (0 0 1). Fiducial mark perpendicular to laser is parallel to a [1 0 0]
99.023, 0.000
100.418, 12.395
101.812, 35.525
103.206, 39.938
104.600, 9.740
105.994, 12.256
107.387, 126.994
108.781, 118.086
110.174, 270.953
111.566, 402.289
112.959, 269.471
114.351, 670.348
115.744, 233.125
117.136, 536.289
118.527, 358.648
119.919, 419.527
121.310, 58.309
122.701, 254.297
124.092, 76.805
125.482, 115.191
126.873, 448.879
128.263, 47.336
129.653, 360.102
131.042, 566.758
132.432, 456.941
133.821, 470.324
135.210, 726.605
136.599, 935.809
137.987, 868.797
139.376, 1395.992
140.764, 1236.906
142.152, 1561.004
143.539, 2077.836
144.927, 2227.051
146.314, 2618.352
147.701, 2971.496
149.088, 3616.270
150.474, 3874.488
151.861, 4410.023
153.247, 4558.715
154.633, 5068.453
156.018, 5429.129
157.404, 5830.656
158.789, 6179.104
160.174, 6315.924
161.559, 6809.531
162.943, 6843.701
164.327, 7148.383
165.711, 7203.523
167.095, 7479.076
168.479, 7474.996
169.862, 7281.236
171.246, 7477.771
172.628, 7626.697
174.011, 7953.369
175.394, 8209.979
176.776, 8378.012
178.158, 8645.137
179.540, 8731.020
180.922, 9007.094
182.303, 9191.730
183.684, 9274.973
185.065, 9496.982
186.446, 9677.930
187.826, 9977.941
189.207, 9217.105
190.587, 10235.500
191.967, 9953.199
193.346, 10660.254
194.726, 10396.715
196.105, 10852.633
197.484, 11318.033
198.862, 11572.957
200.241, 11487.430
201.619, 12221.477
202.997, 12155.125
204.375, 12688.383
205.753, 12391.273
207.130, 13413.812
208.507, 13646.014
209.884, 13497.883
211.261, 14109.434
212.638, 14340.676
214.014, 14871.613
215.390, 14892.254
216.766, 15422.613
218.141, 15192.688
219.517, 15612.480
220.892, 15942.023
222.267, 15781.322
223.642, 16450.373
225.016, 16349.158
226.391, 16757.689
227.765, 16675.934
229.139, 16353.910
230.512, 16431.604
231.886, 15859.020
233.259, 16626.168
234.632, 16133.039
236.005, 16349.641
237.377, 16505.971
238.749, 16122.031
240.122, 16757.828
241.493, 16633.365
242.865, 16898.947
244.237, 17093.578
245.608, 17423.689
246.979, 18263.318
248.350, 18223.016
249.720, 19072.631
251.090, 18652.141
252.461, 19629.807
253.830, 19242.666
255.200, 19380.221
256.570, 19292.516
257.939, 18311.818
259.308, 18567.861
260.677, 17753.674
262.045, 17419.242
263.414, 16794.582
264.782, 15669.840
266.150, 15445.279
267.517, 14573.100
268.885, 13901.584
270.252, 13072.312
271.619, 12634.291
272.986, 11627.273
274.353, 11621.137
275.719, 10765.781
277.085, 10361.117
278.451, 10217.070
279.817, 9533.578
281.182, 9020.586
282.548, 9288.039
283.913, 8395.898
285.278, 8844.121
286.642, 8632.670
288.007, 8631.514
289.371, 8620.617
290.735, 8539.957
292.099, 8899.506
293.462, 8789.238
294.826, 9109.139
296.189, 9309.182
297.552, 9229.355
298.914, 9449.645
300.277, 9380.029
301.639, 10190.502
303.001, 9901.035
304.363, 10001.621
305.724, 10522.234
307.086, 10222.863
308.447, 10483.492
309.808, 10704.113
311.168, 11064.707
312.529, 11185.271
313.889, 11355.805
315.249, 11556.289
316.609, 11746.719
317.969, 11717.094
319.328, 11847.406
320.687, 11948.098
322.046, 11997.820
323.405, 12077.914
324.764, 12277.926
326.122, 12187.852
327.480, 12657.691
328.838, 12517.443
330.196, 12637.102
331.553, 12376.666
332.910, 12586.129
334.267, 12425.492
335.624, 12374.758
336.981, 12293.908
338.337, 11993.039
339.693, 11671.852
341.049, 11781.391
342.405, 11110.934
343.760, 11560.105
345.116, 10638.830
346.471, 10747.527
347.826, 10475.453
349.180, 10212.992
350.535, 10100.275
351.889, 9967.215
353.243, 9913.764
354.597, 9880.107
355.950, 9666.250
357.304, 9692.199
358.657, 9553.359
360.010, 9393.504
361.362, 9338.875
362.715, 9124.053
364.067, 8979.043
365.419, 8823.855
366.771, 8468.480
368.123, 8462.934
369.474, 7937.205
370.825, 7471.301
372.176, 6805.223
373.527, 6158.975
374.877, 5802.555
376.228, 4895.965
377.578, 4059.213
378.928, 3402.293
380.277, 2905.207
381.627, 2067.961
382.976, 1480.551
384.325, 1062.982
385.674, 435.250
387.023, 167.318
388.371, 440.867
389.719, 729.459
391.067, 828.533
392.415, 1088.119
393.762, 1308.281
395.110, 1529.076
396.457, 1615.584
397.804, 1582.762
399.150, 1675.666
400.497, 1599.293
401.843, 1503.629
403.189, 1378.639
404.535, 1254.295
405.881, 1030.564
407.226, 749.357
408.571, 461.211
409.916, 64.979
411.261, 324.275
412.605, 692.139
413.950, 1268.660
415.294, 1663.988
416.638, 2058.312
417.981, 2781.945
419.325, 3055.299
420.668, 3328.578
422.011, 3891.799
423.354, 3684.965
424.697, 4128.080
426.039, 3971.143
427.381, 3994.162
428.723, 4077.143
430.065, 3630.068
431.406, 3972.939
432.748, 3675.746
434.089, 3688.482
435.430, 3951.141
436.770, 3773.723
438.111, 3906.219
439.451, 3938.633
440.791, 4230.957
442.131, 3933.193
443.471, 4465.338
444.810, 4567.389
446.149, 4929.344
447.488, 5231.203
448.827, 5552.965
450.166, 5924.629
451.504, 6576.191
452.842, 6849.936
454.180, 7159.021
455.518, 7730.285
456.855, 7991.447
458.193, 8672.508
459.530, 9133.465
460.867, 9454.320
462.203, 9925.074
463.540, 9955.727
464.876, 10726.277
466.212, 10626.727
467.548, 10927.076
468.883, 10747.322
470.219, 10167.469
471.554, 10127.516
472.889, 9667.469
474.224, 9437.322
475.558, 8757.082
476.892, 8156.746
478.227, 7346.318
479.561, 6815.797
480.894, 5855.184
482.228, 5094.482
483.561, 4823.691
484.894, 3922.816
486.227, 3391.850
487.559, 2980.801
488.892, 2539.668
490.224, 1868.449
491.556, 1687.146
492.888, 1185.766
494.220, 1224.303
495.551, 802.760
496.882, 751.139
498.213, 469.438
499.544, 487.658
500.874, 245.801
502.205, 173.859
503.535, 191.832
504.865, 229.721
506.194, 167.535
507.524, 285.268
508.853, 312.934
510.182, 310.537
511.511, 328.092
512.840, 695.602
514.168, 943.088
515.496, 760.596
516.824, 1158.115
518.152, 1315.646
519.480, 1343.246
520.807, 1630.898
522.134, 1798.635
523.461, 2296.453
524.788, 2254.328
526.114, 2742.309
527.441, 2950.387
528.767, 3388.586
530.093, 3356.877
531.418, 3955.273
532.744, 4233.744
534.069, 4212.297
535.394, 4810.936
536.719, 5139.617
538.044, 5348.383
539.368, 5720.459
540.693, 6086.104
542.017, 6134.998
543.340, 6323.883
544.664, 6372.461
545.987, 6703.498
547.311, 6643.938
548.634, 6656.914
549.956, 6401.654
551.279, 6510.059
552.601, 6462.074
553.923, 6030.195
555.245, 6024.396
556.567, 5573.133
557.889, 5113.914
559.210, 4688.883
560.531, 4427.934
561.852, 4124.535
563.173, 4158.316
564.493, 3890.008
565.813, 4115.863
567.133, 3859.508
568.453, 3701.418
569.773, 4218.406
571.092, 4266.020
572.412, 4582.273
573.731, 4661.535
575.049, 5570.889
576.368, 5960.328
577.686, 6509.867
579.005, 7449.500
580.323, 7809.232
581.640, 8109.059
582.958, 8988.984
584.275, 9859.008
585.593, 10159.133
586.909, 10749.359
588.226, 11289.684
589.543, 11650.109
590.859, 12200.641
592.175, 12775.191
593.491, 13322.213
594.807, 13952.840
596.122, 14583.783
597.438, 15074.826
598.753, 15745.980
600.068, 16117.234
601.382, 16448.598
602.697, 16830.070
604.011, 17561.645
605.325, 18083.336
606.639, 18345.133
607.952, 18817.039
609.266, 19149.059
610.579, 19481.186
611.892, 20023.424
613.205, 20385.775
614.518, 20098.248
615.830, 20380.828
617.142, 21373.520
618.454, 20556.334
619.766, 21859.268
621.078, 21262.311
622.389, 21625.484
623.700, 21508.783
625.011, 22172.242
626.322, 21825.844
627.632, 22019.643
628.943, 22253.674
630.253, 22117.889
631.563, 22208.369
632.872, 22457.027
634.182, 22161.949
635.491, 22337.131
636.800, 22452.496
638.109, 21848.092
639.418, 22283.900
640.726, 22359.918
642.035, 21906.119
643.343, 22442.484
644.651, 21489.002
645.958, 22275.652
647.266, 21922.449
648.573, 21769.375
649.880, 21506.430
651.187, 21313.619
652.494, 21220.939
653.800, 20928.391
655.106, 21015.967
656.412, 20523.551
657.718, 20941.379
659.024, 19908.393
660.329, 20245.287
661.634, 20012.439
662.939, 19629.941
664.244, 19327.361
665.549, 19426.254
666.853, 19075.215
668.157, 18746.908
669.461, 18609.123
670.765, 18295.334
672.069, 18133.006
673.372, 18135.098
674.675, 17708.010
675.978, 17723.947
677.281, 17366.377
678.583, 17216.615
679.886, 17275.240
681.188, 16738.492
682.490, 16583.340
683.792, 16375.334
685.093, 16392.646
686.394, 15523.990
687.696, 16336.902
688.997, 15313.223
690.297, 15501.123
691.598, 15209.982
692.898, 14797.877
694.198, 15216.150
695.498, 14529.746
696.798, 14168.680
698.097, 14448.766
699.397, 13824.342
700.696, 13716.578
701.995, 13798.570
703.293, 13110.707
704.592, 13213.043
705.890, 12915.730
707.188, 12668.854
708.486, 12382.434
709.784, 12129.529
711.081, 11731.227
712.378, 11686.561
713.675, 11672.559
714.972, 11599.209
716.269, 11096.543
717.565, 10834.531
718.862, 10693.156
720.158, 10282.381
721.453, 10462.170
722.749, 9882.469
724.045, 9863.197
725.340, 9814.281
726.635, 9565.617
727.930, 8957.107
729.224, 9288.711
730.519, 8550.408
731.813, 8582.203
733.107, 8344.086
734.401, 8116.061
735.694, 7698.129
736.988, 7870.287
738.281, 7772.535
739.574, 7444.871
740.867, 7177.295
742.160, 7059.807
743.452, 6812.402
744.744, 6645.084
746.036, 6397.848
747.328, 6380.695
748.620, 6023.623
749.911, 6036.633
751.202, 5909.721
752.493, 5502.890
753.784, 5526.136
755.075, 5469.459
756.365, 4962.861
757.655, 5166.340
758.945, 4809.898
760.235, 4993.531
761.525, 4907.240
762.814, 4161.027
764.103, 4564.893
765.392, 4188.836
766.681, 4282.859
767.969, 4256.955
769.258, 3891.125
770.546, 3625.369
771.834, 3759.684
773.122, 3504.066
774.409, 3458.516
775.697, 3313.824
776.984, 3249.920
778.271, 3216.384
779.558, 3049.783
780.844, 3089.611
782.131, 2960.641
783.417, 2921.126
784.703, 2779.882
785.989, 2830.252
787.274, 2522.058
788.560, 2440.039
789.845, 2577.637
791.130, 2345.934
792.415, 2195.380
793.699, 2479.547
794.983, 2093.588
796.268, 1841.283
797.552, 1965.090
798.835, 1734.655
800.119, 1493.204
801.402, 1640.302
802.686, 1417.105
803.969, 1123.323
805.251, 1379.749
806.534, 745.143
807.816, 860.684
809.098, 866.114
810.380, 641.563
811.662, 757.031
812.944, 322.517
814.225, 178.023
815.506, 463.552
816.787, 299.098
818.068, 54.661
819.349, 39.758
820.629, 24.175
821.909, 128.592
823.189, 133.035
824.469, 217.511
825.749, 392.054
827.028, 346.749
828.307, 321.572
829.586, 526.518
830.865, 461.672
832.144, 576.991
833.422, 542.568
834.700, 448.364
835.978, 624.344
837.256, 570.615
838.534, 647.116
839.811, 543.913
841.088, 560.950
842.365, 448.222
843.642, 465.710
844.919, 473.384
846.195, 291.311
847.472, 449.405
848.748, 367.715
850.023, 286.377
851.299, 134.958
852.575, 43.781
853.850, 101.155
855.125, 218.402
856.400, 379.449
857.674, 620.466
858.949, 741.446
860.223, 842.388
861.497, 1213.288
862.771, 1234.144
864.045, 1584.953
865.318, 1965.712
866.591, 2146.418
867.864, 2567.066
869.137, 2597.654
870.410, 2988.179
871.682, 3478.633
872.955, 3619.019
874.227, 4149.331
875.499, 4139.564
876.770, 4389.718
878.042, 4759.789
879.313, 4809.777
880.584, 5139.678
881.855, 5299.490
883.126, 5499.213
884.396, 5598.848
885.667, 5648.391
886.937, 5867.840
888.207, 5857.197
889.476, 5906.461
890.746, 5940.577
892.015, 5744.701
893.284, 5823.678
894.553, 5742.555
895.822, 5491.332
897.090, 5790.012
898.359, 5338.589
899.627, 5287.064
900.895, 4915.438
902.163, 4953.708
903.430, 4861.871
904.698, 4359.932
905.965, 4687.883
907.232, 4455.955
908.499, 4044.323
909.765, 3862.438
911.032, 3980.967
912.298, 3579.205
913.564, 3597.697
914.830, 2856.430
916.095, 2805.662
917.361, 2625.068
918.626, 2314.367
919.891, 2013.154
921.156, 1631.744
922.420, 1430.304
923.685, 1178.424
924.949, 996.437
926.213, 893.961
927.477, 680.677
928.740, 517.716
930.004, 454.685
931.267, 170.744
932.530, 276.176
933.793, 31.378
935.056, 115.696
936.318, 80.874
937.581, 105.812
938.843, 124.853
940.104, 60.261
941.366, 210.005
942.628, 111.835
943.889, 73.578
945.150, 13.661
946.411, 18.595
947.672, 139.224
948.932, 234.729
950.193, 377.473
951.453, 431.818
952.713, 613.831
953.973, 695.261
955.232, 847.375
956.491, 808.739
957.751, 1190.604
959.010, 1042.567
960.268, 1453.948
961.527, 1585.906
962.785, 1637.628
964.044, 1629.186
965.302, 2011.216
966.559, 2202.551
967.817, 2193.987
969.075, 2435.480
970.332, 2566.856
971.589, 2657.948
972.846, 2728.594
974.102, 2886.374
975.359, 3123.938
976.615, 3118.315
977.871, 3232.836
979.127, 3310.649
980.383, 3338.746
981.638, 3219.414
982.893, 3467.373
984.149, 3260.217
985.404, 3541.414
986.658, 3415.570
987.913, 3465.232
989.167, 3547.072
990.421, 3568.557
991.675, 3637.064
992.929, 3548.454
994.183, 3707.951
995.436, 3796.037
996.689, 3639.365
997.942, 3861.953
999.195, 3973.791
1000.448, 4009.976
1001.700, 4061.049
1002.952, 4069.998
1004.204, 4143.225
1005.456, 4319.619
1006.708, 4245.441
1007.959, 4431.260
1009.210, 4456.029
1010.461, 4550.492
1011.712, 4534.824
1012.963, 4439.029
1014.213, 4543.105
1015.464, 4437.053
1016.714, 4400.872
1017.964, 4344.562
1019.214, 4288.123
1020.463, 4241.557
1021.712, 4044.859
1022.962, 4058.035
1024.210, 3741.081
1025.459, 3743.998
1026.708, 3526.787
1027.956, 3309.446
1029.204, 3301.979
1030.452, 3074.381
1031.700, 2986.656
1032.948, 2848.803
1034.195, 2660.820
1035.442, 2462.710
1036.689, 2454.472
1037.936, 2296.106
1039.183, 2207.613
1040.429, 2078.991
1041.676, 1968.241
1042.922, 1963.366
1044.168, 1840.363
1045.413, 1766.578
1046.659, 1741.976
1047.904, 1604.591
1049.149, 1523.081
1050.394, 1485.445
1051.639, 1312.682
1052.884, 1223.794
1054.128, 1130.779
1055.372, 1167.640
1056.616, 919.374
1057.860, 823.981
1059.104, 859.458
1060.347, 734.806
1061.590, 778.020
1062.833, 692.102
1064.076, 608.050
1065.319, 461.861
1066.561, 393.529
1067.803, 392.052
1069.046, 487.431
1070.287, 506.669
1071.529, 442.766
1072.771, 605.721
1074.012, 559.540
1075.253, 647.219
1076.494, 811.766
1077.735, 703.386
1078.975, 687.148
1080.216, 871.472
1081.456, 965.792
1082.696, 1112.617
1083.936, 1066.173
1085.175, 1175.204
1086.415, 1229.897
1087.654, 1093.909
1088.893, 1194.419
1090.132, 1118.688
1091.371, 1196.270
1092.609, 1039.087
1093.847, 936.685
1095.085, 959.494
1096.323, 851.358
1097.561, 742.498
1098.799, 628.459
1100.036, 679.590
1101.273, 478.665
1102.510, 581.119
1103.747, 380.790
1104.983, 524.973
1106.220, 368.872
1107.456, 311.724
1108.692, 416.374
1109.928, 244.061
1111.163, 266.656
1112.399, 271.181
1113.634, 123.617
1114.869, 254.965
1116.104, 196.227
1117.339, 147.404
1118.573, 140.500
1119.808, 49.519
1121.042, 113.448
1122.276, 150.312
1123.509, 107.115
1124.743, 30.849
1125.976, 42.549
1127.210, 17.776
1128.443, 2.135
1129.675, 99.522
1130.908, 160.952
1132.141, 45.454
1133.373, 153.947
1134.605, 116.497
1135.837, 71.100
1137.068, 220.692
1138.300, 141.361
1139.531, 159.036
1140.762, 230.759
1141.993, 96.562
1143.224, 259.402
1144.455, 40.361
1145.685, 4.685
1146.915, 168.294
1148.145, 76.658
1149.375, 46.617
1150.605, 231.561
1151.834, 282.458
1153.063, 317.293
1154.292, 508.042
1155.521, 477.712
1156.750, 698.300
1157.978, 748.813
1159.207, 861.260
1160.435, 1037.634
1161.663, 1225.936
1162.891, 1294.168
1164.118, 1602.330
1165.345, 1668.422
1166.573, 1753.444
1167.800, 2035.395
1169.026, 2144.277
1170.253, 2332.090
1171.480, 2590.833
1172.706, 2630.508
1173.932, 2888.113
1175.158, 2815.649
1176.383, 3083.116
1177.609, 3060.516
1178.834, 3182.847
1180.059, 3259.112
1181.284, 3069.307
1182.509, 3081.434
1183.734, 3033.489
1184.958, 2944.473
1186.182, 2908.389
1187.406, 2864.235
1188.630, 2797.009
1189.854, 2652.725
1191.077, 2680.369
1192.301, 2671.944
1193.524, 2588.454
1194.747, 2664.892
1195.969, 2812.275
1197.192, 2758.599
1198.414, 2778.850
1199.636, 2760.030
1200.858, 2983.142
1202.080, 2873.178
1203.302, 2897.152
1204.523, 2958.822
1205.744, 2865.009
1206.966, 3011.263
1208.186, 2840.913
1209.407, 2816.657
1210.628, 2834.956
1211.848, 2770.812
1213.068, 2759.968
1214.288, 2642.747
1215.508, 2728.427
1216.727, 2648.414
1217.947, 2555.383
1219.166, 2744.987
1220.385, 2790.174
1221.604, 2729.062
1222.822, 2925.214
1224.041, 2897.947
1225.259, 2976.118
1226.477, 3149.115
1227.695, 3229.775
1228.913, 3397.777
1230.130, 3573.969
1231.348, 3708.736
1232.565, 3990.101
1233.782, 4029.232
1234.999, 4098.539
1236.215, 4488.047
1237.432, 4377.683
1238.648, 4617.390
1239.864, 4717.553
1241.080, 4687.566
1242.296, 4867.563
1243.511, 4817.853
1244.726, 4868.896
1245.942, 4978.698
1247.156, 4709.476
1248.371, 4709.417
1249.586, 4699.436
1250.800, 4649.647
1252.014, 4449.542
1253.228, 4349.185
1254.442, 4194.042
1255.656, 4194.823
1256.869, 3876.087
1258.083, 3895.790
1259.296, 3819.136
1260.509, 3620.265
1261.722, 3548.999
1262.934, 3352.117
1264.147, 3271.779
1265.359, 3113.626
1266.571, 3001.579
1267.783, 2947.741
1268.994, 3017.643
1270.206, 2859.819
1271.417, 2822.312
1272.628, 2760.626
1273.839, 2679.323
1275.050, 2778.951
1276.260, 2613.005
1277.471, 2545.511
1278.681, 2799.726
1279.891, 2554.527
1281.101, 2586.898
1282.310, 2643.537
1283.520, 2601.325
1284.729, 2667.681
1285.938, 2709.470
1287.147, 2747.986
1288.356, 2782.879
1289.564, 2829.735
1290.773, 2946.390
1291.981, 3049.029
1293.189, 2928.371
1294.397, 3174.153
1295.604, 3201.855
1296.812, 3128.488
1298.019, 3359.043
1299.226, 3379.413
1300.433, 3487.904
1301.640, 3691.966
1302.846, 3589.861
1304.053, 3805.971
1305.259, 3857.697
1306.465, 3758.447
1307.671, 3927.575
1308.876, 4071.396
1310.082, 3950.117
1311.287, 4140.824
1312.492, 4164.160
1313.697, 4239.778
1314.902, 4281.111
1316.106, 4290.300
1317.310, 4265.587
1318.515, 4267.502
1319.719, 4357.300
1320.922, 4292.266
1322.126, 4285.961
1323.329, 4201.924
1324.533, 4222.951
1325.736, 4218.566
1326.939, 4217.035
1328.141, 4118.534
1329.344, 3924.704
1330.546, 3978.858
1331.748, 3874.022
1332.950, 3748.636
1334.152, 3855.683
1335.354, 3646.929
1336.555, 3556.965
1337.757, 3531.802
1338.958, 3292.016
1340.159, 3429.758
1341.359, 3213.230
1342.560, 3158.801
1343.760, 3180.771
1344.960, 2949.587
1346.160, 2916.956
1347.360, 2875.551
1348.560, 2648.181
1349.759, 2742.126
1350.959, 2525.826
1352.158, 2416.439
1353.357, 2451.513
1354.555, 2106.955
1355.754, 2178.599
1356.952, 2355.155
1358.151, 1884.108
1359.349, 1845.359
1360.546, 1717.524
1361.744, 1548.305
1362.941, 1610.538
1364.139, 1335.612
1365.336, 1274.130
1366.533, 1262.334
1367.730, 1070.006
1368.926, 1033.368
1370.123, 1002.039
1371.319, 851.990
1372.515, 840.126
1373.711, 721.646
1374.906, 570.414
1376.102, 661.173
1377.297, 460.157
1378.492, 411.298
1379.687, 356.648
1380.882, 315.263
1382.077, 322.207
1383.271, 218.054
1384.465, 269.801
1385.659, 284.436
1386.853, 224.960
1388.047, 88.376
1389.240, 206.683
1390.434, 91.827
1391.627, 89.808
1392.820, 128.613
1394.013, 15.254
1395.205, 108.706
1396.398, 56.977
1397.590, 79.949
1398.782, 7.064
1399.974, 27.308
1401.166, 96.562
1402.357, 26.803
1403.549, 49.001
1404.740, 29.092
1405.931, 48.052
1407.122, 54.866
1408.313, 73.638
1409.503, 21.361
1410.693, 95.160
1411.883, 56.055
1413.073, 15.051
1414.263, 109.171
1415.453, 84.580
1416.642, 32.801
1417.831, 37.313
1419.020, 85.044
1420.209, 24.729
1421.398, 32.365
1422.587, 79.330
1423.775, 11.163
1424.963, 120.862
1426.151, 71.440
1427.339, 13.904
1428.526, 111.256
1429.714, 137.466
1430.901, 143.560
1432.088, 241.521
1433.275, 116.328
1434.462, 196.037
1435.648, 287.650
1436.835, 130.195
1438.021, 225.703
1439.207, 224.206
1440.393, 135.739
1441.579, 316.329
1442.764, 249.013
1443.949, 291.839
1445.135, 303.860
1446.320, 163.127
1447.504, 369.709
1448.689, 356.228
1449.873, 272.060
1451.058, 317.431
1452.242, 328.624
1453.426, 317.537
1454.609, 392.154
1455.793, 306.593
1456.976, 356.356
1458.159, 370.447
1459.342, 322.850
1460.525, 362.044
1461.708, 349.129
1462.890, 269.679
1464.073, 268.919
1465.255, 196.167
1466.437, 147.102
1467.619, 271.250
1468.800, 104.549
1469.982, 186.883
1471.163, 191.323
1472.344, 57.474
1473.525, 128.863
1474.706, 170.525
1475.886, 15.473
1477.066, 159.638
1478.247, 59.650
1479.427, 13.415
1480.607, 90.882
1481.786, 27.119
1482.966, 10.570
1484.145, 85.157
1485.324, 38.224
1486.503, 32.174
1487.682, 122.492
1488.860, 20.417
1490.039, 136.449
1491.217, 177.372
1492.395, 59.333
1493.573, 130.659
1494.751, 145.695
1495.928, 175.218
1497.106, 277.865
1498.283, 194.629
1499.460, 203.459
1500.637, 258.950
1501.814, 145.450
1502.990, 252.307
1504.166, 227.450
1505.342, 101.319
1506.518, 257.146
1507.694, 153.488
1508.870, 96.498
1510.045, 255.820
1511.221, 188.470
1512.396, 147.153
1513.571, 209.284
1514.745, 67.405
1515.920, 24.362
1517.094, 222.770
1518.269, 143.642
1519.443, 171.952
1520.616, 110.179
1521.790, 0.000
##END=



