##NAMES=Titanite
##RRUFFID=R050124
##IDEAL CHEMISTRY=CaTi^4+^SiO_5_
##LOCALITY=Capelinha, Minas Gerais, Brazil
##OWNER=RRUFF
##SOURCE=Carlos and Paulo Vasconcelos
##DESCRIPTION=Yellow tabular crystal
##STATUS=The identification of this mineral has been confirmed by X-ray diffraction and chemical analysis
##URL=rruff.info/R050124
##MEASURED CHEMISTRY=Ca_1.00_(Ti_0.93_Al_0.05_Fe^3+^_0.02_)Si_1.00_O_4_(O)_1.00_
##PIN_ID=M00070
##ORIENTATION=Laser parallel to (-1 0 -1). Fiducial mark perpendicular to laser is parallel to b [0 1 0]
123.422, 0.000
124.811, 3.755
126.201, 139.244
127.590, 275.837
128.979, 38.249
130.367, 251.353
131.756, 91.085
133.144, 187.508
134.532, 119.372
135.920, 232.130
137.307, 593.652
138.695, 849.000
140.082, 1981.396
141.469, 2691.300
142.856, 4087.343
144.242, 4542.145
145.628, 4940.322
147.014, 4961.527
148.400, 3855.435
149.786, 3091.760
151.171, 2076.246
152.556, 1933.673
153.941, 1625.843
155.325, 1991.589
156.710, 2589.891
158.094, 2889.001
159.478, 3938.063
160.862, 4198.901
162.245, 4991.256
163.629, 4954.915
165.012, 4899.701
166.395, 4735.503
167.777, 3752.227
169.160, 3489.756
170.542, 2567.993
171.924, 2536.857
173.306, 1986.281
174.687, 1634.205
176.068, 1799.581
177.449, 1314.364
178.830, 1659.517
180.211, 1267.006
181.591, 1416.801
182.972, 1396.874
184.351, 1313.203
185.731, 1503.764
187.111, 1174.646
188.490, 1382.874
189.869, 1074.415
191.248, 1277.144
192.626, 1331.419
194.005, 1209.618
195.383, 1494.373
196.761, 1289.596
198.139, 1812.318
199.516, 1469.564
200.893, 1955.358
202.271, 2050.719
203.647, 1937.667
205.024, 2325.220
206.400, 2051.818
207.777, 2576.330
209.152, 2101.976
210.528, 2349.574
211.904, 2470.839
213.279, 2153.833
214.654, 2552.588
216.029, 2122.129
217.403, 2563.481
218.778, 2393.660
220.152, 2533.683
221.526, 2793.564
222.900, 2733.313
224.273, 3292.943
225.646, 3072.461
227.019, 3741.875
228.392, 3771.190
229.765, 4060.411
231.137, 4739.546
232.509, 4938.595
233.881, 5537.565
235.253, 5376.458
236.625, 5385.274
237.996, 4874.021
239.367, 4362.697
240.738, 4251.305
242.108, 3689.843
243.479, 4108.313
244.849, 3736.713
246.219, 4325.043
247.589, 4573.306
248.958, 4811.498
250.328, 5597.593
251.697, 5633.978
253.065, 6256.798
254.434, 6248.822
255.803, 6670.596
257.171, 6652.753
258.539, 6485.569
259.906, 6854.102
261.274, 6197.630
262.641, 6210.637
264.008, 5626.986
265.375, 5227.042
266.742, 5138.614
268.108, 4330.188
269.475, 4321.762
270.840, 3733.329
272.206, 3794.882
273.572, 3676.408
274.937, 3437.896
276.302, 3749.336
277.667, 3470.723
279.032, 4042.058
280.396, 3853.343
281.760, 4554.579
283.125, 4955.770
284.488, 5526.916
285.852, 6938.022
287.215, 7531.875
288.578, 9103.920
289.941, 10113.855
291.304, 11219.904
292.666, 12142.801
294.029, 11354.436
295.391, 11415.069
296.753, 9754.847
298.114, 8667.788
299.476, 7441.082
300.837, 6454.690
302.198, 6128.586
303.558, 5092.737
304.919, 5407.122
306.279, 5121.714
307.639, 5396.500
308.999, 5911.458
310.359, 6096.575
311.718, 7641.832
313.077, 8297.219
314.436, 10442.723
315.795, 11658.338
317.154, 12744.045
318.512, 13689.846
319.870, 12195.727
321.228, 11901.684
322.586, 9897.707
323.943, 8903.784
325.300, 7769.910
326.657, 6646.076
328.014, 6642.278
329.371, 5638.511
330.727, 5974.765
332.083, 5601.040
333.439, 5307.331
334.795, 5413.634
336.150, 4599.946
337.506, 4706.265
338.861, 3932.586
340.215, 4008.912
341.570, 3695.236
342.924, 3711.559
344.279, 4257.877
345.633, 4264.191
346.986, 5290.497
348.340, 5856.797
349.693, 6643.086
351.046, 7569.365
352.399, 7345.625
353.752, 7661.860
355.104, 6448.051
356.457, 5774.188
357.809, 4960.265
359.160, 3506.275
360.512, 3272.224
361.863, 2216.112
363.214, 2150.941
364.565, 1502.714
365.916, 1284.433
367.267, 1315.098
368.617, 733.712
369.967, 960.275
371.317, 396.787
372.666, 513.247
374.016, 357.656
375.365, 5.985
376.714, 278.293
378.063, 259.477
379.411, 44.606
380.760, 291.376
382.108, 282.512
383.456, 218.800
384.803, 569.222
386.151, 73.132
387.498, 589.573
388.845, 327.508
390.192, 209.604
391.539, 605.829
392.885, 116.289
394.231, 528.853
395.577, 153.628
396.923, 440.519
398.269, 493.598
399.614, 108.878
400.959, 460.260
402.304, 92.166
403.649, 200.459
404.993, 22.793
406.337, 370.981
407.681, 271.133
409.025, 1048.251
410.369, 1015.335
411.712, 1748.385
413.055, 2298.360
414.398, 2962.173
415.741, 4203.793
417.084, 4975.138
418.426, 6916.211
419.768, 8156.882
421.110, 9517.194
422.452, 11007.205
423.793, 10966.939
425.134, 11156.395
426.475, 9855.646
427.816, 9084.761
429.157, 7523.875
430.497, 5992.988
431.837, 5272.103
433.177, 3781.217
434.517, 3400.332
435.857, 2349.473
437.196, 1821.614
438.535, 1712.820
439.874, 921.028
441.213, 1141.238
442.551, 457.533
443.889, 378.831
445.227, 404.193
446.565, 126.441
447.903, 315.868
449.240, 256.794
450.577, 105.361
451.914, 169.431
453.251, 278.348
454.588, 149.546
455.924, 227.467
457.260, 280.353
458.596, 226.217
459.932, 448.096
461.267, 1089.974
462.602, 872.917
463.938, 2020.857
465.272, 2329.819
466.607, 3048.778
467.941, 3867.731
469.276, 3646.708
470.610, 4625.678
471.943, 4194.649
473.277, 4383.612
474.610, 4152.569
475.944, 3691.565
477.276, 3870.554
478.609, 3249.534
479.942, 3448.506
481.274, 2977.468
482.606, 3166.422
483.938, 3285.368
485.270, 2754.306
486.601, 3343.234
487.932, 2862.156
489.263, 2951.068
490.594, 3179.975
491.925, 2598.872
493.255, 3287.764
494.585, 2556.646
495.915, 2725.524
497.245, 2604.395
498.575, 2223.260
499.904, 2592.118
501.233, 1900.971
502.562, 2199.818
503.891, 1818.661
505.219, 1587.501
506.548, 2016.336
507.876, 1400.167
509.203, 1823.996
510.531, 1622.821
511.859, 1464.645
513.186, 1950.466
514.513, 1336.287
515.840, 1938.106
517.166, 1596.926
518.493, 1795.746
519.819, 1964.568
521.145, 1593.391
522.470, 2202.217
523.796, 1691.047
525.121, 1909.880
526.446, 2098.717
527.771, 1847.559
529.096, 2306.406
530.421, 1985.260
531.745, 2424.119
533.069, 2602.986
534.393, 2401.863
535.716, 3024.575
537.040, 2573.468
538.363, 3150.136
539.686, 3035.576
541.009, 3040.123
542.331, 3575.174
543.654, 2694.175
544.976, 3351.143
546.298, 2897.524
547.620, 2643.146
548.941, 2825.193
550.263, 2114.620
551.584, 2799.168
552.905, 2174.434
554.225, 2343.807
555.546, 2786.734
556.866, 2271.668
558.186, 3143.289
559.506, 3149.080
560.826, 3882.847
562.145, 4969.904
563.465, 5220.053
564.784, 7204.250
566.103, 7663.697
567.421, 8933.188
568.740, 9972.717
570.058, 9842.285
571.376, 10781.899
572.694, 10191.557
574.011, 10431.255
575.329, 10410.997
576.646, 9900.790
577.963, 10740.632
579.279, 9870.518
580.596, 10650.459
581.912, 10720.456
583.228, 10990.507
584.544, 12090.613
585.860, 11520.782
587.175, 12951.008
588.491, 13211.292
589.806, 13782.131
591.121, 15532.537
592.435, 15563.003
593.750, 17408.732
595.064, 17849.322
596.378, 19314.293
597.692, 21385.004
599.006, 21605.777
600.319, 23655.141
601.632, 24466.033
602.945, 25810.357
604.258, 27821.377
605.571, 27709.664
606.883, 29489.852
608.195, 29140.238
609.507, 29680.713
610.819, 30478.502
612.131, 29127.982
613.442, 29619.305
614.753, 27872.279
616.064, 27859.711
617.375, 26704.092
618.685, 25535.814
619.995, 25312.281
621.306, 23154.135
622.615, 22531.223
623.925, 22083.434
625.235, 20225.484
626.544, 20293.457
627.853, 18485.650
629.162, 17809.506
630.471, 16941.834
631.779, 15824.223
633.087, 15747.213
634.395, 14119.803
635.703, 13902.461
637.011, 13195.187
638.318, 12088.025
639.625, 12360.935
640.932, 11003.937
642.239, 10947.007
643.546, 10290.148
644.852, 9703.414
646.158, 9816.753
647.464, 8630.178
648.770, 9093.681
650.076, 8447.253
651.381, 7800.927
652.686, 8154.670
653.991, 7218.486
655.296, 7522.372
656.600, 7226.329
657.905, 6460.412
659.209, 7084.566
660.513, 5908.793
661.817, 6453.154
663.120, 5917.587
664.423, 5592.104
665.726, 5846.694
667.029, 4841.355
668.332, 5386.166
669.635, 4841.046
670.937, 4646.004
672.239, 5151.067
673.541, 4176.205
674.842, 4531.459
676.144, 4216.789
677.445, 3852.191
678.746, 4317.693
680.047, 3373.272
681.348, 3758.927
682.648, 3394.652
683.948, 3200.457
685.248, 3516.374
686.548, 3002.366
687.848, 3388.434
689.147, 2884.578
690.447, 2710.798
691.746, 3097.104
693.044, 2193.519
694.343, 2920.008
695.641, 2346.672
696.940, 2343.434
698.238, 2720.382
699.535, 1877.514
700.833, 2434.809
702.130, 2032.365
703.427, 1710.011
704.724, 2197.922
706.021, 1486.028
707.318, 1954.299
708.614, 1692.839
709.910, 1271.520
711.206, 1810.449
712.502, 1049.527
713.798, 1448.832
715.093, 1288.376
716.388, 948.058
717.683, 1597.971
718.978, 707.970
720.272, 1318.132
721.567, 1038.397
722.861, 698.737
724.155, 1329.150
725.448, 569.640
726.742, 1060.203
728.035, 960.839
729.328, 561.567
730.621, 1212.368
731.914, 493.248
733.206, 804.202
734.499, 645.228
735.791, 376.372
737.083, 847.589
738.374, 58.877
739.666, 720.259
740.957, 381.712
742.248, 153.251
743.539, 664.862
744.830, 23.459
746.120, 338.307
747.410, 230.140
748.701, 171.941
749.990, 544.000
751.280, 370.989
752.570, 218.060
753.859, 160.179
755.148, 450.631
756.437, 424.519
757.725, 345.268
759.014, 168.949
760.302, 171.231
761.590, 454.360
762.878, 386.003
764.166, 267.474
765.453, 59.972
766.740, 203.651
768.027, 463.563
769.314, 219.122
770.601, 170.045
771.887, 90.206
773.174, 197.678
774.460, 355.378
775.745, 253.499
777.031, 149.563
778.316, 0.616
779.602, 402.408
780.887, 163.508
782.172, 509.700
783.456, 51.151
784.741, 196.036
786.025, 409.283
787.309, 261.413
788.593, 571.521
789.876, 174.843
791.160, 88.220
792.443, 711.773
793.726, 115.260
795.009, 714.643
796.291, 518.240
797.574, 351.890
798.856, 959.014
800.138, 422.773
801.420, 900.743
802.702, 905.374
803.983, 669.283
805.264, 1410.043
806.545, 864.066
807.826, 1488.135
809.107, 1692.384
810.387, 1676.566
811.667, 2362.861
812.947, 2147.146
814.227, 2831.475
815.507, 3180.184
816.786, 2594.630
818.065, 3721.432
819.344, 3245.961
820.623, 3530.535
821.902, 3971.902
823.180, 3326.558
824.459, 4311.250
825.737, 3693.737
827.014, 3988.511
828.292, 4343.043
829.569, 3677.890
830.847, 4402.773
832.124, 4173.252
833.401, 3948.210
834.677, 4843.400
835.954, 4018.422
837.230, 5043.496
838.506, 5117.521
839.782, 5002.659
841.057, 6347.869
842.333, 6023.332
843.608, 6878.577
844.883, 7956.147
846.158, 7931.445
847.433, 9566.781
848.707, 10412.141
849.981, 11497.525
851.255, 13003.278
852.529, 13478.708
853.803, 15344.169
855.076, 16009.787
856.350, 16925.283
857.623, 18190.799
858.895, 17486.338
860.168, 19161.885
861.441, 19127.453
862.713, 19783.029
863.985, 21338.637
865.257, 21794.242
866.528, 24089.863
867.800, 25765.496
869.071, 26891.135
870.342, 30016.779
871.613, 29362.426
872.884, 30408.084
874.154, 29663.744
875.425, 27499.404
876.695, 27685.068
877.965, 24851.447
879.234, 23757.113
880.504, 23412.777
881.773, 21132.732
883.042, 20908.402
884.311, 19235.475
885.580, 17851.420
886.848, 17247.086
888.117, 14943.599
889.385, 14349.253
890.653, 12395.169
891.920, 10795.762
893.188, 10321.401
894.455, 8521.041
895.722, 8436.668
896.989, 7572.284
898.256, 6992.664
899.523, 7138.262
900.789, 6267.527
902.055, 6479.488
903.321, 6485.055
904.587, 5900.146
905.852, 7095.918
907.118, 6452.959
908.383, 6782.867
909.648, 7648.369
910.913, 6643.814
912.177, 7539.412
913.442, 6354.869
914.706, 5605.452
915.970, 5810.877
917.233, 4126.754
918.497, 3971.645
919.760, 3087.015
921.024, 2255.684
922.287, 2371.018
923.550, 1370.493
924.812, 1426.099
926.075, 1321.374
927.337, 659.816
928.599, 1228.053
929.861, 372.097
931.122, 718.577
932.384, 683.748
933.645, 33.039
934.906, 749.269
936.167, 279.753
937.428, 257.485
938.688, 711.530
939.948, 209.986
941.208, 485.012
942.468, 196.844
943.728, 117.349
944.987, 609.815
946.247, 46.518
947.506, 151.568
948.765, 360.126
950.023, 163.343
951.282, 523.441
952.540, 13.204
953.798, 53.799
955.056, 537.043
956.314, 51.743
957.572, 411.951
958.829, 271.039
960.086, 92.295
961.343, 548.035
962.600, 128.975
963.856, 512.735
965.113, 374.379
966.369, 161.840
967.625, 787.176
968.881, 38.765
970.136, 282.985
971.392, 473.870
972.647, 193.670
973.902, 473.801
975.157, 187.042
976.411, 47.757
977.666, 719.520
978.920, 77.420
980.174, 434.300
981.428, 573.288
982.682, 8.854
983.935, 705.376
985.188, 144.103
986.441, 261.786
987.694, 505.542
988.947, 57.835
990.199, 648.133
991.452, 207.660
992.704, 158.080
993.956, 727.280
995.207, 69.608
996.459, 654.870
997.710, 591.980
998.961, 277.175
1000.212, 1066.923
1001.463, 176.087
1002.714, 549.144
1003.964, 935.047
1005.214, 237.009
1006.464, 1008.922
1007.714, 593.223
1008.964, 506.047
1010.213, 1185.076
1011.462, 290.802
1012.711, 958.495
1013.960, 798.243
1015.209, 404.836
1016.457, 1195.381
1017.705, 510.239
1018.954, 968.684
1020.201, 1100.079
1021.449, 440.421
1022.697, 1272.716
1023.944, 635.988
1025.191, 589.180
1026.438, 1106.323
1027.685, 195.414
1028.931, 810.445
1030.177, 649.424
1031.423, 40.350
1032.669, 903.184
1033.915, 150.965
1035.161, 292.679
1036.406, 701.339
1037.651, 70.054
1038.896, 618.402
1040.141, 308.808
1041.386, 28.156
1042.630, 605.418
1043.874, 52.254
1045.118, 499.369
1046.362, 473.478
1047.606, 22.530
1048.849, 747.483
1050.092, 64.409
1051.336, 158.244
1052.578, 579.035
1053.821, 275.229
1055.064, 353.310
1056.306, 167.818
1057.548, 100.743
1058.790, 689.608
1060.032, 107.087
1061.273, 391.106
1062.515, 694.242
1063.756, 120.675
1064.997, 703.313
1066.237, 331.248
1067.478, 212.167
1068.718, 733.027
1069.959, 85.875
1071.199, 596.725
1072.438, 558.518
1073.678, 95.425
1074.918, 860.142
1076.157, 252.799
1077.396, 494.457
1078.635, 812.059
1079.873, 20.630
1081.112, 837.098
1082.350, 477.505
1083.588, 231.812
1084.826, 1247.174
1086.064, 305.484
1087.301, 661.738
1088.539, 971.934
1089.776, 221.448
1091.013, 1042.565
1092.250, 622.625
1093.486, 340.298
1094.723, 1027.241
1095.959, 173.282
1097.195, 653.237
1098.431, 691.002
1099.666, 100.287
1100.902, 986.919
1102.137, 271.336
1103.372, 481.080
1104.607, 914.540
1105.842, 11.140
1107.076, 659.689
1108.311, 396.950
1109.545, 8.023
1110.779, 711.153
1112.012, 61.161
1113.246, 241.522
1114.479, 690.459
1115.712, 45.997
1116.945, 627.827
1118.178, 264.221
1119.411, 153.870
1120.643, 832.248
1121.875, 164.028
1123.108, 429.195
1124.339, 747.616
1125.571, 68.229
1126.802, 832.436
1128.034, 220.959
1129.265, 165.148
1130.496, 942.105
1131.727, 40.624
1132.957, 619.535
1134.187, 684.438
1135.418, 26.654
1136.648, 1052.640
1137.877, 295.485
1139.107, 163.197
1140.336, 1112.773
1141.566, 23.892
1142.795, 783.773
1144.023, 716.933
1145.252, 14.342
1146.480, 972.989
1147.709, 272.274
1148.937, 401.504
1150.165, 889.701
1151.392, 77.831
1152.620, 900.271
1153.847, 765.228
1155.074, 315.190
1156.301, 1056.690
1157.528, 359.549
1158.755, 570.354
1159.981, 1074.766
1161.207, 61.471
1162.433, 994.107
1163.659, 779.169
1164.885, 337.705
1166.110, 1328.785
1167.336, 565.218
1168.561, 647.602
1169.786, 1252.816
1171.010, 419.101
1172.235, 1171.336
1173.459, 996.602
1174.683, 670.737
1175.907, 1584.145
1177.131, 958.182
1178.355, 1392.170
1179.578, 1782.183
1180.801, 856.072
1182.024, 1718.503
1183.247, 1322.827
1184.470, 1076.571
1185.692, 1709.410
1186.915, 753.993
1188.137, 787.327
1189.359, 1198.991
1190.580, 262.500
1191.802, 1011.948
1193.023, 786.485
1194.244, 659.853
1195.465, 1467.908
1196.686, 757.323
1197.907, 966.876
1199.127, 1458.477
1200.347, 591.873
1201.567, 1201.106
1202.787, 850.168
1204.007, 521.662
1205.226, 1271.705
1206.446, 587.003
1207.665, 806.553
1208.884, 1289.268
1210.102, 513.347
1211.321, 1371.914
1212.539, 1035.555
1213.758, 737.810
1214.976, 1479.316
1216.193, 622.180
1217.411, 991.483
1218.628, 1243.999
1219.846, 341.764
1221.063, 1201.156
1222.280, 823.550
1223.496, 495.345
1224.713, 1297.657
1225.929, 550.883
1227.145, 817.604
1228.361, 1249.798
1229.577, 403.794
1230.793, 1184.787
1232.008, 1026.865
1233.223, 489.662
1234.438, 1511.674
1235.653, 493.651
1236.868, 714.523
1238.082, 1166.505
1239.297, 179.215
1240.511, 1030.705
1241.725, 932.634
1242.938, 334.421
1244.152, 1406.314
1245.365, 668.174
1246.578, 748.121
1247.791, 1369.976
1249.004, 371.227
1250.217, 1113.040
1251.429, 854.824
1252.642, 304.031
1253.854, 1205.773
1255.066, 447.284
1256.277, 460.103
1257.489, 1231.727
1258.700, 270.504
1259.911, 741.734
1261.122, 963.315
1262.333, 97.674
1263.544, 969.222
1264.754, 420.061
1265.964, 160.975
1267.174, 972.439
1268.384, 182.732
1269.594, 524.973
1270.803, 846.404
1272.013, 4.340
1273.222, 1037.518
1274.431, 508.151
1275.640, 149.036
1276.848, 1080.395
1278.057, 129.288
1279.265, 311.343
1280.473, 812.646
1281.681, 71.194
1282.888, 891.380
1284.096, 432.134
1285.303, 7.813
1286.510, 993.234
1287.717, 299.434
1288.924, 370.511
1290.131, 1031.453
1291.337, 70.540
1292.543, 701.133
1293.749, 871.354
1294.955, 32.082
1296.161, 952.916
1297.366, 241.683
1298.571, 312.275
1299.777, 1032.842
1300.981, 2.940
1302.186, 693.443
1303.391, 813.567
1304.595, 46.092
1305.799, 704.207
1307.003, 722.374
1308.207, 212.615
1309.411, 1162.815
1310.614, 182.626
1311.818, 522.767
1313.021, 952.881
1314.224, 112.947
1315.426, 742.982
1316.629, 832.898
1317.831, 62.812
1319.033, 972.857
1320.235, 312.709
1321.437, 352.526
1322.639, 922.645
1323.840, 232.396
1325.042, 622.133
1326.243, 811.830
1327.444, 121.497
1328.644, 971.131
1329.845, 500.715
1331.045, 90.317
1332.245, 1070.440
1333.445, 40.020
1334.645, 369.491
1335.845, 849.119
1337.044, 171.410
1338.244, 687.987
1339.443, 537.928
1340.642, 92.699
1341.840, 976.625
1343.039, 366.056
1344.237, 245.359
1345.435, 955.246
1346.633, 95.389
1347.831, 573.930
1349.029, 623.729
1350.226, 26.927
1351.424, 922.392
1352.621, 322.641
1353.818, 11.982
1355.014, 971.312
1356.211, 80.729
1357.407, 410.063
1358.604, 1019.974
1359.800, 160.694
1360.995, 748.570
1362.191, 629.817
1363.387, 80.922
1364.582, 1118.148
1365.777, 318.233
1366.972, 227.406
1368.167, 1016.588
1369.361, 76.970
1370.556, 515.771
1371.750, 904.858
1372.944, 183.520
1374.138, 900.190
1375.331, 521.073
1376.525, 1.928
1377.718, 1072.765
1378.911, 342.764
1380.104, 363.549
1381.297, 1074.175
1382.490, 124.924
1383.682, 565.662
1384.874, 866.381
1386.066, 6.848
1387.258, 857.542
1388.450, 477.819
1389.641, 198.497
1390.833, 1188.024
1392.024, 277.830
1393.215, 587.717
1394.406, 1158.380
1395.596, 13.203
1396.787, 906.447
1397.977, 975.982
1399.167, 83.591
1400.357, 990.319
1401.547, 458.432
1402.736, 198.776
1403.925, 1069.326
1405.115, 263.102
1406.304, 361.835
1407.492, 1211.812
1408.681, 112.176
1409.870, 850.519
1411.058, 966.028
1412.246, 116.428
1413.434, 1116.185
1414.622, 505.763
1415.809, 194.924
1416.997, 1135.320
1418.184, 164.158
1419.371, 554.507
1420.558, 1054.376
1421.744, 134.782
1422.931, 913.966
1424.117, 912.946
1425.303, 8.587
1426.489, 1098.957
1427.675, 471.505
1428.861, 361.685
1430.046, 1211.727
1431.231, 271.348
1432.416, 630.828
1433.601, 1156.653
1434.786, 86.513
1435.970, 1054.101
1437.155, 952.266
1438.339, 233.331
1439.523, 1382.844
1440.707, 582.387
1441.890, 431.108
1443.074, 1438.566
1444.257, 427.829
1445.440, 803.328
1446.623, 1309.281
1447.806, 328.014
1448.989, 1146.674
1450.171, 1053.615
1451.353, 369.088
1452.535, 1377.411
1453.717, 564.606
1454.899, 422.458
1456.080, 1515.785
1457.262, 413.700
1458.443, 767.155
1459.624, 1513.609
1460.805, 190.688
1461.985, 1118.164
1463.166, 1153.371
1464.346, 148.542
1465.526, 1315.670
1466.706, 781.349
1467.886, 356.424
1469.065, 1470.831
1470.245, 317.207
1471.424, 829.145
1472.603, 1335.739
1473.782, 92.015
1474.960, 1068.717
1476.139, 1062.389
1477.317, 38.509
1478.495, 1135.432
1479.673, 762.398
1480.851, 89.634
1482.029, 1187.268
1483.206, 534.837
1484.383, 202.467
1485.560, 1390.072
1486.737, 87.835
1487.914, 706.236
1489.091, 1113.851
1490.267, 120.656
1491.443, 899.454
1492.619, 898.605
1493.795, 38.196
1494.971, 1234.450
1496.146, 474.724
1497.322, 249.545
1498.497, 1205.712
1499.672, 136.645
1500.846, 566.948
1502.021, 1332.454
1503.196, 21.352
1504.370, 840.477
1505.544, 900.438
1506.718, 121.195
1507.892, 1013.155
1509.065, 584.520
1510.238, 74.131
1511.412, 1114.301
1512.585, 305.407
1513.758, 1.229
1514.930, 0.000
##END=



