##NAMES=Titanite
##RRUFFID=R050124
##IDEAL CHEMISTRY=CaTi^4+^SiO_5_
##LOCALITY=Capelinha, Minas Gerais, Brazil
##OWNER=RRUFF
##SOURCE=Carlos and Paulo Vasconcelos
##DESCRIPTION=Yellow tabular crystal
##STATUS=The identification of this mineral has been confirmed by X-ray diffraction and chemical analysis
##URL=rruff.info/R050124
##MEASURED CHEMISTRY=Ca_1.00_(Ti_0.93_Al_0.05_Fe^3+^_0.02_)Si_1.00_O_4_(O)_1.00_
##PIN_ID=M00396
##ORIENTATION=Laser parallel to -a* (-1 0 0). Fiducial mark perpendicular to laser is parallel to -b [0 -1 0]
150.080, 0.000
151.469, 25.300
152.858, 38.584
154.247, 576.973
155.635, 1207.904
157.024, 2511.839
158.411, 3415.868
159.799, 4521.454
161.187, 5322.616
162.574, 5214.854
163.961, 5014.664
165.348, 4039.298
166.734, 3526.863
168.121, 2505.945
169.507, 1815.175
170.893, 1343.331
172.278, 979.352
173.664, 1162.282
175.049, 951.290
176.434, 1285.656
177.819, 1474.762
179.203, 1798.099
180.587, 2115.776
181.971, 2208.315
183.355, 2405.633
184.739, 2247.023
186.122, 2241.867
187.505, 2029.641
188.888, 1609.980
190.271, 1792.722
191.653, 1597.613
193.035, 1974.336
194.417, 1822.612
195.799, 2282.235
197.180, 2433.036
198.562, 2544.874
199.943, 2937.633
201.324, 3091.212
202.704, 3505.523
204.084, 3480.492
205.465, 3766.049
206.844, 3942.133
208.224, 3839.668
209.603, 3732.664
210.983, 3451.852
212.362, 3617.250
213.740, 3327.692
215.119, 3159.088
216.497, 3309.284
217.875, 3198.298
219.253, 3546.197
220.631, 3473.039
222.008, 3888.877
223.385, 4123.762
224.762, 4457.742
226.139, 4801.389
227.515, 4885.875
228.891, 5451.125
230.267, 5596.373
231.643, 5891.181
233.018, 6235.092
234.394, 6027.950
235.769, 6369.971
237.144, 6101.297
238.518, 6242.031
239.893, 6352.254
241.267, 6892.021
242.641, 7451.391
244.014, 8380.394
245.388, 9379.067
246.761, 10397.438
248.134, 11655.526
249.507, 12393.353
250.879, 13240.929
252.252, 14228.268
253.624, 14165.379
254.996, 14822.269
256.367, 14588.949
257.739, 14015.420
259.110, 13001.686
260.481, 12097.750
261.852, 10843.615
263.222, 9229.286
264.592, 8090.872
265.962, 6916.458
267.332, 6175.176
268.702, 5439.002
270.071, 4850.010
271.440, 4920.568
272.809, 4422.645
274.178, 4803.977
275.546, 4635.084
276.915, 5047.643
278.283, 5291.523
279.650, 5646.480
281.018, 6387.404
282.385, 6958.273
283.752, 7909.084
285.119, 8939.833
286.486, 10350.513
287.852, 11751.124
289.218, 12471.655
290.584, 13052.104
291.950, 12522.451
293.316, 11322.667
294.681, 9582.732
296.046, 7912.616
297.411, 6282.312
298.775, 5042.914
300.140, 4393.397
301.504, 4151.761
302.868, 4118.957
304.231, 4456.961
305.595, 4850.603
306.958, 5612.662
308.321, 6393.158
309.684, 8016.395
311.047, 10147.788
312.409, 12640.842
313.771, 15637.892
315.133, 17891.090
316.495, 19723.734
317.856, 19159.553
319.217, 17817.779
320.578, 15407.482
321.939, 13288.402
323.299, 11730.354
324.660, 10183.186
326.020, 9456.771
327.380, 8761.009
328.739, 8565.816
330.099, 8441.123
331.458, 8206.861
332.817, 8402.983
334.176, 7809.437
335.534, 7616.177
336.892, 7093.168
338.251, 6550.375
339.608, 6167.767
340.966, 5705.319
342.323, 5283.009
343.681, 5380.814
345.037, 5338.714
346.394, 5696.686
347.751, 5934.704
349.107, 6422.750
350.463, 6280.810
351.819, 6218.865
353.174, 5726.904
354.530, 5024.916
355.885, 4442.888
357.240, 3546.811
358.594, 3221.678
359.949, 2729.481
361.303, 2382.214
362.657, 2137.871
364.011, 1790.448
365.365, 1724.938
366.718, 1393.340
368.071, 1373.647
369.424, 1216.858
370.777, 1009.968
372.129, 893.970
373.481, 662.839
374.833, 574.547
376.185, 308.066
377.537, 136.367
378.888, 109.567
380.239, 268.791
381.590, 430.344
382.941, 550.266
384.291, 545.584
385.642, 621.297
386.992, 571.420
388.341, 579.939
389.691, 669.858
391.040, 612.204
392.389, 681.969
393.738, 640.173
395.087, 710.804
396.435, 746.880
397.784, 635.404
399.132, 603.346
400.479, 473.696
401.827, 313.417
403.174, 179.467
404.521, 136.191
405.868, 323.636
407.215, 769.893
408.561, 1317.977
409.908, 1895.889
411.254, 2843.632
412.599, 3736.207
413.945, 5352.611
415.290, 6929.850
416.636, 8736.922
417.980, 11513.828
419.325, 13460.571
420.670, 15767.146
422.014, 16723.559
423.358, 16929.807
424.702, 16215.898
426.045, 14381.822
427.389, 12727.555
428.732, 10462.844
430.075, 8737.473
431.417, 6971.375
432.760, 5624.567
434.102, 4487.007
435.444, 3630.691
436.786, 3004.578
438.127, 2233.756
439.469, 1897.385
440.810, 1496.716
442.151, 1077.928
443.492, 951.040
444.832, 658.059
446.172, 478.976
447.512, 214.786
448.852, 112.464
450.192, 40.994
451.531, 26.634
452.870, 126.444
454.209, 152.446
455.548, 29.658
456.887, 82.053
458.225, 51.624
459.563, 21.619
460.901, 4.699
462.238, 104.564
463.576, 112.150
464.913, 166.388
466.250, 210.271
467.587, 138.838
468.923, 289.133
470.259, 336.217
471.596, 374.141
472.931, 571.906
474.267, 678.562
475.603, 937.149
476.938, 1099.686
478.273, 1384.183
479.608, 1683.616
480.942, 1799.975
482.276, 2217.252
483.611, 2497.440
484.944, 2618.537
486.278, 2914.538
487.612, 3157.439
488.945, 3341.238
490.278, 3342.934
491.611, 3537.523
492.943, 3588.003
494.276, 3608.373
495.608, 3743.632
496.940, 3462.778
498.271, 3600.811
499.603, 3475.729
500.934, 3339.532
502.265, 3401.220
503.596, 3193.791
504.927, 3294.245
506.257, 3165.583
507.587, 3205.804
508.917, 3333.906
510.247, 3273.893
511.577, 3506.761
512.906, 3653.514
514.235, 3822.148
515.564, 3956.667
516.892, 4066.070
518.221, 4321.357
519.549, 4345.529
520.877, 4479.587
522.205, 4709.531
523.533, 4806.359
524.860, 5009.075
526.187, 5064.680
527.514, 5386.171
528.841, 5686.553
530.167, 5786.822
531.493, 6356.983
532.820, 6457.034
534.145, 6996.978
535.471, 7246.813
536.796, 7575.560
538.122, 8101.895
539.447, 7985.239
540.771, 8358.135
542.096, 8340.451
543.420, 8164.808
544.744, 7989.038
546.068, 7628.106
547.392, 7549.906
548.715, 6910.788
550.039, 6465.654
551.362, 6143.775
552.684, 5547.172
554.007, 5162.855
555.329, 4683.785
556.652, 4431.140
557.973, 4077.197
559.295, 3779.983
560.617, 4087.635
561.938, 4001.084
563.259, 4505.690
564.580, 4876.173
565.901, 5561.136
567.221, 6349.104
568.541, 6927.062
569.861, 7784.976
571.181, 8472.847
572.501, 8830.678
573.820, 9538.468
575.139, 9926.220
576.458, 10563.935
577.777, 11171.609
579.095, 12039.248
580.414, 12746.855
581.732, 13364.425
583.049, 14831.963
584.367, 15759.470
585.685, 16966.943
587.002, 18644.393
588.319, 19651.809
589.636, 21459.209
590.952, 22976.582
592.268, 25143.939
593.585, 27571.289
594.900, 28808.621
596.216, 31725.951
597.532, 33623.285
598.847, 36760.613
600.162, 38647.957
601.477, 40525.285
602.792, 43303.301
604.106, 44609.645
605.420, 46465.293
606.734, 47984.992
608.048, 47661.535
609.361, 48746.008
610.675, 47444.621
611.988, 47810.480
613.301, 46752.250
614.614, 44480.316
615.926, 43959.539
617.238, 41956.484
618.550, 39780.270
619.862, 39192.641
621.174, 36589.625
622.485, 35799.051
623.797, 33097.953
625.108, 32471.135
626.418, 30293.285
627.729, 28897.119
629.039, 27914.879
630.349, 25770.727
631.659, 24738.875
632.969, 23699.043
634.279, 22097.395
635.588, 21547.879
636.897, 20056.271
638.206, 19324.762
639.515, 18243.359
640.823, 17532.080
642.131, 16880.889
643.439, 15969.806
644.747, 15308.818
646.055, 14927.911
647.362, 14067.096
648.669, 13896.351
649.976, 13105.663
651.283, 12885.054
652.589, 12384.497
653.896, 11604.021
655.202, 11713.608
656.508, 10813.252
657.814, 10942.960
659.119, 10222.716
660.424, 9922.527
661.729, 9622.389
663.034, 9202.302
664.339, 9152.268
665.643, 8772.288
666.947, 8472.363
668.251, 8242.493
669.555, 7922.779
670.859, 7812.921
672.162, 7413.220
673.465, 7163.577
674.768, 6973.992
676.071, 6614.467
677.373, 6545.002
678.676, 6265.599
679.978, 6116.256
681.280, 5876.975
682.581, 5597.758
683.883, 5558.604
685.184, 5359.515
686.485, 5010.490
687.786, 5201.530
689.087, 4642.638
690.387, 4743.812
691.687, 4545.054
692.987, 4296.363
694.287, 4232.538
695.586, 3989.219
696.886, 3836.837
698.185, 3868.648
699.484, 3547.696
700.783, 3555.011
702.081, 3285.596
703.379, 3223.474
704.677, 3099.630
705.975, 2940.072
707.273, 2933.824
708.570, 2629.871
709.868, 2770.233
711.165, 2441.903
712.462, 2298.898
713.758, 2397.230
715.055, 2174.872
716.351, 2122.816
717.647, 1986.029
718.943, 1907.469
720.238, 1877.105
721.533, 1757.855
722.829, 1744.700
724.124, 1607.625
725.418, 1563.628
726.713, 1589.709
728.007, 1328.870
729.301, 1378.109
730.595, 1259.428
731.889, 1223.828
733.182, 1180.308
734.476, 1028.869
735.769, 1001.513
737.061, 937.239
738.354, 876.048
739.647, 816.939
740.939, 697.914
742.231, 689.978
743.523, 551.127
744.814, 447.372
746.106, 473.709
747.397, 394.137
748.688, 379.659
749.978, 313.276
751.269, 150.989
752.559, 219.804
753.849, 89.715
755.139, 66.725
756.429, 56.834
757.719, 46.962
759.008, 26.333
760.297, 48.272
761.586, 10.782
762.875, 60.161
764.163, 127.401
765.451, 51.502
766.739, 187.433
768.027, 97.199
769.315, 22.772
770.602, 198.176
771.890, 33.435
773.177, 129.520
774.463, 114.473
775.750, 75.281
777.036, 150.966
778.323, 34.550
779.609, 143.361
780.894, 190.299
782.180, 75.026
783.465, 169.946
784.750, 73.063
786.035, 70.098
787.320, 118.562
788.605, 5.183
789.889, 90.118
791.173, 55.651
792.457, 29.370
793.741, 35.654
795.024, 266.166
796.307, 139.607
797.591, 286.327
798.873, 278.105
800.156, 272.629
801.439, 505.973
802.721, 551.585
804.003, 677.950
805.285, 820.024
806.566, 818.188
807.848, 1092.518
809.129, 1214.697
810.410, 1398.433
811.691, 1743.779
812.971, 1690.488
814.252, 2079.778
815.532, 2109.125
816.812, 2175.533
818.092, 2425.002
819.371, 2386.529
820.651, 2588.112
821.930, 2592.754
823.209, 2707.454
824.488, 2744.206
825.766, 2732.011
827.045, 3030.869
828.323, 2897.777
829.601, 2915.741
830.878, 3178.756
832.156, 2988.823
833.433, 3277.941
834.710, 3295.108
835.987, 3396.322
837.264, 3665.585
838.540, 3807.895
839.817, 4345.253
841.093, 4425.657
842.369, 4758.107
843.644, 5428.600
844.920, 5513.137
846.195, 6267.715
847.470, 6752.337
848.745, 7117.003
850.020, 8301.707
851.294, 8506.452
852.568, 9261.234
853.842, 9926.058
855.116, 10310.912
856.390, 11175.801
857.663, 11200.721
858.936, 11695.674
860.209, 12330.650
861.482, 12665.655
862.755, 13620.683
864.027, 14355.736
865.299, 15360.810
866.571, 17365.904
867.843, 18301.012
869.115, 19946.139
870.386, 20621.281
871.657, 21006.438
872.928, 21171.600
874.199, 20526.779
875.470, 19541.967
876.740, 18567.162
878.010, 17732.363
879.280, 17387.576
880.550, 16562.801
881.820, 16098.021
883.089, 15893.255
884.358, 14788.719
885.627, 14044.005
886.896, 12969.641
888.164, 11535.471
889.433, 10691.139
890.701, 9126.962
891.969, 8072.705
893.236, 7128.430
894.504, 6165.621
895.771, 5692.122
897.038, 5025.432
898.305, 4584.227
899.572, 4480.711
900.838, 4074.042
902.105, 4216.566
903.371, 4057.111
904.637, 4022.097
905.902, 4383.771
907.168, 4365.305
908.433, 4743.662
909.698, 4501.052
910.963, 4676.966
912.228, 4640.201
913.492, 4201.554
914.757, 3766.372
916.021, 3247.479
917.285, 2713.812
918.548, 2299.215
919.812, 1759.186
921.075, 1370.397
922.338, 1140.018
923.601, 774.597
924.864, 658.322
926.126, 453.296
927.388, 355.569
928.650, 245.998
929.912, 181.036
931.174, 94.847
932.435, 40.240
933.697, 52.204
934.958, 46.581
936.218, 107.171
937.479, 138.097
938.739, 129.225
940.000, 173.890
941.260, 165.950
942.520, 160.240
943.779, 188.336
945.039, 146.670
946.298, 211.272
947.557, 111.879
948.816, 145.567
950.074, 112.104
951.333, 41.833
952.591, 100.260
953.849, 9.524
955.107, 54.632
956.365, 25.203
957.622, 92.422
958.879, 24.470
960.136, 71.792
961.393, 62.424
962.650, 74.402
963.906, 126.652
965.162, 158.477
966.418, 182.304
967.674, 229.853
968.930, 214.479
970.185, 252.646
971.441, 273.473
972.696, 267.848
973.950, 321.026
975.205, 331.719
976.459, 358.554
977.714, 366.750
978.968, 360.732
980.222, 340.720
981.475, 318.925
982.729, 384.417
983.982, 359.517
985.235, 384.157
986.488, 455.053
987.740, 426.752
988.993, 470.453
990.245, 475.419
991.497, 432.907
992.749, 488.432
994.000, 483.607
995.252, 445.832
996.503, 496.907
997.754, 493.947
999.005, 568.054
1000.256, 576.016
1001.506, 578.954
1002.756, 664.633
1004.006, 642.351
1005.256, 586.862
1006.506, 696.114
1007.755, 675.360
1009.005, 766.391
1010.254, 800.466
1011.502, 793.381
1012.751, 734.237
1014.000, 802.035
1015.248, 757.773
1016.496, 862.453
1017.744, 761.072
1018.991, 844.631
1020.239, 876.130
1021.486, 824.569
1022.733, 880.947
1023.980, 835.264
1025.227, 759.520
1026.473, 725.715
1027.719, 528.848
1028.965, 536.919
1030.211, 432.928
1031.457, 510.875
1032.702, 405.759
1033.948, 314.581
1035.193, 361.337
1036.438, 281.030
1037.682, 250.656
1038.927, 280.214
1040.171, 256.703
1041.415, 268.124
1042.659, 275.476
1043.903, 177.760
1045.146, 212.962
1046.390, 137.088
1047.633, 156.123
1048.876, 169.069
1050.118, 137.931
1051.361, 131.701
1052.603, 131.376
1053.845, 87.958
1055.087, 127.432
1056.329, 100.810
1057.571, 106.085
1058.812, 137.258
1060.053, 99.338
1061.294, 142.319
1062.535, 149.206
1063.775, 116.008
1065.016, 149.712
1066.256, 157.332
1067.496, 184.875
1068.736, 181.339
1069.975, 192.738
1071.214, 258.064
1072.454, 230.320
1073.693, 234.530
1074.931, 284.665
1076.170, 211.749
1077.408, 268.765
1078.647, 312.716
1079.885, 323.623
1081.122, 411.812
1082.360, 405.923
1083.597, 347.354
1084.835, 425.765
1086.072, 401.389
1087.308, 423.962
1088.545, 392.975
1089.781, 353.151
1091.018, 352.493
1092.254, 301.440
1093.490, 301.294
1094.725, 315.590
1095.961, 254.667
1097.196, 229.822
1098.431, 147.705
1099.666, 143.534
1100.900, 92.626
1102.135, 58.899
1103.369, 101.906
1104.603, 86.164
1105.837, 2.713
1107.071, 71.172
1108.304, 46.463
1109.538, 21.905
1110.771, 52.788
1112.004, 30.060
1113.236, 53.968
1114.469, 50.293
1115.701, 9.558
1116.933, 4.758
1118.165, 21.891
1119.397, 37.960
1120.629, 7.969
1121.860, 13.913
1123.091, 81.792
1124.322, 59.616
1125.553, 69.383
1126.783, 89.094
1128.014, 9.750
1129.244, 54.343
1130.474, 29.879
1131.704, 54.355
1132.933, 102.775
1134.163, 63.142
1135.392, 80.454
1136.621, 73.752
1137.850, 42.956
1139.079, 86.103
1140.307, 75.229
1141.535, 126.270
1142.763, 101.267
1143.991, 124.206
1145.219, 119.095
1146.446, 90.935
1147.674, 110.723
1148.901, 102.925
1150.128, 151.149
1151.354, 127.789
1152.581, 163.380
1153.807, 210.924
1155.033, 198.422
1156.259, 249.875
1157.485, 210.283
1158.710, 326.647
1159.936, 262.967
1161.161, 317.243
1162.386, 366.475
1163.611, 377.664
1164.835, 364.809
1166.060, 448.912
1167.284, 409.971
1168.508, 581.988
1169.732, 513.963
1170.955, 647.895
1172.179, 798.786
1173.402, 867.634
1174.625, 1058.441
1175.848, 1244.207
1177.070, 1273.931
1178.293, 1361.615
1179.515, 1436.259
1180.737, 1378.862
1181.959, 1329.196
1183.181, 1108.675
1184.402, 1061.766
1185.624, 966.631
1186.845, 811.617
1188.066, 829.417
1189.286, 685.253
1190.507, 702.071
1191.727, 722.387
1192.947, 625.354
1194.167, 707.471
1195.387, 720.071
1196.607, 654.984
1197.826, 714.962
1199.045, 623.716
1200.264, 651.425
1201.483, 602.624
1202.702, 599.113
1203.920, 602.680
1205.138, 621.459
1206.356, 622.252
1207.574, 638.720
1208.792, 657.414
1210.009, 609.644
1211.227, 664.508
1212.444, 629.647
1213.661, 676.671
1214.877, 723.461
1216.094, 512.958
1217.310, 577.639
1218.526, 560.618
1219.742, 465.770
1220.958, 537.133
1222.173, 418.456
1223.389, 420.502
1224.604, 518.271
1225.819, 474.697
1227.034, 490.057
1228.248, 510.243
1229.463, 481.447
1230.677, 548.746
1231.891, 513.909
1233.105, 541.034
1234.318, 532.662
1235.532, 572.207
1236.745, 564.793
1237.958, 565.299
1239.171, 592.687
1240.384, 585.153
1241.596, 597.919
1242.809, 607.981
1244.021, 671.391
1245.233, 623.761
1246.444, 663.627
1247.656, 673.566
1248.867, 585.566
1250.079, 658.812
1251.290, 542.938
1252.500, 530.007
1253.711, 537.880
1254.921, 451.556
1256.132, 383.035
1257.342, 376.949
1258.552, 303.485
1259.761, 328.327
1260.971, 244.053
1262.180, 252.118
1263.389, 250.977
1264.598, 185.271
1265.807, 225.756
1267.015, 232.633
1268.223, 213.702
1269.432, 228.646
1270.640, 211.407
1271.847, 203.220
1273.055, 190.183
1274.262, 169.080
1275.470, 115.755
1276.677, 214.063
1277.883, 121.661
1279.090, 143.655
1280.296, 125.331
1281.503, 90.142
1282.709, 109.887
1283.915, 120.303
1285.120, 90.134
1286.326, 154.865
1287.531, 94.881
1288.736, 169.783
1289.941, 194.773
1291.146, 211.732
1292.350, 229.558
1293.555, 255.464
1294.759, 273.327
1295.963, 300.382
1297.167, 310.182
1298.370, 317.152
1299.574, 334.678
1300.777, 306.867
1301.980, 327.182
1303.183, 296.373
1304.386, 290.629
1305.588, 342.844
1306.790, 260.030
1307.993, 309.203
1309.195, 352.357
1310.396, 272.496
1311.598, 300.622
1312.799, 328.731
1314.000, 325.826
1315.201, 377.903
1316.402, 312.970
1317.603, 342.025
1318.803, 373.068
1320.003, 300.101
1321.203, 362.124
1322.403, 301.138
1323.603, 257.143
1324.802, 304.137
1326.002, 222.123
1327.201, 212.100
1328.400, 239.068
1329.599, 211.028
1330.797, 197.981
1331.995, 207.927
1333.194, 111.865
1334.392, 145.796
1335.589, 117.718
1336.787, 91.638
1337.985, 133.554
1339.182, 69.472
1340.379, 58.393
1341.576, 101.316
1342.772, 66.245
1343.969, 62.183
1345.165, 85.130
1346.361, 63.091
1347.557, 96.063
1348.753, 48.049
1349.949, 15.049
1351.144, 60.057
1352.339, 93.095
1353.534, 7.872
1354.729, 61.856
1355.924, 6.090
1357.118, 41.972
1358.312, 2.058
1359.506, 45.137
1360.700, 49.226
1361.894, 6.677
1363.088, 45.576
1364.281, 33.524
1365.474, 39.370
1366.667, 2.695
1367.860, 8.947
1369.052, 54.984
1370.245, 12.927
1371.437, 26.538
1372.629, 61.501
1373.821, 5.503
1375.013, 22.628
1376.204, 57.909
1377.395, 1.463
1378.586, 46.190
1379.777, 0.146
1380.968, 40.471
1382.159, 27.216
1383.349, 47.089
1384.539, 11.393
1385.729, 9.305
1386.919, 14.010
1388.109, 2.333
1389.298, 15.336
1390.487, 30.002
1391.676, 10.639
1392.865, 21.738
1394.054, 20.137
1395.242, 14.453
1396.431, 73.964
1397.619, 44.399
1398.807, 2.150
1399.995, 21.309
1401.182, 29.730
1402.370, 43.175
1403.557, 61.659
1404.744, 27.158
1405.931, 43.666
1407.118, 35.182
1408.304, 62.705
1409.490, 69.234
1410.676, 42.765
1411.862, 83.298
1413.048, 47.834
1414.234, 66.374
1415.419, 73.919
1416.604, 95.470
1417.789, 42.028
1418.974, 46.594
1420.159, 80.168
1421.343, 79.751
1422.528, 140.345
1423.712, 87.951
1424.896, 88.568
1426.079, 146.198
1427.263, 102.842
1428.446, 179.500
1429.629, 171.090
1430.812, 129.760
1431.995, 158.422
1433.178, 199.113
1434.360, 170.357
1435.543, 240.062
1436.725, 204.112
1437.907, 218.061
1439.088, 300.215
1440.270, 263.199
1441.451, 282.153
1442.632, 356.449
1443.813, 285.754
1444.994, 328.443
1446.175, 380.325
1447.355, 312.365
1448.535, 366.827
1449.715, 337.392
1450.895, 361.242
1452.075, 394.054
1453.255, 329.287
1454.434, 377.702
1455.613, 366.303
1456.792, 332.453
1457.971, 347.284
1459.149, 290.145
1460.328, 310.607
1461.506, 360.128
1462.684, 293.554
1463.862, 275.285
1465.040, 309.823
1466.217, 282.365
1467.395, 268.945
1468.572, 269.184
1469.749, 249.639
1470.925, 195.025
1472.102, 244.337
1473.278, 184.567
1474.455, 181.709
1475.631, 191.752
1476.807, 108.701
1477.982, 218.565
1479.158, 154.345
1480.333, 141.184
1481.508, 229.182
1482.683, 97.481
1483.858, 77.021
1485.033, 128.627
1486.207, 59.275
1487.381, 92.011
1488.555, 112.783
1489.729, 37.579
1490.903, 114.383
1492.076, 63.193
1493.250, 23.017
1494.423, 83.871
1495.596, 10.234
1496.769, 47.730
1497.941, 110.801
1499.114, 26.015
1500.286, 61.371
1501.458, 56.827
1502.630, 33.381
1503.802, 71.034
1504.973, 58.808
1506.145, 40.544
1507.316, 83.962
1508.487, 1.762
1509.657, 43.535
1510.828, 110.908
1511.999, 0.482
1513.169, 26.311
1514.339, 58.866
1515.509, 12.411
1516.678, 0.000
##END=



