##NAMES=Titanite
##RRUFFID=R050114
##IDEAL CHEMISTRY=CaTi^4+^SiO_5_
##LOCALITY=Isthak Valley Iskardu, Northern Areas Gilgit, Pakistan
##OWNER=RRUFF
##SOURCE=Syed Shah
##DESCRIPTION=Yellowish-brown fragment
##STATUS=The identification of this mineral has been confirmed by X-ray diffraction and chemical analysis
##URL=rruff.info/R050114
##MEASURED CHEMISTRY=(Ca_0.99_Na_0.01_)(Ti_0.96_Al_0.03_Fe^3+^_0.01_)Si_1.00_O_4_(O_0.95_F_0.05_)
##PIN_ID=L00251
##ORIENTATION=Laser parallel to b* (0 1 0). Fiducial mark perpendicular to laser is parallel to -c [0 0 -1]
47.490, 0.000
48.899, 17.616
50.308, 30.866
51.717, 69.297
53.126, 140.691
54.534, 161.890
55.942, 246.017
57.350, 296.603
58.758, 342.348
60.165, 344.522
61.572, 349.689
62.979, 394.341
64.386, 448.585
65.792, 458.257
67.198, 435.756
68.604, 327.406
70.010, 222.050
71.415, 218.853
72.820, 134.823
74.225, 87.938
75.630, 68.150
77.034, 4.404
78.438, 40.356
79.842, 69.185
81.246, 72.138
82.649, 92.262
84.053, 71.238
85.455, 64.213
86.858, 9.877
88.260, 66.627
89.663, 171.011
91.065, 285.070
92.466, 453.889
93.868, 499.523
95.269, 624.981
96.670, 753.227
98.070, 821.177
99.471, 871.747
100.871, 937.874
102.271, 1032.513
103.670, 1151.624
105.070, 1266.174
106.469, 1360.131
107.868, 1424.469
109.267, 1560.167
110.665, 1682.210
112.063, 1783.578
113.461, 1833.254
114.859, 2014.223
116.256, 2020.470
117.653, 2056.984
119.050, 2159.752
120.447, 2370.765
121.843, 2488.012
123.240, 2574.486
124.636, 2725.178
126.031, 2884.083
127.427, 2969.192
128.822, 3024.501
130.217, 3239.004
131.612, 3297.069
133.006, 3311.039
134.400, 3510.183
135.794, 3670.444
137.188, 3903.702
138.581, 4209.926
139.975, 4576.867
141.368, 4958.331
142.760, 5122.142
144.153, 5302.079
145.545, 5522.878
146.937, 5828.448
148.329, 6224.726
149.720, 6993.732
151.112, 7674.562
152.503, 8885.339
153.893, 10116.073
155.284, 11676.773
156.674, 13137.446
158.064, 14598.100
159.454, 15538.737
160.843, 16099.367
162.233, 15949.993
163.622, 15230.622
165.011, 14351.251
166.399, 13041.892
167.787, 11872.547
169.175, 10503.221
170.563, 9463.979
171.951, 8584.778
173.338, 8105.600
174.725, 7806.450
176.112, 7367.327
177.499, 7168.234
178.885, 6979.171
180.271, 6970.140
181.657, 6821.144
183.043, 6742.183
184.428, 6633.257
185.813, 6534.369
187.198, 6465.520
188.583, 6450.311
189.967, 6442.245
191.351, 6499.221
192.735, 6560.542
194.119, 6651.908
195.502, 6843.321
196.885, 6934.781
198.268, 7216.292
199.651, 7287.850
201.033, 7729.461
202.415, 7951.127
203.797, 8292.843
205.179, 8474.612
206.561, 8696.440
207.942, 8738.322
209.323, 9030.264
210.703, 9042.263
212.084, 9184.320
213.464, 9346.480
214.844, 9395.351
216.224, 9630.045
217.603, 9755.211
218.983, 10222.191
220.362, 10385.270
221.741, 10708.561
223.119, 10900.679
224.497, 11269.316
225.875, 11293.179
227.253, 11344.840
228.631, 11322.550
230.008, 11236.693
231.385, 11228.268
232.762, 11056.936
234.139, 10894.414
235.515, 10757.398
236.891, 10859.611
238.267, 10921.706
239.643, 10958.487
241.018, 11456.180
242.393, 11694.045
243.768, 12330.300
245.143, 12804.546
246.517, 13527.759
247.891, 13981.530
249.265, 14394.762
250.639, 14660.002
252.012, 14876.355
253.386, 14886.752
254.759, 14497.723
256.131, 14148.820
257.504, 13590.034
258.876, 13011.356
260.248, 12112.781
261.620, 11364.305
262.991, 10835.928
264.363, 9987.643
265.734, 9349.452
267.104, 8831.349
268.475, 8389.715
269.845, 8025.401
271.215, 7887.555
272.585, 7869.789
273.955, 7862.104
275.324, 8254.499
276.693, 8586.971
278.062, 9039.521
279.431, 9612.146
280.799, 10434.845
282.167, 11457.619
283.535, 12860.467
284.903, 14363.384
286.270, 16236.374
287.638, 17899.434
289.005, 19662.674
290.371, 20447.662
291.738, 20522.982
293.104, 19676.322
294.470, 17939.736
295.836, 15963.212
297.201, 13536.763
298.567, 11750.377
299.932, 9854.046
301.296, 8677.771
302.661, 7801.548
304.025, 7355.375
305.389, 7489.244
306.753, 7683.156
308.117, 8707.111
309.480, 9841.110
310.843, 11655.150
312.206, 13729.237
313.569, 16033.368
314.931, 17837.549
316.293, 18431.781
317.655, 18376.059
319.017, 16840.391
320.378, 14794.777
321.740, 12479.212
323.101, 10213.701
324.461, 8678.241
325.822, 7322.835
327.182, 6427.483
328.542, 5572.187
329.902, 5006.944
331.261, 4661.756
332.621, 4220.624
333.980, 3852.547
335.339, 3429.525
336.697, 3284.560
338.056, 2972.650
339.414, 2737.797
340.772, 2469.001
342.129, 2283.261
343.487, 2153.869
344.844, 2189.952
346.201, 2020.386
347.557, 1983.876
348.914, 2031.424
350.270, 1972.031
351.626, 1927.697
352.982, 1822.422
354.337, 1658.206
355.693, 1418.049
357.048, 1236.953
358.402, 1195.916
359.757, 1136.939
361.111, 970.023
362.465, 1004.167
363.819, 1022.372
365.173, 968.637
366.526, 1091.964
367.879, 849.353
369.232, 812.803
370.585, 706.314
371.937, 372.888
373.290, 293.523
374.642, 12.779
375.993, 86.039
377.345, 256.330
378.696, 365.708
380.047, 378.224
381.398, 584.884
382.748, 523.785
384.099, 532.896
385.449, 519.221
386.799, 466.750
388.148, 562.453
389.497, 530.376
390.847, 468.501
392.196, 416.796
393.544, 382.581
394.893, 340.621
396.241, 322.438
397.589, 244.176
398.936, 239.962
400.284, 119.792
401.631, 69.612
402.978, 168.606
404.325, 398.918
405.672, 568.324
407.018, 993.833
408.364, 1401.452
409.710, 1964.188
411.055, 2709.039
412.401, 3668.007
413.746, 5014.084
415.091, 6529.267
416.435, 8644.536
417.780, 10789.893
419.124, 13535.335
420.468, 15950.858
421.812, 18066.471
423.155, 19352.170
424.498, 19437.947
425.842, 18863.816
427.184, 16729.771
428.527, 14705.812
429.869, 12361.937
431.211, 10128.148
432.553, 8104.445
433.895, 6530.829
435.236, 5297.300
436.577, 4113.857
437.918, 3223.501
439.259, 2473.234
440.599, 1856.063
441.940, 1359.986
443.280, 860.021
444.619, 661.158
445.959, 299.434
447.298, 201.844
448.637, 42.384
449.976, 13.074
451.315, 56.083
452.653, 64.100
453.991, 37.022
455.329, 97.311
456.667, 486.767
458.004, 762.387
459.341, 1143.174
460.678, 1788.126
462.015, 2423.247
463.352, 3380.539
464.688, 4269.991
466.024, 5129.604
467.360, 6279.372
468.695, 7039.293
470.031, 7539.354
471.366, 7659.527
472.701, 7519.825
474.035, 7400.236
475.370, 6860.742
476.704, 6641.345
478.038, 6312.043
479.372, 5832.836
480.705, 5883.724
482.038, 5564.706
483.371, 5355.782
484.704, 5636.956
486.037, 5408.223
487.369, 5339.587
488.701, 5341.048
490.033, 5132.604
491.365, 5004.258
492.696, 5036.007
494.027, 4587.857
495.358, 4349.802
496.689, 4341.845
498.019, 4023.986
499.350, 3786.225
500.680, 3608.562
502.009, 3390.998
503.339, 3232.532
504.668, 3055.165
505.997, 2794.896
507.326, 2697.728
508.655, 2544.656
509.983, 2453.687
511.311, 2379.815
512.639, 2413.044
513.967, 2388.373
515.295, 2415.800
516.622, 2369.329
517.949, 2310.958
519.276, 2331.687
520.602, 2620.516
521.929, 2405.446
523.255, 2579.477
524.581, 2830.609
525.906, 2865.842
527.232, 3002.177
528.557, 3168.612
529.882, 3545.147
531.207, 3629.787
532.531, 3924.526
533.855, 3959.369
535.179, 4291.149
536.503, 4329.312
537.827, 4468.336
539.150, 4501.474
540.473, 4534.023
541.796, 4374.617
543.119, 4378.952
544.441, 4102.925
545.764, 3867.877
547.086, 3786.097
548.407, 3528.907
549.729, 3433.806
551.050, 3212.549
552.371, 3424.547
553.692, 3678.741
555.013, 4105.436
556.333, 4493.348
557.653, 5565.745
558.973, 6658.608
560.293, 8038.208
561.612, 9970.550
562.932, 11637.957
564.251, 13815.495
565.569, 15853.165
566.888, 17590.967
568.206, 19080.172
569.524, 20166.949
570.842, 21345.139
572.160, 21913.453
573.477, 22431.895
574.795, 22940.467
576.112, 23199.168
577.428, 24057.996
578.745, 24396.949
580.061, 25256.033
581.377, 26445.250
582.693, 27564.588
584.009, 28904.061
585.324, 30383.658
586.639, 31655.451
587.954, 33173.238
589.269, 34573.223
590.583, 36313.324
591.897, 38103.559
593.212, 39903.934
594.525, 41404.496
595.839, 42695.051
597.152, 44335.852
598.465, 45647.770
599.778, 47019.242
601.091, 46835.219
602.403, 47448.352
603.716, 47520.711
605.028, 47181.641
606.339, 46662.117
607.651, 45797.133
608.962, 44044.602
610.273, 42961.645
611.584, 41119.465
612.895, 39569.027
614.205, 37978.672
615.515, 35767.359
616.825, 34236.727
618.135, 32826.020
619.444, 30466.152
620.754, 29666.438
622.063, 27774.824
623.372, 26423.398
624.680, 25220.104
625.989, 23816.990
627.297, 22900.053
628.605, 21767.943
629.912, 20747.518
631.220, 19965.039
632.527, 18829.037
633.834, 18423.273
635.141, 17267.479
636.447, 16651.785
637.754, 16066.203
639.060, 15440.732
640.366, 14605.368
641.671, 14000.121
642.977, 13674.993
644.282, 12909.993
645.587, 12555.111
646.892, 12080.353
648.196, 11475.704
649.501, 11021.170
650.805, 10796.741
652.109, 10212.415
653.412, 10068.192
654.716, 9454.073
656.019, 9220.054
657.322, 8886.136
658.625, 8392.317
659.927, 8178.600
661.230, 8014.979
662.532, 7601.461
663.834, 7378.039
665.135, 7054.717
666.437, 6861.491
667.738, 6578.366
669.039, 6235.333
670.340, 6162.399
671.640, 5749.561
672.940, 5876.820
674.241, 5344.174
675.540, 5261.623
676.840, 5059.165
678.139, 4926.802
679.439, 4734.533
680.738, 5162.356
682.036, 5430.275
683.335, 4548.284
684.633, 4026.385
685.931, 3774.578
687.229, 3822.861
688.527, 3661.236
689.824, 3389.701
691.121, 3358.256
692.418, 3069.920
693.715, 3020.708
695.012, 2967.662
696.308, 2781.804
697.604, 2663.137
698.900, 2718.711
700.195, 2418.512
701.491, 2451.540
702.786, 2375.790
704.081, 2157.250
705.376, 2094.941
706.670, 1986.856
707.964, 1947.978
709.259, 1845.292
710.552, 1777.791
711.846, 1689.461
713.139, 1624.298
714.433, 1572.285
715.726, 1386.417
717.018, 1447.666
718.311, 1312.021
719.603, 1225.454
720.895, 1225.962
722.187, 1056.545
723.479, 1037.204
724.770, 1016.936
726.061, 942.744
727.352, 946.624
728.643, 828.580
729.934, 860.612
731.224, 649.723
732.514, 759.913
733.804, 651.184
735.094, 561.534
736.383, 657.967
737.672, 506.479
738.961, 429.075
740.250, 490.763
741.539, 432.552
742.827, 353.451
744.115, 418.474
745.403, 266.609
746.691, 152.885
747.978, 223.303
749.265, 162.856
750.552, 146.560
751.839, 13.411
753.126, 25.603
754.412, 6.503
755.698, 109.286
756.984, 41.996
758.270, 222.617
759.555, 191.225
760.840, 177.818
762.125, 256.397
763.410, 299.011
764.695, 316.700
765.979, 331.468
767.263, 321.326
768.547, 318.290
769.831, 296.361
771.114, 304.534
772.398, 298.812
773.681, 310.195
774.964, 308.689
776.246, 270.297
777.529, 270.002
778.811, 231.804
780.093, 231.687
781.375, 157.652
782.656, 57.667
783.937, 86.688
785.219, 43.729
786.499, 49.227
787.780, 34.218
789.060, 101.262
790.341, 187.354
791.621, 206.744
792.901, 305.632
794.180, 281.715
795.459, 432.054
796.739, 375.776
798.017, 300.776
799.296, 443.188
800.575, 355.604
801.853, 414.145
803.131, 499.915
804.409, 473.108
805.686, 441.178
806.964, 458.705
808.241, 491.718
809.518, 619.775
810.795, 603.301
812.071, 728.849
813.347, 780.140
814.623, 904.010
815.899, 1023.623
817.175, 1113.255
818.450, 1323.908
819.726, 1417.580
821.001, 1660.270
822.275, 1800.977
823.550, 2051.702
824.824, 2204.442
826.098, 2464.198
827.372, 2717.970
828.646, 2907.756
829.920, 3059.556
831.193, 3225.370
832.466, 3407.195
833.739, 3704.035
835.011, 3872.887
836.284, 4111.749
837.556, 4393.623
838.828, 4848.507
840.100, 5033.399
841.371, 5488.301
842.642, 5923.211
843.914, 6588.127
845.184, 7243.049
846.455, 7897.978
847.726, 8872.911
848.996, 9597.848
850.266, 10672.787
851.536, 11807.728
852.805, 12992.670
854.075, 14287.606
855.344, 15992.545
856.613, 17727.482
857.881, 20162.408
859.150, 22307.334
860.418, 25365.977
861.686, 28177.150
862.954, 32482.049
864.222, 36406.938
865.489, 41281.809
866.756, 47246.676
868.023, 52101.523
869.290, 57256.352
870.557, 59941.184
871.823, 60805.980
873.089, 60820.770
874.355, 60835.543
875.621, 60850.301
876.886, 60055.031
878.152, 59759.938
879.417, 57414.703
880.682, 57910.082
881.946, 56315.770
883.211, 56762.293
884.475, 55178.973
885.739, 53586.117
887.003, 50543.012
888.266, 47481.059
889.530, 44248.180
890.793, 40046.551
892.056, 35386.598
893.318, 31679.131
894.581, 27943.725
895.843, 24871.643
897.105, 22197.123
898.367, 20339.691
899.629, 18802.408
900.890, 17133.830
902.152, 17079.039
903.413, 16003.669
904.673, 15526.526
905.934, 15416.275
907.194, 15306.334
908.454, 14751.141
909.714, 14286.564
910.974, 13523.645
912.234, 12609.738
913.493, 11195.448
914.752, 9723.453
916.011, 8204.642
917.270, 6853.799
918.528, 5756.186
919.786, 4732.705
921.044, 3793.023
922.302, 3282.370
923.560, 2637.115
924.817, 2227.019
926.074, 1884.148
927.331, 1569.194
928.588, 1388.218
929.844, 1058.123
931.101, 931.975
932.357, 784.708
933.613, 645.345
934.868, 597.225
936.124, 464.483
937.379, 403.862
938.634, 360.844
939.889, 218.647
941.144, 218.551
942.398, 171.415
943.652, 124.237
944.906, 113.010
946.160, 54.736
947.414, 45.825
948.667, 2.993
949.920, 32.500
951.173, 33.935
952.426, 60.296
953.678, 94.593
954.931, 134.834
956.183, 151.026
957.435, 243.170
958.686, 256.271
959.938, 250.329
961.189, 378.344
962.440, 454.316
963.691, 541.246
964.941, 643.132
966.192, 793.975
967.442, 888.775
968.692, 1000.531
969.942, 1186.244
971.191, 1416.912
972.441, 1405.536
973.690, 1471.114
974.939, 1532.647
976.187, 1435.136
977.436, 1337.580
978.684, 1171.978
979.932, 1050.330
981.180, 893.779
982.428, 813.086
983.675, 726.500
984.922, 577.863
986.169, 637.173
987.416, 495.358
988.663, 439.455
989.909, 497.644
991.155, 408.724
992.401, 448.783
993.647, 504.618
994.893, 468.434
996.138, 471.173
997.383, 546.863
998.628, 546.504
999.873, 598.096
1001.117, 559.640
1002.362, 572.134
1003.606, 598.580
1004.850, 594.976
1006.093, 584.323
1007.337, 647.620
1008.580, 607.867
1009.823, 656.065
1011.066, 592.213
1012.308, 585.312
1013.551, 539.360
1014.793, 544.358
1016.035, 603.306
1017.277, 570.204
1018.518, 550.052
1019.760, 618.849
1021.001, 589.596
1022.242, 618.292
1023.483, 531.938
1024.723, 477.533
1025.964, 469.078
1027.204, 333.572
1028.444, 351.013
1029.683, 276.401
1030.923, 238.733
1032.162, 165.003
1033.401, 152.206
1034.640, 119.339
1035.879, 133.398
1037.117, 68.385
1038.355, 119.290
1039.593, 52.121
1040.831, 6.865
1042.069, 33.495
1043.306, 66.979
1044.544, 120.607
1045.781, 82.405
1047.017, 196.354
1048.254, 199.512
1049.490, 179.882
1050.726, 241.453
1051.962, 233.256
1053.198, 207.288
1054.434, 174.531
1055.669, 171.962
1056.904, 159.583
1058.139, 123.364
1059.374, 137.301
1060.608, 98.360
1061.843, 84.528
1063.077, 33.798
1064.311, 78.875
1065.544, 139.543
1066.778, 207.218
1068.011, 374.911
1069.244, 422.632
1070.477, 620.382
1071.710, 790.158
1072.942, 1027.961
1074.174, 1366.792
1075.406, 1760.656
1076.638, 2176.552
1077.870, 2668.474
1079.101, 3094.438
1080.332, 3676.437
1081.563, 4301.458
1082.794, 4919.504
1084.025, 5644.548
1085.255, 6098.585
1086.485, 6090.628
1087.715, 6209.648
1088.945, 5913.625
1090.175, 5790.566
1091.404, 5227.223
1092.633, 4708.404
1093.862, 4194.414
1095.091, 3451.190
1096.319, 2879.598
1097.548, 2397.748
1098.776, 1960.512
1100.004, 1660.278
1101.231, 1416.923
1102.459, 1281.332
1103.686, 1219.326
1104.913, 937.430
1106.140, 954.071
1107.367, 818.722
1108.593, 745.299
1109.819, 750.900
1111.046, 646.462
1112.271, 541.984
1113.497, 609.466
1114.722, 518.908
1115.948, 574.310
1117.173, 430.672
1118.398, 523.994
1119.622, 545.276
1120.847, 512.519
1122.071, 479.723
1123.295, 512.888
1124.519, 450.014
1125.742, 479.102
1126.966, 484.152
1128.189, 398.163
1129.412, 421.136
1130.635, 385.070
1131.857, 385.965
1133.080, 387.820
1134.302, 406.637
1135.524, 416.416
1136.746, 383.158
1137.967, 397.861
1139.188, 391.527
1140.410, 443.156
1141.631, 426.749
1142.851, 517.307
1144.072, 501.829
1145.292, 570.317
1146.512, 624.771
1147.732, 709.190
1148.952, 830.575
1150.172, 922.927
1151.391, 1051.246
1152.610, 1252.530
1153.829, 1449.780
1155.048, 1732.997
1156.266, 2042.179
1157.484, 2336.326
1158.702, 2703.438
1159.920, 2959.515
1161.138, 3389.556
1162.356, 3832.561
1163.573, 4216.530
1164.790, 4941.462
1166.007, 5686.358
1167.224, 6584.218
1168.440, 7724.044
1169.656, 8907.830
1170.872, 10291.586
1172.088, 11805.306
1173.304, 12968.988
1174.519, 14322.446
1175.735, 14415.986
1176.950, 14458.866
1178.165, 14241.381
1179.379, 12953.000
1180.594, 12024.412
1181.808, 11055.297
1183.022, 9776.373
1184.236, 9156.241
1185.449, 8296.995
1186.663, 7956.417
1187.876, 7644.121
1189.089, 7499.268
1190.302, 7812.294
1191.515, 7911.939
1192.727, 8013.967
1193.939, 8318.837
1195.151, 8213.502
1196.363, 8209.404
1197.575, 8181.446
1198.786, 7904.017
1199.997, 7708.234
1201.208, 7444.533
1202.419, 7371.024
1203.630, 7428.321
1204.840, 7156.931
1206.051, 7252.705
1207.261, 7397.965
1208.470, 7340.137
1209.680, 7237.539
1210.889, 6950.237
1212.099, 6521.812
1213.308, 6260.165
1214.516, 5599.753
1215.725, 5180.526
1216.933, 4901.287
1218.142, 4452.079
1219.350, 4372.951
1220.557, 4265.870
1221.765, 3891.207
1222.972, 4001.852
1224.180, 3944.033
1225.387, 3946.949
1226.593, 4006.825
1227.800, 4016.427
1229.006, 4055.023
1230.213, 4032.624
1231.419, 4021.374
1232.624, 3910.914
1233.830, 3942.355
1235.035, 3836.255
1236.241, 3757.112
1237.446, 3691.377
1238.650, 3593.767
1239.855, 3616.927
1241.059, 3430.651
1242.264, 3389.982
1243.468, 3339.925
1244.671, 3167.458
1245.875, 3074.966
1247.078, 2789.015
1248.282, 2660.784
1249.485, 2526.246
1250.687, 2279.624
1251.890, 2153.431
1253.092, 1990.552
1254.295, 1742.597
1255.497, 1709.582
1256.699, 1526.274
1257.900, 1433.108
1259.102, 1275.699
1260.303, 1177.283
1261.504, 1096.862
1262.705, 1044.436
1263.905, 926.004
1265.106, 919.568
1266.306, 775.127
1267.506, 751.683
1268.706, 775.235
1269.905, 621.784
1271.105, 647.330
1272.304, 623.875
1273.503, 547.274
1274.702, 510.768
1275.900, 495.109
1277.099, 465.453
1278.297, 458.941
1279.495, 456.235
1280.693, 459.708
1281.891, 475.066
1283.088, 491.730
1284.285, 525.818
1285.482, 559.375
1286.679, 603.719
1287.876, 651.301
1289.072, 720.042
1290.268, 755.620
1291.464, 827.202
1292.660, 876.790
1293.856, 934.370
1295.051, 1033.874
1296.247, 1020.316
1297.442, 1099.695
1298.637, 1116.960
1299.831, 1064.127
1301.026, 1152.164
1302.220, 1034.042
1303.414, 1073.772
1304.608, 956.353
1305.802, 952.861
1306.995, 971.290
1308.188, 881.666
1309.381, 866.015
1310.574, 847.341
1311.767, 785.646
1312.960, 846.931
1314.152, 790.196
1315.344, 671.439
1316.536, 736.660
1317.728, 689.856
1318.919, 702.028
1320.110, 692.173
1321.301, 554.292
1322.492, 605.385
1323.683, 610.452
1324.874, 523.491
1326.064, 545.502
1327.254, 537.481
1328.444, 510.428
1329.634, 550.339
1330.823, 497.219
1332.013, 528.081
1333.202, 570.944
1334.391, 544.825
1335.580, 572.745
1336.768, 607.695
1337.956, 605.706
1339.145, 611.779
1340.333, 651.907
1341.520, 613.106
1342.708, 677.377
1343.895, 655.711
1345.083, 668.103
1346.270, 668.554
1347.456, 607.068
1348.643, 601.640
1349.829, 587.276
1351.016, 459.970
1352.202, 471.722
1353.387, 402.525
1354.573, 356.366
1355.759, 344.249
1356.944, 258.182
1358.129, 250.687
1359.314, 229.747
1360.498, 157.897
1361.683, 135.150
1362.867, 120.979
1364.051, 38.281
1365.235, 3.577
1366.419, 49.177
1367.602, 75.812
1368.785, 4.865
1369.968, 84.820
1371.151, 67.854
1372.334, 19.002
1373.517, 101.274
1374.699, 63.675
1375.881, 62.173
1377.063, 68.724
1378.245, 67.311
1379.426, 104.917
1380.608, 101.524
1381.789, 106.128
1382.970, 77.726
1384.150, 102.315
1385.331, 110.897
1386.511, 55.470
1387.691, 38.034
1388.871, 2.411
1390.051, 56.132
1391.231, 38.338
1392.410, 0.177
1393.589, 11.320
1394.768, 79.833
1395.947, 92.356
1397.126, 105.891
1398.304, 175.436
1399.483, 140.992
1400.661, 263.560
1401.838, 250.145
1403.016, 284.752
1404.194, 311.388
1405.371, 393.063
1406.548, 461.781
1407.725, 523.546
1408.901, 539.362
1410.078, 647.230
1411.254, 725.154
1412.430, 801.138
1413.606, 909.184
1414.782, 990.848
1415.958, 1025.482
1417.133, 1176.742
1418.308, 1262.082
1419.483, 1351.506
1420.658, 1519.016
1421.832, 1622.612
1423.007, 1720.294
1424.181, 1906.063
1425.355, 1975.916
1426.529, 2222.855
1427.702, 2323.878
1428.876, 2407.986
1430.049, 2655.178
1431.222, 2757.451
1432.395, 2879.718
1433.567, 3064.478
1434.740, 3087.756
1435.912, 3305.111
1437.084, 3306.218
1438.256, 3374.344
1439.428, 3666.707
1440.599, 3532.377
1441.770, 3523.782
1442.942, 3703.351
1444.112, 3577.023
1445.283, 3625.798
1446.454, 3600.738
1447.624, 3491.286
1448.794, 3493.810
1449.964, 3433.046
1451.134, 3185.207
1452.303, 3243.710
1453.473, 3120.603
1454.642, 2980.230
1455.811, 2989.569
1456.980, 2742.590
1458.148, 2616.262
1459.317, 2610.552
1460.485, 2317.417
1461.653, 2277.813
1462.821, 2192.689
1463.989, 1980.985
1465.156, 1874.638
1466.323, 1655.573
1467.490, 1552.708
1468.657, 1514.966
1469.824, 1230.714
1470.991, 1104.671
1472.157, 1070.431
1473.323, 942.689
1474.489, 881.072
1475.655, 762.679
1476.820, 645.820
1477.986, 606.921
1479.151, 507.906
1480.316, 431.797
1481.481, 421.657
1482.645, 325.578
1483.810, 313.698
1484.974, 229.225
1486.138, 178.464
1487.302, 147.758
1488.465, 140.175
1489.629, 89.409
1490.792, 85.303
1491.955, 24.054
1493.118, 42.976
1494.281, 26.435
1495.443, 50.727
1496.606, 6.016
1497.768, 8.209
1498.930, 26.785
1500.091, 55.753
1501.253, 9.178
1502.414, 0.000
##END=



