##NAMES=Titanite
##RRUFFID=R050114
##IDEAL CHEMISTRY=CaTi^4+^SiO_5_
##LOCALITY=Isthak Valley Iskardu, Northern Areas Gilgit, Pakistan
##OWNER=RRUFF
##SOURCE=Syed Shah
##DESCRIPTION=Yellowish-brown fragment
##STATUS=The identification of this mineral has been confirmed by X-ray diffraction and chemical analysis
##URL=rruff.info/R050114
##MEASURED CHEMISTRY=(Ca_0.99_Na_0.01_)(Ti_0.96_Al_0.03_Fe^3+^_0.01_)Si_1.00_O_4_(O_0.95_F_0.05_)
##PIN_ID=L00251
##ORIENTATION=Laser parallel to b* (0 1 0). Fiducial mark perpendicular to laser is parallel to -c [0 0 -1]
47.490, 0.000
48.899, 17.710
50.308, 100.175
51.717, 123.733
53.126, 171.159
54.534, 210.074
55.942, 261.929
57.350, 329.753
58.758, 342.709
60.165, 394.263
61.572, 482.266
62.979, 597.577
64.386, 624.604
65.792, 535.222
67.198, 427.287
68.604, 313.351
70.010, 221.331
71.415, 136.124
72.820, 47.668
74.225, 21.062
75.630, 80.123
77.034, 132.606
78.438, 151.617
79.842, 170.269
81.246, 129.674
82.649, 84.941
84.053, 23.174
85.455, 25.529
86.858, 187.076
88.260, 374.381
89.663, 636.365
91.065, 925.922
92.466, 1322.946
93.868, 1782.398
95.269, 2061.352
96.670, 2587.944
98.070, 3126.264
99.471, 3464.284
100.871, 4055.879
102.271, 4637.932
103.670, 5030.338
105.070, 5473.004
106.469, 5928.854
107.868, 6402.815
109.267, 6878.828
110.665, 7176.834
112.063, 7579.785
113.461, 7779.638
114.859, 8150.348
116.256, 8451.882
117.653, 8634.206
119.050, 8907.291
120.447, 9311.105
121.843, 9635.627
123.240, 9990.831
124.636, 10346.695
126.031, 10633.197
127.427, 11010.326
128.822, 10978.058
130.217, 11246.381
131.612, 11045.198
133.006, 10854.262
134.400, 10743.544
135.794, 10923.054
137.188, 10812.911
138.581, 11073.596
139.975, 11175.555
141.368, 11439.333
142.760, 11535.263
144.153, 11663.508
145.545, 12043.909
146.937, 12356.036
148.329, 12839.440
149.720, 13653.402
151.112, 14577.343
152.503, 16041.230
153.893, 17705.088
155.284, 19738.924
156.674, 21792.770
158.064, 23566.639
159.454, 25070.535
160.843, 25634.479
162.233, 25678.484
163.622, 24772.557
165.011, 23896.707
166.399, 22360.938
167.787, 21365.273
169.175, 19829.707
170.563, 18974.248
171.951, 18308.910
173.338, 18073.686
174.725, 18148.592
176.112, 17833.631
177.499, 17828.801
178.885, 17984.115
180.271, 18009.574
181.657, 17925.174
183.043, 18090.930
184.428, 18006.826
185.813, 17742.873
187.198, 17919.076
188.583, 18005.430
189.967, 18011.941
191.351, 18678.611
192.735, 18955.439
194.119, 19342.422
195.502, 19869.576
196.885, 20446.889
198.268, 21204.367
199.651, 21742.012
201.033, 22599.822
202.415, 23297.805
203.797, 24205.957
205.179, 24584.279
206.561, 25312.777
207.942, 25591.449
209.323, 25920.295
210.703, 26069.318
212.084, 26048.521
213.464, 26107.895
214.844, 26249.783
216.224, 26481.506
217.603, 26613.135
218.983, 27104.596
220.362, 27365.898
221.741, 27887.023
223.119, 28188.252
224.497, 28798.973
225.875, 28679.562
227.253, 29105.586
228.631, 29056.070
230.008, 28897.922
231.385, 28880.900
232.762, 28217.520
234.139, 28107.811
235.515, 28056.012
236.891, 28431.543
238.267, 27950.262
239.643, 28724.951
241.018, 30154.107
242.393, 30691.193
243.768, 32515.322
245.143, 33711.043
246.517, 34852.594
247.891, 35881.758
249.265, 36666.969
250.639, 36787.145
252.012, 36702.613
253.386, 36048.438
254.759, 34794.543
256.131, 33680.961
257.504, 31547.689
258.876, 29684.701
260.248, 27472.002
261.620, 25389.582
262.991, 23487.439
264.363, 21355.555
265.734, 19783.938
267.104, 18402.562
268.475, 17321.439
269.845, 15930.557
271.215, 15019.903
272.585, 14539.482
273.955, 13649.287
275.324, 13459.310
276.693, 12919.549
278.062, 12650.005
279.431, 12560.664
280.799, 12441.534
282.167, 12202.604
283.535, 12193.875
284.903, 12065.343
286.270, 11827.004
287.638, 11648.854
289.005, 11250.896
290.371, 10793.122
291.738, 10445.534
293.104, 10188.129
294.470, 10440.901
295.836, 11013.852
297.201, 11766.977
298.567, 12770.277
299.932, 13533.755
301.296, 14287.410
302.661, 14691.239
304.025, 14785.238
305.389, 15079.404
306.753, 15133.729
308.117, 15548.204
309.480, 15632.823
310.843, 16137.569
312.206, 16192.443
313.569, 16357.439
314.931, 16582.555
316.293, 16397.789
317.655, 16223.145
319.017, 15628.622
320.378, 15424.226
321.740, 15089.950
323.101, 14965.800
324.461, 15181.775
325.822, 15497.877
327.182, 15794.107
328.542, 16230.461
329.902, 16606.949
331.261, 16763.561
332.621, 17110.301
333.980, 17147.176
335.339, 16494.176
336.697, 16051.309
338.056, 15308.569
339.414, 14395.967
340.772, 13343.490
342.129, 12401.150
343.487, 11528.939
344.844, 10836.863
346.201, 10014.922
347.557, 9513.111
348.914, 8841.435
350.270, 8509.892
351.626, 8028.483
352.982, 7877.210
354.337, 7646.073
355.693, 7495.068
357.048, 7264.200
358.402, 7123.466
359.757, 7072.869
361.111, 6692.407
362.465, 6552.080
363.819, 6251.889
365.173, 5791.835
366.526, 5591.916
367.879, 5102.132
369.232, 4732.485
370.585, 4292.976
371.937, 3833.599
373.290, 3360.358
374.642, 2881.255
375.993, 2347.287
377.345, 1969.453
378.696, 1519.796
380.047, 1184.314
381.398, 782.010
382.748, 526.885
384.099, 359.941
385.449, 75.179
386.799, 101.572
388.148, 143.869
389.497, 255.239
390.847, 542.584
392.196, 576.030
393.544, 784.589
394.893, 1030.356
396.241, 1088.445
397.589, 1224.886
398.936, 1351.746
400.284, 1412.084
401.631, 1366.929
402.978, 1473.250
404.325, 1294.092
405.672, 1265.356
407.018, 1109.025
408.364, 1024.021
409.710, 724.305
411.055, 404.752
412.401, 57.231
413.746, 344.396
415.091, 842.200
416.435, 1568.181
417.780, 2343.338
419.124, 3347.669
420.468, 4136.175
421.812, 5004.856
423.155, 5783.709
424.498, 5932.737
425.842, 5921.937
427.184, 5621.308
428.527, 5330.851
429.869, 4860.565
431.211, 4460.451
432.553, 4100.506
433.895, 3840.734
435.236, 4021.130
436.577, 3901.697
437.918, 3932.433
439.259, 4103.337
440.599, 4194.411
441.940, 4375.653
443.280, 4627.066
444.619, 4648.646
445.959, 4930.394
447.298, 5442.312
448.637, 5754.396
449.976, 6316.657
451.315, 7099.093
452.653, 8031.699
453.991, 8994.493
455.329, 10227.463
456.667, 11800.616
458.004, 13803.960
459.341, 15667.500
460.678, 18151.232
462.015, 20505.182
463.352, 23099.342
464.688, 25433.699
466.024, 27358.270
467.360, 28273.039
468.695, 27598.020
470.031, 26243.217
471.366, 23738.617
472.701, 20104.238
474.035, 17040.080
475.370, 13786.147
476.704, 11052.440
478.038, 8618.954
479.372, 6755.677
480.705, 5352.609
482.038, 4099.750
483.371, 3097.104
484.704, 2601.658
486.037, 2066.415
487.369, 1646.395
488.701, 1654.580
490.033, 1540.979
491.365, 1493.602
492.696, 1468.444
494.027, 1409.510
495.358, 1596.800
496.689, 1722.328
498.019, 1720.097
499.350, 1779.107
500.680, 1930.363
502.009, 2095.841
503.339, 2204.567
504.668, 2374.518
505.997, 2529.701
507.326, 2867.117
508.655, 3006.774
509.983, 3270.673
511.311, 3442.798
512.639, 3825.155
513.967, 4087.738
515.295, 4350.534
516.622, 4703.549
517.949, 4986.780
519.276, 5530.230
520.602, 6133.898
521.929, 6357.763
523.255, 6901.822
524.581, 7676.078
525.906, 8310.524
527.232, 9115.170
528.557, 9850.001
529.882, 10985.021
531.207, 11750.222
532.531, 12905.601
533.855, 13831.148
535.179, 15146.864
536.503, 15812.744
537.827, 16958.791
539.150, 17604.996
540.473, 18281.354
541.796, 18837.871
543.119, 19574.545
544.441, 19701.373
545.764, 19847.988
547.086, 20735.121
548.407, 20272.439
549.729, 20114.297
551.050, 19381.391
552.371, 18766.789
553.692, 18060.977
555.013, 17031.928
556.333, 15769.630
557.653, 14999.526
558.973, 13872.193
560.293, 12711.548
561.612, 11783.796
562.932, 10570.082
564.251, 9207.154
565.569, 8376.227
566.888, 7234.785
568.206, 6618.524
569.524, 6038.907
570.842, 5936.748
572.160, 6031.838
573.477, 6542.457
574.795, 7223.273
576.112, 7894.285
577.428, 9165.489
578.745, 10256.891
580.061, 11568.482
581.377, 13260.267
582.693, 14962.245
584.009, 16584.410
585.324, 18716.770
586.639, 20419.312
587.954, 22752.051
589.269, 24864.973
590.583, 26948.080
591.897, 29601.379
593.212, 31614.857
594.525, 34358.516
595.839, 36022.367
597.152, 38296.398
598.465, 40440.609
599.778, 42414.996
601.091, 43319.566
602.403, 44244.309
603.716, 44849.238
605.028, 45144.340
606.339, 45139.621
607.651, 44646.062
608.962, 43742.738
610.273, 42709.129
611.584, 41168.156
612.895, 39675.273
614.205, 38264.066
615.515, 36305.547
616.825, 34807.086
618.135, 33649.691
619.444, 31304.891
620.754, 30551.232
622.063, 28594.670
623.372, 27131.285
624.680, 26225.912
625.989, 24613.146
627.297, 23879.324
628.605, 22776.746
629.912, 21445.510
631.220, 20556.516
632.527, 19326.871
633.834, 18998.971
635.141, 17878.395
636.447, 17136.484
637.754, 16534.283
639.060, 15832.474
640.366, 14891.910
641.671, 14477.947
642.977, 13914.586
644.282, 13176.852
645.587, 12814.778
646.892, 12404.549
648.196, 11697.113
649.501, 11308.548
650.805, 11001.400
652.109, 10414.602
653.412, 10190.929
654.716, 9878.522
656.019, 9526.318
657.322, 9265.084
658.625, 8758.297
659.927, 8548.225
661.230, 8272.523
662.532, 7898.992
663.834, 7805.698
665.135, 7434.669
666.437, 7243.318
667.738, 7049.387
669.039, 6796.298
670.340, 6542.318
671.640, 6194.939
672.940, 6289.692
674.241, 5873.696
675.540, 5818.392
676.840, 5563.608
678.139, 5363.640
679.439, 5183.095
680.738, 4983.748
682.036, 4773.485
683.335, 4573.511
684.633, 4494.000
685.931, 4278.781
687.229, 4218.125
688.527, 4104.805
689.824, 3851.860
691.121, 3753.930
692.418, 3555.829
693.715, 3551.027
695.012, 3357.073
696.308, 3251.018
697.604, 3116.862
698.900, 3081.765
700.195, 2959.188
701.491, 2899.735
702.786, 2797.816
704.081, 2571.957
705.376, 2536.208
706.670, 2322.591
707.964, 2377.166
709.259, 2138.944
710.552, 2155.967
711.846, 1973.294
713.139, 1963.938
714.433, 1871.931
715.726, 1689.303
717.018, 1693.066
718.311, 1575.207
719.603, 1526.752
720.895, 1424.654
722.187, 1406.905
723.479, 1319.463
724.770, 1271.307
726.061, 1111.363
727.352, 1090.559
728.643, 1010.817
729.934, 980.101
731.224, 929.408
732.514, 934.736
733.804, 864.086
735.094, 829.840
736.383, 792.844
737.672, 723.250
738.961, 655.671
740.250, 581.107
741.539, 588.558
742.827, 525.289
744.115, 539.496
745.403, 456.981
746.691, 400.477
747.978, 362.979
749.265, 271.489
750.552, 250.887
751.839, 229.526
753.126, 189.049
754.412, 196.573
755.698, 174.095
756.984, 192.615
758.270, 120.132
759.555, 30.643
760.840, 75.146
762.125, 55.360
763.410, 57.891
764.695, 32.448
765.979, 117.030
767.263, 49.665
768.547, 96.333
769.831, 142.051
771.114, 134.845
772.398, 146.716
773.681, 183.675
774.964, 194.745
776.246, 136.933
777.529, 183.013
778.811, 140.897
780.093, 177.257
781.375, 151.313
782.656, 164.518
783.937, 179.483
785.219, 209.993
786.499, 190.991
787.780, 213.018
789.060, 159.790
790.341, 129.384
791.621, 116.882
792.901, 116.213
794.180, 130.062
795.459, 64.800
796.739, 67.822
798.017, 155.896
799.296, 75.677
800.575, 100.129
801.853, 137.583
803.131, 112.144
804.409, 127.433
805.686, 125.779
806.964, 168.548
808.241, 181.805
809.518, 178.235
810.795, 186.982
812.071, 91.935
813.347, 192.512
814.623, 96.546
815.899, 124.919
817.175, 122.692
818.450, 152.846
819.726, 141.900
821.001, 95.062
822.275, 102.941
823.550, 83.234
824.824, 23.726
826.098, 52.389
827.372, 35.241
828.646, 41.162
829.920, 44.385
831.193, 46.245
832.466, 63.716
833.739, 46.017
835.011, 70.234
836.284, 70.239
837.556, 88.118
838.828, 111.841
840.100, 130.429
841.371, 192.954
842.642, 228.309
843.914, 290.545
845.184, 311.681
846.455, 304.719
847.726, 405.657
848.996, 451.501
850.266, 519.255
851.536, 596.918
852.805, 650.490
854.075, 734.969
855.344, 780.357
856.613, 953.651
857.881, 1058.850
859.150, 1092.952
860.418, 1257.956
861.686, 1337.862
862.954, 1630.667
864.222, 1797.370
865.489, 2004.970
866.756, 2346.464
868.023, 2613.851
869.290, 2866.129
870.557, 3066.740
871.823, 3270.347
873.089, 3338.284
874.355, 3425.103
875.621, 3442.804
876.886, 3553.382
878.152, 3758.837
879.417, 3834.168
880.682, 4021.374
881.946, 4140.454
883.211, 4389.408
884.475, 4514.309
885.739, 4536.228
887.003, 4486.985
888.266, 4281.779
889.530, 4162.499
890.793, 3918.143
892.056, 3552.766
893.318, 3232.285
894.581, 2888.849
895.843, 2623.650
897.105, 2447.025
898.367, 2340.609
899.629, 2308.794
900.890, 2316.163
902.152, 2376.245
903.413, 2553.704
904.673, 2691.609
905.934, 2902.338
907.194, 3268.927
908.454, 3470.321
909.714, 3628.728
910.974, 3703.860
912.234, 3677.767
913.493, 3527.643
914.752, 3198.179
916.011, 2866.510
917.270, 2510.168
918.528, 2189.061
919.786, 1876.816
921.044, 1666.038
922.302, 1456.308
923.560, 1256.614
924.817, 1111.505
926.074, 987.769
927.331, 873.892
928.588, 795.947
929.844, 722.850
931.101, 643.767
932.357, 586.100
933.613, 584.498
934.868, 539.672
936.124, 484.519
937.379, 467.127
938.634, 436.399
939.889, 437.935
941.144, 404.148
942.398, 382.703
943.652, 358.553
944.906, 375.003
946.160, 352.212
947.414, 357.814
948.667, 348.815
949.920, 376.188
951.173, 337.894
952.426, 321.755
953.678, 378.810
954.931, 414.992
956.183, 395.756
957.435, 405.168
958.686, 425.450
959.938, 406.462
961.189, 404.275
962.440, 387.126
963.691, 430.681
964.941, 441.536
966.192, 449.038
967.442, 471.332
968.692, 500.566
969.942, 491.616
971.191, 521.986
972.441, 477.808
973.690, 516.781
974.939, 539.758
976.187, 517.096
977.436, 525.342
978.684, 446.459
979.932, 471.707
981.180, 441.753
982.428, 439.146
983.675, 453.338
984.922, 418.870
986.169, 435.477
987.416, 419.827
988.663, 430.481
989.909, 428.654
991.155, 396.125
992.401, 408.380
993.647, 418.144
994.893, 441.104
996.138, 464.747
997.383, 463.924
998.628, 530.640
999.873, 560.362
1001.117, 588.142
1002.362, 655.792
1003.606, 732.436
1004.850, 741.900
1006.093, 804.122
1007.337, 862.236
1008.580, 911.039
1009.823, 958.759
1011.066, 983.683
1012.308, 976.952
1013.551, 1004.426
1014.793, 1006.820
1016.035, 981.132
1017.277, 997.365
1018.518, 947.517
1019.760, 922.591
1021.001, 922.586
1022.242, 899.503
1023.483, 830.342
1024.723, 771.104
1025.964, 717.789
1027.204, 628.398
1028.444, 573.932
1029.683, 518.390
1030.923, 410.775
1032.162, 371.085
1033.401, 346.322
1034.640, 309.486
1035.879, 315.575
1037.117, 273.592
1038.355, 258.534
1039.593, 243.402
1040.831, 215.197
1042.069, 206.918
1043.306, 175.565
1044.544, 129.138
1045.781, 161.633
1047.017, 118.055
1048.254, 147.400
1049.490, 106.672
1050.726, 86.869
1051.962, 93.990
1053.198, 106.036
1054.434, 108.009
1055.669, 105.911
1056.904, 110.042
1058.139, 89.500
1059.374, 103.190
1060.608, 110.810
1061.843, 95.363
1063.077, 119.849
1064.311, 115.276
1065.544, 113.647
1066.778, 129.959
1068.011, 145.227
1069.244, 119.442
1070.477, 184.613
1071.710, 169.753
1072.942, 253.863
1074.174, 264.951
1075.406, 307.028
1076.638, 378.099
1077.870, 441.948
1079.101, 509.474
1080.332, 545.359
1081.563, 633.812
1082.794, 728.289
1084.025, 818.397
1085.255, 861.918
1086.485, 914.247
1087.715, 903.538
1088.945, 943.897
1090.175, 896.942
1091.404, 843.763
1092.633, 761.293
1093.862, 690.954
1095.091, 599.893
1096.319, 514.744
1097.548, 410.526
1098.776, 362.680
1100.004, 309.772
1101.231, 272.538
1102.459, 270.269
1103.686, 246.594
1104.913, 224.831
1106.140, 184.345
1107.367, 187.187
1108.593, 166.034
1109.819, 161.035
1111.046, 121.072
1112.271, 113.581
1113.497, 106.369
1114.722, 112.339
1115.948, 66.542
1117.173, 43.960
1118.398, 41.449
1119.622, 69.171
1120.847, 66.792
1122.071, 36.658
1123.295, 41.557
1124.519, 28.475
1125.742, 0.421
1126.966, 33.277
1128.189, 8.726
1129.412, 15.747
1130.635, 23.753
1131.857, 8.730
1133.080, 15.764
1134.302, 17.734
1135.524, 40.720
1136.746, 1.695
1137.967, 33.669
1139.188, 37.720
1140.410, 4.270
1141.631, 11.745
1142.851, 29.778
1144.072, 25.835
1145.292, 1.913
1146.512, 5.989
1147.732, 7.869
1148.952, 17.729
1150.172, 0.568
1151.391, 19.386
1152.610, 56.186
1153.829, 60.967
1155.048, 127.732
1156.266, 162.482
1157.484, 152.217
1158.702, 209.939
1159.920, 259.647
1161.138, 293.342
1162.356, 327.023
1163.573, 376.693
1164.790, 439.349
1166.007, 538.994
1167.224, 676.627
1168.440, 790.247
1169.656, 940.857
1170.872, 1088.455
1172.088, 1254.041
1173.304, 1389.617
1174.519, 1573.182
1175.735, 1604.736
1176.950, 1625.281
1178.165, 1587.815
1179.379, 1516.340
1180.594, 1345.782
1181.808, 1274.070
1183.022, 1114.384
1184.236, 1011.523
1185.449, 950.600
1186.663, 890.617
1187.876, 832.517
1189.089, 825.387
1190.302, 905.072
1191.515, 908.385
1192.727, 939.987
1193.939, 954.242
1195.151, 985.760
1196.363, 989.956
1197.575, 959.005
1198.786, 956.133
1199.997, 945.383
1201.208, 938.670
1202.419, 979.960
1203.630, 987.308
1204.840, 1008.505
1206.051, 1018.841
1207.261, 1009.264
1208.470, 989.583
1209.680, 1030.131
1210.889, 1006.672
1212.099, 881.224
1213.308, 881.937
1214.516, 761.725
1215.725, 684.405
1216.933, 664.383
1218.142, 570.313
1219.350, 555.607
1220.557, 519.961
1221.765, 526.450
1222.972, 533.889
1224.180, 536.437
1225.387, 550.062
1226.593, 563.662
1227.800, 563.346
1229.006, 577.037
1230.213, 557.224
1231.419, 587.968
1232.624, 587.110
1233.830, 564.237
1235.035, 565.514
1236.241, 574.736
1237.446, 558.232
1238.650, 533.758
1239.855, 574.383
1241.059, 584.264
1242.264, 541.210
1243.468, 539.665
1244.671, 503.880
1245.875, 479.975
1247.078, 467.584
1248.282, 448.079
1249.485, 417.387
1250.687, 354.141
1251.890, 369.148
1253.092, 294.970
1254.295, 275.727
1255.497, 285.227
1256.699, 272.072
1257.900, 225.768
1259.102, 216.614
1260.303, 201.567
1261.504, 186.542
1262.705, 187.119
1263.905, 167.632
1265.106, 157.289
1266.306, 170.792
1267.506, 126.183
1268.706, 149.579
1269.905, 124.900
1271.105, 130.108
1272.304, 137.496
1273.503, 84.512
1274.702, 111.244
1275.900, 102.737
1277.099, 80.677
1278.297, 97.438
1279.495, 116.150
1280.693, 98.074
1281.891, 115.166
1283.088, 102.375
1284.285, 105.442
1285.482, 106.603
1286.679, 132.529
1287.876, 147.917
1289.072, 170.448
1290.268, 174.564
1291.464, 166.750
1292.660, 168.949
1293.856, 198.193
1295.051, 216.358
1296.247, 204.618
1297.442, 230.037
1298.637, 241.481
1299.831, 196.152
1301.026, 222.820
1302.220, 223.485
1303.414, 208.142
1304.608, 228.790
1305.802, 187.417
1306.995, 221.019
1308.188, 201.592
1309.381, 210.129
1310.574, 200.623
1311.767, 192.081
1312.960, 201.492
1314.152, 187.865
1315.344, 200.200
1316.536, 197.302
1317.728, 188.793
1318.919, 190.059
1320.110, 191.313
1321.301, 170.554
1322.492, 188.785
1323.683, 207.004
1324.874, 178.213
1326.064, 196.414
1327.254, 219.606
1328.444, 193.789
1329.634, 226.964
1330.823, 222.129
1332.013, 224.284
1333.202, 220.430
1334.391, 228.565
1335.580, 250.690
1336.768, 253.803
1337.956, 288.905
1339.145, 273.992
1340.333, 311.081
1341.520, 287.142
1342.708, 329.191
1343.895, 324.309
1345.083, 300.340
1346.270, 312.388
1347.456, 307.461
1348.643, 287.534
1349.829, 273.627
1351.016, 260.799
1352.202, 226.039
1353.387, 219.220
1354.573, 200.333
1355.759, 206.342
1356.944, 163.361
1358.129, 133.510
1359.314, 157.522
1360.498, 119.537
1361.683, 117.470
1362.867, 105.447
1364.051, 66.333
1365.235, 78.141
1366.419, 51.863
1367.602, 44.529
1368.785, 30.165
1369.968, 21.716
1371.151, 21.243
1372.334, 5.273
1373.517, 12.140
1374.699, 3.730
1375.881, 20.839
1377.063, 4.963
1378.245, 3.110
1379.426, 24.290
1380.608, 7.501
1381.789, 24.752
1382.970, 28.044
1384.150, 12.376
1385.331, 19.741
1386.511, 31.145
1387.691, 12.570
1388.871, 20.009
1390.051, 33.459
1391.231, 13.913
1392.410, 20.371
1393.589, 7.831
1394.768, 4.289
1395.947, 18.740
1397.126, 14.182
1398.304, 24.394
1399.483, 3.008
1400.661, 21.611
1401.838, 15.244
1403.016, 8.896
1404.194, 28.559
1405.371, 40.227
1406.548, 35.900
1407.725, 72.574
1408.901, 71.245
1410.078, 76.910
1411.254, 83.571
1412.430, 79.229
1413.606, 75.883
1414.782, 86.538
1415.958, 123.194
1417.133, 140.853
1418.308, 148.516
1419.483, 166.185
1420.658, 160.859
1421.832, 162.541
1423.007, 211.229
1424.181, 203.926
1425.355, 225.631
1426.529, 253.346
1427.702, 278.073
1428.876, 299.363
1430.049, 321.328
1431.222, 339.327
1432.395, 358.106
1433.567, 371.898
1434.740, 385.694
1435.912, 384.497
1437.084, 438.317
1438.256, 425.154
1439.428, 473.011
1440.599, 438.599
1441.770, 471.822
1442.942, 478.695
1444.112, 496.528
1445.283, 469.380
1446.454, 462.179
1447.624, 464.279
1448.794, 485.399
1449.964, 481.967
1451.134, 445.518
1452.303, 432.983
1453.473, 413.742
1454.642, 411.581
1455.811, 402.544
1456.980, 366.746
1458.148, 345.153
1459.317, 346.555
1460.485, 334.000
1461.653, 274.740
1462.821, 301.754
1463.989, 257.773
1465.156, 266.620
1466.323, 225.042
1467.490, 237.342
1468.657, 184.510
1469.824, 159.534
1470.991, 152.403
1472.157, 159.101
1473.323, 132.615
1474.489, 137.924
1475.655, 119.012
1476.820, 105.854
1477.986, 97.430
1479.151, 90.750
1480.316, 60.872
1481.481, 74.977
1482.645, 75.243
1483.810, 39.875
1484.974, 56.965
1486.138, 50.438
1487.302, 42.091
1488.465, 39.767
1489.629, 32.403
1490.792, 16.984
1491.955, 10.477
1493.118, 9.103
1494.281, 19.271
1495.443, 37.640
1496.606, 32.066
1497.768, 11.511
1498.930, 28.266
1500.091, 24.377
1501.253, 40.369
1502.414, 25.375
1503.575, 37.536
1504.736, 19.514
1505.897, 32.846
1507.058, 27.557
1508.218, 17.987
1509.379, 17.148
1510.539, 5.260
1511.698, 0.518
1512.858, 0.169
1514.018, 0.000
##END=



