##NAMES=Titanite
##RRUFFID=R050114
##IDEAL CHEMISTRY=CaTi^4+^SiO_5_
##LOCALITY=Isthak Valley Iskardu, Northern Areas Gilgit, Pakistan
##OWNER=RRUFF
##SOURCE=Syed Shah
##DESCRIPTION=Yellowish-brown fragment
##STATUS=The identification of this mineral has been confirmed by X-ray diffraction and chemical analysis
##URL=rruff.info/R050114
##MEASURED CHEMISTRY=(Ca_0.99_Na_0.01_)(Ti_0.96_Al_0.03_Fe^3+^_0.01_)Si_1.00_O_4_(O_0.95_F_0.05_)
##PIN_ID=L00350
##ORIENTATION=Laser parallel to (1 0 1). Fiducial mark perpendicular to laser is parallel to b [0 1 0]
120.944, 0.000
122.332, 148.150
123.720, 45.209
125.107, 18.248
126.495, 33.214
127.882, 73.232
129.268, 104.938
130.655, 322.910
132.041, 68.198
133.427, 124.580
134.813, 109.131
136.199, 90.602
137.584, 86.670
138.970, 50.707
140.355, 316.314
141.740, 623.571
143.124, 900.136
144.509, 1245.070
145.893, 1267.504
147.277, 1646.655
148.660, 1501.832
150.044, 1742.424
151.427, 2017.898
152.810, 2747.786
154.193, 3661.680
155.576, 5039.527
156.958, 6902.014
158.341, 8859.820
159.723, 11112.507
161.105, 13059.391
162.486, 14459.868
163.867, 15123.444
165.249, 15029.676
166.630, 14288.235
168.010, 13018.837
169.391, 11601.260
170.771, 10445.304
172.151, 9250.810
173.531, 8707.638
174.911, 8125.660
176.290, 8334.777
177.669, 8394.889
179.049, 8385.914
180.427, 8817.776
181.806, 8960.405
183.184, 9293.745
184.562, 9167.738
185.940, 9402.329
187.318, 9187.646
188.696, 9356.144
190.073, 9340.348
191.450, 9362.976
192.827, 9605.363
194.204, 10055.082
195.580, 10576.348
196.956, 11096.067
198.332, 11464.305
199.708, 12451.127
201.084, 13046.605
202.459, 14170.799
203.834, 14753.720
205.209, 16095.323
206.584, 16735.777
207.958, 17185.246
209.333, 17803.865
210.707, 17841.748
212.081, 18098.947
213.454, 17415.545
214.828, 17521.619
216.201, 17707.236
217.574, 17672.426
218.947, 18177.242
220.320, 18051.701
221.692, 18835.848
223.064, 18889.695
224.436, 19693.273
225.808, 19886.602
227.179, 20399.682
228.551, 20872.545
229.922, 20975.193
231.293, 21307.641
232.663, 21089.891
234.034, 21171.963
235.404, 20743.859
236.774, 20465.580
238.144, 20697.139
239.514, 20598.545
240.883, 21069.775
242.252, 21610.842
243.621, 22831.750
244.990, 24232.480
246.359, 25653.051
247.727, 27413.453
249.095, 28513.686
250.463, 30033.752
251.831, 30713.656
253.198, 30974.893
254.566, 31135.826
255.933, 30736.072
257.299, 30046.650
258.666, 28887.398
260.033, 27111.104
261.399, 25021.109
262.765, 22981.756
264.131, 20980.301
265.496, 18557.957
266.862, 16883.965
268.227, 15063.021
269.592, 13645.297
270.957, 12325.693
272.321, 11066.083
273.685, 10506.430
275.050, 9986.694
276.413, 9376.836
277.777, 9306.841
279.141, 9056.713
280.504, 9066.451
281.867, 8766.061
283.230, 8995.547
284.592, 8894.912
285.955, 9352.018
287.317, 9209.072
288.679, 9356.786
290.041, 9197.320
291.403, 8488.595
292.764, 8072.232
294.125, 7066.896
295.486, 6502.608
296.847, 6319.295
298.207, 6446.860
299.568, 7255.216
300.928, 7953.336
302.288, 8912.219
303.647, 9372.140
305.007, 10083.001
306.366, 10274.355
307.725, 10376.161
309.084, 10728.375
310.443, 10760.964
311.801, 11043.896
313.159, 11647.144
314.517, 12110.678
315.875, 13074.479
317.233, 13378.522
318.590, 14022.791
319.947, 13887.267
321.304, 13611.922
322.661, 13596.742
324.018, 13021.691
325.374, 13266.763
326.730, 13321.926
328.086, 13787.177
329.442, 14282.497
330.797, 14877.875
332.153, 15573.301
333.508, 15628.770
334.863, 16214.273
336.217, 15929.795
337.572, 15285.340
338.926, 14680.894
340.280, 13716.455
341.634, 12772.014
342.988, 11537.573
344.341, 10683.122
345.694, 9538.661
347.047, 9084.182
348.400, 8469.681
349.753, 7885.159
351.105, 7710.610
352.457, 7326.017
353.809, 7051.354
355.161, 6876.583
356.512, 6541.660
357.864, 6436.555
359.215, 6031.256
360.566, 5805.771
361.916, 5710.107
363.267, 5244.271
364.617, 5198.268
365.967, 4822.099
367.317, 4735.772
368.667, 4429.294
370.016, 3992.670
371.366, 3775.901
372.715, 3308.994
374.064, 2901.951
375.412, 2494.776
376.761, 2137.470
378.109, 1750.034
379.457, 1150.473
380.805, 869.787
382.152, 500.976
383.500, 261.029
384.847, 8.082
386.194, 132.424
387.541, 204.024
388.887, 322.907
390.233, 427.989
391.580, 511.639
392.926, 685.536
394.271, 811.843
395.617, 1025.591
396.962, 1084.839
398.307, 1265.600
399.652, 1385.925
400.997, 1490.843
402.341, 1502.383
403.686, 1390.547
405.030, 1359.308
406.374, 1247.655
407.717, 1128.562
409.061, 920.991
410.404, 634.405
411.747, 350.190
413.090, 160.192
414.433, 698.388
415.775, 1344.396
417.117, 2250.995
418.459, 3232.061
419.801, 4562.469
421.143, 5922.050
422.484, 7170.628
423.825, 8218.052
425.166, 8724.234
426.507, 8929.271
427.848, 8593.292
429.188, 7926.553
430.528, 7019.471
431.868, 6452.354
433.208, 5445.224
434.547, 4878.075
435.887, 4630.909
437.226, 4243.728
438.565, 4056.531
439.904, 4009.319
441.242, 3882.095
442.580, 3954.860
443.918, 3897.623
445.256, 3990.376
446.594, 4233.135
447.932, 4385.917
449.269, 4778.757
450.606, 4921.639
451.943, 5574.552
453.280, 5997.532
454.616, 6940.542
455.952, 7573.590
457.288, 8796.683
458.624, 10459.814
459.960, 11722.997
461.295, 13446.237
462.631, 15639.521
463.966, 17392.869
465.300, 19706.252
466.635, 20809.672
467.969, 22783.133
469.304, 22826.637
470.638, 22430.166
471.972, 20823.725
473.305, 18157.297
474.639, 15640.882
475.972, 12934.489
477.305, 10688.106
478.638, 8541.727
479.970, 6895.341
481.303, 5688.929
482.635, 4732.507
483.967, 4066.039
485.298, 3539.522
486.630, 3422.960
487.961, 3306.336
489.293, 3259.655
490.624, 3482.910
491.954, 3536.101
493.285, 3689.226
494.615, 3872.287
495.945, 3885.283
497.275, 4218.213
498.605, 4201.076
499.935, 4393.874
501.264, 4306.604
502.593, 4409.271
503.922, 4591.870
505.251, 4494.403
506.579, 4676.872
507.908, 5009.274
509.236, 5111.611
510.564, 5453.883
511.891, 5626.091
513.219, 6078.233
514.546, 6300.311
515.873, 6852.329
517.200, 7304.283
518.527, 7396.176
519.853, 8208.009
521.180, 8699.781
522.506, 9011.496
523.832, 9473.153
525.157, 9894.756
526.483, 10443.705
527.808, 10987.802
529.133, 11679.244
530.458, 12390.476
531.783, 13331.974
533.107, 14083.258
534.431, 14904.492
535.756, 16015.674
537.079, 16726.807
538.403, 17397.889
539.727, 18458.924
541.050, 18759.904
542.373, 19338.924
543.696, 19782.436
545.018, 19892.232
546.341, 20113.914
547.663, 19780.785
548.985, 20089.896
550.307, 19612.111
551.629, 18808.795
552.950, 18224.287
554.271, 17221.596
555.592, 16455.240
556.913, 15154.937
558.234, 14163.073
559.554, 13293.461
560.875, 11827.087
562.195, 10889.837
563.514, 9949.464
564.834, 8780.940
566.154, 7999.329
567.473, 7085.111
568.792, 6693.861
570.111, 6170.553
571.429, 6165.047
572.748, 6620.574
574.066, 7049.537
575.384, 7800.234
576.702, 8730.962
578.019, 10011.730
579.337, 11352.536
580.654, 12653.387
581.971, 14391.509
583.288, 16145.240
584.605, 18116.254
585.921, 20317.326
587.237, 22508.469
588.553, 24909.684
589.869, 27190.975
591.185, 29952.338
592.500, 31983.766
593.815, 34535.281
595.130, 37666.859
596.445, 39998.520
597.760, 42290.250
599.074, 44442.051
600.389, 46574.047
601.703, 48072.059
603.016, 49189.297
604.330, 50514.109
605.644, 50607.918
606.957, 51129.730
608.270, 50697.660
609.583, 49547.078
610.895, 48975.312
612.208, 47166.941
613.520, 45542.344
614.832, 44350.332
616.144, 42257.926
617.455, 40039.254
618.767, 38203.320
620.078, 37114.340
621.389, 34469.125
622.700, 33340.238
624.011, 31563.271
625.321, 30007.273
626.631, 28431.398
627.941, 27462.139
629.251, 26003.691
630.561, 25024.188
631.870, 23983.451
633.180, 22694.664
634.489, 21654.059
635.798, 20682.869
637.106, 19978.576
638.415, 18850.252
639.723, 18325.619
641.031, 17383.422
642.339, 16490.125
643.647, 16218.002
644.954, 15433.674
646.261, 14889.645
647.568, 14045.239
648.875, 13690.770
650.182, 13276.446
651.488, 12552.069
652.795, 12187.759
654.101, 11763.252
655.407, 11328.799
656.712, 10964.402
658.018, 10480.050
659.323, 10205.752
660.628, 9921.500
661.933, 9357.295
663.238, 9243.136
664.542, 8839.022
665.847, 8474.958
667.151, 8220.938
668.455, 7926.966
669.758, 7773.039
671.062, 7389.344
672.365, 7245.530
673.668, 7111.957
674.971, 6698.219
676.274, 6594.570
677.577, 6230.969
678.879, 6117.768
680.181, 5864.422
681.483, 5621.293
682.785, 5548.286
684.086, 5195.434
685.388, 4992.562
686.689, 4949.803
687.990, 4696.680
689.290, 4583.450
690.591, 4430.268
691.891, 4117.130
693.192, 4164.040
694.491, 3880.995
695.791, 3767.996
697.091, 3662.043
698.390, 3506.136
699.689, 3382.288
700.988, 3223.528
702.287, 3148.922
703.586, 2971.504
704.884, 2918.293
706.182, 2719.322
707.480, 2574.618
708.778, 2513.205
710.076, 2372.127
711.373, 2302.421
712.670, 2218.199
713.968, 2086.308
715.264, 2070.965
716.561, 1974.145
717.857, 1913.876
719.154, 1790.163
720.450, 1622.974
721.746, 1624.303
723.041, 1419.119
724.337, 1470.392
725.632, 1368.065
726.927, 1213.065
728.222, 1166.315
729.517, 1179.683
730.811, 963.097
732.105, 1007.547
733.400, 845.032
734.693, 917.550
735.987, 714.102
737.281, 698.686
738.574, 698.302
739.867, 579.949
741.160, 636.625
742.453, 524.332
743.745, 480.066
745.038, 502.828
746.330, 421.616
747.622, 344.429
748.913, 284.268
750.205, 213.129
751.496, 207.014
752.788, 146.921
754.079, 88.849
755.369, 12.796
756.660, 56.243
757.950, 21.718
759.241, 104.308
760.531, 67.352
761.820, 250.404
763.110, 169.541
764.399, 193.726
765.689, 340.973
766.978, 224.361
768.267, 283.833
769.555, 319.420
770.844, 307.146
772.132, 361.006
773.420, 399.033
774.708, 344.944
775.996, 399.501
777.283, 335.386
778.570, 360.832
779.857, 370.592
781.144, 366.912
782.431, 306.792
783.718, 313.334
785.004, 289.474
786.290, 260.252
787.576, 283.254
788.862, 243.385
790.147, 223.322
791.433, 162.626
792.718, 85.855
794.003, 133.614
795.288, 1.094
796.572, 28.580
797.857, 18.521
799.141, 92.084
800.425, 84.227
801.709, 197.069
802.992, 249.740
804.276, 248.557
805.559, 288.633
806.842, 297.790
808.125, 383.974
809.407, 389.680
810.690, 440.870
811.972, 416.552
813.254, 556.908
814.536, 511.893
815.818, 578.558
817.099, 596.193
818.381, 540.796
819.662, 580.367
820.943, 586.906
822.223, 546.412
823.504, 555.884
824.784, 426.323
826.065, 473.727
827.345, 435.095
828.624, 493.428
829.904, 490.726
831.183, 498.990
832.462, 422.216
833.741, 475.401
835.020, 442.550
836.299, 432.661
837.577, 413.730
838.856, 437.762
840.134, 429.754
841.412, 535.706
842.689, 657.626
843.967, 587.513
845.244, 635.369
846.521, 765.187
847.798, 760.971
849.075, 939.722
850.351, 917.430
851.628, 967.103
852.904, 1188.731
854.180, 1221.312
855.455, 1373.844
856.731, 1393.325
858.006, 1523.752
859.281, 1758.125
860.556, 1751.439
861.831, 1913.693
863.106, 2121.885
864.380, 2370.012
865.655, 2546.074
866.929, 2843.669
868.202, 3095.989
869.476, 3447.837
870.750, 3702.609
872.023, 4051.303
873.296, 4017.915
874.569, 4277.441
875.842, 4198.881
877.114, 4393.230
878.386, 4364.489
879.658, 4189.653
880.930, 4488.720
882.202, 4561.689
883.474, 4831.561
884.745, 4910.332
886.016, 5124.004
887.287, 5242.576
888.558, 5216.046
889.829, 5164.414
891.099, 4778.680
892.369, 4453.845
893.639, 3926.906
894.909, 3511.864
896.179, 3105.718
897.448, 2773.467
898.718, 2423.112
899.987, 2202.650
901.256, 2156.083
902.524, 1985.410
903.793, 2045.630
905.061, 2053.743
906.329, 2318.748
907.597, 2478.645
908.865, 2828.316
910.133, 3085.779
911.400, 3442.296
912.667, 3530.049
913.934, 3715.765
915.201, 3605.435
916.468, 3379.953
917.734, 3046.948
919.001, 2534.098
920.267, 2267.798
921.532, 1837.704
922.798, 1538.184
924.064, 1273.812
925.329, 971.930
926.594, 799.111
927.859, 662.212
929.124, 467.490
930.388, 388.400
931.653, 261.315
932.917, 221.208
934.181, 124.916
935.445, 101.927
936.708, 57.051
937.972, 43.848
939.235, 1.630
940.498, 89.457
941.761, 101.572
943.024, 120.229
944.286, 159.908
945.548, 123.680
946.811, 150.269
948.072, 122.420
949.334, 95.589
950.596, 75.042
951.857, 84.403
953.118, 16.168
954.379, 13.649
955.640, 33.949
956.901, 101.374
958.161, 133.738
959.421, 245.210
960.681, 293.672
961.941, 362.094
963.201, 477.697
964.460, 549.048
965.720, 631.609
966.979, 732.938
968.238, 853.170
969.496, 1006.473
970.755, 1082.621
972.013, 1323.865
973.272, 1358.983
974.529, 1492.056
975.787, 1650.187
977.045, 1729.249
978.302, 1750.246
979.560, 1827.441
980.817, 1798.411
982.073, 1804.662
983.330, 1829.462
984.587, 1860.763
985.843, 1964.010
987.099, 1940.802
988.355, 2034.073
989.611, 2174.268
990.866, 2238.088
992.122, 2345.007
993.377, 2413.219
994.632, 2390.062
995.887, 2412.415
997.141, 2324.449
998.396, 2327.100
999.650, 2228.212
1000.904, 2184.163
1002.158, 2169.808
1003.412, 2021.678
1004.665, 2042.851
1005.918, 1971.042
1007.172, 1903.590
1008.425, 1943.005
1009.677, 1966.374
1010.930, 1927.121
1012.182, 2046.703
1013.434, 2012.198
1014.687, 2013.604
1015.938, 2057.922
1017.190, 2148.154
1018.441, 2136.297
1019.693, 2186.354
1020.944, 2251.324
1022.195, 2281.208
1023.445, 2310.006
1024.696, 2362.718
1025.946, 2516.344
1027.197, 2479.885
1028.446, 2504.342
1029.696, 2462.715
1030.946, 2484.002
1032.195, 2533.207
1033.445, 2497.329
1034.694, 2488.368
1035.942, 2455.324
1037.191, 2452.198
1038.440, 2512.991
1039.688, 2342.702
1040.936, 2334.333
1042.184, 2164.884
1043.432, 2173.355
1044.679, 2056.747
1045.927, 1869.059
1047.174, 1795.293
1048.421, 2117.449
1049.668, 1919.528
1050.914, 1834.529
1052.161, 1708.454
1053.407, 1380.303
1054.653, 1236.075
1055.899, 1131.773
1057.145, 1101.396
1058.391, 981.944
1059.636, 977.422
1060.881, 963.835
1062.126, 867.178
1063.371, 790.465
1064.615, 816.693
1065.860, 727.898
1067.104, 696.064
1068.348, 622.198
1069.592, 622.337
1070.836, 623.454
1072.079, 555.566
1073.323, 615.682
1074.566, 537.801
1075.809, 572.937
1077.052, 590.800
1078.294, 591.161
1079.537, 589.689
1080.779, 635.632
1082.021, 658.733
1083.263, 731.238
1084.504, 793.143
1085.746, 876.565
1086.987, 884.437
1088.228, 953.805
1089.469, 928.259
1090.710, 1048.697
1091.951, 956.802
1093.191, 973.141
1094.431, 911.283
1095.671, 848.852
1096.911, 733.024
1098.151, 610.957
1099.390, 611.544
1100.630, 511.427
1101.869, 429.660
1103.108, 406.129
1104.346, 328.708
1105.585, 310.086
1106.823, 317.150
1108.062, 256.069
1109.300, 290.906
1110.537, 273.156
1111.775, 203.854
1113.013, 238.995
1114.250, 164.394
1115.487, 196.102
1116.724, 196.070
1117.961, 156.007
1119.197, 169.915
1120.434, 123.790
1121.670, 130.631
1122.906, 118.440
1124.142, 81.209
1125.377, 30.937
1126.613, 62.626
1127.848, 6.726
1129.083, 26.880
1130.318, 10.555
1131.553, 10.964
1132.787, 22.443
1134.022, 26.116
1135.256, 20.724
1136.490, 8.376
1137.724, 42.070
1138.957, 33.814
1140.191, 40.607
1141.424, 60.449
1142.657, 53.351
1143.890, 64.310
1145.123, 40.331
1146.355, 56.400
1147.588, 66.526
1148.820, 18.712
1150.052, 62.939
1151.284, 23.223
1152.516, 13.452
1153.747, 1.906
1154.978, 115.700
1156.209, 124.278
1157.440, 111.828
1158.671, 237.350
1159.902, 364.849
1161.132, 383.325
1162.362, 542.780
1163.592, 574.214
1164.822, 746.627
1166.052, 860.019
1167.281, 951.392
1168.511, 1147.745
1169.740, 1338.079
1170.969, 1666.394
1172.197, 1959.691
1173.426, 2291.969
1174.654, 2816.228
1175.883, 3264.470
1177.111, 3673.693
1178.338, 4086.899
1179.566, 4316.087
1180.794, 4380.258
1182.021, 4330.413
1183.248, 4109.550
1184.475, 3807.672
1185.702, 3398.778
1186.928, 3020.867
1188.155, 2777.942
1189.381, 2430.002
1190.607, 2271.047
1191.833, 2354.078
1193.059, 2196.096
1194.284, 2307.101
1195.509, 2316.093
1196.735, 2457.072
1197.960, 2607.039
1199.184, 2640.994
1200.409, 2615.938
1201.633, 2636.873
1202.858, 2441.796
1204.082, 2492.710
1205.306, 2288.613
1206.529, 2266.509
1207.753, 2166.400
1208.976, 2041.285
1210.199, 2164.162
1211.422, 2107.031
1212.645, 2095.893
1213.868, 2120.747
1215.090, 2073.591
1216.313, 2006.428
1217.535, 1969.255
1218.757, 1922.074
1219.978, 1869.666
1221.200, 1884.467
1222.421, 1894.196
1223.643, 1938.659
1224.864, 1992.406
1226.084, 2075.158
1227.305, 2162.909
1228.526, 2336.671
1229.746, 2417.436
1230.966, 2523.210
1232.186, 2568.004
1233.406, 2676.818
1234.625, 2858.770
1235.845, 2891.860
1237.064, 3010.868
1238.283, 3093.011
1239.502, 3099.274
1240.721, 3138.567
1241.939, 3177.708
1243.157, 3263.927
1244.376, 3246.713
1245.594, 3248.368
1246.811, 3298.704
1248.029, 3261.767
1249.247, 3178.730
1250.464, 3149.477
1251.681, 3027.406
1252.898, 2831.624
1254.115, 2658.716
1255.331, 2564.016
1256.548, 2427.490
1257.764, 2322.485
1258.980, 2128.909
1260.196, 2009.311
1261.411, 1811.799
1262.627, 1817.041
1263.842, 1711.585
1265.057, 1538.627
1266.272, 1610.599
1267.487, 1503.364
1268.702, 1448.645
1269.916, 1390.002
1271.130, 1325.188
1272.344, 1342.423
1273.558, 1294.527
1274.772, 1258.355
1275.986, 1285.247
1277.199, 1198.685
1278.412, 1255.580
1279.625, 1171.269
1280.838, 1167.270
1282.051, 1239.374
1283.263, 1209.635
1284.475, 1222.874
1285.687, 1262.377
1286.899, 1346.614
1288.111, 1327.882
1289.323, 1411.582
1290.534, 1448.681
1291.745, 1513.013
1292.957, 1689.640
1294.167, 1814.718
1295.378, 1854.872
1296.589, 1938.244
1297.799, 2091.305
1299.009, 2234.976
1300.219, 2264.544
1301.429, 2412.668
1302.639, 2458.841
1303.848, 2449.975
1305.057, 2546.648
1306.267, 2581.401
1307.476, 2427.159
1308.684, 2554.920
1309.893, 2449.685
1311.101, 2413.453
1312.310, 2496.220
1313.518, 2376.977
1314.725, 2313.726
1315.933, 2375.437
1317.141, 2241.083
1318.348, 2247.680
1319.555, 2238.263
1320.762, 2186.826
1321.969, 2165.331
1323.176, 2041.778
1324.382, 1995.183
1325.589, 2025.554
1326.795, 1792.910
1328.001, 1761.250
1329.206, 1768.578
1330.412, 1571.896
1331.617, 1568.204
1332.823, 1415.504
1334.028, 1354.797
1335.233, 1338.083
1336.437, 1266.363
1337.642, 1226.742
1338.846, 1195.023
1340.051, 1123.447
1341.255, 1146.686
1342.458, 1079.098
1343.662, 1103.441
1344.866, 1108.790
1346.069, 1126.350
1347.272, 1063.738
1348.475, 1103.054
1349.678, 1024.529
1350.880, 987.235
1352.083, 1043.503
1353.285, 921.778
1354.487, 943.169
1355.689, 858.766
1356.891, 800.103
1358.093, 774.402
1359.294, 730.772
1360.495, 682.847
1361.696, 660.025
1362.897, 576.094
1364.098, 548.118
1365.298, 487.223
1366.499, 435.153
1367.699, 422.970
1368.899, 363.811
1370.099, 302.401
1371.298, 294.000
1372.498, 215.860
1373.697, 223.200
1374.896, 216.504
1376.095, 164.637
1377.294, 122.628
1378.493, 83.424
1379.691, 61.944
1380.889, 92.911
1382.087, 77.888
1383.285, 65.870
1384.483, 76.850
1385.681, 29.817
1386.878, 0.764
1388.075, 15.665
1389.272, 17.492
1390.469, 8.697
1391.666, 1.083
1392.862, 35.163
1394.059, 30.457
1395.255, 49.796
1396.451, 54.169
1397.647, 18.552
1398.842, 56.933
1400.038, 7.307
1401.233, 3.333
1402.428, 12.011
1403.623, 8.327
1404.818, 30.601
1406.013, 39.821
1407.207, 27.970
1408.401, 37.845
1409.595, 19.076
1410.789, 18.037
1411.983, 24.971
1413.177, 17.112
1414.370, 23.204
1415.563, 4.297
1416.756, 28.388
1417.949, 7.480
1419.142, 47.570
1420.335, 57.661
1421.527, 35.756
1422.719, 98.855
1423.911, 61.961
1425.103, 85.077
1426.295, 136.204
1427.486, 110.342
1428.677, 132.494
1429.869, 148.658
1431.060, 184.836
1432.250, 171.027
1433.441, 211.231
1434.632, 264.447
1435.822, 265.677
1437.012, 270.917
1438.202, 296.150
1439.392, 319.389
1440.581, 322.643
1441.771, 347.916
1442.960, 426.212
1444.149, 411.537
1445.338, 416.893
1446.527, 474.288
1447.715, 457.728
1448.904, 467.221
1450.092, 432.780
1451.280, 496.801
1452.468, 460.040
1453.656, 492.014
1454.843, 457.925
1456.031, 488.095
1457.218, 477.799
1458.405, 468.500
1459.592, 439.039
1460.778, 404.779
1461.965, 385.374
1463.151, 380.821
1464.337, 345.076
1465.523, 336.050
1466.709, 305.445
1467.895, 263.048
1469.080, 257.594
1470.266, 258.122
1471.451, 239.522
1472.636, 242.037
1473.821, 175.462
1475.005, 194.857
1476.190, 174.361
1477.374, 117.738
1478.558, 131.935
1479.742, 78.936
1480.926, 99.724
1482.109, 62.277
1483.293, 103.571
1484.476, 57.578
1485.659, 69.262
1486.842, 62.594
1488.025, 21.556
1489.207, 41.218
1490.390, 51.787
1491.572, 20.975
1492.754, 6.278
1493.936, 4.799
1495.118, 4.993
1496.299, 24.463
1497.481, 9.202
1498.662, 28.909
1499.843, 32.501
1501.024, 22.242
1502.205, 75.219
1503.385, 46.054
1504.565, 66.938
1505.746, 68.769
1506.926, 41.751
1508.106, 51.013
1509.285, 45.615
1510.465, 20.671
1511.644, 85.190
1512.823, 33.386
1514.002, 0.700
1515.181, 57.556
1516.360, 20.859
1517.538, 34.497
1518.717, 9.057
1519.895, 3.103
1521.073, 0.000
##END=



