##NAMES=Titanite
##RRUFFID=R050114
##IDEAL CHEMISTRY=CaTi^4+^SiO_5_
##LOCALITY=Isthak Valley Iskardu, Northern Areas Gilgit, Pakistan
##OWNER=RRUFF
##SOURCE=Syed Shah
##DESCRIPTION=Yellowish-brown fragment
##STATUS=The identification of this mineral has been confirmed by X-ray diffraction and chemical analysis
##URL=rruff.info/R050114
##MEASURED CHEMISTRY=(Ca_0.99_Na_0.01_)(Ti_0.96_Al_0.03_Fe^3+^_0.01_)Si_1.00_O_4_(O_0.95_F_0.05_)
##PIN_ID=L00193
##ORIENTATION=Laser parallel to c* (0 0 1). Fiducial mark perpendicular to laser is parallel to -a [-1 0 0]
49.365, 0.000
50.765, 37.571
52.166, 79.247
53.566, 156.894
54.966, 146.353
56.365, 230.050
57.765, 287.016
59.164, 308.940
60.563, 367.308
61.962, 391.095
63.360, 492.068
64.758, 650.108
66.157, 697.983
67.554, 720.139
68.952, 576.372
70.349, 447.629
71.747, 317.831
73.144, 220.888
74.540, 127.733
75.937, 40.353
77.333, 1.286
78.729, 99.255
80.125, 118.650
81.521, 121.576
82.916, 221.140
84.311, 158.451
85.706, 143.611
87.101, 40.719
88.496, 23.866
89.890, 134.861
91.284, 347.379
92.678, 588.583
94.071, 937.353
95.465, 1238.598
96.858, 1725.332
98.251, 2174.684
99.644, 2725.795
101.036, 3156.720
102.428, 3610.381
103.820, 4128.648
105.212, 4687.405
106.604, 5191.553
107.995, 5630.006
109.387, 6107.685
110.777, 6678.521
112.168, 7130.456
113.559, 7710.433
114.949, 7501.401
116.339, 8173.320
117.729, 8266.146
119.119, 8539.850
120.508, 8844.388
121.897, 9129.737
123.286, 9565.870
124.675, 9742.759
126.063, 10260.380
127.452, 10618.712
128.840, 11037.737
130.228, 11147.434
131.615, 11647.788
133.003, 11588.699
134.390, 11579.905
135.777, 11741.380
137.164, 11493.103
138.550, 11655.041
139.937, 11767.284
141.323, 12130.221
142.709, 12864.562
144.094, 13070.734
145.480, 13739.321
146.865, 13640.348
148.250, 13813.651
149.635, 13608.935
151.019, 13985.734
152.403, 14443.297
153.788, 15330.915
155.171, 16558.498
156.555, 18316.066
157.939, 20413.643
159.322, 22221.244
160.705, 24248.881
162.088, 26296.564
163.470, 26864.322
164.853, 27212.154
166.235, 26630.072
167.617, 25818.088
168.998, 24646.213
170.380, 22674.453
171.761, 21742.812
173.142, 20241.312
174.523, 19859.943
175.904, 19548.717
177.284, 19207.639
178.664, 19136.713
180.044, 19105.957
181.424, 19675.354
182.803, 19144.924
184.183, 19664.656
185.562, 19374.564
186.940, 19594.652
188.319, 19304.910
189.698, 19285.350
191.076, 19485.967
192.454, 19776.764
193.831, 20187.750
195.209, 20428.920
196.586, 21010.279
197.963, 21441.824
199.340, 22143.566
200.717, 22845.498
202.093, 23327.621
203.470, 24439.945
204.846, 25252.469
206.221, 25855.186
207.597, 26688.109
208.972, 26911.232
210.347, 27924.557
211.722, 27548.086
213.097, 27941.816
214.472, 27725.760
215.846, 28001.906
217.220, 28207.955
218.594, 27783.832
219.967, 28809.537
221.341, 28475.021
222.714, 29310.332
224.087, 29535.371
225.460, 30240.168
226.832, 30554.854
228.204, 30649.365
229.577, 31388.836
230.948, 31075.045
232.320, 31931.674
233.692, 31165.373
235.063, 31138.109
236.434, 31350.475
237.805, 30725.600
239.175, 30467.508
240.545, 30251.545
241.916, 31128.729
243.286, 31121.762
244.655, 32548.502
246.025, 33965.066
247.394, 35294.578
248.763, 36912.844
250.132, 38146.594
251.501, 38718.941
252.869, 39263.680
254.237, 39106.406
255.605, 38896.680
256.973, 37777.297
258.340, 36868.246
259.708, 34669.520
261.075, 32661.109
262.442, 30673.008
263.808, 28265.217
265.175, 26267.719
266.541, 24050.514
267.907, 22243.596
269.273, 20856.951
270.639, 19020.574
272.004, 18054.467
273.369, 17128.609
274.734, 16383.015
276.099, 15497.663
277.463, 14882.559
278.828, 14817.693
280.192, 14233.065
281.556, 14278.672
282.919, 13984.506
284.283, 14050.566
285.646, 13826.852
287.009, 13883.355
288.372, 13930.076
289.734, 13657.012
291.097, 13534.160
292.459, 12971.517
293.821, 12679.081
295.183, 12416.856
296.544, 12274.833
297.905, 12683.007
299.266, 13231.392
300.627, 14209.975
301.988, 14868.758
303.348, 15877.751
304.709, 16446.938
306.069, 16626.330
307.428, 17205.924
308.788, 17435.701
310.147, 17485.652
311.507, 17695.775
312.865, 17976.061
314.224, 18546.502
315.583, 18767.084
316.941, 19497.814
318.299, 19208.689
319.657, 19269.715
321.015, 19080.883
322.372, 18182.199
323.729, 17913.674
325.086, 17285.295
326.443, 17747.064
327.800, 17598.990
329.156, 17971.074
330.512, 18643.303
331.868, 18735.688
333.224, 19508.227
334.579, 19360.930
335.935, 19353.775
337.290, 19076.785
338.645, 18449.945
339.999, 17893.262
341.354, 16646.732
342.708, 15910.360
344.062, 14844.146
345.416, 14098.087
346.769, 13242.181
348.123, 12696.432
349.476, 12420.842
350.829, 11905.406
352.182, 11830.127
353.534, 11595.003
354.887, 11170.032
356.239, 10735.220
357.591, 9920.563
358.942, 9576.061
360.294, 9161.715
361.645, 8527.524
362.996, 8173.491
364.347, 7689.611
365.698, 7465.885
367.048, 7012.312
368.398, 6598.898
369.748, 6125.637
371.098, 5572.528
372.448, 5189.577
373.797, 4516.778
375.146, 4054.133
376.495, 3271.641
377.844, 2889.303
379.192, 2367.160
380.540, 1829.212
381.889, 1351.463
383.236, 1039.913
384.584, 718.562
385.932, 548.415
387.279, 458.472
388.626, 265.735
389.973, 107.207
391.319, 45.133
392.666, 201.338
394.012, 416.470
395.358, 735.617
396.704, 897.925
398.049, 888.467
399.394, 1302.240
400.740, 1420.438
402.084, 1467.119
403.429, 1545.301
404.774, 1475.016
406.118, 1604.227
407.462, 1413.979
408.806, 1432.183
410.150, 1312.854
411.493, 1135.913
412.836, 883.297
414.179, 475.896
415.522, 226.544
416.865, 408.862
418.207, 1069.467
419.549, 1795.271
420.891, 2808.272
422.233, 3543.470
423.575, 4598.863
424.916, 5254.454
426.257, 5760.238
427.598, 5836.219
428.939, 5552.393
430.279, 5378.760
431.619, 4775.322
432.959, 4342.077
434.299, 4159.025
435.639, 3866.166
436.978, 3753.498
438.318, 3661.023
439.657, 3848.738
440.996, 3886.647
442.334, 3934.750
443.673, 4173.043
445.011, 4051.533
446.349, 4480.225
447.687, 4839.135
449.024, 4968.275
450.361, 5507.648
451.699, 5927.261
453.036, 6717.107
454.372, 7527.215
455.709, 8347.608
457.045, 9818.254
458.381, 11139.191
459.717, 12970.413
461.053, 14981.922
462.388, 17263.721
463.724, 19875.812
465.059, 21888.217
466.394, 24980.928
467.728, 26673.941
469.063, 28177.283
470.397, 28290.916
471.731, 27104.854
473.065, 24979.064
474.398, 21793.582
475.732, 18738.375
477.065, 15543.455
478.398, 12458.833
479.731, 10094.476
481.063, 7940.375
482.396, 6336.516
483.728, 4672.891
485.060, 4149.524
486.391, 3436.393
487.723, 2833.486
489.054, 2670.791
490.385, 2378.311
491.716, 2376.037
493.047, 2353.977
494.377, 2182.121
495.708, 2420.476
497.038, 2309.031
498.368, 2417.785
499.697, 2426.738
501.027, 2525.889
502.356, 2605.233
503.685, 2604.771
505.014, 2834.498
506.342, 2804.419
507.671, 2994.527
508.999, 3294.829
510.327, 3145.318
511.655, 3655.998
512.982, 3806.865
514.310, 4137.922
515.637, 4489.165
516.964, 4660.596
518.291, 5052.213
519.617, 5224.019
520.944, 6036.010
522.270, 6078.188
523.596, 6430.551
524.921, 7453.100
526.247, 7665.834
527.572, 8348.754
528.897, 9011.855
530.222, 9915.141
531.547, 10788.612
532.871, 11642.266
534.196, 12766.105
535.520, 13920.127
536.844, 14674.328
538.167, 16088.710
539.491, 16483.281
540.814, 17778.023
542.137, 17992.953
543.460, 19198.057
544.783, 19513.342
546.105, 19548.805
547.427, 20894.449
548.749, 20420.264
550.071, 20766.256
551.393, 20477.160
552.714, 19890.955
554.035, 19924.076
555.356, 18670.352
556.677, 17507.936
557.998, 17076.186
559.318, 15621.573
560.638, 14850.225
561.958, 13436.354
563.278, 12658.142
564.597, 11554.303
565.917, 10473.182
567.236, 9543.513
568.555, 8493.114
569.874, 7740.057
571.192, 7437.436
572.511, 7148.923
573.829, 7572.680
575.147, 7749.314
576.464, 8469.281
577.782, 9579.473
579.099, 10349.886
580.416, 11960.523
581.733, 13321.383
583.050, 15152.464
584.366, 16633.762
585.683, 18805.275
586.999, 20647.018
588.315, 22568.971
589.630, 25271.139
590.946, 26843.533
592.261, 29736.131
593.576, 32118.953
594.891, 34501.980
596.206, 37125.219
597.520, 38918.676
598.834, 41532.344
600.148, 44166.285
601.462, 44850.375
602.776, 47335.148
604.089, 47100.852
605.402, 48660.414
606.715, 49522.273
608.028, 48836.105
609.341, 49110.574
610.653, 48024.570
611.965, 47044.855
613.277, 46001.348
614.589, 44410.887
615.901, 43418.969
617.212, 40805.902
618.523, 40043.707
619.834, 37713.930
621.145, 36551.199
622.456, 35027.410
623.766, 33020.188
625.076, 32164.461
626.386, 30242.971
627.696, 29173.250
629.006, 28256.311
630.315, 26574.754
631.624, 25687.838
632.933, 24187.188
634.242, 23697.047
635.551, 22830.402
636.859, 21486.092
638.167, 21309.342
639.475, 20100.229
640.783, 18979.088
642.090, 18813.422
643.398, 17573.123
644.705, 17230.201
646.012, 16444.668
647.318, 15850.217
648.625, 15364.492
649.931, 14369.688
651.237, 14594.350
652.543, 13439.472
653.849, 13123.170
655.155, 12756.948
656.460, 12120.462
657.765, 11894.149
659.070, 11387.448
660.375, 10920.329
661.679, 10883.506
662.984, 10236.667
664.288, 10079.761
665.592, 9503.314
666.895, 9296.646
668.199, 9090.217
669.502, 8473.774
670.805, 8427.442
672.108, 7891.225
673.411, 7985.117
674.713, 7609.116
676.016, 7173.222
677.318, 7137.436
678.620, 6721.754
679.921, 6436.175
681.223, 6430.700
682.524, 5975.325
683.825, 5920.047
685.126, 5674.873
686.427, 5339.793
687.727, 5324.809
689.028, 5009.921
690.328, 4895.126
691.628, 4670.422
692.927, 4485.811
694.227, 4331.289
695.526, 4126.856
696.825, 4102.510
698.124, 3778.250
699.423, 3724.075
700.721, 3499.982
702.020, 3405.973
703.318, 3502.043
704.616, 3058.194
705.913, 2976.422
707.211, 2872.737
708.508, 2756.167
709.805, 2725.742
711.102, 2539.504
712.399, 2398.527
713.695, 2445.848
714.992, 2207.460
716.288, 2192.463
717.584, 2124.883
718.879, 1840.731
720.175, 1997.025
721.470, 1701.744
722.765, 1764.918
724.060, 1538.501
725.355, 1430.494
726.649, 1390.865
727.944, 1211.568
729.238, 1201.543
730.532, 1217.694
731.825, 982.968
733.119, 1254.288
734.412, 914.654
735.705, 871.062
736.998, 879.513
738.291, 794.003
739.584, 694.532
740.876, 621.097
742.168, 749.697
743.460, 566.330
744.752, 546.994
746.043, 539.689
747.334, 384.411
748.626, 475.160
749.916, 226.934
751.207, 242.732
752.498, 262.553
753.788, 94.395
755.078, 21.258
756.368, 82.135
757.658, 12.970
758.947, 44.070
760.237, 131.177
761.526, 166.328
762.815, 193.542
764.104, 195.838
765.392, 178.218
766.680, 280.680
767.969, 377.278
769.257, 249.062
770.544, 385.978
771.832, 357.093
773.119, 363.401
774.406, 395.909
775.693, 336.638
776.980, 481.323
778.267, 414.006
779.553, 431.555
780.839, 495.522
782.125, 346.839
783.411, 386.206
784.697, 299.008
785.982, 369.611
787.267, 297.419
788.552, 297.584
789.837, 346.890
791.122, 205.155
792.406, 150.344
793.690, 98.218
794.974, 51.680
796.258, 134.150
797.542, 44.301
798.825, 11.906
800.108, 75.724
801.391, 65.164
802.674, 111.495
803.957, 100.581
805.239, 130.248
806.522, 127.406
807.804, 198.384
809.085, 209.104
810.367, 241.239
811.649, 246.994
812.930, 295.336
814.211, 364.885
815.492, 353.590
816.772, 379.509
818.053, 458.303
819.333, 378.524
820.613, 493.676
821.893, 427.762
823.173, 534.779
824.452, 581.729
825.732, 572.609
827.011, 591.420
828.290, 640.162
829.568, 686.833
830.847, 761.435
832.125, 745.964
833.403, 767.422
834.681, 837.807
835.959, 865.118
837.236, 997.362
838.514, 1021.530
839.791, 1120.629
841.068, 1219.652
842.345, 1277.605
843.621, 1496.484
844.898, 1637.286
846.174, 1955.018
847.450, 2181.672
848.726, 2466.244
850.001, 2812.736
851.277, 3143.144
852.552, 3496.469
853.827, 3856.706
855.102, 3997.853
856.376, 4511.909
857.651, 4530.873
858.925, 4868.741
860.199, 4845.513
861.473, 4647.187
862.746, 4760.762
864.020, 4794.237
865.293, 4667.611
866.566, 4946.881
867.839, 4940.048
869.112, 5351.107
870.384, 5665.058
871.656, 5808.898
872.928, 6377.623
874.200, 6461.234
875.472, 6864.726
876.744, 6973.096
878.015, 7004.345
879.286, 7629.467
880.557, 7521.463
881.828, 8003.328
883.098, 8315.063
884.369, 8816.665
885.639, 9148.133
886.909, 9519.471
888.178, 9550.670
889.448, 9741.736
890.717, 9332.665
891.987, 8983.459
893.256, 8134.114
894.524, 7394.632
895.793, 6751.013
897.061, 5893.254
898.330, 5230.357
899.598, 4755.320
900.865, 4249.144
902.133, 3928.825
903.401, 3838.683
904.668, 3633.259
905.935, 3626.999
907.202, 3717.663
908.468, 3992.214
909.735, 4058.630
911.001, 4313.738
912.267, 4487.716
913.533, 4389.024
914.799, 4435.199
916.064, 4196.427
917.330, 3756.160
918.595, 3451.371
919.860, 2825.309
921.124, 2598.060
922.389, 2091.628
923.653, 1744.732
924.918, 1478.813
926.182, 1173.821
927.445, 1025.299
928.709, 879.780
929.972, 689.333
931.236, 624.376
932.499, 447.943
933.761, 363.304
935.024, 281.917
936.286, 186.757
937.549, 128.219
938.811, 111.040
940.073, 76.589
941.334, 9.386
942.596, 40.883
943.857, 115.756
945.118, 81.239
946.379, 94.403
947.640, 67.594
948.900, 65.303
950.161, 92.419
951.421, 73.962
952.681, 85.938
953.940, 23.046
955.200, 52.918
956.459, 0.747
957.719, 41.928
958.978, 68.122
960.236, 154.736
961.495, 184.291
962.753, 202.076
964.012, 301.881
965.270, 366.995
966.527, 460.663
967.785, 550.185
969.043, 565.762
970.300, 747.491
971.557, 723.961
972.814, 894.806
974.071, 909.341
975.327, 1005.746
976.583, 1122.139
977.840, 1086.546
979.095, 1089.978
980.351, 1171.497
981.607, 1155.968
982.862, 1132.291
984.117, 1180.713
985.372, 1094.810
986.627, 1145.086
987.882, 1167.578
989.136, 1201.752
990.390, 1268.068
991.644, 1255.043
992.898, 1323.475
994.152, 1340.254
995.405, 1360.401
996.659, 1398.888
997.912, 1324.147
999.165, 1373.456
1000.417, 1318.188
1001.670, 1357.113
1002.922, 1401.309
1004.174, 1377.847
1005.426, 1407.709
1006.678, 1482.629
1007.930, 1510.194
1009.181, 1555.217
1010.432, 1626.035
1011.683, 1620.695
1012.934, 1737.251
1014.185, 1695.705
1015.435, 1779.055
1016.685, 1779.303
1017.935, 1738.450
1019.185, 1843.494
1020.435, 1834.438
1021.684, 1855.281
1022.934, 1927.025
1024.183, 1815.668
1025.432, 1880.212
1026.680, 1773.658
1027.929, 1701.006
1029.177, 1710.256
1030.425, 1657.409
1031.673, 1532.466
1032.921, 1556.427
1034.169, 1361.292
1035.416, 1402.063
1036.663, 1253.739
1037.911, 1235.322
1039.157, 1147.811
1040.404, 1173.209
1041.650, 1144.515
1042.897, 1058.729
1044.143, 987.853
1045.389, 963.887
1046.634, 833.831
1047.880, 863.687
1049.125, 777.455
1050.371, 740.135
1051.615, 719.729
1052.860, 565.236
1054.105, 595.655
1055.349, 518.987
1056.593, 500.230
1057.837, 474.386
1059.081, 484.455
1060.325, 404.437
1061.568, 464.335
1062.812, 429.157
1064.055, 402.921
1065.298, 405.636
1066.540, 385.310
1067.783, 392.945
1069.025, 395.539
1070.267, 400.120
1071.509, 445.712
1072.751, 432.290
1073.993, 485.887
1075.234, 538.501
1076.475, 574.137
1077.716, 697.807
1078.957, 788.257
1080.198, 879.493
1081.438, 987.397
1082.679, 1083.515
1083.919, 1268.763
1085.159, 1448.872
1086.398, 1561.220
1087.638, 1800.191
1088.877, 1840.169
1090.116, 1956.323
1091.355, 1972.434
1092.594, 1917.310
1093.833, 1846.953
1095.071, 1688.129
1096.309, 1534.761
1097.547, 1427.281
1098.785, 1201.331
1100.023, 1045.898
1101.260, 906.734
1102.498, 726.839
1103.735, 628.950
1104.972, 534.205
1106.208, 462.779
1107.445, 454.756
1108.681, 314.805
1109.918, 303.024
1111.154, 305.738
1112.389, 254.738
1113.625, 271.067
1114.860, 236.089
1116.096, 198.864
1117.331, 190.335
1118.566, 168.838
1119.800, 120.810
1121.035, 84.745
1122.269, 99.639
1123.503, 133.494
1124.737, 108.309
1125.971, 77.086
1127.205, 49.823
1128.438, 24.518
1129.671, 15.171
1130.904, 17.781
1132.137, 2.651
1133.370, 14.872
1134.602, 8.647
1135.834, 57.210
1137.066, 15.828
1138.298, 59.492
1139.530, 18.210
1140.762, 69.973
1141.993, 54.792
1143.224, 38.663
1144.455, 81.581
1145.686, 50.558
1146.917, 21.583
1148.147, 41.648
1149.377, 15.759
1150.607, 31.907
1151.837, 9.095
1153.067, 75.680
1154.296, 34.427
1155.526, 92.145
1156.755, 194.834
1157.984, 216.501
1159.213, 321.146
1160.441, 448.771
1161.670, 515.375
1162.898, 643.959
1164.126, 717.525
1165.354, 855.071
1166.581, 944.600
1167.809, 1114.110
1169.036, 1343.603
1170.263, 1627.079
1171.490, 1830.538
1172.717, 2292.979
1173.943, 2576.405
1175.170, 3132.814
1176.396, 3551.206
1177.622, 3952.583
1178.848, 4366.943
1180.073, 4394.288
1181.299, 4502.616
1182.524, 4383.930
1183.749, 4043.230
1184.974, 3793.515
1186.199, 3416.785
1187.423, 3050.042
1188.648, 2799.286
1189.872, 2601.517
1191.096, 2441.735
1192.320, 2427.940
1193.543, 2340.135
1194.767, 2497.318
1195.990, 2552.489
1197.213, 2658.650
1198.436, 2740.800
1199.659, 2719.940
1200.881, 2760.755
1202.104, 2796.701
1203.326, 2659.330
1204.548, 2612.886
1205.770, 2608.341
1206.991, 2425.842
1208.213, 2518.017
1209.434, 2441.454
1210.655, 2450.752
1211.876, 2546.949
1213.096, 2447.167
1214.317, 2526.309
1215.537, 2446.494
1216.757, 2275.698
1217.977, 2174.938
1219.197, 2019.376
1220.417, 1992.766
1221.636, 1831.390
1222.855, 1764.241
1224.074, 1778.247
1225.293, 1695.261
1226.512, 1744.268
1227.731, 1840.274
1228.949, 1881.369
1230.167, 1910.635
1231.385, 2049.798
1232.603, 1940.256
1233.820, 2075.571
1235.038, 2106.111
1236.255, 2035.711
1237.472, 2168.484
1238.689, 2126.655
1239.906, 2105.311
1241.122, 2200.560
1242.338, 2094.403
1243.555, 2131.670
1244.771, 2121.327
1245.986, 2069.864
1247.202, 2185.238
1248.417, 2037.652
1249.633, 1968.715
1250.848, 1951.437
1252.063, 1821.652
1253.277, 1694.656
1254.492, 1624.452
1255.706, 1511.379
1256.920, 1450.913
1258.134, 1309.297
1259.348, 1182.628
1260.562, 1201.531
1261.775, 1053.490
1262.988, 1004.240
1264.201, 1009.825
1265.414, 933.093
1266.627, 885.416
1267.839, 859.126
1269.052, 797.966
1270.264, 813.924
1271.476, 709.666
1272.688, 700.354
1273.899, 723.750
1275.111, 621.788
1276.322, 702.846
1277.533, 676.717
1278.744, 592.463
1279.955, 642.290
1281.165, 589.830
1282.376, 581.045
1283.586, 599.468
1284.796, 550.644
1286.006, 642.052
1287.215, 604.897
1288.425, 663.288
1289.634, 711.206
1290.843, 702.678
1292.052, 771.273
1293.261, 858.713
1294.469, 829.626
1295.678, 897.243
1296.886, 1001.486
1298.094, 1024.284
1299.302, 1083.656
1300.509, 1120.869
1301.717, 1154.335
1302.924, 1267.244
1304.131, 1197.257
1305.338, 1218.330
1306.545, 1241.407
1307.752, 1136.487
1308.958, 1179.568
1310.164, 1248.649
1311.370, 1129.726
1312.576, 1166.780
1313.782, 1124.799
1314.987, 1064.770
1316.193, 1131.693
1317.398, 1099.563
1318.603, 1071.366
1319.807, 1085.132
1321.012, 1030.805
1322.216, 987.387
1323.421, 976.913
1324.625, 922.359
1325.829, 937.780
1327.032, 905.183
1328.236, 841.567
1329.439, 874.933
1330.642, 824.284
1331.845, 817.623
1333.048, 725.950
1334.251, 704.266
1335.453, 785.569
1336.656, 673.857
1337.858, 724.131
1339.060, 742.389
1340.261, 679.629
1341.463, 789.851
1342.664, 723.070
1343.866, 696.249
1345.067, 797.527
1346.267, 784.769
1347.468, 744.957
1348.669, 820.200
1349.869, 740.484
1351.069, 702.620
1352.269, 740.936
1353.469, 678.160
1354.668, 670.391
1355.868, 666.899
1357.067, 630.334
1358.266, 619.676
1359.465, 577.392
1360.664, 492.561
1361.862, 493.388
1363.061, 425.546
1364.259, 380.593
1365.457, 380.821
1366.655, 312.173
1367.852, 303.050
1369.050, 257.173
1370.247, 204.981
1371.444, 191.705
1372.641, 149.558
1373.838, 110.010
1375.035, 137.335
1376.231, 70.617
1377.427, 109.580
1378.623, 62.391
1379.819, 54.009
1381.015, 19.299
1382.211, 0.548
1383.406, 29.953
1384.601, 1.542
1385.796, 45.002
1386.991, 49.590
1388.185, 21.214
1389.380, 49.894
1390.574, 11.636
1391.768, 10.430
1392.962, 52.308
1394.156, 29.266
1395.350, 51.286
1396.543, 14.357
1397.736, 9.441
1398.929, 58.530
1400.122, 51.624
1401.315, 31.715
1402.507, 64.796
1403.700, 7.861
1404.892, 25.900
1406.084, 39.900
1407.276, 20.857
1408.467, 34.235
1409.659, 17.384
1410.850, 71.571
1412.041, 57.792
1413.232, 66.036
1414.423, 95.291
1415.614, 79.546
1416.804, 117.797
1417.994, 158.042
1419.184, 139.281
1420.374, 194.515
1421.564, 175.746
1422.753, 221.975
1423.943, 253.206
1425.132, 232.443
1426.321, 294.688
1427.510, 333.945
1428.698, 341.213
1429.887, 396.495
1431.075, 419.791
1432.263, 473.102
1433.451, 536.431
1434.639, 499.777
1435.827, 557.143
1437.014, 639.528
1438.201, 619.934
1439.388, 658.361
1440.575, 728.795
1441.762, 738.247
1442.949, 813.715
1444.135, 817.193
1445.321, 850.687
1446.507, 873.207
1447.693, 843.758
1448.879, 951.350
1450.064, 922.343
1451.250, 903.958
1452.435, 967.317
1453.620, 955.905
1454.805, 949.943
1455.989, 936.772
1457.174, 858.073
1458.358, 872.515
1459.542, 881.864
1460.726, 799.015
1461.910, 792.955
1463.093, 750.776
1464.277, 637.194
1465.460, 649.531
1466.643, 611.651
1467.826, 553.150
1469.009, 568.909
1470.191, 533.700
1471.373, 473.568
1472.556, 434.235
1473.738, 394.447
1474.919, 403.970
1476.101, 401.290
1477.283, 255.391
1478.464, 312.255
1479.645, 282.861
1480.826, 263.188
1482.007, 239.208
1483.187, 235.895
1484.368, 146.217
1485.548, 162.140
1486.728, 116.624
1487.908, 116.633
1489.088, 120.170
1490.268, 97.334
1491.447, 77.551
1492.626, 104.077
1493.805, 53.065
1494.984, 0.004
1496.163, 62.841
1497.341, 21.027
1498.520, 26.211
1499.698, 35.321
1500.876, 9.269
1502.054, 57.062
1503.232, 12.267
1504.409, 50.328
1505.586, 71.797
1506.763, 33.688
1507.940, 19.465
1509.117, 92.428
1510.294, 24.617
1511.470, 66.916
1512.647, 68.271
1513.823, 25.868
1514.999, 43.096
1516.174, 42.492
1517.350, 15.914
1518.526, 40.829
1519.701, 20.102
1520.876, 13.276
1522.051, 42.603
1523.226, 0.327
1524.400, 0.000
##END=



