##NAMES=Titanite
##RRUFFID=R050039
##IDEAL CHEMISTRY=CaTi^4+^SiO_5_
##LOCALITY=Kingman, Arizona, USA
##OWNER=RRUFF
##SOURCE=University of Arizona Mineral Museum
##DESCRIPTION=Black fragment from a single crystal
##STATUS=The identification of this mineral has been confirmed by X-ray diffraction and chemical analysis
##URL=rruff.info/R050039
##MEASURED CHEMISTRY=(Ca_0.95_Y_0.05_)(Ti_0.85_Al_0.10_Fe^3+^_0.06_)Si_1.00_O_4_(O_0.93_F_0.07_)
##PIN_ID=L00457
##ORIENTATION=Laser parallel to -b* (0 -1 0). Fiducial mark perpendicular to laser is parallel to -c [0 0 -1]
81.728, 0.000
83.128, 742.848
84.529, 1294.353
85.929, 1702.713
87.329, 2324.542
88.728, 3068.475
90.128, 3271.127
91.527, 3305.352
92.926, 2947.996
94.324, 2748.024
95.723, 2061.084
97.121, 1241.471
98.519, 920.509
99.917, 759.115
101.314, 507.478
102.712, 228.740
104.109, 170.426
105.505, 149.223
106.902, 292.286
108.298, 374.051
109.694, 446.914
111.090, 584.318
112.486, 601.012
113.881, 726.576
115.277, 587.152
116.672, 299.534
118.066, 73.626
119.461, 0.647
120.855, 16.653
122.249, 84.525
123.643, 84.240
125.036, 142.592
126.430, 109.678
127.823, 185.579
129.216, 140.369
130.608, 134.107
132.001, 216.854
133.393, 128.655
134.785, 20.438
136.176, 9.627
137.568, 111.110
138.959, 82.620
140.350, 314.878
141.741, 277.860
143.131, 341.548
144.521, 525.922
145.911, 580.963
147.301, 636.654
148.691, 802.979
150.080, 879.925
151.469, 907.495
152.858, 1025.710
154.247, 1044.601
155.635, 1194.194
157.024, 1214.509
158.411, 1315.543
159.799, 1317.285
161.187, 1359.708
162.574, 1322.785
163.961, 1389.724
165.348, 1440.659
166.734, 1534.913
168.121, 1499.337
169.507, 1643.967
170.893, 1638.829
172.278, 1793.931
173.664, 1679.283
175.049, 1764.889
176.434, 1720.746
177.819, 1936.842
179.203, 2023.175
180.587, 1969.751
181.971, 2196.579
183.355, 2323.666
184.739, 2400.993
186.122, 2560.607
187.505, 2666.168
188.888, 2763.956
190.271, 2881.889
191.653, 2940.008
193.035, 3198.411
194.417, 3347.104
195.799, 3696.079
197.180, 3685.340
198.562, 4144.883
199.943, 4184.709
201.324, 4554.811
202.704, 4745.190
204.084, 5125.844
205.465, 5326.770
206.844, 5417.961
208.224, 5859.420
209.603, 6191.139
210.983, 6443.118
212.362, 6875.354
213.740, 7287.844
215.119, 7420.584
216.497, 7833.607
217.875, 7966.974
219.253, 8290.865
220.631, 8645.399
222.008, 8730.687
223.385, 8986.724
224.762, 8993.610
226.139, 8941.325
227.515, 8749.878
228.891, 8509.136
230.267, 8629.047
231.643, 8139.565
233.018, 8070.531
234.394, 7741.830
235.769, 7443.299
237.144, 7464.954
238.518, 7326.726
239.893, 7268.594
241.267, 7340.560
242.641, 7062.617
244.014, 7264.764
245.388, 7077.004
246.761, 7299.328
248.134, 6936.131
249.507, 7215.070
250.879, 7105.320
252.252, 7206.508
253.624, 7378.425
254.996, 6870.921
256.367, 6933.904
257.739, 6837.322
259.110, 6731.086
260.481, 6615.117
261.852, 6479.404
263.222, 6553.957
264.592, 6338.782
265.962, 6423.885
267.332, 6049.201
268.702, 6214.550
270.071, 5869.883
271.440, 5975.176
272.809, 5780.451
274.178, 5835.939
275.546, 5601.729
276.915, 5707.818
278.283, 5404.192
279.650, 5620.847
281.018, 5147.770
282.385, 5154.956
283.752, 5292.395
285.119, 4829.139
286.486, 4766.840
287.852, 4401.461
289.218, 4606.564
290.584, 4269.930
291.950, 4154.977
293.316, 4157.556
294.681, 3932.303
296.046, 3927.695
297.411, 3540.354
298.775, 3896.716
300.140, 3636.709
301.504, 3576.749
302.868, 3757.104
304.231, 3557.631
305.595, 3658.330
306.958, 3649.198
308.321, 3880.229
309.684, 3911.423
311.047, 3732.774
312.409, 3914.281
313.771, 3975.941
315.133, 4057.752
316.495, 4029.709
317.856, 3981.807
319.217, 4174.049
320.578, 4016.425
321.939, 4098.936
323.299, 3931.578
324.660, 3954.347
326.020, 3827.238
327.380, 3740.251
328.739, 3713.382
330.099, 3676.629
331.458, 3509.990
332.817, 3553.469
334.176, 3347.057
335.534, 3330.759
336.892, 3154.571
338.251, 3288.494
339.608, 2982.525
340.966, 3126.662
342.323, 3110.909
343.681, 3215.259
345.037, 3189.711
346.394, 3214.268
347.751, 3289.279
349.107, 3208.125
350.463, 3575.380
351.819, 3486.206
353.174, 3401.456
354.530, 3651.600
355.885, 3970.550
357.240, 3829.307
358.594, 4222.859
359.949, 4330.073
361.303, 4307.701
362.657, 4281.389
364.011, 4273.616
365.365, 4278.755
366.718, 4370.164
368.071, 4232.617
369.424, 4172.426
370.777, 4008.345
372.129, 4142.266
373.481, 3774.928
374.833, 3607.172
376.185, 3198.272
377.537, 3429.282
378.888, 3088.953
380.239, 2952.548
381.590, 2807.870
382.941, 2640.736
384.291, 2839.191
385.642, 2609.699
386.992, 2628.580
388.341, 2690.014
389.691, 2469.868
391.040, 2516.635
392.389, 2323.420
393.738, 2470.217
395.087, 2387.023
396.435, 2283.840
397.784, 2530.662
399.132, 2587.490
400.479, 2654.322
401.827, 2751.156
403.174, 2687.996
404.521, 2684.838
405.868, 2971.682
407.215, 2838.525
408.561, 3145.371
409.908, 3112.217
411.254, 3539.134
412.599, 3466.115
413.945, 3603.152
415.290, 3840.240
416.636, 3917.377
417.980, 3864.561
419.325, 4041.783
420.670, 3809.050
422.014, 4136.355
423.358, 4053.697
424.702, 3951.076
426.045, 3868.489
427.389, 3755.937
428.732, 3553.416
430.075, 3500.926
431.417, 3118.468
432.760, 3236.041
434.102, 3013.644
435.444, 3051.276
436.786, 2888.940
438.127, 2796.633
439.469, 2514.352
440.810, 2412.095
442.151, 2289.863
443.492, 2347.655
444.832, 2085.467
446.172, 2223.299
447.512, 2011.171
448.852, 2299.063
450.192, 1916.989
451.531, 2124.944
452.870, 2282.939
454.209, 2110.979
455.548, 2049.078
456.887, 2287.229
458.225, 2175.420
459.563, 2293.656
460.901, 2161.927
462.238, 2560.203
463.576, 2398.492
464.913, 2526.787
466.250, 2695.086
467.587, 2353.390
468.923, 2681.694
470.259, 2600.008
471.596, 2828.321
472.931, 2646.647
474.267, 2624.973
475.603, 2723.296
476.938, 2771.619
478.273, 2729.951
479.608, 2608.276
480.942, 2866.597
482.276, 2364.910
483.611, 2243.218
484.944, 2321.518
486.278, 2049.810
487.612, 1928.091
488.945, 1886.363
490.278, 1664.625
491.611, 1692.875
492.943, 1431.115
494.276, 1339.344
495.608, 1137.559
496.940, 1085.760
498.271, 873.948
499.603, 712.120
500.934, 770.277
502.265, 628.417
503.596, 496.542
504.927, 484.649
506.257, 312.738
507.587, 220.809
508.917, 58.854
510.247, 116.836
511.577, 24.770
512.906, 217.379
514.235, 50.268
515.564, 272.159
516.892, 264.822
518.221, 337.720
519.549, 230.891
520.877, 234.280
522.205, 487.894
523.533, 301.865
524.860, 476.098
526.187, 310.686
527.514, 455.543
528.841, 410.746
530.167, 346.273
531.493, 312.091
532.820, 289.903
534.145, 281.199
535.471, 261.153
536.796, 258.018
538.122, 235.130
539.447, 132.480
540.771, 9.987
542.096, 117.660
543.420, 204.516
544.744, 126.642
546.068, 188.699
547.392, 100.704
548.715, 152.633
550.039, 394.500
551.362, 536.339
552.684, 708.149
554.007, 939.931
555.329, 891.684
556.652, 1023.409
557.973, 1475.107
559.295, 1596.777
560.617, 2058.418
561.938, 2070.032
563.259, 2721.619
564.580, 2883.178
565.901, 2944.709
567.221, 3656.213
568.541, 3837.690
569.861, 4049.141
571.181, 4090.565
572.501, 4761.963
573.820, 4523.336
575.139, 4834.680
576.458, 4985.998
577.777, 4777.293
579.095, 4658.561
580.414, 4709.803
581.732, 4671.020
583.049, 4692.210
584.367, 4583.379
585.685, 4534.521
587.002, 4482.023
588.319, 4296.739
589.636, 4347.812
590.952, 4288.861
592.268, 4219.890
593.585, 4050.895
594.900, 4151.877
596.216, 4202.839
597.532, 4283.779
598.847, 4064.697
600.162, 4045.598
601.477, 4076.475
602.792, 4097.334
604.106, 4128.172
605.420, 4332.451
606.734, 4133.250
608.048, 4104.027
609.361, 4384.785
610.675, 4455.523
611.988, 4199.117
613.301, 4294.180
614.614, 4758.260
615.926, 4301.740
617.238, 4693.496
618.550, 4535.368
619.862, 4546.206
621.174, 4507.268
622.485, 4838.244
623.797, 4738.771
625.108, 4819.450
626.418, 4869.938
627.729, 4881.469
629.039, 4931.914
630.349, 5035.282
631.659, 4955.688
632.969, 4966.074
634.279, 5127.062
635.588, 4959.530
636.897, 5159.856
638.206, 5260.164
639.515, 5100.451
640.823, 5380.719
642.131, 4880.968
643.439, 5291.198
644.747, 5141.412
646.055, 5021.605
647.362, 5121.781
648.669, 5171.938
649.976, 5152.301
651.283, 5022.424
652.589, 5052.529
653.896, 4942.621
655.202, 4914.754
656.508, 4876.027
657.814, 4822.788
659.119, 4772.813
660.424, 4672.823
661.729, 4592.816
663.034, 4642.797
664.339, 4472.760
665.643, 4402.354
666.947, 4228.201
668.251, 4305.723
669.555, 4359.761
670.859, 4189.459
672.162, 3904.347
673.465, 3980.514
674.768, 3856.956
676.071, 3788.688
677.373, 3846.836
678.676, 3634.656
679.978, 3636.495
681.280, 3369.875
682.581, 3302.195
683.883, 2974.784
685.184, 3568.180
686.485, 2804.297
687.786, 3124.381
689.087, 3056.543
690.387, 2720.040
691.687, 2954.033
692.987, 2779.247
694.287, 2494.625
695.586, 2891.420
696.886, 2484.365
698.185, 2435.656
699.484, 2459.475
700.783, 2337.771
702.081, 2374.086
703.379, 2242.088
704.677, 2397.597
705.975, 2204.741
707.273, 2355.026
708.570, 1975.343
709.868, 1985.694
711.165, 1956.078
712.462, 1996.496
713.758, 1936.950
715.055, 1827.438
716.351, 1887.960
717.647, 1428.518
718.943, 1829.112
720.238, 1509.744
721.533, 1620.430
722.829, 1561.168
724.124, 1551.971
725.418, 1212.832
726.713, 1283.759
728.007, 1144.766
729.301, 1205.861
730.595, 1067.073
731.889, 988.398
733.182, 983.892
734.476, 801.357
735.769, 892.982
737.061, 804.724
738.354, 696.562
739.647, 728.530
740.939, 550.629
742.231, 622.815
743.523, 455.117
744.814, 467.506
746.106, 509.979
747.397, 342.568
748.688, 425.274
749.978, 268.112
751.269, 71.082
752.559, 404.168
753.849, 17.372
755.139, 300.677
756.429, 54.073
757.719, 227.529
759.008, 371.034
760.297, 145.415
761.586, 168.146
762.875, 81.753
764.163, 15.403
765.451, 19.097
766.739, 127.165
768.027, 173.411
769.315, 144.903
770.602, 125.884
771.890, 62.098
773.177, 68.278
774.463, 14.427
775.750, 30.534
777.036, 26.603
778.323, 57.371
779.609, 8.609
780.894, 45.453
782.180, 60.438
783.465, 193.707
784.750, 132.102
786.035, 62.107
787.320, 156.364
788.605, 39.331
789.889, 104.986
791.173, 39.385
792.457, 133.803
793.741, 38.269
795.024, 62.784
796.307, 67.349
797.591, 61.961
798.873, 286.623
800.156, 151.334
801.439, 26.094
802.721, 480.903
804.003, 14.237
805.285, 220.668
806.566, 365.622
807.848, 370.628
809.129, 565.683
810.410, 340.789
811.691, 455.945
812.971, 821.153
814.252, 676.411
815.532, 641.721
816.812, 687.081
818.092, 862.492
819.371, 817.955
820.651, 993.473
821.930, 1189.064
823.209, 1214.722
824.488, 1300.462
825.766, 1546.346
827.045, 1472.308
828.323, 1758.430
829.601, 1784.707
830.878, 2041.165
832.156, 2427.772
833.433, 2484.532
834.710, 2711.512
835.987, 2948.662
837.264, 3496.029
838.540, 3483.572
839.817, 3921.325
841.093, 4369.281
842.369, 4457.422
843.644, 5145.738
844.920, 5334.227
846.195, 5632.884
847.470, 6811.703
848.745, 6970.686
850.020, 7359.825
851.294, 8099.092
852.568, 8758.457
853.842, 9597.947
855.116, 10297.497
856.390, 11287.120
857.663, 11926.810
858.936, 13036.570
860.209, 13806.401
861.482, 15106.279
862.755, 16196.209
864.027, 17386.193
865.299, 18506.223
866.571, 19586.301
867.843, 20586.434
869.115, 22096.613
870.386, 23136.852
871.657, 24527.127
872.928, 25237.678
874.199, 26190.867
875.470, 27254.066
876.740, 28139.783
878.010, 29054.252
879.280, 29920.613
880.550, 30369.498
881.820, 30341.527
883.089, 30969.234
884.358, 31036.955
885.627, 30852.828
886.896, 31354.963
888.164, 31679.023
889.433, 30786.887
890.701, 30730.398
891.969, 30241.492
893.236, 29262.643
894.504, 29233.818
895.771, 27741.326
897.038, 27232.006
898.305, 25712.135
899.572, 25230.490
900.838, 24056.180
902.105, 22259.348
903.371, 21590.471
904.637, 20468.566
905.902, 18586.137
907.168, 17580.678
908.433, 16682.201
909.698, 14916.445
910.963, 14498.692
912.228, 12560.578
913.492, 11888.538
914.757, 11069.976
916.021, 10131.430
917.285, 9402.905
918.548, 8224.396
919.812, 7783.030
921.075, 6900.189
922.338, 6238.330
923.601, 5777.066
924.864, 5277.524
926.126, 4727.862
927.388, 4279.232
928.650, 3740.371
929.912, 3581.597
931.174, 3023.265
932.435, 2674.780
933.697, 2446.484
934.958, 2057.141
936.218, 1958.881
937.479, 1667.697
938.739, 1329.473
940.000, 1451.268
941.260, 1052.459
942.520, 1032.169
943.779, 924.021
945.039, 755.891
946.298, 667.779
947.557, 609.686
948.816, 591.612
950.074, 453.557
951.333, 435.521
952.591, 477.502
953.849, 349.501
955.107, 521.518
956.365, 483.332
957.622, 555.384
958.879, 587.453
960.136, 579.539
961.393, 511.643
962.650, 843.761
963.906, 795.896
965.162, 878.048
966.418, 1140.214
967.674, 1112.396
968.930, 1254.592
970.185, 1406.803
971.441, 1399.027
972.696, 1471.266
973.950, 1553.518
975.205, 1635.783
976.459, 1658.061
977.714, 1650.349
978.968, 1572.649
980.222, 1664.959
981.475, 1457.279
982.729, 1479.608
983.982, 1421.944
985.235, 1284.288
986.488, 1356.638
987.740, 1248.993
988.993, 1241.353
990.245, 1173.714
991.497, 1026.079
992.749, 1168.445
994.000, 1010.812
995.252, 953.176
996.503, 1025.541
997.754, 920.072
999.005, 900.261
1000.256, 802.615
1001.506, 934.965
1002.756, 767.310
1004.006, 819.646
1005.256, 871.979
1006.506, 784.303
1007.755, 686.619
1009.005, 758.929
1010.254, 581.229
1011.502, 643.520
1012.751, 535.803
1014.000, 478.075
1015.248, 440.338
1016.496, 370.680
1017.744, 254.831
1018.991, 267.062
1020.239, 269.281
1021.486, 201.488
1022.733, 73.682
1023.980, 5.861
1025.227, 7.993
1026.473, 29.921
1027.719, 7.902
1028.965, 35.941
1030.211, 74.054
1031.457, 122.260
1032.702, 210.585
1033.948, 209.079
1035.193, 177.741
1036.438, 116.557
1037.682, 145.492
1038.927, 204.565
1040.171, 133.807
1041.415, 253.182
1042.659, 252.752
1043.903, 92.520
1045.146, 192.399
1046.390, 82.446
1047.633, 72.603
1048.876, 202.862
1050.118, 183.296
1051.361, 253.894
1052.603, 244.474
1053.845, 195.688
1055.087, 186.854
1056.329, 138.187
1057.571, 89.658
1058.812, 28.755
1060.053, 107.115
1061.294, 165.452
1062.535, 283.766
1063.775, 562.081
1065.016, 640.381
1066.256, 858.664
1067.496, 1076.935
1068.736, 1245.191
1069.975, 1593.451
1071.214, 1831.721
1072.454, 2160.007
1073.693, 2648.307
1074.931, 2846.639
1076.170, 3335.002
1077.408, 3703.369
1078.647, 3991.748
1079.885, 4550.172
1081.122, 4848.652
1082.360, 5217.215
1083.597, 5525.823
1084.835, 5494.500
1086.072, 5853.244
1087.308, 5762.068
1088.545, 6090.961
1089.781, 5829.903
1091.018, 5738.887
1092.254, 5507.918
1093.490, 5476.977
1094.725, 4866.068
1095.961, 4505.205
1097.196, 4374.343
1098.431, 3803.527
1099.666, 3642.721
1100.900, 3231.910
1102.135, 3131.103
1103.369, 2750.289
1104.603, 2589.463
1105.837, 2398.626
1107.071, 2067.778
1108.304, 2036.914
1109.538, 1806.032
1110.771, 1655.130
1112.004, 1614.208
1113.236, 1483.261
1114.469, 1472.289
1115.701, 1351.291
1116.933, 1220.268
1118.165, 1239.216
1119.397, 1308.134
1120.629, 1177.022
1121.860, 1135.882
1123.091, 1254.712
1124.322, 1023.512
1125.553, 1252.283
1126.783, 1131.023
1128.014, 1199.734
1129.244, 1338.416
1130.474, 1217.065
1131.704, 1245.688
1132.933, 1444.276
1134.163, 1332.837
1135.392, 1471.366
1136.621, 1519.864
1137.850, 1428.334
1139.079, 1736.771
1140.307, 1785.179
1141.535, 2153.556
1142.763, 2181.901
1143.991, 2330.218
1145.219, 2608.503
1146.446, 2776.758
1147.674, 3104.980
1148.901, 3463.174
1150.128, 3701.335
1151.354, 4151.085
1152.581, 4468.914
1153.807, 4891.022
1155.033, 5263.666
1156.259, 5831.668
1157.485, 6379.633
1158.710, 6987.562
1159.936, 7345.453
1161.161, 8143.307
1162.386, 8431.116
1163.611, 9088.884
1164.835, 9826.608
1166.060, 10354.288
1167.284, 10881.925
1168.508, 11699.515
1169.732, 11987.057
1170.955, 12644.333
1172.179, 12768.963
1173.402, 13323.591
1174.625, 13355.703
1175.848, 13499.062
1177.070, 13630.530
1178.293, 13479.472
1179.515, 13255.259
1180.737, 13285.380
1181.959, 12745.476
1183.181, 12617.421
1184.402, 12173.096
1185.624, 11816.843
1186.845, 11524.862
1188.066, 11201.063
1189.286, 10837.753
1190.507, 10474.382
1191.727, 10140.979
1192.947, 10051.229
1194.167, 9858.300
1195.387, 9605.916
1196.607, 9365.282
1197.826, 9435.812
1199.045, 9111.846
1200.264, 9118.424
1201.483, 8888.011
1202.702, 8698.112
1203.920, 8501.669
1205.138, 8278.030
1206.356, 8221.873
1207.574, 7948.854
1208.792, 7905.602
1210.009, 7753.222
1211.227, 7401.034
1212.444, 7498.777
1213.661, 7056.754
1214.877, 6834.936
1216.094, 6853.469
1217.310, 6632.824
1218.526, 6463.461
1219.742, 6545.596
1220.958, 6131.676
1222.173, 6368.656
1223.389, 6440.346
1224.604, 6093.562
1225.819, 6234.054
1227.034, 6388.715
1228.248, 6408.844
1229.463, 6320.664
1230.677, 6326.771
1231.891, 6413.887
1233.105, 6620.146
1234.318, 6507.445
1235.532, 6490.775
1236.745, 6670.152
1237.958, 6540.605
1239.171, 6627.755
1240.384, 6437.258
1241.596, 6298.492
1242.809, 6360.652
1244.021, 5952.859
1245.233, 6076.248
1246.444, 5876.759
1247.656, 5559.330
1248.867, 5639.371
1250.079, 5297.963
1251.290, 5146.967
1252.500, 5106.203
1253.711, 4493.830
1254.921, 4581.773
1256.132, 4418.444
1257.342, 4055.434
1258.552, 3741.528
1259.761, 3737.523
1260.971, 3433.127
1262.180, 3298.758
1263.389, 2963.708
1264.598, 2928.640
1265.807, 2813.551
1267.015, 2628.441
1268.223, 2543.312
1269.432, 2388.164
1270.640, 2152.996
1271.847, 2387.809
1273.055, 1962.602
1274.262, 1847.376
1275.470, 1962.133
1276.677, 1816.871
1277.883, 1801.592
1279.090, 1736.296
1280.296, 1590.981
1281.503, 1645.652
1282.709, 1550.307
1283.915, 1454.945
1285.120, 1589.570
1286.326, 1634.180
1287.531, 1558.776
1288.736, 1723.359
1289.941, 1497.926
1291.146, 1692.475
1292.350, 1756.992
1293.555, 1641.476
1294.759, 1785.921
1295.963, 1620.318
1297.167, 1774.642
1298.370, 1928.815
1299.574, 1852.836
1300.777, 2046.648
1301.980, 2010.074
1303.183, 1903.158
1304.386, 1935.842
1305.588, 2098.135
1306.790, 2070.119
1307.993, 2031.812
1309.195, 2143.237
1310.396, 2104.359
1311.598, 2165.295
1312.799, 2106.080
1314.000, 2096.715
1315.201, 2127.218
1316.402, 2067.606
1317.603, 2017.906
1318.803, 2078.123
1320.003, 1948.274
1321.203, 2008.354
1322.403, 2068.363
1323.603, 1958.312
1324.802, 1958.206
1326.002, 1898.065
1327.201, 1847.884
1328.400, 1767.647
1329.599, 1797.335
1330.797, 1666.948
1331.995, 1586.494
1333.194, 1685.947
1334.392, 1645.330
1335.589, 1563.095
1336.787, 1503.816
1337.985, 1382.898
1339.182, 1271.863
1340.379, 1210.943
1341.576, 1190.242
1342.772, 1099.263
1343.969, 1099.620
1345.165, 1018.959
1346.361, 958.611
1347.557, 789.663
1348.753, 839.037
1349.949, 788.482
1351.144, 522.825
1352.339, 662.350
1353.534, 561.983
1354.729, 512.087
1355.924, 521.018
1357.118, 462.477
1358.312, 406.424
1359.506, 359.452
1360.700, 257.398
1361.894, 134.461
1363.088, 40.913
1364.281, 42.585
1365.474, 56.976
1366.667, 58.112
1367.860, 2.705
1369.052, 113.475
1370.245, 180.303
1371.437, 267.791
1372.629, 135.968
1373.821, 204.762
1375.013, 218.923
1376.204, 203.458
1377.395, 218.320
1378.586, 153.449
1379.777, 88.853
1380.968, 104.490
1382.159, 50.333
1383.349, 86.320
1384.539, 112.410
1385.729, 51.398
1386.919, 124.874
1388.109, 18.785
1389.298, 142.390
1390.487, 45.945
1391.676, 179.462
1392.865, 312.939
1394.054, 266.376
1395.242, 249.771
1396.431, 433.123
1397.619, 396.432
1398.807, 609.698
1399.995, 532.919
1401.182, 746.095
1402.370, 769.222
1403.557, 862.303
1404.744, 855.333
1405.931, 1088.313
1407.118, 1021.244
1408.304, 1284.128
1409.490, 1356.972
1410.676, 1359.792
1411.862, 1592.605
1413.048, 1615.424
1414.234, 1758.264
1415.419, 1891.132
1416.604, 1854.035
1417.789, 2086.982
1418.974, 2149.977
1420.159, 2173.023
1421.343, 2516.126
1422.528, 2539.289
1423.712, 2522.517
1424.896, 2805.815
1426.079, 2819.191
1427.263, 3002.654
1428.446, 3096.211
1429.629, 3239.858
1430.812, 3263.586
1431.995, 3476.658
1433.178, 3339.375
1434.360, 3648.765
1435.543, 3587.253
1436.725, 3724.939
1437.907, 3820.488
1439.088, 3769.566
1440.270, 3762.566
1441.451, 3823.559
1442.632, 3633.556
1443.813, 3830.303
1444.994, 3657.747
1446.175, 3551.280
1447.355, 3457.201
1448.535, 3332.670
1449.715, 3242.329
1450.895, 3336.573
1452.075, 2973.471
1453.255, 2976.092
1454.434, 3017.227
1455.613, 2807.771
1456.792, 2733.205
1457.971, 2741.946
1459.149, 2443.353
1460.328, 2565.768
1461.506, 2400.559
1462.684, 2164.471
1463.862, 2217.445
1465.040, 1979.419
1466.217, 1970.312
1467.395, 1870.041
1468.572, 1608.512
1469.749, 1545.617
1470.925, 1551.241
1472.102, 1175.251
1473.278, 1307.498
1474.455, 1017.859
1475.631, 946.355
1476.807, 912.978
1477.982, 648.258
1479.158, 553.323
1480.333, 610.818
1481.508, 401.889
1482.683, 325.911
1483.858, 372.462
1485.033, 100.423
1486.207, 268.792
1487.381, 177.043
1488.555, 14.787
1489.729, 201.849
1490.903, 158.321
1492.076, 55.650
1493.250, 100.155
1494.423, 66.067
1495.596, 12.554
1496.769, 110.209
1497.941, 20.588
1499.114, 53.393
1500.286, 225.541
1501.458, 157.477
1502.630, 287.739
1503.802, 273.807
1504.973, 136.689
1506.145, 238.919
1507.316, 100.339
1508.487, 64.153
1509.657, 142.986
1510.828, 98.461
1511.999, 29.354
1513.169, 157.951
1514.339, 0.000
##END=



