##NAMES=Topaz
##RRUFFID=R050176
##IDEAL CHEMISTRY=Al_2_SiO_4_F_2_
##LOCALITY=Jos Plateau, Nigeria
##OWNER=RRUFF
##SOURCE=Marcus Origlieri
##DESCRIPTION=Colorless prismatic crystal
##STATUS=The identification of this mineral has been confirmed by X-ray diffraction and chemical analysis
##URL=rruff.info/R050176
##MEASURED CHEMISTRY=Al_2.000_Si_1.000_O_4.000_(F_1.438_(OH)_0.562_)
##PIN_ID=L00136
##ORIENTATION=Laser parallel to -c* (0 0 -1). Fiducial mark perpendicular to laser is parallel to a [1 0 0]
94.071, 0.000
95.465, 3.126
96.858, 18.346
98.251, 46.490
99.644, 119.820
101.036, 239.521
102.428, 172.389
103.820, 358.930
105.212, 408.162
106.604, 734.436
107.995, 2012.308
109.387, 3646.344
110.777, 3331.146
112.168, 2479.380
113.559, 1910.792
114.949, 1239.461
116.339, 1145.452
117.729, 1050.104
119.119, 761.257
120.508, 635.258
121.897, 435.680
123.286, 472.934
124.675, 353.518
126.063, 359.323
127.452, 428.294
128.840, 310.407
130.228, 400.665
131.615, 284.067
133.003, 376.612
134.390, 211.297
135.777, 306.819
137.164, 284.909
138.550, 319.860
139.937, 295.790
141.323, 166.909
142.709, 332.556
144.094, 290.430
145.480, 210.052
146.865, 321.169
148.250, 355.847
149.635, 465.560
151.019, 721.796
152.403, 927.106
153.788, 1729.683
155.171, 2467.488
156.555, 2145.232
157.939, 1112.841
159.322, 597.824
160.705, 327.926
162.088, 234.138
163.470, 260.456
164.853, 194.874
166.235, 351.387
167.617, 111.990
168.998, 329.683
170.380, 185.459
171.761, 124.318
173.142, 124.257
174.523, 96.271
175.904, 153.364
177.284, 61.421
178.664, 79.835
180.044, 31.767
181.424, 13.110
182.803, 6.803
184.183, 40.969
185.562, 61.271
186.940, 77.687
188.319, 15.116
189.698, 36.562
191.076, 109.971
192.454, 104.517
193.831, 63.972
195.209, 134.562
196.586, 54.880
197.963, 133.704
199.340, 161.312
200.717, 5.055
202.093, 44.601
203.470, 46.721
204.846, 30.979
206.221, 86.299
207.597, 55.442
208.972, 38.205
210.347, 24.013
211.722, 44.791
213.097, 14.385
214.472, 176.461
215.846, 27.674
217.220, 36.214
218.594, 77.108
219.967, 10.993
221.341, 102.915
222.714, 44.845
224.087, 142.794
225.460, 189.742
226.832, 279.677
228.204, 558.612
229.577, 859.561
230.948, 1704.529
232.320, 2821.503
233.692, 5011.468
235.063, 9547.452
236.434, 14057.453
237.805, 16528.467
239.175, 21025.504
240.545, 23774.561
241.916, 17430.633
243.286, 10125.731
244.655, 5631.851
246.025, 3109.992
247.394, 2078.153
248.763, 1341.336
250.132, 1231.540
251.501, 1036.766
252.869, 984.013
254.237, 952.279
255.605, 839.567
256.973, 1097.875
258.340, 1317.381
259.708, 1913.779
261.075, 3234.594
262.442, 6417.094
263.808, 11598.076
265.175, 18145.150
266.541, 32719.791
267.907, 45066.965
269.273, 39699.305
270.639, 22830.271
272.004, 11973.742
273.369, 7623.699
274.734, 5913.429
276.099, 5453.441
277.463, 4153.703
278.828, 4052.650
280.192, 5269.654
281.556, 7835.711
282.919, 11844.812
284.283, 18644.959
285.646, 26959.154
287.009, 26310.377
288.372, 19012.656
289.734, 11789.968
291.097, 6743.331
292.459, 4230.722
293.821, 2770.141
295.183, 2138.583
296.544, 1619.051
297.905, 1329.544
299.266, 1334.061
300.627, 907.564
301.988, 1066.095
303.348, 883.641
304.709, 871.210
306.069, 765.800
307.428, 675.352
308.788, 846.893
310.147, 680.429
311.507, 650.986
312.865, 800.561
314.224, 688.134
315.583, 932.687
316.941, 836.249
318.299, 901.823
319.657, 909.406
321.015, 950.005
322.372, 1142.617
323.729, 1178.244
325.086, 1868.888
326.443, 2497.545
327.800, 4201.220
329.156, 6409.904
330.512, 10147.604
331.868, 14247.314
333.224, 13719.039
334.579, 10232.775
335.935, 6034.523
337.290, 3653.280
338.645, 2364.051
339.999, 1462.832
341.354, 1171.658
342.708, 842.459
344.062, 833.379
345.416, 714.876
346.769, 524.700
348.123, 750.530
349.476, 596.368
350.829, 738.208
352.182, 736.059
353.534, 1002.914
354.887, 1566.811
356.239, 2195.702
357.591, 3760.525
358.942, 4496.480
360.294, 3783.703
361.645, 2149.667
362.996, 1199.654
364.347, 835.513
365.698, 398.522
367.048, 544.088
368.398, 280.112
369.748, 324.126
371.098, 405.180
372.448, 368.268
373.797, 402.687
375.146, 245.779
376.495, 481.512
377.844, 451.624
379.192, 543.957
380.540, 656.093
381.889, 551.229
383.236, 580.076
384.584, 523.209
385.932, 324.380
387.279, 446.548
388.626, 309.717
389.973, 562.886
391.319, 462.054
392.666, 644.294
394.012, 850.529
395.358, 1168.767
396.704, 1944.000
398.049, 2643.230
399.394, 3940.517
400.740, 5513.799
402.084, 7736.095
403.429, 8688.390
404.774, 7622.676
406.118, 5727.021
407.462, 4610.362
408.806, 2188.697
410.150, 1431.046
411.493, 873.390
412.836, 695.740
414.179, 368.087
415.522, 204.452
416.865, 174.812
418.207, 16.378
419.549, 148.958
420.891, 44.624
422.233, 87.679
423.575, 30.979
424.916, 81.170
426.257, 29.860
427.598, 194.903
428.939, 8.906
430.279, 151.812
431.619, 63.898
432.959, 53.673
434.299, 202.782
435.639, 153.004
436.978, 7.776
438.318, 58.481
439.657, 67.296
440.996, 100.381
442.334, 356.147
443.673, 119.819
445.011, 352.803
446.349, 262.334
447.687, 583.870
449.024, 1163.063
450.361, 1596.690
451.699, 2905.739
453.036, 4581.611
454.372, 7424.205
455.709, 10199.786
457.045, 11841.356
458.381, 11157.221
459.717, 7856.762
461.053, 5529.293
462.388, 3706.020
463.724, 2371.520
465.059, 1700.303
466.394, 1019.774
467.728, 955.231
469.063, 808.674
470.397, 540.122
471.731, 522.555
473.065, 309.973
474.398, 648.384
475.732, 296.779
477.065, 271.158
478.398, 331.522
479.731, 148.870
481.063, 477.201
482.396, 272.516
483.728, 239.815
485.060, 555.098
486.391, 140.363
487.723, 649.609
489.054, 640.839
490.385, 845.049
491.716, 822.242
493.047, 935.416
494.377, 1007.571
495.708, 718.748
497.038, 905.866
498.368, 570.455
499.697, 433.534
501.027, 521.029
502.356, 163.156
503.685, 404.186
505.014, 275.351
506.342, 238.343
507.671, 507.993
508.999, 349.481
510.327, 537.413
511.655, 509.083
512.982, 940.081
514.310, 1325.178
515.637, 1779.814
516.964, 2968.653
518.291, 3771.366
519.617, 5094.169
520.944, 4962.112
522.270, 3896.927
523.596, 2854.764
524.921, 1760.078
526.247, 1216.817
527.572, 719.239
528.897, 444.047
530.222, 684.940
531.547, 304.536
532.871, 495.118
534.196, 222.624
535.520, 313.661
536.844, 399.168
538.167, 258.940
539.491, 520.688
540.814, 382.320
542.137, 547.925
543.460, 1010.366
544.783, 1358.888
546.105, 2212.204
547.427, 2963.980
548.749, 3058.917
550.071, 2319.146
551.393, 1585.601
552.714, 1405.770
554.035, 1017.711
555.356, 1199.867
556.677, 1469.943
557.998, 1789.588
559.318, 2288.602
560.638, 2039.064
561.958, 2336.676
563.278, 1783.593
564.597, 1370.622
565.917, 1332.698
567.236, 848.516
568.555, 808.233
569.874, 455.983
571.192, 441.714
572.511, 472.460
573.829, 330.037
575.147, 460.710
576.464, 198.288
577.782, 296.880
579.099, 260.383
580.416, 152.862
581.733, 269.501
583.050, 182.667
584.366, 113.909
585.683, 337.946
586.999, 147.625
588.315, 304.991
589.630, 134.154
590.946, 183.779
592.261, 294.954
593.576, 35.706
594.891, 289.815
596.206, 110.592
597.520, 101.575
598.834, 150.475
600.148, 211.337
601.462, 259.167
602.776, 88.965
604.089, 111.718
605.402, 110.430
606.715, 2.102
608.028, 332.929
609.341, 27.506
610.653, 169.736
611.965, 242.177
613.277, 285.584
614.589, 293.958
615.901, 159.302
617.212, 328.606
618.523, 415.882
619.834, 6.123
621.145, 558.338
622.456, 158.475
623.766, 499.577
625.076, 398.854
626.386, 325.890
627.696, 679.561
629.006, 449.533
630.315, 535.471
631.624, 557.260
632.933, 308.133
634.242, 752.111
635.551, 311.920
636.859, 667.693
638.167, 708.434
639.475, 596.145
640.783, 913.219
642.090, 904.863
643.398, 1080.475
644.705, 887.055
646.012, 730.602
647.318, 997.115
648.625, 491.598
649.931, 558.049
651.237, 496.467
652.543, 210.852
653.849, 499.207
655.155, 122.531
656.460, 375.814
657.765, 127.070
659.070, 196.289
660.375, 213.475
661.679, 176.631
662.984, 252.752
664.288, 99.844
665.592, 109.898
666.895, 296.914
668.199, 45.900
669.502, 179.842
670.805, 63.750
672.108, 32.383
673.411, 231.398
674.713, 162.848
676.016, 366.756
677.318, 61.330
678.620, 8.137
679.921, 171.328
681.223, 18.234
682.524, 61.129
683.825, 33.451
685.126, 45.268
686.427, 124.926
687.727, 75.912
689.028, 200.154
690.328, 57.191
691.628, 22.809
692.927, 235.121
694.227, 36.977
695.526, 103.850
696.825, 122.646
698.124, 120.414
699.423, 151.154
700.721, 103.135
702.020, 278.469
703.318, 68.045
704.616, 52.592
705.913, 248.105
707.211, 236.406
708.508, 208.908
709.805, 38.195
711.102, 135.447
712.399, 150.676
713.695, 183.123
714.992, 259.939
716.288, 24.023
717.584, 32.957
718.879, 194.908
720.175, 197.168
721.470, 72.611
722.765, 126.365
724.060, 37.904
725.355, 129.768
726.649, 25.584
727.944, 97.014
729.238, 74.412
730.532, 92.088
731.825, 203.564
733.119, 46.561
734.412, 165.006
735.705, 134.324
736.998, 39.730
738.291, 228.076
739.584, 122.078
740.876, 183.465
742.168, 62.777
743.460, 36.250
744.752, 261.592
746.043, 63.045
747.334, 70.141
748.626, 264.523
749.916, 65.074
751.207, 317.303
752.498, 6.322
753.788, 173.967
755.078, 237.922
756.368, 47.176
757.658, 265.496
758.947, 44.480
760.237, 250.896
761.526, 213.281
762.815, 32.016
764.104, 238.221
765.392, 24.988
766.680, 184.953
767.969, 222.145
769.257, 115.324
770.544, 369.494
771.832, 47.342
773.119, 273.488
774.406, 424.625
775.693, 0.463
776.980, 285.652
778.267, 93.461
779.553, 12.443
780.839, 277.641
782.125, 107.283
783.411, 367.742
784.697, 102.760
785.982, 63.232
787.267, 420.750
788.552, 9.275
789.837, 287.689
791.122, 243.650
792.406, 56.602
793.690, 451.547
794.974, 24.498
796.258, 244.447
797.542, 274.387
798.825, 215.338
800.108, 524.285
801.391, 63.227
802.674, 478.170
803.957, 429.107
805.239, 81.043
806.522, 521.975
807.804, 148.865
809.085, 489.807
810.367, 543.254
811.649, 239.191
812.930, 608.695
814.211, 361.553
815.492, 347.484
816.772, 689.270
818.053, 290.207
819.333, 595.463
820.613, 503.861
821.893, 450.799
823.173, 772.973
824.452, 594.799
825.732, 768.510
827.011, 755.678
828.290, 828.625
829.568, 1006.688
830.847, 847.641
832.125, 1198.461
833.403, 1241.393
834.681, 1208.283
835.959, 1728.686
837.236, 1565.645
838.514, 2154.906
839.791, 2541.775
841.068, 2981.553
842.345, 3881.635
843.621, 4505.719
844.898, 5581.865
846.174, 6533.525
847.450, 7528.701
848.726, 8641.590
850.001, 9143.492
851.277, 10056.492
852.552, 10662.502
853.827, 11306.660
855.102, 11534.719
856.376, 11100.967
857.651, 10388.738
858.925, 9423.332
860.199, 7845.615
861.473, 6766.658
862.746, 5552.969
864.020, 4774.492
865.293, 4289.785
866.566, 3531.139
867.839, 3234.912
869.112, 2956.299
870.384, 2458.219
871.656, 2600.977
872.928, 2235.416
874.200, 2152.723
875.472, 2324.969
876.744, 1963.461
878.015, 2083.039
879.286, 1827.566
880.557, 1706.104
881.828, 1816.607
883.098, 1579.303
884.369, 2039.891
885.639, 1834.561
886.909, 1777.068
888.178, 2267.826
889.448, 1865.605
890.717, 2259.197
891.987, 2360.023
893.256, 2368.564
894.524, 2899.449
895.793, 3038.291
897.061, 3255.148
898.330, 3752.189
899.598, 3944.264
900.865, 4455.385
902.133, 4648.531
903.401, 5301.621
904.668, 5900.828
905.935, 6123.637
907.202, 6775.914
908.468, 7184.221
909.735, 7726.551
911.001, 8416.908
912.267, 8986.297
913.533, 10141.727
914.799, 11192.172
916.064, 12620.434
917.330, 14424.955
918.595, 16601.758
919.860, 18809.354
921.124, 21357.979
922.389, 23508.625
923.653, 25631.309
924.918, 26202.008
926.182, 26744.742
927.445, 25313.500
928.709, 24054.264
929.972, 21875.098
931.236, 19595.965
932.499, 17770.656
933.761, 16433.590
935.024, 14860.875
936.286, 13874.863
937.549, 12113.875
938.811, 10549.031
940.073, 9506.102
941.334, 7830.068
942.596, 6694.197
943.857, 6079.352
945.118, 5024.541
946.379, 4830.676
947.640, 4150.523
948.900, 3658.797
950.161, 3391.898
951.421, 2771.229
952.681, 2719.590
953.940, 2399.658
955.200, 2077.078
956.459, 2339.527
957.719, 1703.004
958.978, 1765.512
960.236, 1889.379
961.495, 1470.945
962.753, 1668.545
964.012, 1377.660
965.270, 1097.320
966.527, 1527.146
967.785, 1179.869
969.043, 947.621
970.300, 1221.402
971.557, 901.217
972.814, 1251.066
974.071, 917.943
975.327, 1034.855
976.583, 1152.596
977.840, 963.576
979.095, 1147.609
980.351, 1087.670
981.607, 1244.822
982.862, 1273.012
984.117, 1253.227
985.372, 1321.502
986.627, 1119.582
987.882, 911.936
989.136, 1069.324
990.390, 882.775
991.644, 683.258
992.898, 1093.873
994.152, 578.627
995.405, 1093.250
996.659, 1044.598
997.912, 954.299
999.165, 1471.029
1000.417, 1504.812
1001.670, 1851.623
1002.922, 2396.465
1004.174, 2025.332
1005.426, 2953.232
1006.678, 3042.197
1007.930, 3458.189
1009.181, 3866.215
1010.432, 3607.268
1011.683, 3453.348
1012.934, 2857.531
1014.185, 2519.742
1015.435, 2391.986
1016.685, 1431.260
1017.935, 1628.559
1019.185, 1465.945
1020.435, 776.357
1021.684, 1172.812
1022.934, 868.299
1024.183, 761.811
1025.432, 847.410
1026.680, 462.035
1027.929, 854.689
1029.177, 594.387
1030.425, 359.109
1031.673, 604.869
1032.921, 260.295
1034.169, 345.135
1035.416, 486.002
1036.663, 206.008
1037.911, 536.928
1039.157, 377.871
1040.404, 343.838
1041.650, 483.832
1042.897, 187.852
1044.143, 513.934
1045.389, 402.041
1046.634, 62.094
1047.880, 508.242
1049.125, 61.115
1050.371, 264.607
1051.615, 664.844
1052.860, 175.105
1054.105, 412.412
1055.349, 130.752
1056.593, 119.650
1057.837, 471.051
1059.081, 89.477
1060.325, 461.512
1061.568, 414.994
1062.812, 3.570
1064.055, 458.107
1065.298, 318.676
1066.540, 74.281
1067.783, 475.912
1069.025, 134.576
1070.267, 466.268
1071.509, 351.988
1072.751, 9.719
1073.993, 394.459
1075.234, 206.221
1076.475, 313.010
1077.716, 576.826
1078.957, 34.646
1080.198, 417.062
1081.438, 251.938
1082.679, 137.990
1083.919, 687.916
1085.159, 179.893
1086.398, 213.936
1087.638, 388.955
1088.877, 208.014
1090.116, 442.064
1091.355, 153.145
1092.594, 208.236
1093.833, 502.340
1095.071, 86.572
1096.309, 467.520
1097.547, 430.543
1098.785, 103.410
1100.023, 378.641
1101.260, 225.715
1102.498, 26.188
1103.735, 405.930
1104.972, 25.068
1106.208, 370.230
1107.445, 303.416
1108.681, 87.375
1109.918, 471.840
1111.154, 51.076
1112.389, 16.662
1113.625, 187.617
1114.860, 3.148
1116.096, 65.105
1117.331, 107.297
1118.566, 32.508
1119.800, 157.742
1121.035, 59.994
1122.269, 338.094
1123.503, 345.146
1124.737, 20.785
1125.971, 342.295
1127.205, 64.354
1128.438, 16.416
1129.671, 294.494
1130.904, 107.420
1132.137, 48.658
1133.370, 270.762
1134.602, 39.141
1135.834, 72.955
1137.066, 140.061
1138.298, 42.846
1139.530, 350.232
1140.762, 118.684
1141.993, 22.623
1143.224, 416.920
1144.455, 251.016
1145.686, 389.992
1146.917, 57.000
1148.147, 18.018
1149.377, 429.039
1150.607, 51.066
1151.837, 297.094
1153.067, 347.424
1154.296, 23.455
1155.526, 518.484
1156.755, 300.516
1157.984, 436.549
1159.213, 611.586
1160.441, 368.631
1161.670, 738.684
1162.898, 880.527
1164.126, 583.596
1165.354, 936.607
1166.581, 580.732
1167.809, 393.754
1169.036, 648.785
1170.263, 285.006
1171.490, 343.930
1172.717, 578.857
1173.943, 66.783
1175.170, 342.701
1176.396, 227.619
1177.622, 74.535
1178.848, 638.447
1180.073, 129.439
1181.299, 191.389
1182.524, 284.211
1183.749, 150.770
1184.974, 318.994
1186.199, 155.305
1187.423, 78.072
1188.648, 498.828
1189.872, 32.664
1191.096, 127.334
1192.320, 267.643
1193.543, 300.547
1194.767, 94.059
1195.990, 87.736
1197.213, 24.465
1198.436, 263.693
1199.659, 102.930
1200.881, 148.176
1202.104, 561.441
1203.326, 28.283
1204.548, 510.029
1205.770, 198.365
1206.991, 29.723
1208.213, 350.102
1209.434, 60.502
1210.655, 138.926
1211.876, 345.354
1213.096, 171.789
1214.317, 402.246
1215.537, 170.721
1216.757, 198.215
1217.977, 320.725
1219.197, 263.748
1220.417, 384.658
1221.636, 651.148
1222.855, 232.816
1224.074, 570.334
1225.293, 290.664
1226.512, 26.172
1227.731, 640.068
1228.949, 38.432
1230.167, 295.980
1231.385, 469.551
1232.603, 128.143
1233.820, 362.666
1235.038, 332.291
1236.255, 208.939
1237.472, 783.508
1238.689, 330.543
1239.906, 422.180
1241.122, 726.781
1242.338, 146.471
1243.555, 525.801
1244.771, 566.951
1245.986, 148.119
1247.202, 735.301
1248.417, 340.500
1249.633, 413.711
1250.848, 547.943
1252.063, 202.186
1253.277, 482.441
1254.492, 518.713
1255.706, 245.004
1256.920, 704.320
1258.134, 349.658
1259.348, 183.021
1260.562, 698.662
1261.775, 334.834
1262.988, 457.992
1264.201, 642.904
1265.414, 254.824
1266.627, 567.752
1267.839, 343.697
1269.052, 325.697
1270.264, 734.670
1271.476, 292.574
1272.688, 323.805
1273.899, 565.148
1275.111, 143.508
1276.322, 708.910
1277.533, 379.201
1278.744, 25.615
1279.955, 810.482
1281.165, 253.600
1282.376, 301.611
1283.586, 572.561
1284.796, 138.297
1286.006, 347.844
1287.215, 491.119
1288.425, 51.566
1289.634, 512.684
1290.843, 315.971
1292.052, 267.520
1293.261, 650.199
1294.469, 180.711
1295.678, 308.035
1296.886, 533.160
1298.094, 78.064
1299.302, 466.721
1300.509, 169.363
1301.717, 193.307
1302.924, 715.336
1304.131, 229.809
1305.338, 373.355
1306.545, 704.979
1307.752, 10.777
1308.958, 430.570
1310.164, 602.637
1311.370, 131.812
1312.576, 648.242
1313.782, 375.781
1314.987, 72.254
1316.193, 688.598
1317.398, 350.850
1318.603, 403.027
1319.807, 409.986
1321.012, 185.965
1322.216, 461.844
1323.421, 409.418
1324.625, 96.051
1325.829, 445.223
1327.032, 205.848
1328.236, 108.893
1329.439, 567.168
1330.642, 38.586
1331.845, 426.953
1333.048, 451.781
1334.251, 1.648
1335.453, 490.307
1336.656, 61.006
1337.858, 0.414
1339.060, 0.000
##END=



