##NAMES=Topaz
##RRUFFID=R050200
##IDEAL CHEMISTRY=Al_2_SiO_4_F_2_
##LOCALITY=Jos Plateau, Nigeria
##OWNER=RRUFF
##SOURCE=Marcus Origlieri
##DESCRIPTION=Colorless water-worn single crystal
##STATUS=The identification of this mineral has been confirmed by X-ray diffraction and chemical analysis
##URL=rruff.info/R050200
##MEASURED CHEMISTRY=Al_2.000_Si_1.000_O_4.000_F_1.488_(OH)_0.512_
##PIN_ID=L00468
##ORIENTATION=Laser parallel to b* (0 1 0). Fiducial mark perpendicular to laser is parallel to c [0 0 1]
102.428, 0.000
103.820, 9.283
105.212, 68.521
106.604, 186.021
107.995, 234.490
109.387, 147.809
110.777, 107.079
112.168, 0.553
113.559, 111.683
114.949, 242.131
116.339, 318.014
117.729, 332.080
119.119, 223.408
120.508, 145.777
121.897, 181.361
123.286, 141.783
124.675, 133.406
126.063, 127.716
127.452, 46.730
128.840, 44.468
130.228, 35.616
131.615, 124.168
133.003, 42.882
134.390, 37.458
135.777, 48.737
137.164, 92.187
138.550, 86.513
139.937, 60.331
141.323, 22.778
142.709, 16.393
144.094, 62.244
145.480, 214.804
146.865, 517.168
148.250, 906.356
149.635, 1415.380
151.019, 2004.252
152.403, 2442.980
153.788, 2314.572
155.171, 1608.031
156.555, 853.767
157.939, 516.212
159.322, 300.745
160.705, 254.235
162.088, 255.725
163.470, 162.963
164.853, 234.226
166.235, 180.529
167.617, 156.501
168.998, 154.441
170.380, 151.667
171.761, 84.032
173.142, 186.397
174.523, 123.966
175.904, 92.587
177.284, 352.166
178.664, 497.993
180.044, 368.814
181.424, 425.108
182.803, 212.192
184.183, 239.083
185.562, 367.295
186.940, 299.709
188.319, 257.258
189.698, 286.844
191.076, 361.425
192.454, 346.997
193.831, 370.558
195.209, 423.110
196.586, 354.648
197.963, 443.160
199.340, 397.639
200.717, 496.087
202.093, 392.472
203.470, 491.798
204.846, 497.082
206.221, 700.318
207.597, 794.520
208.972, 568.688
210.347, 222.822
211.722, 45.923
213.097, 64.010
214.472, 52.983
215.846, 109.006
217.220, 49.076
218.594, 58.199
219.967, 21.624
221.341, 696.395
222.714, 962.112
224.087, 340.989
225.460, 1199.970
226.832, 694.051
228.204, 1093.408
229.577, 1985.028
230.948, 3773.247
232.320, 7403.992
233.692, 12718.198
235.063, 18424.504
236.434, 24316.771
237.805, 28161.008
239.175, 26262.203
240.545, 19363.312
241.916, 12236.234
243.286, 7886.224
244.655, 4880.160
246.025, 3210.988
247.394, 2228.471
248.763, 1564.775
250.132, 1362.160
251.501, 1182.520
252.869, 1101.856
254.237, 1203.169
255.605, 1498.458
256.973, 2075.723
258.340, 3474.094
259.708, 6833.209
261.075, 13120.724
262.442, 21210.406
263.808, 29649.047
265.175, 38128.129
266.541, 40135.039
267.907, 31322.854
269.273, 19686.014
270.639, 11785.438
272.004, 7282.327
273.369, 4848.639
274.734, 3760.811
276.099, 3717.563
277.463, 4986.163
278.828, 7378.686
280.192, 10879.131
281.556, 15270.492
282.919, 19099.955
284.283, 21266.268
285.646, 18912.598
287.009, 14030.208
288.372, 9646.308
289.734, 6263.299
291.097, 4209.076
292.459, 3044.681
293.821, 2175.229
295.183, 1764.692
296.544, 1400.306
297.905, 1287.636
299.266, 1115.831
300.627, 999.285
301.988, 922.747
303.348, 818.926
304.709, 736.921
306.069, 665.519
307.428, 610.511
308.788, 552.813
310.147, 550.925
311.507, 522.006
312.865, 535.056
314.224, 414.075
315.583, 586.065
316.941, 510.767
318.299, 587.955
319.657, 528.858
321.015, 597.730
322.372, 676.464
323.729, 698.969
325.086, 1030.294
326.443, 1394.578
327.800, 2021.496
329.156, 2241.698
330.512, 2577.662
331.868, 2438.512
333.224, 1952.338
334.579, 1244.139
335.935, 883.302
337.290, 672.329
338.645, 473.881
339.999, 380.156
341.354, 332.261
342.708, 319.350
344.062, 300.422
345.416, 292.476
346.769, 299.383
348.123, 264.385
349.476, 299.380
350.829, 224.354
352.182, 278.303
353.534, 276.230
354.887, 169.135
356.239, 183.014
357.591, 152.776
358.942, 213.697
360.294, 177.501
361.645, 183.281
362.996, 296.037
364.347, 390.770
365.698, 497.481
367.048, 868.171
368.398, 1191.840
369.748, 1594.487
371.098, 1842.113
372.448, 1942.718
373.797, 1604.170
375.146, 1221.127
376.495, 903.383
377.844, 523.314
379.192, 348.713
380.540, 191.857
381.889, 49.413
383.236, 54.619
384.584, 44.970
385.932, 9.604
387.279, 77.728
388.626, 134.035
389.973, 69.320
391.319, 176.580
392.666, 187.822
394.012, 336.037
395.358, 670.238
396.704, 984.419
398.049, 1612.583
399.394, 2086.730
400.740, 2577.863
402.084, 2655.978
403.429, 2292.081
404.774, 1870.168
406.118, 1251.231
407.462, 747.248
408.806, 477.227
410.150, 295.183
411.493, 237.121
412.836, 147.045
414.179, 6.953
415.522, 105.863
416.865, 33.757
418.207, 39.369
419.549, 25.526
420.891, 45.716
422.233, 37.952
423.575, 56.606
424.916, 69.594
426.257, 79.043
427.598, 49.594
428.939, 21.234
430.279, 42.932
431.619, 79.701
432.959, 8.560
434.299, 29.531
435.639, 32.690
436.978, 233.708
438.318, 347.730
439.657, 456.715
440.996, 470.738
442.334, 398.687
443.673, 201.611
445.011, 180.521
446.349, 162.398
447.687, 87.261
449.024, 178.097
450.361, 192.921
451.699, 327.723
453.036, 536.505
454.372, 750.267
455.709, 665.010
457.045, 606.734
458.381, 473.438
459.717, 408.125
461.053, 357.640
462.388, 179.459
463.724, 300.113
465.059, 259.750
466.394, 278.369
467.728, 489.973
469.063, 425.562
470.397, 456.135
471.731, 576.691
473.065, 466.231
474.398, 815.755
475.732, 729.261
477.065, 1085.750
478.398, 1312.222
479.731, 1570.678
481.063, 1647.117
482.396, 1491.540
483.728, 1516.946
485.060, 1275.338
486.391, 1235.720
487.723, 1282.088
489.054, 1137.443
490.385, 1057.785
491.716, 785.115
493.047, 647.439
494.377, 359.751
495.708, 352.067
497.038, 160.375
498.368, 184.668
499.697, 175.956
501.027, 273.233
502.356, 226.499
503.685, 286.715
505.014, 315.841
506.342, 378.922
507.671, 462.022
508.999, 593.965
510.327, 824.043
511.655, 1176.797
512.982, 1829.765
514.310, 2698.714
515.637, 3774.192
516.964, 4846.731
518.291, 5581.055
519.617, 5533.704
520.944, 4380.191
522.270, 3253.693
523.596, 2223.656
524.921, 1457.716
526.247, 987.764
527.572, 704.801
528.897, 537.827
530.222, 437.844
531.547, 310.578
532.871, 196.843
534.196, 206.829
535.520, 233.811
536.844, 218.812
538.167, 263.930
539.491, 268.776
540.814, 261.648
542.137, 286.221
543.460, 307.899
544.783, 348.417
546.105, 394.742
547.427, 478.714
548.749, 618.216
550.071, 729.637
551.393, 1007.339
552.714, 1350.038
554.035, 1859.370
555.356, 2512.383
556.677, 3145.567
557.998, 3679.563
559.318, 4022.940
560.638, 3886.920
561.958, 3193.907
563.278, 2804.990
564.597, 2056.946
565.917, 1556.837
567.236, 1177.778
568.555, 866.713
569.874, 776.642
571.192, 682.438
572.511, 544.854
573.829, 374.636
575.147, 365.814
576.464, 309.158
577.782, 313.158
579.099, 293.819
580.416, 308.876
581.733, 298.920
583.050, 190.651
584.366, 285.895
585.683, 168.238
586.999, 196.360
588.315, 280.361
589.630, 200.017
590.946, 154.383
592.261, 160.235
593.576, 14.596
594.891, 120.027
596.206, 36.168
597.520, 47.996
598.834, 26.884
600.148, 37.709
601.462, 40.532
602.776, 33.185
604.089, 60.753
605.402, 158.313
606.715, 222.452
608.028, 232.371
609.341, 230.914
610.653, 227.731
611.965, 197.547
613.277, 148.364
614.589, 224.180
615.901, 195.996
617.212, 256.812
618.523, 141.628
619.834, 185.445
621.145, 216.607
622.456, 140.425
623.766, 171.242
625.076, 214.061
626.386, 242.880
627.696, 144.701
629.006, 284.795
630.315, 226.617
631.624, 307.537
632.933, 428.361
634.242, 388.187
635.551, 594.014
636.859, 619.843
638.167, 1002.674
639.475, 1045.507
640.783, 1227.343
642.090, 1277.180
643.398, 1248.837
644.705, 1082.679
646.012, 900.523
647.318, 759.371
648.625, 547.221
649.931, 474.526
651.237, 418.383
652.543, 304.839
653.849, 322.702
655.155, 189.458
656.460, 330.261
657.765, 156.101
659.070, 225.978
660.375, 242.858
661.679, 161.743
662.984, 75.632
664.288, 39.526
665.592, 110.425
666.895, 104.328
668.199, 177.237
669.502, 59.152
670.805, 231.072
672.108, 137.998
673.411, 80.931
674.713, 172.871
676.016, 181.819
677.318, 185.775
678.620, 280.738
679.921, 255.708
681.223, 258.686
682.524, 194.667
683.825, 392.654
685.126, 425.647
686.427, 681.646
687.727, 376.650
689.028, 144.660
690.328, 213.676
691.628, 133.698
692.927, 122.726
694.227, 1.239
695.526, 144.799
696.825, 80.843
698.124, 30.895
699.423, 69.959
700.721, 42.035
702.020, 60.142
703.318, 37.271
704.616, 0.410
705.913, 13.444
707.211, 25.465
708.508, 0.858
709.805, 49.985
711.102, 32.156
712.399, 3.695
713.695, 88.457
714.992, 9.384
716.288, 12.777
717.584, 24.055
718.879, 1.890
720.175, 70.280
721.470, 22.544
722.765, 33.631
724.060, 44.812
725.355, 7.000
726.649, 7.196
727.944, 83.399
729.238, 116.388
730.532, 58.789
731.825, 10.976
733.119, 28.823
734.412, 28.396
735.705, 16.357
736.998, 3.087
738.291, 21.211
739.584, 7.958
740.876, 39.909
742.168, 22.685
743.460, 34.745
744.752, 49.199
746.043, 82.685
747.334, 55.210
748.626, 52.758
749.916, 76.214
751.207, 72.208
752.498, 30.331
753.788, 47.105
755.078, 14.396
756.368, 459.956
757.658, 476.526
758.947, 412.097
760.237, 47.313
761.526, 89.267
762.815, 51.141
764.104, 55.441
765.392, 23.032
766.680, 44.631
767.969, 179.241
769.257, 12.878
770.544, 129.526
771.832, 86.182
773.119, 60.851
774.406, 127.530
775.693, 36.783
776.980, 88.900
778.267, 96.593
779.553, 118.294
780.839, 49.004
782.125, 27.723
783.411, 7.549
784.697, 21.186
785.982, 2.071
787.267, 76.688
788.552, 27.475
789.837, 83.271
791.122, 13.088
792.406, 11.914
793.690, 88.759
794.974, 13.617
796.258, 98.484
797.542, 21.607
798.825, 29.304
800.108, 47.241
801.391, 116.188
802.674, 27.175
803.957, 35.828
805.239, 119.197
806.522, 78.758
807.804, 77.266
809.085, 122.299
810.367, 24.626
811.649, 52.449
812.930, 12.535
814.211, 82.639
815.492, 88.756
816.772, 118.882
818.053, 91.019
819.333, 27.166
820.613, 139.322
821.893, 3.488
823.173, 14.663
824.452, 219.847
825.732, 28.039
827.011, 130.239
828.290, 90.462
829.568, 173.692
830.847, 188.936
832.125, 140.188
833.403, 59.450
834.681, 109.721
835.959, 225.007
837.236, 202.305
838.514, 286.611
839.791, 265.928
841.068, 332.254
842.345, 410.604
843.621, 370.962
844.898, 377.333
846.174, 519.712
847.450, 474.100
848.726, 649.399
850.001, 771.805
851.277, 767.218
852.552, 880.638
853.827, 921.066
855.102, 876.503
856.376, 924.946
857.651, 981.398
858.925, 899.808
860.199, 741.718
861.473, 770.105
862.746, 798.548
864.020, 533.727
865.293, 638.224
866.566, 543.549
867.839, 533.061
869.112, 609.191
870.384, 618.719
871.656, 608.269
872.928, 587.662
874.200, 574.212
875.472, 559.827
876.744, 539.391
878.015, 562.450
879.286, 554.461
880.557, 625.125
881.828, 620.718
883.098, 670.162
884.369, 817.769
885.639, 751.382
886.909, 759.791
888.178, 806.419
889.448, 956.396
890.717, 918.891
891.987, 1037.539
893.256, 1115.877
894.524, 1156.539
895.793, 1310.299
897.061, 1269.982
898.330, 1520.698
899.598, 1672.432
900.865, 1765.181
902.133, 1848.936
903.401, 2108.698
904.668, 2309.094
905.935, 2496.867
907.202, 2728.585
908.468, 3314.371
909.735, 3595.163
911.001, 3985.959
912.267, 4623.762
913.533, 5453.508
914.799, 6297.324
916.064, 7974.894
917.330, 10318.718
918.595, 12018.579
919.860, 11947.419
921.124, 12491.050
922.389, 13793.901
923.653, 14662.757
924.918, 15507.445
926.182, 15504.435
927.445, 15650.305
928.709, 15245.654
929.972, 15296.585
931.236, 15651.487
932.499, 16661.391
933.761, 17548.297
935.024, 18665.207
936.286, 19343.850
937.549, 17365.852
938.811, 15625.269
940.073, 12585.600
941.334, 10230.636
942.596, 8607.945
943.857, 7038.035
945.118, 5686.188
946.379, 4891.814
947.640, 4330.756
948.900, 3771.359
950.161, 3164.584
951.421, 2849.484
952.681, 2650.621
953.940, 2286.915
955.200, 2147.863
956.459, 2027.843
957.719, 2004.446
958.978, 1832.973
960.236, 1742.971
961.495, 1808.748
962.753, 1647.760
964.012, 1690.717
965.270, 1654.973
966.527, 1811.517
967.785, 1798.752
969.043, 1887.910
970.300, 2013.349
971.557, 2183.434
972.814, 2429.392
974.071, 2873.347
975.327, 3434.299
976.583, 4284.250
977.840, 5233.199
979.095, 6534.771
980.351, 8568.717
981.607, 10018.631
982.862, 11623.568
984.117, 11680.907
985.372, 11793.608
986.627, 10537.888
987.882, 8367.659
989.136, 6280.582
990.390, 5093.070
991.644, 3699.995
992.898, 3031.427
994.152, 2442.461
995.405, 1991.159
996.659, 1770.280
997.912, 1445.277
999.165, 1299.172
1000.417, 1053.063
1001.670, 1141.950
1002.922, 893.832
1004.174, 843.710
1005.426, 730.584
1006.678, 694.453
1007.930, 561.317
1009.181, 547.176
1010.432, 460.030
1011.683, 464.883
1012.934, 458.735
1014.185, 339.584
1015.435, 361.438
1016.685, 305.285
1017.935, 281.620
1019.185, 307.967
1020.435, 247.801
1021.684, 328.630
1022.934, 295.457
1024.183, 351.279
1025.432, 309.097
1026.680, 201.913
1027.929, 278.721
1029.177, 249.523
1030.425, 353.320
1031.673, 173.149
1032.921, 197.932
1034.169, 178.735
1035.416, 306.532
1036.663, 153.321
1037.911, 210.110
1039.157, 116.893
1040.404, 215.816
1041.650, 137.588
1042.897, 116.443
1044.143, 145.203
1045.389, 233.822
1046.634, 145.571
1047.880, 196.518
1049.125, 162.074
1050.371, 261.064
1051.615, 159.780
1052.860, 251.138
1054.105, 235.836
1055.349, 90.540
1056.593, 106.236
1057.837, 101.167
1059.081, 72.854
1060.325, 181.532
1061.568, 85.655
1062.812, 155.584
1064.055, 216.434
1065.298, 154.083
1066.540, 78.145
1067.783, 72.813
1069.025, 228.275
1070.267, 60.028
1071.509, 96.541
1072.751, 142.100
1073.993, 3.679
1075.234, 54.545
1076.475, 168.064
1077.716, 170.199
1078.957, 81.360
1080.198, 178.855
1081.438, 127.339
1082.679, 144.077
1083.919, 135.487
1085.159, 118.262
1086.398, 75.704
1087.638, 4.790
1088.877, 49.385
1090.116, 70.972
1091.355, 16.685
1092.594, 60.627
1093.833, 13.811
1095.071, 14.457
1096.309, 110.706
1097.547, 100.056
1098.785, 78.105
1100.023, 40.742
1101.260, 57.364
1102.498, 94.544
1103.735, 103.475
1104.972, 96.520
1106.208, 19.582
1107.445, 63.318
1108.681, 93.222
1109.918, 101.857
1111.154, 157.010
1112.389, 393.746
1113.625, 12.033
1114.860, 23.726
1116.096, 45.848
1117.331, 62.575
1118.566, 29.289
1119.800, 79.985
1121.035, 125.670
1122.269, 395.341
1123.503, 472.999
1124.737, 316.646
1125.971, 188.278
1127.205, 17.101
1128.438, 123.485
1129.671, 11.058
1130.904, 118.608
1132.137, 83.146
1133.370, 101.671
1134.602, 3.183
1135.834, 14.669
1137.066, 151.136
1138.298, 25.590
1139.530, 112.025
1140.762, 31.552
1141.993, 83.827
1143.224, 16.193
1144.455, 61.539
1145.686, 89.872
1146.917, 126.189
1148.147, 161.494
1149.377, 196.787
1150.607, 121.067
1151.837, 145.334
1153.067, 238.717
1154.296, 377.959
1155.526, 347.188
1156.755, 422.406
1157.984, 618.611
1159.213, 716.802
1160.441, 926.981
1161.670, 1081.147
1162.898, 1235.303
1164.126, 1376.444
1165.354, 1368.572
1166.581, 1363.689
1167.809, 919.793
1169.036, 966.884
1170.263, 802.027
1171.490, 583.094
1172.717, 463.146
1173.943, 349.188
1175.170, 289.218
1176.396, 355.232
1177.622, 338.236
1178.848, 103.227
1180.073, 210.205
1181.299, 128.171
1182.524, 149.126
1183.749, 177.066
1184.974, 142.994
1186.199, 148.641
1187.423, 76.814
1188.648, 139.705
1189.872, 89.583
1191.096, 139.448
1192.320, 8.698
1193.543, 144.125
1194.767, 78.063
1195.990, 24.317
1197.213, 15.608
1198.436, 145.068
1199.659, 15.732
1200.881, 157.380
1202.104, 125.015
1203.326, 139.639
1204.548, 52.250
1205.770, 149.848
1206.991, 171.435
1208.213, 25.010
1209.434, 43.569
1210.655, 61.116
1211.876, 111.649
1213.096, 27.171
1214.317, 98.678
1215.537, 5.147
1216.757, 86.628
1217.977, 108.310
1219.197, 256.767
1220.417, 92.214
1221.636, 27.816
1222.855, 162.115
1224.074, 11.468
1225.293, 28.076
1226.512, 117.247
1227.731, 108.598
1228.949, 33.938
1230.167, 162.267
1231.385, 32.587
1232.603, 213.895
1233.820, 76.116
1235.038, 223.814
1236.255, 152.692
1237.472, 158.855
1238.689, 112.743
1239.906, 23.836
1241.122, 106.856
1242.338, 196.398
1243.555, 127.613
1244.771, 97.160
1245.986, 93.259
1247.202, 171.491
1248.417, 199.479
1249.633, 180.595
1250.848, 129.425
1252.063, 163.077
1253.277, 81.545
1254.492, 112.488
1255.706, 43.546
1256.920, 29.816
1258.134, 41.093
1259.348, 33.289
1260.562, 98.746
1261.775, 11.783
1262.988, 92.986
1264.201, 137.825
1265.414, 115.377
1266.627, 91.271
1267.839, 120.287
1269.052, 39.297
1270.264, 150.298
1271.476, 143.293
1272.688, 105.282
1273.899, 86.639
1275.111, 32.615
1276.322, 40.935
1277.533, 48.577
1278.744, 58.412
1279.955, 89.319
1281.165, 111.917
1282.376, 174.016
1283.586, 163.571
1284.796, 171.312
1286.006, 167.230
1287.215, 103.632
1288.425, 121.422
1289.634, 196.540
1290.843, 120.228
1292.052, 126.029
1293.261, 109.927
1294.469, 82.819
1295.678, 95.708
1296.886, 95.595
1298.094, 5.522
1299.302, 185.355
1300.509, 76.230
1301.717, 178.102
1302.924, 75.971
1304.131, 85.837
1305.338, 71.701
1306.545, 100.563
1307.752, 83.422
1308.958, 103.719
1310.164, 41.133
1311.370, 143.986
1312.576, 91.836
1313.782, 121.687
1314.987, 3.467
1316.193, 101.379
1317.398, 165.224
1318.603, 228.068
1319.807, 69.912
1321.012, 176.755
1322.216, 159.599
1323.421, 28.441
1324.625, 167.247
1325.829, 77.092
1327.032, 160.938
1328.236, 159.783
1329.439, 149.091
1330.642, 81.479
1331.845, 150.331
1333.048, 97.038
1334.251, 78.892
1335.453, 57.658
1336.656, 82.519
1337.858, 62.494
1339.060, 75.712
1340.261, 47.048
1341.463, 99.101
1342.664, 84.714
1343.866, 120.601
1345.067, 57.842
1346.267, 204.739
1347.468, 225.643
1348.669, 254.553
1349.869, 169.236
1351.069, 130.163
1352.269, 178.098
1353.469, 148.586
1354.668, 141.269
1355.868, 202.042
1357.067, 94.016
1358.266, 302.589
1359.465, 91.027
1360.664, 135.205
1361.862, 94.153
1363.061, 240.210
1364.259, 157.282
1365.457, 163.342
1366.655, 129.169
1367.852, 118.137
1369.050, 180.659
1370.247, 223.179
1371.444, 104.344
1372.641, 200.561
1373.838, 94.503
1375.035, 203.759
1376.231, 230.656
1377.427, 201.278
1378.623, 258.272
1379.819, 107.598
1381.015, 236.628
1382.211, 205.451
1383.406, 90.823
1384.601, 228.474
1385.796, 172.149
1386.991, 277.870
1388.185, 157.634
1389.380, 285.456
1390.574, 125.334
1391.768, 238.153
1392.962, 127.460
1394.156, 183.976
1395.350, 216.903
1396.543, 102.836
1397.736, 162.768
1398.929, 265.696
1400.122, 132.634
1401.315, 152.590
1402.507, 140.552
1403.700, 262.520
1404.892, 154.505
1406.084, 233.498
1407.276, 243.527
1408.467, 113.570
1409.659, 130.617
1410.850, 157.915
1412.041, 274.554
1413.232, 304.604
1414.423, 174.657
1415.614, 311.714
1416.804, 270.773
1417.994, 204.836
1419.184, 210.901
1420.374, 306.882
1421.564, 317.953
1422.753, 244.028
1423.943, 137.107
1425.132, 377.190
1426.321, 255.279
1427.510, 244.370
1428.698, 380.465
1429.887, 234.566
1431.075, 354.673
1432.263, 191.811
1433.451, 245.056
1434.639, 309.361
1435.827, 259.685
1437.014, 341.016
1438.201, 416.359
1439.388, 311.715
1440.575, 234.089
1441.762, 490.474
1442.949, 488.871
1444.135, 399.284
1445.321, 494.705
1446.507, 393.129
1447.693, 432.601
1448.879, 388.099
1450.064, 429.606
1451.250, 327.119
1452.435, 502.637
1453.620, 407.164
1454.805, 467.722
1455.989, 544.308
1457.174, 361.920
1458.358, 527.556
1459.542, 508.293
1460.726, 482.062
1461.910, 491.859
1463.093, 333.685
1464.277, 372.541
1465.460, 471.429
1466.643, 269.348
1467.826, 432.298
1469.009, 353.285
1470.191, 219.311
1471.373, 341.373
1472.556, 422.476
1473.738, 212.625
1474.919, 317.818
1476.101, 282.060
1477.283, 233.354
1478.464, 116.700
1479.645, 228.098
1480.826, 216.548
1482.007, 283.051
1483.187, 153.609
1484.368, 214.229
1485.548, 195.911
1486.728, 224.660
1487.908, 191.479
1489.088, 176.464
1490.268, 185.351
1491.447, 168.414
1492.626, 111.562
1493.805, 206.801
1494.984, 119.135
1496.163, 88.568
1497.341, 140.111
1498.520, 119.770
1499.698, 58.550
1500.876, 15.540
1502.054, 45.509
1503.232, 24.707
1504.409, 47.066
1505.586, 133.601
1506.763, 101.324
1507.940, 10.251
1509.117, 10.598
1510.294, 176.796
1511.470, 33.459
1512.647, 183.510
1513.823, 31.100
1514.999, 80.867
1516.174, 40.801
1517.350, 189.322
1518.526, 0.289
1519.701, 213.669
1520.876, 26.512
1522.051, 71.392
1523.226, 0.000
##END=



