##NAMES=Topaz
##RRUFFID=R040121
##IDEAL CHEMISTRY=Al_2_SiO_4_F_2_
##LOCALITY=Tepetate, San Luis Potosi, Mexico
##OWNER=RRUFF
##SOURCE=University of Arizona Mineral Museum
##DESCRIPTION=Fragments of a prismatic single crystal
##STATUS=The identification of this mineral has been confirmed by X-ray diffraction and chemical analysis
##URL=rruff.info/R040121
##MEASURED CHEMISTRY=Al_2.00_(Si_0.99_Al_0.02_)(F_0.82_(OH)_0.18_)_2_
##PIN_ID=L00213
##ORIENTATION=Laser parallel to -b* (0 -1 0). Fiducial mark perpendicular to laser is parallel to -c [0 0 -1]
91.981, 0.000
93.375, 81.485
94.768, 0.340
96.161, 14.629
97.554, 76.796
98.947, 36.865
100.340, 1.252
101.732, 48.310
103.124, 75.775
104.516, 129.405
105.908, 182.632
107.300, 346.164
108.691, 294.249
110.082, 188.649
111.473, 216.685
112.864, 483.625
114.254, 807.320
115.644, 1201.877
117.034, 1218.000
118.424, 1517.438
119.813, 1096.417
121.203, 809.895
122.592, 349.306
123.981, 242.782
125.369, 100.663
126.758, 81.818
128.146, 54.511
129.534, 205.297
130.922, 159.602
132.309, 151.931
133.696, 84.396
135.083, 126.649
136.470, 144.162
137.857, 247.378
139.243, 245.602
140.630, 221.802
142.016, 211.337
143.401, 212.575
144.787, 288.315
146.172, 493.498
147.557, 740.282
148.942, 1106.791
150.327, 1970.457
151.711, 3141.177
153.096, 3756.265
154.480, 2777.309
155.863, 1410.552
157.247, 753.847
158.630, 384.974
160.013, 300.347
161.396, 250.693
162.779, 213.003
164.161, 167.278
165.544, 55.514
166.926, 88.747
168.308, 22.955
169.689, 45.127
171.070, 46.271
172.452, 90.386
173.833, 41.476
175.213, 49.601
176.594, 0.917
177.974, 76.398
179.354, 37.024
180.734, 56.779
182.114, 51.651
183.493, 127.625
184.872, 194.686
186.251, 361.818
187.630, 314.011
189.008, 191.254
190.387, 130.537
191.765, 5.151
193.143, 2.836
194.520, 31.516
195.898, 53.207
197.275, 64.136
198.652, 68.533
200.029, 62.960
201.405, 48.110
202.782, 25.723
204.158, 64.860
205.534, 110.813
206.909, 27.899
208.285, 90.593
209.660, 33.556
211.035, 23.527
212.410, 2.319
213.784, 33.924
215.159, 22.241
216.533, 12.626
217.907, 46.278
219.281, 69.533
220.654, 108.867
222.027, 160.047
223.400, 195.705
224.773, 257.041
226.146, 321.639
227.518, 552.196
228.891, 848.112
230.263, 1484.924
231.634, 2891.713
233.006, 5631.479
234.377, 10598.210
235.748, 19615.879
237.119, 31748.494
238.490, 39153.062
239.860, 30191.873
241.231, 16326.327
242.601, 8377.908
243.970, 4764.497
245.340, 2951.099
246.709, 1824.716
248.079, 1318.349
249.448, 964.999
250.816, 847.665
252.185, 748.350
253.553, 871.054
254.921, 930.778
256.289, 1079.521
257.657, 1772.210
259.024, 3113.521
260.391, 5800.451
261.758, 11090.213
263.125, 21135.895
264.492, 36927.375
265.858, 48754.402
267.224, 43082.531
268.590, 23156.564
269.956, 11379.438
271.321, 5915.150
272.687, 3628.712
274.052, 2502.107
275.416, 2258.296
276.781, 2498.321
278.146, 3625.155
279.510, 5877.807
280.874, 10047.315
282.237, 17153.674
283.601, 24597.898
284.964, 26922.998
286.327, 20210.982
287.690, 11257.854
289.053, 6003.621
290.416, 3365.716
291.778, 1955.494
293.140, 1273.852
294.502, 747.859
295.863, 569.415
297.225, 503.757
298.586, 316.426
299.947, 256.208
301.308, 226.976
302.668, 178.080
304.029, 155.129
305.389, 129.034
306.749, 141.765
308.108, 106.277
309.468, 36.770
310.827, 117.501
312.186, 10.123
313.545, 94.707
314.903, 127.250
316.262, 20.720
317.620, 50.107
318.978, 159.415
320.336, 35.696
321.693, 64.963
323.051, 216.970
324.408, 255.643
325.765, 505.126
327.121, 1298.470
328.478, 1501.468
329.834, 2420.985
331.190, 2919.219
332.546, 2264.787
333.902, 1272.241
335.257, 631.804
336.612, 295.247
337.967, 247.822
339.322, 164.678
340.677, 129.657
342.031, 78.093
343.385, 45.162
344.739, 26.962
346.093, 13.208
347.446, 50.293
348.799, 69.836
350.153, 44.093
351.505, 147.166
352.858, 58.738
354.210, 150.972
355.563, 105.451
356.915, 34.148
358.267, 101.121
359.618, 105.807
360.969, 2.120
362.321, 99.745
363.672, 249.027
365.022, 574.308
366.373, 227.646
367.723, 333.542
369.073, 696.838
370.423, 1137.315
371.773, 1777.481
373.122, 2189.109
374.471, 2100.400
375.821, 1270.383
377.169, 738.165
378.518, 315.751
379.866, 157.015
381.215, 87.987
382.563, 45.196
383.910, 26.269
385.258, 30.566
386.605, 26.546
387.952, 15.306
389.299, 24.159
390.646, 73.636
391.992, 85.134
393.339, 164.658
394.685, 102.214
396.031, 502.802
397.376, 867.424
398.722, 1638.082
400.067, 2898.771
401.412, 4187.491
402.757, 4474.230
404.101, 3167.989
405.446, 1717.773
406.790, 975.580
408.134, 654.425
409.478, 495.312
410.821, 333.244
412.165, 246.215
413.508, 228.222
414.851, 165.255
416.193, 96.315
417.536, 143.384
418.878, 143.474
420.220, 191.556
421.562, 12.619
422.904, 48.666
424.245, 111.695
425.586, 84.709
426.927, 164.707
428.268, 133.700
429.609, 51.680
430.949, 103.646
432.289, 164.617
433.629, 75.577
434.969, 102.524
436.309, 89.460
437.648, 239.385
438.987, 354.309
440.326, 464.224
441.665, 541.130
443.003, 568.038
444.342, 478.937
445.680, 305.831
447.018, 245.719
448.355, 287.600
449.693, 330.939
451.030, 388.355
452.367, 654.241
453.704, 959.125
455.041, 1263.017
456.377, 1146.905
457.713, 722.791
459.049, 425.678
460.385, 246.565
461.721, 238.454
463.056, 177.344
464.391, 175.102
465.726, 293.771
467.061, 255.337
468.395, 326.966
469.730, 574.457
471.064, 557.667
472.398, 667.225
473.731, 624.344
475.065, 734.827
476.398, 930.458
477.731, 1271.653
479.064, 1779.983
480.397, 2110.782
481.729, 2153.076
483.062, 1590.504
484.394, 1078.420
485.725, 786.341
487.057, 861.269
488.389, 1002.201
489.720, 1196.141
491.051, 1211.095
492.382, 1016.060
493.712, 593.042
495.043, 414.038
496.373, 280.046
497.703, 159.063
499.032, 191.094
500.362, 193.136
501.691, 273.157
503.020, 212.983
504.349, 248.696
505.678, 387.752
507.007, 369.421
508.335, 355.506
509.663, 474.644
510.991, 670.216
512.319, 843.640
513.646, 1277.813
514.973, 1888.357
516.300, 3218.593
517.627, 4715.309
518.954, 5858.918
520.280, 6036.441
521.607, 4510.524
522.933, 2924.916
524.259, 1757.497
525.584, 1145.820
526.910, 809.150
528.235, 594.486
529.560, 520.826
530.885, 399.171
532.209, 397.521
533.534, 342.877
534.858, 328.250
536.182, 302.630
537.506, 275.078
538.829, 274.833
540.152, 189.689
541.476, 300.576
542.799, 128.589
544.121, 328.097
545.444, 368.314
546.766, 352.343
548.088, 452.214
549.410, 466.962
550.732, 637.248
552.053, 711.879
553.375, 935.283
554.696, 1290.980
556.017, 2048.464
557.337, 2872.857
558.658, 3955.438
559.978, 4851.737
561.298, 5348.490
562.618, 4625.103
563.938, 3533.010
565.257, 2467.275
566.576, 1727.543
567.895, 1294.743
569.214, 972.934
570.533, 738.571
571.851, 600.122
573.170, 637.350
574.488, 536.878
575.805, 443.558
577.123, 364.539
578.440, 334.588
579.758, 396.201
581.075, 326.704
582.391, 348.229
583.708, 348.746
585.024, 317.266
586.341, 323.244
587.657, 308.093
588.972, 305.228
590.288, 283.495
591.603, 292.299
592.918, 264.456
594.233, 213.737
595.548, 210.933
596.863, 149.424
598.177, 209.571
599.491, 245.868
600.805, 180.049
602.119, 188.137
603.432, 245.754
604.746, 232.604
606.059, 283.083
607.372, 247.365
608.685, 341.331
609.997, 268.326
611.309, 290.562
612.621, 275.023
613.933, 359.915
615.245, 345.811
616.557, 290.673
617.868, 392.521
619.179, 266.354
620.490, 284.172
621.801, 372.976
623.111, 435.765
624.421, 511.540
625.731, 434.301
627.041, 451.049
628.351, 433.783
629.660, 332.505
630.970, 360.212
632.279, 340.909
633.588, 368.591
634.896, 420.259
636.205, 633.914
637.513, 630.557
638.821, 995.184
640.129, 1315.798
641.437, 1534.399
642.744, 1566.984
644.051, 1497.552
645.358, 1342.105
646.665, 1152.643
647.972, 880.164
649.278, 649.668
650.584, 515.157
651.890, 535.629
653.196, 411.085
654.502, 462.525
655.807, 326.948
657.113, 408.354
658.418, 314.743
659.722, 181.116
661.027, 166.472
662.331, 159.813
663.636, 119.141
664.940, 60.455
666.244, 70.463
667.547, 8.024
668.851, 57.276
670.154, 58.507
671.457, 30.720
672.760, 101.910
674.062, 7.083
675.365, 27.229
676.667, 56.354
677.969, 72.459
679.271, 102.730
680.572, 64.611
681.874, 173.656
683.175, 191.684
684.476, 255.692
685.777, 338.683
687.077, 268.654
688.378, 315.607
689.678, 234.541
690.978, 205.248
692.278, 173.387
693.577, 121.231
694.877, 51.091
696.176, 29.928
697.475, 80.257
698.774, 2.518
700.072, 50.319
701.371, 42.834
702.669, 42.537
703.967, 20.961
705.265, 1.571
706.562, 22.928
707.860, 44.472
709.157, 56.906
710.454, 61.736
711.751, 74.464
713.047, 73.264
714.344, 60.563
715.640, 56.341
716.936, 32.067
718.232, 30.113
719.527, 35.206
720.823, 25.350
722.118, 89.538
723.413, 104.804
724.708, 105.160
726.002, 96.863
727.297, 80.114
728.591, 43.706
729.885, 49.112
731.179, 21.950
732.472, 25.771
733.766, 27.533
735.059, 25.662
736.352, 47.836
737.645, 38.410
738.937, 36.128
740.230, 31.246
741.522, 14.656
742.814, 8.409
744.106, 20.452
745.397, 50.523
746.689, 2.450
747.980, 92.400
749.271, 58.334
750.562, 74.252
751.853, 28.846
753.143, 77.019
754.433, 36.867
755.723, 26.301
757.013, 77.496
758.303, 0.723
759.592, 72.038
760.881, 23.783
762.170, 12.512
763.459, 27.776
764.748, 29.097
766.036, 9.500
767.325, 21.823
768.613, 99.777
769.901, 76.365
771.188, 79.938
772.476, 102.500
773.763, 105.502
775.050, 168.583
776.337, 119.106
777.624, 146.617
778.910, 102.116
780.196, 176.603
781.482, 108.078
782.768, 84.542
784.054, 117.993
785.339, 99.433
786.625, 93.861
787.910, 218.278
789.195, 179.685
790.479, 154.080
791.764, 232.464
793.048, 157.837
794.332, 241.200
795.616, 219.552
796.900, 252.005
798.183, 267.328
799.467, 287.545
800.750, 302.855
802.033, 224.157
803.316, 289.447
804.598, 159.729
805.880, 345.000
807.163, 322.263
808.445, 276.516
809.726, 260.760
811.008, 314.994
812.289, 334.220
813.570, 402.437
814.851, 387.646
816.132, 365.846
817.413, 339.037
818.693, 333.172
819.973, 327.305
821.253, 318.968
822.533, 330.957
823.813, 351.231
825.092, 351.024
826.371, 399.739
827.650, 495.745
828.929, 528.998
830.208, 511.678
831.486, 520.476
832.764, 542.333
834.042, 564.311
835.320, 508.125
836.598, 664.215
837.875, 584.312
839.152, 686.403
840.429, 758.490
841.706, 734.583
842.983, 729.673
844.259, 836.771
845.536, 839.875
846.812, 874.974
848.088, 1050.034
849.363, 1168.800
850.639, 1267.478
851.914, 1323.144
853.189, 1453.685
854.464, 1619.230
855.739, 1777.013
857.013, 1700.070
858.288, 1587.481
859.562, 1605.341
860.836, 1602.665
862.110, 1319.645
863.383, 1398.854
864.656, 1268.765
865.930, 1133.885
867.203, 1229.090
868.475, 1133.704
869.748, 1083.451
871.020, 1086.311
872.292, 1045.308
873.564, 1057.215
874.836, 1006.368
876.108, 1081.717
877.379, 1134.131
878.650, 1145.457
879.922, 1072.514
881.192, 1134.566
882.463, 1171.948
883.733, 1143.028
885.004, 1202.965
886.274, 1122.602
887.544, 1377.162
888.813, 1225.160
890.083, 1363.265
891.352, 1365.364
892.621, 1436.468
893.890, 1539.575
895.159, 1473.220
896.427, 1623.232
897.695, 1826.395
898.964, 1859.988
900.232, 1883.870
901.499, 1944.396
902.767, 2209.793
904.034, 2282.273
905.301, 2550.457
906.568, 2791.981
907.835, 3019.353
909.102, 3310.837
910.368, 3534.412
911.634, 4007.454
912.900, 4329.043
914.166, 4912.445
915.432, 5477.823
916.697, 6276.519
917.962, 7375.184
919.227, 8507.611
920.492, 9788.815
921.757, 11242.590
923.021, 12856.357
924.285, 13949.159
925.550, 15260.979
926.813, 15806.812
928.077, 15984.653
929.341, 15766.506
930.604, 15492.367
931.867, 14912.241
933.130, 15070.126
934.393, 16597.021
935.655, 17810.928
936.918, 19935.855
938.180, 19618.789
939.442, 17502.730
940.703, 14901.686
941.965, 11826.647
943.226, 9452.625
944.488, 7654.611
945.749, 6719.605
947.009, 5573.612
948.270, 4799.630
949.530, 4176.659
950.791, 3842.699
952.051, 3317.747
953.311, 3004.807
954.570, 2820.876
955.830, 2684.955
957.089, 2489.045
958.348, 2357.143
959.607, 2288.251
960.866, 2170.650
962.124, 2103.512
963.383, 2066.665
964.641, 2021.827
965.899, 2054.008
967.156, 2045.197
968.414, 2099.397
969.671, 2282.607
970.928, 2292.269
972.185, 2420.059
973.442, 2474.301
974.699, 2844.558
975.955, 3038.825
977.211, 3573.104
978.468, 4219.393
979.723, 5108.891
980.979, 6358.461
982.234, 8262.223
983.490, 9475.560
984.745, 11258.108
986.000, 11641.722
987.254, 10770.238
988.509, 9287.162
989.763, 7176.552
991.017, 5483.160
992.271, 4241.158
993.525, 3433.166
994.779, 2904.400
996.032, 2356.150
997.285, 2170.888
998.538, 1711.274
999.791, 1874.203
1001.044, 1697.853
1002.296, 1808.935
1003.548, 1543.901
1004.800, 1308.850
1006.052, 1141.637
1007.304, 1099.311
1008.555, 1027.413
1009.807, 957.199
1011.058, 890.388
1012.309, 909.389
1013.559, 739.716
1014.810, 768.836
1016.060, 702.115
1017.310, 801.874
1018.560, 783.691
1019.810, 872.690
1021.060, 847.027
1022.309, 713.033
1023.558, 883.562
1024.807, 613.992
1026.056, 743.637
1027.305, 646.092
1028.553, 725.514
1029.801, 588.047
1031.049, 525.073
1032.297, 584.219
1033.545, 635.991
1034.793, 561.602
1036.040, 506.309
1037.287, 449.509
1038.534, 484.973
1039.781, 465.062
1041.027, 521.061
1042.274, 485.833
1043.520, 495.891
1044.766, 459.271
1046.012, 420.837
1047.257, 361.421
1048.503, 566.674
1049.748, 422.838
1050.993, 477.656
1052.238, 568.488
1053.483, 547.289
1054.727, 484.131
1055.971, 556.957
1057.216, 413.791
1058.459, 436.601
1059.703, 450.456
1060.947, 468.323
1062.190, 387.353
1063.433, 486.529
1064.676, 474.413
1065.919, 433.687
1067.162, 508.190
1068.404, 452.511
1069.646, 385.416
1070.888, 544.329
1072.130, 523.711
1073.372, 537.554
1074.613, 558.708
1075.855, 555.946
1077.096, 549.010
1078.337, 554.549
1079.578, 525.846
1080.818, 521.376
1082.059, 492.563
1083.299, 481.060
1084.539, 444.053
1085.779, 396.226
1087.018, 364.468
1088.258, 323.617
1089.497, 307.302
1090.736, 229.416
1091.975, 225.758
1093.213, 140.086
1094.452, 183.174
1095.690, 58.441
1096.928, 203.776
1098.166, 179.185
1099.404, 220.233
1100.642, 107.271
1101.879, 150.533
1103.116, 87.552
1104.353, 138.558
1105.590, 85.553
1106.827, 197.535
1108.063, 61.515
1109.299, 254.485
1110.536, 227.482
1111.771, 50.628
1113.007, 99.653
1114.243, 182.189
1115.478, 95.114
1116.713, 201.198
1117.948, 142.081
1119.183, 100.051
1120.418, 110.906
1121.652, 356.789
1122.886, 494.688
1124.120, 452.500
1125.354, 250.324
1126.588, 190.107
1127.821, 27.875
1129.055, 16.626
1130.288, 5.440
1131.521, 128.070
1132.753, 34.765
1133.986, 23.440
1135.218, 52.098
1136.450, 48.266
1137.682, 106.643
1138.914, 42.220
1140.146, 46.224
1141.377, 7.524
1142.609, 47.914
1143.840, 39.143
1145.071, 31.287
1146.301, 47.314
1147.532, 0.019
1148.762, 17.661
1149.992, 71.397
1151.222, 2.821
1152.452, 34.976
1153.682, 110.828
1154.911, 89.274
1156.140, 1.352
1157.369, 123.603
1158.598, 0.562
1159.827, 13.466
1161.055, 17.532
1162.284, 23.354
1163.512, 3.218
1164.740, 127.034
1165.967, 100.183
1167.195, 86.500
1168.422, 16.121
1169.650, 98.714
1170.877, 27.717
1172.103, 25.184
1173.330, 4.312
1174.557, 21.779
1175.783, 36.215
1177.009, 24.224
1178.235, 2.969
1179.461, 29.715
1180.686, 12.556
1181.912, 35.215
1183.137, 4.206
1184.362, 136.132
1185.587, 1.300
1186.811, 18.400
1188.036, 57.770
1189.260, 26.317
1190.484, 21.483
1191.708, 108.110
1192.932, 139.720
1194.155, 43.591
1195.378, 37.741
1196.602, 15.257
1197.825, 35.280
1199.047, 37.132
1200.270, 41.776
1201.492, 38.129
1202.715, 41.939
1203.937, 41.927
1205.159, 45.701
1206.380, 42.174
1207.602, 41.695
1208.823, 31.245
1210.044, 25.460
1211.265, 8.233
1212.486, 23.534
1213.707, 17.800
1214.927, 2.184
1216.147, 45.367
1217.367, 10.558
1218.587, 23.876
1219.807, 52.952
1221.027, 7.174
1222.246, 39.177
1223.465, 109.142
1224.684, 166.075
1225.903, 161.148
1227.121, 163.698
1228.340, 125.690
1229.558, 110.503
1230.776, 44.284
1231.994, 36.031
1233.212, 167.748
1234.429, 121.435
1235.646, 126.092
1236.864, 230.719
1238.081, 138.306
1239.297, 139.853
1240.514, 286.348
1241.730, 150.809
1242.947, 133.203
1244.163, 113.560
1245.378, 216.883
1246.594, 216.171
1247.810, 142.497
1249.025, 227.713
1250.240, 214.898
1251.455, 247.050
1252.670, 201.165
1253.885, 269.034
1255.099, 238.145
1256.313, 0.046
1257.527, 156.089
1258.741, 182.023
1259.955, 29.925
1261.168, 200.784
1262.382, 159.609
1263.595, 301.399
1264.808, 181.157
1266.021, 278.883
1267.233, 195.833
1268.446, 189.494
1269.658, 219.125
1270.870, 200.548
1272.082, 249.944
1273.294, 235.629
1274.505, 332.029
1275.716, 351.090
1276.928, 367.901
1278.139, 428.092
1279.349, 246.019
1280.560, 235.811
1281.770, 224.652
1282.981, 130.023
1284.191, 228.029
1285.401, 246.492
1286.610, 162.091
1287.820, 172.622
1289.029, 124.967
1290.239, 784.853
1291.448, 312.115
1292.656, 889.412
1293.865, 358.080
1295.073, 339.992
1296.282, 246.882
1297.490, 278.897
1298.698, 302.187
1299.906, 279.354
1301.113, 204.094
1302.320, 255.208
1303.528, 137.862
1304.735, 242.837
1305.942, 190.120
1307.148, 372.710
1308.355, 417.535
1309.561, 462.004
1310.767, 321.037
1311.973, 346.235
1313.179, 270.751
1314.384, 403.625
1315.590, 278.848
1316.795, 339.951
1318.000, 230.009
1319.205, 307.894
1320.410, 366.045
1321.614, 176.812
1322.819, 313.562
1324.023, 263.536
1325.227, 306.181
1326.431, 299.592
1327.634, 169.683
1328.838, 263.244
1330.041, 127.188
1331.244, 132.201
1332.447, 19.264
1333.650, 116.431
1334.852, 82.245
1336.055, 25.409
1337.257, 71.843
1338.459, 3.165
1339.661, 120.051
1340.862, 73.246
1342.064, 83.367
1343.265, 14.674
1344.466, 150.731
1345.667, 34.752
1346.868, 287.138
1348.068, 136.603
1349.269, 55.968
1350.469, 209.412
1351.669, 103.833
1352.869, 203.185
1354.069, 140.477
1355.268, 29.707
1356.468, 171.279
1357.667, 164.420
1358.866, 72.925
1360.065, 182.326
1361.263, 98.410
1362.462, 57.527
1363.660, 209.650
1364.858, 61.783
1366.056, 180.874
1367.254, 277.500
1368.451, 159.530
1369.649, 227.584
1370.846, 219.796
1372.043, 131.271
1373.240, 201.709
1374.436, 237.110
1375.633, 141.528
1376.829, 159.043
1378.025, 144.621
1379.221, 137.701
1380.417, 198.608
1381.613, 165.608
1382.808, 218.376
1384.003, 229.819
1385.199, 274.029
1386.393, 149.848
1387.588, 197.296
1388.783, 160.231
1389.977, 206.143
1391.171, 60.743
1392.365, 105.833
1393.559, 231.541
1394.753, 74.581
1395.946, 107.155
1397.140, 19.091
1398.333, 2.904
1399.526, 28.852
1400.719, 52.218
1401.911, 89.476
1403.104, 157.610
1404.296, 67.589
1405.488, 115.461
1406.680, 74.499
1407.872, 156.827
1409.063, 232.405
1410.255, 16.464
1411.446, 133.093
1412.637, 110.778
1413.828, 12.071
1415.018, 106.131
1416.209, 47.230
1417.399, 0.896
1418.589, 115.947
1419.779, 90.958
1420.969, 59.008
1422.159, 28.071
1423.348, 37.958
1424.537, 67.802
1425.726, 49.266
1426.915, 0.265
1428.104, 0.000
##END=



