##NAMES=Topaz
##RRUFFID=R040121
##IDEAL CHEMISTRY=Al_2_SiO_4_F_2_
##LOCALITY=Tepetate, San Luis Potosi, Mexico
##OWNER=RRUFF
##SOURCE=University of Arizona Mineral Museum
##DESCRIPTION=Fragments of a prismatic single crystal
##STATUS=The identification of this mineral has been confirmed by X-ray diffraction and chemical analysis
##URL=rruff.info/R040121
##MEASURED CHEMISTRY=Al_2.00_(Si_0.99_Al_0.02_)(F_0.82_(OH)_0.18_)_2_
##PIN_ID=L00473
##ORIENTATION=Laser parallel to a* (1 0 0). Fiducial mark perpendicular to laser is parallel to b [0 1 0]
94.768, 0.000
96.161, 53.591
97.554, 87.596
98.947, 18.381
100.340, 2.833
101.732, 87.101
103.124, 59.551
104.516, 136.935
105.908, 263.368
107.300, 231.666
108.691, 275.776
110.082, 331.125
111.473, 428.404
112.864, 528.350
114.254, 984.194
115.644, 1804.941
117.034, 2220.790
118.424, 2649.141
119.813, 2831.172
121.203, 1254.097
122.592, 658.633
123.981, 431.945
125.369, 363.926
126.758, 354.938
128.146, 170.771
129.534, 279.419
130.922, 140.719
132.309, 188.739
133.696, 103.973
135.083, 212.768
136.470, 73.138
137.857, 169.609
139.243, 132.787
140.630, 178.658
142.016, 142.464
143.401, 135.570
144.787, 221.653
146.172, 452.281
147.557, 583.734
148.942, 657.308
150.327, 972.453
151.711, 1450.425
153.096, 2132.584
154.480, 2379.551
155.863, 1667.014
157.247, 1006.752
158.630, 709.416
160.013, 541.237
161.396, 452.307
162.779, 408.382
164.161, 292.179
165.544, 243.466
166.926, 149.696
168.308, 116.849
169.689, 71.002
171.070, 0.842
172.452, 82.317
173.833, 65.480
175.213, 65.648
176.594, 16.823
177.974, 29.027
179.354, 6.438
180.734, 37.726
182.114, 1.211
183.493, 11.779
184.872, 55.423
186.251, 14.134
187.630, 19.092
189.008, 3.263
190.387, 44.614
191.765, 29.466
193.143, 32.509
194.520, 116.521
195.898, 24.505
197.275, 62.467
198.652, 22.586
200.029, 27.650
201.405, 45.721
202.782, 69.252
204.158, 92.854
205.534, 68.911
206.909, 85.963
208.285, 69.005
209.660, 12.037
211.035, 6.941
212.410, 21.929
213.784, 27.926
215.159, 6.947
216.533, 45.982
217.907, 3.885
219.281, 70.749
220.654, 9.401
222.027, 134.406
223.400, 111.183
224.773, 168.899
226.146, 224.575
227.518, 376.142
228.891, 473.596
230.263, 892.012
231.634, 1694.567
233.006, 2891.976
234.377, 4541.394
235.748, 7027.867
237.119, 10897.076
238.490, 16034.487
239.860, 17027.852
241.231, 12515.227
242.601, 7312.617
243.970, 4324.025
245.340, 2728.446
246.709, 1828.882
248.079, 1321.333
249.448, 940.797
250.816, 884.277
252.185, 880.771
253.553, 798.281
254.921, 1071.805
256.289, 1274.344
257.657, 1753.896
259.024, 3067.462
260.391, 5502.892
261.758, 8652.364
263.125, 13263.837
264.492, 20768.301
265.858, 31540.697
267.224, 38281.105
268.590, 28994.469
269.956, 17331.775
271.321, 9983.040
272.687, 6292.246
274.052, 4414.393
275.416, 4022.478
276.781, 4441.502
278.146, 6394.464
279.510, 10044.365
280.874, 15231.192
282.237, 23029.951
283.601, 34196.648
284.964, 46006.250
286.327, 47325.781
287.690, 32557.236
289.053, 19493.627
290.416, 12086.953
291.778, 7326.215
293.140, 4862.422
294.502, 3080.576
295.863, 2199.676
297.225, 1562.706
298.586, 1255.574
299.947, 1050.432
301.308, 886.962
302.668, 779.653
304.029, 826.180
305.389, 742.724
306.749, 640.043
308.108, 756.201
309.468, 631.358
310.827, 767.381
312.186, 740.373
313.545, 899.348
314.903, 910.311
316.262, 1042.264
317.620, 1106.177
318.978, 1071.019
320.336, 1268.833
321.693, 1561.632
323.051, 2227.413
324.408, 3517.195
325.765, 6101.983
327.121, 9176.778
328.478, 13947.577
329.834, 21853.387
331.190, 31350.812
332.546, 31054.092
333.902, 21886.969
335.257, 12288.837
336.612, 7298.891
337.967, 4447.787
339.322, 2808.714
340.677, 1822.703
342.031, 1171.105
343.385, 893.860
344.739, 754.093
346.093, 573.550
347.446, 450.628
348.799, 407.614
350.153, 364.899
351.505, 324.302
352.858, 264.746
354.210, 209.699
355.563, 244.086
356.915, 184.854
358.267, 157.818
359.618, 123.884
360.969, 109.909
362.321, 92.827
363.672, 112.712
365.022, 116.042
366.373, 30.605
367.723, 126.170
369.073, 214.650
370.423, 122.253
371.773, 75.377
373.122, 44.239
374.471, 114.433
375.821, 48.182
377.169, 103.754
378.518, 30.263
379.866, 38.500
381.215, 56.321
382.563, 88.143
383.910, 113.236
385.258, 193.269
386.605, 272.369
387.952, 266.922
389.299, 433.376
390.646, 460.656
391.992, 771.940
393.339, 1066.251
394.685, 1835.564
396.031, 3322.882
397.376, 5368.203
398.722, 8669.546
400.067, 13274.885
401.412, 20211.270
402.757, 25676.658
404.101, 22097.057
405.446, 14162.458
406.790, 8598.858
408.134, 5503.292
409.478, 3653.734
410.821, 2425.180
412.165, 1539.625
413.508, 1243.073
414.851, 893.522
416.193, 777.972
417.536, 685.422
418.878, 532.874
420.220, 457.362
421.562, 323.824
422.904, 325.319
424.245, 284.760
425.586, 240.188
426.927, 310.650
428.268, 264.056
429.609, 133.450
430.949, 189.833
432.289, 262.205
433.629, 196.575
434.969, 320.939
436.309, 169.287
437.648, 236.497
438.987, 282.987
440.326, 320.303
441.665, 420.607
443.003, 557.910
444.342, 762.200
445.680, 1142.492
447.018, 1765.775
448.355, 2769.049
449.693, 5125.313
451.030, 8549.569
452.367, 14110.815
453.704, 21407.053
455.041, 32719.283
456.377, 36828.504
457.713, 28745.715
459.049, 17247.926
460.385, 10312.123
461.721, 6382.314
463.056, 3843.500
464.391, 2512.679
465.726, 1741.852
467.061, 1218.020
468.395, 927.182
469.730, 805.337
471.064, 518.490
472.398, 478.639
473.731, 229.781
475.065, 289.921
476.398, 255.056
477.731, 302.188
479.064, 237.313
480.397, 144.438
481.729, 138.557
483.062, 172.672
484.394, 182.784
485.725, 152.892
487.057, 266.996
488.389, 344.095
489.720, 522.189
491.051, 627.280
492.382, 714.368
493.712, 401.455
495.043, 214.539
496.373, 97.634
497.703, 111.726
499.032, 94.816
500.362, 104.906
501.691, 60.999
503.020, 47.906
504.349, 17.827
505.678, 120.245
507.007, 26.322
508.335, 70.438
509.663, 25.516
510.991, 224.102
512.319, 86.372
513.646, 113.329
514.973, 12.213
516.300, 117.248
517.627, 145.383
518.954, 12.894
520.280, 43.426
521.607, 9.309
522.933, 74.524
524.259, 3.591
525.584, 4.387
526.910, 45.647
528.235, 38.339
529.560, 53.739
530.885, 23.024
532.209, 90.164
533.534, 30.036
534.858, 15.122
536.182, 75.785
537.506, 45.112
538.829, 35.590
540.152, 3.598
541.476, 78.626
542.799, 11.318
544.121, 151.696
545.444, 68.210
546.766, 35.769
548.088, 64.979
549.410, 145.938
550.732, 203.958
552.053, 363.472
553.375, 395.393
554.696, 544.617
556.017, 824.511
557.337, 1066.470
558.658, 1479.338
559.978, 1864.387
561.298, 2093.949
562.618, 2010.775
563.938, 1648.585
565.257, 1245.382
566.576, 886.054
567.895, 746.064
569.214, 609.814
570.533, 424.549
571.851, 264.270
573.170, 303.973
574.488, 193.662
575.805, 276.336
577.123, 138.993
578.440, 126.451
579.758, 212.078
581.075, 121.689
582.391, 251.533
583.708, 276.113
585.024, 120.678
586.341, 207.284
587.657, 321.815
588.972, 344.423
590.288, 207.938
591.603, 177.515
592.918, 129.985
594.233, 209.439
595.548, 257.878
596.863, 121.315
598.177, 280.723
599.491, 260.114
600.805, 289.842
602.119, 324.371
603.432, 314.712
604.746, 294.041
606.059, 264.356
607.372, 177.655
608.685, 218.938
609.997, 224.206
611.309, 298.459
612.621, 336.284
613.933, 399.917
615.245, 427.125
616.557, 456.316
617.868, 456.492
619.179, 573.653
620.490, 543.799
621.801, 727.930
623.111, 721.046
624.421, 1010.146
625.731, 825.232
627.041, 859.303
628.351, 649.358
629.660, 546.399
630.970, 684.426
632.279, 526.437
633.588, 569.433
634.896, 469.415
636.205, 609.382
637.513, 685.333
638.821, 1096.271
640.129, 1379.193
641.437, 1732.102
642.744, 1981.996
644.051, 2185.875
645.358, 2246.740
646.665, 1975.592
647.972, 1621.428
649.278, 1206.250
650.584, 917.058
651.890, 1004.851
653.196, 822.631
654.502, 654.396
655.807, 481.146
657.113, 361.884
658.418, 420.606
659.722, 248.315
661.027, 249.896
662.331, 126.990
663.636, 127.658
664.940, 14.726
666.244, 141.886
667.547, 9.433
668.851, 47.001
670.154, 13.446
671.457, 5.932
672.760, 34.072
674.062, 79.531
675.365, 8.977
676.667, 31.266
677.969, 39.664
679.271, 3.903
680.572, 1.741
681.874, 13.890
683.175, 33.498
684.476, 45.247
685.777, 73.093
687.077, 102.965
688.378, 51.480
689.678, 36.469
690.978, 39.629
692.278, 281.914
693.577, 75.818
694.877, 83.154
696.176, 72.311
697.475, 3.147
698.774, 48.757
700.072, 50.589
701.371, 71.753
702.669, 105.287
703.967, 13.933
705.265, 178.266
706.562, 24.766
707.860, 76.745
709.157, 67.686
710.454, 7.106
711.751, 160.514
713.047, 72.087
714.344, 65.258
715.640, 139.407
716.936, 53.158
718.232, 164.048
719.527, 64.246
720.823, 19.438
722.118, 91.379
723.413, 34.254
724.708, 66.842
726.002, 43.931
727.297, 116.692
728.591, 59.089
729.885, 197.158
731.179, 58.222
732.472, 93.279
733.766, 34.669
735.059, 13.331
736.352, 12.354
737.645, 6.674
738.937, 29.336
740.230, 55.340
741.522, 0.706
742.814, 60.287
744.106, 2.723
745.397, 2.262
746.689, 48.760
747.980, 114.196
749.271, 62.143
750.562, 114.092
751.853, 2.039
753.143, 124.945
754.433, 150.886
755.723, 41.174
757.013, 179.749
758.303, 58.329
759.592, 42.569
760.881, 42.469
762.170, 186.365
763.459, 143.261
764.748, 79.157
766.036, 240.053
767.325, 34.947
768.613, 229.843
769.901, 145.737
771.188, 12.633
772.476, 246.530
773.763, 21.428
775.050, 225.324
776.337, 114.224
777.624, 289.123
778.910, 187.024
780.196, 220.927
781.482, 123.831
782.768, 165.738
784.054, 203.647
785.339, 217.559
786.625, 244.472
787.910, 323.390
789.195, 190.311
790.479, 356.233
791.764, 358.160
793.048, 268.091
794.332, 329.023
795.616, 319.511
796.900, 481.902
798.183, 371.849
799.467, 404.799
800.750, 432.754
802.033, 355.714
803.316, 599.680
804.598, 254.650
805.880, 571.625
807.163, 541.605
808.445, 489.593
809.726, 586.585
811.008, 581.583
812.289, 560.589
813.570, 653.600
814.851, 754.618
816.132, 641.652
817.413, 700.697
818.693, 880.749
819.973, 879.773
821.253, 859.841
822.533, 987.411
823.813, 1076.312
825.092, 1175.540
826.371, 1258.273
827.650, 1308.022
828.929, 1445.177
830.208, 1561.067
831.486, 1718.636
832.764, 1905.600
834.042, 2100.182
835.320, 2387.460
836.598, 2684.017
837.875, 2908.030
839.152, 3246.738
840.429, 3967.757
841.706, 4288.946
842.983, 5083.208
844.259, 6215.758
845.536, 7417.189
846.812, 9186.471
848.088, 11281.947
849.363, 13973.959
850.639, 17463.514
851.914, 20985.125
853.189, 24951.713
854.464, 28407.352
855.739, 30180.531
857.013, 28943.670
858.288, 26362.195
859.562, 22968.994
860.836, 19291.766
862.110, 15447.037
863.383, 12650.917
864.656, 10136.496
865.930, 8326.410
867.203, 6965.264
868.475, 5841.242
869.748, 4971.046
871.020, 4436.346
872.292, 3886.391
873.564, 3585.474
874.836, 3200.598
876.108, 2957.854
877.379, 2837.773
878.650, 2680.961
879.922, 2550.186
881.192, 2418.435
882.463, 2331.703
883.733, 2186.996
885.004, 2228.310
886.274, 2152.646
887.544, 2298.191
888.813, 2113.575
890.083, 2184.980
891.352, 2395.162
892.621, 2236.618
893.890, 2291.097
895.159, 2372.539
896.427, 2432.086
897.695, 2675.569
898.964, 2737.182
900.232, 2817.750
901.499, 3176.430
902.767, 3294.134
904.034, 3407.863
905.301, 3786.602
906.568, 4135.414
907.835, 4420.250
909.102, 4757.760
910.368, 5340.643
911.634, 6045.412
912.900, 6836.371
914.166, 8051.355
915.432, 8932.366
916.697, 10123.399
917.962, 12310.458
919.227, 14093.541
920.492, 16344.645
921.757, 18822.781
923.021, 21678.936
924.285, 24039.121
925.550, 26186.320
926.813, 27437.555
928.077, 27945.809
929.341, 27492.084
930.604, 26165.391
931.867, 24024.719
933.130, 22190.070
934.393, 20844.449
935.655, 18994.848
936.918, 17186.299
938.180, 15692.723
939.442, 13369.195
940.703, 11143.691
941.965, 9130.214
943.226, 7401.758
944.488, 6418.327
945.749, 5711.919
947.009, 4774.535
948.270, 4260.176
949.530, 3850.840
950.791, 3502.525
952.051, 3018.237
953.311, 2669.973
954.570, 2630.732
955.830, 2178.516
957.089, 2108.322
958.348, 1847.151
959.607, 1741.005
960.866, 1408.882
962.124, 1368.782
963.383, 1378.705
964.641, 1270.652
965.899, 1278.623
967.156, 1094.617
968.414, 999.636
969.671, 1032.676
970.928, 755.903
972.185, 1002.003
973.442, 699.126
974.699, 863.279
975.955, 748.455
977.211, 555.666
978.468, 675.911
979.723, 628.180
980.979, 665.471
982.234, 630.793
983.490, 425.182
984.745, 523.734
986.000, 560.898
987.254, 448.327
988.509, 636.295
989.763, 560.779
991.017, 486.573
992.271, 411.291
993.525, 405.428
994.779, 580.506
996.032, 473.288
997.285, 576.412
998.538, 531.323
999.791, 988.358
1001.044, 1001.399
1002.296, 1410.021
1003.548, 1254.262
1004.800, 1068.677
1006.052, 1053.453
1007.304, 967.739
1008.555, 1260.886
1009.807, 1263.990
1011.058, 1261.932
1012.309, 1055.375
1013.559, 919.477
1014.810, 658.785
1016.060, 567.072
1017.310, 705.253
1018.560, 463.288
1019.810, 529.598
1021.060, 605.484
1022.309, 469.797
1023.558, 688.987
1024.807, 395.542
1026.056, 505.901
1027.305, 400.287
1028.553, 514.830
1029.801, 449.805
1031.049, 289.480
1032.297, 325.125
1033.545, 235.281
1034.793, 252.715
1036.040, 200.320
1037.287, 172.158
1038.534, 249.111
1039.781, 294.619
1041.027, 279.128
1042.274, 248.095
1043.520, 309.714
1044.766, 167.364
1046.012, 281.182
1047.257, 181.964
1048.503, 181.421
1049.748, 5.371
1050.993, 240.261
1052.238, 365.380
1053.483, 193.747
1054.727, 182.411
1055.971, 380.448
1057.216, 212.281
1058.459, 365.044
1059.703, 169.944
1060.947, 158.260
1062.190, 286.081
1063.433, 288.157
1064.676, 266.378
1065.919, 219.224
1067.162, 333.304
1068.404, 243.086
1069.646, 260.118
1070.888, 421.983
1072.130, 345.948
1073.372, 397.741
1074.613, 320.859
1075.855, 241.118
1077.096, 173.919
1078.337, 402.722
1079.578, 368.718
1080.818, 430.708
1082.059, 506.512
1083.299, 524.316
1084.539, 499.716
1085.779, 496.317
1087.018, 365.911
1088.258, 409.715
1089.497, 296.518
1090.736, 238.319
1091.975, 188.240
1093.213, 183.039
1094.452, 120.827
1095.690, 67.631
1096.928, 70.424
1098.166, 188.212
1099.404, 258.997
1100.642, 6.779
1101.879, 184.800
1103.116, 115.572
1104.353, 170.339
1105.590, 20.131
1106.827, 131.887
1108.063, 30.637
1109.299, 108.381
1110.536, 128.139
1111.771, 155.870
1113.007, 153.595
1114.243, 138.738
1115.478, 162.446
1116.713, 191.146
1117.948, 112.838
1119.183, 1.479
1120.418, 113.192
1121.652, 216.855
1122.886, 357.510
1124.120, 301.153
1125.354, 54.787
1126.588, 51.409
1127.821, 69.022
1129.055, 89.622
1130.288, 136.210
1131.521, 44.787
1132.753, 14.353
1133.986, 46.098
1135.218, 143.413
1136.450, 135.091
1137.682, 181.318
1138.914, 49.288
1140.146, 41.061
1141.377, 82.610
1142.609, 48.348
1143.840, 105.607
1145.071, 3.538
1146.301, 87.372
1147.532, 45.679
1148.762, 86.310
1149.992, 62.393
1151.222, 24.481
1152.452, 8.659
1153.682, 92.815
1154.911, 37.962
1156.140, 111.277
1157.369, 61.605
1158.598, 25.966
1159.827, 33.632
1161.055, 6.217
1162.284, 81.782
1163.512, 93.335
1164.740, 145.872
1165.967, 67.607
1167.195, 109.875
1168.422, 1.310
1169.650, 152.680
1170.877, 32.969
1172.103, 53.651
1173.330, 136.581
1174.557, 174.797
1175.783, 110.959
1177.009, 23.900
1178.235, 88.205
1179.461, 100.292
1180.686, 61.356
1181.912, 85.401
1183.137, 122.690
1184.362, 71.691
1185.587, 61.787
1186.811, 182.744
1188.036, 32.260
1189.260, 69.426
1190.484, 147.314
1191.708, 145.284
1192.932, 40.843
1194.155, 32.686
1195.378, 64.533
1196.602, 30.469
1197.825, 117.292
1199.047, 81.234
1200.270, 61.185
1201.492, 234.608
1202.715, 82.804
1203.937, 155.725
1205.159, 188.311
1206.380, 159.789
1207.602, 49.217
1208.823, 187.520
1210.044, 128.892
1211.265, 112.888
1212.486, 197.339
1213.707, 143.629
1214.927, 266.035
1216.147, 159.269
1217.367, 201.697
1218.587, 180.224
1219.807, 318.382
1221.027, 147.960
1222.246, 124.068
1223.465, 262.153
1224.684, 323.476
1225.903, 183.514
1227.121, 186.527
1228.340, 350.531
1229.558, 295.498
1230.776, 212.602
1231.994, 215.541
1233.212, 300.441
1234.429, 346.320
1235.646, 253.175
1236.864, 447.006
1238.081, 213.809
1239.297, 378.587
1240.514, 370.326
1241.730, 418.006
1242.947, 399.629
1244.163, 257.204
1245.378, 508.697
1246.594, 365.058
1247.810, 193.379
1249.025, 502.664
1250.240, 368.837
1251.455, 246.974
1252.670, 413.069
1253.885, 347.125
1255.099, 374.135
1256.313, 252.433
1257.527, 444.357
1258.741, 331.240
1259.955, 161.075
1261.168, 417.863
1262.382, 383.602
1263.595, 421.360
1264.808, 342.996
1266.021, 362.416
1267.233, 433.483
1268.446, 555.974
1269.658, 341.551
1270.870, 474.955
1272.082, 490.407
1273.294, 483.711
1274.505, 602.971
1275.716, 614.182
1276.928, 607.742
1278.139, 506.768
1279.349, 514.694
1280.560, 481.901
1281.770, 324.819
1282.981, 413.372
1284.191, 354.089
1285.401, 363.454
1286.610, 261.574
1287.820, 334.477
1289.029, 136.660
1290.239, 443.928
1291.448, 250.305
1292.656, 402.939
1293.865, 345.910
1295.073, 446.309
1296.282, 365.066
1297.490, 395.978
1298.698, 409.929
1299.906, 422.480
1301.113, 387.650
1302.320, 381.360
1303.528, 349.119
1304.735, 353.324
1305.942, 445.772
1307.148, 403.598
1308.355, 343.590
1309.561, 439.577
1310.767, 269.344
1311.973, 404.546
1313.179, 288.984
1314.384, 507.024
1315.590, 610.128
1316.795, 499.122
1318.000, 329.164
1319.205, 353.514
1320.410, 285.400
1321.614, 303.790
1322.819, 379.618
1324.023, 411.548
1325.227, 335.411
1326.431, 420.108
1327.634, 126.539
1328.838, 201.273
1330.041, 162.953
1331.244, 220.700
1332.447, 81.394
1333.650, 130.151
1334.852, 194.665
1336.055, 46.295
1337.257, 183.861
1338.459, 1.367
1339.661, 187.427
1340.862, 121.809
1342.064, 12.082
1343.265, 37.346
1344.466, 114.513
1345.667, 17.069
1346.868, 218.004
1348.068, 279.021
1349.269, 70.021
1350.469, 262.874
1351.669, 80.712
1352.869, 104.489
1354.069, 222.210
1355.268, 33.127
1356.468, 148.533
1357.667, 228.286
1358.866, 145.062
1360.065, 244.869
1361.263, 124.886
1362.462, 98.977
1363.660, 228.305
1364.858, 86.577
1366.056, 194.883
1367.254, 285.300
1368.451, 114.706
1369.649, 187.038
1370.846, 279.305
1372.043, 172.577
1373.240, 216.078
1374.436, 137.653
1375.633, 172.391
1376.829, 317.215
1378.025, 210.021
1379.221, 306.065
1380.417, 305.502
1381.613, 233.547
1382.808, 425.479
1384.003, 394.646
1385.199, 394.500
1386.393, 236.926
1387.588, 484.703
1388.783, 175.453
1389.977, 300.730
1391.171, 210.459
1392.365, 214.756
1393.559, 272.449
1394.753, 125.580
1395.946, 188.209
1397.140, 128.039
1398.333, 171.055
1399.526, 36.492
1400.719, 217.771
1401.911, 150.604
1403.104, 228.119
1404.296, 147.008
1405.488, 218.330
1406.680, 67.082
1407.872, 152.512
1409.063, 216.992
1410.255, 0.584
1411.446, 178.223
1412.637, 35.889
1413.828, 130.379
1415.018, 36.666
1416.209, 118.725
1417.399, 191.754
1418.589, 213.986
1419.779, 1.689
1420.969, 204.377
1422.159, 25.146
1423.348, 74.615
1424.537, 124.158
1425.726, 0.527
1426.915, 31.523
1428.104, 0.930
1429.293, 0.000
##END=



