##NAMES=Topaz
##RRUFFID=R050176
##IDEAL CHEMISTRY=Al_2_SiO_4_F_2_
##LOCALITY=Jos Plateau, Nigeria
##OWNER=RRUFF
##SOURCE=Marcus Origlieri
##DESCRIPTION=Colorless prismatic crystal
##STATUS=The identification of this mineral has been confirmed by X-ray diffraction and chemical analysis
##URL=rruff.info/R050176
##MEASURED CHEMISTRY=Al_2.000_Si_1.000_O_4.000_(F_1.438_(OH)_0.562_)
##PIN_ID=L00136
##ORIENTATION=Laser parallel to -c* (0 0 -1). Fiducial mark perpendicular to laser is parallel to a [1 0 0]
94.071, 0.000
95.465, 3.376
96.858, 54.553
98.251, 102.920
99.644, 144.629
101.036, 127.768
102.428, 128.525
103.820, 165.695
105.212, 305.425
106.604, 410.106
107.995, 1234.265
109.387, 3201.538
110.777, 3005.636
112.168, 1748.324
113.559, 1247.411
114.949, 882.739
116.339, 1178.174
117.729, 1213.679
119.119, 687.064
120.508, 391.250
121.897, 281.195
123.286, 263.838
124.675, 282.099
126.063, 209.932
127.452, 240.296
128.840, 201.154
130.228, 198.472
131.615, 207.219
133.003, 224.368
134.390, 178.895
135.777, 240.774
137.164, 245.977
138.550, 219.474
139.937, 228.480
141.323, 182.476
142.709, 164.722
144.094, 130.219
145.480, 133.961
146.865, 266.938
148.250, 276.224
149.635, 445.292
151.019, 657.020
152.403, 902.832
153.788, 1774.832
155.171, 2546.009
156.555, 2178.356
157.939, 1110.864
159.322, 572.525
160.705, 325.333
162.088, 268.281
163.470, 204.364
164.853, 155.575
166.235, 162.910
167.617, 116.362
168.998, 177.930
170.380, 125.607
171.761, 173.391
173.142, 16.277
174.523, 97.261
175.904, 192.341
177.284, 31.480
178.664, 109.573
180.044, 79.674
181.424, 94.809
182.803, 55.978
184.183, 39.776
185.562, 158.539
186.940, 76.893
188.319, 92.303
189.698, 78.847
191.076, 16.553
192.454, 40.447
193.831, 78.490
195.209, 90.675
196.586, 10.915
197.963, 57.197
199.340, 82.589
200.717, 80.111
202.093, 3.280
203.470, 28.629
204.846, 50.060
206.221, 6.202
207.597, 60.567
208.972, 91.367
210.347, 75.196
211.722, 63.057
213.097, 9.947
214.472, 63.866
215.846, 30.815
217.220, 64.794
218.594, 164.802
219.967, 114.839
221.341, 123.904
222.714, 136.994
224.087, 173.112
225.460, 199.257
226.832, 355.430
228.204, 543.631
229.577, 720.858
230.948, 995.112
232.320, 1708.390
233.692, 3166.693
235.063, 5663.024
236.434, 9319.379
237.805, 15008.756
239.175, 24516.162
240.545, 30359.592
241.916, 22492.047
243.286, 13059.524
244.655, 7088.025
246.025, 4105.553
247.394, 2692.101
248.763, 2103.672
250.132, 1636.267
251.501, 1364.884
252.869, 1274.523
254.237, 1252.184
255.605, 1247.865
256.973, 1461.567
258.340, 1613.290
259.708, 2221.569
261.075, 3556.190
262.442, 6848.742
263.808, 12271.821
265.175, 19250.922
266.541, 36802.051
267.907, 53047.555
269.273, 47640.234
270.639, 26944.430
272.004, 13216.389
273.369, 6924.804
274.734, 3908.006
276.099, 2831.988
277.463, 2307.395
278.828, 2374.894
280.192, 2812.479
281.556, 3976.663
282.919, 5913.808
284.283, 8906.399
285.646, 13028.468
287.009, 12797.670
288.372, 9518.534
289.734, 6125.998
291.097, 3775.660
292.459, 2560.694
293.821, 1916.041
295.183, 1514.310
296.544, 1320.619
297.905, 1155.654
299.266, 1168.085
300.627, 907.529
301.988, 992.721
303.348, 965.781
304.709, 918.322
306.069, 811.629
307.428, 767.236
308.788, 822.875
310.147, 785.216
311.507, 801.912
312.865, 723.029
314.224, 757.776
315.583, 751.038
316.941, 711.835
318.299, 820.656
319.657, 780.500
321.015, 835.366
322.372, 951.253
323.729, 823.161
325.086, 995.089
326.443, 1145.037
327.800, 1477.003
329.156, 2059.986
330.512, 2879.987
331.868, 4016.004
333.224, 3853.038
334.579, 3029.088
335.935, 1982.152
337.290, 1194.232
338.645, 969.326
339.999, 729.435
341.354, 624.557
342.708, 564.691
344.062, 549.840
345.416, 485.005
346.769, 412.184
348.123, 463.032
349.476, 400.237
350.829, 438.455
352.182, 358.686
353.534, 494.926
354.887, 429.178
356.239, 520.444
357.591, 561.719
358.942, 428.012
360.294, 428.313
361.645, 333.625
362.996, 312.975
364.347, 345.331
365.698, 203.668
367.048, 323.819
368.398, 287.198
369.748, 284.548
371.098, 330.947
372.448, 348.353
373.797, 373.763
375.146, 297.181
376.495, 296.606
377.844, 243.035
379.192, 248.497
380.540, 327.962
381.889, 178.430
383.236, 244.929
384.584, 173.431
385.932, 152.956
387.279, 224.482
388.626, 253.012
389.973, 323.559
391.319, 202.106
392.666, 323.675
394.012, 361.245
395.358, 443.831
396.704, 622.417
398.049, 749.013
399.394, 1091.632
400.740, 1244.251
402.084, 1822.884
403.429, 1966.519
404.774, 1640.154
406.118, 1277.806
407.462, 774.458
408.806, 459.111
410.150, 335.765
411.493, 216.417
412.836, 224.078
414.179, 48.736
415.522, 139.396
416.865, 98.053
418.207, 65.709
419.549, 74.362
420.891, 74.014
422.233, 40.680
423.575, 20.362
424.916, 16.942
426.257, 90.752
427.598, 26.545
428.939, 39.150
430.279, 47.856
431.619, 34.432
432.959, 28.272
434.299, 67.018
435.639, 156.663
436.978, 0.374
438.318, 24.079
439.657, 75.789
440.996, 41.504
442.334, 30.779
443.673, 62.083
445.011, 2.574
446.349, 73.776
447.687, 74.171
449.024, 66.612
450.361, 75.098
451.699, 7.922
453.036, 98.471
454.372, 51.081
455.709, 70.305
457.045, 4.661
458.381, 12.003
459.717, 33.336
461.053, 36.665
462.388, 23.011
463.724, 70.714
465.059, 50.531
466.394, 121.228
467.728, 59.934
469.063, 122.091
470.397, 18.247
471.731, 73.390
473.065, 27.529
474.398, 110.658
475.732, 3.783
477.065, 129.898
478.398, 121.009
479.731, 187.112
481.063, 278.211
482.396, 112.304
483.728, 222.390
485.060, 271.471
486.391, 179.543
487.723, 386.610
489.054, 411.670
490.385, 505.725
491.716, 420.771
493.047, 322.810
494.377, 354.841
495.708, 208.865
497.038, 265.881
498.368, 296.169
499.697, 277.171
501.027, 271.164
502.356, 246.148
503.685, 330.126
505.014, 418.957
506.342, 456.917
507.671, 617.312
508.999, 752.287
510.327, 958.223
511.655, 1053.267
512.982, 1608.185
514.310, 2286.094
515.637, 3457.132
516.964, 5228.021
518.291, 7146.121
519.617, 9472.013
520.944, 9190.825
522.270, 7040.607
523.596, 4860.446
524.921, 3048.701
526.247, 2061.520
527.572, 1339.360
528.897, 916.164
530.222, 772.893
531.547, 483.276
532.871, 530.042
534.196, 370.442
535.520, 322.994
536.844, 348.733
538.167, 282.042
539.491, 199.749
540.814, 184.443
542.137, 205.568
543.460, 363.239
544.783, 308.405
546.105, 368.050
547.427, 411.770
548.749, 525.635
550.071, 501.239
551.393, 474.103
552.714, 630.681
554.035, 835.285
555.356, 1224.836
556.677, 1345.202
557.998, 1921.845
559.318, 2453.353
560.638, 2548.489
561.958, 2783.587
563.278, 2103.051
564.597, 1692.232
565.917, 1428.667
567.236, 944.500
568.555, 917.129
569.874, 655.519
571.192, 561.627
572.511, 549.985
573.829, 406.610
575.147, 526.938
576.464, 394.250
577.782, 397.546
579.099, 335.827
580.416, 272.093
581.733, 217.344
583.050, 275.577
584.366, 210.569
585.683, 332.772
586.999, 224.149
588.315, 247.536
589.630, 212.690
590.946, 173.192
592.261, 193.316
593.576, 178.116
594.891, 253.868
596.206, 187.270
597.520, 226.329
598.834, 166.036
600.148, 210.063
601.462, 312.557
602.776, 147.149
604.089, 181.350
605.402, 238.126
606.715, 156.816
608.028, 291.889
609.341, 73.404
610.653, 175.761
611.965, 211.781
613.277, 107.523
614.589, 176.394
615.901, 169.237
617.212, 214.385
618.523, 207.162
619.834, 134.953
621.145, 374.021
622.456, 178.244
623.766, 227.001
625.076, 282.012
626.386, 229.744
627.696, 326.850
629.006, 237.882
630.315, 267.576
631.624, 135.864
632.933, 226.533
634.242, 284.115
635.551, 142.760
636.859, 178.392
638.167, 180.012
639.475, 233.619
640.783, 119.214
642.090, 174.796
643.398, 267.366
644.705, 200.924
646.012, 258.471
647.318, 278.005
648.625, 249.528
649.931, 246.039
651.237, 209.537
652.543, 210.023
653.849, 195.499
655.155, 60.962
656.460, 195.410
657.765, 129.848
659.070, 93.272
660.375, 119.688
661.679, 32.092
662.984, 109.476
664.288, 47.850
665.592, 77.207
666.895, 284.554
668.199, 66.889
669.502, 110.211
670.805, 95.524
672.108, 19.825
673.411, 101.105
674.713, 1.625
676.016, 72.614
677.318, 22.841
678.620, 77.950
679.921, 126.188
681.223, 40.316
682.524, 178.431
683.825, 17.535
685.126, 17.619
686.427, 18.686
687.727, 28.732
689.028, 78.764
690.328, 25.786
691.628, 19.793
692.927, 62.783
694.227, 78.236
695.526, 76.679
696.825, 61.584
698.124, 77.519
699.423, 162.314
700.721, 47.862
702.020, 154.915
703.318, 45.684
704.616, 29.558
705.913, 110.165
707.211, 47.121
708.508, 175.548
709.805, 28.791
711.102, 53.835
712.399, 10.547
713.695, 63.953
714.992, 139.591
716.288, 25.873
717.584, 8.632
718.879, 77.124
720.175, 45.392
721.470, 72.054
722.765, 10.492
724.060, 16.921
725.355, 80.340
726.649, 16.245
727.944, 111.146
729.238, 9.533
730.532, 130.911
731.825, 136.284
733.119, 134.653
734.412, 49.017
735.705, 74.375
736.998, 171.729
738.291, 48.077
739.584, 24.423
740.876, 42.769
742.168, 62.111
743.460, 0.458
744.752, 142.799
746.043, 26.864
747.334, 57.465
748.626, 16.209
749.916, 93.876
751.207, 110.403
752.498, 123.686
753.788, 13.036
755.078, 169.234
756.368, 51.501
757.658, 46.779
758.947, 81.074
760.237, 92.373
761.526, 130.693
762.815, 35.035
764.104, 90.398
765.392, 36.076
766.680, 87.469
767.969, 159.891
769.257, 27.704
770.544, 177.727
771.832, 63.161
773.119, 82.600
774.406, 172.041
775.693, 24.481
776.980, 80.936
778.267, 395.414
779.553, 73.895
780.839, 176.413
782.125, 19.065
783.411, 159.453
784.697, 129.976
785.982, 56.500
787.267, 108.028
788.552, 61.440
789.837, 73.079
791.122, 267.599
792.406, 577.122
793.690, 213.648
794.974, 142.177
796.258, 136.708
797.542, 198.243
798.825, 152.781
800.108, 152.323
801.391, 170.869
802.674, 128.437
803.957, 106.008
805.239, 24.584
806.522, 229.164
807.804, 180.747
809.085, 181.340
810.367, 136.659
811.649, 149.263
812.930, 276.877
814.211, 101.497
815.492, 83.123
816.772, 151.890
818.053, 145.527
819.333, 197.740
820.613, 166.375
821.893, 144.046
823.173, 221.606
824.452, 95.291
825.732, 95.980
827.011, 218.540
828.290, 217.244
829.568, 225.734
830.847, 148.432
832.125, 177.207
833.403, 227.015
834.681, 65.765
835.959, 223.098
837.236, 220.863
838.514, 111.607
839.791, 405.412
841.068, 184.290
842.345, 419.512
843.621, 429.365
844.898, 511.583
846.174, 538.650
847.450, 556.529
848.726, 671.837
850.001, 783.748
851.277, 741.670
852.552, 860.159
853.827, 880.104
855.102, 961.551
856.376, 1056.518
857.651, 1055.411
858.925, 1013.157
860.199, 865.161
861.473, 800.908
862.746, 728.939
864.020, 695.944
865.293, 584.002
866.566, 594.244
867.839, 607.210
869.112, 686.310
870.384, 562.781
871.656, 619.294
872.928, 662.438
874.200, 526.863
875.472, 776.039
876.744, 683.815
878.015, 829.798
879.286, 684.019
880.557, 781.525
881.828, 847.783
883.098, 761.775
884.369, 960.066
885.639, 845.373
886.909, 883.706
888.178, 1131.056
889.448, 1095.423
890.717, 1164.812
891.987, 1228.219
893.256, 1321.643
894.524, 1477.096
895.793, 1491.565
897.061, 1692.867
898.330, 1882.401
899.598, 2063.223
900.865, 2234.818
902.133, 2411.410
903.401, 2724.383
904.668, 2905.037
905.935, 3255.713
907.202, 3581.756
908.468, 3941.468
909.735, 4517.199
911.001, 4777.962
912.267, 5554.742
913.533, 6375.543
914.799, 7282.363
916.064, 8568.200
917.330, 9719.058
918.595, 11505.938
919.860, 13223.838
921.124, 14908.756
922.389, 16420.680
923.653, 17623.695
924.918, 18211.672
926.182, 18358.670
927.445, 17336.686
928.709, 16655.715
929.972, 15136.770
931.236, 13453.843
932.499, 12809.934
933.761, 11627.045
935.024, 11219.794
936.286, 10693.943
937.549, 9728.113
938.811, 8791.300
940.073, 7700.510
941.334, 6656.324
942.596, 5580.574
943.857, 4792.842
945.118, 4367.131
946.379, 3781.440
947.640, 3288.770
948.900, 2897.119
950.161, 2532.489
951.421, 2377.880
952.681, 2084.290
953.940, 1990.973
955.200, 1839.424
956.459, 1520.895
957.719, 1395.386
958.978, 1359.898
960.236, 1390.313
961.495, 1158.867
962.753, 1079.441
964.012, 1109.637
965.270, 886.252
966.527, 1057.886
967.785, 928.542
969.043, 731.222
970.300, 956.635
971.557, 734.357
972.814, 805.102
974.071, 691.866
975.327, 714.650
976.583, 864.456
977.840, 794.281
979.095, 866.135
980.351, 1042.009
981.607, 984.913
982.862, 1011.839
984.117, 1196.404
985.372, 1096.405
986.627, 1057.427
987.882, 899.472
989.136, 730.544
990.390, 612.499
991.644, 456.621
992.898, 524.767
994.152, 410.677
995.405, 403.870
996.659, 578.692
997.912, 265.933
999.165, 483.193
1000.417, 514.001
1001.670, 472.328
1002.922, 755.676
1004.174, 401.071
1005.426, 624.487
1006.678, 613.943
1007.930, 587.419
1009.181, 747.915
1010.432, 500.445
1011.683, 744.996
1012.934, 571.592
1014.185, 497.207
1015.435, 520.856
1016.685, 469.525
1017.935, 412.223
1019.185, 376.963
1020.435, 190.722
1021.684, 457.512
1022.934, 300.325
1024.183, 168.158
1025.432, 319.026
1026.680, 100.914
1027.929, 275.824
1029.177, 239.754
1030.425, 136.227
1031.673, 165.203
1032.921, 291.211
1034.169, 12.240
1035.416, 177.290
1036.663, 202.379
1037.911, 261.468
1039.157, 306.578
1040.404, 125.835
1041.650, 411.981
1042.897, 153.147
1044.143, 87.887
1045.389, 258.090
1046.634, 95.946
1047.880, 204.188
1049.125, 49.447
1050.371, 172.705
1051.615, 276.008
1052.860, 55.337
1054.105, 31.860
1055.349, 221.248
1056.593, 0.658
1057.837, 138.088
1059.081, 102.534
1060.325, 32.471
1061.568, 257.951
1062.812, 105.446
1064.055, 128.958
1065.298, 227.486
1066.540, 120.030
1067.783, 140.588
1069.025, 141.163
1070.267, 71.752
1071.509, 276.356
1072.751, 5.020
1073.993, 168.624
1075.234, 203.281
1076.475, 72.954
1077.716, 280.637
1078.957, 129.327
1080.198, 193.034
1081.438, 234.760
1082.679, 63.503
1083.919, 266.263
1085.159, 162.042
1086.398, 97.840
1087.638, 276.655
1088.877, 156.488
1090.116, 279.339
1091.355, 169.198
1092.594, 87.074
1093.833, 117.967
1095.071, 150.874
1096.309, 75.788
1097.547, 313.720
1098.785, 29.667
1100.023, 252.623
1101.260, 59.586
1102.498, 106.434
1103.735, 199.543
1104.972, 19.538
1106.208, 159.539
1107.445, 189.558
1108.681, 30.408
1109.918, 120.606
1111.154, 36.615
1112.389, 47.364
1113.625, 124.664
1114.860, 19.705
1116.096, 28.762
1117.331, 68.833
1118.566, 90.080
1119.800, 151.006
1121.035, 170.106
1122.269, 23.223
1123.503, 167.354
1124.737, 47.500
1125.971, 104.662
1127.205, 153.011
1128.438, 32.201
1129.671, 45.401
1130.904, 36.618
1132.137, 42.167
1133.370, 176.092
1134.602, 60.318
1135.834, 8.541
1137.066, 137.141
1138.298, 121.659
1139.530, 159.483
1140.762, 226.629
1141.993, 82.215
1143.224, 179.909
1144.455, 14.949
1145.686, 163.200
1146.917, 59.384
1148.147, 11.445
1149.377, 325.731
1150.607, 167.919
1151.837, 130.116
1153.067, 446.576
1154.296, 227.792
1155.526, 384.020
1156.755, 438.442
1157.984, 395.688
1159.213, 627.940
1160.441, 728.939
1161.670, 725.209
1162.898, 990.489
1164.126, 793.840
1165.354, 817.135
1166.581, 716.595
1167.809, 626.905
1169.036, 643.225
1170.263, 548.576
1171.490, 237.912
1172.717, 436.257
1173.943, 244.608
1175.170, 157.969
1176.396, 303.335
1177.622, 6.294
1178.848, 320.080
1180.073, 86.544
1181.299, 123.932
1182.524, 319.305
1183.749, 35.727
1184.974, 131.640
1186.199, 143.562
1187.423, 17.055
1188.648, 310.334
1189.872, 18.984
1191.096, 43.616
1192.320, 225.777
1193.543, 108.585
1194.767, 21.762
1195.990, 109.113
1197.213, 96.530
1198.436, 226.804
1199.659, 159.206
1200.881, 14.445
1202.104, 458.903
1203.326, 33.128
1204.548, 124.387
1205.770, 220.642
1206.991, 36.847
1208.213, 312.369
1209.434, 210.580
1210.655, 32.777
1211.876, 240.969
1213.096, 148.199
1214.317, 56.315
1215.537, 292.363
1216.757, 33.849
1217.977, 300.833
1219.197, 347.785
1220.417, 175.178
1221.636, 345.994
1222.855, 165.202
1224.074, 317.386
1225.293, 245.545
1226.512, 54.423
1227.731, 333.317
1228.949, 235.227
1230.167, 144.151
1231.385, 363.090
1232.603, 223.046
1233.820, 69.015
1235.038, 482.999
1236.255, 31.997
1237.472, 479.369
1238.689, 254.354
1239.906, 168.352
1241.122, 426.373
1242.338, 330.575
1243.555, 175.588
1244.771, 307.615
1245.986, 31.327
1247.202, 292.339
1248.417, 180.361
1249.633, 219.396
1250.848, 343.439
1252.063, 221.519
1253.277, 224.564
1254.492, 436.615
1255.706, 205.259
1256.920, 315.466
1258.134, 349.619
1259.348, 60.559
1260.562, 432.850
1261.775, 283.804
1262.988, 145.765
1264.201, 559.735
1265.414, 254.713
1266.627, 280.681
1267.839, 420.658
1269.052, 71.645
1270.264, 431.637
1271.476, 300.639
1272.688, 31.648
1273.899, 355.668
1275.111, 199.898
1276.322, 271.885
1277.533, 362.721
1278.744, 72.668
1279.955, 408.809
1281.165, 243.584
1282.376, 6.473
1283.586, 381.256
1284.796, 106.861
1286.006, 108.453
1287.215, 417.986
1288.425, 3.486
1289.634, 144.590
1290.843, 316.043
1292.052, 67.492
1293.261, 308.943
1294.469, 197.389
1295.678, 196.830
1296.886, 533.264
1298.094, 24.729
1299.302, 150.189
1300.509, 168.623
1301.717, 44.027
1302.924, 459.396
1304.131, 314.773
1305.338, 13.838
1306.545, 404.555
1307.752, 153.928
1308.958, 84.328
1310.164, 457.711
1311.370, 66.074
1312.576, 371.416
1313.782, 388.934
1314.987, 103.490
1316.193, 484.033
1317.398, 372.543
1318.603, 203.010
1319.807, 397.436
1321.012, 149.816
1322.216, 411.619
1323.421, 429.904
1324.625, 31.896
1325.829, 387.484
1327.032, 272.441
1328.236, 21.334
1329.439, 400.785
1330.642, 25.754
1331.845, 232.646
1333.048, 438.635
1334.251, 74.615
1335.453, 463.598
1336.656, 324.783
1337.858, 73.941
1339.060, 393.643
1340.261, 206.029
1341.463, 182.924
1342.664, 521.436
1343.866, 6.041
1345.067, 257.625
1346.267, 539.207
1347.468, 2.893
1348.669, 374.475
1349.869, 315.887
1351.069, 80.955
1352.269, 622.568
1353.469, 177.838
1354.668, 258.730
1355.868, 446.592
1357.067, 125.838
1358.266, 283.100
1359.465, 490.049
1360.664, 50.158
1361.862, 485.176
1363.061, 340.580
1364.259, 2.574
1365.457, 477.654
1366.655, 63.576
1367.852, 271.613
1369.050, 0.000
##END=



