##NAMES=Topaz
##RRUFFID=R050176
##IDEAL CHEMISTRY=Al_2_SiO_4_F_2_
##LOCALITY=Jos Plateau, Nigeria
##OWNER=RRUFF
##SOURCE=Marcus Origlieri
##DESCRIPTION=Colorless prismatic crystal
##STATUS=The identification of this mineral has been confirmed by X-ray diffraction and chemical analysis
##URL=rruff.info/R050176
##MEASURED CHEMISTRY=Al_2.000_Si_1.000_O_4.000_(F_1.438_(OH)_0.562_)
##PIN_ID=L00271
##ORIENTATION=Laser parallel to a* (1 0 0). Fiducial mark perpendicular to laser is parallel to b [0 1 0]
88.496, 0.000
89.890, 1.334
91.284, 105.094
92.678, 1.681
94.071, 65.781
95.465, 36.104
96.858, 61.847
98.251, 90.062
99.644, 73.086
101.036, 66.435
102.428, 111.745
103.820, 170.732
105.212, 83.173
106.604, 254.888
107.995, 881.729
109.387, 462.574
110.777, 1439.318
112.168, 6474.869
113.559, 8832.148
114.949, 1820.099
116.339, 704.660
117.729, 366.784
119.119, 259.428
120.508, 179.553
121.897, 163.124
123.286, 187.110
124.675, 145.484
126.063, 92.219
127.452, 130.298
128.840, 78.697
130.228, 144.399
131.615, 98.375
133.003, 62.601
134.390, 99.058
135.777, 114.738
137.164, 130.642
138.550, 134.770
139.937, 168.114
141.323, 110.661
142.709, 124.397
144.094, 151.314
145.480, 129.402
146.865, 222.653
148.250, 337.059
149.635, 600.613
151.019, 1104.309
152.403, 1722.140
153.788, 3916.101
155.171, 6429.188
156.555, 5029.395
157.939, 2434.718
159.322, 1101.152
160.705, 553.693
162.088, 303.339
163.470, 327.125
164.853, 298.005
166.235, 393.978
167.617, 278.040
168.998, 285.189
170.380, 159.423
171.761, 122.707
173.142, 76.960
174.523, 83.202
175.904, 116.448
177.284, 31.722
178.664, 61.032
180.044, 90.402
181.424, 90.869
182.803, 106.495
184.183, 39.332
185.562, 62.366
186.940, 45.531
188.319, 93.783
189.698, 68.092
191.076, 85.428
192.454, 144.793
193.831, 76.188
195.209, 116.612
196.586, 72.068
197.963, 86.556
199.340, 170.076
200.717, 138.628
202.093, 96.239
203.470, 124.883
204.846, 133.559
206.221, 141.267
207.597, 124.008
208.972, 191.782
210.347, 201.588
211.722, 236.426
213.097, 206.295
214.472, 250.197
215.846, 241.130
217.220, 330.097
218.594, 280.097
219.967, 396.129
221.341, 362.192
222.714, 390.285
224.087, 537.408
225.460, 627.560
226.832, 745.741
228.204, 1041.951
229.577, 1365.190
230.948, 1995.458
232.320, 2986.754
233.692, 5234.077
235.063, 9214.429
236.434, 15273.771
237.805, 25724.164
239.175, 44884.578
240.545, 55537.023
241.916, 38753.488
243.286, 21260.986
244.655, 11191.509
246.025, 6145.057
247.394, 3833.631
248.763, 2615.232
250.132, 2122.858
251.501, 1745.510
252.869, 1569.187
254.237, 1459.521
255.605, 1548.107
256.973, 1668.061
258.340, 1794.246
259.708, 2410.646
261.075, 3542.222
262.442, 6597.954
263.808, 11821.553
265.175, 18938.557
266.541, 38513.332
267.907, 58685.566
269.273, 51495.383
270.639, 27397.686
272.004, 13434.612
273.369, 7583.743
274.734, 4664.582
276.099, 4037.692
277.463, 4046.195
278.828, 5301.225
280.192, 7923.142
281.556, 12591.662
282.919, 20002.752
284.283, 32539.070
285.646, 49750.844
287.009, 48082.715
288.372, 33444.551
289.734, 19563.830
291.097, 10813.150
292.459, 6571.513
293.821, 4185.915
295.183, 3003.357
296.544, 2281.835
297.905, 1822.350
299.266, 1582.899
300.627, 1231.482
301.988, 1163.099
303.348, 931.748
304.709, 895.427
306.069, 782.137
307.428, 704.876
308.788, 639.644
310.147, 651.438
311.507, 569.260
312.865, 552.067
314.224, 550.940
315.583, 599.839
316.941, 576.762
318.299, 600.708
319.657, 487.678
321.015, 381.670
322.372, 442.685
323.729, 401.720
325.086, 443.777
326.443, 452.854
327.800, 657.951
329.156, 932.068
330.512, 1405.203
331.868, 2125.357
333.224, 2148.530
334.579, 1766.720
335.935, 1154.928
337.290, 836.153
338.645, 616.396
339.999, 392.657
341.354, 404.937
342.708, 317.432
344.062, 283.745
345.416, 328.075
346.769, 241.600
348.123, 244.961
349.476, 308.337
350.829, 174.727
352.182, 173.129
353.534, 132.544
354.887, 128.973
356.239, 86.414
357.591, 57.868
358.942, 53.335
360.294, 103.814
361.645, 34.306
362.996, 96.814
364.347, 80.334
365.698, 19.868
367.048, 99.412
368.398, 40.985
369.748, 142.570
371.098, 118.165
372.448, 113.775
373.797, 52.396
375.146, 118.027
376.495, 84.682
377.844, 94.349
379.192, 32.037
380.540, 70.735
381.889, 43.557
383.236, 6.163
384.584, 40.892
385.932, 41.630
387.279, 80.378
388.626, 96.139
389.973, 122.913
391.319, 146.695
392.666, 268.502
394.012, 364.319
395.358, 476.143
396.704, 849.976
398.049, 1258.818
399.394, 2064.669
400.740, 3089.530
402.084, 4856.416
403.429, 5750.314
404.774, 5167.220
406.118, 3853.133
407.462, 2496.067
408.806, 1574.023
410.150, 1049.009
411.493, 673.001
412.836, 534.000
414.179, 377.013
415.522, 301.034
416.865, 235.076
418.207, 180.150
419.549, 142.243
420.891, 105.363
422.233, 126.499
423.575, 49.661
424.916, 6.160
426.257, 53.031
427.598, 3.745
428.939, 14.485
430.279, 0.727
431.619, 46.020
432.959, 3.219
434.299, 75.536
435.639, 31.321
436.978, 124.107
438.318, 111.947
439.657, 47.835
440.996, 132.734
442.334, 53.694
443.673, 62.675
445.011, 28.685
446.349, 35.707
447.687, 2.266
449.024, 15.761
450.361, 140.205
451.699, 295.177
453.036, 706.156
454.372, 1171.142
455.709, 1814.133
457.045, 2354.132
458.381, 2116.136
459.717, 1566.146
461.053, 1058.160
462.388, 713.181
463.724, 432.206
465.059, 300.237
466.394, 165.273
467.728, 143.314
469.063, 172.360
470.397, 122.418
471.731, 124.482
473.065, 15.451
474.398, 74.603
475.732, 103.659
477.065, 59.719
478.398, 109.783
479.731, 103.851
481.063, 194.921
482.396, 130.994
483.728, 179.070
485.060, 407.149
486.391, 688.230
487.723, 1089.314
489.054, 1735.401
490.385, 2190.490
491.716, 1865.580
493.047, 1241.673
494.377, 790.768
495.708, 379.864
497.038, 295.962
498.368, 255.062
499.697, 93.163
501.027, 88.266
502.356, 34.370
503.685, 67.472
505.014, 119.576
506.342, 36.680
507.671, 67.783
508.999, 62.887
510.327, 79.991
511.655, 162.096
512.982, 141.202
514.310, 194.308
515.637, 302.414
516.964, 478.519
518.291, 588.742
519.617, 954.849
520.944, 1007.954
522.270, 899.212
523.596, 735.345
524.921, 504.558
526.247, 327.662
527.572, 304.908
528.897, 227.010
530.222, 305.112
531.547, 233.968
532.871, 273.195
534.196, 181.293
535.520, 182.319
536.844, 277.890
538.167, 270.371
539.491, 331.744
540.814, 324.833
542.137, 323.320
543.460, 438.404
544.783, 475.719
546.105, 498.852
547.427, 569.695
548.749, 688.621
550.071, 875.693
551.393, 1167.679
552.714, 1577.745
554.035, 2035.003
555.356, 2865.100
556.677, 3882.479
557.998, 5437.783
559.318, 6647.432
560.638, 7182.049
561.958, 6883.554
563.278, 5458.592
564.597, 4111.625
565.917, 3016.862
567.236, 2177.443
568.555, 1674.564
569.874, 1264.782
571.192, 1015.818
572.511, 774.679
573.829, 665.896
575.147, 583.891
576.464, 467.493
577.782, 461.476
579.099, 393.618
580.416, 324.589
581.733, 286.740
583.050, 327.125
584.366, 198.447
585.683, 285.900
586.999, 171.179
588.315, 206.084
589.630, 242.664
590.946, 166.700
592.261, 243.183
593.576, 150.534
594.891, 181.926
596.206, 131.612
597.520, 117.789
598.834, 214.302
600.148, 165.177
601.462, 210.569
602.776, 156.375
604.089, 181.999
605.402, 180.515
606.715, 189.674
608.028, 186.978
609.341, 254.810
610.653, 312.635
611.965, 343.456
613.277, 337.271
614.589, 247.080
615.901, 182.885
617.212, 129.683
618.523, 215.476
619.834, 212.263
621.145, 225.045
622.456, 190.820
623.766, 231.590
625.076, 253.390
626.386, 242.293
627.696, 247.811
629.006, 228.639
630.315, 237.380
631.624, 261.156
632.933, 162.885
634.242, 257.607
635.551, 299.324
636.859, 340.035
638.167, 559.739
639.475, 676.438
640.783, 983.131
642.090, 1344.817
643.398, 1574.497
644.705, 1643.172
646.012, 1558.840
647.318, 1326.502
648.625, 1053.158
649.931, 736.808
651.237, 613.440
652.543, 567.846
653.849, 503.369
655.155, 421.015
656.460, 267.340
657.765, 204.581
659.070, 161.188
660.375, 152.590
661.679, 123.186
662.984, 155.775
664.288, 243.181
665.592, 358.758
666.895, 632.329
668.199, 858.894
669.502, 296.454
670.805, 333.006
672.108, 550.554
673.411, 471.095
674.713, 50.630
676.016, 67.158
677.318, 80.680
678.620, 9.197
679.921, 57.696
681.223, 50.189
682.524, 74.676
683.825, 42.844
685.126, 101.594
686.427, 130.027
687.727, 17.453
689.028, 46.867
690.328, 77.274
691.628, 24.325
692.927, 26.045
694.227, 15.596
695.526, 34.737
696.825, 133.062
698.124, 12.619
699.423, 67.684
700.721, 35.981
702.020, 49.271
703.318, 12.555
704.616, 9.826
705.913, 62.085
707.211, 43.662
708.508, 75.552
709.805, 34.760
711.102, 47.962
712.399, 26.158
713.695, 17.654
714.992, 13.510
716.288, 40.338
717.584, 5.222
718.879, 65.876
720.175, 88.970
721.470, 35.941
722.765, 41.886
724.060, 66.866
725.355, 27.105
726.649, 42.070
727.944, 14.970
729.238, 23.969
730.532, 83.901
731.825, 29.170
733.119, 70.730
734.412, 22.373
735.705, 121.500
736.998, 23.630
738.291, 8.216
739.584, 5.945
740.876, 63.118
742.168, 39.667
743.460, 43.452
744.752, 8.766
746.043, 60.005
747.334, 50.786
748.626, 71.566
749.916, 19.637
751.207, 12.152
752.498, 123.969
753.788, 23.188
755.078, 46.650
756.368, 17.520
757.658, 113.403
758.947, 89.301
760.237, 33.792
761.526, 68.103
762.815, 13.000
764.104, 97.901
765.392, 102.801
766.680, 74.700
767.969, 139.597
769.257, 79.492
770.544, 70.385
771.832, 61.277
773.119, 66.168
774.406, 75.058
775.693, 19.946
776.980, 63.833
778.267, 45.719
779.553, 6.604
780.839, 1.512
782.125, 31.631
783.411, 0.233
784.697, 129.096
785.982, 55.958
787.267, 109.830
788.552, 115.702
789.837, 13.572
791.122, 65.443
792.406, 10.314
793.690, 98.185
794.974, 41.055
796.258, 39.926
797.542, 106.798
798.825, 37.670
800.108, 152.542
801.391, 118.415
802.674, 31.295
803.957, 96.177
805.239, 3.059
806.522, 78.941
807.804, 55.825
809.085, 65.709
810.367, 83.595
811.649, 7.482
812.930, 80.371
814.211, 50.260
815.492, 130.154
816.772, 154.055
818.053, 126.958
819.333, 76.863
820.613, 128.771
821.893, 47.680
823.173, 203.591
824.452, 41.504
825.732, 67.420
827.011, 231.338
828.290, 226.259
829.568, 269.064
830.847, 118.991
832.125, 108.920
833.403, 153.708
834.681, 160.623
835.959, 213.460
837.236, 239.411
838.514, 186.222
839.791, 320.180
841.068, 331.143
842.345, 427.352
843.621, 460.198
844.898, 443.175
846.174, 595.256
847.450, 543.792
848.726, 614.423
850.001, 733.172
851.277, 753.210
852.552, 789.085
853.827, 965.133
855.102, 876.953
856.376, 979.956
857.651, 924.252
858.925, 813.469
860.199, 767.542
861.473, 616.703
862.746, 663.788
864.020, 474.683
865.293, 525.742
866.566, 569.521
867.839, 342.380
869.112, 448.895
870.384, 404.445
871.656, 528.111
872.928, 457.247
874.200, 392.390
875.472, 435.333
876.744, 326.934
878.015, 353.998
879.286, 519.970
880.557, 402.125
881.828, 471.460
883.098, 332.440
884.369, 390.647
885.639, 554.249
886.909, 414.474
888.178, 509.542
889.448, 454.785
890.717, 500.850
891.987, 589.685
893.256, 607.858
894.524, 569.648
895.793, 724.957
897.061, 688.280
898.330, 789.463
899.598, 987.808
900.865, 939.184
902.133, 946.570
903.401, 1095.290
904.668, 1199.520
905.935, 1259.940
907.202, 1363.565
908.468, 1515.006
909.735, 1655.389
911.001, 1864.864
912.267, 2168.349
913.533, 2290.542
914.799, 2765.055
916.064, 3239.506
917.330, 3586.041
918.595, 4306.586
919.860, 4707.145
921.124, 5420.716
922.389, 6169.299
923.653, 6775.895
924.918, 7411.499
926.182, 8144.115
927.445, 8728.742
928.709, 10170.378
929.972, 11433.031
931.236, 13875.692
932.499, 17793.328
933.761, 21769.869
935.024, 26866.801
936.286, 29098.428
937.549, 27377.369
938.811, 24655.098
940.073, 19546.840
941.334, 15000.594
942.596, 11573.362
943.857, 8991.140
945.118, 7182.930
946.379, 5748.731
947.640, 4794.637
948.900, 4084.461
950.161, 3265.300
951.421, 3003.150
952.681, 2532.012
953.940, 2326.458
955.200, 2039.344
956.459, 1836.242
957.719, 1702.152
958.978, 1483.074
960.236, 1315.008
961.495, 1342.955
962.753, 1114.914
964.012, 1206.886
965.270, 973.870
966.527, 1054.064
967.785, 938.449
969.043, 799.483
970.300, 931.530
971.557, 775.589
972.814, 729.661
974.071, 800.744
975.327, 641.840
976.583, 752.948
977.840, 661.115
979.095, 689.248
980.351, 815.393
981.607, 804.551
982.862, 758.903
984.117, 947.673
985.372, 819.875
986.627, 868.088
987.882, 538.777
989.136, 546.016
990.390, 558.404
991.644, 394.686
992.898, 489.979
994.152, 351.250
995.405, 341.573
996.659, 476.330
997.912, 259.690
999.165, 450.063
1000.417, 522.630
1001.670, 531.040
1002.922, 653.462
1004.174, 532.920
1005.426, 569.376
1006.678, 628.845
1007.930, 560.325
1009.181, 799.821
1010.432, 563.332
1011.683, 488.855
1012.934, 524.408
1014.185, 325.972
1015.435, 323.550
1016.685, 286.140
1017.935, 229.743
1019.185, 373.368
1020.435, 234.007
1021.684, 238.674
1022.934, 288.359
1024.183, 196.057
1025.432, 307.765
1026.680, 190.500
1027.929, 196.261
1029.177, 253.057
1030.425, 50.865
1031.673, 123.684
1032.921, 267.524
1034.169, 149.376
1035.416, 245.241
1036.663, 121.128
1037.911, 108.027
1039.157, 208.947
1040.404, 177.879
1041.650, 164.832
1042.897, 188.802
1044.143, 97.957
1045.389, 167.972
1046.634, 87.923
1047.880, 144.278
1049.125, 142.338
1050.371, 21.225
1051.615, 290.309
1052.860, 65.406
1054.105, 94.042
1055.349, 192.173
1056.593, 15.316
1057.837, 153.480
1059.081, 113.656
1060.325, 41.827
1061.568, 224.029
1062.812, 124.243
1064.055, 60.100
1065.298, 158.349
1066.540, 26.609
1067.783, 228.060
1069.025, 97.345
1070.267, 100.512
1071.509, 127.821
1072.751, 25.143
1073.993, 108.476
1075.234, 181.813
1076.475, 15.164
1077.716, 178.525
1078.957, 66.899
1080.198, 43.285
1081.438, 160.675
1082.679, 22.076
1083.919, 163.490
1085.159, 229.924
1086.398, 12.629
1087.638, 188.828
1088.877, 33.296
1090.116, 122.765
1091.355, 204.243
1092.594, 26.731
1093.833, 171.231
1095.071, 119.737
1096.309, 5.788
1097.547, 165.683
1098.785, 13.164
1100.023, 77.657
1101.260, 193.160
1102.498, 46.325
1103.735, 226.192
1104.972, 97.722
1106.208, 60.262
1107.445, 187.812
1108.681, 54.374
1109.918, 99.947
1111.154, 108.531
1112.389, 34.126
1113.625, 137.731
1114.860, 8.651
1116.096, 39.025
1117.331, 167.528
1118.566, 51.170
1119.800, 120.786
1121.035, 103.401
1122.269, 34.983
1123.503, 188.573
1124.737, 148.168
1125.971, 1.229
1127.205, 213.353
1128.438, 74.943
1129.671, 171.523
1130.904, 5.890
1132.137, 39.309
1133.370, 170.670
1134.602, 20.258
1135.834, 13.147
1137.066, 203.451
1138.298, 2.945
1139.530, 170.664
1140.762, 39.279
1141.993, 24.100
1143.224, 181.561
1144.455, 117.813
1145.686, 36.792
1146.917, 184.403
1148.147, 46.980
1149.377, 145.633
1150.607, 133.251
1151.837, 1.874
1153.067, 262.502
1154.296, 121.134
1155.526, 181.719
1156.755, 236.307
1157.984, 75.898
1159.213, 271.494
1160.441, 317.234
1161.670, 250.838
1162.898, 576.680
1164.126, 395.285
1165.354, 544.895
1166.581, 583.509
1167.809, 265.128
1169.036, 385.751
1170.263, 225.461
1171.490, 186.092
1172.717, 295.727
1173.943, 112.365
1175.170, 159.011
1176.396, 278.664
1177.622, 23.319
1178.848, 164.972
1180.073, 10.705
1181.299, 95.373
1182.524, 216.048
1183.749, 14.754
1184.974, 67.449
1186.199, 140.157
1187.423, 48.876
1188.648, 159.608
1189.872, 114.112
1191.096, 69.105
1192.320, 242.935
1193.543, 14.971
1194.767, 1.867
1195.990, 108.210
1197.213, 76.701
1198.436, 181.398
1199.659, 48.515
1200.881, 4.385
1202.104, 307.722
1203.326, 52.833
1204.548, 62.955
1205.770, 86.081
1206.991, 42.782
1208.213, 146.368
1209.434, 57.529
1210.655, 19.298
1211.876, 138.888
1213.096, 143.823
1214.317, 8.029
1215.537, 191.245
1216.757, 4.527
1217.977, 220.602
1219.197, 197.854
1220.417, 112.114
1221.636, 273.421
1222.855, 153.687
1224.074, 138.965
1225.293, 171.253
1226.512, 62.553
1227.731, 254.784
1228.949, 105.049
1230.167, 113.324
1231.385, 309.610
1232.603, 156.843
1233.820, 98.152
1235.038, 331.215
1236.255, 123.271
1237.472, 304.915
1238.689, 182.057
1239.906, 58.385
1241.122, 305.277
1242.338, 98.835
1243.555, 212.711
1244.771, 230.899
1245.986, 63.072
1247.202, 205.279
1248.417, 210.499
1249.633, 114.729
1250.848, 237.967
1252.063, 117.217
1253.277, 69.479
1254.492, 317.752
1255.706, 49.036
1256.920, 198.334
1258.134, 238.645
1259.348, 41.967
1260.562, 361.304
1261.775, 195.653
1262.988, 28.984
1264.201, 425.385
1265.414, 122.396
1266.627, 136.116
1267.839, 340.312
1269.052, 85.331
1270.264, 304.220
1271.476, 187.194
1272.688, 44.491
1273.899, 332.307
1275.111, 196.339
1276.322, 797.616
1277.533, 304.174
1278.744, 2.243
1279.955, 255.323
1281.165, 251.871
1282.376, 29.374
1283.586, 368.882
1284.796, 41.342
1286.006, 79.754
1287.215, 328.146
1288.425, 23.535
1289.634, 218.886
1290.843, 234.502
1292.052, 55.121
1293.261, 321.696
1294.469, 187.217
1295.678, 126.682
1296.886, 321.080
1298.094, 40.407
1299.302, 107.652
1300.509, 284.359
1301.717, 49.171
1302.924, 313.295
1304.131, 125.544
1305.338, 1.875
1306.545, 340.359
1307.752, 3.039
1308.958, 42.579
1310.164, 356.107
1311.370, 42.618
1312.576, 342.113
1313.782, 286.354
1314.987, 18.786
1316.193, 252.172
1317.398, 126.519
1318.603, 75.834
1319.807, 311.959
1321.012, 86.202
1322.216, 153.199
1323.421, 325.202
1324.625, 31.600
1325.829, 181.136
1327.032, 233.714
1328.236, 51.570
1329.439, 317.589
1330.642, 130.197
1331.845, 133.472
1333.048, 313.263
1334.251, 0.846
1335.453, 215.509
1336.656, 0.000
##END=



