##NAMES=Topaz
##RRUFFID=R050176
##IDEAL CHEMISTRY=Al_2_SiO_4_F_2_
##LOCALITY=Jos Plateau, Nigeria
##OWNER=RRUFF
##SOURCE=Marcus Origlieri
##DESCRIPTION=Colorless prismatic crystal
##STATUS=The identification of this mineral has been confirmed by X-ray diffraction and chemical analysis
##URL=rruff.info/R050176
##MEASURED CHEMISTRY=Al_2.000_Si_1.000_O_4.000_(F_1.438_(OH)_0.562_)
##PIN_ID=L00136
##ORIENTATION=Laser parallel to -c* (0 0 -1). Fiducial mark perpendicular to laser is parallel to a [1 0 0]
96.858, 0.000
98.251, 73.238
99.644, 4.317
101.036, 91.304
102.428, 59.567
103.820, 240.282
105.212, 306.714
106.604, 564.059
107.995, 1637.029
109.387, 2956.809
110.777, 2637.844
112.168, 2003.683
113.559, 1639.873
114.949, 1033.993
116.339, 980.729
117.729, 769.841
119.119, 702.195
120.508, 589.951
121.897, 384.438
123.286, 351.755
124.675, 307.185
126.063, 328.676
127.452, 313.061
128.840, 151.753
130.228, 315.763
131.615, 303.039
133.003, 298.581
134.390, 197.390
135.777, 266.463
137.164, 284.796
138.550, 311.386
139.937, 321.215
141.323, 146.527
142.709, 195.755
144.094, 229.832
145.480, 209.643
146.865, 250.243
148.250, 332.624
149.635, 505.222
151.019, 678.419
152.403, 1092.729
153.788, 1928.638
155.171, 2624.754
156.555, 2267.350
157.939, 1166.372
159.322, 726.603
160.705, 383.380
162.088, 318.110
163.470, 378.914
164.853, 371.910
166.235, 526.089
167.617, 281.449
168.998, 375.989
170.380, 163.704
171.761, 203.587
173.142, 26.635
174.523, 102.844
175.904, 209.211
177.284, 34.731
178.664, 124.403
180.044, 16.179
181.424, 108.944
182.803, 134.757
184.183, 13.386
185.562, 125.530
186.940, 28.515
188.319, 39.574
189.698, 102.285
191.076, 9.939
192.454, 51.251
193.831, 69.351
195.209, 55.137
196.586, 78.286
197.963, 46.382
199.340, 59.137
200.717, 25.983
202.093, 134.918
203.470, 86.059
204.846, 69.049
206.221, 76.758
207.597, 2.480
208.972, 97.877
210.347, 30.686
211.722, 5.169
213.097, 153.573
214.472, 28.100
215.846, 65.150
217.220, 17.678
218.594, 85.581
219.967, 35.573
221.341, 47.638
222.714, 14.166
224.087, 11.869
225.460, 1.479
226.832, 138.969
228.204, 241.504
229.577, 285.088
230.948, 616.729
232.320, 1072.441
233.692, 2011.205
235.063, 3843.050
236.434, 6147.020
237.805, 9671.069
239.175, 15280.187
240.545, 18348.393
241.916, 13575.657
243.286, 7908.986
244.655, 4512.376
246.025, 2436.830
247.394, 1726.347
248.763, 1185.926
250.132, 1081.566
251.501, 913.270
252.869, 935.031
254.237, 942.854
255.605, 937.739
256.973, 1039.682
258.340, 1229.690
259.708, 1865.790
261.075, 2890.988
262.442, 5700.229
263.808, 10384.234
265.175, 15936.749
266.541, 29819.854
267.907, 42159.117
269.273, 37211.637
270.639, 20768.398
272.004, 10457.366
273.369, 5895.553
274.734, 3834.902
276.099, 3453.402
277.463, 3692.058
278.828, 5244.848
280.192, 8423.757
281.556, 13796.774
282.919, 22172.895
284.283, 34417.113
285.646, 50046.438
287.009, 48852.840
288.372, 35653.312
289.734, 21821.875
291.097, 12503.502
292.459, 7591.199
293.821, 4694.971
295.183, 3403.803
296.544, 2658.699
297.905, 2053.658
299.266, 1950.675
300.627, 1372.750
301.988, 1387.883
303.348, 1222.071
304.709, 1065.314
306.069, 1038.604
307.428, 878.947
308.788, 1065.297
310.147, 891.667
311.507, 1088.059
312.865, 1107.502
314.224, 1047.996
315.583, 1225.509
316.941, 1246.041
318.299, 1560.614
319.657, 1387.174
321.015, 1577.762
322.372, 1794.400
323.729, 2192.086
325.086, 3498.811
326.443, 5119.582
327.800, 8841.396
329.156, 13743.259
330.512, 21975.166
331.868, 30295.111
333.224, 29143.104
334.579, 21832.133
335.935, 12934.209
337.290, 7885.320
338.645, 4885.471
339.999, 3136.490
341.354, 2255.719
342.708, 1548.983
344.062, 1360.284
345.416, 1099.824
346.769, 810.499
348.123, 878.578
349.476, 561.143
350.829, 594.692
352.182, 646.925
353.534, 492.480
354.887, 568.150
356.239, 487.232
357.591, 582.044
358.942, 439.819
360.294, 619.417
361.645, 324.258
362.996, 349.146
364.347, 279.070
365.698, 163.211
367.048, 272.783
368.398, 155.663
369.748, 206.390
371.098, 258.431
372.448, 182.192
373.797, 272.695
375.146, 70.000
376.495, 265.951
377.844, 237.275
379.192, 268.453
380.540, 399.839
381.889, 289.249
383.236, 321.710
384.584, 417.196
385.932, 335.446
387.279, 650.769
388.626, 676.302
389.973, 842.910
391.319, 909.538
392.666, 1526.206
394.012, 1858.894
395.358, 2651.602
396.704, 3985.334
398.049, 5729.088
399.394, 8826.914
400.740, 12355.760
402.084, 17084.625
403.429, 19205.512
404.774, 16802.430
406.118, 12676.390
407.462, 8069.383
408.806, 5072.395
410.150, 3405.448
411.493, 2102.528
412.836, 1576.634
414.179, 942.754
415.522, 836.556
416.865, 560.717
418.207, 314.022
419.549, 435.210
420.891, 197.412
422.233, 332.102
423.575, 118.382
424.916, 146.854
426.257, 183.182
427.598, 36.501
428.939, 150.065
430.279, 94.435
431.619, 20.457
432.959, 139.910
434.299, 23.727
435.639, 181.180
436.978, 126.667
438.318, 269.806
439.657, 348.361
440.996, 273.914
442.334, 579.482
443.673, 602.076
445.011, 920.682
446.349, 1078.043
447.687, 1889.678
449.024, 2767.749
450.361, 4277.406
451.699, 7318.754
453.036, 11499.432
454.372, 18502.188
455.709, 24992.887
457.045, 29262.600
458.381, 26776.736
459.717, 19771.463
461.053, 13850.195
462.388, 9259.936
463.724, 6189.683
465.059, 4237.438
466.394, 2908.198
467.728, 2480.967
469.063, 1875.739
470.397, 1504.517
471.731, 1357.300
473.065, 956.090
474.398, 1025.884
475.732, 719.683
477.065, 789.484
478.398, 635.292
479.731, 424.103
481.063, 599.917
482.396, 285.734
483.728, 361.557
485.060, 511.381
486.391, 271.207
487.723, 523.036
489.054, 551.867
490.385, 507.700
491.716, 512.533
493.047, 236.369
494.377, 361.205
495.708, 118.041
497.038, 360.878
498.368, 83.714
499.697, 7.450
501.027, 112.375
502.356, 91.200
503.685, 115.023
505.014, 33.954
506.342, 90.727
507.671, 95.023
508.999, 23.038
510.327, 51.783
511.655, 53.396
512.982, 78.307
514.310, 80.463
515.637, 28.529
516.964, 95.152
518.291, 46.154
519.617, 269.996
520.944, 224.679
522.270, 173.245
523.596, 266.567
524.921, 27.981
526.247, 194.741
527.572, 7.874
528.897, 27.113
530.222, 126.500
531.547, 71.547
532.871, 145.000
534.196, 45.581
535.520, 26.122
536.844, 120.576
538.167, 65.017
539.491, 210.421
540.814, 89.042
542.137, 147.340
543.460, 227.741
544.783, 270.223
546.105, 452.601
547.427, 445.966
548.749, 744.252
550.071, 598.593
551.393, 444.380
552.714, 528.693
554.035, 699.322
555.356, 877.947
556.677, 1066.970
557.998, 1526.314
559.318, 1905.554
560.638, 1722.160
561.958, 1833.960
563.278, 1257.150
564.597, 923.280
565.917, 846.881
567.236, 412.440
568.555, 540.287
569.874, 198.355
571.192, 161.854
572.511, 325.923
573.829, 75.697
575.147, 244.723
576.464, 9.729
577.782, 64.686
579.099, 145.615
580.416, 77.476
581.733, 64.341
583.050, 7.872
584.366, 65.856
585.683, 296.556
586.999, 56.965
588.315, 145.509
589.630, 49.085
590.946, 122.623
592.261, 56.859
593.576, 171.574
594.891, 260.693
596.206, 6.082
597.520, 41.416
598.834, 152.414
600.148, 283.686
601.462, 225.980
602.776, 152.211
604.089, 91.850
605.402, 216.027
606.715, 108.182
608.028, 323.307
609.341, 95.412
610.653, 273.490
611.965, 45.541
613.277, 202.553
614.589, 334.541
615.901, 109.508
617.212, 333.445
618.523, 382.361
619.834, 304.254
621.145, 572.123
622.456, 353.971
623.766, 624.793
625.076, 615.594
626.386, 463.369
627.696, 687.123
629.006, 425.854
630.315, 576.561
631.624, 608.244
632.933, 411.906
634.242, 664.543
635.551, 575.158
636.859, 912.750
638.167, 976.318
639.475, 1114.865
640.783, 1518.389
642.090, 1797.887
643.398, 2868.367
644.705, 2600.816
646.012, 1856.246
647.318, 1581.652
648.625, 1256.039
649.931, 869.398
651.237, 802.738
652.543, 568.053
653.849, 488.348
655.155, 302.617
656.460, 408.865
657.765, 277.262
659.070, 268.465
660.375, 164.645
661.679, 115.805
662.984, 22.736
664.288, 219.537
665.592, 156.395
666.895, 295.486
668.199, 24.395
669.502, 151.627
670.805, 38.475
672.108, 91.289
673.411, 178.701
674.713, 38.469
676.016, 97.205
677.318, 187.918
678.620, 15.389
679.921, 62.248
681.223, 62.141
682.524, 97.232
683.825, 68.744
685.126, 5.393
686.427, 168.074
687.727, 92.504
689.028, 154.246
690.328, 9.443
691.628, 33.350
692.927, 27.311
694.227, 2.494
695.526, 80.119
696.825, 58.248
698.124, 66.643
699.423, 235.396
700.721, 71.580
702.020, 152.373
703.318, 80.309
704.616, 13.229
705.913, 104.123
707.211, 33.998
708.508, 130.834
709.805, 33.650
711.102, 31.447
712.399, 11.223
713.695, 176.021
714.992, 130.615
716.288, 22.236
717.584, 9.160
718.879, 130.414
720.175, 131.027
721.470, 26.562
722.765, 11.869
724.060, 82.719
725.355, 21.369
726.649, 30.053
727.944, 41.227
729.238, 37.504
730.532, 41.072
731.825, 85.291
733.119, 77.369
734.412, 69.566
735.705, 67.752
736.998, 17.449
738.291, 69.561
739.584, 28.506
740.876, 86.613
742.168, 226.752
743.460, 60.346
744.752, 193.758
746.043, 55.223
747.334, 37.270
748.626, 114.969
749.916, 82.955
751.207, 132.082
752.498, 74.479
753.788, 87.531
755.078, 51.457
756.368, 61.559
757.658, 162.400
758.947, 25.641
760.237, 151.568
761.526, 301.512
762.815, 105.029
764.104, 208.969
765.392, 114.229
766.680, 102.164
767.969, 183.027
769.257, 67.959
770.544, 168.891
771.832, 6.400
773.119, 209.332
774.406, 178.262
775.693, 17.191
776.980, 144.123
778.267, 204.055
779.553, 34.986
780.839, 287.922
782.125, 194.859
783.411, 262.797
784.697, 302.734
785.982, 236.676
787.267, 447.623
788.552, 178.570
789.837, 253.523
791.122, 396.479
792.406, 128.436
793.690, 416.396
794.974, 244.365
796.258, 449.336
797.542, 474.312
798.825, 355.295
800.108, 462.287
801.391, 450.283
802.674, 687.328
803.957, 581.381
805.239, 374.443
806.522, 710.508
807.804, 484.582
809.085, 601.672
810.367, 630.771
811.649, 608.875
812.930, 785.996
814.211, 665.123
815.492, 825.281
816.772, 1033.248
818.053, 856.010
819.333, 865.230
820.613, 1004.197
821.893, 881.441
823.173, 1288.615
824.452, 1228.898
825.732, 1308.750
827.011, 1677.756
828.290, 1658.088
829.568, 2059.135
830.847, 2081.350
832.125, 2202.740
833.403, 2557.283
834.681, 2789.078
835.959, 3297.795
837.236, 3744.174
838.514, 4600.195
839.791, 5510.355
841.068, 6687.924
842.345, 8311.158
843.621, 9931.783
844.898, 12080.547
846.174, 14331.074
847.450, 16462.875
848.726, 18210.734
850.001, 19613.615
851.277, 21762.322
852.552, 22599.363
853.827, 24134.311
855.102, 24005.182
856.376, 23553.184
857.651, 21875.211
858.925, 19205.332
860.199, 16161.398
861.473, 13541.027
862.746, 11304.143
864.020, 9694.945
865.293, 8009.764
866.566, 6833.203
867.839, 6190.324
869.112, 5482.562
870.384, 4871.461
871.656, 4384.180
872.928, 4038.512
874.200, 3656.914
875.472, 3728.855
876.744, 3165.852
878.015, 2947.566
879.286, 2933.068
880.557, 2711.174
881.828, 2489.719
883.098, 2327.568
884.369, 2621.172
885.639, 2384.807
886.909, 2295.512
888.178, 2387.248
889.448, 2331.016
890.717, 2451.885
891.987, 2597.785
893.256, 2524.736
894.524, 2788.734
895.793, 3809.764
897.061, 3772.980
898.330, 3412.105
899.598, 3582.270
900.865, 3760.480
902.133, 4028.752
903.401, 4656.350
904.668, 4813.688
905.935, 5192.074
907.202, 5944.941
908.468, 6531.412
909.735, 7047.873
911.001, 7997.410
912.267, 8851.547
913.533, 10197.158
914.799, 11717.801
916.064, 13582.480
917.330, 15561.195
918.595, 18287.945
919.860, 20801.734
921.124, 23691.562
922.389, 26302.430
923.653, 28408.330
924.918, 29306.270
926.182, 29767.242
927.445, 27927.250
928.709, 26771.293
929.972, 24039.377
931.236, 21523.490
932.499, 19472.641
933.761, 17483.830
935.024, 15777.047
936.286, 13942.305
937.549, 11847.602
938.811, 10476.932
940.073, 8880.295
941.334, 7696.695
942.596, 6202.129
943.857, 5764.598
945.118, 4854.104
946.379, 4745.648
947.640, 3941.225
948.900, 3676.840
950.161, 3424.830
951.421, 2905.516
952.681, 2673.236
953.940, 2594.537
955.200, 2264.330
956.459, 2262.156
957.719, 1718.021
958.978, 1693.922
960.236, 1847.367
961.495, 1595.336
962.753, 1498.340
964.012, 1405.500
965.270, 1010.574
966.527, 1358.852
967.785, 1206.994
969.043, 989.174
970.300, 1379.400
971.557, 859.660
972.814, 1073.014
974.071, 1003.398
975.327, 848.832
976.583, 1073.295
977.840, 847.803
979.095, 699.346
980.351, 761.416
981.607, 692.033
982.862, 544.689
984.117, 813.717
985.372, 465.461
986.627, 707.283
987.882, 323.127
989.136, 547.004
990.390, 502.629
991.644, 270.588
992.898, 586.580
994.152, 314.643
995.405, 418.750
996.659, 589.352
997.912, 403.555
999.165, 770.799
1000.417, 839.363
1001.670, 842.684
1002.922, 1175.035
1004.174, 993.445
1005.426, 1305.891
1006.678, 1342.428
1007.930, 1222.965
1009.181, 1537.537
1010.432, 1159.146
1011.683, 1267.787
1012.934, 1167.479
1014.185, 881.201
1015.435, 1146.959
1016.685, 729.965
1017.935, 730.791
1019.185, 728.707
1020.435, 281.352
1021.684, 726.338
1022.934, 622.373
1024.183, 399.428
1025.432, 692.555
1026.680, 324.732
1027.929, 439.945
1029.177, 417.221
1030.425, 138.492
1031.673, 453.859
1032.921, 253.260
1034.169, 316.711
1035.416, 412.195
1036.663, 96.777
1037.911, 406.332
1039.157, 363.920
1040.404, 260.697
1041.650, 606.354
1042.897, 235.051
1044.143, 343.107
1045.389, 420.867
1046.634, 87.943
1047.880, 442.785
1049.125, 265.660
1050.371, 153.186
1051.615, 458.129
1052.860, 18.104
1054.105, 365.131
1055.349, 341.189
1056.593, 10.234
1057.837, 316.908
1059.081, 218.084
1060.325, 219.359
1061.568, 458.615
1062.812, 237.902
1064.055, 311.158
1065.298, 335.447
1066.540, 100.771
1067.783, 494.113
1069.025, 142.488
1070.267, 267.861
1071.509, 410.266
1072.751, 140.703
1073.993, 480.174
1075.234, 344.672
1076.475, 125.207
1077.716, 354.740
1078.957, 157.260
1080.198, 405.801
1081.438, 461.375
1082.679, 117.951
1083.919, 420.557
1085.159, 451.098
1086.398, 108.668
1087.638, 371.148
1088.877, 204.656
1090.116, 289.160
1091.355, 367.691
1092.594, 167.248
1093.833, 368.832
1095.071, 28.432
1096.309, 231.055
1097.547, 513.662
1098.785, 13.705
1100.023, 440.951
1101.260, 249.629
1102.498, 228.715
1103.735, 374.922
1104.972, 163.518
1106.208, 57.137
1107.445, 190.707
1108.681, 44.734
1109.918, 163.832
1111.154, 157.416
1112.389, 2.016
1113.625, 400.570
1114.860, 121.852
1116.096, 87.719
1117.331, 151.301
1118.566, 23.893
1119.800, 209.500
1121.035, 207.115
1122.269, 135.744
1123.503, 478.381
1124.737, 16.031
1125.971, 119.688
1127.205, 285.352
1128.438, 101.971
1129.671, 338.695
1130.904, 6.371
1132.137, 135.939
1133.370, 368.984
1134.602, 24.332
1135.834, 75.361
1137.066, 266.064
1138.298, 82.219
1139.530, 361.490
1140.762, 30.219
1141.993, 32.965
1143.224, 455.756
1144.455, 243.461
1145.686, 240.285
1146.917, 228.053
1148.147, 270.158
1149.377, 384.799
1150.607, 120.574
1151.837, 63.375
1153.067, 393.320
1154.296, 81.826
1155.526, 163.043
1156.755, 36.590
1157.984, 73.439
1159.213, 233.338
1160.441, 252.391
1161.670, 187.332
1162.898, 503.309
1164.126, 19.678
1165.354, 311.316
1166.581, 294.506
1167.809, 87.418
1169.036, 453.693
1170.263, 60.486
1171.490, 44.078
1172.717, 379.004
1173.943, 43.969
1175.170, 184.951
1176.396, 224.951
1177.622, 81.008
1178.848, 517.012
1180.073, 133.037
1181.299, 42.064
1182.524, 447.104
1183.749, 90.832
1184.974, 365.258
1186.199, 153.363
1187.423, 103.500
1188.648, 483.506
1189.872, 34.684
1191.096, 21.107
1192.320, 368.129
1193.543, 24.396
1194.767, 228.693
1195.990, 138.020
1197.213, 18.629
1198.436, 274.754
1199.659, 72.164
1200.881, 97.602
1202.104, 522.066
1203.326, 8.568
1204.548, 356.098
1205.770, 447.664
1206.991, 61.260
1208.213, 441.891
1209.434, 139.094
1210.655, 198.385
1211.876, 522.949
1213.096, 266.545
1214.317, 400.041
1215.537, 529.508
1216.757, 196.705
1217.977, 436.332
1219.197, 420.994
1220.417, 184.697
1221.636, 696.438
1222.855, 372.217
1224.074, 407.023
1225.293, 389.754
1226.512, 201.750
1227.731, 634.443
1228.949, 270.059
1230.167, 237.744
1231.385, 587.645
1232.603, 348.051
1233.820, 379.832
1235.038, 663.900
1236.255, 96.744
1237.472, 676.738
1238.689, 321.744
1239.906, 282.764
1241.122, 828.471
1242.338, 204.469
1243.555, 214.195
1244.771, 540.029
1245.986, 241.873
1247.202, 529.689
1248.417, 476.008
1249.633, 200.572
1250.848, 739.809
1252.063, 313.035
1253.277, 504.926
1254.492, 684.299
1255.706, 134.225
1256.920, 671.715
1258.134, 237.645
1259.348, 125.775
1260.562, 863.971
1261.775, 325.746
1262.988, 233.211
1264.201, 724.834
1265.414, 400.459
1266.627, 608.977
1267.839, 548.506
1269.052, 124.832
1270.264, 910.941
1271.476, 328.164
1272.688, 293.361
1273.899, 771.506
1275.111, 208.092
1276.322, 538.285
1277.533, 391.559
1278.744, 61.678
1279.955, 656.715
1281.165, 501.910
1282.376, 260.941
1283.586, 528.205
1284.796, 155.859
1286.006, 388.219
1287.215, 653.758
1288.425, 46.342
1289.634, 547.875
1290.843, 488.289
1292.052, 314.922
1293.261, 545.824
1294.469, 119.064
1295.678, 400.701
1296.886, 806.756
1298.094, 157.309
1299.302, 503.172
1300.509, 423.645
1301.717, 55.775
1302.924, 860.504
1304.131, 211.018
1305.338, 191.947
1306.545, 601.383
1307.752, 284.842
1308.958, 373.223
1310.164, 670.270
1311.370, 52.135
1312.576, 671.805
1313.782, 507.879
1314.987, 2.016
1316.193, 0.000
##END=



