##NAMES=Topaz
##RRUFFID=R050200
##IDEAL CHEMISTRY=Al_2_SiO_4_F_2_
##LOCALITY=Jos Plateau, Nigeria
##OWNER=RRUFF
##SOURCE=Marcus Origlieri
##DESCRIPTION=Colorless water-worn single crystal
##STATUS=The identification of this mineral has been confirmed by X-ray diffraction and chemical analysis
##URL=rruff.info/R050200
##MEASURED CHEMISTRY=Al_2.000_Si_1.000_O_4.000_F_1.488_(OH)_0.512_
##PIN_ID=L00096
##ORIENTATION=Laser parallel to a* (1 0 0). Fiducial mark perpendicular to laser is parallel to b [0 1 0]
95.465, 0.000
96.858, 37.606
98.251, 1.896
99.644, 98.403
101.036, 96.296
102.428, 44.007
103.820, 106.663
105.212, 191.429
106.604, 334.733
107.995, 320.320
109.387, 320.400
110.777, 149.863
112.168, 278.646
113.559, 359.293
114.949, 393.760
116.339, 517.515
117.729, 536.195
119.119, 386.548
120.508, 182.773
121.897, 107.743
123.286, 200.423
124.675, 103.866
126.063, 98.681
127.452, 151.371
128.840, 130.054
130.228, 83.670
131.615, 103.456
133.003, 128.616
134.390, 34.324
135.777, 42.891
137.164, 0.952
138.550, 151.649
139.937, 167.880
141.323, 163.698
142.709, 155.303
144.094, 213.607
145.480, 182.136
146.865, 405.387
148.250, 733.066
149.635, 1196.815
151.019, 1617.757
152.403, 2186.918
153.788, 2733.972
155.171, 2957.120
156.555, 3090.755
157.939, 2748.347
159.322, 2513.706
160.705, 2643.827
162.088, 3011.811
163.470, 3716.744
164.853, 4165.699
166.235, 4263.676
167.617, 3876.668
168.998, 2930.724
170.380, 1919.767
171.761, 1173.798
173.142, 731.820
174.523, 450.836
175.904, 331.849
177.284, 157.858
178.664, 114.915
180.044, 126.150
181.424, 54.552
182.803, 96.106
184.183, 72.806
185.562, 50.649
186.940, 96.621
188.319, 100.699
189.698, 59.860
191.076, 56.093
192.454, 157.388
193.831, 144.735
195.209, 121.127
196.586, 184.551
197.963, 183.997
199.340, 206.436
200.717, 239.876
202.093, 206.324
203.470, 256.771
204.846, 261.226
206.221, 384.689
207.597, 389.160
208.972, 453.629
210.347, 286.084
211.722, 31.523
213.097, 55.056
214.472, 174.648
215.846, 140.255
217.220, 168.875
218.594, 92.509
219.967, 78.188
221.341, 117.933
222.714, 38.748
224.087, 64.364
225.460, 153.422
226.832, 325.806
228.204, 658.450
229.577, 1109.508
230.948, 1994.436
232.320, 3981.354
233.692, 7390.271
235.063, 11676.196
236.434, 16366.110
237.805, 21420.865
239.175, 25874.637
240.545, 26953.984
241.916, 24396.129
243.286, 17320.207
244.655, 10993.311
246.025, 6811.437
247.394, 4387.588
248.763, 2971.766
250.132, 2006.967
251.501, 1535.193
252.869, 1247.444
254.237, 1130.720
255.605, 1284.021
256.973, 1520.346
258.340, 2022.698
259.708, 3404.076
261.075, 6824.156
262.442, 12015.145
263.808, 18245.018
265.175, 24771.848
266.541, 32288.574
267.907, 36726.191
269.273, 35469.699
270.639, 27358.080
272.004, 17137.143
273.369, 11023.804
274.734, 7627.023
276.099, 6276.751
277.463, 6450.494
278.828, 9006.594
280.192, 13990.050
281.556, 20073.295
282.919, 27757.434
284.283, 35134.438
285.646, 41470.352
287.009, 41604.043
288.372, 35327.770
289.734, 26385.242
291.097, 17597.559
292.459, 11675.940
293.821, 7716.086
295.183, 5279.906
296.544, 3643.686
297.905, 2636.464
299.266, 2132.388
300.627, 1798.287
301.988, 1585.894
303.348, 1431.188
304.709, 1179.364
306.069, 1238.336
307.428, 1368.118
308.788, 1480.018
310.147, 1803.703
311.507, 2470.874
312.865, 3250.010
314.224, 3999.112
315.583, 4760.196
316.941, 5376.267
318.299, 5180.286
319.657, 4113.025
321.015, 3004.442
322.372, 2286.654
323.729, 2193.681
325.086, 2692.694
326.443, 4001.722
327.800, 5712.764
329.156, 8082.820
330.512, 10333.893
331.868, 12275.976
333.224, 12650.072
334.579, 10820.183
335.935, 7551.308
337.290, 5055.449
338.645, 3242.574
339.999, 2198.234
341.354, 1509.677
342.708, 1034.550
344.062, 700.683
345.416, 512.155
346.769, 424.886
348.123, 356.140
349.476, 217.773
350.829, 303.737
352.182, 152.835
353.534, 157.054
354.887, 79.245
356.239, 99.236
357.591, 73.157
358.942, 37.833
360.294, 108.161
361.645, 100.524
362.996, 114.122
364.347, 190.893
365.698, 223.545
367.048, 451.436
368.398, 567.377
369.748, 735.835
371.098, 681.303
372.448, 662.782
373.797, 478.923
375.146, 182.522
376.495, 257.158
377.844, 109.378
379.192, 13.846
380.540, 25.613
381.889, 18.739
383.236, 82.108
384.584, 4.105
385.932, 40.377
387.279, 43.313
388.626, 95.141
389.973, 327.724
391.319, 311.352
392.666, 663.992
394.012, 1007.644
395.358, 1757.310
396.704, 2753.988
398.049, 4052.680
399.394, 5915.384
400.740, 7799.101
402.084, 9471.832
403.429, 10521.563
404.774, 10037.312
406.118, 8353.078
407.462, 6000.862
408.806, 4085.665
410.150, 2718.500
411.493, 1916.351
412.836, 1309.230
414.179, 937.167
415.522, 566.120
416.865, 540.113
418.207, 425.126
419.549, 444.173
420.891, 476.245
422.233, 550.364
423.575, 594.501
424.916, 456.658
426.257, 428.539
427.598, 309.003
428.939, 184.187
430.279, 90.379
431.619, 34.426
432.959, 53.220
434.299, 41.026
435.639, 21.805
436.978, 55.557
438.318, 88.700
439.657, 39.000
440.996, 55.295
442.334, 160.614
443.673, 185.952
445.011, 319.304
446.349, 613.663
447.687, 975.022
449.024, 1667.392
450.361, 2862.766
451.699, 4572.171
453.036, 6710.580
454.372, 9368.005
455.709, 11845.444
457.045, 13095.891
458.381, 12928.362
459.717, 10477.840
461.053, 7837.324
462.388, 5587.830
463.724, 3805.350
465.059, 2773.875
466.394, 1884.407
467.728, 1314.946
469.063, 979.492
470.397, 760.046
471.731, 577.607
473.065, 507.179
474.398, 401.755
475.732, 336.337
477.065, 210.924
478.398, 203.518
479.731, 242.117
481.063, 275.722
482.396, 206.336
483.728, 329.958
485.060, 495.589
486.391, 533.230
487.723, 739.880
489.054, 1079.539
490.385, 1326.207
491.716, 1281.884
493.047, 1075.568
494.377, 872.262
495.708, 644.964
497.038, 568.675
498.368, 454.393
499.697, 265.119
501.027, 283.855
502.356, 288.606
503.685, 357.374
505.014, 473.973
506.342, 552.204
507.671, 765.321
508.999, 953.323
510.327, 1083.358
511.655, 1101.581
512.982, 1066.655
514.310, 949.928
515.637, 707.027
516.964, 756.224
518.291, 663.057
519.617, 795.794
520.944, 751.055
522.270, 696.056
523.596, 652.548
524.921, 459.905
526.247, 306.778
527.572, 297.239
528.897, 251.384
530.222, 297.597
531.547, 231.003
532.871, 226.302
534.196, 120.634
535.520, 145.945
536.844, 174.704
538.167, 191.093
539.491, 247.145
540.814, 211.361
542.137, 212.255
543.460, 306.368
544.783, 351.753
546.105, 344.202
547.427, 455.660
548.749, 527.122
550.071, 613.585
551.393, 965.050
552.714, 1183.515
554.035, 1632.982
555.356, 2263.450
556.677, 2923.917
557.998, 3717.384
559.318, 4465.854
560.638, 4855.320
561.958, 4677.787
563.278, 4117.438
564.597, 3287.103
565.917, 2497.675
567.236, 1877.902
568.555, 1400.667
569.874, 1001.440
571.192, 800.274
572.511, 580.617
573.829, 444.231
575.147, 330.328
576.464, 275.784
577.782, 280.278
579.099, 221.750
580.416, 195.626
581.733, 187.673
583.050, 141.907
584.366, 150.544
585.683, 161.297
586.999, 118.438
588.315, 83.570
589.630, 161.092
590.946, 133.386
592.261, 134.114
593.576, 106.435
594.891, 108.768
596.206, 166.833
597.520, 248.115
598.834, 403.768
600.148, 381.881
601.462, 443.201
602.776, 375.914
604.089, 385.583
605.402, 342.156
606.715, 330.572
608.028, 305.337
609.341, 300.837
610.653, 247.619
611.965, 260.300
613.277, 304.134
614.589, 260.332
615.901, 248.008
617.212, 228.357
618.523, 197.601
619.834, 201.893
621.145, 196.212
622.456, 189.481
623.766, 197.583
625.076, 192.286
626.386, 170.011
627.696, 185.210
629.006, 205.253
630.315, 241.016
631.624, 290.877
632.933, 250.157
634.242, 399.164
635.551, 447.227
636.859, 472.177
638.167, 717.112
639.475, 895.032
640.783, 1210.936
642.090, 1382.824
643.398, 1750.695
644.705, 1795.550
646.012, 1637.389
647.318, 1414.212
648.625, 1243.018
649.931, 900.807
651.237, 733.580
652.543, 481.334
653.849, 364.074
655.155, 364.795
656.460, 262.500
657.765, 247.186
659.070, 113.855
660.375, 145.507
661.679, 136.142
662.984, 51.759
664.288, 39.355
665.592, 71.932
666.895, 69.488
668.199, 29.025
669.502, 68.541
670.805, 0.964
672.108, 24.498
673.411, 26.939
674.713, 4.359
676.016, 86.750
677.318, 1.122
678.620, 26.540
679.921, 18.752
681.223, 29.020
682.524, 10.264
683.825, 15.521
685.126, 5.872
686.427, 69.794
687.727, 25.915
689.028, 51.011
690.328, 44.086
691.628, 53.138
692.927, 17.168
694.227, 59.172
695.526, 6.849
696.825, 164.093
698.124, 114.014
699.423, 258.915
700.721, 258.806
702.020, 327.674
703.318, 417.521
704.616, 512.347
705.913, 487.151
707.211, 582.933
708.508, 657.693
709.805, 657.431
711.102, 482.147
712.399, 490.841
713.695, 349.514
714.992, 329.164
716.288, 199.792
717.584, 138.398
718.879, 67.982
720.175, 64.543
721.470, 86.081
722.765, 18.594
724.060, 24.922
725.355, 36.509
726.649, 10.084
727.944, 129.722
729.238, 71.533
730.532, 62.235
731.825, 12.924
733.119, 36.948
734.412, 4.879
735.705, 89.852
736.998, 75.910
738.291, 69.046
739.584, 56.257
740.876, 26.537
742.168, 1.199
743.460, 49.237
744.752, 8.330
746.043, 52.570
747.334, 59.333
748.626, 110.215
749.916, 105.856
751.207, 48.589
752.498, 150.378
753.788, 11.718
755.078, 69.214
756.368, 57.217
757.658, 32.285
758.947, 0.403
760.237, 23.443
761.526, 13.733
762.815, 14.049
764.104, 96.194
765.392, 11.480
766.680, 21.871
767.969, 39.267
769.257, 114.287
770.544, 71.178
771.832, 28.290
773.119, 48.736
774.406, 35.835
775.693, 63.544
776.980, 9.907
778.267, 119.247
779.553, 32.568
780.839, 20.871
782.125, 22.155
783.411, 86.421
784.697, 2.330
785.982, 18.893
787.267, 80.098
788.552, 40.286
789.837, 21.459
791.122, 131.613
792.406, 118.752
793.690, 52.875
794.974, 44.982
796.258, 75.074
797.542, 130.151
798.825, 166.212
800.108, 219.259
801.391, 74.292
802.674, 208.309
803.957, 166.312
805.239, 156.301
806.522, 233.275
807.804, 210.236
809.085, 330.184
810.367, 288.117
811.649, 295.038
812.930, 292.945
814.211, 294.840
815.492, 262.729
816.772, 293.177
818.053, 390.229
819.333, 354.789
820.613, 464.473
821.893, 538.133
823.173, 494.611
824.452, 611.241
825.732, 679.683
827.011, 701.106
828.290, 834.527
829.568, 860.214
830.847, 1006.864
832.125, 1119.294
833.403, 1268.962
834.681, 1344.197
835.959, 1623.565
837.236, 1861.417
838.514, 2152.681
839.791, 2746.257
841.068, 3185.761
842.345, 3727.069
843.621, 4807.479
844.898, 5577.856
846.174, 6917.263
847.450, 8257.255
848.726, 9078.678
850.001, 10311.310
851.277, 11319.951
852.552, 12330.584
853.827, 13333.212
855.102, 13479.836
856.376, 13520.455
857.651, 13097.067
858.925, 12101.678
860.199, 10445.281
861.473, 8825.883
862.746, 7613.481
864.020, 6302.075
865.293, 5269.667
866.566, 4650.255
867.839, 3985.839
869.112, 3396.421
870.384, 3112.001
871.656, 2833.579
872.928, 2568.971
874.200, 2409.347
875.472, 2278.812
876.744, 2124.622
878.015, 1980.890
879.286, 1845.149
880.557, 1745.344
881.828, 1665.125
883.098, 1709.439
884.369, 1567.367
885.639, 1636.933
886.909, 1598.459
888.178, 1544.006
889.448, 1640.242
890.717, 1626.371
891.987, 1652.966
893.256, 1689.381
894.524, 1768.679
895.793, 1822.388
897.061, 1933.509
898.330, 1991.040
899.598, 2107.798
900.865, 2249.716
902.133, 2442.498
903.401, 2639.995
904.668, 2876.129
905.935, 3178.908
907.202, 3332.835
908.468, 3867.793
909.735, 4299.562
911.001, 4778.938
912.267, 5537.364
913.533, 6272.891
914.799, 7251.575
916.064, 8328.939
917.330, 9871.571
918.595, 11254.922
919.860, 12764.327
921.124, 14949.703
922.389, 16665.656
923.653, 18550.145
924.918, 19817.959
926.182, 20909.889
927.445, 21394.779
928.709, 21548.832
929.972, 21540.566
931.236, 21749.660
932.499, 22582.654
933.761, 24441.629
935.024, 26020.650
936.286, 27568.838
937.549, 27780.297
938.811, 24847.402
940.073, 21887.672
941.334, 17808.926
942.596, 14355.139
943.857, 11752.465
945.118, 9517.807
946.379, 7668.167
947.640, 6506.552
948.900, 5684.955
950.161, 4769.379
951.421, 4159.819
952.681, 3648.282
953.940, 3302.766
955.200, 2921.268
956.459, 2563.790
957.719, 2379.351
958.978, 2299.915
960.236, 2092.506
961.495, 1907.120
962.753, 1742.765
964.012, 1589.432
965.270, 1552.134
966.527, 1462.086
967.785, 1435.830
969.043, 1295.736
970.300, 1214.563
971.557, 1101.421
972.814, 1084.301
974.071, 1030.210
975.327, 1029.140
976.583, 998.092
977.840, 971.072
979.095, 1006.075
980.351, 966.101
981.607, 970.158
982.862, 944.236
984.117, 872.349
985.372, 908.719
986.627, 845.672
987.882, 896.974
989.136, 824.198
990.390, 828.838
991.644, 878.760
992.898, 829.077
994.152, 855.411
995.405, 897.784
996.659, 923.262
997.912, 1072.205
999.165, 1169.650
1000.417, 1330.128
1001.670, 1441.632
1002.922, 1873.157
1004.174, 2222.704
1005.426, 3792.273
1006.678, 5042.865
1007.930, 4514.479
1009.181, 4188.120
1010.432, 3890.784
1011.683, 3443.471
1012.934, 2759.180
1014.185, 2201.913
1015.435, 1793.667
1016.685, 1393.446
1017.935, 1110.247
1019.185, 871.179
1020.435, 870.941
1021.684, 611.825
1022.934, 668.731
1024.183, 742.665
1025.432, 508.622
1026.680, 615.604
1027.929, 437.614
1029.177, 499.662
1030.425, 395.733
1031.673, 485.841
1032.921, 384.040
1034.169, 433.264
1035.416, 345.536
1036.663, 368.834
1037.911, 267.180
1039.157, 346.383
1040.404, 401.068
1041.650, 308.280
1042.897, 268.858
1044.143, 289.486
1045.389, 299.158
1046.634, 347.588
1047.880, 237.335
1049.125, 219.114
1050.371, 276.938
1051.615, 255.783
1052.860, 280.471
1054.105, 264.787
1055.349, 302.793
1056.593, 238.830
1057.837, 213.930
1059.081, 304.665
1060.325, 213.853
1061.568, 250.496
1062.812, 217.861
1064.055, 285.131
1065.298, 267.200
1066.540, 208.556
1067.783, 176.999
1069.025, 150.452
1070.267, 133.732
1071.509, 127.199
1072.751, 129.883
1073.993, 170.319
1075.234, 191.846
1076.475, 187.808
1077.716, 154.945
1078.957, 169.690
1080.198, 178.465
1081.438, 157.564
1082.679, 193.202
1083.919, 193.954
1085.159, 133.811
1086.398, 233.531
1087.638, 122.071
1088.877, 142.671
1090.116, 97.513
1091.355, 142.257
1092.594, 65.687
1093.833, 91.457
1095.071, 83.360
1096.309, 40.450
1097.547, 70.257
1098.785, 17.169
1100.023, 39.000
1101.260, 96.776
1102.498, 139.682
1103.735, 32.697
1104.972, 91.743
1106.208, 0.107
1107.445, 64.402
1108.681, 97.657
1109.918, 122.718
1111.154, 38.993
1112.389, 71.368
1113.625, 77.998
1114.860, 64.883
1116.096, 96.281
1117.331, 12.453
1118.566, 3.519
1119.800, 100.072
1121.035, 131.347
1122.269, 215.970
1123.503, 340.964
1124.737, 323.087
1125.971, 226.209
1127.205, 225.494
1128.438, 58.514
1129.671, 114.661
1130.904, 8.768
1132.137, 126.249
1133.370, 75.403
1134.602, 21.941
1135.834, 9.754
1137.066, 66.669
1138.298, 157.708
1139.530, 53.873
1140.762, 109.993
1141.993, 24.484
1143.224, 61.785
1144.455, 8.048
1145.686, 30.982
1146.917, 81.976
1148.147, 1.073
1149.377, 63.459
1150.607, 182.521
1151.837, 46.665
1153.067, 85.765
1154.296, 97.126
1155.526, 211.416
1156.755, 243.541
1157.984, 223.109
1159.213, 314.401
1160.441, 443.594
1161.670, 540.082
1162.898, 700.374
1164.126, 759.773
1165.354, 801.109
1166.581, 929.936
1167.809, 909.458
1169.036, 639.320
1170.263, 724.646
1171.490, 505.804
1172.717, 370.832
1173.943, 409.674
1175.170, 278.298
1176.396, 165.570
1177.622, 234.575
1178.848, 182.359
1180.073, 89.914
1181.299, 145.549
1182.524, 110.818
1183.749, 57.966
1184.974, 78.458
1186.199, 66.069
1187.423, 34.948
1188.648, 92.420
1189.872, 8.224
1191.096, 6.565
1192.320, 35.544
1193.543, 19.348
1194.767, 9.214
1195.990, 52.437
1197.213, 38.762
1198.436, 33.470
1199.659, 90.973
1200.881, 41.258
1202.104, 37.066
1203.326, 36.517
1204.548, 70.434
1205.770, 60.783
1206.991, 63.960
1208.213, 23.971
1209.434, 3.706
1210.655, 40.325
1211.876, 106.998
1213.096, 23.458
1214.317, 16.935
1215.537, 29.448
1216.757, 24.013
1217.977, 17.391
1219.197, 5.730
1220.417, 23.950
1221.636, 73.336
1222.855, 29.396
1224.074, 0.166
1225.293, 17.040
1226.512, 16.227
1227.731, 4.438
1228.949, 72.662
1230.167, 68.180
1231.385, 20.059
1232.603, 58.132
1233.820, 45.842
1235.038, 45.865
1236.255, 46.055
1237.472, 75.125
1238.689, 8.018
1239.906, 84.887
1241.122, 51.743
1242.338, 0.420
1243.555, 109.397
1244.771, 64.199
1245.986, 118.977
1247.202, 8.724
1248.417, 79.431
1249.633, 58.122
1250.848, 54.752
1252.063, 34.352
1253.277, 20.320
1254.492, 5.460
1255.706, 9.989
1256.920, 9.489
1258.134, 29.975
1259.348, 29.584
1260.562, 69.809
1261.775, 58.954
1262.988, 54.695
1264.201, 33.505
1265.414, 10.245
1266.627, 47.979
1267.839, 6.182
1269.052, 133.355
1270.264, 91.508
1271.476, 94.628
1272.688, 58.725
1273.899, 140.796
1275.111, 20.826
1276.322, 109.823
1277.533, 14.791
1278.744, 103.721
1279.955, 45.627
1281.165, 72.462
1282.376, 56.165
1283.586, 6.933
1284.796, 111.626
1286.006, 124.258
1287.215, 55.841
1288.425, 84.389
1289.634, 117.896
1290.843, 170.283
1292.052, 11.189
1293.261, 136.585
1294.469, 24.941
1295.678, 160.271
1296.886, 128.572
1298.094, 139.845
1299.302, 79.089
1300.509, 96.304
1301.717, 35.490
1302.924, 60.644
1304.131, 97.767
1305.338, 121.862
1306.545, 68.924
1307.752, 98.957
1308.958, 79.961
1310.164, 88.934
1311.370, 0.878
1312.576, 68.779
1313.782, 49.650
1314.987, 91.487
1316.193, 39.294
1317.398, 162.066
1318.603, 51.811
1319.807, 63.521
1321.012, 102.199
1322.216, 189.846
1323.421, 55.463
1324.625, 56.954
1325.829, 63.570
1327.032, 99.061
1328.236, 126.520
1329.439, 30.946
1330.642, 7.665
1331.845, 4.134
1333.048, 27.553
1334.251, 50.506
1335.453, 25.728
1336.656, 10.916
1337.858, 95.069
1339.060, 52.469
1340.261, 27.564
1341.463, 66.629
1342.664, 108.664
1343.866, 74.673
1345.067, 41.653
1346.267, 60.469
1347.468, 54.393
1348.669, 94.328
1349.869, 131.198
1351.069, 126.838
1352.269, 67.304
1353.469, 131.679
1354.668, 141.336
1355.868, 124.087
1357.067, 167.045
1358.266, 144.747
1359.465, 107.331
1360.664, 140.936
1361.862, 138.811
1363.061, 165.635
1364.259, 180.376
1365.457, 163.936
1366.655, 212.520
1367.852, 179.721
1369.050, 201.664
1370.247, 231.151
1371.444, 137.523
1372.641, 128.627
1373.838, 140.107
1375.035, 101.479
1376.231, 136.936
1377.427, 185.316
1378.623, 189.402
1379.819, 192.186
1381.015, 99.083
1382.211, 209.369
1383.406, 166.843
1384.601, 191.620
1385.796, 241.478
1386.991, 165.049
1388.185, 241.331
1389.380, 169.929
1390.574, 202.793
1391.768, 163.858
1392.962, 168.933
1394.156, 142.032
1395.350, 249.123
1396.543, 239.514
1397.736, 152.425
1398.929, 195.249
1400.122, 119.942
1401.315, 199.139
1402.507, 192.218
1403.700, 202.310
1404.892, 298.956
1406.084, 208.944
1407.276, 222.577
1408.467, 279.883
1409.659, 152.864
1410.850, 213.309
1412.041, 256.180
1413.232, 117.628
1414.423, 253.576
1415.614, 277.067
1416.804, 301.541
1417.994, 243.368
1419.184, 338.015
1420.374, 270.562
1421.564, 277.604
1422.753, 240.227
1423.943, 203.532
1425.132, 147.930
1426.321, 293.107
1427.510, 295.658
1428.698, 170.948
1429.887, 104.737
1431.075, 231.397
1432.263, 229.495
1433.451, 537.522
1434.639, 619.933
1435.827, 200.293
1437.014, 74.821
1438.201, 307.769
1439.388, 256.284
1440.575, 277.154
1441.762, 336.623
1442.949, 222.410
1444.135, 280.243
1445.321, 367.049
1446.507, 358.830
1447.693, 397.150
1448.879, 275.630
1450.064, 377.258
1451.250, 297.972
1452.435, 209.297
1453.620, 412.864
1454.805, 253.331
1455.989, 369.704
1457.174, 444.092
1458.358, 287.508
1459.542, 326.991
1460.726, 411.391
1461.910, 269.677
1463.093, 382.972
1464.277, 209.195
1465.460, 138.348
1466.643, 251.449
1467.826, 232.456
1469.009, 250.418
1470.191, 236.347
1471.373, 226.275
1472.556, 226.975
1473.738, 272.252
1474.919, 210.461
1476.101, 234.025
1477.283, 220.711
1478.464, 145.480
1479.645, 142.324
1480.826, 119.197
1482.007, 83.080
1483.187, 253.967
1484.368, 222.854
1485.548, 220.759
1486.728, 163.683
1487.908, 197.605
1489.088, 133.609
1490.268, 227.627
1491.447, 76.682
1492.626, 21.790
1493.805, 136.966
1494.984, 176.231
1496.163, 181.610
1497.341, 255.124
1498.520, 112.776
1499.698, 39.539
1500.876, 195.403
1502.054, 40.372
1503.232, 86.462
1504.409, 8.306
1505.586, 11.094
1506.763, 0.686
1507.940, 94.207
1509.117, 188.252
1510.294, 80.569
1511.470, 18.191
1512.647, 160.178
1513.823, 25.575
1514.999, 94.282
1516.174, 107.436
1517.350, 12.786
1518.526, 72.143
1519.701, 0.376
1520.876, 0.000
##END=



