##NAMES=Topaz
##RRUFFID=R040121
##IDEAL CHEMISTRY=Al_2_SiO_4_F_2_
##LOCALITY=Tepetate, San Luis Potosi, Mexico
##OWNER=RRUFF
##SOURCE=University of Arizona Mineral Museum
##DESCRIPTION=Fragments of a prismatic single crystal
##STATUS=The identification of this mineral has been confirmed by X-ray diffraction and chemical analysis
##URL=rruff.info/R040121
##MEASURED CHEMISTRY=Al_2.00_(Si_0.99_Al_0.02_)(F_0.82_(OH)_0.18_)_2_
##PIN_ID=L00170
##ORIENTATION=Laser parallel to -c* (0 0 -1). Fiducial mark perpendicular to laser is parallel to a [1 0 0]
93.375, 0.000
94.768, 46.607
96.161, 94.361
97.554, 41.550
98.947, 91.558
100.340, 48.915
101.732, 95.174
103.124, 59.031
104.516, 91.476
105.908, 137.979
107.300, 196.646
108.691, 125.736
110.082, 184.113
111.473, 163.049
112.864, 195.693
114.254, 349.105
115.644, 510.637
117.034, 759.951
118.424, 707.866
119.813, 620.938
121.203, 509.426
122.592, 273.915
123.981, 126.538
125.369, 12.252
126.758, 28.129
128.146, 47.836
129.534, 76.335
130.922, 20.835
132.309, 32.583
133.696, 72.159
135.083, 53.506
136.470, 82.855
137.857, 124.142
139.243, 139.495
140.630, 116.421
142.016, 129.060
143.401, 211.692
144.787, 252.371
146.172, 382.032
147.557, 600.237
148.942, 927.192
150.327, 1184.510
151.711, 1740.939
153.096, 2414.365
154.480, 2495.983
155.863, 1653.200
157.247, 987.911
158.630, 600.295
160.013, 341.105
161.396, 211.886
162.779, 153.661
164.161, 120.450
165.544, 72.243
166.926, 51.605
168.308, 3.794
169.689, 24.512
171.070, 37.184
172.452, 37.811
173.833, 8.394
175.213, 42.942
176.594, 2.544
177.974, 15.406
179.354, 29.505
180.734, 15.213
182.114, 12.731
183.493, 5.904
184.872, 1.720
186.251, 9.585
187.630, 30.401
189.008, 31.319
190.387, 77.195
191.765, 0.031
193.143, 49.094
194.520, 30.823
195.898, 22.214
197.275, 19.199
198.652, 55.125
200.029, 33.987
201.405, 48.775
202.782, 84.502
204.158, 77.183
205.534, 100.846
206.909, 102.441
208.285, 127.993
209.660, 132.495
211.035, 67.927
212.410, 129.274
213.784, 115.516
215.159, 152.649
216.533, 206.682
217.907, 233.614
219.281, 225.430
220.654, 330.113
222.027, 353.691
223.400, 461.163
224.773, 591.483
226.146, 708.692
227.518, 1001.976
228.891, 1559.304
230.263, 2554.189
231.634, 4548.257
233.006, 7788.730
234.377, 11933.890
235.748, 17460.982
237.119, 24543.949
238.490, 24545.332
239.860, 33732.453
241.231, 23265.754
242.601, 13827.627
243.970, 8173.205
245.340, 4950.773
246.709, 3181.332
248.079, 2314.884
249.448, 1741.427
250.816, 1532.963
252.185, 1491.491
253.553, 1527.013
254.921, 1755.528
256.289, 2219.615
257.657, 3243.794
259.024, 5553.689
260.391, 9981.419
261.758, 15909.087
263.125, 24169.041
264.492, 35007.891
265.858, 50830.598
267.224, 57433.047
268.590, 40128.930
269.956, 24162.684
271.321, 13575.340
272.687, 7939.585
274.052, 5089.813
275.416, 3769.849
276.781, 3124.477
278.146, 3277.314
279.510, 4252.929
280.874, 5737.689
282.237, 7995.724
283.601, 10876.638
284.964, 13775.244
286.327, 13128.902
287.690, 8780.944
289.053, 5292.478
290.416, 3360.676
291.778, 2074.505
293.140, 1493.808
294.502, 1032.150
295.863, 834.407
297.225, 639.624
298.586, 533.964
299.947, 502.857
301.308, 464.676
302.668, 432.520
304.029, 394.214
305.389, 380.395
306.749, 388.245
308.108, 363.859
309.468, 426.225
310.827, 368.828
312.186, 350.876
313.545, 404.084
314.903, 402.184
316.262, 330.313
317.620, 415.362
318.978, 391.137
320.336, 435.084
321.693, 459.909
323.051, 558.609
324.408, 785.838
325.765, 1286.458
327.121, 1694.647
328.478, 2423.564
329.834, 3513.998
331.190, 4796.166
332.546, 4382.069
333.902, 3214.753
335.257, 1940.725
336.612, 1283.724
337.967, 878.981
339.322, 680.095
340.677, 534.134
342.031, 448.716
343.385, 418.809
344.739, 403.826
346.093, 316.022
347.446, 317.357
348.799, 321.288
350.153, 293.792
351.505, 296.955
352.858, 289.297
354.210, 286.329
355.563, 294.439
356.915, 271.676
358.267, 299.880
359.618, 213.727
360.969, 208.521
362.321, 223.827
363.672, 144.867
365.022, 156.094
366.373, 147.673
367.723, 96.184
369.073, 23.893
370.423, 117.618
371.773, 109.585
373.122, 76.588
374.471, 112.067
375.821, 68.075
377.169, 132.985
378.518, 55.118
379.866, 75.482
381.215, 143.960
382.563, 93.407
383.910, 110.287
385.258, 119.258
386.605, 172.437
387.952, 189.596
389.299, 184.775
390.646, 237.934
391.992, 253.092
393.339, 243.255
394.685, 254.421
396.031, 465.599
397.376, 679.773
398.722, 1095.945
400.067, 1719.122
401.412, 2427.313
402.757, 3092.512
404.101, 2520.702
405.446, 1715.898
406.790, 1121.088
408.134, 720.273
409.478, 476.454
410.821, 322.632
412.165, 260.800
413.508, 244.958
414.851, 144.106
416.193, 119.243
417.536, 107.367
418.878, 126.477
420.220, 70.573
421.562, 57.615
422.904, 8.606
424.245, 109.545
425.586, 58.436
426.927, 26.277
428.268, 10.072
429.609, 25.181
430.949, 17.511
432.289, 4.841
433.629, 8.761
434.969, 12.680
436.309, 18.167
437.648, 39.699
438.987, 47.284
440.326, 2.074
441.665, 36.604
443.003, 17.669
444.342, 2.092
445.680, 17.112
447.018, 5.717
448.355, 23.579
449.693, 1.481
451.030, 20.589
452.367, 38.636
453.704, 27.670
455.041, 25.682
456.377, 62.671
457.713, 56.641
459.049, 72.593
460.385, 79.581
461.721, 87.744
463.056, 88.345
464.391, 104.230
465.726, 118.099
467.061, 113.956
468.395, 62.800
469.730, 103.629
471.064, 164.444
472.398, 156.244
473.731, 103.028
475.065, 115.794
476.398, 97.542
477.731, 104.257
479.064, 158.970
480.397, 109.668
481.729, 132.349
483.062, 169.014
484.394, 125.664
485.725, 140.300
487.057, 224.925
488.389, 321.541
489.720, 427.148
491.051, 486.750
492.382, 474.346
493.712, 380.943
495.043, 261.537
496.373, 301.127
497.703, 262.712
499.032, 209.296
500.362, 287.874
501.691, 355.452
503.020, 376.027
504.349, 450.610
505.678, 532.196
507.007, 664.785
508.335, 769.372
509.663, 999.958
510.991, 1325.542
512.319, 1868.132
513.646, 2842.890
514.973, 4164.655
516.300, 6283.270
517.627, 8707.083
518.954, 11030.346
520.280, 12239.909
521.607, 10248.508
522.933, 7176.346
524.259, 4535.585
525.584, 3080.737
526.910, 2109.233
528.235, 1500.576
529.560, 1133.064
530.885, 845.220
532.209, 697.382
533.534, 605.680
534.858, 545.573
536.182, 516.731
537.506, 437.173
538.829, 391.670
540.152, 375.760
541.476, 426.463
542.799, 420.858
544.121, 450.065
545.444, 514.955
546.766, 534.445
548.088, 513.663
549.410, 573.158
550.732, 668.955
552.053, 727.774
553.375, 822.106
554.696, 1108.091
556.017, 1536.078
557.337, 2128.337
558.658, 2826.997
559.978, 3450.877
561.298, 3833.590
562.618, 3582.945
563.938, 3045.207
565.257, 2295.120
566.576, 1727.953
567.895, 1486.447
569.214, 1120.079
570.533, 918.830
571.851, 825.176
573.170, 694.167
574.488, 606.900
575.805, 590.511
577.123, 532.595
578.440, 495.661
579.758, 531.015
581.075, 478.297
582.391, 527.357
583.708, 507.823
585.024, 475.057
586.341, 564.295
587.657, 522.294
588.972, 522.421
590.288, 508.419
591.603, 463.229
592.918, 488.159
594.233, 512.724
595.548, 535.063
596.863, 524.353
598.177, 558.152
599.491, 581.979
600.805, 523.384
602.119, 505.249
603.432, 575.979
604.746, 523.814
606.059, 401.437
607.372, 432.406
608.685, 463.092
609.997, 376.890
611.309, 449.751
612.621, 473.553
613.933, 607.334
615.245, 682.258
616.557, 725.143
617.868, 879.083
619.179, 897.041
620.490, 1037.020
621.801, 1221.989
623.111, 1346.012
624.421, 1530.082
625.731, 1452.122
627.041, 1467.936
628.351, 1127.909
629.660, 956.125
630.970, 875.294
632.279, 712.229
633.588, 656.207
634.896, 610.095
636.205, 654.001
637.513, 615.124
638.821, 743.029
640.129, 856.018
641.437, 877.102
642.744, 906.041
644.051, 1041.029
645.358, 979.069
646.665, 1095.094
647.972, 1048.105
649.278, 1012.101
650.584, 966.083
651.890, 938.050
653.196, 890.003
654.502, 821.942
655.807, 661.866
657.113, 607.776
658.418, 507.671
659.722, 366.553
661.027, 304.420
662.331, 242.273
663.636, 201.112
664.940, 151.936
666.244, 128.746
667.547, 140.542
668.851, 168.324
670.154, 78.092
671.457, 79.844
672.760, 141.581
674.062, 63.304
675.365, 17.010
676.667, 87.696
677.969, 74.367
679.271, 31.024
680.572, 6.664
681.874, 7.719
683.175, 32.867
684.476, 0.439
685.777, 23.013
687.077, 107.501
688.378, 2.929
689.678, 65.663
690.978, 57.313
692.278, 65.017
693.577, 65.777
694.877, 40.596
696.176, 17.457
697.475, 23.348
698.774, 11.726
700.072, 24.785
701.371, 14.168
702.669, 16.538
703.967, 32.144
705.265, 15.824
706.562, 25.222
707.860, 58.301
709.157, 51.430
710.454, 94.606
711.751, 31.851
713.047, 37.131
714.344, 60.448
715.640, 96.814
716.936, 79.249
718.232, 12.259
719.527, 58.245
720.823, 4.794
722.118, 4.361
723.413, 16.946
724.708, 16.552
726.002, 15.819
727.297, 10.180
728.591, 65.532
729.885, 162.877
731.179, 89.214
732.472, 132.545
733.766, 76.871
735.059, 108.190
736.352, 98.505
737.645, 102.815
738.937, 102.122
740.230, 38.423
741.522, 1.280
742.814, 47.012
744.106, 85.301
745.397, 110.591
746.689, 25.879
747.980, 85.165
749.271, 36.450
750.562, 107.734
751.853, 56.019
753.143, 35.310
754.433, 10.610
755.723, 22.907
757.013, 66.211
758.303, 46.513
759.592, 61.815
760.881, 13.117
762.170, 88.419
763.459, 117.725
764.748, 60.031
766.036, 185.337
767.325, 55.642
768.613, 112.948
769.901, 148.253
771.188, 52.559
772.476, 132.864
773.763, 80.169
775.050, 140.474
776.337, 130.780
777.624, 68.084
778.910, 97.389
780.196, 151.693
781.482, 94.997
782.768, 119.302
784.054, 123.608
785.339, 132.913
786.625, 142.218
787.910, 179.524
789.195, 176.831
790.479, 193.138
791.764, 229.448
793.048, 281.757
794.332, 221.068
795.616, 294.381
796.900, 303.694
798.183, 250.009
799.467, 234.325
800.750, 185.643
802.033, 193.247
803.316, 304.283
804.598, 214.606
805.880, 249.930
807.163, 261.257
808.445, 233.587
809.726, 285.918
811.008, 270.253
812.289, 241.590
813.570, 313.930
814.851, 265.273
816.132, 316.620
817.413, 242.969
818.693, 379.323
819.973, 347.680
821.253, 402.041
822.533, 437.565
823.813, 481.775
825.092, 455.989
826.371, 491.219
827.650, 456.602
828.929, 570.782
830.208, 637.528
831.486, 568.831
832.764, 587.089
834.042, 567.176
835.320, 616.536
836.598, 608.040
837.875, 665.168
839.152, 733.238
840.429, 813.873
841.706, 841.242
842.983, 916.591
844.259, 1013.701
845.536, 1061.379
846.812, 1148.625
848.088, 1241.874
849.363, 1422.763
850.639, 1603.167
851.914, 1676.262
853.189, 1871.479
854.464, 2189.972
855.739, 2322.825
857.013, 2337.333
858.288, 2362.189
859.562, 2296.744
860.836, 2179.145
862.110, 2040.516
863.383, 1921.368
864.656, 1732.561
865.930, 1666.745
867.203, 1497.653
868.475, 1437.157
869.748, 1355.437
871.020, 1295.877
872.292, 1260.557
873.564, 1235.550
874.836, 1224.774
876.108, 1207.073
877.379, 1247.706
878.650, 1297.420
879.922, 1307.374
881.192, 1297.329
882.463, 1332.446
883.733, 1332.580
885.004, 1469.730
886.274, 1442.897
887.544, 1637.081
888.813, 1633.281
890.083, 1803.498
891.352, 1842.733
892.621, 1958.984
893.890, 2037.253
895.159, 2170.385
896.427, 2251.693
897.695, 2451.028
898.964, 2598.391
900.232, 2741.774
901.499, 2959.176
902.767, 3272.603
904.034, 3482.046
905.301, 3796.508
906.568, 4184.988
907.835, 4451.487
909.102, 4800.005
910.368, 5401.543
911.634, 6058.117
912.900, 6586.710
914.166, 7651.329
915.432, 8524.966
916.697, 9778.625
917.962, 11530.299
919.227, 13292.995
920.492, 15285.705
921.757, 17555.438
923.021, 20013.182
924.285, 22076.949
925.550, 23726.732
926.813, 24491.537
928.077, 24474.363
929.341, 23468.205
930.604, 21704.066
931.867, 19165.945
933.130, 17115.846
934.393, 15636.764
935.655, 13840.698
936.918, 13251.654
938.180, 12096.629
939.442, 10831.622
940.703, 9784.634
941.965, 8414.664
943.226, 7175.714
944.488, 6263.783
945.749, 5655.871
947.009, 4877.979
948.270, 4330.105
949.530, 3773.252
950.791, 3440.417
952.051, 3052.602
953.311, 2725.805
954.570, 2472.319
955.830, 2335.271
957.089, 2067.532
958.348, 1857.813
959.607, 1785.113
960.866, 1525.433
962.124, 1517.772
963.383, 1391.130
964.641, 1320.508
965.899, 1283.905
967.156, 1190.322
968.414, 1027.758
969.671, 961.213
970.928, 861.688
972.185, 851.182
973.442, 729.695
974.699, 773.228
975.955, 670.781
977.211, 565.353
978.468, 611.945
979.723, 552.557
980.979, 544.188
982.234, 692.843
983.490, 535.518
984.745, 633.212
986.000, 556.927
987.254, 625.667
988.509, 644.434
989.763, 472.222
991.017, 496.940
992.271, 496.479
993.525, 360.030
994.779, 471.464
996.032, 488.699
997.285, 591.135
998.538, 771.769
999.791, 1231.235
1001.044, 1618.525
1002.296, 1834.438
1003.548, 1558.488
1004.800, 1179.715
1006.052, 914.676
1007.304, 825.728
1008.555, 860.374
1009.807, 895.653
1011.058, 942.562
1012.309, 928.885
1013.559, 823.242
1014.810, 724.633
1016.060, 696.067
1017.310, 682.528
1018.560, 626.994
1019.810, 701.518
1021.060, 726.085
1022.309, 677.691
1023.558, 771.312
1024.807, 607.965
1026.056, 622.636
1027.305, 505.325
1028.553, 463.034
1029.801, 385.764
1031.049, 298.508
1032.297, 298.266
1033.545, 287.037
1034.793, 186.820
1036.040, 129.617
1037.287, 222.427
1038.534, 123.250
1039.781, 170.084
1041.027, 116.932
1042.274, 120.792
1043.520, 76.664
1044.766, 84.550
1046.012, 83.154
1047.257, 81.684
1048.503, 110.270
1049.748, 122.230
1050.993, 156.177
1052.238, 129.562
1053.483, 129.998
1054.727, 163.514
1055.971, 99.566
1057.216, 102.577
1058.459, 106.423
1059.703, 101.458
1060.947, 99.530
1062.190, 54.101
1063.433, 62.423
1064.676, 69.979
1065.919, 74.081
1067.162, 96.733
1068.404, 107.743
1069.646, 148.444
1070.888, 151.584
1072.130, 185.734
1073.372, 226.905
1074.613, 281.084
1075.855, 279.273
1077.096, 301.470
1078.337, 335.676
1079.578, 384.890
1080.818, 496.112
1082.059, 521.342
1083.299, 465.581
1084.539, 465.826
1085.779, 411.079
1087.018, 389.340
1088.258, 298.608
1089.497, 249.883
1090.736, 238.166
1091.975, 153.456
1093.213, 148.752
1094.452, 122.072
1095.690, 76.366
1096.928, 114.683
1098.166, 108.005
1099.404, 149.334
1100.642, 133.083
1101.879, 158.011
1103.116, 91.357
1104.353, 107.708
1105.590, 63.066
1106.827, 96.428
1108.063, 21.794
1109.299, 71.339
1110.536, 190.542
1111.771, 126.921
1113.007, 161.305
1114.243, 146.692
1115.478, 76.083
1116.713, 54.478
1117.948, 85.876
1119.183, 18.277
1120.418, 111.682
1121.652, 248.089
1122.886, 271.500
1124.120, 239.913
1125.354, 154.328
1126.588, 95.744
1127.821, 61.164
1129.055, 38.585
1130.288, 28.572
1131.521, 104.434
1132.753, 31.861
1133.986, 78.289
1135.218, 66.719
1136.450, 23.149
1137.682, 80.582
1138.914, 37.985
1140.146, 33.570
1141.377, 64.184
1142.609, 124.851
1143.840, 40.573
1145.071, 58.346
1146.301, 44.173
1147.532, 72.038
1148.762, 83.962
1149.992, 60.923
1151.222, 93.899
1152.452, 63.899
1153.682, 26.921
1154.911, 122.949
1156.140, 20.010
1157.369, 14.923
1158.598, 54.142
1159.827, 86.777
1161.055, 23.697
1162.284, 16.618
1163.512, 69.538
1164.740, 17.459
1165.967, 8.620
1167.195, 93.290
1168.422, 83.175
1169.650, 101.053
1170.877, 120.920
1172.103, 126.786
1173.330, 94.644
1174.557, 92.476
1175.783, 123.294
1177.009, 115.105
1178.235, 149.914
1179.461, 149.717
1180.686, 38.518
1181.912, 104.313
1183.137, 73.105
1184.362, 28.891
1185.587, 75.673
1186.811, 97.450
1188.036, 108.222
1189.260, 97.988
1190.484, 89.748
1191.708, 74.854
1192.932, 5.711
1194.155, 20.498
1195.378, 6.777
1196.602, 3.929
1197.825, 40.709
1199.047, 1.603
1200.270, 90.078
1201.492, 148.017
1202.715, 32.675
1203.937, 68.185
1205.159, 12.341
1206.380, 96.077
1207.602, 39.167
1208.823, 21.429
1210.044, 6.076
1211.265, 26.379
1212.486, 61.936
1213.707, 108.576
1214.927, 132.355
1216.147, 211.886
1217.367, 186.638
1218.587, 207.156
1219.807, 115.499
1221.027, 143.137
1222.246, 66.648
1223.465, 76.259
1224.684, 146.745
1225.903, 107.225
1227.121, 94.699
1228.340, 153.165
1229.558, 162.625
1230.776, 166.079
1231.994, 163.527
1233.212, 244.970
1234.429, 324.407
1235.646, 290.838
1236.864, 402.264
1238.081, 384.683
1239.297, 363.091
1240.514, 438.492
1241.730, 325.886
1242.947, 322.274
1244.163, 346.651
1245.378, 355.995
1246.594, 371.321
1247.810, 398.638
1249.025, 470.884
1250.240, 442.121
1251.455, 400.344
1252.670, 334.554
1253.885, 298.698
1255.099, 275.826
1256.313, 239.942
1257.527, 248.883
1258.741, 337.136
1259.955, 280.210
1261.168, 313.270
1262.382, 344.312
1263.595, 496.337
1264.808, 476.344
1266.021, 525.331
1267.233, 601.325
1268.446, 600.278
1269.658, 563.212
1270.870, 656.134
1272.082, 722.042
1273.294, 752.936
1274.505, 647.855
1275.716, 688.724
1276.928, 662.579
1278.139, 658.605
1279.349, 587.442
1280.560, 597.266
1281.770, 587.084
1282.981, 528.132
1284.191, 536.882
1285.401, 442.428
1286.610, 423.149
1287.820, 433.257
1289.029, 417.754
1290.239, 412.057
1291.448, 472.796
1292.656, 504.409
1293.865, 567.264
1295.073, 651.935
1296.282, 501.427
1297.490, 559.907
1298.698, 586.297
1299.906, 485.738
1301.113, 491.164
1302.320, 407.575
1303.528, 422.973
1304.735, 406.355
1305.942, 403.725
1307.148, 481.078
1308.355, 495.417
1309.561, 549.441
1310.767, 588.048
1311.973, 654.318
1313.179, 627.434
1314.384, 666.341
1315.590, 667.694
1316.795, 669.735
1318.000, 663.750
1319.205, 726.531
1320.410, 733.154
1321.614, 697.406
1322.819, 740.246
1324.023, 672.061
1325.227, 567.833
1326.431, 500.563
1327.634, 381.267
1328.838, 391.944
1330.041, 354.595
1331.244, 299.220
1332.447, 178.816
1333.650, 205.383
1334.852, 196.921
1336.055, 19.430
1337.257, 36.907
1338.459, 48.354
1339.661, 65.771
1340.862, 73.668
1342.064, 40.512
1343.265, 72.838
1344.466, 59.134
1345.667, 22.399
1346.868, 63.634
1348.068, 13.163
1349.269, 11.009
1350.469, 36.148
1351.669, 32.255
1352.869, 63.328
1354.069, 44.367
1355.268, 44.632
1356.468, 64.332
1357.667, 36.277
1358.866, 20.362
1360.065, 91.668
1361.263, 21.249
1362.462, 85.064
1363.660, 31.121
1364.858, 31.684
1366.056, 57.452
1367.254, 34.184
1368.451, 70.880
1369.649, 63.787
1370.846, 67.923
1372.043, 62.908
1373.240, 95.682
1374.436, 92.520
1375.633, 148.472
1376.829, 140.426
1378.025, 99.377
1379.221, 199.329
1380.417, 153.283
1381.613, 218.244
1382.808, 270.125
1384.003, 269.565
1385.199, 247.523
1386.393, 235.213
1387.588, 229.237
1388.783, 195.606
1389.977, 199.344
1391.171, 190.449
1392.365, 176.385
1393.559, 172.369
1394.753, 143.713
1395.946, 141.003
1397.140, 78.830
1398.333, 60.831
1399.526, 69.933
1400.719, 57.650
1401.911, 96.851
1403.104, 93.868
1404.296, 109.671
1405.488, 156.228
1406.680, 49.576
1407.872, 89.620
1409.063, 110.557
1410.255, 24.479
1411.446, 201.062
1412.637, 147.480
1413.828, 58.754
1415.018, 154.980
1416.209, 100.169
1417.399, 18.395
1418.589, 83.780
1419.779, 29.073
1420.969, 0.955
1422.159, 34.250
1423.348, 61.729
1424.537, 101.417
1425.726, 0.262
1426.915, 79.684
1428.104, 0.000
##END=



