##NAMES=Topaz
##RRUFFID=R050176
##IDEAL CHEMISTRY=Al_2_SiO_4_F_2_
##LOCALITY=Jos Plateau, Nigeria
##OWNER=RRUFF
##SOURCE=Marcus Origlieri
##DESCRIPTION=Colorless prismatic crystal
##STATUS=The identification of this mineral has been confirmed by X-ray diffraction and chemical analysis
##URL=rruff.info/R050176
##MEASURED CHEMISTRY=Al_2.000_Si_1.000_O_4.000_(F_1.438_(OH)_0.562_)
##PIN_ID=L00271
##ORIENTATION=Laser parallel to a* (1 0 0). Fiducial mark perpendicular to laser is parallel to b [0 1 0]
95.465, 0.000
96.858, 2.607
98.251, 18.305
99.644, 87.305
101.036, 224.292
102.428, 145.951
103.820, 211.903
105.212, 206.157
106.604, 275.002
107.995, 358.058
109.387, 552.052
110.777, 1563.650
112.168, 6775.551
113.559, 10943.512
114.949, 3457.360
116.339, 1270.966
117.729, 670.357
119.119, 398.769
120.508, 377.367
121.897, 307.597
123.286, 334.130
124.675, 236.224
126.063, 150.551
127.452, 110.014
128.840, 150.619
130.228, 168.366
131.615, 157.258
133.003, 244.296
134.390, 120.480
135.777, 154.807
137.164, 269.274
138.550, 229.627
139.937, 269.211
141.323, 67.074
142.709, 137.530
144.094, 192.417
145.480, 218.128
146.865, 302.560
148.250, 282.827
149.635, 509.267
151.019, 865.649
152.403, 1305.997
153.788, 3022.884
155.171, 5001.024
156.555, 3924.290
157.939, 1872.679
159.322, 1120.185
160.705, 979.804
162.088, 1128.531
163.470, 1804.362
164.853, 3524.294
166.235, 5205.324
167.617, 3912.449
168.998, 2301.717
170.380, 1087.073
171.761, 616.516
173.142, 351.044
174.523, 201.656
175.904, 180.349
177.284, 36.121
178.664, 19.949
180.044, 99.766
181.424, 9.405
182.803, 145.458
184.183, 21.589
185.562, 2.523
186.940, 50.230
188.319, 30.916
189.698, 49.436
191.076, 76.174
192.454, 36.257
193.831, 77.272
195.209, 15.240
196.586, 13.795
197.963, 23.608
199.340, 90.030
200.717, 21.289
202.093, 19.433
203.470, 9.804
204.846, 68.998
206.221, 7.161
207.597, 61.282
208.972, 108.635
210.347, 48.411
211.722, 84.583
213.097, 265.613
214.472, 177.681
215.846, 117.787
217.220, 43.930
218.594, 128.110
219.967, 75.335
221.341, 147.600
222.714, 53.897
224.087, 125.218
225.460, 214.560
226.832, 283.912
228.204, 486.274
229.577, 655.672
230.948, 1079.121
232.320, 1599.585
233.692, 2928.096
235.063, 5619.641
236.434, 9541.214
237.805, 15626.837
239.175, 26175.504
240.545, 34049.695
241.916, 24247.420
243.286, 13374.176
244.655, 7079.969
246.025, 3900.800
247.394, 2519.669
248.763, 1578.572
250.132, 1467.511
251.501, 1161.484
252.869, 1149.491
254.237, 1042.531
255.605, 1024.605
256.973, 1203.712
258.340, 1301.852
259.708, 1780.024
261.075, 2788.918
262.442, 5385.531
263.808, 10043.738
265.175, 15978.174
266.541, 30537.793
267.907, 47182.117
269.273, 42941.031
270.639, 23048.354
272.004, 11151.782
273.369, 6293.387
274.734, 3880.321
276.099, 3430.504
277.463, 3662.069
278.828, 4753.635
280.192, 7514.264
281.556, 12152.949
282.919, 19730.688
284.283, 31447.480
285.646, 48494.316
287.009, 49052.191
288.372, 35753.102
289.734, 21951.057
291.097, 12365.045
292.459, 7640.068
293.821, 4826.127
295.183, 3465.219
296.544, 2683.346
297.905, 2071.504
299.266, 1964.695
300.627, 1562.918
301.988, 1381.178
303.348, 1332.463
304.709, 1176.768
306.069, 1123.080
307.428, 1087.408
308.788, 1146.729
310.147, 1072.045
311.507, 1501.382
312.865, 1837.742
314.224, 2423.127
315.583, 3871.539
316.941, 5078.954
318.299, 4929.381
319.657, 3136.834
321.015, 2036.314
322.372, 1552.820
323.729, 1359.352
325.086, 1824.910
326.443, 2467.491
327.800, 4428.098
329.156, 7017.729
330.512, 11769.384
331.868, 17352.061
333.224, 17297.754
334.579, 12830.475
335.935, 7344.216
337.290, 4320.979
338.645, 2628.759
339.999, 1672.562
341.354, 1120.383
342.708, 909.258
344.062, 651.117
345.416, 558.800
346.769, 509.701
348.123, 406.116
349.476, 327.082
350.829, 230.638
352.182, 263.880
353.534, 186.924
354.887, 175.587
356.239, 139.687
357.591, 170.361
358.942, 33.518
360.294, 154.689
361.645, 37.320
362.996, 1.557
364.347, 162.323
365.698, 132.632
367.048, 253.774
368.398, 412.134
369.748, 632.979
371.098, 711.560
372.448, 476.983
373.797, 298.101
375.146, 174.597
376.495, 98.410
377.844, 49.949
379.192, 61.249
380.540, 73.829
381.889, 60.576
383.236, 44.043
384.584, 10.674
385.932, 30.332
387.279, 235.001
388.626, 181.681
389.973, 360.370
391.319, 317.070
392.666, 659.781
394.012, 990.500
395.358, 1352.229
396.704, 2164.966
398.049, 3256.714
399.394, 5155.477
400.740, 7447.246
402.084, 11130.023
403.429, 12996.805
404.774, 11548.590
406.118, 8587.397
407.462, 5275.230
408.806, 3260.072
410.150, 2133.928
411.493, 1347.790
412.836, 989.678
414.179, 594.569
415.522, 524.473
416.865, 254.411
418.207, 161.354
419.549, 256.328
420.891, 239.297
422.233, 436.981
423.575, 448.680
424.916, 422.695
426.257, 368.484
427.598, 85.552
428.939, 13.776
430.279, 14.342
431.619, 71.648
432.959, 5.210
434.299, 146.086
435.639, 13.165
436.978, 80.099
438.318, 85.498
439.657, 41.280
440.996, 10.301
442.334, 207.326
443.673, 16.355
445.011, 304.390
446.349, 391.427
447.687, 622.468
449.024, 1277.512
450.361, 2003.581
451.699, 3590.654
453.036, 6010.730
454.372, 9991.809
455.709, 14179.913
457.045, 17166.994
458.381, 15764.094
459.717, 11262.174
461.053, 7746.254
462.388, 4882.629
463.724, 3170.722
465.059, 2151.816
466.394, 1467.909
467.728, 1204.006
469.063, 975.103
470.397, 647.209
471.731, 588.553
473.065, 322.656
474.398, 458.758
475.732, 201.858
477.065, 308.955
478.398, 180.051
479.731, 117.145
481.063, 216.235
482.396, 130.324
483.728, 201.409
485.060, 354.492
486.391, 270.569
487.723, 663.645
489.054, 895.717
490.385, 1227.783
491.716, 1090.846
493.047, 655.904
494.377, 437.957
495.708, 249.006
497.038, 296.048
498.368, 226.087
499.697, 44.118
501.027, 109.145
502.356, 13.775
503.685, 93.228
505.014, 176.481
506.342, 150.796
507.671, 412.587
508.999, 457.057
510.327, 735.029
511.655, 573.109
512.982, 673.152
514.310, 501.230
515.637, 273.208
516.964, 386.157
518.291, 256.831
519.617, 524.893
520.944, 602.088
522.270, 320.493
523.596, 302.252
524.921, 187.241
526.247, 192.436
527.572, 136.825
528.897, 5.765
530.222, 131.251
531.547, 8.199
532.871, 190.676
534.196, 42.138
535.520, 30.713
536.844, 93.484
538.167, 20.613
539.491, 144.760
540.814, 123.794
542.137, 76.821
543.460, 234.507
544.783, 163.917
546.105, 215.569
547.427, 233.205
548.749, 472.825
550.071, 524.427
551.393, 497.012
552.714, 963.580
554.035, 1117.130
555.356, 1765.661
556.677, 2246.176
557.998, 3113.020
559.318, 3906.500
560.638, 4166.961
561.958, 4029.006
563.278, 3095.446
564.597, 2270.414
565.917, 1729.727
567.236, 1135.094
568.555, 926.752
569.874, 620.079
571.192, 411.552
572.511, 366.840
573.829, 240.056
575.147, 203.004
576.464, 235.230
577.782, 89.686
579.099, 166.911
580.416, 9.928
581.733, 7.561
583.050, 145.622
584.366, 31.244
585.683, 257.444
586.999, 35.543
588.315, 134.332
589.630, 20.751
590.946, 85.989
592.261, 122.665
593.576, 27.113
594.891, 216.283
596.206, 65.259
597.520, 53.506
598.834, 332.567
600.148, 198.220
601.462, 379.878
602.776, 228.484
604.089, 248.108
605.402, 247.667
606.715, 167.204
608.028, 222.075
609.341, 181.563
610.653, 207.026
611.965, 205.467
613.277, 117.882
614.589, 208.272
615.901, 121.639
617.212, 172.980
618.523, 279.297
619.834, 41.590
621.145, 410.438
622.456, 285.669
623.766, 348.876
625.076, 337.790
626.386, 205.945
627.696, 463.128
629.006, 96.232
630.315, 292.309
631.624, 355.361
632.933, 194.388
634.242, 469.390
635.551, 313.364
636.859, 488.314
638.167, 714.240
639.475, 885.139
640.783, 1186.012
642.090, 1462.859
643.398, 1781.683
644.705, 1768.480
646.012, 1649.252
647.318, 1514.997
648.625, 996.718
649.931, 775.412
651.237, 676.082
652.543, 257.726
653.849, 430.345
655.155, 222.938
656.460, 248.506
657.765, 216.048
659.070, 125.564
660.375, 182.023
661.679, 92.488
662.984, 86.926
664.288, 24.335
665.592, 23.297
666.895, 161.006
668.199, 33.717
669.502, 45.491
670.805, 108.664
672.108, 33.190
673.411, 167.888
674.713, 45.060
676.016, 106.919
677.318, 86.871
678.620, 74.204
679.921, 49.631
681.223, 100.566
682.524, 8.866
683.825, 24.778
685.126, 13.614
686.427, 90.342
687.727, 72.134
689.028, 51.329
690.328, 50.737
691.628, 52.900
692.927, 7.108
694.227, 15.630
695.526, 59.848
696.825, 66.028
698.124, 51.816
699.423, 166.278
700.721, 24.650
702.020, 184.365
703.318, 263.357
704.616, 197.329
705.913, 384.277
707.211, 247.204
708.508, 488.109
709.805, 371.991
711.102, 281.854
712.399, 235.693
713.695, 7.513
714.992, 230.297
716.288, 137.060
717.584, 28.802
718.879, 93.518
720.175, 15.788
721.470, 54.139
722.765, 165.447
724.060, 2.013
725.355, 117.544
726.649, 44.943
727.944, 90.512
729.238, 4.946
730.532, 87.648
731.825, 123.680
733.119, 32.986
734.412, 31.751
735.705, 77.488
736.998, 24.002
738.291, 82.480
739.584, 77.357
740.876, 21.002
742.168, 31.078
743.460, 125.458
744.752, 65.513
746.043, 13.414
747.334, 13.801
748.626, 101.114
749.916, 122.191
751.207, 136.110
752.498, 9.529
753.788, 6.379
755.078, 142.523
756.368, 23.411
757.658, 75.286
758.947, 16.146
760.237, 50.991
761.526, 174.824
762.815, 92.355
764.104, 107.404
765.392, 65.150
766.680, 94.884
767.969, 197.605
769.257, 117.288
770.544, 126.985
771.832, 63.654
773.119, 201.330
774.406, 182.992
775.693, 57.646
776.980, 47.971
778.267, 192.578
779.553, 28.826
780.839, 194.752
782.125, 53.680
783.411, 117.859
784.697, 223.148
785.982, 55.668
787.267, 193.180
788.552, 100.682
789.837, 121.176
791.122, 213.661
792.406, 73.139
793.690, 194.607
794.974, 75.070
796.258, 133.524
797.542, 238.973
798.825, 180.414
800.108, 204.848
801.391, 264.276
802.674, 311.725
803.957, 441.168
805.239, 196.604
806.522, 407.035
807.804, 293.462
809.085, 322.883
810.367, 344.299
811.649, 234.711
812.930, 475.118
814.211, 356.463
815.492, 319.868
816.772, 590.021
818.053, 365.102
819.333, 578.742
820.613, 638.695
821.893, 423.136
823.173, 757.466
824.452, 774.826
825.732, 667.142
827.011, 1003.558
828.290, 895.991
829.568, 1085.707
830.847, 1269.023
832.125, 1261.197
833.403, 1406.155
834.681, 1496.734
835.959, 1701.092
837.236, 2004.234
838.514, 2368.173
839.791, 2972.088
841.068, 3511.381
842.345, 4507.739
843.621, 5415.592
844.898, 6556.453
846.174, 7742.233
847.450, 9216.810
848.726, 10255.018
850.001, 11193.233
851.277, 12480.551
852.552, 13151.668
853.827, 14306.322
855.102, 14500.242
856.376, 14263.908
857.651, 13550.589
858.925, 11831.276
860.199, 10028.971
861.473, 8249.677
862.746, 6834.387
864.020, 5921.109
865.293, 4686.840
866.566, 4153.582
867.839, 3810.984
869.112, 3235.744
870.384, 2834.516
871.656, 2752.693
872.928, 2521.468
874.200, 2187.708
875.472, 2228.597
876.744, 1938.423
878.015, 1873.951
879.286, 1791.802
880.557, 1598.500
881.828, 1627.376
883.098, 1471.316
884.369, 1516.522
885.639, 1660.442
886.909, 1386.128
888.178, 1622.038
889.448, 1549.003
890.717, 1536.653
891.987, 1697.712
893.256, 1699.202
894.524, 1772.119
895.793, 1896.132
897.061, 1929.887
898.330, 2030.061
899.598, 2246.114
900.865, 2426.273
902.133, 2581.577
903.401, 2709.905
904.668, 2939.270
905.935, 3246.044
907.202, 3521.244
908.468, 4097.669
909.735, 4483.086
911.001, 5003.557
912.267, 5688.006
913.533, 6546.515
914.799, 7608.043
916.064, 8830.232
917.330, 10002.801
918.595, 11965.388
919.860, 13794.999
921.124, 15825.627
922.389, 17655.277
923.653, 19139.949
924.918, 20262.639
926.182, 21083.350
927.445, 20256.084
928.709, 20746.252
929.972, 19896.035
931.236, 19833.836
932.499, 20893.930
933.761, 21772.775
935.024, 23524.590
936.286, 23967.482
937.549, 22062.398
938.811, 19513.332
940.073, 15879.294
941.334, 12762.278
942.596, 10051.285
943.857, 8161.315
945.118, 6904.367
946.379, 5824.441
947.640, 4897.538
948.900, 4401.659
950.161, 3681.800
951.421, 3356.966
952.681, 2719.154
953.940, 2788.420
955.200, 2284.654
956.459, 2180.912
957.719, 2070.192
958.978, 1775.497
960.236, 1666.825
961.495, 1535.178
962.753, 1526.552
964.012, 1460.967
965.270, 1083.391
966.527, 1220.928
967.785, 1091.672
969.043, 931.167
970.300, 1159.690
971.557, 784.241
972.814, 890.835
974.071, 971.451
975.327, 723.113
976.583, 889.803
977.840, 857.516
979.095, 741.273
980.351, 970.517
981.607, 887.346
982.862, 834.199
984.117, 932.338
985.372, 649.272
986.627, 945.234
987.882, 521.259
989.136, 704.321
990.390, 646.633
991.644, 508.765
992.898, 570.921
994.152, 464.914
995.405, 643.150
996.659, 698.317
997.912, 510.628
999.165, 837.969
1000.417, 1046.652
1001.670, 1104.056
1002.922, 1718.483
1004.174, 1539.721
1005.426, 2076.217
1006.678, 2471.085
1007.930, 2539.643
1009.181, 2711.230
1010.432, 2197.842
1011.683, 1709.475
1012.934, 1575.133
1014.185, 1066.811
1015.435, 1145.512
1016.685, 841.236
1017.935, 563.980
1019.185, 773.756
1020.435, 512.553
1021.684, 678.371
1022.934, 561.219
1024.183, 366.088
1025.432, 632.992
1026.680, 220.938
1027.929, 366.904
1029.177, 364.900
1030.425, 209.916
1031.673, 458.973
1032.921, 235.137
1034.169, 221.883
1035.416, 462.037
1036.663, 69.371
1037.911, 322.576
1039.157, 410.822
1040.404, 167.973
1041.650, 367.279
1042.897, 89.613
1044.143, 179.283
1045.389, 235.693
1046.634, 241.121
1047.880, 280.609
1049.125, 279.123
1050.371, 112.924
1051.615, 397.498
1052.860, 133.094
1054.105, 85.477
1055.349, 322.125
1056.593, 54.201
1057.837, 255.494
1059.081, 159.213
1060.325, 60.898
1061.568, 192.666
1062.812, 129.459
1064.055, 196.277
1065.298, 398.119
1066.540, 81.006
1067.783, 240.918
1069.025, 160.855
1070.267, 207.781
1071.509, 363.732
1072.751, 110.707
1073.993, 260.703
1075.234, 396.723
1076.475, 67.758
1077.716, 332.754
1078.957, 174.785
1080.198, 252.865
1081.438, 465.943
1082.679, 36.045
1083.919, 397.168
1085.159, 340.320
1086.398, 58.498
1087.638, 336.688
1088.877, 42.898
1090.116, 153.457
1091.355, 346.590
1092.594, 52.688
1093.833, 365.805
1095.071, 113.934
1096.309, 74.082
1097.547, 475.248
1098.785, 7.434
1100.023, 217.639
1101.260, 244.867
1102.498, 141.889
1103.735, 269.348
1104.972, 122.607
1106.208, 242.883
1107.445, 615.180
1108.681, 203.494
1109.918, 176.820
1111.154, 188.162
1112.389, 2.453
1113.625, 169.902
1114.860, 1.814
1116.096, 36.516
1117.331, 233.758
1118.566, 195.037
1119.800, 187.098
1121.035, 228.244
1122.269, 50.381
1123.503, 379.527
1124.737, 187.684
1125.971, 5.848
1127.205, 275.023
1128.438, 11.797
1129.671, 302.643
1130.904, 146.838
1132.137, 4.961
1133.370, 362.699
1134.602, 10.916
1135.834, 24.135
1137.066, 289.494
1138.298, 28.281
1139.530, 251.947
1140.762, 161.291
1141.993, 145.465
1143.224, 436.945
1144.455, 177.834
1145.686, 145.348
1146.917, 154.533
1148.147, 150.275
1149.377, 346.881
1150.607, 227.041
1151.837, 13.787
1153.067, 350.391
1154.296, 2.420
1155.526, 301.779
1156.755, 371.354
1157.984, 189.572
1159.213, 407.791
1160.441, 497.555
1161.670, 468.797
1162.898, 792.047
1164.126, 563.309
1165.354, 780.588
1166.581, 732.189
1167.809, 467.504
1169.036, 631.836
1170.263, 503.777
1171.490, 244.031
1172.717, 571.262
1173.943, 213.500
1175.170, 224.717
1176.396, 370.928
1177.622, 143.064
1178.848, 442.188
1180.073, 12.082
1181.299, 2.814
1182.524, 361.508
1183.749, 10.826
1184.974, 112.178
1186.199, 288.490
1187.423, 118.188
1188.648, 288.143
1189.872, 57.500
1191.096, 57.225
1192.320, 398.057
1193.543, 34.070
1194.767, 103.371
1195.990, 235.672
1197.213, 179.002
1198.436, 301.346
1199.659, 163.713
1200.881, 39.898
1202.104, 414.512
1203.326, 104.941
1204.548, 213.393
1205.770, 324.867
1206.991, 4.643
1208.213, 388.871
1209.434, 254.400
1210.655, 157.949
1211.876, 406.518
1213.096, 304.111
1214.317, 267.725
1215.537, 417.361
1216.757, 129.113
1217.977, 423.705
1219.197, 314.318
1220.417, 197.949
1221.636, 505.582
1222.855, 135.369
1224.074, 313.062
1225.293, 399.600
1226.512, 88.158
1227.731, 528.744
1228.949, 202.670
1230.167, 165.291
1231.385, 587.543
1232.603, 196.203
1233.820, 263.010
1235.038, 606.695
1236.255, 37.090
1237.472, 631.777
1238.689, 362.658
1239.906, 266.879
1241.122, 648.836
1242.338, 231.502
1243.555, 144.711
1244.771, 684.926
1245.986, 134.152
1247.202, 589.395
1248.417, 483.650
1249.633, 239.914
1250.848, 557.189
1252.063, 442.479
1253.277, 294.789
1254.492, 658.949
1255.706, 268.008
1256.920, 479.018
1258.134, 478.943
1259.348, 84.934
1260.562, 723.658
1261.775, 410.445
1262.988, 73.816
1264.201, 628.000
1265.414, 181.391
1266.627, 387.258
1267.839, 451.354
1269.052, 143.941
1270.264, 571.424
1271.476, 378.791
1272.688, 200.125
1273.899, 580.424
1275.111, 36.592
1276.322, 402.840
1277.533, 514.055
1278.744, 3.211
1279.955, 584.229
1281.165, 460.117
1282.376, 68.828
1283.586, 648.352
1284.796, 172.963
1286.006, 81.492
1287.215, 730.889
1288.425, 63.139
1289.634, 369.217
1290.843, 501.113
1292.052, 116.852
1293.261, 524.715
1294.469, 283.244
1295.678, 399.553
1296.886, 701.852
1298.094, 212.436
1299.302, 220.174
1300.509, 580.988
1301.717, 32.486
1302.924, 637.475
1304.131, 292.783
1305.338, 25.047
1306.545, 643.355
1307.752, 336.043
1308.958, 322.170
1310.164, 717.000
1311.370, 87.205
1312.576, 496.773
1313.782, 519.580
1314.987, 21.781
1316.193, 651.602
1317.398, 489.912
1318.603, 262.578
1319.807, 655.793
1321.012, 254.912
1322.216, 288.338
1323.421, 601.824
1324.625, 1.471
1325.829, 487.775
1327.032, 0.000
##END=



