##NAMES=Tremolite
##RRUFFID=R040045
##IDEAL CHEMISTRY=[box]Ca_2_Mg_5_Si_8_O_22_(OH)_2_
##LOCALITY=Gouverneur, New York, USA
##OWNER=RRUFF
##SOURCE=University of Arizona Mineral Museum
##DESCRIPTION=Group of colorless acicular single crystals
##STATUS=The identification of this mineral has been confirmed by X-ray diffraction and chemical analysis
##URL=rruff.info/R040045
##MEASURED CHEMISTRY=Ca_2.01_(Mg_0.99_Fe_0.01_)_5_(Si_0.99_Fe_0.01_)_8_O_22_(OH)_2_
##PIN_ID=L00397
##ORIENTATION=Laser parallel to [-1 0 -1]. Fiducial mark perpendicular to laser is parallel to -b* (0 -1 0)
107.995, 0.000
109.387, 3.391
110.777, 76.901
112.168, 101.947
113.559, 184.177
114.949, 407.880
116.339, 430.270
117.729, 782.722
119.119, 860.324
120.508, 1049.715
121.897, 1204.226
123.286, 1364.282
124.675, 1192.014
126.063, 990.573
127.452, 699.819
128.840, 359.751
130.228, 310.605
131.615, 166.217
133.003, 143.407
134.390, 119.049
135.777, 93.953
137.164, 83.325
138.550, 9.169
139.937, 193.520
141.323, 188.355
142.709, 217.313
144.094, 316.366
145.480, 236.499
146.865, 287.695
148.250, 53.322
149.635, 43.989
151.019, 3.348
152.403, 144.433
153.788, 74.209
155.171, 152.716
156.555, 518.988
157.939, 728.050
159.322, 1334.923
160.705, 1881.630
162.088, 2368.189
163.470, 2344.617
164.853, 2290.924
166.235, 1567.121
167.617, 973.216
168.998, 649.216
170.380, 515.127
171.761, 610.956
173.142, 1016.704
174.523, 1392.378
175.904, 2337.982
177.284, 2973.518
178.664, 3648.991
180.044, 3674.407
181.424, 2919.770
182.803, 1955.083
184.183, 1230.354
185.562, 675.584
186.940, 432.800
188.319, 453.964
189.698, 497.321
191.076, 758.715
192.454, 705.469
193.831, 950.992
195.209, 864.784
196.586, 537.895
197.963, 441.064
199.340, 334.317
200.717, 297.684
202.093, 321.204
203.470, 234.820
204.846, 408.450
206.221, 342.086
207.597, 465.768
208.972, 549.517
210.347, 863.324
211.722, 1207.224
213.097, 1361.159
214.472, 1775.184
215.846, 1999.230
217.220, 2383.296
218.594, 2887.395
219.967, 3881.491
221.341, 4915.602
222.714, 5749.720
224.087, 6283.846
225.460, 5857.977
226.832, 5142.113
228.204, 4606.259
229.577, 4890.403
230.948, 5494.547
232.320, 5828.685
233.692, 6052.810
235.063, 5426.922
236.434, 4091.017
237.805, 2945.099
239.175, 1909.168
240.545, 1483.223
241.916, 937.263
243.286, 931.288
244.655, 995.306
246.025, 1109.314
247.394, 1473.353
248.763, 1657.422
250.132, 2301.490
251.501, 2315.562
252.869, 2229.663
254.237, 1723.795
255.605, 1247.932
256.973, 892.098
258.340, 616.254
259.708, 430.482
261.075, 244.712
262.442, 198.954
263.808, 163.201
265.175, 17.462
266.541, 8.290
267.907, 55.830
269.273, 59.850
270.639, 105.711
272.004, 151.695
273.369, 167.414
274.734, 162.896
276.099, 48.279
277.463, 16.402
278.828, 71.136
280.192, 55.898
281.556, 120.664
282.919, 275.931
284.283, 171.117
285.646, 376.476
287.009, 211.271
288.372, 558.186
289.734, 663.299
291.097, 638.678
292.459, 611.297
293.821, 415.992
295.183, 468.273
296.544, 293.476
297.905, 248.397
299.266, 464.240
300.627, 384.326
301.988, 649.772
303.348, 524.836
304.709, 720.308
306.069, 685.895
307.428, 471.094
308.788, 649.617
310.147, 504.500
311.507, 709.998
312.865, 718.740
314.224, 524.158
315.583, 549.714
316.941, 284.903
318.299, 344.302
319.657, 219.310
321.015, 354.375
322.372, 278.998
323.729, 263.528
325.086, 279.186
326.443, 193.674
327.800, 358.141
329.156, 253.104
330.512, 657.531
331.868, 662.493
333.224, 847.016
334.579, 921.384
335.935, 735.905
337.290, 690.235
338.645, 664.676
339.999, 608.968
341.354, 733.746
342.708, 768.003
344.062, 1202.241
345.416, 1126.963
346.769, 1551.165
348.123, 1805.349
349.476, 2129.517
350.829, 2763.656
352.182, 2697.703
353.534, 2771.611
354.887, 2265.305
356.239, 1908.842
357.591, 1682.357
358.942, 1265.861
360.294, 1399.355
361.645, 1322.840
362.996, 1416.315
364.347, 1899.778
365.698, 2493.229
367.048, 3786.670
368.398, 5010.097
369.748, 5136.371
371.098, 6386.914
372.448, 4990.302
373.797, 3583.678
375.146, 2267.039
376.495, 1800.386
377.844, 1244.276
379.192, 987.592
380.540, 921.079
381.889, 695.307
383.236, 828.684
384.584, 819.291
385.932, 1013.018
387.279, 1147.317
388.626, 1511.519
389.973, 2275.037
391.319, 3009.573
392.666, 4133.651
394.012, 4887.757
395.358, 5227.635
396.704, 4641.169
398.049, 3236.655
399.394, 2500.705
400.740, 1484.742
402.084, 1292.133
403.429, 1135.683
404.774, 889.344
406.118, 973.116
407.462, 854.955
408.806, 1039.164
410.150, 1102.771
411.493, 1298.395
412.836, 2001.679
414.179, 2328.604
415.522, 2672.237
416.865, 2875.813
418.207, 2672.224
419.549, 2165.311
420.891, 1679.053
422.233, 1312.568
423.575, 835.318
424.916, 699.099
426.257, 481.859
427.598, 424.947
428.939, 465.326
430.279, 382.493
431.619, 600.869
432.959, 454.865
434.299, 727.294
435.639, 918.545
436.978, 779.640
438.318, 998.361
439.657, 410.315
440.996, 505.633
442.334, 298.558
443.673, 131.437
445.011, 154.693
446.349, 117.557
447.687, 200.352
449.024, 7.407
450.361, 135.263
451.699, 78.416
453.036, 96.296
454.372, 316.886
455.709, 90.618
457.045, 142.094
458.381, 218.822
459.717, 21.759
461.053, 274.842
462.388, 97.924
463.724, 121.165
465.059, 94.047
466.394, 66.323
467.728, 158.621
469.063, 29.519
470.397, 232.423
471.731, 84.808
473.065, 33.671
474.398, 98.729
475.732, 60.155
477.065, 142.559
478.398, 46.081
479.731, 175.309
481.063, 156.597
482.396, 257.850
483.728, 359.230
485.060, 20.427
486.391, 291.625
487.723, 282.782
489.054, 153.921
490.385, 455.030
491.716, 146.108
493.047, 247.175
494.377, 328.208
495.708, 239.215
497.038, 470.192
498.368, 251.140
499.697, 292.078
501.027, 162.986
502.356, 283.863
503.685, 414.712
505.014, 165.529
506.342, 516.315
507.671, 417.068
508.999, 717.793
510.327, 1028.507
511.655, 1229.191
512.982, 1519.856
514.310, 1470.493
515.637, 1721.101
516.964, 1451.719
518.291, 1212.305
519.617, 1352.868
520.944, 1043.401
522.270, 963.909
523.596, 804.392
524.921, 714.842
526.247, 995.266
527.572, 875.661
528.897, 1106.032
530.222, 956.422
531.547, 936.778
532.871, 777.107
534.196, 457.410
535.520, 417.683
536.844, 167.943
538.167, 338.169
539.491, 258.364
540.814, 78.534
542.137, 278.663
543.460, 91.236
544.783, 188.769
546.105, 48.734
547.427, 68.681
548.749, 228.583
550.071, 8.452
551.393, 88.278
552.714, 78.060
554.035, 82.193
555.356, 207.458
556.677, 12.924
557.998, 76.642
559.318, 76.160
560.638, 44.360
561.958, 185.043
563.278, 154.575
564.597, 123.971
565.917, 116.744
567.236, 22.772
568.555, 151.952
569.874, 18.904
571.192, 220.517
572.511, 40.439
573.829, 128.638
575.147, 137.570
576.464, 33.537
577.782, 245.286
579.099, 84.069
580.416, 132.813
581.733, 311.512
583.050, 60.173
584.366, 298.792
585.683, 7.372
586.999, 275.915
588.315, 344.433
589.630, 2.937
590.946, 331.414
592.261, 19.891
593.576, 48.366
594.891, 146.845
596.206, 35.328
597.520, 193.786
598.834, 27.798
600.148, 120.550
601.462, 188.851
602.776, 106.613
604.089, 194.485
605.402, 203.799
606.715, 330.504
608.028, 216.255
609.341, 94.208
610.653, 28.049
611.965, 51.917
613.277, 210.689
614.589, 131.126
615.901, 60.855
617.212, 70.274
618.523, 27.130
619.834, 26.496
621.145, 2.559
622.456, 59.834
623.766, 197.611
625.076, 184.511
626.386, 282.414
627.696, 246.897
629.006, 134.759
630.315, 342.702
631.624, 106.093
632.933, 424.385
634.242, 91.409
635.551, 349.104
636.859, 318.052
638.167, 334.951
639.475, 523.401
640.783, 301.430
642.090, 448.730
643.398, 674.621
644.705, 511.957
646.012, 909.417
647.318, 677.147
648.625, 1064.016
649.931, 1365.742
651.237, 1322.515
652.543, 1890.381
653.849, 1808.114
655.155, 1985.140
656.460, 2127.000
657.765, 2004.189
659.070, 2041.538
660.375, 2168.891
661.679, 2555.656
662.984, 2933.127
664.288, 3489.159
665.592, 4606.509
666.895, 5607.956
668.199, 7624.758
669.502, 10714.196
670.805, 13851.121
672.108, 18557.846
673.411, 21503.678
674.713, 22839.436
676.016, 21517.184
677.318, 17243.984
678.620, 13641.080
679.921, 9948.218
681.223, 7384.264
682.524, 5701.316
683.825, 4368.075
685.126, 3545.311
686.427, 3173.174
687.727, 2668.656
689.028, 2545.453
690.328, 2142.379
691.628, 2188.463
692.927, 1788.691
694.227, 1464.258
695.526, 1420.551
696.825, 1207.525
698.124, 1132.082
699.423, 898.730
700.721, 937.088
702.020, 941.680
703.318, 640.609
704.616, 794.361
705.913, 539.992
707.211, 654.215
708.508, 627.838
709.805, 463.549
711.102, 591.230
712.399, 576.686
713.695, 450.004
714.992, 443.363
716.288, 527.598
717.584, 557.461
718.879, 372.363
720.175, 396.428
721.470, 640.279
722.765, 348.887
724.060, 651.529
725.355, 536.465
726.649, 338.949
727.944, 602.297
729.238, 393.072
730.532, 606.789
731.825, 570.754
733.119, 651.242
734.412, 1044.424
735.705, 1170.914
736.998, 1481.656
738.291, 1715.281
739.584, 2069.500
740.876, 2292.785
742.168, 1856.641
743.460, 2140.842
744.752, 1464.379
746.043, 1256.566
747.334, 1569.539
748.626, 1151.971
749.916, 1623.668
751.207, 1265.719
752.498, 1227.605
753.788, 1099.740
755.078, 609.205
756.368, 790.918
757.658, 512.855
758.947, 414.688
760.237, 636.539
761.526, 308.375
762.815, 650.992
764.104, 332.904
765.392, 314.229
766.680, 473.223
767.969, 214.205
769.257, 386.260
770.544, 257.510
771.832, 25.346
773.119, 355.492
774.406, 266.092
775.693, 356.629
776.980, 336.916
778.267, 177.479
779.553, 348.553
780.839, 189.514
782.125, 200.824
783.411, 251.949
784.697, 72.541
785.982, 373.902
787.267, 24.279
788.552, 235.535
789.837, 145.723
791.122, 73.143
792.406, 347.826
793.690, 8.809
794.974, 139.730
796.258, 320.436
797.542, 128.748
798.825, 291.932
800.108, 252.574
801.391, 63.160
802.674, 373.676
803.957, 55.846
805.239, 344.529
806.522, 104.852
807.804, 85.199
809.085, 285.684
810.367, 54.178
811.649, 226.752
812.930, 66.725
814.211, 166.674
815.492, 298.160
816.772, 38.049
818.053, 488.324
819.333, 130.154
820.613, 50.236
821.893, 240.086
823.173, 19.453
824.452, 189.904
825.732, 253.322
827.011, 116.910
828.290, 463.137
829.568, 33.736
830.847, 192.730
832.125, 112.330
833.403, 92.527
834.681, 341.361
835.959, 92.393
837.236, 151.102
838.514, 66.992
839.791, 153.137
841.068, 435.613
842.345, 119.488
843.621, 88.102
844.898, 267.523
846.174, 33.332
847.450, 235.111
848.726, 184.787
850.001, 33.139
851.277, 351.172
852.552, 69.980
853.827, 277.785
855.102, 416.531
856.376, 35.748
857.651, 471.877
858.925, 169.910
860.199, 247.420
861.473, 524.873
862.746, 32.275
864.020, 529.613
865.293, 126.924
866.566, 154.170
867.839, 471.385
869.112, 248.551
870.384, 475.656
871.656, 172.732
872.928, 329.580
874.200, 336.469
875.472, 166.631
876.744, 619.852
878.015, 86.574
879.286, 153.234
880.557, 509.506
881.828, 216.057
883.098, 282.459
884.369, 218.906
885.639, 355.291
886.909, 541.631
888.178, 37.920
889.448, 554.139
890.717, 410.305
891.987, 56.414
893.256, 452.455
894.524, 48.436
895.793, 184.346
897.061, 380.189
898.330, 335.977
899.598, 521.707
900.865, 287.381
902.133, 493.000
903.401, 598.562
904.668, 404.068
905.935, 589.516
907.202, 544.910
908.468, 560.258
909.735, 785.547
911.001, 420.781
912.267, 525.898
913.533, 611.020
914.799, 415.572
916.064, 460.574
917.330, 465.096
918.595, 539.480
919.860, 684.303
921.124, 378.170
922.389, 962.709
923.653, 706.666
924.918, 1067.709
926.182, 1532.018
927.445, 1425.914
928.709, 1990.148
929.972, 2594.256
931.236, 2377.656
932.499, 3051.727
933.761, 2315.090
935.024, 1978.455
936.286, 1771.988
937.549, 1114.729
938.811, 1448.680
940.073, 880.949
941.334, 1204.404
942.596, 1247.268
943.857, 764.547
945.118, 1468.154
946.379, 1170.031
947.640, 1383.729
948.900, 1339.967
950.161, 1103.395
951.421, 1152.156
952.681, 965.035
953.940, 616.965
955.200, 914.145
956.459, 491.812
957.719, 525.889
958.978, 458.543
960.236, 410.268
961.495, 823.881
962.753, 261.336
964.012, 614.152
965.270, 466.793
966.527, 98.609
967.785, 451.797
969.043, 343.652
970.300, 36.527
971.557, 728.873
972.814, 276.154
974.071, 227.992
975.327, 597.529
976.583, 180.836
977.840, 342.213
979.095, 235.021
980.351, 97.465
981.607, 483.391
982.862, 304.611
984.117, 146.156
985.372, 475.768
986.627, 27.482
987.882, 528.857
989.136, 69.682
990.390, 160.885
991.644, 381.496
992.898, 46.658
994.152, 384.227
995.405, 175.912
996.659, 226.904
997.912, 381.895
999.165, 92.676
1000.417, 373.361
1001.670, 435.748
1002.922, 236.900
1004.174, 758.744
1005.426, 229.564
1006.678, 610.877
1007.930, 487.906
1009.181, 349.371
1010.432, 789.502
1011.683, 559.902
1012.934, 591.176
1014.185, 840.969
1015.435, 642.295
1016.685, 1251.938
1017.935, 987.547
1019.185, 1588.531
1020.435, 1718.725
1021.684, 1740.598
1022.934, 2140.205
1024.183, 2671.162
1025.432, 2731.377
1026.680, 4318.568
1027.929, 4750.355
1029.177, 6439.414
1030.425, 6888.443
1031.673, 5769.000
1032.921, 5608.156
1034.169, 3897.773
1035.416, 2536.691
1036.663, 2376.072
1037.911, 1477.143
1039.157, 1614.723
1040.404, 1224.420
1041.650, 854.045
1042.897, 1391.562
1044.143, 690.742
1045.389, 947.891
1046.634, 985.760
1047.880, 845.225
1049.125, 1023.488
1050.371, 1033.020
1051.615, 901.537
1052.860, 1600.137
1054.105, 1168.594
1055.349, 1626.592
1056.593, 2164.830
1057.837, 2442.969
1059.081, 3510.953
1060.325, 4258.789
1061.568, 4718.055
1062.812, 4295.607
1064.055, 3413.660
1065.298, 3380.656
1066.540, 2947.348
1067.783, 2384.938
1069.025, 3209.211
1070.267, 2820.031
1071.509, 3081.275
1072.751, 3062.496
1073.993, 1693.668
1075.234, 1914.787
1076.475, 1525.859
1077.716, 986.889
1078.957, 1187.877
1080.198, 628.826
1081.438, 859.768
1082.679, 1010.693
1083.919, 561.562
1085.159, 932.438
1086.398, 503.248
1087.638, 594.006
1088.877, 654.635
1090.116, 384.990
1091.355, 454.633
1092.594, 593.293
1093.833, 433.107
1095.071, 591.031
1096.309, 169.320
1097.547, 7.656
1098.785, 730.826
1100.023, 50.840
1101.260, 396.836
1102.498, 444.002
1103.735, 25.436
1104.972, 642.371
1106.208, 124.539
1107.445, 211.453
1108.681, 448.488
1109.918, 137.477
1111.154, 575.754
1112.389, 243.916
1113.625, 112.791
1114.860, 682.289
1116.096, 191.754
1117.331, 201.191
1118.566, 660.531
1119.800, 189.832
1121.035, 589.094
1122.269, 518.414
1123.503, 297.781
1124.737, 377.139
1125.971, 96.486
1127.205, 315.832
1128.438, 505.162
1129.671, 45.510
1130.904, 613.838
1132.137, 233.229
1133.370, 97.371
1134.602, 812.037
1135.834, 221.465
1137.066, 250.926
1138.298, 330.422
1139.530, 149.953
1140.762, 709.520
1141.993, 299.156
1143.224, 98.891
1144.455, 538.629
1145.686, 81.688
1146.917, 607.938
1148.147, 367.506
1149.377, 7.016
1150.607, 966.469
1151.837, 45.859
1153.067, 395.189
1154.296, 844.068
1155.526, 233.342
1156.755, 589.990
1157.984, 472.096
1159.213, 386.705
1160.441, 775.521
1161.670, 211.717
1162.898, 358.924
1164.126, 915.199
1165.354, 40.896
1166.581, 685.717
1167.809, 352.291
1169.036, 168.566
1170.263, 866.102
1171.490, 220.031
1172.717, 397.479
1173.943, 1006.758
1175.170, 100.420
1176.396, 284.389
1177.622, 677.320
1178.848, 319.301
1180.073, 747.387
1181.299, 248.029
1182.524, 360.889
1183.749, 941.250
1184.974, 73.490
1186.199, 620.938
1187.423, 681.322
1188.648, 241.746
1189.872, 746.992
1191.096, 341.967
1192.320, 557.762
1193.543, 527.344
1194.767, 76.387
1195.990, 731.738
1197.213, 92.738
1198.436, 103.471
1199.659, 733.312
1200.881, 314.250
1202.104, 275.141
1203.326, 930.703
1204.548, 261.393
1205.770, 949.346
1206.991, 507.188
1208.213, 7.881
1209.434, 737.184
1210.655, 90.439
1211.876, 404.232
1213.096, 361.150
1214.317, 0.107
1215.537, 0.000
##END=



