##NAMES=Tremolite
##RRUFFID=R040045
##IDEAL CHEMISTRY=[box]Ca_2_Mg_5_Si_8_O_22_(OH)_2_
##LOCALITY=Gouverneur, New York, USA
##OWNER=RRUFF
##SOURCE=University of Arizona Mineral Museum
##DESCRIPTION=Group of colorless acicular single crystals
##STATUS=The identification of this mineral has been confirmed by X-ray diffraction and chemical analysis
##URL=rruff.info/R040045
##MEASURED CHEMISTRY=Ca_2.01_(Mg_0.99_Fe_0.01_)_5_(Si_0.99_Fe_0.01_)_8_O_22_(OH)_2_
##PIN_ID=S00030
##ORIENTATION=Laser parallel to c [0 0 1]. Fiducial mark perpendicular to laser is parallel to -b* (0 -1 0)
120.508, 0.000
121.897, 226.830
123.286, 1.881
124.675, 174.129
126.063, 22.095
127.452, 6.819
128.840, 87.479
130.228, 15.532
131.615, 183.734
133.003, 84.953
134.390, 57.862
135.777, 142.251
137.164, 257.944
138.550, 304.796
139.937, 252.687
141.323, 421.513
142.709, 451.187
144.094, 281.630
145.480, 342.777
146.865, 354.566
148.250, 346.950
149.635, 239.880
151.019, 493.315
152.403, 517.225
153.788, 921.571
155.171, 1336.326
156.555, 1991.465
157.939, 2546.965
159.322, 2752.809
160.705, 2688.979
162.088, 2625.457
163.470, 1962.221
164.853, 1339.250
166.235, 1116.528
167.617, 1024.041
168.998, 1041.777
170.380, 1378.292
171.761, 1797.897
173.142, 2526.259
174.523, 3484.808
175.904, 4523.535
177.284, 4622.434
178.664, 4511.498
180.044, 4170.717
181.424, 3230.088
182.803, 2109.602
184.183, 1549.253
185.562, 939.040
186.940, 698.954
188.319, 638.992
189.698, 499.150
191.076, 259.428
192.454, 419.823
193.831, 240.330
195.209, 260.953
196.586, 181.689
197.963, 262.537
199.340, 363.604
200.717, 324.670
202.093, 285.842
203.470, 317.092
204.846, 428.372
206.221, 399.700
207.597, 541.059
208.972, 742.522
210.347, 1014.006
211.722, 1225.524
213.097, 1387.102
214.472, 1878.774
215.846, 2550.484
217.220, 3372.321
218.594, 4554.328
219.967, 6026.377
221.341, 6558.462
222.714, 6880.589
224.087, 6602.755
225.460, 5784.963
226.832, 4547.214
228.204, 3759.517
229.577, 3091.871
230.948, 2624.268
232.320, 2396.706
233.692, 1949.188
235.063, 1551.710
236.434, 1284.271
237.805, 986.876
239.175, 639.520
240.545, 472.202
241.916, 514.923
243.286, 387.682
244.655, 680.479
246.025, 593.313
247.394, 806.185
248.763, 849.092
250.132, 1052.035
251.501, 825.015
252.869, 728.029
254.237, 611.078
255.605, 574.169
256.973, 487.298
258.340, 580.516
259.708, 603.768
261.075, 677.068
262.442, 680.416
263.808, 753.823
265.175, 637.282
266.541, 640.770
267.907, 374.401
269.273, 388.146
270.639, 11.926
272.004, 45.740
273.369, 179.577
274.734, 53.527
276.099, 107.508
277.463, 8.437
278.828, 55.683
280.192, 39.819
281.556, 63.979
282.919, 108.157
284.283, 172.350
285.646, 209.743
287.009, 265.442
288.372, 320.765
289.734, 302.268
291.097, 365.955
292.459, 247.433
293.821, 280.505
295.183, 277.423
296.544, 299.628
297.905, 441.968
299.266, 614.414
300.627, 546.956
301.988, 680.302
303.348, 653.023
304.709, 518.437
306.069, 393.708
307.428, 326.681
308.788, 299.722
310.147, 282.827
311.507, 216.187
312.865, 160.948
314.224, 236.914
315.583, 70.738
316.941, 144.123
318.299, 147.556
319.657, 41.034
321.015, 224.557
322.372, 78.122
323.729, 161.728
325.086, 115.371
326.443, 39.053
327.800, 272.771
329.156, 336.523
330.512, 470.441
331.868, 354.300
333.224, 508.149
334.579, 663.380
335.935, 377.289
337.290, 571.227
338.645, 455.189
339.999, 429.182
341.354, 343.357
342.708, 727.398
344.062, 851.525
345.416, 895.613
346.769, 1019.724
348.123, 1253.855
349.476, 1398.009
350.829, 1472.183
352.182, 1356.375
353.534, 1400.588
354.887, 1274.818
356.239, 999.066
357.591, 823.332
358.942, 717.615
360.294, 704.975
361.645, 744.459
362.996, 930.557
364.347, 1074.900
365.698, 1389.258
367.048, 1783.625
368.398, 1798.012
369.748, 2132.406
371.098, 2046.816
372.448, 2051.238
373.797, 1895.674
375.146, 1900.119
376.495, 1624.574
377.844, 1459.045
379.192, 1183.523
380.540, 948.012
381.889, 782.510
383.236, 597.018
384.584, 481.533
385.932, 596.525
387.279, 761.629
388.626, 916.170
389.973, 1340.963
391.319, 1625.631
392.666, 1955.723
394.012, 2020.520
395.358, 1775.279
396.704, 1409.861
398.049, 1116.125
399.394, 650.715
400.740, 395.979
402.084, 462.914
403.429, 287.523
404.774, 305.965
406.118, 381.105
407.462, 275.781
408.806, 270.918
410.150, 405.551
411.493, 662.506
412.836, 787.262
414.179, 851.396
415.522, 766.316
416.865, 750.980
418.207, 738.312
419.549, 422.959
420.891, 408.158
422.233, 112.977
423.575, 187.791
424.916, 21.910
426.257, 178.021
427.598, 33.197
428.939, 208.494
430.279, 325.240
431.619, 188.062
432.959, 243.836
434.299, 309.299
435.639, 463.906
436.978, 388.824
438.318, 344.406
439.657, 369.588
440.996, 304.355
442.334, 19.238
443.673, 64.402
445.011, 49.141
446.349, 217.377
447.687, 92.027
449.024, 103.031
450.361, 161.967
451.699, 53.328
453.036, 11.947
454.372, 32.500
455.709, 107.314
457.045, 47.617
458.381, 156.863
459.717, 32.131
461.053, 36.615
462.388, 18.582
463.724, 26.418
465.059, 54.393
466.394, 49.672
467.728, 15.566
469.063, 20.422
470.397, 204.846
471.731, 0.645
473.065, 195.846
474.398, 51.357
475.732, 6.857
477.065, 47.422
478.398, 31.746
479.731, 66.012
481.063, 60.268
482.396, 54.521
483.728, 58.480
485.060, 243.031
486.391, 97.273
487.723, 51.521
489.054, 185.762
490.385, 19.996
491.716, 44.217
493.047, 208.424
494.377, 17.373
495.708, 146.805
497.038, 250.973
498.368, 75.129
499.697, 99.277
501.027, 33.416
502.356, 157.535
503.685, 61.678
505.014, 215.803
506.342, 229.912
507.671, 304.008
508.999, 368.113
510.327, 352.207
511.655, 426.285
512.982, 470.354
514.310, 394.406
515.637, 628.447
516.964, 532.477
518.291, 406.490
519.617, 530.486
520.944, 744.473
522.270, 558.439
523.596, 632.414
524.921, 996.375
526.247, 900.322
527.572, 1134.271
528.897, 1288.207
530.222, 1102.121
531.547, 986.025
532.871, 1049.910
534.196, 513.779
535.520, 667.629
536.844, 421.461
538.167, 475.271
539.491, 219.064
540.814, 212.861
542.137, 176.641
543.460, 240.402
544.783, 44.143
546.105, 27.857
547.427, 241.547
548.749, 105.217
550.071, 138.863
551.393, 57.512
552.714, 116.049
554.035, 129.588
555.356, 203.102
556.677, 6.658
557.998, 260.113
559.318, 33.541
560.638, 2.086
561.958, 301.270
563.278, 24.660
564.597, 68.613
565.917, 182.203
567.236, 75.525
568.555, 239.248
569.874, 157.002
571.192, 176.035
572.511, 110.941
573.829, 142.512
575.147, 205.406
576.464, 0.961
577.782, 271.854
579.099, 84.639
580.416, 177.740
581.733, 180.465
583.050, 106.840
584.366, 25.742
585.683, 98.283
586.999, 70.791
588.315, 13.268
589.630, 84.305
590.946, 38.027
592.261, 50.316
593.576, 252.566
594.891, 164.785
596.206, 46.971
597.520, 89.115
598.834, 201.229
600.148, 173.303
601.462, 105.342
602.776, 207.877
604.089, 8.391
605.402, 234.289
606.715, 166.152
608.028, 143.418
609.341, 216.613
610.653, 76.404
611.965, 49.074
613.277, 101.264
614.589, 148.031
615.901, 30.387
617.212, 72.834
618.523, 304.912
619.834, 187.180
621.145, 138.551
622.456, 28.525
623.766, 201.186
625.076, 71.100
626.386, 163.363
627.696, 315.924
629.006, 247.033
630.315, 178.549
631.624, 220.229
632.933, 209.262
634.242, 273.061
635.551, 254.574
636.859, 312.814
638.167, 487.512
639.475, 489.777
640.783, 424.770
642.090, 655.994
643.398, 757.283
644.705, 762.494
646.012, 914.002
647.318, 1136.133
648.625, 1046.889
649.931, 1108.307
651.237, 1579.830
652.543, 1299.693
653.849, 1671.830
655.155, 1622.510
656.460, 1714.584
657.765, 1875.732
659.070, 1925.992
660.375, 2044.574
661.679, 2495.242
662.984, 2865.330
664.288, 3586.113
665.592, 4492.369
666.895, 6003.539
668.199, 8034.441
669.502, 10345.473
670.805, 12927.014
672.108, 15257.637
673.411, 16899.348
674.713, 15449.727
676.016, 13590.352
677.318, 11301.914
678.620, 8751.859
679.921, 6707.674
681.223, 5278.461
682.524, 4180.082
683.825, 3604.402
685.126, 3205.352
686.427, 3035.342
687.727, 3016.486
689.028, 3187.389
690.328, 2917.324
691.628, 3047.246
692.927, 2387.568
694.227, 1997.285
695.526, 1777.615
696.825, 1552.953
698.124, 1013.078
699.423, 1013.580
700.721, 842.754
702.020, 922.277
703.318, 711.221
704.616, 461.221
705.913, 540.205
707.211, 530.266
708.508, 675.316
709.805, 585.465
711.102, 604.025
712.399, 353.504
713.695, 511.590
714.992, 630.033
716.288, 138.420
717.584, 545.080
718.879, 194.840
720.175, 439.426
721.470, 287.932
722.765, 346.006
724.060, 244.490
725.355, 234.762
726.649, 400.564
727.944, 392.318
729.238, 231.164
730.532, 531.113
731.825, 178.824
733.119, 544.559
734.412, 362.797
735.705, 280.426
736.998, 388.379
738.291, 556.195
739.584, 424.521
740.876, 470.867
742.168, 598.779
743.460, 396.178
744.752, 481.900
746.043, 522.482
747.334, 498.475
748.626, 424.844
749.916, 372.764
751.207, 396.209
752.498, 475.545
753.788, 452.781
755.078, 369.381
756.368, 395.889
757.658, 231.969
758.947, 28.412
760.237, 171.287
761.526, 397.701
762.815, 333.770
764.104, 59.721
765.392, 335.906
766.680, 131.467
767.969, 36.695
769.257, 292.227
770.544, 407.934
771.832, 29.273
773.119, 214.529
774.406, 160.514
775.693, 196.119
776.980, 41.461
778.267, 112.553
779.553, 108.037
780.839, 102.926
782.125, 58.135
783.411, 383.707
784.697, 209.133
785.982, 4.209
787.267, 189.471
788.552, 15.359
789.837, 219.953
791.122, 315.158
792.406, 120.355
793.690, 55.490
794.974, 29.441
796.258, 245.537
797.542, 220.457
798.825, 34.684
800.108, 150.082
801.391, 44.787
802.674, 279.426
803.957, 134.123
805.239, 108.645
806.522, 173.738
807.804, 28.145
809.085, 282.555
810.367, 26.875
811.649, 151.891
812.930, 316.900
814.211, 94.811
815.492, 230.125
816.772, 374.551
818.053, 220.369
819.333, 55.010
820.613, 109.229
821.893, 164.129
823.173, 135.141
824.452, 59.439
825.732, 214.406
827.011, 38.475
828.290, 252.109
829.568, 189.732
830.847, 42.908
832.125, 363.494
833.403, 43.152
834.681, 140.584
835.959, 44.830
837.236, 21.584
838.514, 105.230
839.791, 302.287
841.068, 75.363
842.345, 99.176
843.621, 282.105
844.898, 275.693
846.174, 168.320
847.450, 301.848
848.726, 144.719
850.001, 43.141
851.277, 168.895
852.552, 101.162
853.827, 373.885
855.102, 166.105
856.376, 268.781
857.651, 140.508
858.925, 312.596
860.199, 104.221
861.473, 56.430
862.746, 67.922
864.020, 379.344
865.293, 190.711
866.566, 121.955
867.839, 483.203
869.112, 254.404
870.384, 254.574
871.656, 95.670
872.928, 365.953
874.200, 206.943
875.472, 407.535
876.744, 188.309
878.015, 28.590
879.286, 368.756
880.557, 10.498
881.828, 290.186
883.098, 20.314
884.369, 420.924
885.639, 230.709
886.909, 261.217
888.178, 261.672
889.448, 261.734
890.717, 282.090
891.987, 312.395
893.256, 297.496
894.524, 132.953
895.793, 213.162
897.061, 253.322
898.330, 73.445
899.598, 393.551
900.865, 363.613
902.133, 183.635
903.401, 483.604
904.668, 343.527
905.935, 153.412
907.202, 423.248
908.468, 383.039
909.735, 552.785
911.001, 545.584
912.267, 529.844
913.533, 498.693
914.799, 428.277
916.064, 427.709
917.330, 415.793
918.595, 475.137
919.860, 693.547
921.124, 951.223
922.389, 600.131
923.653, 1099.279
924.918, 1196.633
926.182, 1605.031
927.445, 1893.127
928.709, 2108.418
929.972, 2518.352
931.236, 2516.000
932.499, 2383.520
933.761, 2360.959
935.024, 1458.004
936.286, 1276.406
937.549, 1024.115
938.811, 1070.229
940.073, 863.285
941.334, 872.598
942.596, 670.135
943.857, 848.021
945.118, 855.039
946.379, 1321.568
947.640, 955.279
948.900, 1172.678
950.161, 699.922
951.421, 643.162
952.681, 590.016
953.940, 496.184
955.200, 343.818
956.459, 480.463
957.719, 216.953
958.978, 384.146
960.236, 349.852
961.495, 356.924
962.753, 172.514
964.012, 158.939
965.270, 23.486
966.527, 125.561
967.785, 232.135
969.043, 150.623
970.300, 155.713
971.557, 216.736
972.814, 72.609
974.071, 81.445
975.327, 154.275
976.583, 39.400
977.840, 175.523
979.095, 260.312
980.351, 33.652
981.607, 372.057
982.862, 242.756
984.117, 263.469
985.372, 146.480
986.627, 51.701
987.882, 146.305
989.136, 32.172
990.390, 37.365
991.644, 208.314
992.898, 52.756
994.152, 207.359
995.405, 62.834
996.659, 248.373
997.912, 53.299
999.165, 158.748
1000.417, 323.514
1001.670, 353.191
1002.922, 238.002
1004.174, 112.354
1005.426, 217.859
1006.678, 92.459
1007.930, 387.453
1009.181, 202.238
1010.432, 297.352
1011.683, 141.793
1012.934, 315.395
1014.185, 559.117
1015.435, 784.406
1016.685, 860.469
1017.935, 1232.941
1019.185, 1069.816
1020.435, 1134.457
1021.684, 1379.426
1022.934, 1141.371
1024.183, 1337.684
1025.432, 1534.031
1026.680, 1398.770
1027.929, 2111.305
1029.177, 1955.828
1030.425, 2051.387
1031.673, 1667.008
1032.921, 1632.863
1034.169, 1317.902
1035.416, 1093.020
1036.663, 717.789
1037.911, 1053.102
1039.157, 519.277
1040.404, 1064.473
1041.650, 770.691
1042.897, 1026.949
1044.143, 953.160
1045.389, 799.309
1046.634, 1205.410
1047.880, 1361.461
1049.125, 1407.465
1050.371, 1633.422
1051.615, 2029.340
1052.860, 2205.227
1054.105, 3381.078
1055.349, 4086.887
1056.593, 5902.668
1057.837, 6878.445
1059.081, 9194.184
1060.325, 10199.922
1061.568, 9495.637
1062.812, 8291.371
1064.055, 6366.918
1065.298, 4791.703
1066.540, 3887.246
1067.783, 3031.660
1069.025, 2589.918
1070.267, 2393.309
1071.509, 1699.824
1072.751, 1652.395
1073.993, 1385.090
1075.234, 1076.730
1076.475, 984.379
1077.716, 581.629
1078.957, 724.418
1080.198, 535.465
1081.438, 325.953
1082.679, 527.273
1083.919, 318.668
1085.159, 390.137
1086.398, 643.066
1087.638, 496.656
1088.877, 568.598
1090.116, 580.996
1091.355, 464.137
1092.594, 521.957
1093.833, 430.727
1095.071, 394.621
1096.309, 374.551
1097.547, 272.254
1098.785, 316.008
1100.023, 319.730
1101.260, 343.438
1102.498, 157.070
1103.735, 80.641
1104.972, 394.152
1106.208, 577.578
1107.445, 40.898
1108.681, 294.109
1109.918, 197.191
1111.154, 200.152
1112.389, 542.980
1113.625, 25.680
1114.860, 88.234
1116.096, 180.641
1117.331, 112.895
1118.566, 404.988
1119.800, 76.930
1121.035, 108.918
1122.269, 391.273
1123.503, 163.879
1124.737, 316.980
1125.971, 90.469
1127.205, 274.395
1128.438, 168.461
1129.671, 322.598
1130.904, 6.828
1132.137, 221.137
1133.370, 54.516
1134.602, 229.859
1135.834, 54.258
1137.066, 338.609
1138.298, 271.594
1139.530, 323.840
1140.762, 388.340
1141.993, 192.953
1143.224, 433.754
1144.455, 97.871
1145.686, 199.516
1146.917, 375.910
1148.147, 221.312
1149.377, 365.770
1150.607, 361.426
1151.837, 453.328
1153.067, 236.414
1154.296, 207.875
1155.526, 391.883
1156.755, 45.812
1157.984, 468.453
1159.213, 52.293
1160.441, 465.723
1161.670, 148.688
1162.898, 154.824
1164.126, 263.977
1165.354, 351.043
1166.581, 4.273
1167.809, 400.180
1169.036, 4.500
1170.263, 0.000
##END=



