##NAMES=Tremolite
##RRUFFID=R040045
##IDEAL CHEMISTRY=[box]Ca_2_Mg_5_Si_8_O_22_(OH)_2_
##LOCALITY=Gouverneur, New York, USA
##OWNER=RRUFF
##SOURCE=University of Arizona Mineral Museum
##DESCRIPTION=Group of colorless acicular single crystals
##STATUS=The identification of this mineral has been confirmed by X-ray diffraction and chemical analysis
##URL=rruff.info/R040045
##MEASURED CHEMISTRY=Ca_2.01_(Mg_0.99_Fe_0.01_)_5_(Si_0.99_Fe_0.01_)_8_O_22_(OH)_2_
##PIN_ID=M00236
##ORIENTATION=Laser parallel to a [1 0 0]. Fiducial mark perpendicular to laser is parallel to -b* (0 -1 0)
131.615, 0.000
133.003, 16.177
134.390, 53.237
135.777, 418.010
137.164, 881.464
138.550, 1533.607
139.937, 2276.110
141.323, 2801.815
142.709, 3118.662
144.094, 2728.130
145.480, 2360.170
146.865, 1691.532
148.250, 1211.571
149.635, 739.082
151.019, 370.227
152.403, 158.307
153.788, 13.812
155.171, 32.780
156.555, 178.899
157.939, 449.145
159.322, 618.187
160.705, 636.822
162.088, 575.168
163.470, 311.930
164.853, 5.657
166.235, 12.392
167.617, 87.898
168.998, 313.138
170.380, 293.354
171.761, 610.539
173.142, 857.856
174.523, 1745.303
175.904, 3122.885
177.284, 4740.602
178.664, 5408.451
180.044, 4516.430
181.424, 3224.523
182.803, 1732.730
184.183, 1031.039
185.562, 609.445
186.940, 347.941
188.319, 296.523
189.698, 165.185
191.076, 133.916
192.454, 322.699
193.831, 231.529
195.209, 160.408
196.586, 159.336
197.963, 38.321
199.340, 117.365
200.717, 62.791
202.093, 84.767
203.470, 145.094
204.846, 129.639
206.221, 56.820
207.597, 52.410
208.972, 191.697
210.347, 421.039
211.722, 400.438
213.097, 569.904
214.472, 919.491
215.846, 999.169
217.220, 1358.943
218.594, 1768.856
219.967, 2608.908
221.341, 3629.035
222.714, 4309.236
224.087, 4149.495
225.460, 3449.807
226.832, 2430.131
228.204, 2150.579
229.577, 2110.976
230.948, 2421.397
232.320, 2711.820
233.692, 2542.246
235.063, 2132.676
236.434, 1633.115
237.805, 1213.562
239.175, 744.018
240.545, 574.482
241.916, 434.956
243.286, 245.438
244.655, 315.925
246.025, 506.423
247.394, 766.920
248.763, 1057.375
250.132, 1407.632
251.501, 1327.667
252.869, 1127.683
254.237, 837.741
255.605, 587.854
256.973, 528.002
258.340, 338.178
259.708, 278.410
261.075, 168.854
262.442, 239.319
263.808, 399.913
265.175, 260.523
266.541, 291.224
267.907, 32.038
269.273, 202.897
270.639, 46.229
272.004, 14.664
273.369, 75.610
274.734, 66.565
276.099, 127.528
277.463, 116.539
278.828, 159.476
280.192, 110.458
281.556, 101.442
282.919, 122.431
284.283, 293.391
285.646, 294.356
287.009, 495.332
288.372, 886.316
289.734, 1177.484
291.097, 1108.693
292.459, 700.429
293.821, 541.431
295.183, 326.037
296.544, 238.312
297.905, 300.929
299.266, 413.803
300.627, 446.602
301.988, 619.645
303.348, 662.406
304.709, 560.864
306.069, 263.885
307.428, 426.922
308.788, 339.662
310.147, 282.053
311.507, 274.832
312.865, 251.111
314.224, 289.725
315.583, 272.135
316.941, 214.129
318.299, 226.016
319.657, 156.285
321.015, 298.127
322.372, 139.932
323.729, 101.703
325.086, 133.445
326.443, 345.158
327.800, 396.844
329.156, 677.523
330.512, 1138.248
331.868, 1418.725
333.224, 1729.486
334.579, 1510.250
335.935, 811.033
337.290, 901.832
338.645, 752.648
339.999, 953.480
341.354, 884.479
342.708, 1015.363
344.062, 1086.238
345.416, 837.127
346.769, 808.029
348.123, 668.943
349.476, 699.869
350.829, 740.809
352.182, 781.758
353.534, 892.607
354.887, 753.350
356.239, 744.330
357.591, 525.320
358.942, 466.236
360.294, 637.168
361.645, 666.885
362.996, 917.680
364.347, 1221.865
365.698, 1794.521
367.048, 3043.482
368.398, 4083.500
369.748, 4628.314
371.098, 4238.617
372.448, 3070.213
373.797, 2161.266
375.146, 1675.150
376.495, 1276.215
377.844, 980.041
379.192, 921.115
380.540, 882.209
381.889, 923.854
383.236, 965.041
384.584, 1076.191
385.932, 1464.230
387.279, 1899.773
388.626, 2550.875
389.973, 3692.498
391.319, 5353.832
392.666, 7705.514
394.012, 9037.105
395.358, 8408.822
396.704, 6809.998
398.049, 4748.465
399.394, 3149.580
400.740, 2358.012
402.084, 1835.162
403.429, 1366.727
404.774, 1198.459
406.118, 1210.152
407.462, 1161.594
408.806, 1173.832
410.150, 1264.984
411.493, 1720.826
412.836, 2271.945
414.179, 2783.564
415.522, 3065.148
416.865, 3266.400
418.207, 2567.902
419.549, 2159.029
420.891, 1530.791
422.233, 1151.918
423.575, 823.305
424.916, 644.430
426.257, 444.412
427.598, 336.732
428.939, 268.125
430.279, 269.041
431.619, 290.518
432.959, 128.482
434.299, 399.609
435.639, 551.016
436.978, 482.047
438.318, 353.562
439.657, 445.330
440.996, 237.156
442.334, 258.420
443.673, 150.104
445.011, 81.660
446.349, 73.008
447.687, 294.439
449.024, 4.424
450.361, 256.629
451.699, 177.764
453.036, 239.480
454.372, 48.887
455.709, 22.312
457.045, 133.305
458.381, 124.521
459.717, 96.154
461.053, 217.113
462.388, 68.143
463.724, 209.082
465.059, 89.613
466.394, 41.639
467.728, 22.490
469.063, 53.328
470.397, 174.150
471.731, 24.965
473.065, 45.762
474.398, 96.551
475.732, 47.328
477.065, 308.098
478.398, 138.859
479.731, 59.611
481.063, 380.361
482.396, 281.100
483.728, 221.834
485.060, 632.510
486.391, 573.227
487.723, 263.979
489.054, 544.719
490.385, 335.467
491.716, 256.219
493.047, 386.967
494.377, 177.711
495.708, 138.467
497.038, 269.219
498.368, 159.965
499.697, 190.717
501.027, 101.465
502.356, 132.205
503.685, 151.492
505.014, 213.734
506.342, 244.490
507.671, 345.236
508.999, 435.980
510.327, 470.680
511.655, 523.004
512.982, 548.180
514.310, 508.900
515.637, 509.617
516.964, 370.326
518.291, 341.031
519.617, 341.727
520.944, 532.424
522.270, 447.766
523.596, 213.805
524.921, 384.516
526.247, 285.285
527.572, 176.102
528.897, 116.963
530.222, 207.840
531.547, 18.711
532.871, 329.570
534.196, 39.580
535.520, 221.236
536.844, 37.953
538.167, 312.824
539.491, 153.602
540.814, 24.379
542.137, 135.139
543.460, 145.893
544.783, 103.361
546.105, 222.676
547.427, 337.912
548.749, 38.490
550.071, 109.057
551.393, 160.389
552.714, 50.088
554.035, 20.555
555.356, 151.006
556.677, 108.553
557.998, 231.816
559.318, 107.826
560.638, 87.338
561.958, 62.883
563.278, 23.094
564.597, 33.287
565.917, 93.467
567.236, 6.371
568.555, 163.773
569.874, 66.090
571.192, 203.996
572.511, 54.074
573.829, 64.139
575.147, 144.207
576.464, 84.434
577.782, 304.475
579.099, 24.502
580.416, 284.637
581.733, 114.639
583.050, 234.625
584.366, 164.598
585.683, 254.559
586.999, 114.521
588.315, 154.471
589.630, 94.408
590.946, 114.326
592.261, 84.250
593.576, 81.984
594.891, 164.059
596.206, 83.955
597.520, 23.830
598.834, 10.434
600.148, 143.531
601.462, 43.354
602.776, 73.154
604.089, 122.770
605.402, 102.328
606.715, 172.068
608.028, 291.076
609.341, 170.783
610.653, 30.623
611.965, 50.293
613.277, 146.871
614.589, 246.076
615.901, 135.689
617.212, 35.768
618.523, 345.221
619.834, 175.715
621.145, 305.592
622.456, 105.289
623.766, 99.166
625.076, 328.629
626.386, 218.473
627.696, 468.316
629.006, 557.746
630.315, 516.756
631.624, 566.934
632.933, 586.172
634.242, 766.223
635.551, 686.127
636.859, 725.447
638.167, 994.805
639.475, 894.125
640.783, 834.691
642.090, 983.938
643.398, 1044.055
644.705, 902.480
646.012, 1101.883
647.318, 1174.521
648.625, 1194.594
649.931, 1124.785
651.237, 1524.355
652.543, 1327.277
653.849, 1817.014
655.155, 1776.582
656.460, 1917.688
657.765, 2067.506
659.070, 2446.424
660.375, 2713.572
661.679, 3522.914
662.984, 4121.889
664.288, 5120.867
665.592, 6590.562
666.895, 8740.213
668.199, 11689.527
669.502, 15678.883
670.805, 21488.363
672.108, 26547.717
673.411, 31477.279
674.713, 29756.256
676.016, 25955.416
677.318, 20525.865
678.620, 15704.676
679.921, 11694.117
681.223, 8712.879
682.524, 6609.428
683.825, 5089.422
685.126, 4158.984
686.427, 3347.822
687.727, 2856.541
689.028, 2535.080
690.328, 1953.885
691.628, 1829.625
692.927, 1529.514
694.227, 1385.600
695.526, 1366.895
696.825, 1236.969
698.124, 885.207
699.423, 1083.947
700.721, 723.492
702.020, 1037.561
703.318, 880.100
704.616, 708.973
705.913, 636.754
707.211, 325.355
708.508, 898.742
709.805, 657.951
711.102, 895.539
712.399, 434.428
713.695, 616.029
714.992, 754.393
716.288, 195.777
717.584, 717.797
718.879, 487.492
720.175, 374.877
721.470, 262.584
722.765, 600.207
724.060, 378.412
725.355, 317.479
726.649, 571.205
727.944, 451.053
729.238, 378.795
730.532, 451.236
731.825, 208.857
733.119, 717.098
734.412, 455.010
735.705, 222.910
736.998, 671.703
738.291, 869.057
739.584, 776.805
740.876, 994.951
742.168, 1006.531
743.460, 854.256
744.752, 1182.273
746.043, 919.660
747.334, 1137.172
748.626, 1434.430
749.916, 1435.625
751.207, 1904.158
752.498, 1581.283
753.788, 1308.783
755.078, 1025.471
756.368, 849.309
757.658, 652.379
758.947, 575.705
760.237, 392.535
761.526, 315.477
762.815, 276.219
764.104, 333.236
765.392, 240.467
766.680, 366.746
767.969, 253.072
769.257, 379.791
770.544, 306.668
771.832, 163.273
773.119, 389.422
774.406, 56.199
775.693, 142.855
776.980, 239.555
778.267, 255.840
779.553, 202.111
780.839, 88.734
782.125, 115.318
783.411, 381.867
784.697, 278.383
785.982, 34.867
787.267, 291.311
788.552, 47.721
789.837, 154.092
791.122, 360.424
792.406, 206.723
793.690, 282.986
794.974, 19.217
796.258, 415.402
797.542, 81.557
798.825, 122.332
800.108, 243.666
801.391, 30.371
802.674, 75.527
803.957, 51.885
805.239, 187.701
806.522, 35.439
807.804, 140.354
809.085, 176.945
810.367, 6.926
811.649, 109.572
812.930, 285.648
814.211, 100.609
815.492, 225.629
816.772, 481.201
818.053, 332.463
819.333, 138.086
820.613, 144.082
821.893, 219.955
823.173, 206.283
824.452, 171.867
825.732, 197.408
827.011, 143.371
828.290, 278.662
829.568, 239.562
830.847, 14.531
832.125, 379.166
833.403, 174.053
834.681, 338.904
835.959, 85.545
837.236, 59.490
838.514, 124.479
839.791, 259.430
841.068, 315.625
842.345, 218.832
843.621, 284.246
844.898, 369.248
846.174, 53.684
847.450, 260.447
848.726, 4.334
850.001, 29.957
851.277, 254.195
852.552, 239.473
853.827, 74.287
855.102, 1.352
856.376, 96.797
857.651, 207.232
858.925, 411.719
860.199, 205.676
861.473, 49.865
862.746, 44.041
864.020, 437.908
865.293, 151.742
866.566, 145.537
867.839, 279.318
869.112, 193.043
870.384, 356.559
871.656, 10.262
872.928, 343.928
874.200, 267.543
875.472, 501.123
876.744, 54.668
878.015, 78.158
879.286, 201.605
880.557, 15.031
881.828, 238.416
883.098, 38.229
884.369, 435.072
885.639, 128.168
886.909, 291.404
888.178, 134.604
889.448, 87.648
890.717, 340.777
891.987, 303.875
893.256, 186.938
894.524, 20.031
895.793, 222.947
897.061, 185.895
898.330, 268.805
899.598, 251.684
900.865, 274.527
902.133, 22.658
903.401, 73.225
904.668, 282.830
905.935, 125.514
907.202, 298.160
908.468, 450.766
909.735, 423.281
911.001, 435.760
912.267, 518.164
913.533, 590.525
914.799, 622.844
916.064, 365.121
917.330, 267.318
918.595, 709.258
919.860, 371.314
921.124, 873.227
922.389, 675.201
923.653, 1097.137
924.918, 1128.541
926.182, 1520.377
927.445, 1771.229
928.709, 2362.395
929.972, 2613.922
931.236, 2485.477
932.499, 2536.762
933.761, 2317.531
935.024, 1658.371
936.286, 1779.887
937.549, 1081.332
938.811, 1121.645
940.073, 1193.051
941.334, 743.389
942.596, 724.160
943.857, 665.463
945.118, 796.377
946.379, 837.572
947.640, 757.467
948.900, 848.623
950.161, 755.715
951.421, 420.723
952.681, 541.795
953.940, 449.334
955.200, 209.932
956.459, 509.801
957.719, 90.236
958.978, 309.762
960.236, 109.918
961.495, 210.188
962.753, 108.883
964.012, 198.799
965.270, 86.631
966.527, 125.828
967.785, 276.066
969.043, 52.908
970.300, 247.596
971.557, 147.818
972.814, 168.502
974.071, 78.520
975.327, 218.453
976.583, 218.207
977.840, 108.039
979.095, 257.609
980.351, 52.297
981.607, 397.496
982.862, 113.180
984.117, 527.559
985.372, 377.410
986.627, 137.234
987.882, 229.254
989.136, 227.656
990.390, 226.410
991.644, 285.664
992.898, 255.094
994.152, 93.953
995.405, 172.957
996.659, 333.281
997.912, 0.965
999.165, 99.570
1000.417, 315.977
1001.670, 332.734
1002.922, 69.852
1004.174, 139.969
1005.426, 220.191
1006.678, 171.156
1007.930, 406.148
1009.181, 165.988
1010.432, 325.613
1011.683, 155.945
1012.934, 354.879
1014.185, 295.676
1015.435, 485.223
1016.685, 284.258
1017.935, 782.492
1019.185, 627.625
1020.435, 657.145
1021.684, 975.543
1022.934, 1095.984
1024.183, 1541.086
1025.432, 1740.199
1026.680, 2119.789
1027.929, 3334.676
1029.177, 3293.047
1030.425, 3811.871
1031.673, 3292.000
1032.921, 2652.078
1034.169, 1832.102
1035.416, 1441.656
1036.663, 1001.574
1037.911, 1171.453
1039.157, 771.281
1040.404, 971.066
1041.650, 680.820
1042.897, 720.531
1044.143, 870.211
1045.389, 629.852
1046.634, 819.457
1047.880, 999.039
1049.125, 698.578
1050.371, 1088.082
1051.615, 967.562
1052.860, 927.117
1054.105, 1235.922
1055.349, 1443.789
1056.593, 2051.758
1057.837, 1899.020
1059.081, 2744.402
1060.325, 3272.043
1061.568, 3181.004
1062.812, 3057.770
1064.055, 2554.098
1065.298, 2280.754
1066.540, 1958.863
1067.783, 2070.289
1069.025, 2368.602
1070.267, 2111.129
1071.509, 2082.086
1072.751, 1829.820
1073.993, 1515.266
1075.234, 1158.793
1076.475, 1075.180
1077.716, 701.090
1078.957, 717.250
1080.198, 634.332
1081.438, 611.355
1082.679, 628.184
1083.919, 466.070
1085.159, 683.910
1086.398, 1131.781
1087.638, 939.594
1088.877, 527.426
1090.116, 635.227
1091.355, 263.039
1092.594, 950.754
1093.833, 288.371
1095.071, 385.883
1096.309, 513.285
1097.547, 250.570
1098.785, 347.730
1100.023, 234.770
1101.260, 131.672
1102.498, 188.434
1103.735, 55.082
1104.972, 341.664
1106.208, 598.520
1107.445, 24.406
1108.681, 292.684
1109.918, 270.277
1111.154, 178.117
1112.389, 565.992
1113.625, 45.984
1114.860, 362.199
1116.096, 260.496
1117.331, 68.875
1118.566, 537.293
1119.800, 65.738
1121.035, 14.219
1122.269, 602.734
1123.503, 181.312
1124.737, 369.973
1125.971, 278.754
1127.205, 296.230
1128.438, 361.762
1129.671, 333.812
1130.904, 22.074
1132.137, 40.227
1133.370, 25.910
1134.602, 287.500
1135.834, 137.785
1137.066, 171.754
1138.298, 153.566
1139.530, 413.984
1140.762, 153.781
1141.993, 237.324
1143.224, 332.766
1144.455, 4.555
1145.686, 376.500
1146.917, 135.812
1148.147, 1.012
1149.377, 66.043
1150.607, 0.000
##END=



