##NAMES=Tremolite
##RRUFFID=R050167
##IDEAL CHEMISTRY=[box]Ca_2_Mg_5_Si_8_O_22_(OH)_2_
##LOCALITY=Hunza Valley, Afghanistan
##OWNER=RRUFF
##SOURCE=Marcus Origlieri
##DESCRIPTION=Green tabular crystals
##STATUS=The identification of this mineral has been confirmed by X-ray diffraction and chemical analysis
##URL=rruff.info/R050167
##MEASURED CHEMISTRY=  ([box]_0.90_Na_0.10_)(Ca_0.98_Mg_0.01_Fe^2+^_0.01_)_2_(Mg_0.94_Al_0.06_)_5_(Si_0.95_Al_0.05_)_8_O_22_((OH)_0.98_F_0.02_)_2_
##PIN_ID=L00522
##ORIENTATION=Laser parallel to -a* (-1 0 0). Fiducial mark perpendicular to laser is parallel to b [0 1 0]
85.929, 0.000
87.329, 48.574
88.728, 17.188
90.128, 33.563
91.527, 2.245
92.926, 18.948
94.324, 15.239
95.723, 16.796
97.121, 4.184
98.519, 2.389
99.917, 11.648
101.314, 14.357
102.712, 44.904
104.109, 114.371
105.505, 128.793
106.902, 172.177
108.298, 148.329
109.694, 209.083
111.090, 321.986
112.486, 372.428
113.881, 474.952
115.277, 654.478
116.672, 958.934
118.066, 1087.264
119.461, 1179.415
120.855, 1003.343
122.249, 673.010
123.643, 468.380
125.036, 221.421
126.430, 139.103
127.823, 59.402
129.216, 16.113
130.608, 1.321
132.001, 23.431
133.393, 19.051
134.785, 17.954
136.176, 24.994
137.568, 19.918
138.959, 67.230
140.350, 171.886
141.741, 239.877
143.131, 255.195
144.521, 264.835
145.911, 193.791
147.301, 79.058
148.691, 56.630
150.080, 52.503
151.469, 112.679
152.858, 321.154
154.247, 691.924
155.635, 1315.981
157.024, 2115.322
158.411, 3526.938
159.799, 4670.826
161.187, 5166.981
162.574, 4471.397
163.961, 3181.071
165.348, 2360.997
166.734, 1784.174
168.121, 1623.604
169.507, 1624.236
170.893, 2016.903
172.278, 2462.617
173.664, 3241.390
175.049, 4294.224
176.434, 5217.145
177.819, 6018.157
179.203, 5747.278
180.587, 4849.508
181.971, 3666.852
183.355, 2719.314
184.739, 1985.057
186.122, 1469.563
187.505, 1224.178
188.888, 1035.655
190.271, 941.645
191.653, 902.765
193.035, 834.000
194.417, 885.350
195.799, 804.847
197.180, 727.500
198.562, 728.307
199.943, 708.284
201.324, 857.438
202.704, 985.755
204.084, 1269.223
205.465, 1448.840
206.844, 1796.605
208.224, 2279.519
209.603, 2842.578
210.983, 3670.784
212.362, 4349.199
213.740, 5504.806
215.119, 6360.624
216.497, 7620.644
217.875, 9200.816
219.253, 10971.114
220.631, 13131.544
222.008, 14252.112
223.385, 15032.806
224.762, 14493.616
226.139, 14104.553
227.515, 14405.620
228.891, 15716.805
230.267, 18648.109
231.643, 21419.541
233.018, 24421.092
234.394, 24662.764
235.769, 22714.545
237.144, 19546.447
238.518, 15278.467
239.893, 11960.598
241.267, 9352.834
242.641, 7715.188
244.014, 7117.650
245.388, 7020.294
246.761, 7803.141
248.134, 8716.197
249.507, 10189.453
250.879, 10462.910
252.252, 10250.612
253.624, 9188.463
254.996, 7456.413
256.367, 6214.682
257.739, 4924.689
259.110, 4206.346
260.481, 3529.255
261.852, 2994.342
263.222, 2589.703
264.592, 2082.022
265.962, 1754.755
267.332, 1369.666
268.702, 1093.753
270.071, 833.012
271.440, 646.437
272.809, 552.032
274.178, 334.753
275.546, 379.563
276.915, 249.476
278.283, 190.575
279.650, 82.870
281.018, 23.651
282.385, 10.991
283.752, 36.146
285.119, 9.131
286.486, 39.930
287.852, 68.560
289.218, 5.029
290.584, 50.342
291.950, 32.488
293.316, 7.478
294.681, 119.218
296.046, 215.094
297.411, 321.757
298.775, 590.828
300.140, 788.116
301.504, 1139.236
302.868, 1280.094
304.231, 1384.986
305.595, 1256.974
306.958, 1170.058
308.321, 1152.235
309.684, 1058.505
311.047, 1093.865
312.409, 908.544
313.771, 819.083
315.133, 692.206
316.495, 502.915
317.856, 397.708
319.217, 298.584
320.578, 249.540
321.939, 230.577
323.299, 158.692
324.660, 169.884
326.020, 106.152
327.380, 148.496
328.739, 113.912
330.099, 217.402
331.458, 220.961
332.817, 214.592
334.176, 348.699
335.534, 323.963
336.892, 442.674
338.251, 634.148
339.608, 675.174
340.966, 924.327
342.323, 1106.783
343.681, 1419.786
345.037, 1565.183
346.394, 1810.489
347.751, 2171.861
349.107, 2460.289
350.463, 2843.774
351.819, 2951.294
353.174, 3083.865
354.530, 2884.498
355.885, 2730.194
357.240, 2496.950
358.594, 2350.768
359.949, 2602.646
361.303, 2783.584
362.657, 3349.578
364.011, 4002.633
365.365, 5062.745
366.718, 6415.912
368.071, 7613.138
369.424, 8880.412
370.777, 9217.743
372.129, 8925.130
373.481, 8252.568
374.833, 7140.059
376.185, 6277.601
377.537, 5349.191
378.888, 4810.830
380.239, 4357.519
381.590, 3984.254
382.941, 4161.034
384.291, 4187.862
385.642, 4805.736
386.992, 5649.654
388.341, 6847.613
389.691, 8675.617
391.040, 10643.665
392.389, 13121.749
393.738, 14639.879
395.087, 14868.054
396.435, 13646.270
397.784, 10984.836
399.132, 8743.123
400.479, 6615.875
401.827, 5209.153
403.174, 4314.077
404.521, 3761.118
405.868, 3786.208
407.215, 3809.454
408.561, 4457.833
409.908, 5055.321
411.254, 6347.889
412.599, 7511.033
413.945, 8726.847
415.290, 10260.774
416.636, 10430.647
417.980, 10344.821
419.325, 9553.688
420.670, 8084.530
422.014, 7004.541
423.358, 5633.562
424.702, 4788.813
426.045, 4005.930
427.389, 3581.091
428.732, 3447.297
430.075, 3211.546
431.417, 3397.127
432.760, 3686.458
434.102, 3875.388
435.444, 3983.027
436.786, 3873.740
438.127, 3410.590
439.469, 2519.687
440.810, 2025.456
442.151, 1382.161
443.492, 1021.799
444.832, 753.668
446.172, 476.702
447.512, 365.026
448.852, 314.078
450.192, 155.113
451.531, 129.556
452.870, 78.709
454.209, 130.539
455.548, 31.228
456.887, 120.083
458.225, 74.432
459.563, 83.347
460.901, 71.135
462.238, 97.231
463.576, 0.786
464.913, 51.212
466.250, 17.223
467.587, 55.247
468.923, 53.285
470.259, 25.336
471.596, 22.399
472.931, 39.528
474.267, 6.536
475.603, 27.390
476.938, 85.679
478.273, 4.757
479.608, 6.843
480.942, 195.938
482.276, 52.039
483.611, 269.148
484.944, 196.263
486.278, 279.392
487.612, 229.527
488.945, 206.666
490.278, 129.810
491.611, 68.957
492.943, 29.107
494.276, 5.735
495.608, 70.990
496.940, 13.425
498.271, 23.573
499.603, 3.611
500.934, 39.184
502.265, 67.945
503.596, 27.891
504.927, 48.845
506.257, 93.184
507.587, 93.221
508.917, 291.266
510.247, 500.320
511.577, 645.383
512.906, 834.453
514.235, 1212.527
515.564, 1543.608
516.892, 1904.700
518.221, 2149.790
519.549, 2606.884
520.877, 2718.983
522.205, 2859.077
523.533, 2873.182
524.860, 3037.277
526.187, 3392.363
527.514, 3435.451
528.841, 3717.530
530.167, 3565.600
531.493, 3303.659
532.820, 2910.712
534.145, 2363.763
535.471, 1915.803
536.796, 1466.840
538.122, 1179.863
539.447, 995.875
540.771, 770.878
542.096, 651.868
543.420, 595.844
544.744, 476.805
546.068, 359.756
547.392, 243.701
548.715, 227.631
550.039, 176.544
551.362, 156.442
552.684, 108.332
554.007, 73.208
555.329, 55.067
556.652, 3.919
557.973, 28.763
559.295, 25.665
560.617, 32.910
561.938, 11.440
563.259, 15.757
564.580, 24.962
565.901, 57.747
567.221, 23.382
568.541, 28.488
569.861, 26.426
571.181, 31.819
572.501, 43.406
573.820, 21.517
575.139, 3.422
576.458, 33.285
577.777, 55.286
579.095, 1.842
580.414, 8.985
581.732, 133.776
583.049, 38.542
584.367, 191.280
585.685, 108.993
587.002, 146.680
588.319, 76.341
589.636, 46.975
590.952, 123.579
592.268, 15.156
593.585, 8.774
594.900, 26.864
596.216, 4.182
597.532, 11.744
598.847, 73.381
600.162, 39.129
601.477, 60.971
602.792, 73.921
604.106, 55.985
605.420, 110.158
606.734, 72.466
608.048, 76.892
609.361, 28.446
610.675, 21.908
611.988, 63.790
613.301, 20.412
614.614, 65.458
615.926, 51.286
617.238, 140.069
618.550, 42.818
619.862, 113.518
621.174, 134.184
622.485, 196.752
623.797, 323.352
625.108, 315.919
626.418, 413.453
627.729, 458.955
629.039, 427.423
630.349, 579.858
631.659, 551.030
632.969, 636.397
634.279, 736.234
635.588, 853.534
636.897, 995.800
638.206, 1104.033
639.515, 1267.233
640.823, 1447.398
642.131, 1561.529
643.439, 1913.282
644.747, 2092.344
646.055, 2472.372
647.362, 2764.367
648.669, 3173.326
649.976, 3667.250
651.283, 4058.867
652.589, 4714.812
653.896, 5120.448
655.202, 5845.338
656.508, 6353.160
657.814, 7026.871
659.119, 8109.438
660.424, 9002.003
661.729, 10478.037
663.034, 12822.677
664.339, 15050.388
665.643, 18928.094
666.947, 23145.664
668.251, 29173.883
669.555, 36651.336
670.859, 42698.660
672.162, 48876.066
673.465, 50415.125
674.768, 48250.820
676.071, 43088.262
677.373, 35375.793
678.676, 28611.682
679.978, 22269.961
681.280, 17735.029
682.581, 14470.052
683.883, 11307.327
685.184, 9742.279
686.485, 7937.199
687.786, 6992.082
689.087, 6097.692
690.387, 5210.351
691.687, 4699.117
692.987, 4102.356
694.287, 3637.052
695.586, 3459.710
696.886, 2846.151
698.185, 2690.734
699.484, 2351.279
700.783, 2035.788
702.081, 2020.101
703.379, 1690.371
704.677, 1710.768
705.975, 1529.128
707.273, 1495.450
708.570, 1330.717
709.868, 1164.553
711.165, 1175.765
712.462, 1047.388
713.758, 1025.975
715.055, 898.119
716.351, 876.466
717.647, 891.544
718.943, 811.012
720.238, 750.243
721.533, 799.548
722.829, 667.695
724.124, 710.708
725.418, 688.611
726.713, 635.430
728.007, 604.669
729.301, 620.233
730.595, 691.713
731.889, 619.263
733.182, 677.540
734.476, 764.138
735.769, 735.786
737.061, 887.284
738.354, 869.792
739.647, 991.094
740.939, 1097.544
742.231, 1068.966
743.523, 1290.359
744.814, 1361.723
746.106, 1503.766
747.397, 1756.074
748.688, 1758.796
749.978, 1842.818
751.269, 1716.777
752.559, 1602.609
753.849, 1349.205
755.139, 1052.139
756.429, 956.147
757.719, 874.712
759.008, 697.395
760.297, 701.137
761.586, 591.418
762.875, 489.007
764.163, 368.264
765.451, 361.511
766.739, 372.569
768.027, 202.506
769.315, 268.588
770.602, 199.514
771.890, 186.951
773.177, 204.830
774.463, 102.847
775.750, 160.562
777.036, 104.399
778.323, 96.222
779.609, 155.031
780.894, 79.826
782.180, 151.608
783.465, 113.377
784.750, 62.133
786.035, 146.876
787.320, 129.617
788.605, 129.344
789.889, 119.068
791.173, 116.779
792.457, 149.478
793.741, 114.165
795.024, 154.842
796.307, 102.506
797.591, 16.839
798.873, 92.788
800.156, 46.403
801.439, 58.009
802.721, 82.604
804.003, 32.189
805.285, 5.235
806.566, 15.361
807.848, 19.549
809.129, 9.642
810.410, 41.476
811.691, 7.308
812.971, 12.766
814.252, 14.771
815.532, 4.458
816.812, 1.593
818.092, 4.321
819.371, 18.222
820.651, 6.125
821.930, 15.984
823.209, 8.879
824.488, 26.755
825.766, 20.603
827.045, 33.522
828.323, 3.086
829.601, 29.157
830.878, 33.011
832.156, 8.636
833.433, 26.241
834.710, 27.551
835.987, 35.623
837.264, 33.308
838.540, 13.736
839.817, 44.777
841.093, 103.814
842.369, 10.153
843.644, 20.593
844.920, 56.873
846.195, 2.335
847.470, 83.855
848.745, 2.835
850.020, 12.186
851.294, 69.782
852.568, 4.751
853.842, 33.718
855.116, 13.312
856.390, 29.352
857.663, 3.611
858.936, 11.575
860.209, 43.540
861.482, 32.491
862.755, 10.539
864.027, 46.412
865.299, 40.614
866.571, 45.658
867.843, 0.707
869.115, 44.940
870.386, 28.988
871.657, 43.221
872.928, 27.205
874.199, 49.284
875.470, 14.368
876.740, 30.492
878.010, 32.659
879.280, 34.869
880.550, 94.125
881.820, 32.431
883.089, 105.774
884.358, 90.150
885.627, 169.553
886.896, 229.990
888.164, 159.449
889.433, 235.930
890.701, 343.439
891.969, 281.971
893.236, 349.520
894.504, 380.089
895.771, 396.686
897.038, 478.291
898.305, 355.919
899.572, 592.573
900.838, 490.241
902.105, 435.942
903.371, 687.679
904.637, 673.471
905.902, 759.316
907.168, 776.202
908.433, 893.161
909.698, 984.167
910.963, 1101.228
912.228, 1175.350
913.492, 1271.524
914.757, 1368.779
916.021, 1664.107
917.285, 1786.491
918.548, 2033.945
919.812, 2496.456
921.075, 2726.020
922.338, 3232.644
923.601, 3792.285
924.864, 4385.943
926.126, 5159.630
927.388, 5533.333
928.650, 6397.062
929.912, 6770.806
931.174, 6224.557
932.435, 6228.336
933.697, 5322.124
934.958, 4555.926
936.218, 3879.740
937.479, 3200.566
938.739, 2760.403
940.000, 2475.251
941.260, 2338.111
942.520, 2420.983
943.779, 2221.866
945.039, 2374.760
946.298, 2348.665
947.557, 2275.583
948.816, 2329.511
950.074, 2090.796
951.333, 1974.745
952.591, 1872.711
953.849, 1523.684
955.107, 1471.671
956.365, 1261.670
957.622, 1164.952
958.879, 1107.479
960.136, 890.201
961.393, 903.268
962.650, 847.691
963.906, 746.715
965.162, 796.799
966.418, 701.629
967.674, 746.483
968.930, 686.385
970.185, 668.337
971.441, 693.285
972.696, 682.336
973.950, 748.725
975.205, 709.852
976.459, 561.090
977.714, 793.204
978.968, 661.659
980.222, 768.451
981.475, 806.473
982.729, 746.384
983.982, 770.894
985.235, 786.006
986.488, 804.304
987.740, 933.615
988.993, 868.664
990.245, 882.000
991.497, 1049.350
992.749, 1079.714
994.000, 1231.325
995.252, 1134.886
996.503, 1431.289
997.754, 1625.295
999.005, 1670.724
1000.256, 1912.166
1001.506, 2035.879
1002.756, 2135.612
1004.006, 2538.233
1005.256, 2606.065
1006.506, 2826.747
1007.755, 3194.935
1009.005, 3177.720
1010.254, 3574.525
1011.502, 3749.549
1012.751, 3832.688
1014.000, 4167.319
1015.248, 3997.077
1016.496, 4259.722
1017.744, 4535.050
1018.991, 4631.716
1020.239, 5206.134
1021.486, 5392.238
1022.733, 6077.469
1023.980, 7172.188
1025.227, 8020.331
1026.473, 9615.682
1027.719, 10783.884
1028.965, 11362.105
1030.211, 11620.096
1031.457, 10490.252
1032.702, 9515.524
1033.948, 8381.007
1035.193, 6899.353
1036.438, 6404.851
1037.682, 5523.244
1038.927, 5009.498
1040.171, 4887.931
1041.415, 4276.389
1042.659, 4623.306
1043.903, 4471.260
1045.146, 4431.071
1046.390, 4846.260
1047.633, 4874.812
1048.876, 5343.294
1050.118, 5579.754
1051.361, 5698.445
1052.603, 6513.748
1053.845, 6652.375
1055.087, 7091.017
1056.329, 7736.408
1057.571, 7626.303
1058.812, 7911.811
1060.053, 7668.090
1061.294, 7124.594
1062.535, 6910.068
1063.775, 6249.228
1065.016, 6067.937
1066.256, 6113.326
1067.496, 5594.231
1068.736, 5582.953
1069.975, 5168.419
1071.214, 4507.226
1072.454, 4102.565
1073.693, 3117.107
1074.931, 2764.906
1076.170, 2301.039
1077.408, 1877.850
1078.647, 1735.464
1079.885, 1341.488
1081.122, 1181.385
1082.360, 1148.141
1083.597, 939.879
1084.835, 884.511
1086.072, 822.397
1087.308, 635.665
1088.545, 785.070
1089.781, 546.011
1091.018, 513.581
1092.254, 605.448
1093.490, 465.524
1094.725, 545.891
1095.961, 455.908
1097.196, 490.205
1098.431, 480.346
1099.666, 375.137
1100.900, 415.670
1102.135, 537.312
1103.369, 365.262
1104.603, 460.796
1105.837, 412.603
1107.071, 344.954
1108.304, 410.183
1109.538, 280.906
1110.771, 373.574
1112.004, 417.224
1113.236, 348.268
1114.469, 453.493
1115.701, 350.165
1116.933, 264.206
1118.165, 423.252
1119.397, 293.862
1120.629, 335.416
1121.860, 265.200
1123.091, 286.737
1124.322, 276.071
1125.553, 361.728
1126.783, 217.330
1128.014, 258.320
1129.244, 280.659
1130.474, 292.310
1131.704, 245.943
1132.933, 227.605
1134.163, 332.107
1135.392, 222.516
1136.621, 173.368
1137.850, 260.011
1139.079, 165.440
1140.307, 191.721
1141.535, 184.255
1142.763, 94.812
1143.991, 169.678
1145.219, 82.177
1146.446, 114.624
1147.674, 159.489
1148.901, 93.626
1150.128, 51.368
1151.354, 84.364
1152.581, 39.353
1153.807, 117.659
1155.033, 17.431
1156.259, 66.144
1157.485, 70.879
1158.710, 23.742
1159.936, 12.366
1161.161, 0.000
1162.386, 27.272
1163.611, 35.168
1164.835, 39.403
1166.060, 22.892
1167.284, 28.595
1168.508, 4.611
1169.732, 27.100
1170.955, 19.053
1172.179, 8.767
1173.402, 14.015
1174.625, 15.960
1175.848, 27.102
1177.070, 36.327
1178.293, 30.316
1179.515, 50.473
1180.737, 6.153
1181.959, 21.092
1183.181, 7.948
1184.402, 9.289
1185.624, 8.565
1186.845, 26.028
1188.066, 0.782
1189.286, 16.637
1190.507, 30.675
1191.727, 23.296
1192.947, 103.632
1194.167, 1.430
1195.387, 33.200
1196.607, 8.008
1197.826, 4.930
1199.045, 83.609
1200.264, 29.074
1201.483, 15.969
1202.702, 67.730
1203.920, 23.656
1205.138, 42.155
1206.356, 3.170
1207.574, 5.403
1208.792, 56.342
1210.009, 12.515
1211.227, 8.810
1212.444, 76.256
1213.661, 40.424
1214.877, 23.248
1216.094, 55.616
1217.310, 3.251
1218.526, 90.283
1219.742, 41.076
1220.958, 16.848
1222.173, 136.474
1223.389, 16.464
1224.604, 31.888
1225.819, 158.185
1227.034, 15.180
1228.248, 225.652
1229.463, 20.827
1230.677, 36.895
1231.891, 193.673
1233.105, 107.141
1234.318, 72.439
1235.532, 181.004
1236.745, 50.319
1237.958, 199.888
1239.171, 147.449
1240.384, 77.436
1241.596, 157.714
1242.809, 88.181
1244.021, 129.171
1245.233, 210.918
1246.444, 54.687
1247.656, 240.929
1248.867, 163.678
1250.079, 55.405
1251.290, 197.186
1252.500, 75.075
1253.711, 93.325
1254.921, 213.945
1256.132, 40.107
1257.342, 230.240
1258.552, 132.487
1259.761, 89.152
1260.971, 215.753
1262.180, 126.013
1263.389, 134.696
1264.598, 236.492
1265.807, 55.888
1267.015, 191.254
1268.223, 247.821
1269.432, 79.488
1270.640, 213.653
1271.847, 224.059
1273.055, 129.985
1274.262, 280.338
1275.470, 202.671
1276.677, 204.897
1277.883, 193.182
1279.090, 55.401
1280.296, 247.018
1281.503, 135.021
1282.709, 181.125
1283.915, 226.292
1285.120, 66.903
1286.326, 188.283
1287.531, 176.796
1288.736, 108.179
1289.941, 179.224
1291.146, 186.615
1292.350, 100.026
1293.555, 253.440
1294.759, 113.406
1295.963, 79.614
1297.167, 266.818
1298.370, 182.295
1299.574, 193.781
1300.777, 170.185
1301.980, 11.499
1303.183, 246.395
1304.386, 2.295
1305.588, 86.036
1306.790, 258.933
1307.993, 87.868
1309.195, 92.408
1310.396, 249.859
1311.598, 87.621
1312.799, 205.992
1314.000, 95.231
1315.201, 33.236
1316.402, 204.059
1317.603, 137.993
1318.803, 115.654
1320.003, 212.874
1321.203, 80.441
1322.403, 270.238
1323.603, 183.745
1324.802, 62.046
1326.002, 257.063
1327.201, 104.139
1328.400, 151.968
1329.599, 212.097
1330.797, 97.009
1331.995, 157.667
1333.194, 227.025
1334.392, 70.970
1335.589, 186.792
1336.787, 216.971
1337.985, 97.378
1339.182, 264.357
1340.379, 120.304
1341.576, 151.182
1342.772, 214.746
1343.969, 10.610
1345.165, 178.073
1346.361, 161.527
1347.557, 43.041
1348.753, 204.972
1349.949, 85.218
1351.144, 12.401
1352.339, 314.664
1353.534, 18.679
1354.729, 169.896
1355.924, 176.613
1357.118, 79.431
1358.312, 264.653
1359.506, 120.347
1360.700, 2.985
1361.894, 235.928
1363.088, 69.521
1364.281, 32.719
1365.474, 125.581
1366.667, 9.277
1367.860, 94.873
1369.052, 91.640
1370.245, 5.251
1371.437, 50.018
1372.629, 65.045
1373.821, 27.657
1375.013, 129.987
1376.204, 8.180
1377.395, 21.604
1378.586, 146.310
1379.777, 24.591
1380.968, 121.198
1382.159, 110.960
1383.349, 8.693
1384.539, 153.648
1385.729, 95.540
1386.919, 11.795
1388.109, 250.997
1389.298, 24.086
1390.487, 95.780
1391.676, 200.198
1392.865, 4.338
1394.054, 164.625
1395.242, 125.128
1396.431, 45.129
1397.619, 161.563
1398.807, 41.028
1399.995, 36.728
1401.182, 204.893
1402.370, 3.463
1403.557, 89.571
1404.744, 155.385
1405.931, 42.264
1407.118, 285.053
1408.304, 74.918
1409.490, 61.158
1410.676, 236.301
1411.862, 185.321
1413.048, 53.185
1414.234, 212.093
1415.419, 70.808
1416.604, 188.276
1417.789, 176.682
1418.974, 5.105
1420.159, 154.761
1421.343, 153.238
1422.528, 8.450
1423.712, 170.135
1424.896, 129.275
1426.079, 97.401
1427.263, 306.126
1428.446, 35.363
1429.629, 204.511
1430.812, 271.628
1431.995, 49.412
1433.178, 158.117
1434.360, 153.504
1435.543, 3.280
1436.725, 239.295
1437.907, 88.807
1439.088, 91.239
1440.270, 358.294
1441.451, 35.386
1442.632, 143.379
1443.813, 323.224
1444.994, 34.634
1446.175, 205.207
1447.355, 221.943
1448.535, 91.629
1449.715, 465.419
1450.895, 192.368
1452.075, 161.941
1453.255, 366.737
1454.434, 125.022
1455.613, 221.235
1456.792, 316.189
1457.971, 89.253
1459.149, 412.343
1460.328, 257.179
1461.506, 6.360
1462.684, 379.274
1463.862, 115.357
1465.040, 159.592
1466.217, 433.660
1467.395, 135.877
1468.572, 170.131
1469.749, 419.826
1470.925, 52.466
1472.102, 234.796
1473.278, 309.456
1474.455, 9.191
1475.631, 369.010
1476.807, 130.789
1477.982, 22.463
1479.158, 371.621
1480.333, 81.826
1481.508, 84.775
1482.683, 326.254
1483.858, 99.035
1485.033, 161.330
1486.207, 254.099
1487.381, 55.459
1488.555, 235.359
1489.729, 217.917
1490.903, 70.600
1492.076, 403.204
1493.250, 94.139
1494.423, 76.675
1495.596, 323.752
1496.769, 34.577
1497.941, 117.702
1499.114, 341.150
1500.286, 10.338
1501.458, 267.659
1502.630, 211.853
1503.802, 46.111
1504.973, 401.012
1506.145, 135.036
1507.316, 31.834
1508.487, 389.836
1509.657, 59.039
1510.828, 138.654
1511.999, 186.950
1513.169, 0.264
1514.339, 0.000
##END=



