##NAMES=Tremolite
##RRUFFID=R050173
##IDEAL CHEMISTRY=[box]Ca_2_Mg_5_Si_8_O_22_(OH)_2_
##LOCALITY=Fort Dauphin, Madagascar
##OWNER=RRUFF
##SOURCE=Marcus Origlieri
##DESCRIPTION=Mass of colorless acicular crystals
##STATUS=The identification of this mineral has been confirmed by X-ray diffraction and chemical analysis
##URL=rruff.info/R050173
##MEASURED CHEMISTRY=[box]Ca_2.00_Mg_5.00_Si_8.00_O_22_(OH)_2_
##PIN_ID=L00486
##ORIENTATION=Laser parallel to -c* (0 0 -1). Fiducial mark perpendicular to laser is parallel to a [1 0 0]
103.720, 0.000
105.114, 3.318
106.508, 323.915
107.901, 189.225
109.294, 222.514
110.687, 597.714
112.079, 1364.611
113.472, 1910.894
114.864, 2032.745
116.256, 2382.201
117.647, 2551.809
119.039, 2793.969
120.430, 2725.638
121.821, 2104.408
123.211, 1736.702
124.602, 1478.215
125.992, 1195.673
127.382, 771.490
128.772, 516.676
130.162, 427.909
131.551, 347.180
132.940, 184.293
134.329, 49.357
135.718, 95.754
137.106, 46.633
138.494, 216.092
139.882, 234.054
141.270, 160.403
142.657, 355.396
144.045, 169.301
145.432, 236.612
146.819, 39.851
148.205, 64.292
149.592, 100.523
150.978, 118.767
152.364, 339.523
153.749, 705.404
155.135, 1359.667
156.520, 2671.729
157.905, 3880.208
159.290, 4827.607
160.674, 4954.270
162.059, 4369.828
163.443, 3374.383
164.826, 2217.936
166.210, 1480.541
167.593, 792.244
168.977, 823.084
170.360, 1193.094
171.742, 2192.305
173.125, 4194.871
174.507, 7575.313
175.889, 11192.207
177.271, 12938.447
178.652, 12604.056
180.034, 9389.199
181.415, 5083.279
182.796, 2362.371
184.176, 1017.562
185.557, 404.272
186.937, 303.129
188.317, 282.560
189.697, 432.351
191.076, 408.002
192.456, 456.844
193.835, 384.988
195.213, 446.681
196.592, 279.850
197.970, 232.721
199.349, 286.913
200.726, 271.456
202.104, 365.475
203.482, 411.432
204.859, 427.986
206.236, 606.668
207.613, 719.074
208.989, 821.013
210.366, 1226.575
211.742, 1679.006
213.118, 2198.285
214.493, 2955.527
215.869, 4299.099
217.244, 6784.747
218.619, 10927.525
219.994, 16520.771
221.368, 20896.113
222.742, 22189.121
224.117, 19701.691
225.490, 14914.202
226.864, 11366.627
228.237, 10548.914
229.611, 11660.996
230.984, 12922.854
232.356, 13144.474
233.729, 11435.828
235.101, 8476.905
236.473, 5527.741
237.845, 3298.369
239.216, 1918.826
240.588, 1139.148
241.959, 909.349
243.330, 939.425
244.701, 1299.383
246.071, 2209.236
247.441, 3368.990
248.811, 4308.646
250.181, 4508.208
251.551, 3957.688
252.920, 2747.093
254.289, 1936.406
255.658, 1185.615
257.027, 794.728
258.395, 513.750
259.763, 572.691
261.131, 2191.539
262.499, 940.290
263.867, 1248.917
265.234, 1117.413
266.601, 155.796
267.968, 125.626
269.334, 248.759
270.701, 392.599
272.067, 256.779
273.433, 301.491
274.799, 216.786
276.164, 232.649
277.530, 109.144
278.895, 23.771
280.260, 176.536
281.624, 130.169
282.989, 272.983
284.353, 295.606
285.717, 327.275
287.080, 658.816
288.444, 689.624
289.807, 720.127
291.170, 659.532
292.533, 368.733
293.896, 147.354
295.258, 204.370
296.620, 220.368
297.982, 425.365
299.344, 738.765
300.705, 994.718
302.067, 1277.467
303.428, 1271.499
304.789, 895.361
306.149, 978.461
307.510, 782.355
308.870, 605.037
310.230, 568.609
311.589, 669.876
312.949, 515.577
314.308, 396.814
315.667, 348.201
317.026, 230.052
318.385, 113.341
319.743, 166.489
321.101, 278.896
322.459, 201.834
323.817, 333.675
325.174, 365.598
326.532, 397.062
327.889, 708.994
329.246, 1200.644
330.602, 1312.395
331.958, 1593.609
333.315, 1394.783
334.671, 1076.399
336.026, 957.921
337.382, 909.249
338.737, 1090.311
340.092, 1651.330
341.447, 2291.933
342.802, 2692.540
344.156, 3131.982
345.510, 3471.728
346.864, 4100.539
348.218, 5099.234
349.571, 5805.531
350.925, 6439.980
352.278, 6122.521
353.630, 5195.352
354.983, 4116.807
356.336, 3218.564
357.688, 2919.242
359.040, 2710.580
360.391, 2879.436
361.743, 2987.246
363.094, 3776.054
364.445, 4934.439
365.796, 7114.254
367.147, 9484.604
368.497, 11025.120
369.847, 10527.095
371.197, 9009.572
372.547, 6882.387
373.897, 5386.781
375.246, 4411.238
376.595, 3675.562
377.944, 2999.760
379.293, 2413.846
380.641, 1957.854
381.989, 1762.120
383.337, 1726.445
384.685, 1770.863
386.032, 2225.970
387.380, 2917.302
388.727, 4115.784
390.074, 5050.577
391.421, 7375.016
392.767, 9050.059
394.113, 9444.546
395.459, 8308.890
396.805, 6036.256
398.151, 3850.736
399.496, 2616.439
400.841, 1980.559
402.186, 1534.624
403.531, 1378.581
404.875, 1281.457
406.219, 1474.805
407.564, 1439.958
408.907, 1743.807
410.251, 2437.522
411.594, 3222.916
412.937, 4276.615
414.280, 5080.224
415.623, 5103.699
416.966, 5017.086
418.308, 4060.405
419.650, 3212.012
420.992, 2232.170
422.334, 1692.613
423.675, 1345.474
425.016, 1046.805
426.357, 1039.240
427.698, 831.125
429.038, 886.894
430.379, 968.843
431.719, 1363.321
433.059, 1908.709
434.399, 2452.133
435.738, 2602.500
437.077, 2218.578
438.416, 1683.163
439.755, 796.197
441.094, 586.104
442.432, 253.124
443.770, 317.263
445.108, 213.540
446.446, 220.209
447.783, 148.595
449.121, 227.153
450.458, 207.302
451.795, 306.517
453.131, 244.802
454.468, 301.007
455.804, 544.950
457.140, 709.164
458.476, 943.700
459.811, 1269.554
461.146, 1686.979
462.482, 1805.322
463.816, 1774.532
465.151, 1513.581
466.486, 1181.294
467.820, 969.283
469.154, 596.384
470.488, 402.720
471.821, 358.826
473.155, 275.298
474.488, 291.107
475.821, 136.071
477.154, 290.570
478.486, 203.830
479.818, 234.996
481.150, 347.215
482.482, 170.879
483.814, 383.562
485.145, 317.579
486.477, 381.817
487.808, 226.266
489.138, 252.894
490.469, 189.964
491.799, 197.688
493.129, 195.342
494.459, 112.926
495.789, 100.076
497.119, 106.672
498.448, 132.999
499.777, 110.035
501.106, 177.277
502.434, 144.471
503.763, 391.597
505.091, 278.678
506.419, 615.698
507.747, 802.677
509.074, 1159.600
510.402, 1646.510
511.729, 1933.388
513.056, 2210.234
514.383, 2377.051
515.709, 2503.853
517.035, 2390.639
518.361, 2307.401
519.687, 2194.176
521.013, 2070.952
522.338, 1987.733
523.663, 2134.500
524.988, 2421.254
526.313, 3158.021
527.638, 3454.768
528.962, 3431.489
530.286, 3358.203
531.610, 2614.895
532.934, 2041.553
534.257, 1308.183
535.581, 984.778
536.904, 621.342
538.227, 517.868
539.549, 454.357
540.872, 300.808
542.194, 267.217
543.516, 223.585
544.838, 39.909
546.159, 96.186
547.480, 22.414
548.802, 58.591
550.123, 124.721
551.443, 9.196
552.764, 76.839
554.084, 92.827
555.404, 91.232
556.724, 24.633
558.044, 49.550
559.363, 76.209
560.682, 71.921
562.001, 2.411
563.320, 3.210
564.639, 21.212
565.957, 45.683
567.275, 39.791
568.593, 55.218
569.911, 59.400
571.228, 25.920
572.546, 31.193
573.863, 46.447
575.180, 51.656
576.496, 36.824
577.813, 41.963
579.129, 87.061
580.445, 72.128
581.761, 97.163
583.076, 202.155
584.392, 167.110
585.707, 222.025
587.022, 106.607
588.337, 81.435
589.651, 3.659
590.966, 8.682
592.280, 46.405
593.594, 71.569
594.907, 13.176
596.221, 32.141
597.534, 32.469
598.847, 132.952
600.160, 62.016
601.473, 21.612
602.785, 65.525
604.097, 9.004
605.409, 57.491
606.721, 75.690
608.033, 50.671
609.344, 17.291
610.655, 56.749
611.966, 110.253
613.277, 15.458
614.588, 99.312
615.898, 64.974
617.208, 221.078
618.518, 206.867
619.828, 272.963
621.137, 218.480
622.446, 253.628
623.755, 399.451
625.064, 364.392
626.373, 341.382
627.681, 476.901
628.990, 409.541
630.298, 531.348
631.605, 530.413
632.913, 684.550
634.220, 686.190
635.527, 780.036
636.834, 786.204
638.141, 970.351
639.448, 1164.650
640.754, 1331.593
642.060, 1546.397
643.366, 1843.369
644.672, 2128.465
645.977, 2615.553
647.283, 3340.019
648.588, 3787.438
649.892, 4831.685
651.197, 5625.615
652.502, 6169.230
653.806, 6334.006
655.110, 5867.445
656.414, 5874.482
657.717, 5418.166
659.021, 5756.469
660.324, 6150.396
661.627, 6778.449
662.930, 8313.448
664.232, 10041.258
665.534, 12746.595
666.837, 17228.953
668.138, 22955.078
669.440, 32090.246
670.742, 41854.836
672.043, 50162.551
673.344, 51769.730
674.645, 48124.281
675.946, 38817.848
677.246, 29316.096
678.546, 21834.912
679.846, 15899.729
681.146, 12314.349
682.446, 9856.746
683.745, 8321.604
685.045, 7356.264
686.344, 7015.174
687.642, 6771.889
688.941, 7096.547
690.239, 6533.312
691.538, 6129.019
692.836, 4935.287
694.133, 4220.195
695.431, 3584.715
696.728, 2909.248
698.025, 2413.375
699.322, 2237.444
700.619, 1821.274
701.916, 1644.238
703.212, 1477.465
704.508, 1369.993
705.804, 1312.910
707.100, 1276.046
708.395, 1129.116
709.690, 1172.110
710.985, 974.697
712.280, 1124.592
713.575, 926.909
714.869, 888.784
716.164, 801.502
717.458, 644.635
718.751, 536.867
720.045, 619.442
721.338, 631.226
722.632, 562.844
723.925, 665.504
725.217, 644.309
726.510, 518.795
727.802, 690.987
729.095, 639.526
730.386, 671.824
731.678, 585.038
732.970, 810.441
734.261, 892.479
735.552, 1025.069
736.843, 1557.628
738.134, 1899.569
739.424, 2182.233
740.715, 2314.530
742.005, 1956.837
743.295, 1658.746
744.584, 1370.697
745.874, 1282.057
747.163, 1413.005
748.452, 1644.271
749.741, 1775.617
751.030, 1646.407
752.318, 1407.534
753.607, 1137.811
754.895, 950.392
756.182, 828.583
757.470, 519.559
758.758, 440.696
760.045, 301.574
761.332, 340.904
762.619, 242.020
763.905, 351.525
765.192, 211.951
766.478, 342.915
767.764, 144.080
769.050, 324.466
770.335, 145.527
771.621, 36.411
772.906, 107.909
774.191, 29.312
775.475, 160.811
776.760, 242.187
778.044, 73.610
779.329, 304.989
780.613, 3.667
781.896, 152.379
783.180, 128.783
784.463, 39.906
785.746, 220.988
787.029, 162.037
788.312, 203.051
789.594, 104.033
790.877, 124.979
792.159, 115.888
793.441, 196.760
794.722, 32.405
796.004, 118.367
797.285, 20.899
798.566, 49.771
799.847, 29.601
801.128, 70.965
802.408, 38.511
803.689, 61.948
804.969, 132.368
806.249, 122.750
807.528, 3.098
808.808, 153.397
810.087, 36.337
811.366, 93.866
812.645, 55.963
813.923, 64.279
815.202, 35.660
816.480, 14.328
817.758, 25.730
819.036, 34.303
820.314, 105.867
821.591, 3.938
822.868, 53.605
824.145, 183.277
825.422, 27.137
826.699, 17.568
827.975, 172.173
829.251, 128.398
830.527, 39.087
831.803, 49.835
833.079, 79.336
834.354, 118.517
835.629, 112.351
836.904, 46.700
838.179, 85.678
839.454, 55.173
840.728, 16.310
842.002, 62.528
843.276, 18.650
844.550, 0.089
845.824, 11.024
847.097, 17.613
848.370, 56.214
849.643, 44.774
850.916, 56.530
852.188, 31.788
853.461, 40.235
854.733, 58.648
856.005, 47.027
857.277, 135.369
858.548, 73.684
859.820, 81.961
861.091, 10.203
862.362, 58.410
863.633, 166.580
864.903, 64.732
866.173, 152.863
867.444, 10.965
868.713, 99.053
869.983, 17.111
871.253, 115.129
872.522, 43.117
873.791, 131.068
875.060, 18.996
876.329, 46.891
877.597, 94.754
878.866, 82.584
880.134, 130.395
881.402, 91.826
882.670, 115.869
883.937, 3.533
885.204, 38.848
886.472, 158.715
887.739, 66.250
889.005, 53.754
890.272, 221.225
891.538, 148.668
892.804, 196.078
894.070, 243.453
895.336, 218.131
896.601, 178.117
897.867, 215.400
899.132, 312.658
900.397, 289.889
901.662, 367.092
902.926, 604.270
904.190, 481.430
905.455, 508.564
906.718, 335.672
907.982, 532.754
909.246, 399.818
910.509, 346.854
911.772, 623.861
913.035, 620.842
914.298, 697.803
915.560, 744.598
916.823, 861.512
918.085, 838.141
919.347, 1205.006
920.608, 1601.293
921.870, 1728.107
923.131, 2184.342
924.392, 3030.092
925.653, 3936.109
926.914, 5331.766
928.175, 6197.938
929.435, 6994.418
930.695, 6770.160
931.955, 5946.725
933.215, 4511.180
934.474, 3547.049
935.734, 2852.891
936.993, 2268.324
938.252, 2054.484
939.511, 2010.365
940.769, 2206.391
942.027, 2351.967
943.286, 2807.600
944.544, 3363.158
945.801, 3909.027
947.059, 3991.486
948.316, 3136.957
949.573, 2709.961
950.830, 2075.080
952.087, 1627.529
953.344, 1072.674
954.600, 995.111
955.856, 880.160
957.112, 835.475
958.368, 740.830
959.623, 584.818
960.879, 470.525
962.134, 573.289
963.389, 308.928
964.644, 240.391
965.898, 445.922
967.153, 407.645
968.407, 352.074
969.661, 234.809
970.915, 279.359
972.168, 246.826
973.422, 390.473
974.675, 255.271
975.928, 381.078
977.181, 253.955
978.433, 198.166
979.686, 344.381
980.938, 371.057
982.190, 254.104
983.442, 315.791
984.693, 241.795
985.945, 250.709
987.196, 238.682
988.447, 307.090
989.698, 203.178
990.949, 364.119
992.199, 475.162
993.449, 250.953
994.699, 364.121
995.949, 209.674
997.199, 393.135
998.448, 338.805
999.697, 594.791
1000.947, 480.359
1002.195, 645.871
1003.444, 650.756
1004.693, 836.152
1005.941, 721.395
1007.189, 756.695
1008.437, 861.922
1009.684, 1216.998
1010.932, 1251.332
1012.179, 1576.133
1013.426, 1720.783
1014.673, 2138.746
1015.920, 2623.877
1017.166, 3629.320
1018.413, 4158.043
1019.659, 4563.430
1020.905, 4817.588
1022.151, 5182.627
1023.396, 6557.182
1024.641, 8182.422
1025.887, 10367.121
1027.132, 12802.068
1028.376, 13307.365
1029.621, 12022.467
1030.865, 9378.203
1032.109, 7016.904
1033.353, 4961.621
1034.597, 3805.658
1035.841, 3077.529
1037.084, 2642.707
1038.327, 2198.711
1039.570, 2002.871
1040.813, 1858.498
1042.056, 1883.551
1043.298, 1748.080
1044.540, 1923.121
1045.782, 2098.045
1047.024, 2320.535
1048.266, 2527.441
1049.507, 3141.973
1050.748, 3707.299
1051.990, 4472.723
1053.230, 6028.562
1054.471, 8573.758
1055.711, 11718.203
1056.952, 16053.131
1058.192, 20788.457
1059.432, 22052.551
1060.671, 19757.590
1061.911, 15211.852
1063.150, 11376.400
1064.389, 8571.680
1065.628, 7105.684
1066.867, 6291.012
1068.105, 6255.988
1069.344, 5670.236
1070.582, 5194.838
1071.820, 4268.789
1073.058, 3263.018
1074.295, 2597.445
1075.532, 2251.525
1076.770, 2115.465
1078.007, 1669.348
1079.243, 1532.666
1080.480, 1776.727
1081.716, 1980.283
1082.953, 2824.416
1084.189, 4208.215
1085.424, 5241.836
1086.660, 4775.777
1087.895, 3589.535
1089.131, 2533.908
1090.366, 1667.674
1091.601, 1481.643
1092.835, 1154.215
1094.070, 918.152
1095.304, 750.609
1096.538, 563.982
1097.772, 537.848
1099.005, 650.957
1100.239, 514.387
1101.472, 536.656
1102.705, 241.275
1103.938, 454.908
1105.171, 419.070
1106.404, 352.707
1107.636, 476.248
1108.868, 289.447
1110.100, 153.090
1111.332, 236.104
1112.563, 188.182
1113.795, 221.453
1115.026, 383.016
1116.257, 343.262
1117.488, 257.014
1118.718, 469.287
1119.949, 482.123
1121.179, 704.770
1122.409, 345.902
1123.639, 228.270
1124.868, 170.715
1126.098, 8.150
1127.327, 104.254
1128.556, 215.619
1129.785, 12.244
1131.014, 129.254
1132.242, 40.178
1133.470, 78.131
1134.699, 123.922
1135.927, 74.410
1137.154, 7.908
1138.382, 208.768
1139.609, 147.566
1140.836, 43.900
1142.063, 156.338
1143.290, 33.104
1144.517, 179.600
1145.743, 8.807
1146.969, 7.760
1148.195, 53.889
1149.421, 75.605
1150.647, 197.656
1151.872, 78.506
1153.097, 129.684
1154.322, 102.463
1155.547, 202.654
1156.772, 174.887
1157.996, 354.785
1159.221, 84.457
1160.445, 244.414
1161.669, 55.951
1162.892, 124.779
1164.116, 137.260
1165.339, 82.023
1166.562, 88.361
1167.785, 267.287
1169.008, 179.930
1170.231, 220.242
1171.453, 162.426
1172.675, 162.236
1173.897, 146.061
1175.119, 106.201
1176.341, 135.307
1177.562, 23.221
1178.783, 181.633
1180.004, 240.668
1181.225, 181.080
1182.446, 149.461
1183.666, 179.393
1184.887, 10.264
1186.107, 306.855
1187.327, 132.896
1188.546, 190.777
1189.766, 381.430
1190.985, 299.732
1192.204, 317.959
1193.423, 445.025
1194.642, 230.963
1195.861, 455.908
1197.079, 267.275
1198.297, 252.289
1199.515, 153.439
1200.733, 299.088
1201.951, 481.354
1203.168, 356.789
1204.385, 250.197
1205.602, 535.336
1206.819, 300.328
1208.036, 474.449
1209.253, 422.049
1210.469, 236.072
1211.685, 530.578
1212.901, 205.543
1214.117, 280.969
1215.332, 444.131
1216.548, 366.906
1217.763, 509.383
1218.978, 431.375
1220.193, 376.531
1221.407, 448.928
1222.622, 472.297
1223.836, 474.305
1225.050, 596.795
1226.264, 410.553
1227.477, 526.932
1228.691, 378.779
1229.904, 465.562
1231.117, 497.568
1232.330, 409.365
1233.543, 440.783
1234.755, 281.828
1235.968, 413.229
1237.180, 355.816
1238.392, 675.650
1239.604, 335.684
1240.815, 675.408
1242.027, 445.547
1243.238, 316.500
1244.449, 485.473
1245.660, 396.145
1246.871, 395.383
1248.081, 354.209
1249.291, 308.740
1250.501, 189.707
1251.711, 277.629
1252.921, 286.783
1254.131, 354.547
1255.340, 231.984
1256.549, 370.293
1257.758, 576.371
1258.967, 242.605
1260.175, 670.594
1261.384, 487.510
1262.592, 604.275
1263.800, 421.246
1265.008, 308.127
1266.216, 325.215
1267.423, 691.094
1268.630, 367.873
1269.838, 345.033
1271.044, 629.732
1272.251, 253.352
1273.458, 547.582
1274.664, 351.912
1275.870, 485.217
1277.076, 611.207
1278.282, 393.496
1279.488, 284.885
1280.693, 357.422
1281.898, 218.055
1283.103, 460.711
1284.308, 82.055
1285.513, 308.865
1286.717, 149.762
1287.922, 480.115
1289.126, 99.207
1290.330, 219.377
1291.534, 288.748
1292.737, 187.812
1293.940, 167.910
1295.144, 126.771
1296.347, 247.174
1297.549, 195.340
1298.752, 63.920
1299.955, 311.648
1301.157, 80.875
1302.359, 328.482
1303.561, 356.932
1304.762, 263.650
1305.964, 310.820
1307.165, 144.885
1308.366, 41.441
1309.567, 127.537
1310.768, 139.178
1311.969, 314.553
1313.169, 21.457
1314.369, 116.896
1315.569, 137.367
1316.769, 137.695
1317.969, 7.836
1319.168, 96.328
1320.368, 165.900
1321.567, 313.549
1322.766, 216.385
1323.965, 139.639
1325.163, 52.869
1326.361, 177.650
1327.560, 120.014
1328.758, 42.668
1329.955, 283.252
1331.153, 64.678
1332.351, 156.324
1333.548, 142.672
1334.745, 158.791
1335.942, 120.328
1337.139, 180.287
1338.335, 321.184
1339.531, 520.955
1340.728, 8.572
1341.923, 69.158
1343.119, 10.104
1344.315, 238.262
1345.510, 32.988
1346.706, 226.221
1347.901, 624.658
1349.095, 222.426
1350.290, 221.152
1351.485, 338.664
1352.679, 133.371
1353.873, 284.023
1355.067, 202.758
1356.261, 140.154
1357.454, 95.957
1358.648, 331.842
1359.841, 71.811
1361.034, 413.918
1362.227, 490.488
1363.420, 66.053
1364.612, 311.156
1365.804, 156.350
1366.996, 321.299
1368.188, 216.039
1369.380, 91.068
1370.572, 5.047
1371.763, 229.244
1372.954, 7.408
1374.145, 166.045
1375.336, 169.432
1376.527, 192.254
1377.717, 215.055
1378.907, 158.988
1380.098, 74.006
1381.287, 368.650
1382.477, 291.910
1383.667, 335.363
1384.856, 237.918
1386.045, 138.959
1387.234, 420.047
1388.423, 140.893
1389.612, 293.039
1390.800, 360.100
1391.988, 766.934
1393.176, 297.127
1394.364, 638.332
1395.552, 137.758
1396.740, 447.666
1397.927, 397.350
1399.114, 157.684
1400.301, 595.666
1401.488, 472.678
1402.675, 168.059
1403.861, 423.578
1405.047, 378.875
1406.233, 244.369
1407.419, 328.100
1408.605, 261.525
1409.791, 482.693
1410.976, 224.895
1412.161, 129.916
1413.346, 404.031
1414.531, 412.295
1415.715, 352.352
1416.900, 390.695
1418.084, 292.684
1419.268, 85.719
1420.452, 513.785
1421.636, 154.941
1422.819, 440.516
1424.003, 181.746
1425.186, 207.688
1426.369, 602.551
1427.552, 49.238
1428.734, 367.551
1429.917, 568.082
1431.099, 442.570
1432.281, 470.695
1433.463, 375.770
1434.645, 404.461
1435.826, 190.891
1437.008, 414.426
1438.189, 137.082
1439.370, 469.750
1440.551, 338.879
1441.731, 650.809
1442.912, 143.676
1444.092, 447.320
1445.272, 348.578
1446.452, 560.727
1447.632, 450.371
1448.811, 470.883
1449.991, 316.453
1451.170, 378.562
1452.349, 528.871
1453.528, 477.137
1454.706, 133.406
1455.885, 336.145
1457.063, 246.914
1458.241, 260.949
1459.419, 335.832
1460.597, 325.453
1461.775, 598.270
1462.952, 501.395
1464.129, 453.473
1465.306, 1055.664
1466.483, 853.227
1467.660, 4.992
1468.836, 535.574
1470.012, 131.227
1471.189, 618.105
1472.365, 792.523
1473.540, 247.434
1474.716, 411.152
1475.891, 745.387
1477.067, 508.008
1478.242, 468.062
1479.416, 597.836
1480.591, 471.250
1481.766, 341.109
1482.940, 614.336
1484.114, 288.641
1485.288, 350.914
1486.462, 214.387
1487.635, 316.051
1488.809, 337.926
1489.982, 561.699
1491.155, 463.312
1492.328, 384.840
1493.501, 395.047
1494.673, 302.914
1495.846, 35.430
1497.018, 186.715
1498.190, 348.656
1499.362, 480.719
1500.533, 132.805
1501.705, 254.770
1502.876, 3.480
1504.047, 348.598
1505.218, 370.871
1506.389, 203.773
1507.560, 198.383
1508.730, 469.406
1509.900, 780.000
1511.070, 371.469
1512.240, 118.898
1513.410, 146.863
1514.579, 146.531
1515.749, 0.715
1516.918, 156.516
1518.087, 0.000
##END=



