##NAMES=Tremolite
##RRUFFID=R050167
##IDEAL CHEMISTRY=[box]Ca_2_Mg_5_Si_8_O_22_(OH)_2_
##LOCALITY=Hunza Valley, Afghanistan
##OWNER=RRUFF
##SOURCE=Marcus Origlieri
##DESCRIPTION=Green tabular crystals
##STATUS=The identification of this mineral has been confirmed by X-ray diffraction and chemical analysis
##URL=rruff.info/R050167
##MEASURED CHEMISTRY=  ([box]_0.90_Na_0.10_)(Ca_0.98_Mg_0.01_Fe^2+^_0.01_)_2_(Mg_0.94_Al_0.06_)_5_(Si_0.95_Al_0.05_)_8_O_22_((OH)_0.98_F_0.02_)_2_
##PIN_ID=M00489
##ORIENTATION=Laser parallel to (1 0 1). Fiducial mark perpendicular to laser is parallel to -b [0 -1 0]
87.649, 0.000
89.047, 1.942
90.446, 71.609
91.844, 76.453
93.242, 176.442
94.639, 63.871
96.037, 140.871
97.434, 258.286
98.831, 156.427
100.227, 193.140
101.624, 138.295
103.020, 133.999
104.416, 220.484
105.812, 348.898
107.207, 545.577
108.603, 804.562
109.998, 1047.301
111.393, 1030.386
112.787, 1053.315
114.182, 1256.806
115.576, 1650.050
116.970, 2425.407
118.363, 3037.136
119.757, 3400.931
121.150, 2901.332
122.543, 2212.208
123.936, 1516.195
125.328, 1087.277
126.720, 616.440
128.112, 513.675
129.504, 398.971
130.896, 177.337
132.287, 117.785
133.678, 111.326
135.069, 36.131
136.460, 85.573
137.850, 67.627
139.240, 103.848
140.630, 27.170
142.020, 79.473
143.410, 22.168
144.799, 62.417
146.188, 29.473
147.577, 86.377
148.965, 98.335
150.354, 153.348
151.742, 91.593
153.130, 85.492
154.517, 314.352
155.905, 701.174
157.292, 1349.959
158.679, 2320.711
160.066, 3529.427
161.452, 4518.112
162.839, 4516.764
164.225, 4015.385
165.611, 3293.976
166.996, 2571.538
168.381, 2140.076
169.767, 1946.598
171.152, 2236.159
172.536, 2716.898
173.921, 3955.797
175.305, 5234.833
176.689, 6853.989
178.073, 7813.243
179.456, 7662.978
180.839, 6575.572
182.222, 4920.226
183.605, 3556.080
184.988, 2425.352
186.370, 1701.715
187.752, 1304.647
189.134, 944.300
190.516, 880.061
191.898, 706.616
193.279, 772.489
194.660, 569.328
196.041, 585.820
197.421, 579.260
198.801, 425.638
200.182, 453.941
201.561, 469.063
202.941, 645.974
204.321, 671.565
205.700, 840.126
207.079, 1135.742
208.457, 1342.717
209.836, 1689.714
211.214, 2040.749
212.592, 2684.838
213.970, 3488.976
215.348, 4367.138
216.725, 5795.306
218.102, 7393.470
219.479, 9671.626
220.856, 11709.769
222.232, 13207.901
223.608, 13876.021
224.984, 12794.123
226.360, 11522.215
227.736, 10310.287
229.111, 9918.348
230.486, 10226.391
231.861, 10934.422
233.236, 12112.436
234.610, 11760.435
235.984, 11528.416
237.358, 9846.382
238.732, 7984.331
240.105, 6242.265
241.479, 4910.193
242.852, 4008.113
244.224, 3336.031
245.597, 3293.971
246.969, 3591.945
248.342, 4040.022
249.713, 4608.199
251.085, 4866.445
252.457, 4994.708
253.828, 4369.616
255.199, 3863.549
256.570, 3277.737
257.940, 2652.720
259.310, 2289.492
260.681, 2029.935
262.050, 1848.217
263.420, 1581.278
264.790, 1259.117
266.159, 1034.722
267.528, 720.884
268.896, 468.666
270.265, 352.420
271.633, 269.027
273.001, 111.433
274.369, 105.630
275.737, 33.539
277.104, 4.140
278.471, 29.469
279.838, 79.462
281.205, 90.656
282.572, 2.849
283.938, 33.168
285.304, 121.427
286.670, 90.270
288.035, 121.471
289.401, 110.484
290.766, 195.679
292.131, 149.950
293.495, 172.329
294.860, 189.100
296.224, 182.522
297.588, 261.698
298.952, 346.593
300.315, 624.096
301.679, 743.682
303.042, 880.884
304.405, 871.842
305.767, 886.520
307.130, 755.141
308.492, 768.704
309.854, 627.448
311.216, 664.359
312.578, 523.590
313.939, 575.849
315.300, 487.149
316.661, 412.146
318.021, 320.758
319.382, 237.182
320.742, 175.615
322.102, 216.513
323.462, 246.748
324.821, 305.060
326.181, 352.292
327.540, 527.293
328.899, 604.223
330.257, 766.716
331.616, 830.083
332.974, 1010.277
334.332, 859.082
335.690, 877.661
337.047, 970.375
338.405, 974.452
339.762, 1215.294
341.119, 1360.145
342.475, 1637.600
343.832, 2028.936
345.188, 2282.845
346.544, 2768.711
347.900, 3220.529
349.255, 3688.233
350.610, 4165.881
351.965, 4373.494
353.320, 4381.069
354.675, 3978.613
356.029, 3816.126
357.384, 3503.609
358.738, 3481.073
360.091, 3388.517
361.445, 3445.942
362.798, 3853.195
364.151, 4190.557
365.504, 4747.926
366.857, 5405.277
368.209, 6402.608
369.561, 7319.914
370.913, 7407.198
372.265, 7534.465
373.617, 6871.712
374.968, 6298.940
376.319, 5606.148
377.670, 4883.335
379.021, 4340.503
380.371, 3657.649
381.721, 3394.776
383.071, 3161.881
384.421, 3005.964
385.770, 3146.026
387.120, 3363.067
388.469, 3850.086
389.818, 4477.605
391.166, 5465.201
392.515, 6502.758
393.863, 7210.178
395.211, 7367.515
396.559, 6705.404
397.906, 5593.506
399.254, 4382.155
400.601, 3362.986
401.948, 2839.852
403.294, 2311.223
404.641, 2321.596
405.987, 1874.325
407.333, 1830.946
408.679, 2083.932
410.025, 2258.062
411.370, 2857.884
412.715, 3139.084
414.060, 3918.994
415.405, 4378.801
416.749, 4730.175
418.093, 4810.302
419.437, 4260.502
420.781, 3857.972
422.125, 3235.512
423.468, 2702.766
424.811, 2334.003
426.154, 2047.080
427.497, 1839.310
428.839, 1699.105
430.182, 1649.884
431.524, 1796.722
432.866, 1742.188
434.207, 1954.341
435.549, 2038.738
436.890, 1938.708
438.231, 1756.690
439.572, 1399.247
440.912, 1145.148
442.252, 810.725
443.593, 637.269
444.932, 494.206
446.272, 340.617
447.611, 262.813
448.951, 175.568
450.290, 224.480
451.628, 179.194
452.967, 159.583
454.305, 70.597
455.644, 103.434
456.981, 112.456
458.319, 24.018
459.657, 77.559
460.994, 69.641
462.331, 80.665
463.668, 109.658
465.004, 68.623
466.341, 27.577
467.677, 81.504
469.013, 45.417
470.348, 13.306
471.684, 24.160
473.019, 17.998
474.354, 29.169
475.689, 36.668
477.024, 68.522
478.358, 27.659
479.692, 97.052
481.026, 49.378
482.360, 5.598
483.694, 88.548
485.027, 65.789
486.360, 81.252
487.693, 132.792
489.026, 146.315
490.358, 18.816
491.691, 34.276
493.023, 13.296
494.354, 22.921
495.686, 2.424
497.017, 21.280
498.349, 11.050
499.680, 136.132
501.010, 129.269
502.341, 219.358
503.671, 242.405
505.001, 350.408
506.331, 526.371
507.661, 782.294
508.990, 934.177
510.319, 1214.019
511.648, 1618.822
512.977, 2027.593
514.306, 2277.322
515.634, 2442.014
516.962, 2531.666
518.290, 2735.275
519.618, 2498.845
520.945, 2591.374
522.273, 2531.863
523.600, 2468.312
524.927, 2634.719
526.253, 2776.086
527.580, 2819.412
528.906, 3182.695
530.232, 3175.938
531.558, 3099.140
532.883, 2620.301
534.208, 2366.420
535.534, 1926.497
536.858, 1519.533
538.183, 1266.526
539.508, 1033.479
540.832, 854.388
542.156, 749.256
543.480, 543.083
544.803, 415.867
546.127, 387.608
547.450, 384.308
548.773, 210.966
550.096, 187.576
551.418, 191.139
552.741, 218.655
554.063, 233.124
555.385, 95.546
556.706, 40.917
558.028, 9.235
559.349, 26.506
560.670, 78.674
561.991, 51.197
563.312, 99.161
564.632, 41.241
565.952, 103.409
567.272, 45.696
568.592, 80.072
569.911, 45.443
571.231, 2.095
572.550, 13.700
573.869, 12.377
575.187, 38.127
576.506, 18.963
577.824, 20.875
579.142, 54.136
580.460, 33.095
581.778, 80.000
583.095, 70.854
584.412, 96.657
585.729, 47.410
587.046, 139.111
588.363, 130.763
589.679, 105.367
590.995, 127.921
592.311, 107.427
593.627, 118.887
594.942, 1.303
596.258, 39.340
597.573, 11.938
598.888, 62.167
600.202, 113.353
601.517, 15.484
602.831, 23.635
604.145, 82.708
605.459, 87.746
606.772, 153.418
608.086, 18.314
609.399, 165.205
610.712, 79.371
612.024, 113.606
613.337, 168.234
614.649, 131.316
615.961, 231.912
617.273, 367.790
618.585, 259.754
619.896, 343.678
621.208, 501.577
622.519, 542.835
623.829, 718.934
625.140, 698.847
626.450, 702.541
627.761, 821.256
629.071, 942.349
630.380, 819.210
631.690, 775.442
632.999, 951.773
634.308, 915.679
635.617, 1078.106
636.926, 1173.759
638.235, 1367.823
639.543, 1486.928
640.851, 1724.529
642.159, 2016.204
643.466, 2249.432
644.774, 2568.852
646.081, 3183.766
647.388, 3497.075
648.695, 3976.421
650.002, 4557.866
651.308, 5085.689
652.614, 5719.854
653.920, 5887.274
655.226, 6573.164
656.531, 6691.777
657.837, 7339.691
659.142, 7837.506
660.447, 8205.715
661.752, 9433.588
663.056, 10562.074
664.360, 12340.451
665.664, 14948.601
666.968, 18036.709
668.272, 22504.887
669.575, 27014.635
670.879, 32442.678
672.182, 36920.914
673.484, 37728.824
674.787, 36846.703
676.089, 32804.539
677.392, 27292.344
678.694, 22120.100
679.995, 17727.824
681.297, 14455.513
682.598, 11533.159
683.899, 9960.771
685.200, 8548.346
686.501, 7505.883
687.802, 6993.380
689.102, 6230.842
690.402, 5928.269
691.702, 5485.656
693.002, 4803.009
694.301, 4430.326
695.600, 3987.612
696.899, 3384.857
698.198, 3132.066
699.497, 2789.240
700.795, 2456.378
702.093, 2213.480
703.391, 1930.549
704.689, 1877.582
705.987, 1504.060
707.284, 1530.404
708.581, 1208.730
709.878, 1313.139
711.175, 1037.573
712.472, 930.399
713.768, 946.957
715.064, 841.913
716.360, 840.633
717.656, 701.260
718.951, 701.328
720.247, 661.338
721.542, 652.937
722.837, 549.598
724.131, 629.856
725.426, 560.891
726.720, 604.178
728.014, 517.030
729.308, 638.118
730.601, 640.253
731.895, 742.739
733.188, 735.394
734.481, 843.896
735.774, 1040.049
737.067, 1195.054
738.359, 1380.270
739.651, 1535.427
740.943, 1610.670
742.235, 1555.687
743.526, 1491.065
744.818, 1286.390
746.109, 1291.588
747.400, 1196.859
748.691, 1192.028
749.981, 1277.225
751.271, 1030.760
752.562, 871.719
753.851, 775.797
755.141, 637.686
756.431, 501.771
757.720, 288.142
759.009, 398.602
760.298, 394.509
761.587, 276.421
762.875, 217.595
764.163, 131.690
765.451, 207.887
766.739, 111.712
768.027, 167.668
769.314, 69.844
770.601, 32.148
771.888, 8.764
773.175, 39.925
774.462, 30.388
775.748, 37.046
777.034, 6.688
778.320, 84.689
779.606, 3.872
780.892, 62.585
782.177, 13.092
783.462, 82.376
784.747, 20.168
786.032, 93.262
787.317, 92.315
788.601, 3.945
789.885, 16.405
791.169, 31.258
792.453, 5.943
793.736, 41.351
795.019, 35.635
796.303, 41.090
797.585, 88.848
798.868, 20.663
800.151, 114.502
801.433, 88.411
802.715, 29.376
803.997, 67.365
805.279, 16.397
806.560, 139.443
807.841, 4.439
809.122, 83.312
810.403, 36.813
811.684, 15.039
812.964, 20.884
814.245, 5.718
815.525, 148.541
816.804, 33.357
818.084, 48.161
819.363, 102.954
820.643, 107.739
821.922, 62.515
823.201, 32.718
824.479, 72.024
825.758, 16.758
827.036, 131.482
828.314, 96.198
829.592, 90.907
830.869, 145.609
832.147, 120.306
833.424, 194.995
834.701, 179.681
835.977, 104.358
837.254, 179.032
838.530, 253.702
839.807, 118.368
841.082, 203.031
842.358, 277.690
843.634, 322.347
844.909, 187.008
846.184, 121.663
847.459, 126.316
848.734, 50.969
850.008, 245.618
851.283, 180.266
852.557, 144.912
853.831, 279.558
855.105, 154.202
856.378, 288.846
857.651, 303.491
858.925, 368.135
860.197, 362.816
861.470, 237.501
862.743, 252.188
864.015, 246.877
865.287, 161.572
866.559, 216.270
867.831, 120.976
869.102, 135.691
870.373, 110.427
871.645, 85.170
872.915, 79.943
874.186, 254.775
875.457, 19.636
876.727, 14.535
877.997, 129.472
879.267, 64.442
880.536, 39.429
881.806, 44.432
883.075, 209.452
884.344, 104.537
885.613, 169.646
886.882, 204.777
888.150, 169.947
889.419, 325.126
890.687, 400.316
891.954, 245.514
893.222, 370.729
894.490, 225.969
895.757, 441.220
897.024, 476.505
898.291, 411.854
899.557, 547.211
900.824, 502.610
902.090, 488.024
903.356, 643.446
904.622, 508.888
905.888, 834.356
907.153, 789.844
908.418, 695.348
909.683, 850.860
910.948, 916.424
912.213, 1082.004
913.477, 1087.593
914.741, 1103.195
916.005, 1268.807
917.269, 1354.315
918.533, 1579.959
919.796, 1635.413
921.060, 1871.083
922.323, 2346.413
923.585, 2469.233
924.848, 3003.373
926.111, 3458.634
927.373, 3843.867
928.635, 4139.163
929.897, 4244.184
931.158, 4224.161
932.420, 4209.130
933.681, 3430.510
934.942, 3054.687
936.203, 2720.254
937.463, 2254.110
938.724, 2099.750
939.984, 1969.558
941.244, 1874.336
942.504, 2049.694
943.764, 1773.120
945.023, 2217.890
946.282, 2073.390
947.541, 2158.879
948.800, 2131.912
950.059, 1952.262
951.317, 1856.452
952.575, 1655.332
953.833, 1435.837
955.091, 1469.692
956.349, 1131.523
957.606, 1076.103
958.864, 803.685
960.121, 859.185
961.377, 825.029
962.634, 608.741
963.891, 704.331
965.147, 729.959
966.403, 675.537
967.659, 611.512
968.914, 637.235
970.170, 513.035
971.425, 559.029
972.680, 445.032
973.935, 530.933
975.190, 435.229
976.444, 521.197
977.698, 476.945
978.952, 472.975
980.206, 529.070
981.460, 455.407
982.713, 661.455
983.967, 537.653
985.220, 563.931
986.473, 690.156
987.725, 586.671
988.978, 563.177
990.230, 789.553
991.482, 646.381
992.734, 742.786
993.986, 979.517
995.237, 847.567
996.488, 1093.674
997.739, 1050.345
998.990, 1467.344
1000.241, 1713.745
1001.492, 1810.521
1002.742, 1907.041
1003.992, 1953.931
1005.242, 1941.024
1006.492, 2237.652
1007.741, 2184.777
1008.990, 2401.268
1010.239, 2636.321
1011.488, 2783.217
1012.737, 3170.022
1013.986, 3486.864
1015.234, 3234.074
1016.482, 4040.733
1017.730, 4048.012
1018.978, 4444.742
1020.225, 4891.924
1021.473, 5059.099
1022.720, 5576.980
1023.967, 5728.254
1025.213, 5955.532
1026.460, 6962.709
1027.706, 7222.127
1028.953, 7888.626
1030.198, 7947.062
1031.444, 7124.465
1032.690, 6851.566
1033.935, 6028.869
1035.180, 5345.993
1036.425, 5133.148
1037.670, 4494.283
1038.915, 4511.208
1040.159, 4358.803
1041.403, 4185.754
1042.647, 4544.126
1043.891, 4274.812
1045.135, 4922.424
1046.378, 5035.219
1047.621, 5425.362
1048.864, 6232.006
1050.107, 6626.793
1051.350, 7115.225
1052.592, 8002.000
1053.835, 8319.496
1055.077, 9366.705
1056.318, 9564.444
1057.560, 9902.604
1058.802, 10329.932
1060.043, 9653.473
1061.284, 9351.154
1062.525, 8538.193
1063.765, 7615.961
1065.006, 7132.924
1066.246, 6679.788
1067.486, 6197.018
1068.726, 6053.143
1069.966, 5032.523
1071.205, 4461.174
1072.445, 3987.721
1073.684, 3138.664
1074.923, 2885.336
1076.161, 2261.742
1077.400, 2113.636
1078.638, 1819.830
1079.876, 1666.367
1081.114, 1645.940
1082.352, 1372.205
1083.590, 1209.289
1084.827, 1365.225
1086.064, 1101.536
1087.301, 1098.701
1088.538, 1155.097
1089.775, 911.503
1091.011, 1218.609
1092.247, 1094.694
1093.483, 910.904
1094.719, 947.354
1095.955, 793.912
1097.190, 720.916
1098.425, 586.743
1099.660, 643.372
1100.895, 619.956
1102.130, 535.771
1103.364, 582.164
1104.598, 718.638
1105.833, 454.567
1107.066, 482.021
1108.300, 597.796
1109.534, 423.591
1110.767, 570.376
1112.000, 346.149
1113.233, 472.072
1114.466, 498.022
1115.698, 344.499
1116.930, 500.372
1118.163, 376.228
1119.394, 242.190
1120.626, 488.556
1121.858, 264.027
1123.089, 319.645
1124.320, 285.375
1125.551, 350.756
1126.782, 276.741
1128.013, 202.067
1129.243, 147.354
1130.473, 223.416
1131.703, 188.748
1132.933, 173.921
1134.163, 189.738
1135.392, 124.860
1136.621, 130.635
1137.850, 166.304
1139.079, 61.573
1140.308, 167.531
1141.536, 93.006
1142.765, 31.376
1143.993, 274.291
1145.221, 119.047
1146.448, 45.211
1147.676, 190.557
1148.903, 105.169
1150.130, 170.759
1151.357, 85.488
1152.584, 40.570
1153.810, 157.716
1155.037, 42.412
1156.263, 197.456
1157.489, 136.934
1158.715, 107.617
1159.940, 133.175
1161.166, 127.840
1162.391, 43.104
1163.616, 178.045
1164.841, 31.873
1166.065, 166.508
1167.290, 61.283
1168.514, 64.922
1169.738, 10.488
1170.962, 66.771
1172.185, 47.302
1173.409, 71.594
1174.632, 35.133
1175.855, 238.494
1177.078, 17.445
1178.301, 26.028
1179.523, 100.709
1180.746, 156.380
1181.968, 96.752
1183.190, 90.730
1184.412, 55.906
1185.633, 147.853
1186.855, 13.264
1188.076, 146.664
1189.297, 8.731
1190.518, 44.909
1191.738, 17.562
1192.959, 76.860
1194.179, 193.320
1195.399, 229.885
1196.619, 106.729
1197.838, 5.098
1199.058, 197.410
1200.277, 40.019
1201.496, 91.706
1202.715, 23.367
1203.934, 5.613
1205.152, 77.231
1206.371, 79.212
1207.589, 32.704
1208.807, 144.248
1210.024, 35.728
1211.242, 176.573
1212.459, 199.104
1213.677, 110.744
1214.894, 371.656
1216.110, 5.704
1217.327, 6.466
1218.543, 267.248
1219.760, 28.783
1220.976, 241.651
1222.192, 301.900
1223.407, 40.155
1224.623, 359.739
1225.838, 285.505
1227.053, 1.989
1228.268, 363.400
1229.483, 179.614
1230.697, 461.467
1231.912, 361.829
1233.126, 189.473
1234.340, 369.476
1235.554, 369.952
1236.767, 199.938
1237.981, 438.676
1239.194, 409.977
1240.407, 349.054
1241.620, 318.523
1242.832, 208.489
1244.045, 567.693
1245.257, 296.159
1246.469, 307.999
1247.681, 506.227
1248.893, 355.115
1250.104, 335.729
1251.315, 464.019
1252.527, 133.678
1253.738, 542.620
1254.948, 490.576
1256.159, 250.516
1257.369, 489.480
1258.579, 448.147
1259.789, 437.785
1260.999, 305.520
1262.209, 444.070
1263.418, 442.976
1264.628, 410.584
1265.837, 310.155
1267.046, 668.631
1268.254, 475.985
1269.463, 444.355
1270.671, 741.823
1271.879, 368.930
1273.087, 550.117
1274.295, 606.675
1275.502, 333.612
1276.710, 501.228
1277.917, 697.553
1279.124, 381.582
1280.331, 557.639
1281.537, 373.333
1282.744, 389.932
1283.950, 476.382
1285.156, 302.308
1286.362, 408.511
1287.568, 363.545
1288.773, 337.393
1289.978, 612.826
1291.184, 207.618
1292.389, 381.987
1293.593, 546.797
1294.798, 301.149
1296.002, 495.677
1297.206, 399.732
1298.410, 93.479
1299.614, 467.609
1300.818, 371.107
1302.021, 225.054
1303.225, 440.291
1304.428, 203.579
1305.631, 386.713
1306.833, 229.708
1308.036, 292.231
1309.238, 545.215
1310.440, 337.472
1311.642, 290.165
1312.844, 572.312
1314.045, 304.352
1315.247, 495.570
1316.448, 383.281
1317.649, 314.875
1318.850, 606.443
1320.051, 435.627
1321.251, 317.627
1322.451, 437.572
1323.651, 178.428
1324.851, 539.422
1326.051, 440.102
1327.251, 220.836
1328.450, 351.324
1329.649, 227.711
1330.848, 68.168
1332.047, 277.826
1333.245, 108.008
1334.444, 176.646
1335.642, 432.850
1336.840, 42.010
1338.038, 165.861
1339.236, 172.238
1340.433, 141.994
1341.630, 463.496
1342.828, 231.230
1344.025, 190.504
1345.221, 388.936
1346.418, 92.467
1347.614, 215.477
1348.810, 342.885
1350.006, 61.002
1351.202, 212.791
1352.398, 280.320
1353.593, 101.617
1354.789, 405.604
1355.984, 93.525
1357.179, 181.436
1358.373, 328.908
1359.568, 67.354
1360.762, 92.445
1361.956, 288.174
1363.150, 5.914
1364.344, 319.186
1365.538, 350.525
1366.731, 61.812
1367.924, 380.299
1369.117, 31.949
1370.310, 44.580
1371.503, 79.182
1372.695, 43.980
1373.888, 41.746
1375.080, 158.396
1376.272, 229.795
1377.464, 192.498
1378.655, 124.199
1379.847, 176.240
1381.038, 507.111
1382.229, 48.936
1383.420, 340.648
1384.610, 231.699
1385.801, 141.982
1386.991, 264.047
1388.181, 424.783
1389.371, 16.018
1390.561, 486.445
1391.750, 277.186
1392.940, 57.613
1394.129, 388.312
1395.318, 118.707
1396.507, 199.684
1397.696, 419.424
1398.884, 79.320
1400.072, 168.998
1401.260, 198.281
1402.448, 86.596
1403.636, 384.697
1404.824, 182.865
1406.011, 131.867
1407.198, 360.020
1408.385, 65.270
1409.572, 153.326
1410.758, 360.357
1411.945, 146.809
1413.131, 292.811
1414.317, 360.736
1415.503, 1.715
1416.689, 505.508
1417.874, 272.115
1419.060, 180.324
1420.245, 417.119
1421.430, 56.688
1422.615, 479.566
1423.799, 465.242
1424.984, 197.729
1426.168, 240.160
1427.352, 232.467
1428.536, 246.021
1429.720, 661.605
1430.903, 376.354
1432.087, 416.707
1433.270, 702.078
1434.453, 433.988
1435.635, 641.932
1436.818, 715.783
1438.001, 540.414
1439.183, 950.232
1440.365, 779.264
1441.547, 565.004
1442.728, 1306.352
1443.910, 857.939
1445.091, 607.119
1446.272, 1375.902
1447.453, 602.207
1448.634, 1102.131
1449.815, 1151.990
1450.995, 874.107
1452.176, 1373.953
1453.356, 1160.264
1454.535, 782.682
1455.715, 1330.021
1456.895, 966.914
1458.074, 1094.318
1459.253, 1221.172
1460.432, 977.451
1461.611, 992.217
1462.790, 986.334
1463.968, 632.629
1465.146, 807.547
1466.324, 874.104
1467.502, 471.557
1468.680, 946.916
1469.858, 771.424
1471.035, 265.926
1472.212, 1047.982
1473.389, 432.213
1474.566, 317.885
1475.742, 903.996
1476.919, 240.150
1478.095, 675.859
1479.271, 721.236
1480.447, 326.822
1481.623, 742.826
1482.798, 429.762
1483.974, 336.430
1485.149, 762.877
1486.324, 289.070
1487.499, 285.176
1488.674, 601.205
1489.848, 327.318
1491.022, 443.482
1492.196, 380.125
1493.370, 287.379
1494.544, 445.535
1495.718, 414.145
1496.891, 163.045
1498.064, 612.330
1499.237, 122.080
1500.410, 182.248
1501.583, 552.957
1502.755, 254.398
1503.928, 276.771
1505.100, 540.232
1506.272, 35.180
1507.443, 620.709
1508.615, 397.744
1509.786, 197.201
1510.958, 669.178
1512.129, 212.180
1513.300, 88.965
1514.470, 416.541
1515.641, 0.000
##END=



