##NAMES=Tremolite
##RRUFFID=R050173
##IDEAL CHEMISTRY=[box]Ca_2_Mg_5_Si_8_O_22_(OH)_2_
##LOCALITY=Fort Dauphin, Madagascar
##OWNER=RRUFF
##SOURCE=Marcus Origlieri
##DESCRIPTION=Mass of colorless acicular crystals
##STATUS=The identification of this mineral has been confirmed by X-ray diffraction and chemical analysis
##URL=rruff.info/R050173
##MEASURED CHEMISTRY=[box]Ca_2.00_Mg_5.00_Si_8.00_O_22_(OH)_2_
##PIN_ID=L00389
##ORIENTATION=Laser parallel to a* (1 0 0). Fiducial mark perpendicular to laser is parallel to b [0 1 0]
96.748, 0.000
98.143, 7.756
99.538, 41.332
100.932, 105.270
102.326, 156.998
103.720, 225.074
105.114, 162.572
106.508, 338.078
107.901, 371.865
109.294, 442.461
110.687, 758.932
112.079, 1390.354
113.472, 1995.867
114.864, 2504.705
116.256, 2846.250
117.647, 3079.971
119.039, 3895.727
120.430, 4634.227
121.821, 5105.420
123.211, 4518.820
124.602, 3623.922
125.992, 3010.371
127.382, 2187.816
128.772, 1605.961
130.162, 774.559
131.551, 363.420
132.940, 592.488
134.329, 231.693
135.718, 550.789
137.106, 819.764
138.494, 868.605
139.882, 1058.340
141.270, 1054.660
142.657, 913.934
144.045, 887.127
145.432, 780.207
146.819, 443.457
148.205, 505.982
149.592, 507.348
150.978, 437.752
152.364, 787.578
153.749, 1116.904
155.135, 1635.295
156.520, 2412.613
157.905, 2798.955
159.290, 3064.246
160.674, 2658.553
162.059, 2201.928
163.443, 1614.426
164.826, 806.092
166.210, 626.961
167.593, 427.078
168.977, 720.912
170.360, 961.172
171.742, 1689.119
173.125, 2756.445
174.507, 4033.180
175.889, 4719.590
177.271, 4518.125
178.652, 3514.818
180.034, 2289.414
181.415, 1316.211
182.796, 866.168
184.176, 995.246
185.557, 1797.004
186.937, 1921.436
188.317, 1807.602
189.697, 1910.793
191.076, 2159.816
192.456, 2172.109
193.835, 2108.568
195.213, 2673.883
196.592, 2435.094
197.970, 2913.074
199.349, 2971.727
200.726, 3111.701
202.104, 3303.367
203.482, 3466.473
204.859, 3599.902
206.236, 3778.643
207.613, 4007.434
208.989, 4090.600
210.366, 4550.980
211.742, 4770.859
213.118, 4517.746
214.493, 4211.602
215.869, 4117.066
217.244, 4953.924
218.619, 5936.600
219.994, 7008.945
221.368, 7091.277
222.742, 6563.574
224.117, 5195.820
225.490, 4157.990
226.864, 4190.068
228.237, 4972.043
229.611, 5723.914
230.984, 5735.680
232.356, 4947.336
233.729, 3838.881
235.101, 2430.312
236.473, 1591.631
237.845, 952.846
239.216, 543.963
240.588, 274.992
241.959, 535.932
243.330, 566.781
244.701, 877.545
246.071, 1428.229
247.441, 1758.834
248.811, 1969.352
250.181, 1589.859
251.551, 1350.332
252.920, 880.844
254.289, 631.221
255.658, 441.533
257.027, 541.754
258.395, 471.930
259.763, 802.041
261.131, 1062.283
262.499, 987.445
263.867, 633.396
265.234, 420.998
266.601, 8.250
267.968, 283.854
269.334, 306.121
270.701, 228.307
272.067, 290.438
273.433, 372.572
274.799, 294.762
276.164, 327.018
277.530, 169.367
278.895, 311.275
280.260, 263.842
281.624, 26.080
282.989, 98.852
284.353, 71.734
285.717, 155.281
287.080, 87.939
288.444, 359.029
289.807, 125.771
291.170, 7.604
292.533, 41.131
293.896, 45.180
295.258, 51.346
296.620, 87.371
297.982, 383.252
299.344, 429.010
300.705, 504.648
302.067, 480.166
303.428, 345.561
304.789, 360.824
306.149, 315.930
307.510, 250.855
308.870, 345.586
310.230, 330.127
311.589, 394.471
312.949, 108.625
314.308, 202.572
315.667, 176.326
317.026, 179.885
318.385, 213.252
319.743, 66.434
321.101, 389.412
322.459, 372.221
323.817, 454.861
325.174, 347.342
326.532, 549.662
327.889, 601.832
329.246, 713.854
330.602, 975.732
331.958, 777.479
333.315, 619.066
334.671, 481.377
336.026, 683.812
337.382, 915.746
338.737, 1027.014
340.092, 1208.914
341.447, 1330.180
342.802, 1421.742
344.156, 1652.984
345.510, 1753.480
346.864, 2033.516
348.218, 2493.029
349.571, 2641.971
350.925, 2900.367
352.278, 2688.295
353.630, 2225.854
354.983, 1793.098
356.336, 1310.191
357.688, 1217.158
359.040, 1073.869
360.391, 1380.389
361.743, 1666.770
363.094, 2303.062
364.445, 2939.250
365.796, 4085.334
367.147, 4511.307
368.497, 4687.170
369.847, 3932.887
371.197, 3118.463
372.547, 2723.883
373.897, 2259.199
375.246, 1925.621
376.595, 1550.916
377.944, 1363.188
379.293, 1252.805
380.641, 1139.859
381.989, 1265.666
383.337, 1301.908
384.685, 1238.051
386.032, 1754.047
387.380, 2589.980
388.727, 3795.938
390.074, 5112.043
391.421, 6368.086
392.767, 6494.281
394.113, 5660.508
395.459, 4546.375
396.805, 3052.184
398.151, 2207.559
399.496, 1718.250
400.841, 1519.797
402.186, 1244.043
403.531, 1035.730
404.875, 999.934
406.219, 1227.738
407.564, 1344.324
408.907, 1594.195
410.251, 2238.811
411.594, 2494.254
412.937, 2968.631
414.280, 3303.453
415.623, 2958.605
416.966, 2742.457
418.308, 2125.906
419.650, 1789.377
420.992, 1174.740
422.334, 978.441
423.675, 1012.758
425.016, 1026.078
426.357, 829.139
427.698, 1070.953
429.038, 945.805
430.379, 1072.553
431.719, 1187.666
433.059, 1328.092
434.399, 1524.334
435.738, 1196.049
437.077, 931.570
438.416, 1035.420
439.755, 708.324
441.094, 821.072
442.432, 681.191
443.770, 882.195
445.108, 1028.268
446.446, 1170.357
447.783, 1358.762
449.121, 1405.025
450.458, 1709.320
451.795, 2135.680
453.131, 2396.650
454.468, 3484.740
455.804, 4598.230
457.140, 6732.695
458.476, 9137.020
459.811, 11995.986
461.146, 13595.422
462.482, 13504.691
463.816, 11904.104
465.151, 8931.309
466.486, 6858.822
467.820, 5066.314
469.154, 3662.393
470.488, 3050.416
471.821, 2517.078
473.155, 1984.217
474.488, 1726.863
475.821, 1621.328
477.154, 1394.904
478.486, 1048.734
479.818, 1153.395
481.150, 1322.740
482.482, 1048.609
483.814, 994.219
485.145, 870.406
486.477, 855.586
487.808, 822.041
489.138, 718.613
490.469, 775.562
491.799, 753.416
493.129, 700.432
494.459, 426.686
495.789, 362.227
497.119, 448.547
498.448, 575.736
499.777, 393.111
501.106, 510.402
502.434, 407.609
503.763, 454.732
505.091, 600.678
506.419, 788.742
507.747, 885.637
509.074, 1132.457
510.402, 1209.207
511.729, 1425.893
513.056, 1322.512
514.383, 1269.066
515.709, 1275.561
517.035, 1002.059
518.361, 928.494
519.687, 1114.885
521.013, 791.211
522.338, 677.502
523.663, 1043.744
524.988, 1129.928
526.313, 1196.062
527.638, 1342.139
528.962, 1118.162
530.286, 1214.129
531.610, 840.064
532.934, 715.941
534.257, 271.766
535.581, 517.521
536.904, 223.221
538.227, 438.854
539.549, 54.426
540.872, 309.924
542.194, 185.393
543.516, 190.793
544.838, 206.125
546.159, 201.393
547.480, 176.721
548.802, 121.719
550.123, 116.779
551.443, 61.770
552.764, 46.682
554.084, 101.523
555.404, 96.295
556.724, 180.996
558.044, 74.367
559.363, 89.846
560.682, 304.555
562.001, 121.102
563.320, 263.111
564.639, 42.822
565.957, 18.762
567.275, 74.752
568.593, 189.148
569.911, 3.561
571.228, 207.357
572.546, 81.094
573.863, 4.764
575.180, 151.639
576.496, 131.809
577.813, 205.199
579.129, 31.471
580.445, 231.781
581.761, 64.754
583.076, 277.807
584.392, 270.863
585.707, 323.037
587.022, 306.275
588.337, 198.617
589.651, 201.615
590.966, 44.666
592.280, 57.750
593.594, 19.115
594.907, 54.086
596.221, 12.664
597.534, 60.645
598.847, 303.451
600.160, 73.146
601.473, 109.824
602.785, 143.229
604.097, 83.357
605.409, 10.502
606.721, 43.832
608.033, 82.455
609.344, 200.746
610.655, 24.309
611.966, 157.463
613.277, 31.451
614.588, 25.283
615.898, 158.168
617.208, 161.852
618.518, 95.580
619.828, 179.182
621.137, 92.244
622.446, 375.393
623.755, 298.553
625.064, 181.471
626.373, 304.461
627.681, 67.686
628.990, 330.354
630.298, 313.402
631.605, 215.998
632.913, 339.758
634.220, 382.305
635.527, 304.830
636.834, 237.451
638.141, 609.918
639.448, 522.732
640.754, 705.162
642.060, 858.096
643.366, 981.127
644.672, 1155.801
645.977, 1125.859
647.283, 1469.314
648.588, 1591.654
649.892, 1743.832
651.197, 2105.975
652.502, 2137.734
653.806, 2208.705
655.110, 2190.566
656.414, 2269.852
657.717, 2341.229
659.021, 2713.367
660.324, 3204.934
661.627, 3747.426
662.930, 4639.467
664.232, 6042.035
665.534, 8004.576
666.837, 11057.094
668.138, 14979.572
669.440, 20132.236
670.742, 24034.457
672.043, 24977.150
673.344, 22695.227
674.645, 18816.664
675.946, 14033.119
677.246, 10454.699
678.546, 8151.471
679.846, 5776.598
681.146, 4538.432
682.446, 3932.752
683.745, 3224.242
685.045, 2997.811
686.344, 2929.918
687.642, 2477.832
688.941, 2509.764
690.239, 2231.924
691.538, 2162.643
692.836, 1971.014
694.133, 1674.613
695.431, 1486.283
696.728, 1315.393
698.025, 933.842
699.322, 1104.162
700.619, 764.203
701.916, 924.293
703.212, 814.102
704.508, 723.547
705.804, 753.166
707.100, 872.391
708.395, 850.947
709.690, 699.713
710.985, 538.918
712.280, 578.426
713.575, 578.068
714.869, 422.725
716.164, 536.227
717.458, 516.785
718.751, 428.184
720.045, 618.135
721.338, 465.107
722.632, 479.389
723.925, 674.217
725.217, 224.135
726.510, 550.121
727.802, 589.434
729.095, 538.805
730.386, 696.879
731.678, 466.520
732.970, 946.053
734.261, 925.512
735.552, 1242.488
736.843, 1652.475
738.134, 1880.930
739.424, 1850.400
740.715, 1670.178
742.005, 1359.133
743.295, 1069.275
744.584, 1098.338
745.874, 1316.723
747.163, 1344.432
748.452, 1312.170
749.741, 1549.068
751.030, 1206.742
752.318, 1223.812
753.607, 1001.463
754.895, 600.867
756.182, 784.865
757.470, 442.646
758.758, 660.541
760.045, 223.867
761.332, 361.145
762.619, 238.533
763.905, 431.873
765.192, 239.859
766.478, 407.076
767.764, 134.820
769.050, 302.002
770.335, 248.256
771.621, 185.908
772.906, 163.539
774.191, 181.562
775.475, 298.500
776.760, 265.744
778.044, 254.141
779.329, 302.186
780.613, 274.164
781.896, 162.277
783.180, 354.588
784.463, 232.523
785.746, 440.355
787.029, 47.752
788.312, 435.629
789.594, 363.654
790.877, 301.326
792.159, 408.689
793.441, 246.695
794.722, 414.664
796.004, 202.604
797.285, 170.504
798.566, 358.361
799.847, 306.188
801.128, 43.979
802.408, 302.027
803.689, 359.740
804.969, 487.422
806.249, 205.080
807.528, 322.703
808.808, 190.293
810.087, 111.812
811.366, 235.668
812.645, 163.119
813.923, 190.703
815.202, 8.082
816.480, 255.570
817.758, 132.910
819.036, 130.664
820.314, 128.449
821.591, 125.664
822.868, 72.838
824.145, 170.598
825.422, 47.764
826.699, 254.850
827.975, 342.318
829.251, 70.756
830.527, 276.369
831.803, 76.812
833.079, 50.072
834.354, 186.613
835.629, 36.689
836.904, 250.652
838.179, 22.729
839.454, 84.695
840.728, 98.736
842.002, 107.783
843.276, 44.391
844.550, 90.834
845.824, 47.385
847.097, 183.797
848.370, 10.209
849.643, 206.590
850.916, 127.061
852.188, 59.201
853.461, 125.428
854.733, 121.617
856.005, 177.771
857.277, 233.896
858.548, 129.988
859.820, 213.203
861.091, 312.086
862.362, 228.094
863.633, 184.070
864.903, 100.021
866.173, 145.943
867.444, 41.832
868.713, 87.742
869.983, 33.650
871.253, 129.521
872.522, 125.396
873.791, 1.238
875.060, 102.941
876.329, 22.801
877.597, 38.531
878.866, 116.344
880.134, 189.283
881.402, 44.898
882.670, 250.482
883.937, 136.041
885.204, 41.609
886.472, 127.143
887.739, 172.645
889.005, 18.146
890.272, 213.605
891.538, 179.039
892.804, 94.434
894.070, 419.795
895.336, 35.125
896.601, 180.422
897.867, 525.686
899.132, 570.924
900.397, 604.379
901.662, 331.330
902.926, 516.502
904.190, 601.648
905.455, 596.773
906.718, 161.869
907.982, 374.949
909.246, 491.988
910.509, 357.016
911.772, 682.016
913.035, 436.527
914.298, 541.492
915.560, 436.020
916.823, 540.961
918.085, 445.473
919.347, 690.363
920.608, 1074.383
921.870, 1099.078
923.131, 1303.535
924.392, 2067.699
925.653, 2291.738
926.914, 3175.828
928.175, 3010.375
929.435, 3144.758
930.695, 2669.055
931.955, 2473.523
933.215, 1817.844
934.474, 1391.867
935.734, 1146.375
936.993, 1120.426
938.252, 1084.859
939.511, 1218.078
940.769, 1482.449
942.027, 1286.875
943.286, 1441.055
944.544, 1565.328
945.801, 1349.211
947.059, 1644.336
948.316, 1403.902
949.573, 711.480
950.830, 1015.570
952.087, 609.543
953.344, 282.973
954.600, 517.188
955.856, 651.660
957.112, 787.758
958.368, 501.113
959.623, 525.027
960.879, 278.906
962.134, 440.477
963.389, 423.801
964.644, 317.840
965.898, 590.902
967.153, 323.344
968.407, 425.605
969.661, 258.312
970.915, 240.965
972.168, 423.566
973.422, 536.125
974.675, 219.254
975.928, 488.680
977.181, 321.594
978.433, 319.102
979.686, 534.586
980.938, 302.691
982.190, 377.340
983.442, 506.184
984.693, 418.441
985.945, 369.457
987.196, 199.309
988.447, 610.805
989.698, 191.574
990.949, 684.000
992.199, 571.914
993.449, 365.547
994.699, 447.090
995.949, 379.449
997.199, 411.559
998.448, 481.504
999.697, 470.027
1000.947, 577.758
1002.195, 605.137
1003.444, 476.477
1004.693, 708.066
1005.941, 690.129
1007.189, 622.234
1008.437, 464.211
1009.684, 816.777
1010.932, 728.621
1012.179, 1260.984
1013.426, 912.848
1014.673, 1165.340
1015.920, 1337.770
1017.166, 1809.512
1018.413, 1708.523
1019.659, 2181.441
1020.905, 2402.855
1022.151, 2794.320
1023.396, 3906.406
1024.641, 4817.953
1025.887, 5523.676
1027.132, 6075.867
1028.376, 5227.043
1029.621, 4277.203
1030.865, 3243.129
1032.109, 2724.766
1033.353, 1966.992
1034.597, 1628.055
1035.841, 1319.320
1037.084, 1063.207
1038.327, 1407.055
1039.570, 1007.523
1040.813, 1048.961
1042.056, 1310.055
1043.298, 1080.770
1044.540, 1312.484
1045.782, 1154.586
1047.024, 945.586
1048.266, 1468.430
1049.507, 1710.047
1050.748, 2241.641
1051.990, 2768.211
1053.230, 2705.316
1054.471, 4186.820
1055.711, 4928.305
1056.952, 6218.957
1058.192, 6450.371
1059.432, 6241.734
1060.671, 5393.066
1061.911, 3994.320
1063.150, 3275.551
1064.389, 3097.102
1065.628, 2908.133
1066.867, 2979.602
1068.105, 3090.543
1069.344, 2801.391
1070.582, 2322.059
1071.820, 1862.605
1073.058, 1663.109
1074.295, 1406.461
1075.532, 1313.758
1076.770, 1203.965
1078.007, 1264.137
1079.243, 1294.273
1080.480, 1514.363
1081.716, 1144.426
1082.953, 1184.441
1084.189, 1454.457
1085.424, 1344.340
1086.660, 774.180
1087.895, 1003.965
1089.131, 1003.688
1090.366, 413.297
1091.601, 762.957
1092.835, 662.410
1094.070, 611.797
1095.304, 211.078
1096.538, 420.660
1097.772, 489.836
1099.005, 678.938
1100.239, 427.961
1101.472, 286.930
1102.705, 345.949
1103.938, 304.785
1105.171, 53.562
1106.404, 622.254
1107.636, 400.883
1108.868, 269.438
1110.100, 22.414
1111.332, 556.020
1112.563, 174.395
1113.795, 432.543
1115.026, 380.805
1116.257, 81.141
1117.488, 826.969
1118.718, 994.566
1119.949, 1012.031
1121.179, 669.965
1122.409, 217.852
1123.639, 204.953
1124.868, 222.742
1126.098, 210.129
1127.327, 47.566
1128.556, 415.160
1129.785, 82.445
1131.014, 139.961
1132.242, 17.441
1133.470, 75.117
1134.699, 462.234
1135.927, 78.652
1137.154, 101.391
1138.382, 264.996
1139.609, 127.648
1140.836, 79.480
1142.063, 476.469
1143.290, 106.676
1144.517, 249.988
1145.743, 63.352
1146.969, 33.180
1148.195, 309.918
1149.421, 6.043
1150.647, 446.652
1151.872, 417.242
1153.097, 277.805
1154.322, 318.336
1155.547, 488.836
1156.772, 159.305
1157.996, 549.707
1159.221, 370.043
1160.445, 490.352
1161.669, 200.660
1162.892, 150.973
1164.116, 331.254
1165.339, 58.523
1166.562, 91.676
1167.785, 281.824
1169.008, 361.926
1170.231, 202.008
1171.453, 182.062
1172.675, 172.074
1173.897, 122.047
1175.119, 311.977
1176.341, 28.129
1177.562, 1.738
1178.783, 191.570
1180.004, 251.363
1181.225, 451.125
1182.446, 260.848
1183.666, 230.543
1184.887, 0.211
1186.107, 769.863
1187.327, 369.496
1188.546, 499.117
1189.766, 438.723
1190.985, 438.309
1192.204, 117.895
1193.423, 447.332
1194.642, 166.898
1195.861, 485.098
1197.079, 614.566
1198.297, 364.098
1199.515, 322.199
1200.733, 517.570
1201.951, 586.906
1203.168, 546.984
1204.385, 404.738
1205.602, 463.891
1206.819, 388.520
1208.036, 587.828
1209.253, 565.746
1210.469, 264.898
1211.685, 648.391
1212.901, 264.238
1214.117, 545.492
1215.332, 568.637
1216.548, 451.672
1217.763, 696.125
1218.978, 390.465
1220.193, 706.230
1221.407, 522.754
1222.622, 611.840
1223.836, 398.648
1225.050, 453.566
1226.264, 527.852
1227.477, 723.879
1228.691, 588.176
1229.904, 640.879
1231.117, 454.312
1232.330, 497.797
1233.543, 558.410
1234.755, 256.949
1235.968, 724.367
1237.180, 184.184
1238.392, 535.500
1239.604, 224.566
1240.815, 613.754
1242.027, 114.883
1243.238, 416.078
1244.449, 342.008
1245.660, 268.695
1246.871, 647.719
1248.081, 75.727
1249.291, 704.531
1250.501, 272.828
1251.711, 640.832
1252.921, 387.180
1254.131, 323.430
1255.340, 431.156
1256.549, 339.965
1257.758, 349.039
1258.967, 228.777
1260.175, 918.172
1261.384, 387.145
1262.592, 735.691
1263.800, 214.652
1265.008, 363.430
1266.216, 122.102
1267.423, 371.656
1268.630, 269.699
1269.838, 239.605
1271.044, 549.773
1272.251, 317.426
1273.458, 597.793
1274.664, 623.480
1275.870, 359.719
1277.076, 711.086
1278.282, 392.695
1279.488, 304.695
1280.693, 32.820
1281.898, 450.242
1283.103, 373.934
1284.308, 38.582
1285.513, 284.074
1286.717, 90.582
1287.922, 110.301
1289.126, 151.520
1290.330, 117.605
1291.534, 256.031
1292.737, 0.699
1293.940, 0.000
##END=



