##NAMES=Tremolite
##RRUFFID=R040045
##IDEAL CHEMISTRY=[box]Ca_2_Mg_5_Si_8_O_22_(OH)_2_
##LOCALITY=Gouverneur, New York, USA
##OWNER=RRUFF
##SOURCE=University of Arizona Mineral Museum
##DESCRIPTION=Group of colorless acicular single crystals
##STATUS=The identification of this mineral has been confirmed by X-ray diffraction and chemical analysis
##URL=rruff.info/R040045
##MEASURED CHEMISTRY=Ca_2.01_(Mg_0.99_Fe_0.01_)_5_(Si_0.99_Fe_0.01_)_8_O_22_(OH)_2_
##PIN_ID=S00030
##ORIENTATION=Laser parallel to c [0 0 1]. Fiducial mark perpendicular to laser is parallel to -b* (0 -1 0)
128.840, 0.000
130.228, 4.037
131.615, 130.607
133.003, 133.116
134.390, 57.640
135.777, 90.823
137.164, 180.568
138.550, 235.478
139.937, 254.571
141.323, 317.131
142.709, 372.607
144.094, 361.226
145.480, 290.694
146.865, 332.693
148.250, 316.365
149.635, 281.527
151.019, 388.021
152.403, 285.707
153.788, 484.472
155.171, 644.215
156.555, 1064.847
157.939, 1346.293
159.322, 1378.483
160.705, 1271.361
162.088, 1134.875
163.470, 1008.982
164.853, 573.643
166.235, 508.979
167.617, 404.787
168.998, 430.938
170.380, 497.748
171.761, 814.832
173.142, 1092.277
174.523, 1490.062
175.904, 1808.171
177.284, 1716.590
178.664, 1645.336
180.044, 1264.350
181.424, 993.617
182.803, 613.129
184.183, 422.871
185.562, 482.834
186.940, 183.010
188.319, 233.393
189.698, 123.971
191.076, 24.742
192.454, 245.693
193.831, 206.824
195.209, 158.127
196.586, 79.600
197.963, 211.242
199.340, 93.049
200.717, 55.020
202.093, 181.289
203.470, 173.496
204.846, 205.854
206.221, 118.359
207.597, 321.395
208.972, 554.180
210.347, 817.139
211.722, 690.230
213.097, 873.354
214.472, 1326.480
215.846, 1659.617
217.220, 2252.869
218.594, 2876.264
219.967, 3779.742
221.341, 4203.316
222.714, 4286.945
224.087, 4070.627
225.460, 4134.619
226.832, 4289.699
228.204, 4763.539
229.577, 5387.449
230.948, 5571.420
232.320, 5285.459
233.692, 4399.566
235.063, 3543.740
236.434, 2757.980
237.805, 2042.289
239.175, 1406.664
240.545, 1031.105
241.916, 865.613
243.286, 1200.184
244.655, 1324.816
246.025, 1429.520
247.394, 1684.279
248.763, 1869.105
250.132, 1893.990
251.501, 1588.932
252.869, 1463.938
254.237, 1038.996
255.605, 894.117
256.973, 759.291
258.340, 644.521
259.708, 639.807
261.075, 595.156
262.442, 540.658
263.808, 496.244
265.175, 331.969
266.541, 277.785
267.907, 253.658
269.273, 269.609
270.639, 105.602
272.004, 61.662
273.369, 147.766
274.734, 116.094
276.099, 170.121
277.463, 6.406
278.828, 102.729
280.192, 129.088
281.556, 115.490
282.919, 11.996
284.283, 8.557
285.646, 24.846
287.009, 41.785
288.372, 78.486
289.734, 96.395
291.097, 120.787
292.459, 41.227
293.821, 137.281
295.183, 121.355
296.544, 144.086
297.905, 238.020
299.266, 331.414
300.627, 305.078
301.988, 308.975
303.348, 403.086
304.709, 418.307
306.069, 415.537
307.428, 388.646
308.788, 386.145
310.147, 321.131
311.507, 319.479
312.865, 164.701
314.224, 150.031
315.583, 75.465
316.941, 240.994
318.299, 46.613
319.657, 17.684
321.015, 248.100
322.372, 56.041
323.729, 29.891
325.086, 155.893
326.443, 101.959
327.800, 88.092
329.156, 164.285
330.512, 310.537
331.868, 116.846
333.224, 173.209
334.579, 249.625
335.935, 196.090
337.290, 412.604
338.645, 289.166
339.999, 485.844
341.354, 432.496
342.708, 479.191
344.062, 405.926
345.416, 872.703
346.769, 779.520
348.123, 1196.371
349.476, 1243.262
350.829, 1160.188
352.182, 1187.148
353.534, 1114.143
354.887, 901.170
356.239, 898.230
357.591, 715.318
358.942, 562.439
360.294, 879.590
361.645, 716.768
362.996, 1163.975
364.347, 1481.207
365.698, 2108.449
367.048, 2705.717
368.398, 2913.008
369.748, 2840.324
371.098, 2397.664
372.448, 2315.025
373.797, 1802.410
375.146, 1489.816
376.495, 1377.244
377.844, 1074.693
379.192, 942.162
380.540, 739.654
381.889, 727.166
383.236, 634.693
384.584, 742.244
385.932, 769.812
387.279, 1067.396
388.626, 1545.000
389.973, 2112.613
391.319, 2552.025
392.666, 2699.145
394.012, 3068.938
395.358, 2656.621
396.704, 2104.316
398.049, 1630.451
399.394, 1188.182
400.740, 908.752
402.084, 648.240
403.429, 566.012
404.774, 566.395
406.118, 625.783
407.462, 703.598
408.806, 721.424
410.150, 1089.428
411.493, 1389.729
412.836, 1997.588
414.179, 2175.656
415.522, 1963.537
416.865, 1971.426
418.207, 1579.520
419.549, 1187.525
420.891, 791.992
422.233, 559.918
423.575, 438.193
424.916, 206.293
426.257, 194.236
427.598, 82.184
428.939, 290.547
430.279, 378.646
431.619, 427.031
432.959, 532.613
434.299, 821.102
435.639, 861.605
436.978, 698.213
438.318, 466.617
439.657, 526.318
440.996, 384.285
442.334, 162.252
443.673, 183.771
445.011, 193.873
446.349, 37.596
447.687, 50.178
449.024, 39.539
450.361, 18.850
451.699, 207.346
453.036, 86.572
454.372, 91.559
455.709, 72.877
457.045, 106.498
458.381, 24.963
459.717, 14.426
461.053, 13.559
462.388, 83.613
463.724, 23.869
465.059, 225.156
466.394, 29.973
467.728, 63.400
469.063, 63.238
470.397, 166.859
471.731, 74.734
473.065, 33.252
474.398, 181.311
475.732, 59.609
477.065, 157.494
478.398, 45.611
479.731, 63.494
481.063, 211.229
482.396, 149.113
483.728, 177.910
485.060, 324.131
486.391, 152.020
487.723, 149.912
489.054, 167.803
490.385, 45.705
491.716, 253.600
493.047, 271.488
494.377, 29.377
495.708, 237.270
497.038, 205.154
498.368, 123.031
499.697, 10.902
501.027, 238.770
502.356, 76.627
503.685, 124.521
505.014, 362.404
506.342, 40.273
507.671, 258.133
508.999, 375.986
510.327, 313.830
511.655, 531.672
512.982, 639.502
514.310, 497.318
515.637, 655.125
516.964, 672.918
518.291, 690.699
519.617, 658.465
520.944, 946.219
522.270, 553.971
523.596, 711.752
524.921, 1129.555
526.247, 1197.346
527.572, 1005.129
528.897, 982.898
530.222, 1110.652
531.547, 888.395
532.871, 866.129
534.196, 353.844
535.520, 621.541
536.844, 259.229
538.167, 346.898
539.491, 134.559
540.814, 112.229
542.137, 149.875
543.460, 157.504
544.783, 195.115
546.105, 177.014
547.427, 250.303
548.749, 127.873
550.071, 4.578
551.393, 56.844
552.714, 79.379
554.035, 118.012
555.356, 185.377
556.677, 106.627
557.998, 230.936
559.318, 41.734
560.638, 85.652
561.958, 222.807
563.278, 9.523
564.597, 7.561
565.917, 175.395
567.236, 152.488
568.555, 89.678
569.874, 3.244
571.192, 293.684
572.511, 91.273
573.829, 198.156
575.147, 275.016
576.464, 103.127
577.782, 129.938
579.099, 63.076
580.416, 203.701
581.733, 80.369
583.050, 127.006
584.366, 183.609
585.683, 190.193
586.999, 76.750
588.315, 143.273
589.630, 79.768
590.946, 73.771
592.261, 62.592
593.576, 8.922
594.891, 75.197
596.206, 91.449
597.520, 27.660
598.834, 213.838
600.148, 229.984
601.462, 3.850
602.776, 22.197
604.089, 78.188
605.402, 223.488
606.715, 19.408
608.028, 114.500
609.341, 91.082
610.653, 46.869
611.965, 7.123
613.277, 66.053
614.589, 39.053
615.901, 84.797
617.212, 40.459
618.523, 50.352
619.834, 26.520
621.145, 22.729
622.456, 8.928
623.766, 65.824
625.076, 37.424
626.386, 36.715
627.696, 15.875
629.006, 121.398
630.315, 214.227
631.624, 199.977
632.933, 144.943
634.242, 313.572
635.551, 198.891
636.859, 294.010
638.167, 449.918
639.475, 375.352
640.783, 313.619
642.090, 498.736
643.398, 594.199
644.705, 441.354
646.012, 526.250
647.318, 844.875
648.625, 759.660
649.931, 854.873
651.237, 1100.545
652.543, 1037.768
653.849, 1262.713
655.155, 1197.457
656.460, 1322.377
657.765, 1318.188
659.070, 1582.662
660.375, 1427.496
661.679, 2051.812
662.984, 2295.676
664.288, 2799.928
665.592, 3645.357
666.895, 4830.426
668.199, 6355.939
669.502, 8040.791
670.805, 10395.289
672.108, 11859.383
673.411, 12613.309
674.713, 11247.320
676.016, 9821.178
677.318, 8105.859
678.620, 6311.941
679.921, 4886.645
681.223, 3848.955
682.524, 2993.193
683.825, 2668.246
685.126, 2242.758
686.427, 2096.262
687.727, 1911.686
689.028, 2006.131
690.328, 1849.947
691.628, 1762.957
692.927, 1517.713
694.227, 1391.521
695.526, 1237.232
696.825, 1105.803
698.124, 778.557
699.423, 912.057
700.721, 595.730
702.020, 829.283
703.318, 845.365
704.616, 528.930
705.913, 451.365
707.211, 356.914
708.508, 544.936
709.805, 541.740
711.102, 603.998
712.399, 248.430
713.695, 323.637
714.992, 375.674
716.288, 344.047
717.584, 566.570
718.879, 270.398
720.175, 559.773
721.470, 211.660
722.765, 383.352
724.060, 355.797
725.355, 378.209
726.649, 527.715
727.944, 241.764
729.238, 413.367
730.532, 435.848
731.825, 137.139
733.119, 630.191
734.412, 361.262
735.705, 386.678
736.998, 538.652
738.291, 649.305
739.584, 590.299
740.876, 703.283
742.168, 645.441
743.460, 796.299
744.752, 737.055
746.043, 647.834
747.334, 661.172
748.626, 911.414
749.916, 700.752
751.207, 890.682
752.498, 580.609
753.788, 582.551
755.078, 582.803
756.368, 403.000
757.658, 489.584
758.947, 427.543
760.237, 296.996
761.526, 476.965
762.815, 304.545
764.104, 233.957
765.392, 533.729
766.680, 352.168
767.969, 187.898
769.257, 406.756
770.544, 374.865
771.832, 183.768
773.119, 231.768
774.406, 10.027
775.693, 217.186
776.980, 204.145
778.267, 400.328
779.553, 393.803
780.839, 205.826
782.125, 339.404
783.411, 256.178
784.697, 134.586
785.982, 183.330
787.267, 361.941
788.552, 9.746
789.837, 258.904
791.122, 297.260
792.406, 125.789
793.690, 204.248
794.974, 7.361
796.258, 260.943
797.542, 169.186
798.825, 17.361
800.108, 285.455
801.391, 16.514
802.674, 291.424
803.957, 179.299
805.239, 107.109
806.522, 5.082
807.804, 212.734
809.085, 250.680
810.367, 198.203
811.649, 66.656
812.930, 284.043
814.211, 118.719
815.492, 319.211
816.772, 436.449
818.053, 315.172
819.333, 92.164
820.613, 130.051
821.893, 77.555
823.173, 146.020
824.452, 203.703
825.732, 291.406
827.011, 320.328
828.290, 294.742
829.568, 353.684
830.847, 160.082
832.125, 50.961
833.403, 112.773
834.681, 75.492
835.959, 231.441
837.236, 107.488
838.514, 164.426
839.791, 371.383
841.068, 67.855
842.345, 153.840
843.621, 259.754
844.898, 460.172
846.174, 105.832
847.450, 232.332
848.726, 37.898
850.001, 25.902
851.277, 449.223
852.552, 254.422
853.827, 199.891
855.102, 215.047
856.376, 10.594
857.651, 185.785
858.925, 460.504
860.199, 14.785
861.473, 259.602
862.746, 184.156
864.020, 428.676
865.293, 63.141
866.566, 126.898
867.839, 490.969
869.112, 235.191
870.384, 269.250
871.656, 83.461
872.928, 397.070
874.200, 101.180
875.472, 604.438
876.744, 238.363
878.015, 192.105
879.286, 325.871
880.557, 39.707
881.828, 332.777
883.098, 166.480
884.369, 460.129
885.639, 72.441
886.909, 445.977
888.178, 219.258
889.448, 202.637
890.717, 496.047
891.987, 369.410
893.256, 62.723
894.524, 135.977
895.793, 299.180
897.061, 372.328
898.330, 285.430
899.598, 328.480
900.865, 361.520
902.133, 124.508
903.401, 687.457
904.668, 470.355
905.935, 3.211
907.202, 516.012
908.468, 488.758
909.735, 611.398
911.001, 404.000
912.267, 726.555
913.533, 468.562
914.799, 701.004
916.064, 502.930
917.330, 274.496
918.595, 486.617
919.860, 608.320
921.124, 889.297
922.389, 511.145
923.653, 1082.793
924.918, 813.586
926.182, 1514.492
927.445, 1641.738
928.709, 2092.477
929.972, 2333.129
931.236, 2154.559
932.499, 2055.961
933.761, 2116.566
935.024, 1267.723
936.286, 1228.488
937.549, 978.633
938.811, 898.996
940.073, 1030.059
941.334, 887.363
942.596, 787.895
943.857, 1018.535
945.118, 988.297
946.379, 1358.449
947.640, 1195.668
948.900, 1195.957
950.161, 665.812
951.421, 703.879
952.681, 494.113
953.940, 750.523
955.200, 460.688
956.459, 360.324
957.719, 289.410
958.978, 526.848
960.236, 256.473
961.495, 396.203
962.753, 115.664
964.012, 344.086
965.270, 116.180
966.527, 143.117
967.785, 292.848
969.043, 32.945
970.300, 372.578
971.557, 100.949
972.814, 159.602
974.071, 27.730
975.327, 96.441
976.583, 85.422
977.840, 64.738
979.095, 35.855
980.351, 236.613
981.607, 392.715
982.862, 195.531
984.117, 371.426
985.372, 19.703
986.627, 160.309
987.882, 251.180
989.136, 58.922
990.390, 47.148
991.644, 96.336
992.898, 193.551
994.152, 191.707
995.405, 49.754
996.659, 219.523
997.912, 46.824
999.165, 204.969
1000.417, 61.098
1001.670, 364.254
1002.922, 223.156
1004.174, 141.293
1005.426, 199.344
1006.678, 86.000
1007.930, 153.723
1009.181, 351.148
1010.432, 230.898
1011.683, 367.770
1012.934, 367.621
1014.185, 515.477
1015.435, 714.055
1016.685, 553.695
1017.935, 1042.574
1019.185, 1209.668
1020.435, 1208.699
1021.684, 1586.652
1022.934, 1564.785
1024.183, 2154.602
1025.432, 2470.633
1026.680, 2849.727
1027.929, 3908.477
1029.177, 3706.301
1030.425, 3885.977
1031.673, 3441.504
1032.921, 2601.012
1034.169, 1990.434
1035.416, 1399.816
1036.663, 808.469
1037.911, 1367.742
1039.157, 796.965
1040.404, 1166.137
1041.650, 885.293
1042.897, 754.438
1044.143, 813.531
1045.389, 692.582
1046.634, 1101.602
1047.880, 1120.582
1049.125, 909.562
1050.371, 1318.512
1051.615, 1297.457
1052.860, 1628.922
1054.105, 1915.312
1055.349, 2324.258
1056.593, 2852.832
1057.837, 3121.230
1059.081, 4088.602
1060.325, 4551.801
1061.568, 3989.199
1062.812, 3815.246
1064.055, 3041.293
1065.298, 2825.535
1066.540, 2210.297
1067.783, 1911.871
1069.025, 1794.469
1070.267, 1969.238
1071.509, 1345.836
1072.751, 1369.402
1073.993, 1054.980
1075.234, 892.664
1076.475, 857.496
1077.716, 692.445
1078.957, 689.527
1080.198, 715.453
1081.438, 550.520
1082.679, 687.645
1083.919, 874.812
1085.159, 481.930
1086.398, 798.969
1087.638, 945.977
1088.877, 642.930
1090.116, 719.828
1091.355, 706.672
1092.594, 1153.441
1093.833, 1040.188
1095.071, 746.809
1096.309, 983.332
1097.547, 739.734
1098.785, 586.008
1100.023, 532.152
1101.260, 348.152
1102.498, 414.008
1103.735, 279.707
1104.972, 345.234
1106.208, 368.504
1107.445, 86.027
1108.681, 371.555
1109.918, 477.082
1111.154, 273.148
1112.389, 640.465
1113.625, 217.898
1114.860, 285.605
1116.096, 333.621
1117.331, 361.738
1118.566, 380.016
1119.800, 158.367
1121.035, 306.801
1122.269, 595.340
1123.503, 404.004
1124.737, 342.820
1125.971, 141.820
1127.205, 41.059
1128.438, 11.316
1129.671, 350.484
1130.904, 59.168
1132.137, 191.711
1133.370, 103.105
1134.602, 94.961
1135.834, 32.711
1137.066, 410.148
1138.298, 133.629
1139.530, 567.844
1140.762, 102.930
1141.993, 159.020
1143.224, 429.543
1144.455, 71.859
1145.686, 782.363
1146.917, 135.734
1148.147, 343.195
1149.377, 223.180
1150.607, 301.426
1151.837, 478.953
1153.067, 0.000
##END=



