##NAMES=Tremolite
##RRUFFID=R040045
##IDEAL CHEMISTRY=[box]Ca_2_Mg_5_Si_8_O_22_(OH)_2_
##LOCALITY=Gouverneur, New York, USA
##OWNER=RRUFF
##SOURCE=University of Arizona Mineral Museum
##DESCRIPTION=Group of colorless acicular single crystals
##STATUS=The identification of this mineral has been confirmed by X-ray diffraction and chemical analysis
##URL=rruff.info/R040045
##MEASURED CHEMISTRY=Ca_2.01_(Mg_0.99_Fe_0.01_)_5_(Si_0.99_Fe_0.01_)_8_O_22_(OH)_2_
##PIN_ID=M00230
##ORIENTATION=Laser parallel to b* (0 1 0). Fiducial mark perpendicular to laser is parallel to -c [0 0 -1]
128.840, 0.000
130.228, 45.010
131.615, 47.623
133.003, 83.374
134.390, 31.643
135.777, 8.299
137.164, 153.104
138.550, 35.681
139.937, 189.186
141.323, 123.398
142.709, 88.171
144.094, 173.396
145.480, 129.112
146.865, 225.743
148.250, 102.590
149.635, 119.673
151.019, 86.907
152.403, 124.276
153.788, 281.771
155.171, 319.382
156.555, 937.100
157.939, 2004.908
159.322, 3142.800
160.705, 3310.767
162.088, 2241.262
163.470, 1055.990
164.853, 483.808
166.235, 361.948
167.617, 301.845
168.998, 360.419
170.380, 269.029
171.761, 577.675
173.142, 766.353
174.523, 1295.062
175.904, 2623.801
177.284, 3562.615
178.664, 4381.503
180.044, 3700.408
181.424, 2099.330
182.803, 1058.266
184.183, 547.216
185.562, 386.178
186.940, 215.152
188.319, 114.137
189.698, 153.131
191.076, 2.133
192.454, 211.143
193.831, 19.841
195.209, 89.185
196.586, 41.781
197.963, 67.265
199.340, 26.325
200.717, 25.811
202.093, 34.923
203.470, 6.405
204.846, 176.255
206.221, 10.842
207.597, 168.286
208.972, 107.476
210.347, 306.814
211.722, 426.166
213.097, 385.518
214.472, 834.859
215.846, 784.216
217.220, 1093.601
218.594, 1662.985
219.967, 2512.379
221.341, 3991.777
222.714, 4841.188
224.087, 4850.609
225.460, 3583.040
226.832, 2122.673
228.204, 1262.053
229.577, 771.436
230.948, 620.819
232.320, 530.202
233.692, 339.583
235.063, 298.970
236.434, 288.354
237.805, 167.736
239.175, 77.115
240.545, 156.492
241.916, 115.872
243.286, 85.253
244.655, 124.625
246.025, 193.978
247.394, 283.326
248.763, 272.673
250.132, 350.182
251.501, 326.143
252.869, 410.669
254.237, 279.995
255.605, 229.316
256.973, 218.657
258.340, 48.002
259.708, 367.353
261.075, 76.712
262.442, 306.084
263.808, 435.483
265.175, 214.953
266.541, 264.479
267.907, 124.029
269.273, 183.605
270.639, 13.179
272.004, 7.162
273.369, 92.483
274.734, 2.138
276.099, 101.807
277.463, 100.906
278.828, 49.308
280.192, 10.349
281.556, 39.522
282.919, 45.185
284.283, 45.066
285.646, 74.530
287.009, 94.848
288.372, 68.639
289.734, 123.731
291.097, 104.040
292.459, 193.890
293.821, 133.086
295.183, 172.966
296.544, 112.178
297.905, 151.319
299.266, 360.694
300.627, 359.303
301.988, 682.570
303.348, 551.868
304.709, 621.457
306.069, 451.162
307.428, 190.523
308.788, 430.578
310.147, 129.969
311.507, 199.776
312.865, 99.769
314.224, 189.185
315.583, 89.963
316.941, 79.392
318.299, 139.284
319.657, 31.228
321.015, 208.354
322.372, 18.074
323.729, 57.642
325.086, 107.080
326.443, 56.508
327.800, 106.114
329.156, 85.860
330.512, 285.264
331.868, 304.776
333.224, 364.171
334.579, 513.871
335.935, 233.263
337.290, 492.650
338.645, 332.550
339.999, 341.935
341.354, 581.435
342.708, 630.813
344.062, 630.189
345.416, 559.632
346.769, 549.001
348.123, 658.365
349.476, 547.835
350.829, 647.193
352.182, 476.972
353.534, 716.320
354.887, 556.074
356.239, 415.414
357.591, 414.244
358.942, 343.771
360.294, 481.661
361.645, 210.981
362.996, 440.296
364.347, 269.688
365.698, 278.988
367.048, 588.231
368.398, 407.464
369.748, 606.346
371.098, 595.550
372.448, 634.746
373.797, 673.936
375.146, 433.479
376.495, 742.654
377.844, 452.211
379.192, 431.396
380.540, 380.589
381.889, 281.299
383.236, 451.090
384.584, 180.934
385.932, 250.193
387.279, 400.075
388.626, 599.501
389.973, 748.681
391.319, 920.511
392.666, 1699.662
394.012, 1829.803
395.358, 1711.373
396.704, 1440.424
398.049, 867.131
399.394, 656.196
400.740, 271.341
402.084, 310.896
403.429, 199.982
404.774, 225.794
406.118, 186.325
407.462, 204.419
408.806, 154.092
410.150, 223.144
411.493, 292.246
412.836, 501.290
414.179, 520.322
415.522, 779.485
416.865, 498.497
418.207, 541.468
419.549, 320.483
420.891, 150.296
422.233, 249.332
423.575, 91.375
424.916, 148.231
426.257, 27.207
427.598, 96.166
428.939, 45.120
430.279, 4.059
431.619, 113.686
432.959, 57.408
434.299, 181.693
435.639, 310.552
436.978, 69.383
438.318, 168.297
439.657, 151.464
440.996, 50.517
442.334, 58.891
443.673, 44.171
445.011, 54.638
446.349, 66.710
447.687, 82.001
449.024, 0.599
450.361, 209.157
451.699, 147.678
453.036, 36.179
454.372, 234.896
455.709, 23.404
457.045, 201.894
458.381, 190.368
459.717, 128.839
461.053, 307.294
462.388, 44.258
463.724, 224.141
465.059, 112.523
466.394, 90.894
467.728, 329.246
469.063, 27.610
470.397, 345.951
471.731, 84.277
473.065, 42.585
474.398, 220.870
475.732, 0.856
477.065, 337.387
478.398, 75.613
479.731, 173.821
481.063, 150.239
482.396, 118.412
483.728, 156.420
485.060, 234.556
486.391, 302.677
487.723, 140.780
489.054, 108.865
490.385, 266.931
491.716, 164.980
493.047, 423.054
494.377, 121.109
495.708, 199.147
497.038, 407.170
498.368, 75.175
499.697, 393.169
501.027, 171.144
502.356, 209.100
503.685, 367.042
505.014, 184.964
506.342, 342.867
507.671, 210.751
508.999, 178.616
510.327, 316.463
511.655, 104.289
512.982, 412.096
514.310, 109.881
515.637, 317.645
516.964, 295.390
518.291, 163.117
519.617, 330.822
520.944, 338.517
522.270, 226.190
523.596, 193.848
524.921, 391.486
526.247, 409.104
527.572, 411.842
528.897, 574.279
530.222, 381.842
531.547, 439.383
532.871, 416.904
534.196, 134.406
535.520, 431.887
536.844, 129.346
538.167, 216.783
539.491, 214.199
540.814, 1.596
542.137, 68.955
543.460, 56.293
544.783, 193.750
546.105, 51.039
547.427, 148.416
548.749, 205.654
550.071, 16.459
551.393, 211.936
552.714, 19.084
554.035, 12.090
555.356, 304.986
556.677, 91.262
557.998, 346.629
559.318, 66.424
560.638, 142.596
561.958, 409.439
563.278, 70.822
564.597, 276.359
565.917, 143.504
567.236, 110.902
568.555, 357.590
569.874, 123.049
571.192, 333.609
572.511, 280.117
573.829, 227.244
575.147, 413.705
576.464, 23.463
577.782, 352.918
579.099, 79.398
580.416, 306.092
581.733, 212.395
583.050, 122.326
584.366, 389.699
585.683, 285.365
586.999, 343.176
588.315, 488.877
589.630, 104.020
590.946, 540.621
592.261, 171.834
593.576, 458.676
594.891, 444.729
596.206, 250.350
597.520, 396.785
598.834, 202.736
600.148, 508.820
601.462, 334.330
602.776, 236.377
604.089, 442.676
605.402, 243.240
606.715, 359.633
608.028, 314.354
609.341, 360.488
610.653, 526.545
611.965, 211.746
613.277, 526.986
614.589, 422.035
615.901, 377.717
617.212, 655.465
618.523, 460.914
619.834, 637.752
621.145, 569.334
622.456, 645.102
623.766, 881.531
625.076, 657.113
626.386, 988.572
627.696, 783.355
629.006, 638.789
630.315, 714.141
631.624, 329.072
632.933, 685.051
634.242, 529.594
635.551, 414.902
636.859, 680.312
638.167, 455.518
639.475, 700.926
640.783, 676.203
642.090, 771.264
643.398, 957.131
644.705, 951.301
646.012, 1033.047
647.318, 1042.736
648.625, 1077.803
649.931, 1093.023
651.237, 1088.037
652.543, 1243.266
653.849, 1309.260
655.155, 1234.199
656.460, 1221.320
657.765, 1086.209
659.070, 1460.957
660.375, 1186.895
661.679, 1551.707
662.984, 1796.426
664.288, 1921.188
665.592, 2825.922
666.895, 3281.090
668.199, 4545.781
669.502, 6180.402
670.805, 7835.047
672.108, 10769.271
673.411, 11774.355
674.713, 11448.941
676.016, 10313.344
677.318, 7327.916
678.620, 6002.562
679.921, 3997.891
681.223, 3102.400
682.524, 2477.086
683.825, 1701.645
685.126, 1676.180
686.427, 1330.691
687.727, 1225.176
689.028, 1409.674
690.328, 784.145
691.628, 1358.238
692.927, 702.734
694.227, 716.748
695.526, 621.100
696.825, 375.414
698.124, 528.174
699.423, 351.820
700.721, 265.381
702.020, 589.490
703.318, 272.943
704.616, 396.807
705.913, 140.883
707.211, 52.268
708.508, 426.299
709.805, 19.305
711.102, 410.842
712.399, 65.139
713.695, 81.162
714.992, 335.068
716.288, 157.141
717.584, 396.156
718.879, 10.113
720.175, 176.844
721.470, 180.498
722.765, 113.654
724.060, 276.643
725.355, 9.785
726.649, 243.695
727.944, 367.197
729.238, 120.678
730.532, 573.994
731.825, 72.574
733.119, 436.836
734.412, 240.168
735.705, 137.332
736.998, 505.865
738.291, 128.773
739.584, 31.332
740.876, 464.480
742.168, 2.387
743.460, 350.707
744.752, 273.779
746.043, 106.129
747.334, 299.160
748.626, 81.781
749.916, 264.787
751.207, 417.773
752.498, 160.650
753.788, 523.592
755.078, 126.225
756.368, 409.123
757.658, 312.000
758.947, 64.734
760.237, 397.578
761.526, 60.330
762.815, 373.152
764.104, 185.957
765.392, 178.736
766.680, 561.490
767.969, 126.008
769.257, 466.623
770.544, 289.234
771.832, 8.172
773.119, 444.377
774.406, 16.908
775.693, 389.406
776.980, 211.902
778.267, 24.371
779.553, 156.814
780.839, 70.770
782.125, 411.576
783.411, 273.902
784.697, 176.207
785.982, 228.490
787.267, 110.754
788.552, 122.990
789.837, 315.209
791.122, 117.408
792.406, 439.582
793.690, 181.738
794.974, 173.871
796.258, 485.979
797.542, 88.068
798.825, 260.135
800.108, 232.178
801.391, 84.201
802.674, 446.203
803.957, 141.818
805.239, 350.055
806.522, 121.904
807.804, 33.732
809.085, 556.428
810.367, 21.787
811.649, 470.115
812.930, 461.840
814.211, 23.549
815.492, 605.514
816.772, 387.180
818.053, 479.020
819.333, 250.648
820.613, 112.285
821.893, 425.805
823.173, 157.799
824.452, 289.377
825.732, 435.367
827.011, 136.914
828.290, 548.664
829.568, 339.070
830.847, 380.555
832.125, 494.812
833.403, 106.256
834.681, 528.406
835.959, 253.211
837.236, 384.600
838.514, 436.689
839.791, 358.041
841.068, 489.379
842.345, 539.650
843.621, 500.955
844.898, 813.639
846.174, 264.910
847.450, 596.166
848.726, 677.730
850.001, 318.957
851.277, 1060.166
852.552, 571.367
853.827, 832.553
855.102, 923.582
856.376, 614.746
857.651, 1125.779
858.925, 1027.014
860.199, 1167.465
861.473, 1068.205
862.746, 639.312
864.020, 1348.707
865.293, 779.807
866.566, 914.193
867.839, 954.377
869.112, 355.469
870.384, 964.428
871.656, 375.523
872.928, 663.695
874.200, 594.357
875.472, 465.025
876.744, 715.402
878.015, 426.451
879.286, 504.795
880.557, 565.768
881.828, 406.854
883.098, 417.295
884.369, 718.361
885.639, 263.029
886.909, 784.098
888.178, 285.033
889.448, 315.717
890.717, 806.764
891.987, 377.221
893.256, 637.104
894.524, 298.135
895.793, 657.293
897.061, 648.312
898.330, 269.322
899.598, 729.648
900.865, 540.648
902.133, 310.865
903.401, 991.844
904.668, 362.811
905.935, 653.291
907.202, 604.207
908.468, 294.457
909.735, 745.096
911.001, 345.688
912.267, 715.410
913.533, 795.977
914.799, 425.564
916.064, 726.014
917.330, 236.119
918.595, 556.184
919.860, 696.600
921.124, 587.492
922.389, 737.887
923.653, 808.260
924.918, 836.527
926.182, 1466.881
927.445, 1185.988
928.709, 2026.318
929.972, 2066.428
931.236, 1835.570
932.499, 2365.430
933.761, 1829.738
935.024, 1280.010
936.286, 1320.270
937.549, 700.166
938.811, 1100.270
940.073, 619.869
941.334, 549.508
942.596, 779.699
943.857, 309.285
945.118, 609.443
946.379, 749.271
947.640, 319.059
948.900, 1169.184
950.161, 288.604
951.421, 778.725
952.681, 618.748
953.940, 388.152
955.200, 658.275
956.459, 418.100
957.719, 288.223
958.978, 747.805
960.236, 6.906
961.495, 727.508
962.753, 144.934
964.012, 355.090
965.270, 376.336
966.527, 115.420
967.785, 435.623
969.043, 135.852
970.300, 186.104
971.557, 361.691
972.814, 18.561
974.071, 91.760
975.327, 301.666
976.583, 58.014
977.840, 282.322
979.095, 131.621
980.351, 128.729
981.607, 510.738
982.862, 350.047
984.117, 458.877
985.372, 28.748
986.627, 40.824
987.882, 609.686
989.136, 30.141
990.390, 200.535
991.644, 320.830
992.898, 128.818
994.152, 471.520
995.405, 8.160
996.659, 262.146
997.912, 592.441
999.165, 102.727
1000.417, 903.018
1001.670, 843.359
1002.922, 673.750
1004.174, 714.201
1005.426, 334.664
1006.678, 265.125
1007.930, 555.602
1009.181, 156.070
1010.432, 496.562
1011.683, 17.080
1012.934, 397.693
1014.185, 608.309
1015.435, 378.934
1016.685, 509.561
1017.935, 770.184
1019.185, 520.807
1020.435, 951.424
1021.684, 572.037
1022.934, 882.654
1024.183, 1123.277
1025.432, 553.916
1026.680, 864.564
1027.929, 815.273
1029.177, 566.051
1030.425, 1386.863
1031.673, 497.699
1032.921, 888.559
1034.169, 739.482
1035.416, 350.459
1036.663, 711.459
1037.911, 492.488
1039.157, 513.547
1040.404, 1034.635
1041.650, 455.748
1042.897, 976.896
1044.143, 888.078
1045.389, 479.363
1046.634, 1180.762
1047.880, 590.648
1049.125, 1041.859
1050.371, 1262.871
1051.615, 1094.068
1052.860, 1555.607
1054.105, 1582.809
1055.349, 2445.846
1056.593, 3726.814
1057.837, 3580.688
1059.081, 5736.129
1060.325, 6328.176
1061.568, 5767.016
1062.812, 5777.318
1064.055, 3808.346
1065.298, 3065.227
1066.540, 2404.367
1067.783, 1444.195
1069.025, 1683.994
1070.267, 1473.764
1071.509, 843.266
1072.751, 1390.889
1073.993, 610.490
1075.234, 970.037
1076.475, 879.531
1077.716, 528.963
1078.957, 1108.330
1080.198, 697.633
1081.438, 656.852
1082.679, 1125.980
1083.919, 385.010
1085.159, 723.922
1086.398, 862.709
1087.638, 591.352
1088.877, 779.840
1090.116, 468.145
1091.355, 336.297
1092.594, 984.246
1093.833, 502.033
1095.071, 659.936
1096.309, 448.990
1097.547, 319.070
1098.785, 739.502
1100.023, 270.471
1101.260, 491.516
1102.498, 622.645
1103.735, 123.961
1104.972, 865.404
1106.208, 577.002
1107.445, 228.785
1108.681, 780.799
1109.918, 33.104
1111.154, 555.779
1112.389, 658.934
1113.625, 2.699
1114.860, 847.170
1116.096, 402.223
1117.331, 337.842
1118.566, 934.105
1119.800, 48.871
1121.035, 619.064
1122.269, 721.557
1123.503, 243.754
1124.737, 871.639
1125.971, 279.803
1127.205, 316.824
1128.438, 667.266
1129.671, 19.227
1130.904, 238.160
1132.137, 0.000
##END=



