##NAMES=Tremolite
##RRUFFID=R050173
##IDEAL CHEMISTRY=[box]Ca_2_Mg_5_Si_8_O_22_(OH)_2_
##LOCALITY=Fort Dauphin, Madagascar
##OWNER=RRUFF
##SOURCE=Marcus Origlieri
##DESCRIPTION=Mass of colorless acicular crystals
##STATUS=The identification of this mineral has been confirmed by X-ray diffraction and chemical analysis
##URL=rruff.info/R050173
##MEASURED CHEMISTRY=[box]Ca_2.00_Mg_5.00_Si_8.00_O_22_(OH)_2_
##PIN_ID=L00129
##ORIENTATION=Laser parallel to -b* (0 -1 0). Fiducial mark perpendicular to laser is parallel to -c [0 0 -1]
100.932, 0.000
102.326, 80.207
103.720, 11.981
105.114, 123.110
106.508, 245.526
107.901, 105.597
109.294, 91.357
110.687, 220.768
112.079, 557.767
113.472, 1137.423
114.864, 1596.743
116.256, 2296.470
117.647, 3016.756
119.039, 4187.285
120.430, 5517.836
121.821, 6448.418
123.211, 6369.546
124.602, 5477.001
125.992, 4254.832
127.382, 3125.246
128.772, 2039.024
130.162, 1290.868
131.551, 692.762
132.940, 416.239
134.329, 182.451
135.718, 73.509
137.106, 174.911
138.494, 196.116
139.882, 266.918
141.270, 168.057
142.657, 209.767
144.045, 94.896
145.432, 124.446
146.819, 24.286
148.205, 45.781
149.592, 5.521
150.978, 2.521
152.364, 80.508
153.749, 28.344
155.135, 51.311
156.520, 276.468
157.905, 400.893
159.290, 594.350
160.674, 616.874
162.059, 408.530
163.443, 359.373
164.826, 139.450
166.210, 148.805
167.593, 87.471
168.977, 335.484
170.360, 643.519
171.742, 1752.105
173.125, 3589.529
174.507, 6386.061
175.889, 9110.806
177.271, 10315.075
178.652, 9704.105
180.034, 8399.733
181.415, 4312.192
182.796, 2245.338
184.176, 1235.144
185.557, 812.216
186.937, 846.710
188.317, 900.539
189.697, 922.386
191.076, 1011.090
192.456, 1102.173
193.835, 1080.648
195.213, 1245.464
196.592, 1190.332
197.970, 1529.745
199.349, 1502.725
200.726, 1524.267
202.104, 1800.766
203.482, 1828.833
204.859, 1811.749
206.236, 1885.718
207.613, 1920.982
208.989, 2048.417
210.366, 1974.543
211.742, 2238.834
213.118, 2188.955
214.493, 2564.885
215.869, 3158.319
217.244, 4401.732
218.619, 6415.129
219.994, 9108.513
221.368, 11091.862
222.742, 11295.193
224.117, 9478.501
225.490, 6771.785
226.864, 4515.014
228.237, 3478.160
229.611, 3391.210
230.984, 3384.160
232.356, 3337.011
233.729, 2799.764
235.101, 2252.416
236.473, 1524.968
237.845, 997.419
239.216, 689.776
240.588, 272.052
241.959, 274.247
243.330, 226.383
244.701, 348.482
246.071, 620.532
247.441, 982.517
248.811, 1284.429
250.181, 1426.273
251.551, 1378.076
252.920, 889.829
254.289, 651.491
255.658, 333.024
257.027, 244.467
258.395, 225.838
259.763, 77.133
261.131, 208.338
262.499, 279.412
263.867, 220.321
265.234, 122.469
266.601, 11.221
267.968, 89.200
269.334, 129.858
270.701, 220.520
272.067, 242.145
273.433, 263.884
274.799, 215.757
276.164, 127.688
277.530, 99.479
278.895, 161.053
280.260, 52.778
281.624, 95.484
282.989, 273.698
284.353, 391.528
285.717, 749.183
287.080, 1446.166
288.444, 1673.056
289.807, 1649.722
291.170, 1266.248
292.533, 702.536
293.896, 368.701
295.258, 194.745
296.620, 90.659
297.982, 286.425
299.344, 532.047
300.705, 617.553
302.067, 792.941
303.428, 658.216
304.789, 523.374
306.149, 468.408
307.510, 233.318
308.870, 328.077
310.230, 252.673
311.589, 306.384
312.949, 200.569
314.308, 194.222
315.667, 197.750
317.026, 197.382
318.385, 227.532
319.743, 203.645
321.101, 306.916
322.459, 360.039
323.817, 413.020
325.174, 605.863
326.532, 748.576
327.889, 1241.554
329.246, 1903.979
330.602, 2426.481
331.958, 2648.850
333.315, 2141.555
334.671, 1654.804
336.026, 1238.006
337.382, 969.714
338.737, 941.315
340.092, 1084.369
341.447, 1416.601
342.802, 1359.381
344.156, 1610.861
345.510, 1533.881
346.864, 1506.071
348.218, 1787.872
349.571, 1908.582
350.925, 2228.676
352.278, 2277.969
353.630, 2186.917
354.983, 1855.534
356.336, 1474.021
357.688, 1482.433
359.040, 1320.783
360.391, 1669.074
361.743, 2007.283
363.094, 3155.354
364.445, 4633.334
365.796, 7201.248
367.147, 9539.086
368.497, 10966.829
369.847, 10144.472
371.197, 8052.004
372.547, 5779.498
373.897, 3977.293
375.246, 2815.812
376.595, 2083.822
377.944, 1602.006
379.293, 1479.833
380.641, 1418.433
381.989, 1448.151
383.337, 1436.245
384.685, 1466.498
386.032, 1867.966
387.380, 2545.908
388.727, 3616.053
390.074, 5043.950
391.421, 7411.992
392.767, 9080.058
394.113, 9168.277
395.459, 7776.324
396.805, 5664.748
398.151, 3772.521
399.496, 2406.324
400.841, 1873.849
402.186, 1391.042
403.531, 1177.925
404.875, 1042.658
406.219, 1056.777
407.564, 1104.709
408.907, 1238.744
410.251, 1525.935
411.594, 1763.240
412.937, 2220.354
414.280, 2697.370
415.623, 2624.242
416.966, 2650.650
418.308, 2115.437
419.650, 1778.447
420.992, 1231.760
422.334, 1061.574
423.675, 964.064
425.016, 666.646
426.357, 658.520
427.698, 638.489
429.038, 514.274
430.379, 583.404
431.719, 570.517
433.059, 792.011
434.399, 781.723
435.738, 752.072
437.077, 673.678
438.416, 590.809
439.755, 489.414
441.094, 464.830
442.432, 420.510
443.770, 396.257
445.108, 457.974
446.446, 471.341
447.783, 606.843
449.121, 601.372
450.458, 686.076
451.795, 1100.496
453.131, 1175.140
454.468, 1538.884
455.804, 2030.993
457.140, 2931.129
458.476, 4028.869
459.811, 5690.151
461.146, 7352.889
462.482, 8465.611
463.816, 8799.320
465.151, 7621.889
466.486, 6053.016
467.820, 4624.463
469.154, 3463.300
470.488, 2503.602
471.821, 1922.401
473.155, 1551.757
474.488, 1349.613
475.821, 1017.283
477.154, 974.931
478.486, 792.560
479.818, 850.614
481.150, 898.192
482.482, 607.051
483.814, 706.279
485.145, 565.875
486.477, 686.278
487.808, 447.209
489.138, 468.620
490.469, 420.009
491.799, 351.332
493.129, 392.587
494.459, 233.774
495.789, 204.889
497.119, 535.928
498.448, 626.906
499.777, 147.823
501.106, 318.663
502.434, 157.008
503.763, 430.139
505.091, 50.782
506.419, 181.354
507.747, 221.855
509.074, 392.297
510.402, 422.677
511.729, 532.999
513.056, 586.920
514.383, 633.486
515.709, 683.652
517.035, 663.772
518.361, 743.842
519.687, 813.869
521.013, 483.848
522.338, 563.785
523.663, 533.674
524.988, 513.522
526.313, 543.350
527.638, 523.128
528.962, 572.855
530.286, 732.535
531.610, 442.200
532.934, 341.817
534.257, 141.401
535.581, 240.932
536.904, 180.445
538.227, 249.902
539.549, 49.311
540.872, 21.345
542.194, 137.976
543.516, 32.764
544.838, 53.580
546.159, 125.511
547.480, 35.458
548.802, 103.494
550.123, 52.390
551.443, 31.225
552.764, 0.004
554.084, 8.706
555.404, 12.646
556.724, 35.934
558.044, 105.548
559.363, 62.869
560.682, 61.227
562.001, 40.472
563.320, 77.762
564.639, 65.946
565.957, 44.088
567.275, 52.179
568.593, 30.212
569.911, 1.813
571.228, 16.101
572.546, 23.954
573.863, 41.748
575.180, 29.484
576.496, 27.163
577.813, 234.792
579.129, 92.380
580.445, 119.927
581.761, 207.449
583.076, 434.934
584.392, 361.704
585.707, 368.420
587.022, 275.045
588.337, 331.174
589.651, 167.670
590.966, 114.209
592.280, 181.689
593.594, 40.771
594.907, 56.814
596.221, 24.354
597.534, 61.637
598.847, 21.425
600.160, 34.487
601.473, 62.305
602.785, 158.989
604.097, 4.096
605.409, 27.165
606.721, 90.282
608.033, 27.657
609.344, 75.063
610.655, 2.894
611.966, 70.194
613.277, 58.401
614.588, 35.927
615.898, 6.466
617.208, 17.256
618.518, 28.628
619.828, 96.052
621.137, 13.965
622.446, 130.938
623.755, 318.611
625.064, 166.233
626.373, 289.213
627.681, 185.144
628.990, 362.171
630.298, 379.492
631.605, 406.221
632.913, 353.927
634.220, 561.303
635.527, 488.185
636.834, 575.535
638.141, 742.723
639.448, 849.749
640.754, 826.947
642.060, 963.600
643.366, 1310.879
644.672, 1358.156
645.977, 1824.744
647.283, 2241.510
648.588, 2638.156
649.892, 3614.178
651.197, 4210.543
652.502, 4646.496
653.806, 4781.828
655.110, 4598.535
656.414, 4455.289
657.717, 4380.432
659.021, 4646.547
660.324, 5111.859
661.627, 5559.227
662.930, 6844.996
664.232, 8830.219
665.534, 10987.387
666.837, 15143.457
668.138, 20369.621
669.440, 28726.264
670.742, 37482.445
672.043, 44869.035
673.344, 45166.184
674.645, 40871.973
675.946, 32360.453
677.246, 24146.705
678.546, 18064.963
679.846, 12641.164
681.146, 9699.217
682.446, 7701.758
683.745, 5957.697
685.045, 4963.469
686.344, 4289.705
687.642, 3473.021
688.941, 3298.961
690.239, 2748.553
691.538, 2634.002
692.836, 2347.914
694.133, 2102.205
695.431, 1848.402
696.728, 1611.701
698.025, 1445.812
699.322, 1509.418
700.619, 1251.596
701.916, 1162.041
703.212, 905.510
704.508, 1087.453
705.804, 801.584
707.100, 925.055
708.395, 888.018
709.690, 801.611
710.985, 714.697
712.280, 642.693
713.575, 670.428
714.869, 500.328
716.164, 553.545
717.458, 567.186
718.751, 348.584
720.045, 331.650
721.338, 345.186
722.632, 408.221
723.925, 561.391
725.217, 511.510
726.510, 537.195
727.802, 460.006
729.095, 522.771
730.386, 455.887
731.678, 481.504
732.970, 431.230
734.261, 494.549
735.552, 687.773
736.843, 651.527
738.134, 745.100
739.424, 769.289
740.715, 783.834
742.005, 807.875
743.295, 901.209
744.584, 1008.650
745.874, 918.000
747.163, 1300.604
748.452, 1564.055
749.741, 1715.207
751.030, 1587.492
752.318, 1549.617
753.607, 1341.871
754.895, 1023.914
756.182, 834.785
757.470, 556.969
758.758, 429.531
760.045, 361.316
761.332, 272.389
762.619, 294.584
763.905, 356.494
765.192, 158.572
766.478, 330.311
767.764, 42.311
769.050, 194.225
770.335, 166.016
771.621, 227.486
772.906, 109.141
774.191, 180.809
775.475, 52.730
776.760, 264.275
778.044, 86.279
779.329, 89.037
780.613, 78.875
781.896, 126.369
783.180, 205.561
784.463, 128.061
785.746, 280.525
787.029, 22.957
788.312, 95.350
789.594, 207.705
790.877, 90.027
792.159, 122.312
793.441, 154.561
794.722, 106.773
796.004, 228.951
797.285, 71.096
798.566, 63.203
799.847, 125.271
801.128, 152.693
802.408, 69.221
803.689, 141.102
804.969, 92.949
806.249, 24.768
807.528, 136.553
808.808, 118.309
810.087, 97.920
811.366, 101.721
812.645, 33.383
813.923, 55.014
815.202, 3.389
816.480, 6.584
817.758, 79.684
819.036, 18.514
820.314, 72.924
821.591, 74.332
822.868, 25.705
824.145, 127.262
825.422, 18.566
826.699, 0.164
827.975, 191.068
829.251, 27.727
830.527, 63.426
831.803, 25.424
833.079, 55.674
834.354, 23.258
835.629, 102.055
836.904, 88.875
838.179, 119.791
839.454, 11.762
840.728, 117.381
842.002, 33.393
843.276, 65.863
844.550, 5.189
845.824, 144.471
847.097, 136.072
848.370, 13.404
849.643, 227.084
850.916, 182.443
852.188, 227.916
853.461, 28.256
854.733, 128.588
856.005, 248.912
857.277, 39.219
858.548, 29.512
859.820, 129.775
861.091, 310.021
862.362, 10.250
863.633, 150.453
864.903, 160.637
866.173, 150.807
867.444, 39.039
868.713, 151.102
869.983, 41.225
871.253, 81.324
872.522, 181.412
873.791, 51.484
875.060, 141.537
876.329, 111.574
877.597, 101.598
878.866, 141.604
880.134, 141.594
881.402, 153.643
882.670, 81.535
883.937, 211.479
885.204, 121.416
886.472, 221.336
887.739, 81.240
889.005, 1.127
890.272, 100.988
891.538, 110.830
892.804, 10.646
894.070, 130.439
895.336, 270.215
896.601, 199.973
897.867, 109.707
899.132, 249.424
900.397, 59.127
901.662, 88.807
902.926, 328.477
904.190, 208.135
905.455, 307.779
906.718, 47.406
907.982, 397.021
909.246, 276.627
910.509, 296.219
911.772, 345.793
913.035, 365.355
914.298, 494.910
915.560, 504.457
916.823, 393.992
918.085, 323.043
919.347, 632.559
920.608, 821.102
921.870, 860.270
923.131, 989.307
924.392, 1448.598
925.653, 1887.381
926.914, 2456.457
928.175, 2914.984
929.435, 3124.391
930.695, 3063.035
931.955, 2931.682
933.215, 2024.920
934.474, 1735.168
935.734, 1354.271
936.993, 1213.037
938.252, 1032.352
939.511, 1050.652
940.769, 1049.244
942.027, 978.293
943.286, 1266.840
944.544, 1275.506
945.801, 1324.301
947.059, 1532.879
948.316, 1101.953
949.573, 910.357
950.830, 958.717
952.087, 627.324
953.344, 276.045
954.600, 624.395
955.856, 953.033
957.112, 1012.123
958.368, 500.254
959.623, 418.844
960.879, 307.842
962.134, 407.008
963.389, 195.418
964.644, 313.902
965.898, 322.094
967.153, 319.330
968.407, 206.402
969.661, 84.658
970.915, 271.092
972.168, 319.293
973.422, 487.492
974.675, 105.484
975.928, 214.699
977.181, 283.004
978.433, 231.398
979.686, 300.395
980.938, 271.986
982.190, 232.555
983.442, 199.109
984.693, 238.236
985.945, 115.059
987.196, 157.025
988.447, 369.400
989.698, 21.217
990.949, 367.125
992.199, 331.410
993.449, 220.059
994.699, 174.199
995.949, 134.316
997.199, 223.404
998.448, 322.975
999.697, 500.656
1000.947, 580.379
1002.195, 377.875
1003.444, 537.201
1004.693, 516.648
1005.941, 735.088
1007.189, 524.422
1008.437, 342.738
1009.684, 710.627
1010.932, 658.924
1012.179, 818.084
1013.426, 835.869
1014.673, 1035.004
1015.920, 1113.693
1017.166, 1532.857
1018.413, 1409.709
1019.659, 1868.773
1020.905, 2337.309
1022.151, 2845.402
1023.396, 3874.510
1024.641, 5303.951
1025.887, 6963.043
1027.132, 8732.873
1028.376, 8832.094
1029.621, 7871.070
1030.865, 6060.566
1032.109, 4539.873
1033.353, 3098.807
1034.597, 2568.873
1035.841, 1938.797
1037.084, 1557.586
1038.327, 1646.863
1039.570, 1124.469
1040.813, 1213.855
1042.056, 1252.209
1043.298, 971.092
1044.540, 940.297
1045.782, 1099.748
1047.024, 968.322
1048.266, 1237.246
1049.507, 1305.977
1050.748, 1784.305
1051.990, 1772.816
1053.230, 2281.721
1054.471, 3390.686
1055.711, 4439.574
1056.952, 5977.889
1058.192, 7366.717
1059.432, 8065.232
1060.671, 7403.973
1061.911, 5852.977
1063.150, 4632.531
1064.389, 4241.840
1065.628, 4051.139
1066.867, 4420.848
1068.105, 5269.689
1069.344, 5068.289
1070.582, 4636.863
1071.820, 3755.279
1073.058, 2804.418
1074.295, 2182.729
1075.532, 1782.098
1076.770, 1580.312
1078.007, 1279.252
1079.243, 1147.994
1080.480, 1166.998
1081.716, 926.207
1082.953, 1055.322
1084.189, 1344.230
1085.424, 1583.355
1086.660, 1171.658
1087.895, 860.014
1089.131, 869.426
1090.366, 367.680
1091.601, 677.283
1092.835, 505.199
1094.070, 504.451
1095.304, 342.500
1096.538, 430.436
1097.772, 409.555
1099.005, 367.932
1100.239, 476.615
1101.472, 165.146
1102.705, 273.939
1103.938, 392.242
1105.171, 71.146
1106.404, 428.930
1107.636, 608.027
1108.868, 116.004
1110.100, 54.408
1111.332, 262.824
1112.563, 150.328
1113.795, 299.312
1115.026, 396.609
1116.257, 383.223
1117.488, 362.355
1118.718, 469.537
1119.949, 527.475
1121.179, 616.869
1122.409, 253.994
1123.639, 62.459
1124.868, 171.152
1126.098, 8.814
1127.327, 177.543
1128.556, 144.973
1129.785, 145.986
1131.014, 141.961
1132.242, 9.174
1133.470, 107.273
1134.699, 184.953
1135.927, 86.893
1137.154, 9.986
1138.382, 136.123
1139.609, 67.084
1140.836, 130.328
1142.063, 229.238
1143.290, 54.023
1144.517, 300.689
1145.743, 30.381
1146.969, 87.912
1148.195, 87.070
1149.421, 135.912
1150.647, 184.311
1151.872, 8.697
1153.097, 299.205
1154.322, 191.648
1155.547, 249.199
1156.772, 446.742
1157.996, 443.533
1159.221, 231.951
1160.445, 468.834
1161.669, 165.180
1162.892, 282.602
1164.116, 159.455
1165.339, 26.225
1166.562, 204.971
1167.785, 221.504
1169.008, 415.465
1170.231, 247.951
1171.453, 51.510
1172.675, 232.434
1173.897, 53.240
1175.119, 190.117
1176.341, 287.408
1177.562, 164.217
1178.783, 219.248
1180.004, 235.189
1181.225, 92.455
1182.446, 36.852
1183.666, 391.785
1184.887, 146.096
1186.107, 561.111
1187.327, 137.941
1188.546, 393.873
1189.766, 173.453
1190.985, 223.180
1192.204, 242.625
1193.423, 448.885
1194.642, 273.896
1195.861, 408.111
1197.079, 386.809
1198.297, 384.619
1199.515, 434.264
1200.733, 416.371
1201.951, 430.285
1203.168, 414.951
1204.385, 439.305
1205.602, 539.160
1206.819, 463.352
1208.036, 395.873
1209.253, 279.553
1210.469, 332.564
1211.685, 332.098
1212.901, 230.639
1214.117, 433.883
1215.332, 487.041
1216.548, 489.863
1217.763, 522.010
1218.978, 344.154
1220.193, 536.920
1221.407, 279.391
1222.622, 644.162
1223.836, 377.090
1225.050, 418.375
1226.264, 349.656
1227.477, 303.922
1228.691, 326.438
1229.904, 379.426
1231.117, 320.979
1232.330, 512.740
1233.543, 494.455
1234.755, 236.004
1235.968, 507.127
1237.180, 179.174
1238.392, 580.457
1239.604, 251.283
1240.815, 531.225
1242.027, 551.041
1243.238, 261.369
1244.449, 430.939
1245.660, 351.646
1246.871, 383.668
1248.081, 322.662
1249.291, 432.336
1250.501, 283.355
1251.711, 541.699
1252.921, 222.777
1254.131, 481.625
1255.340, 370.035
1256.549, 358.098
1257.758, 566.697
1258.967, 204.836
1260.175, 783.408
1261.384, 352.072
1262.592, 550.885
1263.800, 529.914
1265.008, 418.785
1266.216, 127.574
1267.423, 595.344
1268.630, 214.141
1269.838, 202.992
1271.044, 440.080
1272.251, 187.004
1273.458, 473.869
1274.664, 141.350
1275.870, 310.697
1277.076, 477.521
1278.282, 253.176
1279.488, 299.086
1280.693, 225.135
1281.898, 507.807
1283.103, 412.775
1284.308, 231.836
1285.513, 341.777
1286.717, 96.762
1287.922, 482.039
1289.126, 45.518
1290.330, 49.703
1291.534, 253.615
1292.737, 67.648
1293.940, 81.404
1295.144, 275.109
1296.347, 138.891
1297.549, 151.545
1298.752, 14.494
1299.955, 178.785
1301.157, 172.164
1302.359, 305.797
1303.561, 79.320
1304.762, 252.234
1305.964, 365.488
1307.165, 147.852
1308.366, 210.543
1309.567, 212.582
1310.768, 126.062
1311.969, 235.805
1313.169, 52.398
1314.369, 30.133
1315.569, 48.590
1316.769, 8.051
1317.969, 166.941
1319.168, 123.176
1320.368, 83.723
1321.567, 114.520
1322.766, 424.672
1323.965, 194.926
1325.163, 65.117
1326.361, 514.555
1327.560, 363.617
1328.758, 494.031
1329.955, 303.266
1331.153, 63.582
1332.351, 122.492
1333.548, 8.770
1334.745, 12.812
1335.942, 10.133
1337.139, 68.547
1338.335, 177.953
1339.531, 326.496
1340.728, 164.531
1341.923, 65.887
1343.119, 237.438
1344.315, 260.953
1345.510, 289.141
1346.706, 139.449
1347.901, 165.211
1349.095, 36.867
1350.290, 161.234
1351.485, 508.965
1352.679, 103.691
1353.873, 342.965
1355.067, 139.738
1356.261, 106.387
1357.454, 212.488
1358.648, 209.336
1359.841, 265.262
1361.034, 403.152
1362.227, 380.055
1363.420, 206.109
1364.612, 252.871
1365.804, 18.461
1366.996, 135.094
1368.188, 460.891
1369.380, 436.770
1370.572, 17.711
1371.763, 377.496
1372.954, 162.730
1374.145, 268.117
1375.336, 193.188
1376.527, 179.004
1377.717, 194.691
1378.907, 269.258
1380.098, 94.930
1381.287, 179.203
1382.477, 265.141
1383.667, 450.094
1384.856, 456.883
1386.045, 313.422
1387.234, 466.484
1388.423, 177.004
1389.612, 36.988
1390.800, 646.816
1391.988, 366.668
1393.176, 96.703
1394.364, 746.895
1395.552, 76.387
1396.740, 576.129
1397.927, 455.895
1399.114, 454.145
1400.301, 511.078
1401.488, 488.715
1402.675, 449.625
1403.861, 408.035
1405.047, 350.965
1406.233, 278.578
1407.419, 253.629
1408.605, 248.691
1409.791, 667.152
1410.976, 180.250
1412.161, 51.895
1413.346, 566.285
1414.531, 284.027
1415.715, 517.691
1416.900, 230.695
1418.084, 515.680
1419.268, 328.805
1420.452, 546.695
1421.636, 430.328
1422.819, 755.766
1424.003, 202.543
1425.186, 452.090
1426.369, 414.180
1427.552, 53.719
1428.734, 538.023
1429.917, 841.742
1431.099, 469.891
1432.281, 557.688
1433.463, 659.805
1434.645, 660.730
1435.826, 327.672
1437.008, 629.066
1438.189, 277.992
1439.370, 627.227
1440.551, 487.426
1441.731, 920.617
1442.912, 296.734
1444.092, 564.719
1445.272, 554.262
1446.452, 523.070
1447.632, 446.926
1448.811, 755.117
1449.991, 456.305
1451.170, 693.895
1452.349, 900.766
1453.528, 626.730
1454.706, 251.824
1455.885, 597.879
1457.063, 757.504
1458.241, 895.879
1459.419, 437.434
1460.597, 625.633
1461.775, 800.406
1462.952, 554.176
1464.129, 671.488
1465.306, 489.023
1466.483, 845.105
1467.660, 258.551
1468.836, 731.074
1470.012, 344.770
1471.189, 825.684
1472.365, 689.848
1473.540, 533.062
1474.716, 447.094
1475.891, 882.500
1477.067, 426.500
1478.242, 488.141
1479.416, 863.336
1480.591, 578.441
1481.766, 503.660
1482.940, 749.863
1484.114, 436.434
1485.288, 813.188
1486.462, 280.137
1487.635, 526.965
1488.809, 273.828
1489.982, 470.848
1491.155, 387.867
1492.328, 104.984
1493.501, 492.004
1494.673, 619.172
1495.846, 216.465
1497.018, 293.820
1498.190, 661.293
1499.362, 359.121
1500.533, 267.410
1501.705, 436.102
1502.876, 145.152
1504.047, 504.777
1505.218, 364.844
1506.389, 15.320
1507.560, 426.195
1508.730, 487.535
1509.900, 49.387
1511.070, 291.852
1512.240, 275.051
1513.410, 439.113
1514.579, 478.754
1515.749, 300.320
1516.918, 547.719
1518.087, 286.559
1519.255, 327.137
1520.424, 199.875
1521.592, 176.066
1522.761, 434.031
1523.929, 17.289
1525.097, 436.809
1526.264, 2.734
1527.432, 0.000
##END=



