##NAMES=Tremolite
##RRUFFID=R050167
##IDEAL CHEMISTRY=[box]Ca_2_Mg_5_Si_8_O_22_(OH)_2_
##LOCALITY=Hunza Valley, Afghanistan
##OWNER=RRUFF
##SOURCE=Marcus Origlieri
##DESCRIPTION=Green tabular crystals
##STATUS=The identification of this mineral has been confirmed by X-ray diffraction and chemical analysis
##URL=rruff.info/R050167
##MEASURED CHEMISTRY=  ([box]_0.90_Na_0.10_)(Ca_0.98_Mg_0.01_Fe^2+^_0.01_)_2_(Mg_0.94_Al_0.06_)_5_(Si_0.95_Al_0.05_)_8_O_22_((OH)_0.98_F_0.02_)_2_
##PIN_ID=L00522
##ORIENTATION=Laser parallel to -a* (-1 0 0). Fiducial mark perpendicular to laser is parallel to b [0 1 0]
85.929, 0.000
87.329, 112.941
88.728, 88.834
90.128, 71.250
91.527, 32.078
92.926, 17.602
94.324, 2.623
95.723, 15.370
97.121, 11.938
98.519, 18.057
99.917, 8.335
101.314, 13.855
102.712, 76.280
104.109, 136.426
105.505, 256.134
106.902, 323.271
108.298, 366.719
109.694, 524.369
111.090, 692.121
112.486, 820.892
113.881, 1185.604
115.277, 1623.191
116.672, 2221.595
118.066, 2753.765
119.461, 3292.656
120.855, 3419.228
122.249, 3509.448
123.643, 3104.281
125.036, 2549.701
126.430, 1886.680
127.823, 1396.194
129.216, 975.207
130.608, 668.676
132.001, 393.566
133.393, 367.851
134.785, 290.510
136.176, 299.567
137.568, 337.971
138.959, 412.701
140.350, 483.746
141.741, 643.100
143.131, 674.755
144.521, 638.704
145.911, 524.942
147.301, 363.460
148.691, 201.252
150.080, 200.312
151.469, 188.635
152.858, 378.214
154.247, 699.045
155.635, 1283.123
157.024, 2099.441
158.411, 3284.998
159.799, 4404.785
161.187, 4941.801
162.574, 4331.043
163.961, 3504.502
165.348, 2764.177
166.734, 2088.065
168.121, 1887.168
169.507, 1849.439
170.893, 2218.729
172.278, 2754.040
173.664, 3472.376
175.049, 4570.748
176.434, 5560.178
177.819, 6272.681
179.203, 5950.270
180.587, 5126.948
181.971, 4002.725
183.355, 3057.604
184.739, 2342.577
186.122, 1762.189
187.505, 1628.391
188.888, 1365.716
190.271, 1334.168
191.653, 1242.750
193.035, 1171.460
194.417, 1183.305
195.799, 1007.283
197.180, 818.412
198.562, 755.706
199.943, 879.130
201.324, 863.683
202.704, 936.362
204.084, 1186.166
205.465, 1434.094
206.844, 1900.146
208.224, 2424.319
209.603, 3196.613
210.983, 4089.028
212.362, 5029.562
213.740, 6160.214
215.119, 6950.984
216.497, 7691.869
217.875, 8692.871
219.253, 9873.985
220.631, 11495.213
222.008, 12106.550
223.385, 12687.993
224.762, 12079.552
226.139, 11751.217
227.515, 12032.986
228.891, 13184.865
230.267, 15556.846
231.643, 17568.936
233.018, 19441.115
234.394, 19513.400
235.769, 17745.785
237.144, 15088.274
238.518, 11740.856
239.893, 9273.534
241.267, 7186.308
242.641, 6119.176
244.014, 5672.138
245.388, 5745.217
246.761, 6508.463
248.134, 7231.908
249.507, 8165.537
250.879, 8499.335
252.252, 8047.936
253.624, 7136.603
254.996, 5875.311
256.367, 4830.076
257.739, 3939.786
259.110, 3369.661
260.481, 2794.542
261.852, 2474.508
263.222, 2247.385
264.592, 1795.103
265.962, 1463.382
267.332, 1167.847
268.702, 898.488
270.071, 649.298
271.440, 535.271
272.809, 374.402
274.178, 263.704
275.546, 179.165
276.915, 86.781
278.283, 43.555
279.650, 24.496
281.018, 60.394
282.385, 18.118
283.752, 44.675
285.119, 14.913
286.486, 55.643
287.852, 94.523
289.218, 155.553
290.584, 132.722
291.950, 105.012
293.316, 199.418
294.681, 223.991
296.046, 209.626
297.411, 410.375
298.775, 558.221
300.140, 772.161
301.504, 1063.556
302.868, 1134.681
304.231, 1272.871
305.595, 1148.014
306.958, 1083.344
308.321, 1059.966
309.684, 986.472
311.047, 924.052
312.409, 825.940
313.771, 743.666
315.133, 646.464
316.495, 450.332
317.856, 492.268
319.217, 346.271
320.578, 387.342
321.939, 429.478
323.299, 390.677
324.660, 518.941
326.020, 420.266
327.380, 497.652
328.739, 579.098
330.099, 725.603
331.458, 765.167
332.817, 681.786
334.176, 843.463
335.534, 793.196
336.892, 843.985
338.251, 911.830
339.608, 1043.853
340.966, 1281.810
342.323, 1332.822
343.681, 1730.890
345.037, 1826.012
346.394, 2060.188
347.751, 2369.418
349.107, 2547.697
350.463, 2906.025
351.819, 2981.406
353.174, 2971.838
354.530, 2804.321
355.885, 2552.855
357.240, 2313.438
358.594, 2205.072
359.949, 2424.754
361.303, 2669.482
362.657, 3103.260
364.011, 3785.083
365.365, 4740.952
366.718, 5927.865
368.071, 6974.822
369.424, 7931.824
370.777, 8288.869
372.129, 8005.957
373.481, 7283.084
374.833, 6340.256
376.185, 5577.468
377.537, 4874.718
378.888, 4314.009
380.239, 3985.338
381.590, 3692.707
382.941, 3870.111
384.291, 3936.554
385.642, 4470.031
386.992, 5186.546
388.341, 6474.096
389.691, 8231.682
391.040, 10059.301
392.389, 12176.949
393.738, 13354.636
395.087, 13402.354
396.435, 11940.099
397.784, 9757.881
399.132, 7665.692
400.479, 5833.532
401.827, 4677.471
403.174, 3843.366
404.521, 3471.488
405.868, 3342.590
407.215, 3405.860
408.561, 3885.658
409.908, 4537.688
411.254, 5420.573
412.599, 6409.012
413.945, 7534.996
415.290, 8595.176
416.636, 8705.494
417.980, 8524.244
419.325, 7794.509
420.670, 6663.174
422.014, 5612.525
423.358, 4626.932
424.702, 3773.421
426.045, 3305.908
427.389, 2908.434
428.732, 2662.995
430.075, 2550.591
431.417, 2683.281
432.760, 2891.096
434.102, 3018.491
435.444, 3097.378
436.786, 2791.444
438.127, 2556.998
439.469, 1852.320
440.810, 1412.992
442.151, 980.384
443.492, 687.569
444.832, 538.051
446.172, 320.088
447.512, 232.230
448.852, 199.863
450.192, 36.483
451.531, 52.767
452.870, 76.464
454.209, 24.923
455.548, 2.821
456.887, 13.342
458.225, 35.398
459.563, 34.217
460.901, 11.774
462.238, 27.118
463.576, 0.997
464.913, 15.119
466.250, 48.750
467.587, 52.619
468.923, 91.492
470.259, 15.622
471.596, 35.743
472.931, 17.130
474.267, 63.999
475.603, 35.133
476.938, 74.272
478.273, 65.414
479.608, 105.560
480.942, 198.708
482.276, 229.858
483.611, 361.012
484.944, 348.167
486.278, 443.324
487.612, 452.483
488.945, 355.644
490.278, 309.806
491.611, 321.968
492.943, 231.167
494.276, 184.367
495.608, 48.568
496.940, 105.791
498.271, 55.016
499.603, 5.751
500.934, 78.478
502.265, 145.704
503.596, 88.938
504.927, 184.187
506.257, 316.446
507.587, 386.701
508.917, 679.952
510.247, 848.200
511.577, 1149.452
512.906, 1512.704
514.235, 1824.948
515.564, 2052.193
516.892, 2266.445
518.221, 2327.689
519.549, 2503.930
520.877, 2508.169
522.205, 2558.396
523.533, 2463.613
524.860, 2526.820
526.187, 2803.015
527.514, 2776.199
528.841, 2948.368
530.167, 2911.527
531.493, 2618.671
532.820, 2265.804
534.145, 1867.921
535.471, 1470.024
536.796, 1227.115
538.122, 975.190
539.447, 763.250
540.771, 554.293
542.096, 495.323
543.420, 433.336
544.744, 344.333
546.068, 300.312
547.392, 198.278
548.715, 227.227
550.039, 222.159
551.362, 107.073
552.684, 98.968
554.007, 64.847
555.329, 76.707
556.652, 62.547
557.973, 82.368
559.295, 41.168
560.617, 71.052
561.938, 20.348
563.259, 37.694
564.580, 67.100
565.901, 83.583
567.221, 42.153
568.541, 59.790
569.861, 55.502
571.181, 42.708
572.501, 85.110
573.820, 9.978
575.139, 10.021
576.458, 48.019
577.777, 15.985
579.095, 58.905
580.414, 41.795
581.732, 131.647
583.049, 86.473
584.367, 148.271
585.685, 106.041
587.002, 124.784
588.319, 141.499
589.636, 102.187
590.952, 93.843
592.268, 71.469
593.585, 18.941
594.900, 12.572
596.216, 6.025
597.532, 20.587
598.847, 72.278
600.162, 98.077
601.477, 100.998
602.792, 114.041
604.106, 45.214
605.420, 40.483
606.734, 78.847
608.048, 93.327
609.361, 54.930
610.675, 3.361
611.988, 8.579
613.301, 35.277
614.614, 59.732
615.926, 1.728
617.238, 72.646
618.550, 82.515
619.862, 264.336
621.174, 254.754
622.485, 216.555
623.797, 295.274
625.108, 310.090
626.418, 406.763
627.729, 439.188
629.039, 421.773
630.349, 512.553
631.659, 502.835
632.969, 686.316
634.279, 782.763
635.588, 827.176
636.897, 969.554
638.206, 1088.896
639.515, 1226.204
640.823, 1362.774
642.131, 1537.013
643.439, 1813.610
644.747, 2148.018
646.055, 2429.381
647.362, 2738.908
648.669, 3160.265
649.976, 3583.897
651.283, 3976.526
652.589, 4637.115
653.896, 5047.413
655.202, 5673.043
656.508, 6280.538
657.814, 6825.631
659.119, 7840.779
660.424, 9008.474
661.729, 10357.216
663.034, 12415.640
664.339, 15010.683
665.643, 18675.609
666.947, 23091.174
668.251, 28927.734
669.555, 35863.918
670.859, 41938.527
672.162, 47474.633
673.465, 48682.621
674.768, 46607.125
676.071, 41292.973
677.373, 34338.500
678.676, 27362.686
679.978, 21547.027
681.280, 17341.135
682.581, 13855.311
683.883, 10979.513
685.184, 9343.503
686.485, 7527.506
687.786, 6681.417
689.087, 5715.562
690.387, 4959.393
691.687, 4573.239
692.987, 3957.301
694.287, 3475.015
695.586, 3232.688
696.886, 2756.534
698.185, 2595.271
699.484, 2284.127
700.783, 2091.683
702.081, 1970.335
703.379, 1722.529
704.677, 1643.130
705.975, 1554.835
707.273, 1471.193
708.570, 1370.550
709.868, 1163.594
711.165, 1284.801
712.462, 1214.150
713.758, 1141.466
715.055, 983.690
716.351, 1081.815
717.647, 936.893
718.943, 914.865
720.238, 899.908
721.533, 954.654
722.829, 837.267
724.124, 918.494
725.418, 817.278
726.713, 936.199
728.007, 854.549
729.301, 928.343
730.595, 894.949
731.889, 1024.429
733.182, 1175.487
734.476, 1345.039
735.769, 1452.205
737.061, 1780.692
738.354, 2028.134
739.647, 2212.502
740.939, 2343.879
742.231, 2247.222
743.523, 2276.533
744.814, 2274.812
746.106, 2280.000
747.397, 2400.062
748.688, 2350.546
749.978, 2337.537
751.269, 2171.348
752.559, 1896.669
753.849, 1687.220
755.139, 1496.418
756.429, 1281.892
757.719, 1128.081
759.008, 995.355
760.297, 760.854
761.586, 717.558
762.875, 689.767
764.163, 557.981
765.451, 549.525
766.739, 472.648
768.027, 376.001
769.315, 374.548
770.602, 223.179
771.890, 245.908
773.177, 296.865
774.463, 174.074
775.750, 163.721
777.036, 124.350
778.323, 139.957
779.609, 146.545
780.894, 244.117
782.180, 164.675
783.465, 221.224
784.750, 79.753
786.035, 171.262
787.320, 152.752
788.605, 156.224
789.889, 190.677
791.173, 145.113
792.457, 288.529
793.741, 190.928
795.024, 57.309
796.307, 176.669
797.591, 32.012
798.873, 68.334
800.156, 69.638
801.439, 20.921
802.721, 52.184
804.003, 119.572
805.285, 7.581
806.566, 6.709
807.848, 70.185
809.129, 2.857
810.410, 28.125
811.691, 17.853
812.971, 23.812
814.252, 35.246
815.532, 53.347
816.812, 49.500
818.092, 7.299
819.371, 26.080
820.651, 8.156
821.930, 25.417
823.209, 20.713
824.488, 56.961
825.766, 22.379
827.045, 53.750
828.323, 51.833
829.601, 22.599
830.878, 19.059
832.156, 130.456
833.433, 48.957
834.710, 105.445
835.987, 66.921
837.264, 50.384
838.540, 130.834
839.817, 75.273
841.093, 209.701
842.369, 20.118
843.644, 149.521
844.920, 69.916
846.195, 7.300
847.470, 109.672
848.745, 98.037
850.020, 26.392
851.294, 41.738
852.568, 3.075
853.842, 63.403
855.116, 29.725
856.390, 18.964
857.663, 20.337
858.936, 3.372
860.209, 56.909
861.482, 46.184
862.755, 22.546
864.027, 60.711
865.299, 15.965
866.571, 13.213
867.843, 24.466
869.115, 37.719
870.386, 21.972
871.657, 130.253
872.928, 5.453
874.199, 135.865
875.470, 39.220
876.740, 2.605
878.010, 99.010
879.280, 45.443
880.550, 114.901
881.820, 120.361
883.089, 189.855
884.358, 236.359
885.627, 212.876
886.896, 325.395
888.164, 264.942
889.433, 354.494
890.701, 392.055
891.969, 329.646
893.236, 437.237
894.504, 494.839
895.771, 496.450
897.038, 555.062
898.305, 536.688
899.572, 646.313
900.838, 656.950
902.105, 686.592
903.371, 831.258
904.637, 810.972
905.902, 948.705
907.168, 943.472
908.433, 1068.295
909.698, 1208.166
910.963, 1253.085
912.228, 1273.066
913.492, 1347.081
914.757, 1425.135
916.021, 1647.252
917.285, 1819.414
918.548, 1909.617
919.812, 2385.842
921.075, 2531.090
922.338, 3125.385
923.601, 3386.691
924.864, 4088.021
926.126, 4729.367
927.388, 5210.720
928.650, 5862.075
929.912, 6193.369
931.174, 5954.728
932.435, 5696.090
933.697, 4867.455
934.958, 4188.822
936.218, 3590.192
937.479, 2941.335
938.739, 2622.708
940.000, 2421.085
941.260, 2242.463
942.520, 2292.843
943.779, 2110.226
945.039, 2229.609
946.298, 2157.999
947.557, 2161.094
948.816, 2211.488
950.074, 2006.489
951.333, 1811.645
952.591, 1732.813
953.849, 1444.783
955.107, 1427.890
956.365, 1163.688
957.622, 1134.454
958.879, 1325.226
960.136, 1056.257
961.393, 825.918
962.650, 795.682
963.906, 744.690
965.162, 794.730
966.418, 645.191
967.674, 597.562
968.930, 682.226
970.185, 586.229
971.441, 637.313
972.696, 654.724
973.950, 617.103
975.205, 689.826
976.459, 636.069
977.714, 707.793
978.968, 594.602
980.222, 748.848
981.475, 696.721
982.729, 703.871
983.982, 773.328
985.235, 822.595
986.488, 721.059
987.740, 875.419
988.993, 852.723
990.245, 860.196
991.497, 964.711
992.749, 959.230
994.000, 1162.439
995.252, 1203.305
996.503, 1275.862
997.754, 1519.343
999.005, 1541.305
1000.256, 1723.806
1001.506, 1956.626
1002.756, 1974.458
1004.006, 2292.262
1005.256, 2494.635
1006.506, 2645.979
1007.755, 2857.788
1009.005, 2949.331
1010.254, 3220.917
1011.502, 3502.952
1012.751, 3585.266
1014.000, 3746.524
1015.248, 3769.069
1016.496, 3961.192
1017.744, 4165.537
1018.991, 4358.745
1020.239, 4881.654
1021.486, 5075.068
1022.733, 5587.397
1023.980, 6632.055
1025.227, 7416.773
1026.473, 8809.413
1027.719, 9791.841
1028.965, 10384.957
1030.211, 10537.311
1031.457, 9600.030
1032.702, 8532.274
1033.948, 7614.971
1035.193, 6378.181
1036.438, 5900.180
1037.682, 4957.044
1038.927, 4469.934
1040.171, 4373.210
1041.415, 4032.133
1042.659, 4184.874
1043.903, 4129.624
1045.146, 4093.821
1046.390, 4406.259
1047.633, 4471.507
1048.876, 4783.794
1050.118, 5098.043
1051.361, 5190.513
1052.603, 5822.593
1053.845, 6082.391
1055.087, 6454.799
1056.329, 6958.978
1057.571, 6854.748
1058.812, 7237.489
1060.053, 6939.584
1061.294, 6533.936
1062.535, 6326.194
1063.775, 5789.557
1065.016, 5786.187
1066.256, 5947.807
1067.496, 5560.445
1068.736, 5512.684
1069.975, 5174.844
1071.214, 4619.927
1072.454, 4022.027
1073.693, 3283.933
1074.931, 2727.150
1076.170, 2428.637
1077.408, 2030.796
1078.647, 1772.848
1079.885, 1436.630
1081.122, 1241.340
1082.360, 1310.824
1083.597, 995.011
1084.835, 888.341
1086.072, 950.953
1087.308, 647.667
1088.545, 824.893
1089.781, 615.413
1091.018, 639.283
1092.254, 644.057
1093.490, 565.792
1094.725, 560.421
1095.961, 580.031
1097.196, 516.849
1098.431, 514.486
1099.666, 484.606
1100.900, 472.439
1102.135, 597.854
1103.369, 355.591
1104.603, 465.250
1105.837, 408.408
1107.071, 361.903
1108.304, 559.548
1109.538, 436.777
1110.771, 416.301
1112.004, 371.460
1113.236, 409.021
1114.469, 467.476
1115.701, 411.021
1116.933, 350.794
1118.165, 401.371
1119.397, 333.645
1120.629, 500.946
1121.860, 386.960
1123.091, 378.438
1124.322, 354.550
1125.553, 376.453
1126.783, 210.445
1128.014, 420.762
1129.244, 266.308
1130.474, 315.456
1131.704, 258.178
1132.933, 269.105
1134.163, 330.487
1135.392, 290.909
1136.621, 202.748
1137.850, 267.987
1139.079, 185.694
1140.307, 201.249
1141.535, 303.658
1142.763, 122.899
1143.991, 191.268
1145.219, 150.876
1146.446, 112.230
1147.674, 241.455
1148.901, 99.884
1150.128, 116.684
1151.354, 88.274
1152.581, 16.270
1153.807, 232.947
1155.033, 2.588
1156.259, 183.840
1157.485, 142.596
1158.710, 110.439
1159.936, 40.758
1161.161, 121.543
1162.386, 6.606
1163.611, 66.378
1164.835, 40.902
1166.060, 19.207
1167.284, 10.236
1168.508, 22.284
1169.732, 69.267
1170.955, 43.735
1172.179, 39.219
1173.402, 4.906
1174.625, 12.967
1175.848, 9.483
1177.070, 77.387
1178.293, 6.782
1179.515, 104.335
1180.737, 11.834
1181.959, 9.057
1183.181, 164.326
1184.402, 67.132
1185.624, 0.394
1186.845, 8.580
1188.066, 98.374
1189.286, 11.306
1190.507, 30.879
1191.727, 21.662
1192.947, 55.945
1194.167, 37.414
1195.387, 90.768
1196.607, 20.729
1197.826, 45.661
1199.045, 135.537
1200.264, 107.887
1201.483, 55.735
1202.702, 17.781
1203.920, 42.783
1205.138, 11.755
1206.356, 120.025
1207.574, 18.935
1208.792, 78.791
1210.009, 2.660
1211.227, 54.511
1212.444, 223.256
1213.661, 21.115
1214.877, 68.645
1216.094, 83.663
1217.310, 29.005
1218.526, 90.377
1219.742, 136.019
1220.958, 4.233
1222.173, 239.733
1223.389, 78.914
1224.604, 98.307
1225.819, 158.962
1227.034, 25.884
1228.248, 235.387
1229.463, 79.986
1230.677, 69.518
1231.891, 206.019
1233.105, 176.932
1234.318, 76.289
1235.532, 212.305
1236.745, 126.884
1237.958, 143.886
1239.171, 147.091
1240.384, 35.701
1241.596, 170.427
1242.809, 116.077
1244.021, 153.613
1245.233, 270.980
1246.444, 105.471
1247.656, 189.492
1248.867, 112.047
1250.079, 118.970
1251.290, 240.424
1252.500, 153.872
1253.711, 117.636
1254.921, 210.897
1256.132, 134.358
1257.342, 217.896
1258.552, 120.745
1259.761, 134.411
1260.971, 347.281
1262.180, 90.667
1263.389, 117.359
1264.598, 410.384
1265.807, 152.959
1267.015, 215.565
1268.223, 337.873
1269.432, 180.005
1270.640, 223.258
1271.847, 194.985
1273.055, 127.337
1274.262, 289.244
1275.470, 140.545
1276.677, 253.171
1277.883, 194.425
1279.090, 115.712
1280.296, 297.662
1281.503, 188.848
1282.709, 120.531
1283.915, 202.041
1285.120, 82.545
1286.326, 254.180
1287.531, 284.776
1288.736, 14.901
1289.941, 176.078
1291.146, 226.045
1292.350, 246.171
1293.555, 186.671
1294.759, 126.009
1295.963, 145.511
1297.167, 254.828
1298.370, 123.432
1299.574, 143.717
1300.777, 142.225
1301.980, 101.072
1303.183, 230.243
1304.386, 28.559
1305.588, 216.431
1306.790, 154.869
1307.993, 192.388
1309.195, 190.041
1310.396, 175.853
1311.598, 132.266
1312.799, 318.935
1314.000, 164.929
1315.201, 22.034
1316.402, 366.489
1317.603, 80.938
1318.803, 197.307
1320.003, 303.779
1321.203, 39.485
1322.403, 305.835
1323.603, 251.568
1324.802, 97.666
1326.002, 323.183
1327.201, 238.050
1328.400, 184.001
1329.599, 345.092
1330.797, 119.896
1331.995, 194.176
1333.194, 282.891
1334.392, 87.455
1335.589, 349.865
1336.787, 233.119
1337.985, 77.587
1339.182, 289.207
1340.379, 193.561
1341.576, 195.823
1342.772, 299.779
1343.969, 53.948
1345.165, 300.264
1346.361, 313.838
1347.557, 165.513
1348.753, 245.470
1349.949, 288.322
1351.144, 11.694
1352.339, 372.773
1353.534, 55.702
1354.729, 227.396
1355.924, 286.146
1357.118, 79.325
1358.312, 301.356
1359.506, 163.788
1360.700, 106.046
1361.894, 265.248
1363.088, 17.313
1364.281, 60.601
1365.474, 170.398
1366.667, 22.605
1367.860, 153.873
1369.052, 104.991
1370.245, 78.562
1371.437, 108.465
1372.629, 4.968
1373.821, 58.778
1375.013, 267.781
1376.204, 153.955
1377.395, 89.083
1378.586, 334.763
1379.777, 20.705
1380.968, 306.156
1382.159, 241.726
1383.349, 3.306
1384.539, 321.852
1385.729, 116.771
1386.919, 122.223
1388.109, 355.880
1389.298, 111.288
1390.487, 166.504
1391.676, 260.807
1392.865, 154.451
1394.054, 248.513
1395.242, 232.297
1396.431, 145.526
1397.619, 238.030
1398.807, 169.899
1399.995, 143.410
1401.182, 272.230
1402.370, 104.990
1403.557, 226.471
1404.744, 118.355
1405.931, 10.967
1407.118, 139.176
1408.304, 207.469
1409.490, 178.439
1410.676, 229.412
1411.862, 249.592
1413.048, 70.895
1414.234, 298.708
1415.419, 137.830
1416.604, 206.009
1417.789, 337.321
1418.974, 122.932
1420.159, 297.275
1421.343, 267.418
1422.528, 117.964
1423.712, 247.608
1424.896, 126.221
1426.079, 136.736
1427.263, 407.307
1428.446, 95.592
1429.629, 276.094
1430.812, 277.065
1431.995, 103.858
1433.178, 281.791
1434.360, 180.877
1435.543, 181.253
1436.725, 450.587
1437.907, 233.330
1439.088, 218.926
1440.270, 516.910
1441.451, 88.994
1442.632, 168.220
1443.813, 436.474
1444.994, 113.962
1446.175, 337.903
1447.355, 298.042
1448.535, 164.785
1449.715, 501.644
1450.895, 386.086
1452.075, 121.919
1453.255, 488.104
1454.434, 302.906
1455.613, 306.624
1456.792, 360.396
1457.971, 203.615
1459.149, 386.021
1460.328, 369.362
1461.506, 173.503
1462.684, 404.713
1463.862, 286.585
1465.040, 276.932
1466.217, 400.319
1467.395, 210.237
1468.572, 298.192
1469.749, 447.426
1470.925, 118.934
1472.102, 186.923
1473.278, 504.592
1474.455, 84.991
1475.631, 425.020
1476.807, 221.081
1477.982, 29.805
1479.158, 380.856
1480.333, 90.017
1481.508, 227.909
1482.683, 197.600
1483.858, 86.893
1485.033, 95.519
1486.207, 363.578
1487.381, 152.157
1488.555, 252.043
1489.729, 81.862
1490.903, 100.784
1492.076, 300.685
1493.250, 38.894
1494.423, 105.236
1495.596, 304.137
1496.769, 6.018
1497.941, 183.404
1499.114, 353.545
1500.286, 13.753
1501.458, 374.085
1502.630, 113.137
1503.802, 24.552
1504.973, 354.052
1506.145, 1.574
1507.316, 83.773
1508.487, 410.702
1509.657, 0.000
##END=



