##NAMES=Tremolite
##RRUFFID=R040045
##IDEAL CHEMISTRY=[box]Ca_2_Mg_5_Si_8_O_22_(OH)_2_
##LOCALITY=Gouverneur, New York, USA
##OWNER=RRUFF
##SOURCE=University of Arizona Mineral Museum
##DESCRIPTION=Group of colorless acicular single crystals
##STATUS=The identification of this mineral has been confirmed by X-ray diffraction and chemical analysis
##URL=rruff.info/R040045
##MEASURED CHEMISTRY=Ca_2.01_(Mg_0.99_Fe_0.01_)_5_(Si_0.99_Fe_0.01_)_8_O_22_(OH)_2_
##PIN_ID=M00236
##ORIENTATION=Laser parallel to a [1 0 0]. Fiducial mark perpendicular to laser is parallel to -b* (0 -1 0)
131.615, 0.000
133.003, 3.883
134.390, 343.061
135.777, 878.163
137.164, 1531.650
138.550, 2017.645
139.937, 2551.227
141.323, 2738.119
142.709, 2875.436
144.094, 2617.816
145.480, 2277.643
146.865, 1576.765
148.250, 927.079
149.635, 539.821
151.019, 350.120
152.403, 116.615
153.788, 140.109
155.171, 48.860
156.555, 310.127
157.939, 447.404
159.322, 725.207
160.705, 860.272
162.088, 857.416
163.470, 434.438
164.853, 239.640
166.235, 144.210
167.617, 150.845
168.998, 190.435
170.380, 224.873
171.761, 577.157
173.142, 959.475
174.523, 1781.837
175.904, 2954.265
177.284, 3726.770
178.664, 4139.358
180.044, 3632.030
181.424, 2484.781
182.803, 1427.604
184.183, 940.496
185.562, 483.449
186.940, 206.460
188.319, 269.525
189.698, 272.639
191.076, 135.786
192.454, 418.951
193.831, 122.130
195.209, 235.325
196.586, 48.640
197.963, 58.133
199.340, 23.981
200.717, 190.723
202.093, 2.769
203.470, 122.271
204.846, 43.421
206.221, 41.404
207.597, 152.564
208.972, 315.372
210.347, 758.229
211.722, 941.163
213.097, 1184.236
214.472, 1427.493
215.846, 1560.789
217.220, 1734.280
218.594, 2057.980
219.967, 3181.852
221.341, 3725.816
222.714, 4279.906
224.087, 3944.187
225.460, 3558.448
226.832, 2942.705
228.204, 2857.000
229.577, 3171.332
230.948, 3285.691
232.320, 3480.045
233.692, 3104.377
235.063, 2488.701
236.434, 1853.025
237.805, 1387.350
239.175, 791.674
240.545, 525.995
241.916, 570.313
243.286, 344.625
244.655, 538.927
246.025, 703.219
247.394, 917.441
248.763, 1281.469
250.132, 1755.292
251.501, 1308.993
252.869, 1272.661
254.237, 926.343
255.605, 610.040
256.973, 513.756
258.340, 447.495
259.708, 381.259
261.075, 205.043
262.442, 248.846
263.808, 342.668
265.175, 216.552
266.541, 120.576
267.907, 234.704
269.273, 208.896
270.639, 56.850
272.004, 72.584
273.369, 51.724
274.734, 23.960
276.099, 80.380
277.463, 34.743
278.828, 79.108
280.192, 63.470
281.556, 117.827
282.919, 152.184
284.283, 206.472
285.646, 260.714
287.009, 524.936
288.372, 709.413
289.734, 774.941
291.097, 820.464
292.459, 449.171
293.821, 373.896
295.183, 199.468
296.544, 186.392
297.905, 283.914
299.266, 332.977
300.627, 470.785
301.988, 489.761
303.348, 551.286
304.709, 523.595
306.069, 472.021
307.428, 430.752
308.788, 356.562
310.147, 342.999
311.507, 309.757
312.865, 242.632
314.224, 248.603
315.583, 215.762
316.941, 251.657
318.299, 247.745
319.657, 300.179
321.015, 295.857
322.372, 300.429
323.729, 247.639
325.086, 293.152
326.443, 388.609
327.800, 394.011
329.156, 659.187
330.512, 943.425
331.868, 1096.940
333.224, 1260.493
334.579, 984.326
335.935, 778.599
337.290, 742.878
338.645, 747.211
339.999, 721.621
341.354, 756.023
342.708, 930.545
344.062, 994.845
345.416, 989.148
346.769, 733.456
348.123, 977.765
349.476, 892.074
350.829, 996.049
352.182, 1100.301
353.534, 964.577
354.887, 898.195
356.239, 842.512
357.591, 646.063
358.942, 580.230
360.294, 752.799
361.645, 689.886
362.996, 1089.199
364.347, 1508.133
365.698, 2018.275
367.048, 3280.873
368.398, 4033.074
369.748, 4380.908
371.098, 3824.561
372.448, 3018.717
373.797, 2392.874
375.146, 1577.627
376.495, 1391.787
377.844, 1116.731
379.192, 960.893
380.540, 845.607
381.889, 880.521
383.236, 1015.464
384.584, 1170.228
385.932, 1395.187
387.279, 2019.966
388.626, 2644.701
389.973, 3859.410
391.319, 5363.939
392.666, 7038.746
394.012, 7733.413
395.358, 7192.344
396.704, 5796.773
398.049, 4273.533
399.394, 2847.936
400.740, 1958.729
402.084, 1728.710
403.429, 1373.402
404.774, 1303.078
406.118, 1170.094
407.462, 1164.703
408.806, 1308.670
410.150, 1443.984
411.493, 1832.301
412.836, 2336.605
414.179, 2851.564
415.522, 3096.051
416.865, 3040.070
418.207, 2359.539
419.549, 1973.736
420.891, 1478.301
422.233, 972.641
423.575, 846.676
424.916, 500.949
426.257, 265.293
427.598, 219.262
428.939, 313.664
430.279, 317.615
431.619, 401.945
432.959, 391.844
434.299, 420.938
435.639, 564.590
436.978, 505.812
438.318, 329.674
439.657, 383.121
440.996, 179.367
442.334, 153.682
443.673, 27.736
445.011, 61.879
446.349, 16.025
447.687, 69.924
449.024, 66.066
450.361, 207.830
451.699, 121.871
453.036, 135.895
454.372, 19.814
455.709, 33.533
457.045, 187.205
458.381, 41.121
459.717, 25.252
461.053, 38.332
462.388, 87.795
463.724, 65.689
465.059, 80.791
466.394, 17.340
467.728, 66.031
469.063, 29.367
470.397, 212.674
471.731, 105.957
473.065, 100.779
474.398, 62.408
475.732, 95.572
477.065, 268.680
478.398, 131.807
479.731, 104.918
481.063, 418.023
482.396, 271.115
483.728, 54.201
485.060, 727.260
486.391, 480.305
487.723, 283.352
489.054, 386.383
490.385, 329.398
491.716, 272.404
493.047, 279.387
494.377, 244.152
495.708, 201.363
497.038, 224.334
498.368, 187.289
499.697, 170.236
501.027, 173.174
502.356, 146.092
503.685, 259.047
505.014, 331.988
506.342, 304.916
507.671, 427.828
508.999, 460.730
510.327, 483.629
511.655, 586.510
512.982, 519.381
514.310, 632.242
515.637, 845.092
516.964, 637.947
518.291, 480.793
519.617, 443.623
520.944, 726.490
522.270, 359.379
523.596, 302.299
524.921, 675.293
526.247, 298.291
527.572, 471.326
528.897, 414.355
530.222, 437.398
531.547, 310.432
532.871, 413.449
534.196, 66.455
535.520, 289.439
536.844, 22.410
538.167, 325.363
539.491, 78.303
540.814, 31.273
542.137, 24.219
543.460, 67.148
544.783, 20.057
546.105, 62.656
547.427, 72.852
548.749, 78.674
550.071, 121.510
551.393, 54.367
552.714, 87.162
554.035, 70.062
555.356, 142.654
556.677, 194.627
557.998, 147.973
559.318, 99.451
560.638, 86.451
561.958, 75.980
563.278, 81.580
564.597, 39.207
565.917, 93.123
567.236, 4.570
568.555, 297.709
569.874, 60.023
571.192, 162.188
572.511, 4.383
573.829, 117.324
575.147, 229.471
576.464, 78.328
577.782, 183.736
579.099, 95.781
580.416, 147.807
581.733, 209.811
583.050, 161.791
584.366, 143.748
585.683, 355.682
586.999, 37.594
588.315, 249.480
589.630, 141.348
590.946, 43.193
592.261, 5.033
593.576, 136.867
594.891, 328.682
596.206, 120.484
597.520, 152.268
598.834, 35.975
600.148, 2.129
601.462, 107.195
602.776, 118.154
604.089, 163.850
605.402, 220.088
606.715, 191.145
608.028, 208.273
609.341, 170.084
610.653, 171.281
611.965, 189.338
613.277, 234.145
614.589, 254.893
615.901, 166.811
617.212, 247.645
618.523, 337.510
619.834, 169.018
621.145, 374.539
622.456, 225.842
623.766, 222.432
625.076, 232.553
626.386, 314.283
627.696, 474.844
629.006, 536.000
630.315, 527.445
631.624, 542.990
632.933, 553.506
634.242, 665.410
635.551, 546.986
636.859, 918.967
638.167, 860.055
639.475, 901.812
640.783, 805.289
642.090, 835.598
643.398, 977.797
644.705, 833.074
646.012, 1014.322
647.318, 1196.020
648.625, 1127.000
649.931, 1187.883
651.237, 1519.871
652.543, 1421.777
653.849, 1683.512
655.155, 1774.441
656.460, 1846.320
657.765, 2038.049
659.070, 2488.520
660.375, 2570.799
661.679, 3361.598
662.984, 4042.512
664.288, 4983.262
665.592, 6345.324
666.895, 8557.660
668.199, 11728.129
669.502, 15499.555
670.805, 20741.312
672.108, 24902.217
673.411, 28527.564
674.713, 26688.254
676.016, 23339.270
677.318, 18269.654
678.620, 14072.037
679.921, 10347.531
681.223, 8023.949
682.524, 6024.293
683.825, 4815.422
685.126, 3906.619
686.427, 2916.725
687.727, 2727.777
689.028, 2588.693
690.328, 1839.393
691.628, 1879.523
692.927, 1500.238
694.227, 1380.367
695.526, 1341.275
696.825, 1082.969
698.124, 1022.195
699.423, 1033.043
700.721, 692.824
702.020, 972.959
703.318, 734.271
704.616, 614.156
705.913, 803.758
707.211, 313.939
708.508, 793.535
709.805, 573.463
711.102, 628.398
712.399, 483.740
713.695, 441.607
714.992, 690.721
716.288, 194.061
717.584, 657.508
718.879, 385.006
720.175, 408.740
721.470, 335.664
722.765, 514.896
724.060, 343.855
725.355, 314.412
726.649, 540.566
727.944, 470.416
729.238, 129.299
730.532, 538.557
731.825, 298.289
733.119, 813.176
734.412, 612.723
735.705, 471.973
736.998, 1001.055
738.291, 1160.049
739.584, 1128.471
740.876, 1226.777
742.168, 1286.002
743.460, 964.111
744.752, 1162.984
746.043, 982.576
747.334, 1420.467
748.626, 1607.957
749.916, 1496.932
751.207, 1865.309
752.498, 1303.523
753.788, 1341.734
755.078, 947.447
756.368, 1004.643
757.658, 922.277
758.947, 379.934
760.237, 527.816
761.526, 585.811
762.815, 363.645
764.104, 261.541
765.392, 439.234
766.680, 236.893
767.969, 204.582
769.257, 352.416
770.544, 200.242
771.832, 307.707
773.119, 225.451
774.406, 133.158
775.693, 370.512
776.980, 198.158
778.267, 175.703
779.553, 233.227
780.839, 80.754
782.125, 318.250
783.411, 355.705
784.697, 173.123
785.982, 100.492
787.267, 407.840
788.552, 55.148
789.837, 212.406
791.122, 59.619
792.406, 226.779
793.690, 153.895
794.974, 9.039
796.258, 477.963
797.542, 54.924
798.825, 38.168
800.108, 248.658
801.391, 135.443
802.674, 302.180
803.957, 319.062
805.239, 65.715
806.522, 72.957
807.804, 99.502
809.085, 286.430
810.367, 63.350
811.649, 70.303
812.930, 367.287
814.211, 155.148
815.492, 291.732
816.772, 258.148
818.053, 299.408
819.333, 35.516
820.613, 12.158
821.893, 348.949
823.173, 116.961
824.452, 62.777
825.732, 229.127
827.011, 39.510
828.290, 276.459
829.568, 193.896
830.847, 120.482
832.125, 16.242
833.403, 38.264
834.681, 53.291
835.959, 345.254
837.236, 150.570
838.514, 127.105
839.791, 452.822
841.068, 147.770
842.345, 174.541
843.621, 219.902
844.898, 205.088
846.174, 200.393
847.450, 146.006
848.726, 143.352
850.001, 148.744
851.277, 359.221
852.552, 44.762
853.827, 253.131
855.102, 117.604
856.376, 22.691
857.651, 206.865
858.925, 271.059
860.199, 165.670
861.473, 230.123
862.746, 174.090
864.020, 338.664
865.293, 47.449
866.566, 136.367
867.839, 490.186
869.112, 233.953
870.384, 417.207
871.656, 89.053
872.928, 374.607
874.200, 238.244
875.472, 251.854
876.744, 155.416
878.015, 88.939
879.286, 99.213
880.557, 135.859
881.828, 199.264
883.098, 211.855
884.369, 200.207
885.639, 88.387
886.909, 181.645
888.178, 154.859
889.448, 238.031
890.717, 311.160
891.987, 424.250
893.256, 414.299
894.524, 250.309
895.793, 313.275
897.061, 316.203
898.330, 89.090
899.598, 341.932
900.865, 484.736
902.133, 157.504
903.401, 710.229
904.668, 302.906
905.935, 325.539
907.202, 308.125
908.468, 540.668
909.735, 393.135
911.001, 385.561
912.267, 367.924
913.533, 520.246
914.799, 542.477
916.064, 564.637
917.330, 612.004
918.595, 658.406
919.860, 599.943
921.124, 781.297
922.389, 733.113
923.653, 1234.332
924.918, 915.924
926.182, 1607.062
927.445, 1767.725
928.709, 2429.176
929.972, 2770.006
931.236, 2730.688
932.499, 2591.557
933.761, 2431.740
935.024, 1722.871
936.286, 1794.043
937.549, 1154.471
938.811, 1054.551
940.073, 1185.586
941.334, 855.307
942.596, 755.709
943.857, 805.363
945.118, 825.727
946.379, 955.732
947.640, 763.951
948.900, 1064.660
950.161, 554.010
951.421, 510.203
952.681, 541.336
953.940, 411.350
955.200, 322.416
956.459, 422.705
957.719, 211.814
958.978, 471.123
960.236, 260.342
961.495, 250.385
962.753, 229.373
964.012, 208.268
965.270, 98.451
966.527, 176.557
967.785, 276.303
969.043, 34.133
970.300, 325.529
971.557, 184.285
972.814, 132.236
974.071, 21.982
975.327, 340.709
976.583, 199.018
977.840, 41.533
979.095, 253.025
980.351, 32.164
981.607, 310.906
982.862, 135.207
984.117, 292.043
985.372, 216.443
986.627, 0.490
987.882, 268.639
989.136, 46.846
990.390, 144.916
991.644, 383.746
992.898, 21.395
994.152, 189.016
995.405, 216.650
996.659, 174.203
997.912, 101.471
999.165, 1.717
1000.417, 16.684
1001.670, 19.072
1002.922, 65.082
1004.174, 26.873
1005.426, 252.650
1006.678, 101.947
1007.930, 416.051
1009.181, 275.684
1010.432, 165.686
1011.683, 166.650
1012.934, 325.807
1014.185, 123.551
1015.435, 481.189
1016.685, 339.701
1017.935, 877.330
1019.185, 705.287
1020.435, 804.178
1021.684, 1004.133
1022.934, 1302.939
1024.183, 2010.641
1025.432, 2380.125
1026.680, 2848.596
1027.929, 4037.398
1029.177, 3986.484
1030.425, 4415.908
1031.673, 3575.172
1032.921, 2974.480
1034.169, 2163.729
1035.416, 1482.920
1036.663, 1102.055
1037.911, 1191.139
1039.157, 580.174
1040.404, 1309.162
1041.650, 718.109
1042.897, 617.008
1044.143, 635.861
1045.389, 564.676
1046.634, 833.453
1047.880, 1082.193
1049.125, 610.922
1050.371, 1109.645
1051.615, 1158.336
1052.860, 996.686
1054.105, 1314.281
1055.349, 1371.398
1056.593, 2337.980
1057.837, 2293.238
1059.081, 3222.586
1060.325, 3689.664
1061.568, 3222.777
1062.812, 2969.965
1064.055, 2607.559
1065.298, 2362.094
1066.540, 2179.250
1067.783, 2101.348
1069.025, 2495.949
1070.267, 2642.305
1071.509, 1885.324
1072.751, 1961.000
1073.993, 1461.227
1075.234, 1164.719
1076.475, 1141.254
1077.716, 816.148
1078.957, 793.043
1080.198, 847.840
1081.438, 573.336
1082.679, 650.230
1083.919, 767.078
1085.159, 853.840
1086.398, 1140.504
1087.638, 1037.082
1088.877, 603.555
1090.116, 669.898
1091.355, 306.105
1092.594, 280.109
1093.833, 228.090
1095.071, 233.852
1096.309, 299.457
1097.547, 314.891
1098.785, 240.148
1100.023, 205.215
1101.260, 0.105
1102.498, 54.855
1103.735, 9.645
1104.972, 354.461
1106.208, 509.332
1107.445, 94.594
1108.681, 270.254
1109.918, 115.945
1111.154, 111.766
1112.389, 528.297
1113.625, 115.055
1114.860, 381.895
1116.096, 338.738
1117.331, 195.578
1118.566, 402.418
1119.800, 39.277
1121.035, 196.195
1122.269, 493.199
1123.503, 360.340
1124.737, 341.328
1125.971, 50.430
1127.205, 137.445
1128.438, 313.152
1129.671, 178.773
1130.904, 44.773
1132.137, 252.383
1133.370, 69.527
1134.602, 201.285
1135.834, 127.762
1137.066, 209.719
1138.298, 216.996
1139.530, 60.469
1140.762, 125.609
1141.993, 229.137
1143.224, 362.031
1144.455, 1.121
1145.686, 512.582
1146.917, 0.000
##END=



