##NAMES=Tremolite
##RRUFFID=R040045
##IDEAL CHEMISTRY=[box]Ca_2_Mg_5_Si_8_O_22_(OH)_2_
##LOCALITY=Gouverneur, New York, USA
##OWNER=RRUFF
##SOURCE=University of Arizona Mineral Museum
##DESCRIPTION=Group of colorless acicular single crystals
##STATUS=The identification of this mineral has been confirmed by X-ray diffraction and chemical analysis
##URL=rruff.info/R040045
##MEASURED CHEMISTRY=Ca_2.01_(Mg_0.99_Fe_0.01_)_5_(Si_0.99_Fe_0.01_)_8_O_22_(OH)_2_
##PIN_ID=L00397
##ORIENTATION=Laser parallel to [-1 0 -1]. Fiducial mark perpendicular to laser is parallel to -b* (0 -1 0)
103.820, 0.000
105.212, 122.606
106.604, 3.831
107.995, 198.506
109.387, 263.583
110.777, 412.617
112.168, 491.814
113.559, 808.725
114.949, 901.941
116.339, 1150.144
117.729, 1772.502
119.119, 2128.316
120.508, 2847.024
121.897, 3338.172
123.286, 3781.398
124.675, 3658.068
126.063, 3295.237
127.452, 2144.251
128.840, 1554.773
130.228, 1006.543
131.615, 499.364
133.003, 443.080
134.390, 307.565
135.777, 172.726
137.164, 208.476
138.550, 154.752
139.937, 141.495
141.323, 98.658
142.709, 176.201
144.094, 34.221
145.480, 24.454
146.865, 79.432
148.250, 53.411
149.635, 47.141
151.019, 30.657
152.403, 153.992
153.788, 87.172
155.171, 130.224
156.555, 173.168
157.939, 166.026
159.322, 248.818
160.705, 181.555
162.088, 224.246
163.470, 266.904
164.853, 369.540
166.235, 382.165
167.617, 304.784
168.998, 577.400
170.380, 750.017
171.761, 1262.636
173.142, 2125.258
174.523, 3507.886
175.904, 5590.523
177.284, 7643.181
178.664, 9425.855
180.044, 9958.552
181.424, 8211.271
182.803, 5394.021
184.183, 3253.323
185.562, 2013.318
186.940, 1111.130
188.319, 1051.765
189.698, 803.180
191.076, 633.012
192.454, 532.919
193.831, 542.911
195.209, 592.990
196.586, 433.194
197.963, 403.522
199.340, 423.956
200.717, 604.530
202.093, 425.198
203.470, 305.959
204.846, 496.812
206.221, 427.760
207.597, 568.839
208.972, 410.037
210.347, 711.322
211.722, 922.734
213.097, 894.268
214.472, 1275.871
215.846, 1667.543
217.220, 2629.278
218.594, 3811.077
219.967, 5672.938
221.341, 7704.854
222.714, 9326.920
224.087, 10399.041
225.460, 9681.268
226.832, 7393.609
228.204, 5126.012
229.577, 3728.439
230.948, 3210.896
232.320, 2663.375
233.692, 2765.881
235.063, 2448.411
236.434, 2090.967
237.805, 1523.545
239.175, 1116.149
240.545, 1048.777
241.916, 611.432
243.286, 734.107
244.655, 656.811
246.025, 869.598
247.394, 1012.460
248.763, 1105.421
250.132, 1608.432
251.501, 1521.469
252.869, 1604.578
254.237, 1277.723
255.605, 1010.909
256.973, 844.127
258.340, 487.378
259.708, 362.905
261.075, 104.065
262.442, 17.452
263.808, 49.152
265.175, 285.750
266.541, 255.049
267.907, 305.482
269.273, 229.909
270.639, 259.760
272.004, 129.042
273.369, 47.889
274.734, 156.378
276.099, 85.402
277.463, 197.441
278.828, 249.710
280.192, 252.189
281.556, 464.849
282.919, 577.655
284.283, 480.598
285.646, 963.657
287.009, 1056.858
288.372, 1653.701
289.734, 2077.081
291.097, 1960.539
292.459, 1904.579
293.821, 1258.218
295.183, 1034.665
296.544, 748.413
297.905, 652.209
299.266, 696.049
300.627, 699.931
301.988, 983.853
303.348, 797.812
304.709, 921.804
306.069, 725.827
307.428, 570.595
308.788, 606.123
310.147, 371.589
311.507, 556.851
312.865, 541.598
314.224, 445.687
315.583, 349.776
316.941, 183.869
318.299, 475.500
319.657, 219.598
321.015, 263.697
322.372, 317.801
323.729, 141.906
325.086, 426.016
326.443, 390.129
327.800, 664.246
329.156, 878.412
330.512, 1552.537
331.868, 2006.666
333.224, 2320.797
334.579, 2354.932
335.935, 1929.070
337.290, 1623.211
338.645, 1014.707
339.999, 888.854
341.354, 893.025
342.708, 617.578
344.062, 1111.730
345.416, 794.252
346.769, 978.410
348.123, 1075.545
349.476, 1109.422
350.829, 1533.064
352.182, 1526.539
353.534, 1919.934
354.887, 1673.340
356.239, 1656.760
357.591, 1490.193
358.942, 1243.639
360.294, 1507.094
361.645, 1600.562
362.996, 2144.041
364.347, 3177.529
365.698, 4591.029
367.048, 7204.537
368.398, 9678.055
369.748, 11801.578
371.098, 12245.105
372.448, 10138.645
373.797, 7292.189
375.146, 4635.965
376.495, 3289.520
377.844, 2373.260
379.192, 1746.826
380.540, 1580.404
381.889, 1124.193
383.236, 1427.859
384.584, 1537.629
385.932, 1701.211
387.279, 1915.258
388.626, 2358.975
389.973, 3522.561
391.319, 4382.223
392.666, 5765.809
394.012, 6879.852
395.358, 7544.371
396.704, 6597.951
398.049, 5057.547
399.394, 3621.244
400.740, 2004.820
402.084, 1662.133
403.429, 1256.617
404.774, 1100.473
406.118, 1074.197
407.462, 751.623
408.806, 1225.674
410.150, 909.229
411.493, 1288.777
412.836, 1632.324
414.179, 1860.369
415.522, 2164.436
416.865, 2178.623
418.207, 2012.348
419.549, 1775.861
420.891, 1379.736
422.233, 1223.240
423.575, 636.734
424.916, 580.174
426.257, 450.746
427.598, 419.324
428.939, 449.352
430.279, 146.506
431.619, 528.092
432.959, 177.846
434.299, 474.654
435.639, 305.219
436.978, 90.494
438.318, 534.406
439.657, 47.896
440.996, 348.125
442.334, 243.887
443.673, 207.459
445.011, 231.492
446.349, 184.959
447.687, 356.588
449.024, 29.955
450.361, 273.812
451.699, 237.408
453.036, 30.807
454.372, 405.205
455.709, 11.104
457.045, 172.238
458.381, 185.932
459.717, 199.256
461.053, 363.309
462.388, 116.613
463.724, 180.783
465.059, 134.061
466.394, 67.334
467.728, 30.875
469.063, 14.117
470.397, 11.842
471.731, 20.525
473.065, 33.693
474.398, 156.840
475.732, 140.012
477.065, 173.410
478.398, 83.443
479.731, 229.641
481.063, 142.709
482.396, 375.785
483.728, 478.850
485.060, 141.898
486.391, 485.002
487.723, 278.092
489.054, 71.168
490.385, 504.234
491.716, 157.283
493.047, 180.326
494.377, 193.352
495.708, 136.375
497.038, 349.389
498.368, 77.611
499.697, 265.316
501.027, 98.230
502.356, 51.131
503.685, 254.016
505.014, 93.119
506.342, 379.660
507.671, 7.578
508.999, 225.141
510.327, 237.852
511.655, 310.543
512.982, 343.244
514.310, 335.936
515.637, 538.613
516.964, 531.344
518.291, 304.061
519.617, 846.764
520.944, 369.453
522.270, 562.129
523.596, 624.793
524.921, 247.443
526.247, 540.078
527.572, 372.703
528.897, 425.320
530.222, 388.004
531.547, 470.668
532.871, 363.320
534.196, 105.957
535.520, 428.580
536.844, 121.191
538.167, 233.779
539.491, 166.355
540.814, 118.945
542.137, 151.520
543.460, 55.924
544.783, 286.559
546.105, 69.020
547.427, 118.537
548.749, 293.795
550.071, 53.887
551.393, 208.355
552.714, 80.574
554.035, 42.775
555.356, 234.945
556.677, 52.902
557.998, 169.178
559.318, 201.238
560.638, 16.723
561.958, 45.262
563.278, 137.219
564.597, 169.156
565.917, 18.930
567.236, 93.121
568.555, 345.057
569.874, 53.012
571.192, 318.852
572.511, 29.311
573.829, 92.471
575.147, 64.227
576.464, 175.951
577.782, 327.654
579.099, 139.332
580.416, 251.270
581.733, 562.934
583.050, 174.574
584.366, 576.195
585.683, 187.803
586.999, 559.453
588.315, 331.143
589.630, 192.873
590.946, 584.631
592.261, 216.422
593.576, 398.215
594.891, 249.998
596.206, 151.791
597.520, 453.555
598.834, 64.717
600.148, 6.938
601.462, 238.541
602.776, 130.113
604.089, 451.656
605.402, 86.830
606.715, 424.768
608.028, 182.607
609.341, 224.223
610.653, 305.574
611.965, 133.648
613.277, 198.809
614.589, 357.188
615.901, 188.619
617.212, 460.957
618.523, 102.656
619.834, 534.217
621.145, 75.225
622.456, 316.719
623.766, 318.996
625.076, 219.861
626.386, 551.193
627.696, 401.654
629.006, 341.896
630.315, 682.531
631.624, 343.309
632.933, 652.326
634.242, 243.436
635.551, 595.285
636.859, 612.508
638.167, 583.045
639.475, 818.922
640.783, 610.691
642.090, 791.125
643.398, 1337.846
644.705, 1229.125
646.012, 1630.143
647.318, 1581.773
648.625, 2222.604
649.931, 2944.912
651.237, 3005.512
652.543, 4189.170
653.849, 4170.670
655.155, 4681.744
656.460, 4597.133
657.765, 4387.936
659.070, 4409.291
660.375, 4520.340
661.679, 5070.256
662.984, 5563.816
664.288, 6573.660
665.592, 8581.949
666.895, 10553.160
668.199, 14123.230
669.502, 19649.141
670.805, 25309.611
672.108, 33799.914
673.411, 39446.723
674.713, 41676.305
676.016, 39747.000
677.318, 32297.221
678.620, 25527.809
679.921, 18558.768
681.223, 13838.836
682.524, 10689.775
683.825, 7990.625
685.126, 6412.549
686.427, 5291.275
687.727, 4370.928
689.028, 3931.533
690.328, 3021.879
691.628, 2932.283
692.927, 2343.393
694.227, 2182.654
695.526, 1922.840
696.825, 1740.053
698.124, 1709.543
699.423, 1450.074
700.721, 1502.736
702.020, 1251.748
703.318, 1051.809
704.616, 1310.383
705.913, 770.291
707.211, 1133.191
708.508, 1131.914
709.805, 741.510
711.102, 1009.070
712.399, 909.195
713.695, 822.457
714.992, 611.527
716.288, 610.754
717.584, 785.295
718.879, 604.180
720.175, 823.352
721.470, 692.229
722.765, 411.996
724.060, 789.564
725.355, 512.225
726.649, 446.246
727.944, 724.170
729.238, 439.748
730.532, 577.744
731.825, 445.609
733.119, 553.721
734.412, 761.416
735.705, 388.455
736.998, 946.121
738.291, 693.908
739.584, 842.660
740.876, 1020.227
742.168, 719.188
743.460, 1237.412
744.752, 674.732
746.043, 1192.363
747.334, 1590.029
748.626, 1197.562
749.916, 1925.594
751.207, 1512.668
752.498, 1620.389
753.788, 1757.363
755.078, 978.963
756.368, 1153.811
757.658, 630.545
758.947, 677.229
760.237, 784.172
761.526, 412.684
762.815, 819.410
764.104, 395.648
765.392, 452.000
766.680, 578.494
767.969, 143.926
769.257, 559.994
770.544, 376.342
771.832, 152.273
773.119, 298.510
774.406, 323.953
775.693, 450.078
776.980, 325.275
778.267, 131.297
779.553, 527.256
780.839, 172.879
782.125, 198.730
783.411, 214.529
784.697, 210.277
785.982, 292.648
787.267, 88.389
788.552, 357.129
789.837, 172.350
791.122, 22.250
792.406, 553.500
793.690, 41.203
794.974, 163.992
796.258, 499.133
797.542, 215.777
798.825, 259.121
800.108, 314.025
801.391, 148.875
802.674, 343.658
803.957, 48.457
805.239, 383.246
806.522, 12.072
807.804, 152.609
809.085, 247.916
810.367, 2.398
811.649, 298.182
812.930, 152.832
814.211, 127.250
815.492, 603.088
816.772, 57.328
818.053, 772.318
819.333, 140.709
820.613, 154.863
821.893, 420.105
823.173, 54.482
824.452, 309.451
825.732, 345.443
827.011, 229.812
828.290, 703.811
829.568, 229.441
830.847, 333.604
832.125, 238.479
833.403, 142.518
834.681, 346.623
835.959, 131.359
837.236, 144.668
838.514, 9.924
839.791, 266.438
841.068, 406.523
842.345, 171.996
843.621, 224.836
844.898, 148.797
846.174, 71.674
847.450, 414.348
848.726, 228.656
850.001, 88.781
851.277, 323.672
852.552, 107.930
853.827, 510.264
855.102, 463.021
856.376, 105.279
857.651, 637.799
858.925, 221.004
860.199, 433.139
861.473, 485.250
862.746, 157.305
864.020, 519.301
865.293, 121.258
866.566, 313.145
867.839, 325.018
869.112, 306.830
870.384, 568.584
871.656, 150.311
872.928, 221.975
874.200, 313.582
875.472, 364.867
876.744, 876.346
878.015, 32.395
879.286, 78.770
880.557, 559.893
881.828, 60.959
883.098, 361.977
884.369, 352.939
885.639, 393.848
886.909, 534.697
888.178, 114.498
889.448, 515.922
890.717, 476.531
891.987, 177.088
893.256, 507.578
894.524, 118.016
895.793, 328.385
897.061, 688.689
898.330, 398.998
899.598, 429.246
900.865, 419.434
902.133, 319.566
903.401, 609.631
904.668, 269.641
905.935, 539.586
907.202, 199.475
908.468, 479.324
909.735, 619.127
911.001, 428.871
912.267, 488.562
913.533, 658.191
914.799, 517.623
916.064, 547.180
917.330, 576.414
918.595, 585.818
919.860, 735.195
921.124, 790.531
922.389, 942.561
923.653, 991.463
924.918, 1319.361
926.182, 1407.803
927.445, 1406.281
928.709, 1855.219
929.972, 2603.568
931.236, 2251.029
932.499, 3089.807
933.761, 2087.297
935.024, 2094.834
936.286, 1852.350
937.549, 1039.799
938.811, 1597.547
940.073, 997.639
941.334, 1085.564
942.596, 1182.674
943.857, 446.801
945.118, 1426.266
946.379, 799.123
947.640, 1096.459
948.900, 1155.328
950.161, 847.107
951.421, 1019.389
952.681, 1006.711
953.940, 683.273
955.200, 897.309
956.459, 543.074
957.719, 581.457
958.978, 537.277
960.236, 373.586
961.495, 861.012
962.753, 235.914
964.012, 493.092
965.270, 545.709
966.527, 191.633
967.785, 601.076
969.043, 378.076
970.300, 24.643
971.557, 830.725
972.814, 296.480
974.071, 243.416
975.327, 745.305
976.583, 101.555
977.840, 348.500
979.095, 599.094
980.351, 96.400
981.607, 405.615
982.862, 221.723
984.117, 408.771
985.372, 413.527
986.627, 249.557
987.882, 595.535
989.136, 120.678
990.390, 465.666
991.644, 694.891
992.898, 40.957
994.152, 746.246
995.405, 283.906
996.659, 528.762
997.912, 667.605
999.165, 163.496
1000.417, 619.953
1001.670, 591.523
1002.922, 126.918
1004.174, 1022.727
1005.426, 459.594
1006.678, 715.457
1007.930, 493.051
1009.181, 329.070
1010.432, 1083.820
1011.683, 569.898
1012.934, 695.691
1014.185, 1000.871
1015.435, 767.945
1016.685, 1312.113
1017.935, 1050.801
1019.185, 1595.605
1020.435, 1650.305
1021.684, 1567.602
1022.934, 2281.387
1024.183, 2946.906
1025.432, 3282.055
1026.680, 5131.699
1027.929, 5859.688
1029.177, 7850.297
1030.425, 8553.164
1031.673, 7348.391
1032.921, 6721.012
1034.169, 5005.453
1035.416, 3100.105
1036.663, 2913.941
1037.911, 1850.730
1039.157, 1845.230
1040.404, 1659.375
1041.650, 1164.371
1042.897, 1666.891
1044.143, 681.582
1045.389, 1173.633
1046.634, 1206.504
1047.880, 1143.969
1049.125, 1356.941
1050.371, 1229.949
1051.615, 1263.664
1052.860, 1955.965
1054.105, 1529.062
1055.349, 2201.512
1056.593, 2894.402
1057.837, 3086.320
1059.081, 4668.715
1060.325, 5431.258
1061.568, 6165.145
1062.812, 5697.215
1064.055, 4742.148
1065.298, 4654.090
1066.540, 4206.035
1067.783, 3767.578
1069.025, 5078.777
1070.267, 4879.844
1071.509, 5060.742
1072.751, 5171.465
1073.993, 2851.918
1075.234, 3132.027
1076.475, 2401.906
1077.716, 1612.500
1078.957, 1681.969
1080.198, 1171.332
1081.438, 1270.426
1082.679, 1479.184
1083.919, 780.641
1085.159, 1465.953
1086.398, 721.387
1087.638, 606.812
1088.877, 852.238
1090.116, 577.230
1091.355, 752.641
1092.594, 758.070
1093.833, 283.398
1095.071, 708.617
1096.309, 463.672
1097.547, 397.832
1098.785, 1091.406
1100.023, 193.988
1101.260, 769.184
1102.498, 808.355
1103.735, 218.297
1104.972, 1094.754
1106.208, 335.812
1107.445, 198.078
1108.681, 690.238
1109.918, 393.098
1111.154, 875.727
1112.389, 476.930
1113.625, 51.887
1114.860, 810.938
1116.096, 134.969
1117.331, 176.969
1118.566, 878.711
1119.800, 97.793
1121.035, 725.805
1122.269, 558.426
1123.503, 352.324
1124.737, 696.180
1125.971, 449.980
1127.205, 393.727
1128.438, 497.422
1129.671, 11.090
1130.904, 715.008
1132.137, 268.953
1133.370, 247.113
1134.602, 1006.816
1135.834, 390.719
1137.066, 594.719
1138.298, 358.715
1139.530, 152.719
1140.762, 856.652
1141.993, 550.504
1143.224, 124.367
1144.455, 678.262
1145.686, 2.180
1146.917, 996.145
1148.147, 290.125
1149.377, 34.113
1150.607, 1268.156
1151.837, 292.273
1153.067, 446.492
1154.296, 1230.812
1155.526, 65.258
1156.755, 799.852
1157.984, 724.613
1159.213, 529.547
1160.441, 1054.535
1161.670, 459.508
1162.898, 364.461
1164.126, 1356.828
1165.354, 59.152
1166.581, 790.199
1167.809, 694.488
1169.036, 190.090
1170.263, 1037.664
1171.490, 259.402
1172.717, 431.949
1173.943, 979.160
1175.170, 82.770
1176.396, 520.617
1177.622, 692.812
1178.848, 512.551
1180.073, 920.848
1181.299, 501.770
1182.524, 429.461
1183.749, 1261.891
1184.974, 78.832
1186.199, 688.168
1187.423, 766.297
1188.648, 286.730
1189.872, 939.066
1191.096, 318.461
1192.320, 809.539
1193.543, 712.164
1194.767, 165.984
1195.990, 815.785
1197.213, 735.277
1198.436, 321.871
1199.659, 1286.324
1200.881, 1068.551
1202.104, 372.117
1203.326, 1188.012
1204.548, 360.809
1205.770, 1027.262
1206.991, 632.375
1208.213, 115.871
1209.434, 1068.320
1210.655, 37.422
1211.876, 797.285
1213.096, 1003.020
1214.317, 364.352
1215.537, 873.254
1216.757, 628.449
1217.977, 396.012
1219.197, 550.992
1220.417, 444.988
1221.636, 578.980
1222.855, 821.625
1224.074, 109.738
1225.293, 496.211
1226.512, 290.312
1227.731, 313.816
1228.949, 1087.930
1230.167, 2.848
1231.385, 0.000
##END=



