##NAMES=Tremolite
##RRUFFID=R040045
##IDEAL CHEMISTRY=[box]Ca_2_Mg_5_Si_8_O_22_(OH)_2_
##LOCALITY=Gouverneur, New York, USA
##OWNER=RRUFF
##SOURCE=University of Arizona Mineral Museum
##DESCRIPTION=Group of colorless acicular single crystals
##STATUS=The identification of this mineral has been confirmed by X-ray diffraction and chemical analysis
##URL=rruff.info/R040045
##MEASURED CHEMISTRY=Ca_2.01_(Mg_0.99_Fe_0.01_)_5_(Si_0.99_Fe_0.01_)_8_O_22_(OH)_2_
##PIN_ID=M00230
##ORIENTATION=Laser parallel to b* (0 1 0). Fiducial mark perpendicular to laser is parallel to -c [0 0 -1]
134.390, 0.000
135.777, 6.258
137.164, 129.359
138.550, 25.902
139.937, 160.529
141.323, 212.490
142.709, 96.527
144.094, 9.617
145.480, 204.938
146.865, 169.648
148.250, 94.189
149.635, 48.529
151.019, 203.822
152.403, 72.088
153.788, 191.408
155.171, 169.234
156.555, 235.850
157.939, 321.480
159.322, 556.295
160.705, 600.439
162.088, 564.062
163.470, 577.756
164.853, 291.736
166.235, 367.123
167.617, 144.375
168.998, 410.119
170.380, 231.779
171.761, 523.783
173.142, 511.834
174.523, 869.912
175.904, 1548.047
177.284, 1916.248
178.664, 2094.521
180.044, 2022.854
181.424, 1491.221
182.803, 979.645
184.183, 648.100
185.562, 386.580
186.940, 345.543
188.319, 254.064
189.698, 194.514
191.076, 186.604
192.454, 135.559
193.831, 121.225
195.209, 98.664
196.586, 87.219
197.963, 75.773
199.340, 45.666
200.717, 52.902
202.093, 11.479
203.470, 39.381
204.846, 111.604
206.221, 49.275
207.597, 59.549
208.972, 233.113
210.347, 332.160
211.722, 520.754
213.097, 149.371
214.472, 388.084
215.846, 497.713
217.220, 586.697
218.594, 776.092
219.967, 1415.744
221.341, 1905.449
222.714, 2234.762
224.087, 2334.484
225.460, 2063.568
226.832, 1352.662
228.204, 942.148
229.577, 751.955
230.948, 741.121
232.320, 590.299
233.692, 529.484
235.063, 508.668
236.434, 407.842
237.805, 437.029
239.175, 106.236
240.545, 195.432
241.916, 244.617
243.286, 13.787
244.655, 232.941
246.025, 202.086
247.394, 271.211
248.763, 370.314
250.132, 449.348
251.501, 518.326
252.869, 287.236
254.237, 376.047
255.605, 224.852
256.973, 313.652
258.340, 202.457
259.708, 211.287
261.075, 160.123
262.442, 208.965
263.808, 297.799
265.175, 216.707
266.541, 285.605
267.907, 224.562
269.273, 343.527
270.639, 192.490
272.004, 81.447
273.369, 280.750
274.734, 10.229
276.099, 148.723
277.463, 77.678
278.828, 16.848
280.192, 136.584
281.556, 106.570
282.919, 22.305
284.283, 238.094
285.646, 88.199
287.009, 357.020
288.372, 255.822
289.734, 375.299
291.097, 445.340
292.459, 134.826
293.821, 286.740
295.183, 116.328
296.544, 72.684
297.905, 202.053
299.266, 133.613
300.627, 94.451
301.988, 198.451
303.348, 148.799
304.709, 79.389
306.069, 69.770
307.428, 159.512
308.788, 208.385
310.147, 118.482
311.507, 248.398
312.865, 69.678
314.224, 229.699
315.583, 229.658
316.941, 279.199
318.299, 198.654
319.657, 118.814
321.015, 148.199
322.372, 67.729
323.729, 281.324
325.086, 190.604
326.443, 290.598
327.800, 330.457
329.156, 339.656
330.512, 389.400
331.868, 598.908
333.224, 677.975
334.579, 687.289
335.935, 546.344
337.290, 465.287
338.645, 543.984
339.999, 546.789
341.354, 655.730
342.708, 875.266
344.062, 644.145
345.416, 1002.818
346.769, 561.803
348.123, 810.465
349.476, 659.260
350.829, 658.066
352.182, 786.703
353.534, 755.607
354.887, 694.477
356.239, 672.988
357.591, 501.588
358.942, 500.250
360.294, 628.553
361.645, 456.799
362.996, 501.018
364.347, 689.461
365.698, 836.816
367.048, 1261.176
368.398, 1839.809
369.748, 2103.578
371.098, 1996.734
372.448, 1565.408
373.797, 1113.861
375.146, 763.182
376.495, 751.619
377.844, 440.707
379.192, 299.719
380.540, 399.029
381.889, 289.887
383.236, 478.877
384.584, 337.996
385.932, 287.342
387.279, 596.922
388.626, 605.266
389.973, 804.254
391.319, 1033.039
392.666, 1548.551
394.012, 1567.396
395.358, 1596.096
396.704, 1425.057
398.049, 979.289
399.394, 768.701
400.740, 388.180
402.084, 527.127
403.429, 306.271
404.774, 345.445
406.118, 304.209
407.462, 262.664
408.806, 111.865
410.150, 320.662
411.493, 170.266
412.836, 398.998
414.179, 448.033
415.522, 567.498
416.865, 506.490
418.207, 396.152
419.549, 494.734
420.891, 143.615
422.233, 112.092
423.575, 100.785
424.916, 29.529
426.257, 127.910
427.598, 23.727
428.939, 124.617
430.279, 122.943
431.619, 8.709
432.959, 49.811
434.299, 68.439
435.639, 336.684
436.978, 373.879
438.318, 202.088
439.657, 410.029
440.996, 277.684
442.334, 45.832
443.673, 3.826
445.011, 110.193
446.349, 28.266
447.687, 326.092
449.024, 45.887
450.361, 212.104
451.699, 0.076
453.036, 238.025
454.372, 93.779
455.709, 15.912
457.045, 161.816
458.381, 69.285
459.717, 12.951
461.053, 44.709
462.388, 57.828
463.724, 119.805
465.059, 17.391
466.394, 64.656
467.728, 211.848
469.063, 109.373
470.397, 116.879
471.731, 154.195
473.065, 18.354
474.398, 98.689
475.732, 126.066
477.065, 213.445
478.398, 240.799
479.731, 48.127
481.063, 225.258
482.396, 182.480
483.728, 60.658
485.060, 486.527
486.391, 53.689
487.723, 80.822
489.054, 297.922
490.385, 95.014
491.716, 122.078
493.047, 199.113
494.377, 116.125
495.708, 153.107
497.038, 180.066
498.368, 387.000
499.697, 56.094
501.027, 180.752
502.356, 37.568
503.685, 194.361
505.014, 381.121
506.342, 167.855
507.671, 274.561
508.999, 211.238
510.327, 207.889
511.655, 264.512
512.982, 181.107
514.310, 187.674
515.637, 324.211
516.964, 370.725
518.291, 177.209
519.617, 423.664
520.944, 510.096
522.270, 166.498
523.596, 162.893
524.921, 369.258
526.247, 295.602
527.572, 191.936
528.897, 268.242
530.222, 384.543
531.547, 210.838
532.871, 287.102
534.196, 53.463
535.520, 269.664
536.844, 105.838
538.167, 122.555
539.491, 48.660
540.814, 24.654
542.137, 122.484
543.460, 88.467
544.783, 37.268
546.105, 3.178
547.427, 40.807
548.749, 116.748
550.071, 163.904
551.393, 86.980
552.714, 189.566
554.035, 230.561
555.356, 166.492
556.677, 63.873
557.998, 60.648
559.318, 48.146
560.638, 158.549
561.958, 144.588
563.278, 147.426
564.597, 98.367
565.917, 392.455
567.236, 158.891
568.555, 255.773
569.874, 74.156
571.192, 270.422
572.511, 195.654
573.829, 93.033
575.147, 202.820
576.464, 66.469
577.782, 301.582
579.099, 227.039
580.416, 344.770
581.733, 290.115
583.050, 275.121
584.366, 517.371
585.683, 661.988
586.999, 506.000
588.315, 500.900
589.630, 365.547
590.946, 320.074
592.261, 233.896
593.576, 397.748
594.891, 532.674
596.206, 516.998
597.520, 432.023
598.834, 506.270
600.148, 680.848
601.462, 614.777
602.776, 418.068
604.089, 602.910
605.402, 466.324
606.715, 490.357
608.028, 562.104
609.341, 527.154
610.653, 521.275
611.965, 315.254
613.277, 443.936
614.589, 656.658
615.901, 460.361
617.212, 514.705
618.523, 826.998
619.834, 700.432
621.145, 950.445
622.456, 744.455
623.766, 1008.043
625.076, 1101.162
626.386, 1135.283
627.696, 1238.852
629.006, 981.766
630.315, 1005.867
631.624, 707.629
632.933, 540.336
634.242, 930.229
635.551, 423.346
636.859, 626.771
638.167, 769.877
639.475, 872.896
640.783, 766.787
642.090, 965.451
643.398, 1179.342
644.705, 1002.125
646.012, 1224.322
647.318, 1531.234
648.625, 1473.404
649.931, 1566.666
651.237, 1810.002
652.543, 1672.129
653.849, 2095.859
655.155, 1678.164
656.460, 1840.816
657.765, 1239.451
659.070, 1571.627
660.375, 1174.254
661.679, 1296.398
662.984, 1558.707
664.288, 1460.656
665.592, 2072.881
666.895, 2434.926
668.199, 3156.912
669.502, 4179.105
670.805, 5511.301
672.108, 6993.172
673.411, 8365.260
674.713, 7767.307
676.016, 7299.059
677.318, 5551.145
678.620, 4373.197
679.921, 3254.844
681.223, 2236.434
682.524, 2058.367
683.825, 1400.541
685.126, 1152.123
686.427, 883.943
687.727, 715.723
689.028, 1017.281
690.328, 379.006
691.628, 629.816
692.927, 531.461
694.227, 272.400
695.526, 513.363
696.825, 263.969
698.124, 142.975
699.423, 463.787
700.721, 14.410
702.020, 484.746
703.318, 154.791
704.616, 226.016
705.913, 106.537
707.211, 312.795
708.508, 200.992
709.805, 28.611
711.102, 331.852
712.399, 8.000
713.695, 146.803
714.992, 476.367
716.288, 184.189
717.584, 245.520
718.879, 64.877
720.175, 35.395
721.470, 86.225
722.765, 113.807
724.060, 33.029
725.355, 2.598
726.649, 111.287
727.944, 360.789
729.238, 19.932
730.532, 398.582
731.825, 2.354
733.119, 345.975
734.412, 255.330
735.705, 155.672
736.998, 183.623
738.291, 242.639
739.584, 78.449
740.876, 340.734
742.168, 129.881
743.460, 248.992
744.752, 298.061
746.043, 127.055
747.334, 545.811
748.626, 434.172
749.916, 263.092
751.207, 721.973
752.498, 220.814
753.788, 509.611
755.078, 308.371
756.368, 297.092
757.658, 525.771
758.947, 124.418
760.237, 373.020
761.526, 391.586
762.815, 180.113
764.104, 128.609
765.392, 122.521
766.680, 365.467
767.969, 143.547
769.257, 291.896
770.544, 350.215
771.832, 98.492
773.119, 466.725
774.406, 264.930
775.693, 293.096
776.980, 181.238
778.267, 169.338
779.553, 317.400
780.839, 215.428
782.125, 233.406
783.411, 481.352
784.697, 129.258
785.982, 347.125
787.267, 564.961
788.552, 67.238
789.837, 380.465
791.122, 308.133
792.406, 195.766
793.690, 543.359
794.974, 120.918
796.258, 618.430
797.542, 145.930
798.825, 223.383
800.108, 490.801
801.391, 21.809
802.674, 665.508
803.957, 132.793
805.239, 180.039
806.522, 417.246
807.804, 54.422
809.085, 511.582
810.367, 338.684
811.649, 305.750
812.930, 773.016
814.211, 110.488
815.492, 618.062
816.772, 725.180
818.053, 392.539
819.333, 609.445
820.613, 406.711
821.893, 553.715
823.173, 501.043
824.452, 307.824
825.732, 607.523
827.011, 465.031
828.290, 751.727
829.568, 650.461
830.847, 377.098
832.125, 721.473
833.403, 478.047
834.681, 854.777
835.959, 691.926
837.236, 338.406
838.514, 755.445
839.791, 723.285
841.068, 639.680
842.345, 872.105
843.621, 698.441
844.898, 1154.891
846.174, 461.547
847.450, 827.801
848.726, 1023.449
850.001, 539.652
851.277, 1335.215
852.552, 870.258
853.827, 846.402
855.102, 1199.664
856.376, 936.426
857.651, 1411.430
858.925, 1576.988
860.199, 1282.398
861.473, 1495.062
862.746, 1170.562
864.020, 1541.215
865.293, 1236.871
866.566, 888.969
867.839, 1423.855
869.112, 769.805
870.384, 1230.738
871.656, 1005.984
872.928, 804.379
874.200, 924.605
875.472, 1031.637
876.744, 676.266
878.015, 660.098
879.286, 902.668
880.557, 627.242
881.828, 742.855
883.098, 336.266
884.369, 1052.016
885.639, 504.246
886.909, 779.754
888.178, 524.867
889.448, 387.461
890.717, 1022.258
891.987, 707.293
893.256, 664.738
894.524, 620.160
895.793, 515.508
897.061, 740.520
898.330, 645.727
899.598, 580.027
900.865, 1015.438
902.133, 330.836
903.401, 1195.535
904.668, 750.633
905.935, 464.961
907.202, 1110.012
908.468, 714.660
909.735, 909.184
911.001, 664.102
912.267, 807.859
913.533, 952.648
914.799, 717.496
916.064, 441.434
917.330, 315.137
918.595, 678.793
919.860, 803.445
921.124, 627.148
922.389, 451.461
923.653, 1045.996
924.918, 419.441
926.182, 1034.109
927.445, 698.238
928.709, 1032.457
929.972, 1266.195
931.236, 1009.859
932.499, 1194.121
933.761, 1267.930
935.024, 681.793
936.286, 1056.262
937.549, 659.629
938.811, 573.891
940.073, 978.297
941.334, 465.582
942.596, 739.945
943.857, 534.008
945.118, 647.594
946.379, 961.957
947.640, 405.219
948.900, 1079.570
950.161, 672.934
951.421, 626.621
952.681, 1050.969
953.940, 371.191
955.200, 595.988
956.459, 1089.328
957.719, 572.879
958.978, 757.637
960.236, 240.555
961.495, 534.992
962.753, 249.594
964.012, 193.816
965.270, 139.980
966.527, 105.637
967.785, 208.020
969.043, 142.832
970.300, 247.234
971.557, 153.789
972.814, 209.047
974.071, 320.062
975.327, 264.699
976.583, 287.442
977.840, 54.672
979.095, 269.387
980.351, 185.945
981.607, 268.395
982.862, 277.023
984.117, 407.496
985.372, 191.945
986.627, 86.367
987.882, 280.754
989.136, 95.121
990.390, 10.523
991.644, 533.812
992.898, 91.875
994.152, 292.641
995.405, 167.188
996.659, 141.754
997.912, 456.375
999.165, 371.094
1000.417, 935.930
1001.670, 1360.820
1002.922, 685.742
1004.174, 780.672
1005.426, 285.609
1006.678, 70.562
1007.930, 655.645
1009.181, 160.773
1010.432, 55.945
1011.683, 321.113
1012.934, 146.289
1014.185, 411.461
1015.435, 466.641
1016.685, 181.824
1017.935, 917.023
1019.185, 492.242
1020.435, 707.473
1021.684, 952.742
1022.934, 778.035
1024.183, 1503.348
1025.432, 1048.695
1026.680, 1134.066
1027.929, 2039.480
1029.177, 1304.922
1030.425, 1910.402
1031.673, 1655.926
1032.921, 1151.523
1034.169, 1217.203
1035.416, 662.930
1036.663, 798.715
1037.911, 814.551
1039.157, 290.461
1040.404, 1136.453
1041.650, 392.504
1042.897, 528.566
1044.143, 954.324
1045.389, 48.543
1046.634, 883.613
1047.880, 739.062
1049.125, 453.793
1050.371, 1143.375
1051.615, 777.262
1052.860, 917.250
1054.105, 1004.078
1055.349, 806.680
1056.593, 1999.742
1057.837, 1240.859
1059.081, 1991.051
1060.325, 2713.500
1061.568, 2067.406
1062.812, 2171.270
1064.055, 1805.078
1065.298, 1387.125
1066.540, 1050.023
1067.783, 811.625
1069.025, 1084.090
1070.267, 1466.828
1071.509, 660.012
1072.751, 1143.078
1073.993, 816.020
1075.234, 708.820
1076.475, 891.465
1077.716, 713.938
1078.957, 1006.211
1080.198, 838.270
1081.438, 620.078
1082.679, 1181.605
1083.919, 872.828
1085.159, 690.574
1086.398, 1181.805
1087.638, 793.699
1088.877, 776.988
1090.116, 660.992
1091.355, 205.395
1092.594, 351.965
1093.833, 474.965
1095.071, 259.918
1096.309, 595.094
1097.547, 290.449
1098.785, 705.996
1100.023, 421.785
1101.260, 197.895
1102.498, 384.426
1103.735, 41.535
1104.972, 359.613
1106.208, 698.484
1107.445, 78.023
1108.681, 768.258
1109.918, 409.328
1111.154, 121.379
1112.389, 1014.629
1113.625, 17.793
1114.860, 627.418
1116.096, 436.145
1117.331, 205.105
1118.566, 664.812
1119.800, 0.480
1121.035, 80.754
1122.269, 0.000
##END=



