##NAMES=Tremolite
##RRUFFID=R050167
##IDEAL CHEMISTRY=[box]Ca_2_Mg_5_Si_8_O_22_(OH)_2_
##LOCALITY=Hunza Valley, Afghanistan
##OWNER=RRUFF
##SOURCE=Marcus Origlieri
##DESCRIPTION=Green tabular crystals
##STATUS=The identification of this mineral has been confirmed by X-ray diffraction and chemical analysis
##URL=rruff.info/R050167
##MEASURED CHEMISTRY=  ([box]_0.90_Na_0.10_)(Ca_0.98_Mg_0.01_Fe^2+^_0.01_)_2_(Mg_0.94_Al_0.06_)_5_(Si_0.95_Al_0.05_)_8_O_22_((OH)_0.98_F_0.02_)_2_
##PIN_ID=L00357
##ORIENTATION=Laser parallel to b* (0 1 0). Fiducial mark perpendicular to laser is parallel to c [0 0 1]
83.667, 0.000
85.064, 23.202
86.461, 12.902
87.858, 57.205
89.254, 6.767
90.650, 41.677
92.046, 136.858
93.442, 127.986
94.838, 209.249
96.233, 149.525
97.628, 170.391
99.023, 166.401
100.418, 205.541
101.812, 237.371
103.206, 313.319
104.600, 371.811
105.994, 467.312
107.387, 714.191
108.781, 1037.852
110.174, 1843.569
111.566, 2160.886
112.959, 2375.749
114.351, 3207.560
115.744, 2884.519
117.136, 3358.164
118.527, 4147.538
119.919, 5243.573
121.310, 6264.956
122.701, 7525.417
124.092, 7775.939
125.482, 7646.516
126.873, 6594.144
128.263, 5071.821
129.653, 3910.574
131.042, 2673.697
132.432, 1941.809
133.821, 1347.653
135.210, 934.504
136.599, 708.235
137.987, 511.858
139.376, 428.381
140.764, 256.819
142.152, 136.178
143.539, 83.458
144.927, 61.668
146.314, 16.810
147.701, 52.110
149.088, 21.086
150.474, 58.109
151.861, 77.171
153.247, 48.272
154.633, 68.588
156.018, 264.254
157.404, 366.193
158.789, 879.939
160.174, 1283.648
161.559, 1785.321
162.943, 1908.957
164.327, 1628.557
165.711, 1318.122
167.095, 1054.675
168.479, 871.269
169.862, 946.892
171.246, 1188.544
172.628, 1715.227
174.011, 2538.053
175.394, 3796.358
176.776, 5495.806
178.158, 7244.083
179.540, 8373.413
180.922, 8435.151
182.303, 7470.753
183.684, 5884.809
185.065, 4420.142
186.446, 3026.880
187.826, 2251.636
189.207, 1542.411
190.587, 1203.209
191.967, 903.027
193.346, 706.865
194.726, 684.737
196.105, 579.681
197.484, 553.620
198.862, 418.577
200.241, 387.485
201.619, 368.314
202.997, 300.151
204.375, 428.010
205.753, 460.865
207.130, 520.712
208.507, 655.552
209.884, 764.390
211.261, 996.236
212.638, 1204.121
214.014, 1595.073
215.390, 2085.106
216.766, 2727.192
218.141, 3732.290
219.517, 4953.375
220.892, 6538.438
222.267, 7884.476
223.642, 9025.483
225.016, 9046.468
226.391, 8397.424
227.765, 7108.350
229.139, 5667.251
230.512, 4720.125
231.886, 3828.973
233.259, 3600.793
234.632, 3246.589
236.005, 2987.363
237.377, 2684.110
238.749, 2211.836
240.122, 1824.544
241.493, 1439.234
242.865, 1204.902
244.237, 996.551
245.608, 842.183
246.979, 904.800
248.350, 1025.399
249.720, 1200.787
251.090, 1290.805
252.461, 1429.487
253.830, 1395.371
255.200, 1269.703
256.570, 1139.562
257.939, 759.395
259.308, 685.184
260.677, 449.925
262.045, 392.616
263.414, 269.257
264.782, 188.847
266.150, 173.361
267.517, 106.778
268.885, 14.110
270.252, 16.360
271.619, 28.461
272.986, 20.358
274.353, 66.324
275.719, 89.366
277.085, 24.487
278.451, 21.678
279.817, 38.972
281.182, 0.500
282.548, 51.711
283.913, 144.502
285.278, 206.028
286.642, 394.474
288.007, 562.999
289.371, 697.631
290.735, 809.206
292.099, 884.826
293.462, 762.192
294.826, 663.009
296.189, 554.751
297.552, 516.293
298.914, 562.011
300.277, 515.575
301.639, 736.520
303.001, 824.006
304.363, 882.552
305.724, 915.599
307.086, 781.926
308.447, 754.548
309.808, 591.946
311.168, 546.788
312.529, 430.613
313.889, 410.123
315.249, 323.021
316.609, 306.188
317.969, 340.274
319.328, 302.408
320.687, 302.137
322.046, 356.354
323.405, 408.243
324.764, 518.936
326.122, 602.599
327.480, 813.024
328.838, 1049.634
330.196, 1341.084
331.553, 1714.673
332.910, 1933.522
334.267, 1989.450
335.624, 1811.618
336.981, 1640.992
338.337, 1431.946
339.693, 1346.617
341.049, 1476.500
342.405, 1411.510
343.760, 1700.827
345.116, 1656.640
346.471, 1729.999
347.826, 1686.131
349.180, 1656.626
350.535, 1643.376
351.889, 1598.870
353.243, 1647.195
354.597, 1560.122
355.950, 1506.068
357.304, 1510.762
358.657, 1367.439
360.010, 1458.097
361.362, 1582.738
362.715, 1771.359
364.067, 2228.961
365.419, 2739.546
366.771, 3574.112
368.123, 4596.659
369.474, 5702.188
370.825, 6359.698
372.176, 6464.190
373.527, 6203.661
374.877, 5435.114
376.228, 4511.547
377.578, 3694.961
378.928, 3086.355
380.277, 2634.850
381.627, 2339.355
382.976, 2142.695
384.325, 2065.244
385.674, 2108.854
387.023, 2244.122
388.371, 2443.555
389.719, 2909.048
391.067, 3457.564
392.415, 4448.391
393.762, 5238.008
395.110, 5932.771
396.457, 5998.271
397.804, 5449.838
399.150, 4520.941
400.497, 3536.607
401.843, 2728.268
403.189, 1972.086
404.535, 1606.610
405.881, 1328.346
407.226, 1062.894
408.571, 1067.620
409.916, 1040.028
411.261, 1106.552
412.605, 1244.935
413.950, 1452.547
415.294, 1618.890
416.638, 1871.170
417.981, 2007.325
419.325, 1976.492
420.668, 1817.411
422.011, 1520.417
423.354, 1285.141
424.697, 1157.824
426.039, 939.326
427.381, 777.459
428.723, 668.515
430.065, 573.960
431.406, 540.828
432.748, 515.501
434.089, 519.832
435.430, 575.666
436.770, 516.680
438.111, 556.345
439.451, 505.980
440.791, 444.693
442.131, 350.512
443.471, 294.486
444.810, 194.886
446.149, 189.707
447.488, 118.090
448.827, 97.654
450.166, 69.959
451.504, 81.608
452.842, 69.022
454.180, 127.140
455.518, 31.129
456.855, 38.314
458.193, 75.202
459.530, 36.061
460.867, 59.888
462.203, 6.687
463.540, 5.547
464.876, 49.180
466.212, 63.122
467.548, 10.506
468.883, 42.103
470.219, 33.674
471.554, 46.781
472.889, 79.281
474.224, 16.168
475.558, 70.393
476.892, 29.999
478.227, 31.625
479.561, 5.277
480.894, 30.964
482.228, 65.296
483.561, 138.528
484.894, 180.733
486.227, 182.914
487.559, 247.071
488.892, 186.206
490.224, 219.316
491.556, 181.417
492.888, 114.502
494.220, 90.560
495.551, 28.594
496.882, 2.599
498.213, 24.428
499.544, 20.484
500.874, 40.585
502.205, 59.741
503.535, 50.431
504.865, 60.222
506.194, 38.557
507.524, 19.945
508.853, 10.375
510.182, 7.157
511.511, 48.661
512.840, 84.136
514.168, 174.583
515.496, 165.007
516.824, 331.406
518.152, 417.782
519.480, 447.135
520.807, 519.466
522.134, 475.773
523.461, 512.058
524.788, 390.321
526.114, 419.560
527.441, 375.776
528.767, 397.969
530.093, 408.139
531.418, 435.286
532.744, 324.410
534.069, 367.513
535.394, 322.592
536.719, 249.649
538.044, 262.684
539.368, 177.698
540.693, 169.688
542.017, 203.655
543.340, 147.600
544.664, 127.522
545.987, 206.419
547.311, 158.314
548.634, 138.185
549.956, 127.034
551.279, 46.860
552.601, 91.661
553.923, 50.440
555.245, 108.201
556.567, 86.421
557.889, 191.656
559.210, 51.352
560.531, 47.033
561.852, 3.702
563.173, 68.344
564.493, 11.980
565.813, 51.590
567.133, 3.192
568.453, 73.787
569.773, 40.358
571.092, 65.913
572.412, 3.457
573.731, 59.973
575.049, 67.470
576.368, 89.945
577.686, 79.397
579.005, 130.825
580.323, 102.233
581.640, 161.617
582.958, 163.979
584.275, 204.319
585.593, 208.637
586.909, 177.935
588.226, 186.214
589.543, 168.590
590.859, 157.963
592.175, 137.953
593.491, 131.181
594.807, 107.401
596.122, 76.627
597.438, 93.862
598.753, 110.091
600.068, 57.312
601.382, 113.530
602.697, 52.736
604.011, 106.682
605.325, 27.587
606.639, 63.171
607.952, 117.645
609.266, 27.983
610.579, 76.345
611.892, 139.633
613.205, 163.192
614.518, 108.233
615.830, 174.583
617.142, 201.156
618.454, 189.391
619.766, 257.895
621.078, 248.125
622.389, 238.549
623.700, 383.936
625.011, 325.738
626.322, 401.732
627.632, 475.861
628.943, 497.088
630.253, 546.318
631.563, 587.136
632.872, 608.747
634.182, 701.164
635.491, 769.730
636.800, 810.633
638.109, 918.831
639.418, 1058.525
640.726, 1227.672
642.035, 1403.173
643.343, 1645.003
644.651, 1744.865
645.958, 2206.892
647.266, 2499.713
648.573, 2916.437
649.880, 3442.045
651.187, 3908.497
652.494, 4595.578
653.800, 5278.593
655.106, 5773.552
656.412, 6164.646
657.718, 6654.045
659.024, 6865.180
660.329, 7267.381
661.634, 7827.558
662.939, 8597.510
664.244, 9518.581
665.549, 11410.938
666.853, 13583.854
668.157, 16537.635
669.461, 20571.355
670.765, 25145.023
672.069, 31079.096
673.372, 35003.105
674.675, 36697.250
675.978, 35921.508
677.281, 31495.691
678.583, 26369.795
679.886, 21394.010
681.188, 16598.061
682.490, 13262.104
683.792, 10346.122
685.093, 8330.127
686.394, 6724.114
687.696, 5617.086
688.997, 4671.041
690.297, 3908.206
691.598, 3418.129
692.898, 2974.173
694.198, 2556.342
695.498, 2422.657
696.798, 2036.536
698.097, 1940.356
699.397, 1695.426
700.696, 1482.488
701.995, 1474.230
703.293, 1276.571
704.592, 1219.288
705.890, 1020.363
707.188, 1042.333
708.486, 976.122
709.784, 987.132
711.081, 829.574
712.378, 818.776
713.675, 772.514
714.972, 712.718
716.269, 703.825
717.565, 613.218
718.862, 662.552
720.158, 612.774
721.453, 552.111
722.749, 524.308
724.045, 544.617
725.340, 565.941
726.635, 523.647
727.930, 496.079
729.224, 520.179
730.519, 484.662
731.813, 511.595
733.107, 493.278
734.401, 525.584
735.694, 512.584
736.988, 526.941
738.281, 534.194
739.574, 551.698
740.867, 615.097
742.160, 594.400
743.452, 767.806
744.744, 733.078
746.036, 782.284
747.328, 917.428
748.620, 944.476
749.911, 1082.482
751.202, 1092.375
752.493, 1032.126
753.784, 970.936
755.075, 817.799
756.365, 683.428
757.655, 559.278
758.945, 464.860
760.235, 452.654
761.525, 388.105
762.814, 269.693
764.103, 294.499
765.392, 212.918
766.681, 200.529
767.969, 123.396
769.258, 132.348
770.546, 68.062
771.834, 54.029
773.122, 82.980
774.409, 45.919
775.697, 10.844
776.984, 64.753
778.271, 49.654
779.558, 60.541
780.844, 64.433
782.131, 91.312
783.417, 49.180
784.703, 20.967
785.989, 39.874
787.274, 5.275
788.560, 25.557
789.845, 115.395
791.130, 8.232
792.415, 92.065
793.699, 63.890
794.983, 69.713
796.268, 54.522
797.552, 14.315
798.835, 5.092
800.119, 13.850
801.402, 10.589
802.686, 46.689
803.969, 31.010
805.251, 15.635
806.534, 10.737
807.816, 25.869
809.098, 1.460
810.380, 63.964
811.662, 24.572
812.944, 23.101
814.225, 37.372
815.506, 101.139
816.787, 6.654
818.068, 63.171
819.349, 33.689
820.629, 43.200
821.909, 6.702
823.189, 75.190
824.469, 117.666
825.749, 110.129
827.028, 110.579
828.307, 144.016
829.586, 99.439
830.865, 115.806
832.144, 130.845
833.422, 98.636
834.700, 166.010
835.978, 142.372
837.256, 149.720
838.534, 181.056
839.811, 138.380
841.088, 139.692
842.365, 172.994
843.642, 81.285
844.919, 158.563
846.195, 102.829
847.472, 69.084
848.748, 30.326
850.023, 101.553
851.299, 104.770
852.575, 75.975
853.850, 19.167
855.125, 72.350
856.400, 65.479
857.674, 103.642
858.949, 3.752
860.223, 5.852
861.497, 0.936
862.771, 0.006
864.045, 29.941
865.318, 2.916
866.591, 6.090
867.864, 4.103
869.137, 41.900
870.410, 46.938
871.682, 7.993
872.955, 75.088
874.227, 9.785
875.499, 60.354
876.770, 81.538
878.042, 65.223
879.313, 38.027
880.584, 48.308
881.855, 38.382
883.126, 15.940
884.396, 5.279
885.667, 1.365
886.937, 51.994
888.207, 2.374
889.476, 56.240
890.746, 146.843
892.015, 76.436
893.284, 118.019
894.553, 146.591
895.822, 104.154
897.090, 205.706
898.359, 136.249
899.627, 203.781
900.895, 149.306
902.163, 241.822
903.430, 251.329
904.698, 149.827
905.965, 211.320
907.232, 269.810
908.499, 288.291
909.765, 369.763
911.032, 366.228
912.298, 410.693
913.564, 468.148
914.830, 456.602
916.095, 583.049
917.361, 595.487
918.626, 646.919
919.891, 869.341
921.156, 888.705
922.420, 1080.101
923.685, 1128.216
924.949, 1408.265
926.213, 1721.426
927.477, 1908.419
928.740, 2268.277
930.004, 2518.348
931.267, 2711.344
932.530, 2878.377
933.793, 2426.416
935.056, 2230.558
936.318, 2038.511
937.581, 1699.054
938.843, 1592.951
940.104, 1421.301
941.366, 1319.115
942.628, 1376.296
943.889, 1173.019
945.150, 1380.080
946.411, 1380.014
947.672, 1452.959
948.932, 1480.831
950.193, 1359.522
951.453, 1370.162
952.713, 1252.831
953.973, 1109.475
955.232, 1089.326
956.491, 890.108
957.751, 841.737
959.010, 722.612
960.268, 674.261
961.527, 477.712
962.785, 499.399
964.044, 394.007
965.302, 462.739
966.559, 401.042
967.817, 344.936
969.075, 406.450
970.332, 281.160
971.589, 372.934
972.846, 305.538
974.102, 289.975
975.359, 348.684
976.615, 316.559
977.871, 305.389
979.127, 334.398
980.383, 292.301
981.638, 270.920
982.893, 397.075
984.149, 277.969
985.404, 357.312
986.658, 391.446
987.913, 384.492
989.167, 358.515
990.421, 358.507
991.675, 398.050
992.929, 384.294
994.183, 442.836
995.436, 375.023
996.689, 393.922
997.942, 573.263
999.195, 501.605
1000.448, 600.314
1001.700, 644.675
1002.952, 640.133
1004.204, 785.035
1005.456, 746.510
1006.708, 931.347
1007.959, 1139.309
1009.210, 1013.623
1010.461, 1139.975
1011.712, 1238.550
1012.963, 1306.147
1014.213, 1451.380
1015.464, 1446.445
1016.714, 1564.446
1017.964, 1597.669
1019.214, 1625.520
1020.463, 1890.496
1021.712, 1873.652
1022.962, 2156.369
1024.210, 2323.378
1025.459, 2633.145
1026.708, 3233.773
1027.956, 3689.465
1029.204, 4072.239
1030.452, 4420.730
1031.700, 4350.334
1032.948, 4100.601
1034.195, 3771.397
1035.442, 3140.429
1036.689, 2865.724
1037.936, 2583.510
1039.183, 2453.607
1040.429, 2428.317
1041.676, 2247.317
1042.922, 2395.152
1044.168, 2365.145
1045.413, 2506.186
1046.659, 2760.049
1047.904, 2926.074
1049.149, 3174.058
1050.394, 3697.083
1051.639, 3945.050
1052.884, 4445.979
1054.128, 4956.932
1055.372, 5518.252
1056.616, 6099.986
1057.860, 6580.902
1059.104, 7141.431
1060.347, 7392.329
1061.590, 7235.012
1062.833, 6965.466
1064.076, 6327.191
1065.319, 5908.362
1066.561, 5588.786
1067.803, 5129.771
1069.046, 5190.057
1070.287, 4800.830
1071.529, 4282.045
1072.771, 4102.072
1074.012, 3366.833
1075.253, 2837.549
1076.494, 2476.473
1077.735, 1993.632
1078.975, 1753.495
1080.216, 1387.520
1081.456, 1226.293
1082.696, 1102.450
1083.936, 884.761
1085.175, 910.070
1086.415, 820.270
1087.654, 673.070
1088.893, 699.579
1090.132, 555.440
1091.371, 578.011
1092.609, 475.188
1093.847, 384.313
1095.085, 449.769
1096.323, 464.573
1097.561, 365.569
1098.799, 426.949
1100.036, 357.312
1101.273, 312.416
1102.510, 401.209
1103.747, 274.122
1104.983, 361.074
1106.220, 312.834
1107.456, 226.792
1108.692, 344.415
1109.928, 210.851
1111.163, 369.922
1112.399, 283.332
1113.634, 147.614
1114.869, 300.812
1116.104, 279.625
1117.339, 178.111
1118.573, 204.799
1119.808, 139.537
1121.042, 262.334
1122.276, 283.543
1123.509, 317.574
1124.743, 336.157
1125.976, 258.207
1127.210, 146.328
1128.443, 222.882
1129.675, 3.545
1130.908, 116.690
1132.141, 192.112
1133.373, 49.565
1134.605, 132.925
1135.837, 151.977
1137.068, 155.039
1138.300, 160.317
1139.531, 26.051
1140.762, 95.402
1141.993, 23.187
1143.224, 51.942
1144.455, 171.937
1145.685, 31.354
1146.915, 0.604
1148.145, 105.956
1149.375, 18.450
1150.605, 87.263
1151.834, 38.375
1153.063, 17.442
1154.292, 112.863
1155.521, 9.991
1156.750, 24.357
1157.978, 10.738
1159.207, 107.391
1160.435, 59.999
1161.663, 133.813
1162.891, 23.966
1164.118, 148.321
1165.345, 73.566
1166.573, 16.488
1167.800, 102.631
1169.026, 22.441
1170.253, 50.347
1171.480, 16.307
1172.706, 34.602
1173.932, 134.642
1175.158, 38.140
1176.383, 78.406
1177.609, 16.280
1178.834, 30.513
1180.059, 164.078
1181.284, 19.204
1182.509, 72.579
1183.734, 85.181
1184.958, 47.427
1186.182, 84.541
1187.406, 57.334
1188.630, 65.460
1189.854, 40.035
1191.077, 42.050
1192.301, 45.375
1193.524, 51.417
1194.747, 42.833
1195.969, 47.994
1197.192, 35.605
1198.414, 45.589
1199.636, 50.347
1200.858, 40.966
1202.080, 1.667
1203.302, 9.234
1204.523, 41.142
1205.744, 129.206
1206.966, 36.380
1208.186, 24.086
1209.407, 133.148
1210.628, 8.263
1211.848, 1.497
1213.068, 131.199
1214.288, 16.518
1215.508, 154.917
1216.727, 37.486
1217.947, 0.721
1219.166, 202.080
1220.385, 32.658
1221.604, 36.080
1222.822, 212.121
1224.041, 61.453
1225.259, 228.586
1226.477, 184.776
1227.695, 32.089
1228.913, 151.158
1230.130, 109.292
1231.348, 129.080
1232.565, 149.684
1233.782, 38.880
1234.999, 72.080
1236.215, 221.497
1237.432, 61.073
1238.648, 136.408
1239.864, 144.037
1241.080, 67.472
1242.296, 207.926
1243.511, 155.968
1244.726, 68.838
1245.942, 296.337
1247.156, 11.257
1248.371, 181.131
1249.586, 146.547
1250.800, 141.459
1252.014, 182.583
1253.228, 128.835
1254.442, 203.743
1255.656, 241.621
1256.869, 86.156
1258.083, 240.320
1259.296, 264.272
1260.509, 65.180
1261.722, 126.924
1262.934, 197.709
1264.147, 143.177
1265.359, 123.963
1266.571, 102.179
1267.783, 237.078
1268.994, 272.161
1270.206, 132.574
1271.417, 252.027
1272.628, 226.885
1273.839, 115.383
1275.050, 365.341
1276.260, 28.574
1277.471, 120.813
1278.681, 405.291
1279.891, 118.289
1281.101, 182.584
1282.310, 170.688
1283.520, 110.503
1284.729, 232.789
1285.938, 90.147
1287.147, 43.572
1288.356, 198.889
1289.564, 131.285
1290.773, 261.365
1291.981, 105.675
1293.189, 46.571
1294.397, 212.676
1295.604, 125.384
1296.812, 77.898
1298.019, 254.516
1299.226, 38.646
1300.433, 244.999
1301.640, 181.240
1302.846, 49.582
1304.053, 215.807
1305.259, 103.099
1306.465, 73.005
1307.671, 177.366
1308.876, 118.931
1310.082, 166.133
1311.287, 155.545
1312.492, 121.825
1313.697, 164.873
1314.902, 184.833
1316.106, 76.965
1317.310, 133.198
1318.515, 102.098
1319.719, 210.318
1320.922, 258.337
1322.126, 108.148
1323.329, 248.604
1324.533, 141.383
1325.736, 107.277
1326.939, 306.441
1328.141, 106.779
1329.344, 135.070
1330.546, 214.883
1331.748, 60.994
1332.950, 149.881
1334.152, 268.501
1335.354, 42.120
1336.555, 239.729
1337.757, 138.223
1338.958, 63.577
1340.159, 211.221
1341.359, 66.366
1342.560, 155.338
1343.760, 257.305
1344.960, 124.160
1346.160, 168.879
1347.360, 136.115
1348.560, 1.833
1349.759, 190.261
1350.959, 149.476
1352.158, 82.701
1353.357, 399.031
1354.555, 7.520
1355.754, 176.532
1356.952, 173.146
1358.151, 64.259
1359.349, 212.698
1360.546, 159.797
1361.744, 104.217
1362.941, 308.083
1364.139, 113.031
1365.336, 127.140
1366.533, 201.162
1367.730, 64.132
1368.926, 155.225
1370.123, 109.772
1371.319, 36.088
1372.515, 107.177
1373.711, 92.352
1374.906, 174.097
1376.102, 159.225
1377.297, 7.661
1378.492, 54.415
1379.687, 146.377
1380.882, 24.008
1382.077, 141.547
1383.271, 88.897
1384.465, 105.892
1385.659, 312.554
1386.853, 159.769
1388.047, 46.775
1389.240, 263.690
1390.434, 150.443
1391.627, 147.871
1392.820, 243.612
1394.013, 29.981
1395.205, 285.751
1396.398, 242.668
1397.590, 98.872
1398.782, 304.745
1399.974, 126.667
1401.166, 52.840
1402.357, 238.076
1403.549, 53.079
1404.740, 258.064
1405.931, 232.156
1407.122, 87.290
1408.313, 200.598
1409.503, 275.168
1410.693, 39.396
1411.883, 327.910
1413.073, 204.883
1414.263, 178.629
1415.453, 401.694
1416.642, 105.063
1417.831, 248.358
1419.020, 231.958
1420.209, 74.434
1421.398, 367.539
1422.587, 70.878
1423.775, 254.326
1424.963, 347.800
1426.151, 120.122
1427.339, 62.301
1428.526, 315.623
1429.714, 27.345
1430.901, 268.706
1432.088, 260.466
1433.275, 53.360
1434.462, 225.368
1435.648, 263.834
1436.835, 95.963
1438.021, 318.344
1439.207, 145.742
1440.393, 296.503
1441.579, 428.538
1442.764, 100.680
1443.949, 341.519
1445.135, 291.616
1446.320, 22.428
1447.504, 364.681
1448.689, 249.422
1449.873, 184.624
1451.058, 343.357
1452.242, 190.758
1453.426, 149.120
1454.609, 460.023
1455.793, 118.355
1456.976, 367.148
1458.159, 447.250
1459.342, 197.482
1460.525, 306.002
1461.708, 291.521
1462.890, 147.752
1464.073, 446.632
1465.255, 252.746
1466.437, 167.766
1467.619, 606.485
1468.800, 194.771
1469.982, 381.169
1471.163, 466.328
1472.344, 41.887
1473.525, 459.947
1474.706, 292.121
1475.886, 34.426
1477.066, 421.195
1478.247, 162.969
1479.427, 166.379
1480.607, 531.017
1481.786, 77.501
1482.966, 300.353
1484.145, 299.639
1485.324, 155.904
1486.503, 341.516
1487.682, 495.548
1488.860, 269.568
1490.039, 855.622
1491.217, 371.038
1492.395, 45.479
1493.573, 371.149
1494.751, 265.791
1495.928, 280.821
1497.106, 311.445
1498.283, 116.411
1499.460, 216.309
1500.637, 350.198
1501.814, 17.882
1502.990, 307.115
1504.166, 271.828
1505.342, 166.926
1506.518, 451.942
1507.694, 171.612
1508.870, 186.028
1510.045, 369.254
1511.221, 144.285
1512.396, 236.471
1513.571, 206.807
1514.745, 4.265
1515.920, 82.615
1517.094, 169.501
1518.269, 31.094
1519.443, 119.657
1520.616, 0.000
##END=



