##NAMES=Tremolite
##RRUFFID=R050173
##IDEAL CHEMISTRY=[box]Ca_2_Mg_5_Si_8_O_22_(OH)_2_
##LOCALITY=Fort Dauphin, Madagascar
##OWNER=RRUFF
##SOURCE=Marcus Origlieri
##DESCRIPTION=Mass of colorless acicular crystals
##STATUS=The identification of this mineral has been confirmed by X-ray diffraction and chemical analysis
##URL=rruff.info/R050173
##MEASURED CHEMISTRY=[box]Ca_2.00_Mg_5.00_Si_8.00_O_22_(OH)_2_
##PIN_ID=L00389
##ORIENTATION=Laser parallel to a* (1 0 0). Fiducial mark perpendicular to laser is parallel to b [0 1 0]
93.958, 0.000
95.353, 7.734
96.748, 165.299
98.143, 296.312
99.538, 265.898
100.932, 368.639
102.326, 161.324
103.720, 451.734
105.114, 408.170
106.508, 159.529
107.901, 155.240
109.294, 314.705
110.687, 797.312
112.079, 1412.479
113.472, 1639.695
114.864, 1918.537
116.256, 1988.725
117.647, 2359.363
119.039, 2264.812
120.430, 3050.922
121.821, 3448.543
123.211, 3897.340
124.602, 3767.031
125.992, 3657.354
127.382, 3048.062
128.772, 2158.957
130.162, 1519.889
131.551, 1000.777
132.940, 861.486
134.329, 771.947
135.718, 582.230
137.106, 1072.244
138.494, 904.068
139.882, 839.789
141.270, 580.041
142.657, 942.717
144.045, 646.221
145.432, 819.754
146.819, 462.240
148.205, 543.688
149.592, 544.346
150.978, 504.496
152.364, 1113.992
153.749, 1332.803
155.135, 1800.822
156.520, 2417.865
157.905, 2573.816
159.290, 2678.734
160.674, 1942.676
162.059, 1425.695
163.443, 947.830
164.826, 489.127
166.210, 419.621
167.593, 230.373
168.977, 489.350
170.360, 547.625
171.742, 1355.234
173.125, 2182.207
174.507, 3118.561
175.889, 3687.863
177.271, 3413.721
178.652, 2618.611
180.034, 1666.838
181.415, 823.184
182.796, 775.479
184.176, 769.119
185.557, 859.693
186.937, 1063.439
188.317, 1333.596
189.697, 1470.820
191.076, 1822.434
192.456, 1813.771
193.835, 1975.020
195.213, 2430.223
196.592, 2281.516
197.970, 2682.586
199.349, 2762.713
200.726, 2945.846
202.104, 3207.668
203.482, 3260.748
204.859, 3314.182
206.236, 3310.502
207.613, 3493.465
208.989, 3276.643
210.366, 3371.936
211.742, 3597.910
213.118, 3558.662
214.493, 3710.941
215.869, 4000.666
217.244, 5266.574
218.619, 6528.701
219.994, 7710.322
221.368, 8181.904
222.742, 7553.410
224.117, 6434.824
225.490, 5916.125
226.864, 6547.311
228.237, 8268.707
229.611, 9609.641
230.984, 9620.445
232.356, 8461.127
233.729, 6531.676
235.101, 4352.092
236.473, 2862.379
237.845, 1782.547
239.216, 1202.604
240.588, 762.545
241.959, 982.385
243.330, 1202.127
244.701, 1741.771
246.071, 2441.334
247.441, 3170.789
248.811, 3200.145
250.181, 2929.393
251.551, 2358.535
252.920, 1387.580
254.289, 986.535
255.658, 765.424
257.027, 574.205
258.395, 802.871
259.763, 1080.369
261.131, 1075.352
262.499, 1132.344
263.867, 819.652
265.234, 527.184
266.601, 194.869
267.968, 67.348
269.334, 39.545
270.701, 261.746
272.067, 73.990
273.433, 166.295
274.799, 278.689
276.164, 301.232
277.530, 253.900
278.895, 286.654
280.260, 244.932
281.624, 191.943
282.989, 145.285
284.353, 188.805
285.717, 82.518
287.080, 113.598
288.444, 30.270
289.807, 15.533
291.170, 88.986
292.533, 123.541
293.896, 121.699
295.258, 76.787
296.620, 41.734
297.982, 446.520
299.344, 391.162
300.705, 605.662
302.067, 600.029
303.428, 484.268
304.789, 398.340
306.149, 352.229
307.510, 445.916
308.870, 399.400
310.230, 292.684
311.589, 445.764
312.949, 288.650
314.308, 31.338
315.667, 203.809
317.026, 276.074
318.385, 88.150
319.743, 130.025
321.101, 431.701
322.459, 243.199
323.817, 184.520
325.174, 335.656
326.532, 236.621
327.889, 207.418
329.246, 428.045
330.602, 378.516
331.958, 368.826
333.315, 288.982
334.671, 379.473
336.026, 500.043
337.382, 640.781
338.737, 800.893
340.092, 1012.166
341.447, 1181.465
342.802, 1232.125
344.156, 1542.232
345.510, 1602.088
346.864, 2060.443
348.218, 2348.727
349.571, 2516.170
350.925, 2532.736
352.278, 2819.598
353.630, 2195.691
354.983, 1901.543
356.336, 1507.150
357.688, 1442.430
359.040, 1037.535
360.391, 1392.484
361.743, 1567.326
363.094, 2352.059
364.445, 2986.668
365.796, 4091.166
367.147, 4835.541
368.497, 4969.750
369.847, 4073.822
371.197, 3227.730
372.547, 2781.520
373.897, 2225.174
375.246, 1968.803
376.595, 1692.213
377.944, 1486.979
379.293, 1400.160
380.641, 1354.918
381.989, 1218.990
383.337, 1392.834
384.685, 1506.912
386.032, 1881.475
387.380, 2795.936
388.727, 5210.422
390.074, 5414.557
391.421, 6989.051
392.767, 7013.490
394.113, 5939.412
395.459, 4533.027
396.805, 3276.836
398.151, 2480.215
399.496, 1834.080
400.841, 1767.727
402.186, 1410.691
403.531, 1293.896
404.875, 1226.674
406.219, 1470.359
407.564, 1583.701
408.907, 1946.910
410.251, 2640.025
411.594, 3355.461
412.937, 4020.695
414.280, 4283.621
415.623, 3835.992
416.966, 3528.381
418.308, 2980.217
419.650, 2331.082
420.992, 1642.684
422.334, 1544.197
423.675, 1366.264
425.016, 1128.166
426.357, 1179.504
427.698, 1119.094
429.038, 1237.012
430.379, 1355.150
431.719, 1825.123
433.059, 2020.977
434.399, 1950.748
435.738, 1921.418
437.077, 1585.625
438.416, 1307.781
439.755, 882.998
441.094, 865.367
442.432, 656.438
443.770, 1085.176
445.108, 1006.266
446.446, 1004.635
447.783, 1319.479
449.121, 1393.652
450.458, 1661.600
451.795, 2112.195
453.131, 2255.910
454.468, 3247.566
455.804, 4501.184
457.140, 6307.520
458.476, 8768.258
459.811, 11584.324
461.146, 13460.598
462.482, 13497.547
463.816, 12417.703
465.151, 9773.766
466.486, 7379.156
467.820, 5434.195
469.154, 4019.354
470.488, 3244.662
471.821, 2848.787
473.155, 2163.525
474.488, 1957.666
475.821, 1705.131
477.154, 1397.006
478.486, 1160.088
479.818, 1449.916
481.150, 1330.061
482.482, 1143.688
483.814, 1195.469
485.145, 956.318
486.477, 958.846
487.808, 880.240
489.138, 901.162
490.469, 704.176
491.799, 686.680
493.129, 659.006
494.459, 510.574
495.789, 452.803
497.119, 375.826
498.448, 489.342
499.777, 173.443
501.106, 648.328
502.434, 253.490
503.763, 348.562
505.091, 343.551
506.419, 778.455
507.747, 523.289
509.074, 818.062
510.402, 952.768
511.729, 1087.408
513.056, 962.002
514.383, 1196.529
515.709, 1391.037
517.035, 1135.484
518.361, 1179.871
519.687, 1414.014
521.013, 1098.369
522.338, 1042.664
523.663, 1336.904
524.988, 1811.090
526.313, 1885.229
527.638, 1889.311
528.962, 1613.338
530.286, 1687.312
531.610, 1191.264
532.934, 925.176
534.257, 509.029
535.581, 622.830
536.904, 176.582
538.227, 530.271
539.549, 123.904
540.872, 267.471
542.194, 300.996
543.516, 224.463
544.838, 87.865
546.159, 91.205
547.480, 64.471
548.802, 127.670
550.123, 20.799
551.443, 13.854
552.764, 43.160
554.084, 169.734
555.404, 102.570
556.724, 185.340
558.044, 48.047
559.363, 80.842
560.682, 223.662
562.001, 36.203
563.320, 228.682
564.639, 1.096
565.957, 53.445
567.275, 65.725
568.593, 67.945
569.911, 59.445
571.228, 57.379
572.546, 54.602
573.863, 166.520
575.180, 142.824
576.496, 140.754
577.813, 162.492
579.129, 194.174
580.445, 265.795
581.761, 107.377
583.076, 118.895
584.392, 150.355
585.707, 241.758
587.022, 73.111
588.337, 144.420
589.651, 75.730
590.966, 192.975
592.280, 148.283
593.594, 50.459
594.907, 60.807
596.221, 187.873
597.534, 93.420
598.847, 234.689
600.160, 123.945
601.473, 36.615
602.785, 128.742
604.097, 80.215
605.409, 81.969
606.721, 83.488
608.033, 35.334
609.344, 36.818
610.655, 79.551
611.966, 11.031
613.277, 73.076
614.588, 95.451
615.898, 106.955
617.208, 238.898
618.518, 60.254
619.828, 132.020
621.137, 76.709
622.446, 164.762
623.755, 167.088
625.064, 128.346
626.373, 282.533
627.681, 144.393
628.990, 185.400
630.298, 317.369
631.605, 118.309
632.913, 320.070
634.220, 361.383
635.527, 262.312
636.834, 204.148
638.141, 554.988
639.448, 525.822
640.754, 566.723
642.060, 677.908
643.366, 818.924
644.672, 719.885
645.977, 1100.717
647.283, 1412.086
648.588, 1162.754
649.892, 1643.396
651.197, 1834.018
652.502, 1834.125
653.806, 1943.980
655.110, 1933.502
656.414, 2014.719
657.717, 2033.520
659.021, 2314.523
660.324, 2863.445
661.627, 3203.418
662.930, 4203.191
664.232, 5544.320
665.534, 7238.348
666.837, 9929.770
668.138, 13480.588
669.440, 18265.482
670.742, 21885.883
672.043, 23136.246
673.344, 20917.627
674.645, 17448.139
675.946, 13099.199
677.246, 9719.465
678.546, 7440.215
679.846, 5471.863
681.146, 4102.492
682.446, 3836.111
683.745, 3056.199
685.045, 2947.609
686.344, 2918.334
687.642, 2447.230
688.941, 2750.289
690.239, 2390.502
691.538, 2190.840
692.836, 1912.961
694.133, 1801.398
695.431, 1431.840
696.728, 1220.383
698.025, 1514.760
699.322, 1824.162
700.619, 773.035
701.916, 931.543
703.212, 659.016
704.508, 697.084
705.804, 634.678
707.100, 587.920
708.395, 758.828
709.690, 614.359
710.985, 403.330
712.280, 421.219
713.575, 529.369
714.869, 327.490
716.164, 305.121
717.458, 510.201
718.751, 447.270
720.045, 475.229
721.338, 393.113
722.632, 470.801
723.925, 458.668
725.217, 256.211
726.510, 581.311
727.802, 456.699
729.095, 434.832
730.386, 602.211
731.678, 219.873
732.970, 688.072
734.261, 575.309
735.552, 632.859
736.843, 783.865
738.134, 1081.357
739.424, 998.777
740.715, 1176.629
742.005, 744.076
743.295, 891.781
744.584, 678.787
745.874, 1015.486
747.163, 1062.135
748.452, 1259.098
749.741, 1223.801
751.030, 1010.355
752.318, 927.322
753.607, 713.973
754.895, 621.652
756.182, 732.564
757.470, 169.133
758.758, 566.211
760.045, 272.691
761.332, 429.154
762.619, 245.598
763.905, 541.812
765.192, 28.008
766.478, 454.348
767.764, 200.375
769.050, 336.631
770.335, 88.855
771.621, 195.195
772.906, 392.055
774.191, 218.143
775.475, 494.498
776.760, 257.475
778.044, 43.914
779.329, 290.328
780.613, 193.447
781.896, 156.760
783.180, 339.191
784.463, 85.289
785.746, 461.906
787.029, 117.664
788.312, 224.232
789.594, 310.947
790.877, 87.219
792.159, 423.213
793.441, 319.873
794.722, 296.504
796.004, 223.102
797.285, 259.662
798.566, 266.189
799.847, 292.684
801.128, 159.145
802.408, 395.576
803.689, 421.975
804.969, 468.344
806.249, 344.684
807.528, 470.992
808.808, 347.271
810.087, 23.531
811.366, 279.783
812.645, 186.037
813.923, 652.234
815.202, 158.408
816.480, 194.957
817.758, 121.068
819.036, 42.861
820.314, 33.143
821.591, 169.104
822.868, 54.971
824.145, 251.084
825.422, 143.092
826.699, 12.967
827.975, 199.154
829.251, 314.986
830.527, 240.484
831.803, 115.963
833.079, 1.404
834.354, 126.822
835.629, 37.711
836.904, 237.943
838.179, 3.326
839.454, 68.865
840.728, 125.811
842.002, 30.602
843.276, 164.547
844.550, 99.658
845.824, 15.188
847.097, 209.908
848.370, 75.076
849.643, 120.146
850.916, 74.816
852.188, 80.145
853.461, 125.068
854.733, 69.959
856.005, 314.820
857.277, 139.658
858.548, 311.717
859.820, 389.252
861.091, 384.018
862.362, 298.760
863.633, 13.482
864.903, 188.178
866.173, 202.844
867.444, 67.479
868.713, 211.945
869.983, 93.707
871.253, 290.807
872.522, 265.293
873.791, 39.754
875.060, 144.180
876.329, 108.582
877.597, 182.961
878.866, 186.859
880.134, 141.238
881.402, 15.629
882.670, 299.996
883.937, 204.332
885.204, 68.062
886.472, 332.352
887.739, 266.609
889.005, 29.145
890.272, 185.047
891.538, 209.211
892.804, 133.348
894.070, 437.453
895.336, 81.535
896.601, 315.586
897.867, 329.621
899.132, 353.629
900.397, 473.016
901.662, 466.855
902.926, 555.656
904.190, 449.637
905.455, 383.637
906.718, 207.613
907.982, 481.559
909.246, 265.504
910.509, 228.750
911.772, 612.648
913.035, 436.273
914.298, 620.129
915.560, 713.598
916.823, 687.402
918.085, 871.145
919.347, 853.707
920.608, 1176.918
921.870, 1270.645
923.131, 1553.375
924.392, 2286.527
925.653, 2620.207
926.914, 3633.406
928.175, 3787.039
929.435, 3700.383
930.695, 3192.805
931.955, 2936.238
933.215, 2066.676
934.474, 1609.383
935.734, 1552.875
936.993, 1135.352
938.252, 1168.793
939.511, 1211.355
940.769, 1394.336
942.027, 1337.652
943.286, 1770.008
944.544, 1813.316
945.801, 1526.598
947.059, 1929.746
948.316, 1092.562
949.573, 1045.504
950.830, 1148.543
952.087, 741.625
953.344, 475.773
954.600, 618.852
955.856, 842.223
957.112, 716.105
958.368, 549.102
959.623, 522.066
960.879, 394.480
962.134, 585.574
963.389, 309.750
964.644, 352.832
965.898, 485.648
967.153, 218.270
968.407, 480.504
969.661, 422.402
970.915, 381.027
972.168, 382.492
973.422, 355.781
974.675, 263.352
975.928, 336.551
977.181, 220.406
978.433, 185.852
979.686, 267.590
980.938, 446.918
982.190, 328.609
983.442, 541.305
984.693, 466.645
985.945, 316.223
987.196, 254.695
988.447, 322.941
989.698, 275.340
990.949, 531.164
992.199, 416.352
993.449, 505.703
994.699, 344.477
995.949, 514.293
997.199, 514.195
998.448, 322.730
999.697, 645.492
1000.947, 486.957
1002.195, 633.684
1003.444, 694.656
1004.693, 655.785
1005.941, 756.656
1007.189, 579.125
1008.437, 560.230
1009.684, 842.266
1010.932, 784.047
1012.179, 1175.801
1013.426, 997.453
1014.673, 1238.527
1015.920, 1530.191
1017.166, 1971.352
1018.413, 1914.898
1019.659, 2266.930
1020.905, 2642.582
1022.151, 3104.004
1023.396, 4445.285
1024.641, 5515.824
1025.887, 6497.617
1027.132, 7149.254
1028.376, 6510.977
1029.621, 5291.180
1030.865, 4009.930
1032.109, 3361.211
1033.353, 2093.285
1034.597, 1904.648
1035.841, 1515.219
1037.084, 1447.527
1038.327, 1561.230
1039.570, 1069.141
1040.813, 1070.395
1042.056, 1421.195
1043.298, 1202.086
1044.540, 1373.641
1045.782, 1544.832
1047.024, 1206.152
1048.266, 1657.836
1049.507, 1578.984
1050.748, 2180.121
1051.990, 2732.945
1053.230, 2904.695
1054.471, 4385.777
1055.711, 5316.844
1056.952, 6667.527
1058.192, 7228.562
1059.432, 6839.363
1060.671, 5920.000
1061.911, 4270.992
1063.150, 3571.957
1064.389, 3222.902
1065.628, 2623.828
1066.867, 2777.578
1068.105, 2838.410
1069.344, 2219.227
1070.582, 2220.020
1071.820, 1690.805
1073.058, 1491.902
1074.295, 1432.645
1075.532, 953.332
1076.770, 1003.953
1078.007, 1364.484
1079.243, 1014.844
1080.480, 1125.141
1081.716, 695.375
1082.953, 865.648
1084.189, 1165.805
1085.424, 1035.891
1086.660, 675.938
1087.895, 755.961
1089.131, 955.957
1090.366, 455.938
1091.601, 865.887
1092.835, 535.820
1094.070, 375.715
1095.304, 375.566
1096.538, 495.371
1097.772, 625.156
1099.005, 344.906
1100.239, 354.621
1101.472, 24.145
1102.705, 383.625
1103.938, 293.066
1105.171, 162.441
1106.404, 411.773
1107.636, 441.074
1108.868, 80.324
1110.100, 80.469
1111.332, 48.676
1112.563, 177.738
1113.795, 366.777
1115.026, 245.777
1116.257, 515.996
1117.488, 453.262
1118.718, 782.148
1119.949, 650.980
1121.179, 529.770
1122.409, 128.512
1123.639, 147.031
1124.868, 35.699
1126.098, 25.980
1127.327, 57.871
1128.556, 50.504
1129.785, 110.891
1131.014, 87.637
1132.242, 33.867
1133.470, 245.426
1134.699, 372.887
1135.927, 58.457
1137.154, 19.801
1138.382, 32.176
1139.609, 704.895
1140.836, 383.086
1142.063, 351.363
1143.290, 250.484
1144.517, 267.574
1145.743, 64.387
1146.969, 33.543
1148.195, 301.508
1149.421, 169.469
1150.647, 457.438
1151.872, 405.398
1153.097, 403.355
1154.322, 221.289
1155.547, 598.859
1156.772, 306.484
1157.996, 583.980
1159.221, 411.449
1160.445, 558.879
1161.669, 196.258
1162.892, 233.578
1164.116, 440.879
1165.339, 1.820
1166.562, 145.633
1167.785, 62.973
1169.008, 372.461
1170.231, 367.879
1171.453, 308.391
1172.675, 108.887
1173.897, 109.320
1175.119, 159.637
1176.341, 100.078
1177.562, 79.809
1178.783, 100.430
1180.004, 180.668
1181.225, 250.891
1182.446, 301.082
1183.666, 131.258
1184.887, 11.402
1186.107, 411.512
1187.327, 241.605
1188.546, 371.680
1189.766, 271.734
1190.985, 291.773
1192.204, 141.781
1193.423, 341.746
1194.642, 251.695
1195.861, 431.617
1197.079, 501.535
1198.297, 261.426
1199.515, 51.312
1200.733, 621.188
1201.951, 381.059
1203.168, 360.918
1204.385, 460.773
1205.602, 420.625
1206.819, 420.477
1208.036, 740.191
1209.253, 447.625
1210.469, 417.020
1211.685, 635.645
1212.901, 23.766
1214.117, 620.469
1215.332, 458.992
1216.548, 477.930
1217.763, 687.609
1218.978, 307.312
1220.193, 684.141
1221.407, 424.820
1222.622, 682.379
1223.836, 494.859
1225.050, 767.562
1226.264, 596.121
1227.477, 764.086
1228.691, 522.504
1229.904, 539.297
1231.117, 464.668
1232.330, 398.973
1233.543, 705.238
1234.755, 362.922
1235.968, 539.504
1237.180, 326.711
1238.392, 914.355
1239.604, 319.664
1240.815, 701.484
1242.027, 444.445
1243.238, 591.859
1244.449, 506.605
1245.660, 499.832
1246.871, 449.996
1248.081, 402.027
1249.291, 396.336
1250.501, 365.371
1251.711, 331.871
1252.921, 342.566
1254.131, 344.488
1255.340, 357.660
1256.549, 532.156
1257.758, 710.500
1258.967, 244.379
1260.175, 857.762
1261.384, 321.070
1262.592, 814.105
1263.800, 566.855
1265.008, 331.277
1266.216, 403.535
1267.423, 634.414
1268.630, 366.047
1269.838, 337.930
1271.044, 610.816
1272.251, 513.836
1273.458, 727.652
1274.664, 692.613
1275.870, 335.219
1277.076, 608.660
1278.282, 571.984
1279.488, 505.277
1280.693, 58.426
1281.898, 582.824
1283.103, 637.387
1284.308, 137.914
1285.513, 466.930
1286.717, 181.945
1287.922, 747.172
1289.126, 252.566
1290.330, 598.402
1291.534, 524.832
1292.737, 271.766
1293.940, 309.152
1295.144, 376.957
1296.347, 545.246
1297.549, 304.164
1298.752, 508.453
1299.955, 513.434
1301.157, 145.801
1302.359, 568.586
1303.561, 390.566
1304.762, 861.176
1305.964, 339.594
1307.165, 364.820
1308.366, 389.230
1309.567, 226.277
1310.768, 146.098
1311.969, 235.707
1313.169, 2.680
1314.369, 0.000
##END=



