##NAMES=Tremolite
##RRUFFID=R040045
##IDEAL CHEMISTRY=[box]Ca_2_Mg_5_Si_8_O_22_(OH)_2_
##LOCALITY=Gouverneur, New York, USA
##OWNER=RRUFF
##SOURCE=University of Arizona Mineral Museum
##DESCRIPTION=Group of colorless acicular single crystals
##STATUS=The identification of this mineral has been confirmed by X-ray diffraction and chemical analysis
##URL=rruff.info/R040045
##MEASURED CHEMISTRY=Ca_2.01_(Mg_0.99_Fe_0.01_)_5_(Si_0.99_Fe_0.01_)_8_O_22_(OH)_2_
##PIN_ID=S00030
##ORIENTATION=Laser parallel to c [0 0 1]. Fiducial mark perpendicular to laser is parallel to -b* (0 -1 0)
120.508, 0.000
121.897, 136.448
123.286, 104.533
124.675, 192.957
126.063, 128.378
127.452, 12.021
128.840, 53.271
130.228, 6.964
131.615, 126.429
133.003, 52.825
134.390, 31.749
135.777, 102.830
137.164, 105.771
138.550, 60.330
139.937, 186.319
141.323, 303.606
142.709, 312.048
144.094, 281.515
145.480, 311.900
146.865, 253.125
148.250, 345.114
149.635, 337.802
151.019, 511.125
152.403, 735.026
153.788, 1519.463
155.171, 2354.392
156.555, 3529.775
157.939, 4225.581
159.322, 4331.956
160.705, 4368.857
162.088, 3926.088
163.470, 2913.615
164.853, 1941.411
166.235, 1569.466
167.617, 1387.766
168.998, 1676.301
170.380, 1935.062
171.761, 3104.135
173.142, 4593.496
174.523, 6453.041
175.904, 8012.760
177.284, 8402.646
178.664, 8362.688
180.044, 7472.881
181.424, 5743.218
182.803, 3803.689
184.183, 2624.291
185.562, 1765.018
186.940, 1075.860
188.319, 646.817
189.698, 667.887
191.076, 329.066
192.454, 420.355
193.831, 331.748
195.209, 333.246
196.586, 294.950
197.963, 315.641
199.340, 417.349
200.717, 259.652
202.093, 361.529
203.470, 353.504
204.846, 525.506
206.221, 397.508
207.597, 739.527
208.972, 671.684
210.347, 1103.885
211.722, 1246.189
213.097, 1748.572
214.472, 2391.014
215.846, 3663.523
217.220, 5386.182
218.594, 7708.904
219.967, 10041.668
221.341, 11274.502
222.714, 11464.156
224.087, 10837.021
225.460, 9119.916
226.832, 7002.865
228.204, 5205.893
229.577, 3368.979
230.948, 2442.094
232.320, 1845.243
233.692, 1248.428
235.063, 991.645
236.434, 794.888
237.805, 558.158
239.175, 341.454
240.545, 324.777
241.916, 378.124
243.286, 201.494
244.655, 414.888
246.025, 508.304
247.394, 581.738
248.763, 655.196
250.132, 668.677
251.501, 572.180
252.869, 635.715
254.237, 409.275
255.605, 382.935
256.973, 246.617
258.340, 270.382
259.708, 374.176
261.075, 258.041
262.442, 301.936
263.808, 335.851
265.175, 249.821
266.541, 213.814
267.907, 147.926
269.273, 107.011
270.639, 3.774
272.004, 0.395
273.369, 15.428
274.734, 141.237
276.099, 17.193
277.463, 21.377
278.828, 95.607
280.192, 20.180
281.556, 174.024
282.919, 58.229
284.283, 162.452
285.646, 168.587
287.009, 259.634
288.372, 353.084
289.734, 274.689
291.097, 426.493
292.459, 379.170
293.821, 402.006
295.183, 321.999
296.544, 364.526
297.905, 587.186
299.266, 723.931
300.627, 837.026
301.988, 955.462
303.348, 889.103
304.709, 782.726
306.069, 615.961
307.428, 582.769
308.788, 476.672
310.147, 280.295
311.507, 269.292
312.865, 17.562
314.224, 221.257
315.583, 44.897
316.941, 68.582
318.299, 2.309
319.657, 39.431
321.015, 183.243
322.372, 122.576
323.729, 34.916
325.086, 278.792
326.443, 62.913
327.800, 286.852
329.156, 440.805
330.512, 655.166
331.868, 781.355
333.224, 966.014
334.579, 863.852
335.935, 1257.906
337.290, 1221.975
338.645, 1246.061
339.999, 620.211
341.354, 584.324
342.708, 609.037
344.062, 613.355
345.416, 657.500
346.769, 741.838
348.123, 996.184
349.476, 970.359
350.829, 1074.543
352.182, 898.732
353.534, 1072.928
354.887, 817.133
356.239, 841.340
357.591, 605.551
358.942, 509.770
360.294, 693.988
361.645, 428.172
362.996, 662.355
364.347, 836.541
365.698, 1040.727
367.048, 1424.914
368.398, 1609.104
369.748, 1653.293
371.098, 1487.482
372.448, 1401.672
373.797, 1175.861
375.146, 1080.053
376.495, 964.240
377.844, 748.854
379.192, 803.035
380.540, 507.689
381.889, 482.467
383.236, 507.246
384.584, 391.562
385.932, 576.418
387.279, 907.941
388.626, 1052.178
389.973, 1486.834
391.319, 1791.611
392.666, 2130.973
394.012, 2187.273
395.358, 1981.748
396.704, 1526.469
398.049, 1276.203
399.394, 790.266
400.740, 445.490
402.084, 531.217
403.429, 365.414
404.774, 290.408
406.118, 368.523
407.462, 233.039
408.806, 318.363
410.150, 312.574
411.493, 528.523
412.836, 672.975
414.179, 609.514
415.522, 583.824
416.865, 598.338
418.207, 373.232
419.549, 297.648
420.891, 262.256
422.233, 86.613
423.575, 31.127
424.916, 25.822
426.257, 80.445
427.598, 65.148
428.939, 109.436
430.279, 213.553
431.619, 160.898
432.959, 138.160
434.299, 172.652
435.639, 226.566
436.978, 246.619
438.318, 191.070
439.657, 295.822
440.996, 159.918
442.334, 213.590
443.673, 217.998
445.011, 105.264
446.349, 80.395
447.687, 103.197
449.024, 22.830
450.361, 40.641
451.699, 84.807
453.036, 1.154
454.372, 8.281
455.709, 108.070
457.045, 95.891
458.381, 99.928
459.717, 46.410
461.053, 27.170
462.388, 68.713
463.724, 14.498
465.059, 18.258
466.394, 101.432
467.728, 35.115
469.063, 18.635
470.397, 51.730
471.731, 65.195
473.065, 52.188
474.398, 80.777
475.732, 143.719
477.065, 196.646
478.398, 196.484
479.731, 27.561
481.063, 115.277
482.396, 38.098
483.728, 33.299
485.060, 279.463
486.391, 72.207
487.723, 124.932
489.054, 137.637
490.385, 40.318
491.716, 7.027
493.047, 205.586
494.377, 41.826
495.708, 220.699
497.038, 163.230
498.368, 225.736
499.697, 138.219
501.027, 190.672
502.356, 33.102
503.685, 115.516
505.014, 187.902
506.342, 120.262
507.671, 122.588
508.999, 274.889
510.327, 217.164
511.655, 179.414
512.982, 291.639
514.310, 253.842
515.637, 416.014
516.964, 368.164
518.291, 280.283
519.617, 322.373
520.944, 434.439
522.270, 386.477
523.596, 278.484
524.921, 550.463
526.247, 552.416
527.572, 464.340
528.897, 606.242
530.222, 678.113
531.547, 449.965
532.871, 491.787
534.196, 213.578
535.520, 405.334
536.844, 117.082
538.167, 288.795
539.491, 110.477
540.814, 82.127
542.137, 83.740
543.460, 195.312
544.783, 66.854
546.105, 71.643
547.427, 209.768
548.749, 111.146
550.071, 82.482
551.393, 36.223
552.714, 14.992
554.035, 156.156
555.356, 97.279
556.677, 41.355
557.998, 309.646
559.318, 50.611
560.638, 32.305
561.958, 223.170
563.278, 64.070
564.597, 14.680
565.917, 148.008
567.236, 48.867
568.555, 219.787
569.874, 139.018
571.192, 161.779
572.511, 12.609
573.829, 193.451
575.147, 143.980
576.464, 76.049
577.782, 166.336
579.099, 119.393
580.416, 178.066
581.733, 138.227
583.050, 98.342
584.366, 109.127
585.683, 159.643
586.999, 105.604
588.315, 215.537
589.630, 4.568
590.946, 3.893
592.261, 116.072
593.576, 215.775
594.891, 195.918
596.206, 115.596
597.520, 75.684
598.834, 195.293
600.148, 235.596
601.462, 115.342
602.776, 4.807
604.089, 124.967
605.402, 289.762
606.715, 199.252
608.028, 367.010
609.341, 147.363
610.653, 176.484
611.965, 44.361
613.277, 266.377
614.589, 168.148
615.901, 147.568
617.212, 238.645
618.523, 243.451
619.834, 113.648
621.145, 337.516
622.456, 177.438
623.766, 377.025
625.076, 247.621
626.386, 163.883
627.696, 412.811
629.006, 391.611
630.315, 495.414
631.624, 353.346
632.933, 382.072
634.242, 542.062
635.551, 581.240
636.859, 650.408
638.167, 636.082
639.475, 735.172
640.783, 579.625
642.090, 784.160
643.398, 972.871
644.705, 793.344
646.012, 1201.896
647.318, 1341.150
648.625, 1428.930
649.931, 1535.475
651.237, 2013.740
652.543, 2037.723
653.849, 2413.346
655.155, 2171.082
656.460, 2579.777
657.765, 2608.105
659.070, 2895.600
660.375, 3087.418
661.679, 3885.225
662.984, 4432.361
664.288, 5439.488
665.592, 7077.879
666.895, 9306.227
668.199, 12484.172
669.502, 15991.980
670.805, 20481.416
672.108, 23418.891
673.411, 25837.605
674.713, 23655.143
676.016, 20722.363
677.318, 16730.764
678.620, 12967.730
679.921, 9825.695
681.223, 7622.730
682.524, 5720.848
683.825, 4768.914
685.126, 3987.707
686.427, 3414.373
687.727, 3184.186
689.028, 3021.209
690.328, 2487.930
691.628, 2524.680
692.927, 2186.342
694.227, 1882.777
695.526, 1640.154
696.825, 1467.180
698.124, 1023.291
699.423, 1099.262
700.721, 695.305
702.020, 1001.988
703.318, 891.705
704.616, 668.092
705.913, 633.129
707.211, 408.406
708.508, 719.334
709.805, 523.648
711.102, 688.977
712.399, 314.629
713.695, 395.168
714.992, 470.570
716.288, 195.949
717.584, 469.365
718.879, 365.766
720.175, 270.049
721.470, 22.830
722.765, 337.348
724.060, 312.365
725.355, 237.869
726.649, 290.502
727.944, 279.037
729.238, 261.703
730.532, 347.607
731.825, 41.848
733.119, 406.148
734.412, 260.492
735.705, 205.047
736.998, 490.266
738.291, 423.908
739.584, 217.900
740.876, 271.650
742.168, 465.645
743.460, 419.992
744.752, 544.021
746.043, 185.223
747.334, 335.654
748.626, 428.820
749.916, 294.611
751.207, 557.605
752.498, 290.240
753.788, 394.133
755.078, 217.418
756.368, 340.314
757.658, 302.701
758.947, 302.082
760.237, 154.297
761.526, 347.174
762.815, 249.605
764.104, 112.455
765.392, 414.982
766.680, 147.121
767.969, 3.787
769.257, 266.154
770.544, 268.102
771.832, 9.895
773.119, 431.980
774.406, 54.055
775.693, 245.504
776.980, 37.756
778.267, 79.369
779.553, 21.480
780.839, 103.225
782.125, 154.568
783.411, 256.480
784.697, 168.330
785.982, 29.865
787.267, 261.861
788.552, 43.521
789.837, 155.105
791.122, 146.623
792.406, 168.070
793.690, 139.463
794.974, 69.215
796.258, 341.994
797.542, 203.150
798.825, 5.758
800.108, 215.248
801.391, 76.186
802.674, 287.051
803.957, 138.098
805.239, 238.838
806.522, 189.516
807.804, 89.855
809.085, 331.463
810.367, 102.033
811.649, 153.107
812.930, 354.223
814.211, 41.113
815.492, 219.814
816.772, 410.455
818.053, 364.641
819.333, 84.709
820.613, 106.453
821.893, 176.568
823.173, 216.918
824.452, 8.375
825.732, 284.078
827.011, 55.832
828.290, 246.285
829.568, 323.408
830.847, 84.150
832.125, 369.088
833.403, 129.098
834.681, 329.029
835.959, 98.760
837.236, 98.406
838.514, 27.828
839.791, 368.090
841.068, 3.049
842.345, 256.465
843.621, 315.527
844.898, 294.598
846.174, 36.113
847.450, 243.535
848.726, 123.273
850.001, 101.469
851.277, 239.594
852.552, 257.652
853.827, 336.330
855.102, 84.893
856.376, 114.170
857.651, 221.988
858.925, 430.568
860.199, 328.789
861.473, 256.422
862.746, 164.359
864.020, 341.887
865.293, 189.354
866.566, 196.816
867.839, 374.186
869.112, 111.494
870.384, 417.965
871.656, 95.148
872.928, 352.209
874.200, 48.807
875.472, 373.854
876.744, 90.617
878.015, 177.166
879.286, 553.340
880.557, 20.234
881.828, 246.055
883.098, 137.773
884.369, 318.605
885.639, 193.346
886.909, 279.764
888.178, 165.545
889.448, 91.031
890.717, 367.217
891.987, 223.354
893.256, 278.723
894.524, 254.262
895.793, 120.240
897.061, 276.166
898.330, 162.037
899.598, 337.012
900.865, 332.588
902.133, 151.668
903.401, 553.535
904.668, 409.125
905.935, 74.207
907.202, 299.670
908.468, 414.340
909.735, 399.473
911.001, 414.396
912.267, 549.295
913.533, 633.525
914.799, 698.510
916.064, 423.039
917.330, 306.926
918.595, 851.973
919.860, 795.873
921.124, 1058.404
922.389, 1072.703
923.653, 1606.891
924.918, 1709.270
926.182, 2203.832
927.445, 2806.594
928.709, 3620.299
929.972, 3762.730
931.236, 3755.482
932.499, 3317.584
933.761, 3190.406
935.024, 2223.422
936.286, 2006.789
937.549, 1639.734
938.811, 1299.229
940.073, 1482.436
941.334, 1174.371
942.596, 1007.016
943.857, 1189.568
945.118, 1052.156
946.379, 1364.572
947.640, 1251.188
948.900, 1314.344
950.161, 1253.637
951.421, 917.309
952.681, 909.873
953.940, 661.686
955.200, 314.354
956.459, 506.346
957.719, 388.713
958.978, 550.824
960.236, 165.631
961.495, 328.232
962.753, 190.184
964.012, 161.934
965.270, 35.074
966.527, 162.445
967.785, 214.281
969.043, 33.137
970.300, 319.172
971.557, 10.457
972.814, 272.230
974.071, 136.410
975.327, 14.996
976.583, 65.332
977.840, 3.520
979.095, 96.691
980.351, 92.023
981.607, 43.973
982.862, 59.953
984.117, 131.934
985.372, 132.883
986.627, 164.211
987.882, 164.852
989.136, 199.305
990.390, 34.254
991.644, 295.586
992.898, 113.703
994.152, 204.477
995.405, 185.469
996.659, 116.512
997.912, 42.359
999.165, 22.922
1000.417, 452.879
1001.670, 342.625
1002.922, 323.066
1004.174, 143.535
1005.426, 154.359
1006.678, 23.809
1007.930, 383.469
1009.181, 103.656
1010.432, 174.684
1011.683, 315.262
1012.934, 215.520
1014.185, 305.375
1015.435, 586.016
1016.685, 218.180
1017.935, 888.176
1019.185, 978.926
1020.435, 927.746
1021.684, 947.258
1022.934, 718.309
1024.183, 1218.918
1025.432, 1129.008
1026.680, 917.129
1027.929, 1576.609
1029.177, 1187.566
1030.425, 1598.148
1031.673, 1248.508
1032.921, 1179.172
1034.169, 1089.109
1035.416, 819.301
1036.663, 600.484
1037.911, 1048.207
1039.157, 717.965
1040.404, 1109.008
1041.650, 1020.473
1042.897, 921.961
1044.143, 1163.387
1045.389, 1134.227
1046.634, 1635.539
1047.880, 1756.801
1049.125, 1738.016
1050.371, 2669.188
1051.615, 3330.316
1052.860, 3781.426
1054.105, 5112.484
1055.349, 6743.523
1056.593, 9574.543
1057.837, 11795.523
1059.081, 15286.477
1060.325, 16557.461
1061.568, 15168.410
1062.812, 12939.340
1064.055, 10129.898
1065.298, 7680.762
1066.540, 5810.301
1067.783, 4418.953
1069.025, 3462.125
1070.267, 3255.793
1071.509, 2163.391
1072.751, 1827.293
1073.993, 1755.402
1075.234, 1310.457
1076.475, 1255.957
1077.716, 825.262
1078.957, 782.402
1080.198, 929.941
1081.438, 496.820
1082.679, 574.008
1083.919, 701.000
1085.159, 475.555
1086.398, 784.871
1087.638, 562.926
1088.877, 478.406
1090.116, 646.020
1091.355, 204.098
1092.594, 782.449
1093.833, 410.746
1095.071, 289.609
1096.309, 568.449
1097.547, 447.223
1098.785, 255.957
1100.023, 234.852
1101.260, 113.680
1102.498, 102.438
1103.735, 261.137
1104.972, 170.016
1106.208, 234.293
1107.445, 127.496
1108.681, 226.082
1109.918, 124.555
1111.154, 22.906
1112.389, 142.574
1113.625, 9.234
1114.860, 227.199
1116.096, 315.023
1117.331, 192.699
1118.566, 260.230
1119.800, 27.762
1121.035, 14.551
1122.269, 513.621
1123.503, 252.195
1124.737, 581.227
1125.971, 40.348
1127.205, 219.578
1128.438, 198.973
1129.671, 318.465
1130.904, 28.090
1132.137, 27.797
1133.370, 2.445
1134.602, 127.371
1135.834, 3.156
1137.066, 356.180
1138.298, 126.164
1139.530, 246.234
1140.762, 94.309
1141.993, 192.129
1143.224, 382.465
1144.455, 63.043
1145.686, 557.453
1146.917, 218.230
1148.147, 197.367
1149.377, 168.379
1150.607, 247.168
1151.837, 192.723
1153.067, 98.539
1154.296, 149.168
1155.526, 209.582
1156.755, 170.609
1157.984, 309.805
1159.213, 281.434
1160.441, 523.156
1161.670, 235.062
1162.898, 149.152
1164.126, 5.590
1165.354, 411.398
1166.581, 198.520
1167.809, 393.102
1169.036, 0.000
##END=



