##NAMES=Tremolite
##RRUFFID=R050167
##IDEAL CHEMISTRY=[box]Ca_2_Mg_5_Si_8_O_22_(OH)_2_
##LOCALITY=Hunza Valley, Afghanistan
##OWNER=RRUFF
##SOURCE=Marcus Origlieri
##DESCRIPTION=Green tabular crystals
##STATUS=The identification of this mineral has been confirmed by X-ray diffraction and chemical analysis
##URL=rruff.info/R050167
##MEASURED CHEMISTRY=  ([box]_0.90_Na_0.10_)(Ca_0.98_Mg_0.01_Fe^2+^_0.01_)_2_(Mg_0.94_Al_0.06_)_5_(Si_0.95_Al_0.05_)_8_O_22_((OH)_0.98_F_0.02_)_2_
##PIN_ID=M00489
##ORIENTATION=Laser parallel to (1 0 1). Fiducial mark perpendicular to laser is parallel to -b [0 -1 0]
96.037, 0.000
97.434, 18.033
98.831, 40.330
100.227, 129.022
101.624, 43.406
103.020, 33.002
104.416, 6.393
105.812, 175.473
107.207, 277.327
108.603, 784.946
109.998, 1209.318
111.393, 758.308
112.787, 760.708
114.182, 889.464
115.576, 1236.391
116.970, 1687.565
118.363, 2180.617
119.757, 2500.535
121.150, 2529.044
122.543, 2258.286
123.936, 1636.330
125.328, 1290.838
126.720, 914.709
128.112, 608.665
129.504, 390.682
130.896, 285.742
132.287, 248.832
133.678, 139.938
135.069, 114.050
136.460, 122.159
137.850, 27.261
139.240, 35.391
140.630, 46.978
142.020, 8.852
143.410, 17.584
144.799, 33.942
146.188, 22.703
147.577, 21.501
148.965, 44.541
150.354, 83.568
151.742, 46.185
153.130, 57.835
154.517, 259.372
155.905, 510.803
157.292, 998.143
158.679, 1842.399
160.066, 2716.575
161.452, 3475.672
162.839, 3620.694
164.225, 3442.640
165.611, 2986.515
166.996, 2698.318
168.381, 2623.050
169.767, 2712.713
171.152, 3260.308
172.536, 4382.836
173.921, 6137.301
175.305, 8338.706
176.689, 10700.052
178.073, 12121.341
179.456, 11732.637
180.839, 10334.082
182.222, 7947.319
183.605, 5905.396
184.988, 4301.820
186.370, 3081.619
187.752, 2444.024
189.134, 1817.102
190.516, 1642.763
191.898, 1331.163
193.279, 1290.667
194.660, 1154.189
196.041, 1086.479
197.421, 1081.174
198.801, 906.671
200.182, 952.127
201.561, 997.526
202.941, 1002.855
204.321, 1155.163
205.700, 1303.431
207.079, 1613.093
208.457, 1882.298
209.836, 2237.905
211.214, 2747.314
212.592, 3451.765
213.970, 4530.243
215.348, 5603.829
216.725, 7574.460
218.102, 9785.112
219.479, 12785.756
220.856, 15336.387
222.232, 17166.994
223.608, 17377.561
224.984, 15628.096
226.360, 13588.591
227.736, 10929.044
229.111, 9009.460
230.486, 7559.834
231.861, 6610.168
233.236, 6030.462
234.610, 5340.716
235.984, 4950.934
237.358, 4072.110
238.732, 3344.248
240.105, 2744.345
241.479, 2131.405
242.852, 1776.426
244.224, 1472.408
245.597, 1527.360
246.969, 1479.284
248.342, 1688.184
249.713, 1919.063
251.085, 1913.936
252.457, 2002.828
253.828, 1760.713
255.199, 1627.575
256.570, 1365.420
257.940, 1107.245
259.310, 1044.046
260.681, 773.817
262.050, 850.948
263.420, 683.099
264.790, 593.480
266.159, 418.321
267.528, 276.473
268.896, 208.229
270.265, 18.804
271.633, 70.666
273.001, 46.630
274.369, 17.200
275.737, 136.039
277.104, 73.157
278.471, 21.483
279.838, 55.123
281.205, 5.948
282.572, 73.868
283.938, 197.957
285.304, 226.733
286.670, 286.392
288.035, 497.939
289.401, 536.183
290.766, 590.423
292.131, 499.936
293.495, 418.967
294.860, 376.892
296.224, 426.439
297.588, 534.981
298.952, 544.621
300.315, 714.150
301.679, 877.562
303.042, 932.785
304.405, 1021.232
305.767, 913.961
307.130, 795.948
308.492, 686.551
309.854, 647.849
311.216, 570.854
312.578, 432.186
313.939, 492.603
315.300, 360.738
316.661, 435.660
318.021, 311.621
319.382, 401.855
320.742, 456.968
322.102, 399.150
323.462, 599.975
324.821, 601.188
326.181, 796.037
327.540, 1037.883
328.899, 1313.992
330.257, 1632.424
331.616, 1718.269
332.974, 1894.969
334.332, 1656.250
335.690, 1572.105
337.047, 1557.354
338.405, 1516.980
339.762, 1618.421
341.119, 1878.649
342.475, 1974.718
343.832, 2323.554
345.188, 2470.242
346.544, 2911.471
347.900, 3155.643
349.255, 3585.727
350.610, 3814.665
351.965, 3953.501
353.320, 4014.240
354.675, 3662.932
356.029, 3577.587
357.384, 3267.218
358.738, 3242.822
360.091, 3185.398
361.445, 3342.947
362.798, 3587.471
364.151, 3957.969
365.504, 4704.440
366.857, 5381.888
368.209, 6180.309
369.561, 6978.705
370.913, 6997.072
372.265, 6945.410
373.617, 6283.719
374.968, 5722.002
376.319, 4980.259
377.670, 4175.486
379.021, 3685.687
380.371, 3094.857
381.721, 2800.000
383.071, 2437.113
384.421, 2326.198
385.770, 2263.252
387.120, 2239.278
388.469, 2397.274
389.818, 2615.355
391.166, 2967.782
392.515, 3390.175
393.863, 3553.894
395.211, 3662.436
396.559, 3319.027
397.906, 2764.731
399.254, 2243.374
400.601, 1704.416
401.948, 1430.786
403.294, 1125.716
404.641, 1014.183
405.987, 878.842
407.333, 781.077
408.679, 895.580
410.025, 783.162
411.370, 982.775
412.715, 1047.226
414.060, 1285.286
415.405, 1374.294
416.749, 1395.672
418.093, 1592.194
419.437, 1404.297
420.781, 1361.422
422.125, 1123.636
423.468, 931.942
424.811, 814.781
426.154, 679.297
427.497, 732.791
428.839, 611.031
430.182, 579.936
431.524, 679.638
432.866, 721.712
434.207, 874.432
435.549, 878.994
436.890, 884.630
438.231, 814.713
439.572, 732.890
440.912, 574.634
442.252, 362.408
443.593, 392.784
444.932, 247.041
446.272, 241.687
447.611, 201.255
448.951, 167.018
450.290, 164.159
451.628, 141.447
452.967, 71.940
454.305, 182.280
455.644, 106.238
456.981, 88.159
458.319, 54.094
459.657, 90.097
460.994, 64.073
462.331, 107.039
463.668, 80.967
465.004, 72.891
466.341, 55.786
467.677, 38.650
469.013, 17.507
470.348, 34.664
471.684, 37.875
473.019, 19.873
474.354, 34.414
475.689, 52.744
477.024, 42.414
478.358, 40.835
479.692, 46.181
481.026, 70.467
482.360, 72.046
483.694, 84.102
485.027, 41.612
486.360, 4.401
487.693, 56.752
489.026, 17.860
490.358, 31.081
491.691, 54.073
493.023, 84.138
494.354, 1.700
495.686, 28.510
497.017, 14.716
498.349, 50.997
499.680, 87.669
501.010, 131.295
502.341, 161.888
503.671, 210.438
505.001, 237.946
506.331, 379.414
507.661, 436.844
508.990, 755.239
510.319, 845.598
511.648, 1239.921
512.977, 1540.208
514.306, 1692.459
515.634, 1862.675
516.962, 1858.855
518.290, 1971.999
519.618, 1876.108
520.945, 1782.180
522.273, 1722.217
523.600, 1681.218
524.927, 1668.183
526.253, 1618.113
527.580, 1750.006
528.906, 1945.863
530.232, 1930.685
531.558, 1938.471
532.883, 1735.221
534.208, 1519.935
535.534, 1343.614
536.858, 1008.255
538.183, 979.862
539.508, 718.433
540.832, 592.968
542.156, 537.467
543.480, 412.930
544.803, 405.357
546.127, 337.749
547.450, 327.104
548.773, 281.424
550.096, 190.708
551.418, 190.952
552.741, 105.155
554.063, 139.316
555.385, 119.436
556.706, 84.513
558.028, 91.546
559.349, 7.538
560.670, 140.481
561.991, 40.616
563.312, 33.779
564.632, 46.989
565.952, 15.288
567.272, 68.380
568.592, 41.003
569.911, 25.583
571.231, 56.119
572.550, 15.390
573.869, 145.043
575.187, 48.435
576.506, 9.784
577.824, 97.086
579.142, 83.347
580.460, 53.565
581.778, 22.741
583.095, 118.872
584.412, 180.963
585.729, 172.017
587.046, 185.032
588.363, 109.010
589.679, 75.950
590.995, 119.854
592.311, 86.729
593.627, 165.571
594.942, 99.400
596.258, 110.207
597.573, 64.022
598.888, 131.829
600.202, 171.607
601.517, 38.305
602.831, 109.047
604.145, 184.280
605.459, 220.586
606.772, 222.675
608.086, 51.477
609.399, 244.504
610.712, 184.455
612.024, 209.145
613.337, 340.418
614.649, 216.270
615.961, 407.099
617.273, 478.170
618.585, 341.007
619.896, 625.505
621.208, 586.177
622.519, 770.786
623.829, 802.999
625.140, 864.032
626.450, 991.677
627.761, 890.644
629.071, 1066.289
630.380, 932.706
631.690, 967.565
632.999, 1256.971
634.308, 1207.797
635.617, 1386.347
636.926, 1416.229
638.235, 1621.104
639.543, 1996.202
640.851, 2210.830
642.159, 2559.216
643.466, 2781.769
644.774, 3166.490
646.081, 3748.393
647.388, 4187.611
648.695, 5009.012
650.002, 5546.603
651.308, 6270.307
652.614, 7195.358
653.920, 7637.359
655.226, 8375.378
656.531, 8426.025
657.837, 8925.438
659.142, 9247.331
660.447, 9557.061
661.752, 10817.015
663.056, 11746.894
664.360, 13557.224
665.664, 16137.850
666.968, 19188.062
668.272, 23478.537
669.575, 28168.750
670.879, 33478.883
672.182, 37598.996
673.484, 38269.078
674.787, 37459.125
676.089, 32819.148
677.392, 27609.154
678.694, 22409.127
679.995, 17849.068
681.297, 14458.986
682.598, 11488.878
683.899, 9788.744
685.200, 8268.581
686.501, 7058.393
687.802, 6568.179
689.102, 5677.939
690.402, 5407.673
691.702, 4857.382
693.002, 4217.066
694.301, 3976.724
695.600, 3516.357
696.899, 2927.965
698.198, 2832.548
699.497, 2441.107
700.795, 2205.641
702.093, 1922.149
703.391, 1739.634
704.689, 1707.095
705.987, 1428.419
707.284, 1344.344
708.581, 1185.250
709.878, 1153.779
711.175, 1025.432
712.472, 889.981
713.768, 951.367
715.064, 678.891
716.360, 756.836
717.656, 691.422
718.951, 580.142
720.247, 634.509
721.542, 543.632
722.837, 507.800
724.131, 524.980
725.426, 474.160
726.720, 586.129
728.014, 378.210
729.308, 598.633
730.601, 602.057
731.895, 564.061
733.188, 634.871
734.481, 622.051
735.774, 782.159
737.067, 957.128
738.359, 1063.956
739.651, 1308.172
740.943, 1252.635
742.235, 1137.048
743.526, 1174.502
744.818, 959.627
746.109, 1031.601
747.400, 800.747
748.691, 678.744
749.981, 766.058
751.271, 539.084
752.562, 469.145
753.851, 364.000
755.141, 214.129
756.431, 236.412
757.720, 160.126
759.009, 134.126
760.298, 103.432
761.587, 107.878
762.875, 134.326
764.163, 68.049
765.451, 55.571
766.739, 39.833
768.027, 27.811
769.314, 19.722
770.601, 78.938
771.888, 0.523
773.175, 30.034
774.462, 93.624
775.748, 23.723
777.034, 95.943
778.320, 4.673
779.606, 3.423
780.892, 87.190
782.177, 23.984
783.462, 67.851
784.747, 33.720
786.032, 30.394
787.317, 31.500
788.601, 95.590
789.885, 62.310
791.169, 67.237
792.453, 40.805
793.736, 87.161
795.019, 49.841
796.303, 0.141
797.585, 29.863
798.868, 61.874
800.151, 5.884
801.433, 89.885
802.715, 74.119
803.997, 33.155
805.279, 26.801
806.560, 103.224
807.841, 45.304
809.122, 15.586
810.403, 18.522
811.684, 85.353
812.964, 37.777
814.245, 69.066
815.525, 56.904
816.804, 96.735
818.084, 80.560
819.363, 3.377
820.643, 105.182
821.922, 22.980
823.201, 76.769
824.479, 188.550
825.758, 100.324
827.036, 203.091
828.314, 111.852
829.592, 124.606
830.869, 256.358
832.147, 129.102
833.424, 256.841
834.701, 230.576
835.977, 168.305
837.254, 257.030
838.530, 295.752
839.807, 211.472
841.082, 303.188
842.358, 184.901
843.634, 376.630
844.909, 146.355
846.184, 247.080
847.459, 249.802
848.734, 97.522
850.008, 371.240
851.283, 121.958
852.557, 168.673
853.831, 216.391
855.105, 146.109
856.378, 241.825
857.651, 278.551
858.925, 263.274
860.197, 251.031
861.470, 252.787
862.743, 244.545
864.015, 210.309
865.287, 80.077
866.559, 215.851
867.831, 20.646
869.102, 141.445
870.373, 44.260
871.645, 44.923
872.915, 102.896
874.186, 117.741
875.457, 19.409
876.727, 72.446
877.997, 13.309
879.267, 82.174
880.536, 104.046
881.806, 41.930
883.075, 236.828
884.344, 55.732
885.613, 98.642
886.882, 400.559
888.150, 534.495
889.419, 408.437
890.687, 216.387
891.954, 254.343
893.222, 307.312
894.490, 174.303
895.757, 366.297
897.024, 318.319
898.291, 393.370
899.557, 549.424
900.824, 291.508
902.090, 515.600
903.356, 483.694
904.622, 462.814
905.888, 674.939
907.153, 545.076
908.418, 780.219
909.683, 740.365
910.948, 790.521
912.213, 1014.620
913.477, 885.601
914.741, 936.638
916.005, 934.791
917.269, 1070.679
918.533, 1376.523
919.796, 1454.309
921.060, 1629.949
922.323, 1857.671
923.585, 1870.313
924.848, 2447.528
926.111, 2723.123
927.373, 3034.921
928.635, 3362.729
929.897, 3354.464
931.158, 3351.534
932.420, 3308.689
933.681, 2811.065
934.942, 2598.924
936.203, 2212.555
937.463, 1898.185
938.724, 2036.099
939.984, 1611.900
941.244, 1800.107
942.504, 1924.209
943.764, 1798.052
945.023, 2096.059
946.282, 1968.775
947.541, 2226.838
948.800, 2164.449
950.059, 1952.449
951.317, 1930.593
952.575, 1548.504
953.833, 1536.784
955.091, 1400.506
956.349, 986.570
957.606, 1294.612
958.864, 916.678
960.121, 822.165
961.377, 830.189
962.634, 517.156
963.891, 685.491
965.147, 661.504
966.403, 538.790
967.659, 608.034
968.914, 490.451
970.170, 442.814
971.425, 464.902
972.680, 324.329
973.935, 384.477
975.190, 384.858
976.444, 526.293
977.698, 454.734
978.952, 371.174
980.206, 581.616
981.460, 397.663
982.713, 459.111
983.967, 497.907
985.220, 506.356
986.473, 485.153
987.725, 514.012
988.978, 422.809
990.230, 612.127
991.482, 481.049
992.734, 579.991
993.986, 763.110
995.237, 632.138
996.488, 811.060
997.739, 810.379
998.990, 1029.511
1000.241, 1268.497
1001.492, 1317.671
1002.742, 1456.615
1003.992, 1436.899
1005.242, 1356.011
1006.492, 1615.018
1007.741, 1626.380
1008.990, 1835.094
1010.239, 2051.850
1011.488, 2000.688
1012.737, 2389.671
1013.986, 2519.676
1015.234, 2469.161
1016.482, 2928.415
1017.730, 3002.067
1018.978, 3351.192
1020.225, 3852.144
1021.473, 3641.332
1022.720, 4348.754
1023.967, 4059.197
1025.213, 4398.507
1026.460, 5166.957
1027.706, 5266.476
1028.953, 5845.297
1030.198, 5785.004
1031.444, 5495.154
1032.690, 5194.582
1033.935, 4704.334
1035.180, 4343.341
1036.425, 4322.533
1037.670, 3775.296
1038.915, 4094.148
1040.159, 3993.949
1041.403, 4013.175
1042.647, 4563.881
1043.891, 4377.350
1045.135, 5306.338
1046.378, 5510.992
1047.621, 5935.318
1048.864, 7003.984
1050.107, 7568.847
1051.350, 8258.304
1052.592, 9427.692
1053.835, 9740.961
1055.077, 11180.176
1056.318, 11480.261
1057.560, 11859.749
1058.802, 12558.704
1060.043, 11588.304
1061.284, 11327.744
1062.525, 10297.069
1063.765, 9032.874
1065.006, 8451.637
1066.246, 7480.838
1067.486, 6810.263
1068.726, 6298.577
1069.966, 5258.698
1071.205, 4728.111
1072.445, 3996.916
1073.684, 3186.663
1074.923, 3005.240
1076.161, 2394.178
1077.400, 2149.793
1078.638, 1948.123
1079.876, 1517.175
1081.114, 1606.543
1082.352, 1345.556
1083.590, 1125.215
1084.827, 1393.616
1086.064, 902.624
1087.301, 1071.908
1088.538, 920.369
1089.775, 769.441
1091.011, 1158.361
1092.247, 916.745
1093.483, 796.079
1094.719, 844.886
1095.955, 733.646
1097.190, 663.133
1098.425, 651.469
1099.660, 550.486
1100.895, 569.151
1102.130, 497.434
1103.364, 446.755
1104.598, 605.066
1105.833, 233.309
1107.066, 452.633
1108.300, 440.871
1109.534, 249.508
1110.767, 468.161
1112.000, 216.345
1113.233, 275.156
1114.466, 353.370
1115.698, 242.101
1116.930, 401.057
1118.163, 289.134
1119.394, 167.654
1120.626, 245.980
1121.858, 473.979
1123.089, 462.372
1124.320, 210.316
1125.551, 188.229
1126.782, 316.406
1128.013, 224.266
1129.243, 52.092
1130.473, 250.516
1131.703, 118.278
1132.933, 236.007
1134.163, 124.468
1135.392, 112.144
1136.621, 130.707
1137.850, 8.300
1139.079, 106.003
1140.308, 105.064
1141.536, 77.458
1142.765, 90.782
1143.993, 119.030
1145.221, 26.353
1146.448, 75.449
1147.676, 113.386
1148.903, 70.579
1150.130, 128.863
1151.357, 23.848
1152.584, 94.276
1153.810, 122.608
1155.037, 39.966
1156.263, 197.906
1157.489, 124.212
1158.715, 172.691
1159.940, 140.479
1161.166, 12.020
1162.391, 26.242
1163.616, 83.493
1164.841, 70.035
1166.065, 87.793
1167.290, 25.483
1168.514, 100.777
1169.738, 108.611
1170.962, 15.226
1172.185, 81.246
1173.409, 128.767
1174.632, 34.757
1175.855, 171.573
1177.078, 7.768
1178.301, 6.414
1179.523, 60.671
1180.746, 6.693
1181.968, 162.967
1183.190, 119.826
1184.412, 44.658
1185.633, 202.056
1186.855, 8.585
1188.076, 114.293
1189.297, 9.297
1190.518, 52.579
1191.738, 173.086
1192.959, 70.260
1194.179, 64.428
1195.399, 251.699
1196.619, 71.818
1197.838, 62.925
1199.058, 79.271
1200.277, 44.872
1201.496, 119.837
1202.715, 12.409
1203.934, 67.279
1205.152, 191.980
1206.371, 65.661
1207.589, 90.108
1208.807, 114.765
1210.024, 72.295
1211.242, 261.472
1212.459, 157.042
1213.677, 102.254
1214.894, 366.349
1216.110, 33.530
1217.327, 108.451
1218.543, 251.797
1219.760, 67.928
1220.976, 311.594
1222.192, 225.389
1223.407, 57.041
1224.623, 416.576
1225.838, 252.030
1227.053, 177.190
1228.268, 261.506
1229.483, 133.339
1230.697, 436.872
1231.912, 280.330
1233.126, 233.974
1234.340, 426.520
1235.554, 279.956
1236.767, 312.975
1237.981, 455.254
1239.194, 222.364
1240.407, 344.536
1241.620, 356.823
1242.832, 179.906
1244.045, 452.284
1245.257, 284.502
1246.469, 370.595
1247.681, 492.430
1248.893, 204.997
1250.104, 448.150
1251.315, 469.819
1252.527, 205.821
1253.738, 477.819
1254.948, 369.403
1256.159, 362.582
1257.369, 484.050
1258.579, 316.108
1259.789, 460.441
1260.999, 331.620
1262.209, 274.984
1263.418, 496.888
1264.628, 368.462
1265.837, 410.524
1267.046, 651.980
1268.254, 382.983
1269.463, 484.666
1270.671, 696.012
1271.879, 417.316
1273.087, 649.759
1274.295, 690.201
1275.502, 341.101
1276.710, 542.429
1277.917, 522.320
1279.124, 314.612
1280.331, 494.368
1281.537, 273.992
1282.744, 534.584
1283.950, 463.599
1285.156, 173.423
1286.362, 533.645
1287.568, 298.634
1288.773, 288.331
1289.978, 617.726
1291.184, 146.193
1292.389, 335.037
1293.593, 553.631
1294.798, 231.959
1296.002, 460.416
1297.206, 247.447
1298.410, 205.582
1299.614, 393.634
1300.818, 269.142
1302.021, 257.141
1303.225, 457.013
1304.428, 234.635
1305.631, 292.024
1306.833, 158.274
1308.036, 324.969
1309.238, 531.804
1310.440, 184.123
1311.642, 400.754
1312.844, 505.592
1314.045, 162.042
1315.247, 508.409
1316.448, 403.427
1317.649, 179.456
1318.850, 515.554
1320.051, 281.143
1321.251, 417.196
1322.451, 492.381
1323.651, 196.994
1324.851, 412.218
1326.051, 337.003
1327.251, 202.405
1328.450, 497.505
1329.649, 198.919
1330.848, 214.120
1332.047, 388.247
1333.245, 212.836
1334.444, 165.828
1335.642, 335.950
1336.840, 150.438
1338.038, 249.147
1339.236, 178.081
1340.433, 132.566
1341.630, 430.745
1342.828, 124.224
1344.025, 167.658
1345.221, 377.102
1346.418, 49.509
1347.614, 302.903
1348.810, 325.803
1350.006, 70.873
1351.202, 351.700
1352.398, 284.552
1353.593, 62.812
1354.789, 463.250
1355.984, 106.252
1357.179, 128.718
1358.373, 311.038
1359.568, 24.198
1360.762, 135.460
1361.956, 477.349
1363.150, 49.748
1364.344, 321.141
1365.538, 274.449
1366.731, 153.510
1367.924, 261.804
1369.117, 125.307
1370.310, 66.289
1371.503, 117.280
1372.695, 71.637
1373.888, 194.880
1375.080, 201.017
1376.272, 102.249
1377.464, 394.556
1378.655, 180.349
1379.847, 255.865
1381.038, 552.114
1382.229, 1.414
1383.420, 464.129
1384.610, 379.560
1385.801, 185.589
1386.991, 331.458
1388.181, 356.899
1389.371, 11.363
1390.561, 536.806
1391.750, 232.319
1392.940, 137.566
1394.129, 572.845
1395.318, 8.344
1396.507, 312.974
1397.696, 397.319
1398.884, 111.306
1400.072, 396.149
1401.260, 239.142
1402.448, 41.811
1403.636, 484.219
1404.824, 77.929
1406.011, 210.722
1407.198, 271.977
1408.385, 164.361
1409.572, 267.008
1410.758, 358.546
1411.945, 189.355
1413.131, 241.397
1414.317, 234.854
1415.503, 96.480
1416.689, 407.682
1417.874, 170.184
1419.060, 183.449
1420.245, 434.647
1421.430, 85.338
1422.615, 506.919
1423.799, 488.001
1424.984, 187.176
1426.168, 427.036
1427.352, 286.839
1428.536, 187.241
1429.720, 585.437
1430.903, 214.361
1432.087, 295.653
1433.270, 581.488
1434.453, 287.270
1435.635, 636.779
1436.818, 535.742
1438.001, 408.901
1439.183, 996.170
1440.365, 636.585
1441.547, 549.670
1442.728, 942.316
1443.910, 612.362
1445.091, 649.772
1446.272, 1037.312
1447.453, 533.975
1448.634, 873.514
1449.815, 882.779
1450.995, 629.064
1452.176, 1058.000
1453.356, 864.844
1454.535, 619.816
1455.715, 1136.162
1456.895, 719.143
1458.074, 764.152
1459.253, 1023.039
1460.432, 611.252
1461.611, 842.363
1462.790, 915.568
1463.968, 475.986
1465.146, 702.984
1466.324, 643.773
1467.502, 324.316
1468.680, 830.879
1469.858, 480.320
1471.035, 380.811
1472.212, 849.121
1473.389, 286.543
1474.566, 406.719
1475.742, 777.715
1476.919, 168.408
1478.095, 658.955
1479.271, 480.592
1480.447, 172.475
1481.623, 634.484
1482.798, 266.176
1483.974, 217.781
1485.149, 549.240
1486.324, 210.656
1487.499, 262.166
1488.674, 583.715
1489.848, 155.371
1491.022, 347.203
1492.196, 279.400
1493.370, 11.861
1494.544, 444.801
1495.718, 237.994
1496.891, 141.480
1498.064, 575.164
1499.237, 9.109
1500.410, 63.420
1501.583, 438.188
1502.755, 93.518
1503.928, 276.365
1505.100, 262.578
1506.272, 10.564
1507.443, 513.219
1508.615, 200.861
1509.786, 9.801
1510.958, 510.789
1512.129, 88.121
1513.300, 0.000
##END=



