##NAMES=Tremolite
##RRUFFID=R050173
##IDEAL CHEMISTRY=[box]Ca_2_Mg_5_Si_8_O_22_(OH)_2_
##LOCALITY=Fort Dauphin, Madagascar
##OWNER=RRUFF
##SOURCE=Marcus Origlieri
##DESCRIPTION=Mass of colorless acicular crystals
##STATUS=The identification of this mineral has been confirmed by X-ray diffraction and chemical analysis
##URL=rruff.info/R050173
##MEASURED CHEMISTRY=[box]Ca_2.00_Mg_5.00_Si_8.00_O_22_(OH)_2_
##PIN_ID=L00486
##ORIENTATION=Laser parallel to -c* (0 0 -1). Fiducial mark perpendicular to laser is parallel to a [1 0 0]
89.770, 0.000
91.166, 21.604
92.562, 113.635
93.958, 20.368
95.353, 26.849
96.748, 52.617
98.143, 125.166
99.538, 23.171
100.932, 95.543
102.326, 251.507
103.720, 240.729
105.114, 492.819
106.508, 337.347
107.901, 373.898
109.294, 322.097
110.687, 801.631
112.079, 1422.230
113.472, 2083.973
114.864, 3117.517
116.256, 3732.750
117.647, 3859.268
119.039, 4126.775
120.430, 3945.090
121.821, 3973.984
123.211, 4173.271
124.602, 4182.791
125.992, 4232.429
127.382, 3932.088
128.772, 3181.784
130.162, 2331.381
131.551, 1710.815
132.940, 1240.066
134.329, 869.129
135.718, 429.632
137.106, 765.009
138.494, 824.598
139.882, 865.625
141.270, 926.009
142.657, 940.470
144.045, 1004.379
145.432, 942.213
146.819, 699.583
148.205, 636.896
149.592, 603.801
150.978, 1470.002
152.364, 785.420
153.749, 1260.073
155.135, 2473.980
156.520, 4167.180
157.905, 5429.711
159.290, 6221.608
160.674, 6212.900
162.059, 4643.619
163.443, 3203.790
164.826, 1873.439
166.210, 1394.628
167.593, 794.232
168.977, 942.403
170.360, 1280.145
171.742, 2237.478
173.125, 4474.473
174.507, 7371.268
175.889, 9817.842
177.271, 10664.250
178.652, 10250.511
180.034, 7954.020
181.415, 4780.146
182.796, 2594.763
184.176, 1590.719
185.557, 1240.211
186.937, 1319.027
188.317, 1370.182
189.697, 1307.914
191.076, 1465.135
192.456, 1729.033
193.835, 1866.205
195.213, 2047.160
196.592, 2106.635
197.970, 2344.965
199.349, 2557.993
200.726, 2682.576
202.104, 2968.909
203.482, 3064.537
204.859, 3182.830
206.236, 3253.328
207.613, 3362.713
208.989, 3516.982
210.366, 3824.897
211.742, 4456.612
213.118, 4645.468
214.493, 5014.759
215.869, 5632.388
217.244, 7379.523
218.619, 10176.640
219.994, 13833.716
221.368, 16460.732
222.742, 16707.674
224.117, 14494.545
225.490, 11021.337
226.864, 7918.053
228.237, 6834.699
229.611, 7091.264
230.984, 7237.754
232.356, 7234.162
233.729, 6390.490
235.101, 4696.738
236.473, 3262.907
237.845, 1949.005
239.216, 1115.035
240.588, 631.003
241.959, 566.917
243.330, 602.779
244.701, 848.590
246.071, 1284.364
247.441, 1920.092
248.811, 2435.859
250.181, 2511.631
251.551, 2337.357
252.920, 1603.034
254.289, 1178.653
255.658, 760.776
257.027, 752.061
258.395, 743.141
259.763, 1242.486
261.131, 1804.032
262.499, 2315.724
263.867, 2457.529
265.234, 2019.449
266.601, 1201.404
267.968, 393.406
269.334, 5.432
270.701, 122.568
272.067, 230.636
273.433, 238.812
274.799, 387.105
276.164, 285.562
277.530, 194.133
278.895, 372.829
280.260, 251.707
281.624, 230.167
282.989, 129.279
284.353, 78.523
285.717, 127.962
287.080, 192.455
288.444, 332.782
289.807, 213.028
291.170, 333.184
292.533, 63.254
293.896, 203.223
295.258, 253.099
296.620, 262.885
297.982, 402.582
299.344, 632.192
300.705, 1081.714
302.067, 1191.129
303.428, 1060.421
304.789, 969.582
306.149, 568.612
307.510, 357.511
308.870, 396.276
310.230, 314.913
311.589, 403.421
312.949, 191.802
314.308, 130.048
315.667, 48.158
317.026, 176.125
318.385, 6.035
319.743, 121.653
321.101, 179.216
322.459, 106.661
323.817, 253.984
325.174, 361.197
326.532, 278.308
327.889, 285.313
329.246, 672.218
330.602, 799.022
331.958, 965.736
333.315, 782.366
334.671, 628.912
336.026, 665.420
337.382, 662.187
338.737, 769.255
340.092, 996.118
341.447, 1522.487
342.802, 1919.243
344.156, 2145.205
345.510, 2391.057
346.864, 2956.082
348.218, 3570.687
349.571, 4084.814
350.925, 4177.516
352.278, 4532.100
353.630, 3915.520
354.983, 3228.856
356.336, 2452.079
357.688, 2255.219
359.040, 1848.296
360.391, 1831.326
361.743, 1824.312
363.094, 2097.232
364.445, 2520.078
365.796, 3332.844
367.147, 4305.485
368.497, 5177.995
369.847, 5130.404
371.197, 5092.716
372.547, 4814.959
373.897, 4727.137
375.246, 4619.272
376.595, 4121.355
377.944, 3363.389
379.293, 2625.377
380.641, 2127.320
381.989, 1679.909
383.337, 1461.768
384.685, 1324.035
386.032, 1527.063
387.380, 1999.304
388.727, 2672.348
390.074, 3615.441
391.421, 5318.334
392.767, 6391.111
394.113, 6544.022
395.459, 5736.398
396.805, 4380.328
398.151, 3152.767
399.496, 2047.828
400.841, 1870.205
402.186, 1422.468
403.531, 1275.822
404.875, 1077.501
406.219, 966.774
407.564, 969.389
408.907, 1221.833
410.251, 1585.803
411.594, 2088.188
412.937, 2550.332
414.280, 3232.363
415.623, 3224.490
416.966, 3106.431
418.308, 2527.720
419.650, 2109.374
420.992, 1391.104
422.334, 1212.540
423.675, 894.568
425.016, 846.630
426.357, 798.370
427.698, 810.288
429.038, 862.025
430.379, 1031.936
431.719, 1344.658
433.059, 1529.422
434.399, 1636.981
435.738, 1814.587
437.077, 1542.695
438.416, 1263.294
439.755, 672.930
441.094, 691.457
442.432, 492.881
443.770, 589.666
445.108, 572.771
446.446, 719.309
447.783, 822.277
449.121, 848.972
450.458, 937.305
451.795, 1364.294
453.131, 1572.343
454.468, 2326.438
455.804, 3053.171
457.140, 4269.591
458.476, 6066.965
459.811, 8524.024
461.146, 11292.550
462.482, 12641.648
463.816, 13081.209
465.151, 11540.103
466.486, 9298.975
467.820, 6996.789
469.154, 5083.158
470.488, 3959.922
471.821, 3015.859
473.155, 2242.415
474.488, 2096.954
475.821, 1570.356
477.154, 1491.288
478.486, 1115.392
479.818, 1063.289
481.150, 1226.283
482.482, 850.282
483.814, 962.794
485.145, 747.654
486.477, 733.365
487.808, 768.326
489.138, 563.290
490.469, 600.257
491.799, 547.703
493.129, 545.312
494.459, 462.580
495.789, 449.147
497.119, 365.813
498.448, 271.426
499.777, 299.408
501.106, 396.723
502.434, 283.989
503.763, 434.154
505.091, 368.374
506.419, 745.498
507.747, 752.579
509.074, 1129.623
510.402, 1276.625
511.729, 1543.592
513.056, 1590.525
514.383, 1617.420
515.709, 1744.279
517.035, 1461.111
518.361, 1507.910
519.687, 1604.713
521.013, 1321.480
522.338, 1438.215
523.663, 1864.953
524.988, 2221.660
526.313, 2858.328
527.638, 3314.965
528.962, 3461.566
530.286, 3318.145
531.610, 2624.719
532.934, 2111.264
534.257, 1297.787
535.581, 1114.285
536.904, 780.771
538.227, 607.225
539.549, 443.660
540.872, 230.064
542.194, 436.449
543.516, 282.799
544.838, 89.113
546.159, 265.383
547.480, 61.615
548.802, 37.801
550.123, 73.941
551.443, 90.043
552.764, 46.100
554.084, 162.111
555.404, 31.922
556.724, 123.984
558.044, 60.152
559.363, 115.643
560.682, 131.396
562.001, 202.873
563.320, 102.717
564.639, 141.732
565.957, 3.711
567.275, 29.107
568.593, 45.539
569.911, 19.750
571.228, 65.004
572.546, 80.213
573.863, 45.379
575.180, 78.102
576.496, 215.580
577.813, 110.621
579.129, 75.621
580.445, 130.576
581.761, 4.504
583.076, 9.637
584.392, 5.184
585.707, 10.072
587.022, 5.350
588.337, 39.326
589.651, 153.959
590.966, 104.229
592.280, 173.244
593.594, 7.961
594.907, 22.734
596.221, 132.400
597.534, 102.479
598.847, 47.400
600.160, 117.582
601.473, 156.893
602.785, 132.449
604.097, 47.502
605.409, 133.166
606.721, 98.332
608.033, 14.504
609.344, 49.723
610.655, 46.627
611.966, 2.242
613.277, 31.873
614.588, 227.445
615.898, 4.344
617.208, 320.486
618.518, 175.680
619.828, 201.717
621.137, 77.004
622.446, 222.504
623.755, 222.717
625.064, 207.850
626.373, 365.590
627.681, 304.574
628.990, 429.869
630.298, 519.449
631.605, 514.314
632.913, 570.326
634.220, 605.992
635.527, 590.566
636.834, 634.002
638.141, 718.693
639.448, 883.832
640.754, 1179.373
642.060, 1314.443
643.366, 1539.785
644.672, 1584.684
645.977, 2029.727
647.283, 2284.621
648.588, 2249.947
649.892, 2874.738
651.197, 3118.947
652.502, 3393.121
653.806, 3637.225
655.110, 3510.941
656.414, 3628.672
657.717, 3503.092
659.021, 3958.090
660.324, 4622.398
661.627, 5607.479
662.930, 6151.760
664.232, 7646.838
665.534, 9721.887
666.837, 13006.605
668.138, 17541.506
669.440, 24706.574
670.742, 31910.740
672.043, 37805.473
673.344, 38651.891
674.645, 35756.262
675.946, 28690.080
677.246, 21774.729
678.546, 16399.344
679.846, 12022.828
681.146, 9367.430
682.446, 7791.871
683.745, 6765.990
685.045, 6330.207
686.344, 6616.357
687.642, 6317.990
688.941, 7212.324
690.239, 6519.348
691.538, 6284.854
692.836, 5203.891
694.133, 4347.852
695.431, 3654.812
696.728, 2889.285
698.025, 2476.396
699.322, 2110.203
700.619, 1713.488
701.916, 1626.107
703.212, 1419.107
704.508, 1351.189
705.804, 1163.193
707.100, 1166.338
708.395, 1098.268
709.690, 1030.201
710.985, 981.264
712.280, 751.992
713.575, 843.689
714.869, 683.486
716.164, 615.775
717.458, 722.084
718.751, 482.961
720.045, 584.721
721.338, 579.467
722.632, 581.264
723.925, 592.576
725.217, 558.252
726.510, 545.896
727.802, 517.309
729.095, 488.934
730.386, 520.271
731.678, 411.771
732.970, 464.123
734.261, 685.990
735.552, 527.432
736.843, 939.379
738.134, 1140.270
739.424, 1250.617
740.715, 1331.656
742.005, 1151.404
743.295, 841.967
744.584, 772.438
745.874, 733.082
747.163, 873.369
748.452, 1065.109
749.741, 1215.600
751.030, 1055.441
752.318, 939.211
753.607, 839.312
754.895, 479.141
756.182, 583.520
757.470, 223.729
758.758, 423.793
760.045, 223.461
761.332, 383.443
762.619, 103.238
763.905, 322.631
765.192, 12.127
766.478, 211.551
767.764, 39.281
769.050, 209.939
770.335, 9.930
771.621, 58.916
772.906, 279.152
774.191, 68.764
775.475, 238.434
776.760, 177.533
778.044, 52.805
779.329, 246.750
780.613, 173.803
781.896, 194.068
783.180, 185.367
784.463, 45.117
785.746, 274.311
787.029, 23.688
788.312, 73.008
789.594, 332.273
790.877, 108.508
792.159, 300.588
793.441, 189.639
794.722, 88.639
796.004, 197.582
797.285, 126.475
798.566, 225.316
799.847, 184.105
801.128, 212.844
802.408, 101.535
803.689, 220.174
804.969, 408.762
806.249, 467.307
807.528, 345.807
808.808, 504.262
810.087, 37.324
811.366, 101.012
812.645, 52.514
813.923, 97.562
815.202, 55.760
816.480, 174.383
817.758, 52.490
819.036, 51.457
820.314, 119.566
821.591, 67.510
822.868, 25.398
824.145, 223.529
825.422, 81.318
826.699, 10.379
827.975, 147.766
829.251, 134.605
830.527, 62.963
831.803, 60.725
833.079, 131.871
834.354, 45.412
835.629, 73.197
836.904, 140.408
838.179, 107.600
839.454, 14.770
840.728, 107.689
842.002, 49.299
843.276, 33.766
844.550, 6.904
845.824, 70.098
847.097, 96.613
848.370, 36.719
849.643, 9.875
850.916, 53.584
852.188, 92.879
853.461, 99.293
854.733, 55.662
856.005, 131.984
857.277, 138.256
858.548, 124.486
859.820, 0.674
861.091, 176.801
862.362, 122.891
863.633, 308.932
864.903, 254.939
866.173, 230.916
867.444, 36.852
868.713, 62.760
869.983, 61.377
871.253, 44.412
872.522, 150.207
873.791, 25.959
875.060, 21.699
876.329, 157.404
877.597, 73.074
878.866, 21.285
880.134, 144.299
881.402, 99.846
882.670, 125.354
883.937, 110.822
885.204, 36.250
886.472, 39.217
887.739, 96.984
889.005, 22.295
890.272, 107.564
891.538, 202.797
892.804, 87.994
894.070, 333.154
895.336, 148.291
896.601, 233.395
897.867, 298.465
899.132, 393.502
900.397, 38.512
901.662, 163.473
902.926, 348.398
904.190, 273.299
905.455, 498.191
906.718, 343.055
907.982, 587.887
909.246, 412.715
910.509, 356.979
911.772, 581.742
913.035, 665.939
914.298, 770.639
915.560, 684.271
916.823, 668.787
918.085, 681.561
919.347, 872.551
920.608, 1129.973
921.870, 1519.395
923.131, 2031.930
924.392, 2695.156
925.653, 3529.266
926.914, 4742.461
928.175, 5426.332
929.435, 6089.916
930.695, 5818.709
931.955, 5472.510
933.215, 3853.629
934.474, 3133.438
935.734, 2376.875
936.993, 2045.969
938.252, 1689.715
939.511, 1472.258
940.769, 1785.098
942.027, 1458.992
943.286, 1993.977
944.544, 2127.676
945.801, 2300.875
947.059, 2403.623
948.316, 1796.795
949.573, 1589.637
950.830, 1463.068
952.087, 976.127
953.344, 559.615
954.600, 712.359
955.856, 615.492
957.112, 790.143
958.368, 523.691
959.623, 417.316
960.879, 425.770
962.134, 386.564
963.389, 355.762
964.644, 399.398
965.898, 422.154
967.153, 164.547
968.407, 350.076
969.661, 62.449
970.915, 254.746
972.168, 356.971
973.422, 358.949
974.675, 210.963
975.928, 295.105
977.181, 148.170
978.433, 169.566
979.686, 313.324
980.938, 257.324
982.190, 199.723
983.442, 324.316
984.693, 319.205
985.945, 148.363
987.196, 391.102
988.447, 390.723
989.698, 163.654
990.949, 334.885
992.199, 315.070
993.449, 337.668
994.699, 427.439
995.949, 300.424
997.199, 337.848
998.448, 411.242
999.697, 521.463
1000.947, 583.857
1002.195, 572.744
1003.444, 495.154
1004.693, 528.330
1005.941, 569.809
1007.189, 541.469
1008.437, 643.268
1009.684, 834.652
1010.932, 824.975
1012.179, 1247.275
1013.426, 1358.562
1014.673, 1651.895
1015.920, 2164.613
1017.166, 2996.883
1018.413, 3389.920
1019.659, 3611.893
1020.905, 3520.416
1022.151, 3272.225
1023.396, 3854.342
1024.641, 4626.811
1025.887, 5339.422
1027.132, 6402.715
1028.376, 6314.979
1029.621, 5825.949
1030.865, 4608.514
1032.109, 3910.912
1033.353, 2743.148
1034.597, 2235.400
1035.841, 1807.582
1037.084, 1780.186
1038.327, 1573.277
1039.570, 1384.836
1040.813, 1277.332
1042.056, 1809.385
1043.298, 1571.406
1044.540, 1795.336
1045.782, 2008.410
1047.024, 2010.461
1048.266, 2503.945
1049.507, 3176.945
1050.748, 3787.846
1051.990, 4720.141
1053.230, 6163.125
1054.471, 9095.639
1055.711, 12068.402
1056.952, 16631.113
1058.192, 20374.082
1059.432, 22116.449
1060.671, 19658.936
1061.911, 14840.914
1063.150, 10783.387
1064.389, 8106.059
1065.628, 6167.762
1066.867, 5110.672
1068.105, 4552.703
1069.344, 3934.016
1070.582, 3356.221
1071.820, 2878.211
1073.058, 2310.369
1074.295, 1971.730
1075.532, 1623.379
1076.770, 1314.646
1078.007, 1256.410
1079.243, 1207.541
1080.480, 1238.113
1081.716, 999.010
1082.953, 1109.785
1084.189, 1050.463
1085.424, 1323.617
1086.660, 1125.043
1087.895, 1216.547
1089.131, 1408.803
1090.366, 890.262
1091.601, 1232.109
1092.835, 902.648
1094.070, 774.311
1095.304, 585.256
1096.538, 486.701
1097.772, 387.680
1099.005, 326.699
1100.239, 369.211
1101.472, 290.094
1102.705, 351.311
1103.938, 371.391
1105.171, 132.557
1106.404, 492.959
1107.636, 364.525
1108.868, 194.996
1110.100, 34.375
1111.332, 306.467
1112.563, 46.090
1113.795, 297.297
1115.026, 336.305
1116.257, 53.477
1117.488, 326.152
1118.718, 335.037
1119.949, 975.102
1121.179, 1165.818
1122.409, 356.199
1123.639, 46.615
1124.868, 156.859
1126.098, 135.656
1127.327, 45.426
1128.556, 104.152
1129.785, 274.223
1131.014, 46.582
1132.242, 18.096
1133.470, 138.621
1134.699, 180.484
1135.927, 139.354
1137.154, 159.752
1138.382, 88.109
1139.609, 110.074
1140.836, 169.004
1142.063, 189.637
1143.290, 42.039
1144.517, 256.701
1145.743, 25.234
1146.969, 54.053
1148.195, 113.227
1149.421, 143.727
1150.647, 244.861
1151.872, 63.256
1153.097, 424.078
1154.322, 452.666
1155.547, 421.000
1156.772, 960.303
1157.996, 647.912
1159.221, 326.988
1160.445, 605.318
1161.669, 202.832
1162.892, 290.541
1164.116, 368.564
1165.339, 0.820
1166.562, 267.730
1167.785, 137.885
1169.008, 288.793
1170.231, 317.748
1171.453, 126.330
1172.675, 85.260
1173.897, 73.834
1175.119, 231.988
1176.341, 131.213
1177.562, 224.521
1178.783, 216.010
1180.004, 292.529
1181.225, 290.033
1182.446, 227.010
1183.666, 144.033
1184.887, 82.539
1186.107, 368.043
1187.327, 225.557
1188.546, 423.129
1189.766, 349.229
1190.985, 124.709
1192.204, 156.740
1193.423, 484.523
1194.642, 199.664
1195.861, 336.895
1197.079, 555.955
1198.297, 341.346
1199.515, 364.096
1200.733, 417.775
1201.951, 403.912
1203.168, 407.834
1204.385, 343.764
1205.602, 477.912
1206.819, 441.930
1208.036, 554.971
1209.253, 427.838
1210.469, 369.734
1211.685, 592.074
1212.901, 295.256
1214.117, 497.639
1215.332, 659.299
1216.548, 443.043
1217.763, 484.541
1218.978, 435.145
1220.193, 617.848
1221.407, 538.795
1222.622, 620.535
1223.836, 491.240
1225.050, 631.717
1226.264, 762.010
1227.477, 674.914
1228.691, 704.264
1229.904, 495.512
1231.117, 364.828
1232.330, 534.850
1233.543, 504.502
1234.755, 313.432
1235.968, 493.984
1237.180, 398.492
1238.392, 705.943
1239.604, 425.021
1240.815, 583.445
1242.027, 451.574
1243.238, 550.518
1244.449, 637.883
1245.660, 526.602
1246.871, 535.352
1248.081, 441.242
1249.291, 698.250
1250.501, 427.334
1251.711, 591.816
1252.921, 299.125
1254.131, 545.592
1255.340, 490.961
1256.549, 426.777
1257.758, 702.668
1258.967, 306.246
1260.175, 902.799
1261.384, 397.863
1262.592, 630.959
1263.800, 578.301
1265.008, 472.986
1266.216, 328.543
1267.423, 392.557
1268.630, 297.711
1269.838, 391.598
1271.044, 585.117
1272.251, 357.699
1273.458, 700.643
1274.664, 353.109
1275.870, 485.764
1277.076, 706.877
1278.282, 458.104
1279.488, 384.684
1280.693, 245.377
1281.898, 450.371
1283.103, 492.758
1284.308, 62.381
1285.513, 407.996
1286.717, 137.822
1287.922, 547.066
1289.126, 75.326
1290.330, 454.014
1291.534, 361.824
1292.737, 260.295
1293.940, 108.395
1295.144, 66.205
1296.347, 376.055
1297.549, 72.863
1298.752, 281.539
1299.955, 319.572
1301.157, 168.188
1302.359, 446.029
1303.561, 173.674
1304.762, 250.369
1305.964, 398.006
1307.165, 323.773
1308.366, 249.701
1309.567, 45.746
1310.768, 159.980
1311.969, 54.488
1313.169, 29.504
1314.369, 104.273
1315.569, 101.055
1316.769, 92.520
1317.969, 104.324
1319.168, 128.496
1320.368, 61.758
1321.567, 224.348
1322.766, 127.105
1323.965, 80.402
1325.163, 97.910
1326.361, 164.262
1327.560, 94.074
1328.758, 57.352
1329.955, 297.840
1331.153, 89.289
1332.351, 80.109
1333.548, 248.703
1334.745, 231.766
1335.942, 29.043
1337.139, 50.008
1338.335, 220.203
1339.531, 128.977
1340.728, 11.918
1341.923, 147.840
1343.119, 213.527
1344.315, 324.848
1345.510, 73.227
1346.706, 241.320
1347.901, 69.215
1349.095, 176.617
1350.290, 174.359
1351.485, 271.734
1352.679, 274.617
1353.873, 456.254
1355.067, 312.691
1356.261, 179.852
1357.454, 255.539
1358.648, 361.855
1359.841, 98.645
1361.034, 324.312
1362.227, 500.379
1363.420, 135.613
1364.612, 341.414
1365.804, 196.684
1366.996, 322.098
1368.188, 336.777
1369.380, 341.855
1370.572, 67.273
1371.763, 492.738
1372.954, 147.547
1374.145, 421.531
1375.336, 244.527
1376.527, 268.059
1377.717, 391.289
1378.907, 133.473
1380.098, 3.625
1381.287, 618.434
1382.477, 231.875
1383.667, 303.203
1384.856, 346.344
1386.045, 199.848
1387.234, 472.512
1388.423, 175.230
1389.612, 177.125
1390.800, 647.965
1391.988, 408.832
1393.176, 119.816
1394.364, 771.438
1395.552, 282.770
1396.740, 421.922
1397.927, 480.238
1399.114, 149.570
1400.301, 399.000
1401.488, 657.102
1402.675, 226.496
1403.861, 523.086
1405.047, 321.059
1406.233, 124.867
1407.419, 500.254
1408.605, 314.832
1409.791, 679.840
1410.976, 259.594
1412.161, 251.500
1413.346, 375.457
1414.531, 538.625
1415.715, 320.336
1416.900, 454.016
1418.084, 532.324
1419.268, 319.555
1420.452, 424.254
1421.636, 217.422
1422.819, 710.293
1424.003, 386.496
1425.186, 180.109
1426.369, 642.109
1427.552, 78.875
1428.734, 516.930
1429.917, 570.922
1431.099, 467.223
1432.281, 469.074
1433.463, 714.406
1434.645, 299.754
1435.826, 392.051
1437.008, 432.945
1438.189, 75.168
1439.370, 699.723
1440.551, 345.727
1441.731, 678.176
1442.912, 249.473
1444.092, 755.051
1445.272, 546.516
1446.452, 678.633
1447.632, 362.301
1448.811, 641.758
1449.991, 472.762
1451.170, 563.848
1452.349, 643.656
1453.528, 636.855
1454.706, 719.117
1455.885, 566.379
1457.063, 645.535
1458.241, 835.453
1459.419, 440.902
1460.597, 431.828
1461.775, 761.043
1462.952, 544.570
1464.129, 751.363
1465.306, 427.570
1466.483, 858.508
1467.660, 475.078
1468.836, 1025.379
1470.012, 219.734
1471.189, 671.805
1472.365, 794.098
1473.540, 243.203
1474.716, 707.992
1475.891, 999.523
1477.067, 294.750
1478.242, 411.305
1479.416, 797.855
1480.591, 601.789
1481.766, 511.922
1482.940, 797.215
1484.114, 450.797
1485.288, 557.059
1486.462, 441.555
1487.635, 457.047
1488.809, 472.176
1489.982, 357.199
1491.155, 421.898
1492.328, 236.293
1493.501, 242.066
1494.673, 404.188
1495.846, 197.941
1497.018, 321.695
1498.190, 363.262
1499.362, 305.926
1500.533, 129.887
1501.705, 355.309
1502.876, 0.660
1504.047, 346.305
1505.218, 512.031
1506.389, 167.785
1507.560, 333.570
1508.730, 329.461
1509.900, 135.578
1511.070, 222.035
1512.240, 10.828
1513.410, 226.867
1514.579, 0.988
1515.749, 166.781
1516.918, 234.957
1518.087, 263.582
1519.255, 236.652
1520.424, 3.664
1521.592, 313.539
1522.761, 0.145
1523.929, 0.000
##END=



