##NAMES=Tremolite
##RRUFFID=R050173
##IDEAL CHEMISTRY=[box]Ca_2_Mg_5_Si_8_O_22_(OH)_2_
##LOCALITY=Fort Dauphin, Madagascar
##OWNER=RRUFF
##SOURCE=Marcus Origlieri
##DESCRIPTION=Mass of colorless acicular crystals
##STATUS=The identification of this mineral has been confirmed by X-ray diffraction and chemical analysis
##URL=rruff.info/R050173
##MEASURED CHEMISTRY=[box]Ca_2.00_Mg_5.00_Si_8.00_O_22_(OH)_2_
##PIN_ID=L00398
##ORIENTATION=Laser parallel to (1 0 1). Fiducial mark perpendicular to laser is parallel to b [0 1 0]
88.374, 0.000
89.770, 114.203
91.166, 171.163
92.562, 157.014
93.958, 116.590
95.353, 18.583
96.748, 70.256
98.143, 42.254
99.538, 76.714
100.932, 83.148
102.326, 121.297
103.720, 121.113
105.114, 138.797
106.508, 234.556
107.901, 197.658
109.294, 281.421
110.687, 395.705
112.079, 790.564
113.472, 1476.195
114.864, 2152.423
116.256, 2779.645
117.647, 3008.412
119.039, 2927.292
120.430, 2356.242
121.821, 1805.214
123.211, 1294.171
124.602, 1073.083
125.992, 911.927
127.382, 450.688
128.772, 449.351
130.162, 307.906
131.551, 76.353
132.940, 184.692
134.329, 143.786
135.718, 55.828
137.106, 288.279
138.494, 180.287
139.882, 271.911
141.270, 243.313
142.657, 336.249
144.045, 343.631
145.432, 441.143
146.819, 381.460
148.205, 361.734
149.592, 421.902
150.978, 481.797
152.364, 601.435
153.749, 1050.832
155.135, 1860.000
156.520, 3138.951
157.905, 4167.691
159.290, 5246.229
160.674, 5974.570
162.059, 5512.722
163.443, 4710.691
164.826, 3248.489
166.210, 1946.118
167.593, 1173.590
168.977, 1060.912
170.360, 1268.092
171.742, 2005.146
173.125, 3882.127
174.507, 6609.047
175.889, 9345.906
177.271, 10762.722
178.652, 10632.891
180.034, 8698.691
181.415, 4974.121
182.796, 2553.618
184.176, 1104.546
185.557, 619.394
186.937, 373.765
188.317, 348.239
189.697, 422.804
191.076, 329.058
192.456, 307.613
193.835, 234.064
195.213, 218.735
196.592, 73.403
197.970, 8.064
199.349, 7.277
200.726, 42.611
202.104, 83.020
203.482, 163.252
204.859, 258.550
206.236, 360.581
207.613, 565.134
208.989, 671.571
210.366, 1005.613
211.742, 1399.656
213.118, 2033.709
214.493, 2767.765
215.869, 4051.814
217.244, 6655.840
218.619, 10429.829
219.994, 15353.775
221.368, 19037.678
222.742, 20321.543
224.117, 18645.359
225.490, 15189.136
226.864, 12472.816
228.237, 12526.382
229.611, 14449.897
230.984, 15563.372
232.356, 15016.800
233.729, 12790.182
235.101, 9243.520
236.473, 6076.809
237.845, 3710.061
239.216, 2133.279
240.588, 1276.471
241.959, 1109.635
243.330, 1172.789
244.701, 1695.914
246.071, 2859.045
247.441, 4212.159
248.811, 4915.311
250.181, 5198.466
251.551, 4511.594
252.920, 3324.695
254.289, 2249.523
255.658, 1354.592
257.027, 879.784
258.395, 665.012
259.763, 690.346
261.131, 925.269
262.499, 980.748
263.867, 956.273
265.234, 781.834
266.601, 307.420
267.968, 43.026
269.334, 171.366
270.701, 145.820
272.067, 280.329
273.433, 134.938
274.799, 179.594
276.164, 104.326
277.530, 30.901
278.895, 76.096
280.260, 251.374
281.624, 347.018
282.989, 373.130
284.353, 399.847
285.717, 339.052
287.080, 445.565
288.444, 502.481
289.807, 472.885
291.170, 289.564
292.533, 179.995
293.896, 96.248
295.258, 142.163
296.620, 157.497
297.982, 302.629
299.344, 607.278
300.705, 841.872
302.067, 1036.406
303.428, 1020.887
304.789, 805.311
306.149, 559.679
307.510, 554.006
308.870, 719.133
310.230, 633.972
311.589, 548.934
312.949, 454.396
314.308, 229.729
315.667, 65.646
317.026, 102.044
318.385, 101.958
319.743, 32.970
321.101, 77.129
322.459, 88.669
323.817, 4.789
325.174, 48.198
326.532, 142.025
327.889, 285.733
329.246, 559.952
330.602, 814.179
331.958, 898.373
333.315, 862.115
334.671, 636.393
336.026, 651.478
337.382, 685.505
338.737, 888.998
340.092, 1253.271
341.447, 1836.161
342.802, 2349.340
344.156, 2991.884
345.510, 3434.136
346.864, 4316.166
348.218, 5668.135
349.571, 6780.071
350.925, 7421.977
352.278, 7053.852
353.630, 5855.692
354.983, 4427.494
356.336, 3469.247
357.688, 3110.960
359.040, 2782.639
360.391, 2933.671
361.743, 3232.928
363.094, 4041.213
364.445, 4977.245
365.796, 7178.194
367.147, 9489.442
368.497, 10890.769
369.847, 10271.989
371.197, 8773.131
372.547, 6874.230
373.897, 5625.299
375.246, 4766.336
376.595, 3897.340
377.944, 3168.312
379.293, 2399.252
380.641, 2010.160
381.989, 1561.034
383.337, 1642.137
384.685, 1663.430
386.032, 2014.873
387.380, 2666.550
388.727, 3848.167
390.074, 5539.894
391.421, 8001.648
392.767, 9813.176
394.113, 9936.678
395.459, 8567.923
396.805, 6059.572
398.151, 3911.122
399.496, 2446.170
400.841, 1747.605
402.186, 1308.902
403.531, 1293.415
404.875, 1156.293
406.219, 1395.695
407.564, 1416.932
408.907, 2498.404
410.251, 4009.569
411.594, 3591.847
412.937, 4682.812
414.280, 5684.098
415.623, 5725.244
416.966, 5417.964
418.308, 4288.521
419.650, 3279.306
420.992, 2079.984
422.334, 1630.220
423.675, 1200.477
425.016, 940.664
426.357, 810.618
427.698, 660.758
429.038, 831.624
430.379, 920.060
431.719, 1435.502
433.059, 1982.909
434.399, 2561.274
435.738, 2532.541
437.077, 1957.707
438.416, 1361.426
439.755, 648.939
441.094, 347.440
442.432, 261.525
443.770, 141.330
445.108, 50.900
446.446, 19.143
447.783, 60.510
449.121, 29.882
450.458, 40.652
451.795, 38.415
453.131, 42.800
454.468, 65.438
455.804, 103.116
457.140, 231.090
458.476, 268.987
459.811, 497.395
461.146, 625.910
462.482, 764.257
463.816, 742.493
465.151, 690.684
466.486, 538.834
467.820, 366.939
469.154, 145.029
470.488, 183.087
471.821, 141.097
473.155, 49.056
474.488, 56.958
475.821, 14.154
477.154, 0.306
478.486, 5.806
479.818, 62.166
481.150, 216.500
482.482, 191.991
483.814, 339.001
485.145, 331.822
486.477, 216.447
487.808, 232.615
489.138, 99.490
490.469, 86.826
491.799, 84.117
493.129, 181.367
494.459, 48.574
495.789, 4.270
497.119, 82.829
498.448, 199.883
499.777, 26.926
501.106, 323.919
502.434, 240.872
503.763, 437.785
505.091, 464.661
506.419, 691.508
507.747, 978.326
509.074, 1375.105
510.402, 1981.852
511.729, 2618.562
513.056, 2805.263
514.383, 3011.926
515.709, 2978.565
517.035, 2835.210
518.361, 2621.818
519.687, 2598.400
521.013, 2324.949
522.338, 2331.480
523.663, 2608.009
524.988, 2894.524
526.313, 3621.014
527.638, 4167.469
528.962, 4173.891
530.286, 3930.276
531.610, 3016.627
532.934, 2252.945
534.257, 1549.232
535.581, 1285.487
536.904, 751.715
538.227, 677.909
539.549, 414.102
540.872, 440.260
542.194, 256.402
543.516, 202.512
544.838, 158.583
546.159, 94.632
547.480, 100.638
548.802, 66.612
550.123, 52.544
551.443, 98.433
552.764, 25.725
554.084, 150.060
555.404, 45.804
556.724, 61.504
558.044, 52.842
559.363, 72.738
560.682, 98.273
562.001, 46.229
563.320, 20.805
564.639, 125.438
565.957, 79.815
567.275, 15.030
568.593, 80.200
569.911, 14.673
571.228, 110.398
572.546, 25.427
573.863, 50.405
575.180, 24.662
576.496, 170.213
577.813, 105.049
579.129, 119.841
580.445, 214.592
581.761, 199.304
583.076, 203.974
584.392, 248.604
585.707, 193.194
587.022, 7.744
588.337, 132.250
589.651, 216.721
590.966, 111.211
592.280, 235.713
593.594, 49.736
594.907, 84.792
596.221, 60.660
597.534, 143.851
598.847, 138.330
600.160, 67.340
601.473, 136.532
602.785, 179.859
604.097, 72.501
605.409, 122.575
606.721, 175.259
608.033, 137.462
609.344, 206.097
610.655, 198.746
611.966, 187.196
613.277, 139.782
614.588, 162.592
615.898, 196.277
617.208, 210.006
618.518, 233.847
619.828, 263.119
621.137, 312.722
622.446, 315.484
623.755, 410.018
625.064, 433.889
626.373, 444.036
627.681, 401.362
628.990, 454.636
630.298, 557.575
631.605, 569.539
632.913, 652.397
634.220, 764.215
635.527, 765.634
636.834, 877.748
638.141, 1140.853
639.448, 1224.705
640.754, 1518.083
642.060, 1622.295
643.366, 1956.647
644.672, 2060.254
645.977, 2614.156
647.283, 3400.479
648.588, 3883.629
649.892, 4368.242
651.197, 5141.395
652.502, 5623.773
653.806, 5625.816
655.110, 5478.761
656.414, 5429.514
657.717, 5231.777
659.021, 5605.396
660.324, 6028.763
661.627, 6652.443
662.930, 8047.381
664.232, 10002.368
665.534, 12605.415
666.837, 17129.102
668.138, 23012.674
669.440, 32151.406
670.742, 41614.797
672.043, 49200.652
673.344, 51233.367
674.645, 46826.418
675.946, 37991.383
677.246, 28944.537
678.546, 21809.107
679.846, 15745.982
681.146, 12169.007
682.446, 10173.264
683.745, 8696.398
685.045, 7969.294
686.344, 7652.203
687.642, 7595.101
688.941, 7928.119
690.239, 7561.814
691.538, 7124.859
692.836, 5829.768
694.133, 4892.256
695.431, 4012.799
696.728, 3215.230
698.025, 2872.245
699.322, 2555.308
700.619, 2087.591
701.916, 2043.114
703.212, 1664.475
704.508, 1658.872
705.804, 1480.105
707.100, 1361.506
708.395, 1342.193
709.690, 1291.979
710.985, 1283.754
712.280, 1221.529
713.575, 1275.626
714.869, 1133.258
716.164, 964.193
717.458, 986.129
718.751, 813.872
720.045, 713.487
721.338, 736.354
722.632, 728.191
723.925, 719.001
725.217, 708.512
726.510, 769.449
727.802, 660.183
729.095, 759.872
730.386, 750.266
731.678, 819.315
732.970, 1010.547
734.261, 1161.151
735.552, 1581.925
736.843, 2032.992
738.134, 2653.172
739.424, 2953.865
740.715, 3024.684
742.005, 2395.044
743.295, 2125.153
744.584, 1885.389
745.874, 1555.444
747.163, 1735.025
748.452, 1845.092
749.741, 2061.271
751.030, 1680.639
752.318, 1516.067
753.607, 1225.615
754.895, 1014.583
756.182, 830.017
757.470, 649.432
758.758, 558.997
760.045, 438.089
761.332, 457.385
762.619, 326.875
763.905, 446.185
765.192, 195.787
766.478, 475.332
767.764, 274.835
769.050, 284.112
770.335, 193.459
771.621, 212.911
772.906, 282.388
774.191, 231.931
775.475, 251.561
776.760, 281.224
778.044, 80.851
779.329, 230.438
780.613, 80.012
781.896, 50.552
783.180, 158.836
784.463, 188.189
785.746, 307.508
787.029, 76.799
788.312, 166.056
789.594, 125.283
790.877, 34.484
792.159, 33.652
793.441, 18.694
794.722, 101.873
796.004, 60.926
797.285, 19.936
798.566, 78.903
799.847, 17.832
801.128, 43.281
802.408, 35.537
803.689, 15.682
804.969, 113.049
806.249, 151.741
807.528, 20.400
808.808, 39.028
810.087, 112.381
811.366, 106.108
812.645, 94.565
813.923, 62.982
815.202, 71.363
816.480, 10.295
817.758, 12.002
819.036, 196.238
820.314, 34.441
821.591, 52.604
822.868, 79.273
824.145, 78.763
825.422, 33.235
826.699, 145.292
827.975, 132.537
829.251, 19.666
830.527, 88.082
831.803, 14.207
833.079, 56.539
834.354, 91.061
835.629, 10.988
836.904, 46.553
838.179, 94.072
839.454, 81.951
840.728, 75.373
842.002, 36.824
843.276, 5.791
844.550, 11.549
845.824, 31.141
847.097, 126.115
848.370, 126.635
849.643, 120.512
850.916, 72.373
852.188, 5.330
853.461, 11.672
854.733, 61.357
856.005, 105.549
857.277, 47.570
858.548, 89.258
859.820, 26.061
861.091, 232.836
862.362, 0.410
863.633, 6.316
864.903, 43.035
866.173, 149.721
867.444, 36.385
868.713, 93.047
869.983, 10.312
871.253, 86.289
872.522, 12.879
873.791, 49.445
875.060, 13.982
876.329, 12.555
877.597, 9.064
878.866, 125.545
880.134, 100.510
881.402, 278.447
882.670, 104.867
883.937, 31.262
885.204, 7.639
886.472, 83.980
887.739, 50.301
889.005, 66.598
890.272, 272.865
891.538, 129.117
892.804, 135.342
894.070, 181.539
895.336, 47.715
896.601, 133.867
897.867, 259.992
899.132, 356.102
900.397, 434.609
901.662, 358.252
902.926, 574.309
904.190, 670.352
905.455, 721.295
906.718, 422.416
907.982, 678.412
909.246, 604.408
910.509, 460.383
911.772, 636.336
913.035, 572.268
914.298, 798.180
915.560, 664.068
916.823, 939.938
918.085, 885.418
919.347, 1281.244
920.608, 1677.012
921.870, 1822.795
923.131, 2488.178
924.392, 3378.932
925.653, 4139.326
926.914, 5584.797
928.175, 6510.324
929.435, 7635.955
930.695, 6880.723
931.955, 6196.092
933.215, 4725.100
934.474, 3675.939
935.734, 2920.932
936.993, 2216.025
938.252, 2001.480
939.511, 2106.059
940.769, 2170.984
942.027, 2325.713
943.286, 3050.039
944.544, 3524.332
945.801, 3918.547
947.059, 4053.082
948.316, 3287.424
949.573, 2631.566
950.830, 2115.934
952.087, 1670.023
953.344, 1121.074
954.600, 1115.189
955.856, 797.902
957.112, 842.385
958.368, 807.004
959.623, 710.963
960.879, 445.227
962.134, 512.617
963.389, 386.859
964.644, 401.496
965.898, 466.268
967.153, 290.289
968.407, 424.467
969.661, 337.158
970.915, 291.893
972.168, 325.719
973.422, 299.779
974.675, 308.609
975.928, 253.562
977.181, 276.486
978.433, 302.287
979.686, 227.947
980.938, 301.125
982.190, 256.520
983.442, 290.275
984.693, 391.791
985.945, 142.230
987.196, 345.203
988.447, 463.072
989.698, 138.252
990.949, 372.818
992.199, 438.475
993.449, 352.900
994.699, 306.596
995.949, 372.115
997.199, 394.619
998.448, 455.184
999.697, 622.189
1000.947, 547.004
1002.195, 537.473
1003.444, 710.951
1004.693, 735.639
1005.941, 896.770
1007.189, 1011.951
1008.437, 1194.191
1009.684, 1529.406
1010.932, 1574.094
1012.179, 2049.838
1013.426, 2013.674
1014.673, 2512.320
1015.920, 3146.811
1017.166, 4391.508
1018.413, 4918.855
1019.659, 5354.092
1020.905, 5597.588
1022.151, 6011.734
1023.396, 7355.479
1024.641, 9270.219
1025.887, 11503.484
1027.132, 14228.094
1028.376, 14472.221
1029.621, 13097.164
1030.865, 10122.152
1032.109, 7667.113
1033.353, 5391.561
1034.597, 3995.637
1035.841, 3249.436
1037.084, 2694.111
1038.327, 2419.281
1039.570, 2013.916
1040.813, 1999.621
1042.056, 2964.074
1043.298, 2262.426
1044.540, 2733.666
1045.782, 2078.264
1047.024, 2092.209
1048.266, 2897.896
1049.507, 3151.982
1050.748, 3686.602
1051.990, 4111.586
1053.230, 5567.047
1054.471, 7821.781
1055.711, 10645.873
1056.952, 14550.207
1058.192, 18164.734
1059.432, 19858.494
1060.671, 18093.125
1061.911, 14146.941
1063.150, 10821.434
1064.389, 8326.209
1065.628, 6730.008
1066.867, 6174.799
1068.105, 6109.105
1069.344, 5823.232
1070.582, 5067.189
1071.820, 4180.844
1073.058, 3204.607
1074.295, 2647.238
1075.532, 2270.863
1076.770, 1774.471
1078.007, 1878.865
1079.243, 1732.195
1080.480, 2175.684
1081.716, 2658.443
1082.953, 4351.264
1084.189, 7234.801
1085.424, 9668.705
1086.660, 10181.512
1087.895, 8094.350
1089.131, 5277.555
1090.366, 2800.498
1091.601, 2233.939
1092.835, 1586.615
1094.070, 1070.414
1095.304, 843.199
1096.538, 766.268
1097.772, 659.117
1099.005, 611.918
1100.239, 531.146
1101.472, 457.705
1102.705, 430.830
1103.938, 333.867
1105.171, 347.717
1106.404, 349.275
1107.636, 391.662
1108.868, 313.871
1110.100, 196.447
1111.332, 418.629
1112.563, 270.879
1113.795, 203.789
1115.026, 395.180
1116.257, 36.936
1117.488, 368.643
1118.718, 330.848
1119.949, 382.789
1121.179, 342.389
1122.409, 346.061
1123.639, 148.084
1124.868, 29.852
1126.098, 80.400
1127.327, 23.244
1128.556, 143.510
1129.785, 35.230
1131.014, 76.561
1132.242, 47.213
1133.470, 121.760
1134.699, 299.102
1135.927, 79.516
1137.154, 71.369
1138.382, 201.846
1139.609, 15.789
1140.836, 185.002
1142.063, 186.838
1143.290, 22.939
1144.517, 161.973
1145.743, 117.711
1146.969, 102.838
1148.195, 164.367
1149.421, 94.914
1150.647, 246.195
1151.872, 75.934
1153.097, 97.707
1154.322, 48.400
1155.547, 18.141
1156.772, 20.057
1157.996, 80.576
1159.221, 30.186
1160.445, 210.111
1161.669, 90.652
1162.892, 128.488
1164.116, 195.584
1165.339, 62.926
1166.562, 7.189
1167.785, 196.070
1169.008, 278.408
1170.231, 299.439
1171.453, 103.381
1172.675, 242.453
1173.897, 114.443
1175.119, 225.088
1176.341, 145.053
1177.562, 103.154
1178.783, 261.887
1180.004, 231.701
1181.225, 259.270
1182.446, 297.412
1183.666, 173.004
1184.887, 45.207
1186.107, 163.289
1187.327, 110.402
1188.546, 277.352
1189.766, 306.967
1190.985, 175.223
1192.204, 174.762
1193.423, 412.725
1194.642, 108.664
1195.861, 485.982
1197.079, 373.496
1198.297, 280.098
1199.515, 173.652
1200.733, 338.428
1201.951, 484.727
1203.168, 418.865
1204.385, 363.613
1205.602, 539.496
1206.819, 324.736
1208.036, 508.881
1209.253, 348.955
1210.469, 272.986
1211.685, 496.141
1212.901, 250.982
1214.117, 373.150
1215.332, 405.803
1216.548, 443.125
1217.763, 506.738
1218.978, 469.020
1220.193, 733.895
1221.407, 487.832
1222.622, 479.830
1223.836, 281.850
1225.050, 523.039
1226.264, 474.252
1227.477, 635.330
1228.691, 616.119
1229.904, 438.002
1231.117, 338.488
1232.330, 590.850
1233.543, 572.805
1234.755, 473.098
1235.968, 525.303
1237.180, 396.895
1238.392, 565.768
1239.604, 285.660
1240.815, 515.652
1242.027, 434.395
1243.238, 475.051
1244.449, 472.928
1245.660, 382.604
1246.871, 482.977
1248.081, 361.025
1249.291, 370.947
1250.501, 190.006
1251.711, 696.502
1252.921, 484.914
1254.131, 512.729
1255.340, 410.195
1256.549, 497.793
1257.758, 464.650
1258.967, 290.699
1260.175, 636.396
1261.384, 531.840
1262.592, 526.719
1263.800, 392.836
1265.008, 438.928
1266.216, 335.486
1267.423, 640.533
1268.630, 377.670
1269.838, 425.715
1271.044, 699.379
1272.251, 193.318
1273.458, 736.738
1274.664, 370.568
1275.870, 443.658
1277.076, 587.406
1278.282, 479.020
1279.488, 397.822
1280.693, 339.770
1281.898, 428.912
1283.103, 411.676
1284.308, 142.436
1285.513, 381.846
1286.717, 182.320
1287.922, 472.984
1289.126, 12.785
1290.330, 402.521
1291.534, 306.133
1292.737, 155.492
1293.940, 264.117
1295.144, 162.242
1296.347, 412.203
1297.549, 99.791
1298.752, 198.287
1299.955, 335.275
1301.157, 74.121
1302.359, 180.512
1303.561, 286.982
1304.762, 224.010
1305.964, 321.176
1307.165, 302.883
1308.366, 51.318
1309.567, 54.455
1310.768, 126.854
1311.969, 251.369
1313.169, 143.541
1314.369, 51.725
1315.569, 13.314
1316.769, 170.533
1317.969, 145.260
1319.168, 48.340
1320.368, 71.877
1321.567, 224.846
1322.766, 137.424
1323.965, 60.430
1325.163, 86.945
1326.361, 159.656
1327.560, 58.059
1328.758, 6.293
1329.955, 234.254
1331.153, 104.867
1332.351, 215.449
1333.548, 133.666
1334.745, 76.889
1335.942, 26.650
1337.139, 76.146
1338.335, 246.396
1339.531, 95.160
1340.728, 114.744
1341.923, 124.559
1343.119, 56.789
1344.315, 311.123
1345.510, 109.670
1346.706, 388.428
1347.901, 236.697
1349.095, 104.514
1350.290, 142.836
1351.485, 250.029
1352.679, 22.227
1353.873, 224.582
1355.067, 350.789
1356.261, 107.680
1357.454, 66.684
1358.648, 349.178
1359.841, 4.963
1361.034, 150.656
1362.227, 316.400
1363.420, 51.775
1364.612, 88.029
1365.804, 263.191
1366.996, 237.959
1368.188, 371.689
1369.380, 328.391
1370.572, 318.416
1371.763, 347.166
1372.954, 151.533
1374.145, 334.973
1375.336, 87.812
1376.527, 101.326
1377.717, 254.553
1378.907, 67.148
1380.098, 89.746
1381.287, 461.631
1382.477, 214.148
1383.667, 186.996
1384.856, 389.984
1386.045, 102.430
1387.234, 534.490
1388.423, 164.863
1389.612, 97.742
1390.800, 399.176
1391.988, 110.463
1393.176, 161.293
1394.364, 652.428
1395.552, 212.219
1396.740, 292.344
1397.927, 281.301
1399.114, 180.092
1400.301, 419.846
1401.488, 468.941
1402.675, 448.035
1403.861, 654.363
1405.047, 399.777
1406.233, 395.125
1407.419, 316.648
1408.605, 242.504
1409.791, 496.105
1410.976, 130.219
1412.161, 41.676
1413.346, 383.273
1414.531, 325.926
1415.715, 348.918
1416.900, 311.605
1418.084, 329.301
1419.268, 192.941
1420.452, 553.738
1421.636, 94.891
1422.819, 589.176
1424.003, 297.609
1425.186, 129.836
1426.369, 855.852
1427.552, 636.934
1428.734, 488.129
1429.917, 353.492
1431.099, 202.867
1432.281, 427.367
1433.463, 443.598
1434.645, 297.160
1435.826, 481.738
1437.008, 504.648
1438.189, 138.199
1439.370, 592.445
1440.551, 205.336
1441.731, 555.008
1442.912, 19.582
1444.092, 579.094
1445.272, 399.180
1446.452, 162.594
1447.632, 256.156
1448.811, 517.445
1449.991, 386.727
1451.170, 455.422
1452.349, 439.254
1453.528, 501.207
1454.706, 462.918
1455.885, 320.309
1457.063, 344.027
1458.241, 540.082
1459.419, 448.867
1460.597, 264.426
1461.775, 478.363
1462.952, 436.305
1464.129, 405.586
1465.306, 391.117
1466.483, 833.328
1467.660, 46.180
1468.836, 647.297
1470.012, 188.281
1471.189, 688.461
1472.365, 589.344
1473.540, 268.453
1474.716, 195.160
1475.891, 822.059
1477.067, 236.109
1478.242, 537.816
1479.416, 771.754
1480.591, 378.590
1481.766, 480.422
1482.940, 483.242
1484.114, 281.707
1485.288, 533.648
1486.462, 116.633
1487.635, 391.500
1488.809, 376.293
1489.982, 440.023
1491.155, 394.195
1492.328, 387.012
1493.501, 440.883
1494.673, 344.406
1495.846, 86.676
1497.018, 278.238
1498.190, 481.621
1499.362, 394.641
1500.533, 138.402
1501.705, 382.242
1502.876, 115.945
1504.047, 489.883
1505.218, 302.809
1506.389, 6.906
1507.560, 340.961
1508.730, 395.070
1509.900, 40.125
1511.070, 96.402
1512.240, 203.520
1513.410, 391.301
1514.579, 260.039
1515.749, 357.238
1516.918, 251.668
1518.087, 94.414
1519.255, 223.520
1520.424, 183.555
1521.592, 302.211
1522.761, 0.000
##END=



