##NAMES=Tremolite
##RRUFFID=R050167
##IDEAL CHEMISTRY=[box]Ca_2_Mg_5_Si_8_O_22_(OH)_2_
##LOCALITY=Hunza Valley, Afghanistan
##OWNER=RRUFF
##SOURCE=Marcus Origlieri
##DESCRIPTION=Green tabular crystals
##STATUS=The identification of this mineral has been confirmed by X-ray diffraction and chemical analysis
##URL=rruff.info/R050167
##MEASURED CHEMISTRY=  ([box]_0.90_Na_0.10_)(Ca_0.98_Mg_0.01_Fe^2+^_0.01_)_2_(Mg_0.94_Al_0.06_)_5_(Si_0.95_Al_0.05_)_8_O_22_((OH)_0.98_F_0.02_)_2_
##PIN_ID=M00415
##ORIENTATION=Laser parallel to -c* (0 0 -1). Fiducial mark perpendicular to laser is parallel to -a [-1 0 0]
90.446, 0.000
91.844, 24.658
93.242, 67.143
94.639, 107.515
96.037, 100.215
97.434, 200.062
98.831, 38.368
100.227, 40.096
101.624, 3.442
103.020, 63.641
104.416, 151.544
105.812, 282.444
107.207, 242.049
108.603, 359.895
109.998, 529.906
111.393, 903.167
112.787, 1200.032
114.182, 1823.395
115.576, 2826.115
116.970, 3711.693
118.363, 4455.816
119.757, 4259.734
121.150, 3384.549
122.543, 2415.672
123.936, 1598.363
125.328, 1022.132
126.720, 685.968
128.112, 418.861
129.504, 208.803
130.896, 139.788
132.287, 3.812
133.678, 23.115
135.069, 38.982
136.460, 19.745
137.850, 101.818
139.240, 21.913
140.630, 65.625
142.020, 39.190
143.410, 49.709
144.799, 46.175
146.188, 1.587
147.577, 2.053
148.965, 13.285
150.354, 24.386
151.742, 15.902
153.130, 182.155
154.517, 774.379
155.905, 1467.577
157.292, 2738.749
158.679, 4257.898
160.066, 5967.025
161.452, 6376.129
162.839, 5475.211
164.225, 4374.274
165.611, 3260.316
166.996, 2680.337
168.381, 2278.341
169.767, 2398.327
171.152, 2761.300
172.536, 3788.264
173.921, 5237.279
175.305, 6766.489
176.689, 8745.837
178.073, 9315.275
179.456, 8794.765
180.839, 7294.285
182.222, 5276.755
183.605, 3851.292
184.988, 2534.060
186.370, 1872.015
187.752, 1281.822
189.134, 995.306
190.516, 908.145
191.898, 693.325
193.279, 678.703
194.660, 538.703
196.041, 556.594
197.421, 527.401
198.801, 534.154
200.182, 554.886
201.561, 661.599
202.941, 790.286
204.321, 896.940
205.700, 1116.999
207.079, 1421.052
208.457, 1842.628
209.836, 2341.323
211.214, 2883.042
212.592, 3919.800
213.970, 4608.608
215.348, 5987.450
216.725, 7556.316
218.102, 9555.196
219.479, 12504.073
220.856, 14332.943
222.232, 16111.810
223.608, 15710.664
224.984, 14549.509
226.360, 13028.346
227.736, 11987.170
229.111, 12185.987
230.486, 12794.791
231.861, 14263.587
233.236, 14762.368
234.610, 13951.136
235.984, 12579.896
237.358, 9688.642
238.732, 7737.373
240.105, 5596.094
241.479, 4534.801
242.852, 3803.501
244.224, 3562.202
245.597, 3710.901
246.969, 4169.606
248.342, 4998.350
249.713, 5557.134
251.085, 5745.958
252.457, 5344.853
253.828, 4613.786
255.199, 3972.742
256.570, 3216.778
257.940, 2942.985
259.310, 2603.457
260.681, 2550.306
262.050, 2464.216
263.420, 2109.034
264.790, 1825.762
266.159, 1301.217
267.528, 1046.373
268.896, 1001.320
270.265, 375.484
271.633, 188.930
273.001, 82.960
274.369, 169.128
275.737, 27.866
277.104, 10.156
278.471, 11.131
279.838, 72.822
281.205, 71.024
282.572, 85.367
283.938, 17.872
285.304, 67.479
286.670, 91.250
288.035, 115.934
289.401, 120.650
290.766, 233.904
292.131, 235.058
293.495, 291.058
294.860, 292.183
296.224, 370.722
297.588, 477.340
298.952, 593.063
300.315, 871.262
301.679, 1094.590
303.042, 1225.255
304.405, 1211.715
305.767, 1102.768
307.130, 1064.852
308.492, 961.929
309.854, 849.369
311.216, 750.743
312.578, 651.708
313.939, 562.810
315.300, 463.908
316.661, 327.644
318.021, 281.922
319.382, 217.862
320.742, 140.827
322.102, 191.739
323.462, 167.464
324.821, 243.033
326.181, 341.479
327.540, 440.995
328.899, 568.723
330.257, 673.847
331.616, 821.841
332.974, 916.115
334.332, 858.676
335.690, 884.858
337.047, 842.982
338.405, 920.816
339.762, 1055.757
341.119, 1278.563
342.475, 1576.770
343.832, 1892.132
345.188, 2218.924
346.544, 2939.686
347.900, 3380.409
349.255, 4025.093
350.610, 4243.694
351.965, 4502.229
353.320, 4430.733
354.675, 4109.208
356.029, 3867.664
357.384, 3526.102
358.738, 3624.523
360.091, 3502.928
361.445, 3871.317
362.798, 4059.689
364.151, 4458.048
365.504, 5106.389
366.857, 5874.714
368.209, 7003.023
369.561, 7581.313
370.913, 7839.581
372.265, 7937.830
373.617, 7366.061
374.968, 7134.273
376.319, 6232.468
377.670, 5600.646
379.021, 4898.804
380.371, 4236.943
381.721, 3935.065
383.071, 3603.167
384.421, 3471.248
385.770, 3609.311
387.120, 3997.353
388.469, 4675.375
389.818, 5463.513
391.166, 6981.805
392.515, 7960.529
393.863, 8569.229
395.211, 8437.831
396.559, 7036.560
397.906, 5695.212
399.254, 4144.334
400.601, 3403.547
401.948, 2617.880
403.294, 2157.470
404.641, 2021.333
405.987, 1935.877
407.333, 2073.232
408.679, 2345.201
410.025, 2804.316
411.370, 3495.231
412.715, 4086.530
414.060, 4966.961
415.405, 5295.829
416.749, 5588.301
418.093, 5266.862
419.437, 4586.966
420.781, 4055.364
422.125, 3251.773
423.468, 2793.662
424.811, 2287.104
426.154, 1989.313
427.497, 1987.474
428.839, 1812.890
430.182, 1880.530
431.524, 1974.665
432.866, 2188.928
434.207, 2390.979
435.549, 2217.845
436.890, 2217.167
438.231, 1814.567
439.572, 1394.039
440.912, 1078.488
442.252, 704.740
443.593, 598.250
444.932, 349.203
446.272, 340.414
447.611, 177.808
448.951, 193.695
450.290, 201.713
451.628, 73.887
452.967, 102.290
454.305, 75.237
455.644, 78.588
456.981, 102.091
458.319, 39.176
459.657, 115.854
460.994, 26.583
462.331, 68.026
463.668, 26.344
465.004, 41.574
466.341, 91.780
467.677, 13.953
469.013, 43.090
470.348, 2.807
471.684, 16.256
473.019, 70.289
474.354, 42.708
475.689, 29.240
477.024, 5.160
478.358, 32.042
479.692, 119.876
481.026, 110.710
482.360, 120.569
483.694, 161.905
485.027, 196.118
486.360, 222.606
487.693, 203.213
489.026, 149.814
490.358, 52.370
491.691, 80.886
493.023, 33.643
494.354, 4.240
495.686, 27.127
497.017, 38.445
498.349, 10.285
499.680, 75.928
501.010, 104.093
502.341, 244.211
503.671, 203.286
505.001, 410.317
506.331, 440.307
507.661, 702.257
508.990, 1054.178
510.319, 1218.059
511.648, 1617.904
512.977, 1916.712
514.306, 2232.481
515.634, 2338.215
516.962, 2399.911
518.290, 2682.566
519.618, 2619.309
520.945, 2662.758
522.273, 2701.294
523.600, 2849.788
524.927, 3131.241
526.253, 3330.655
527.580, 3845.026
528.906, 4129.356
530.232, 4083.645
531.558, 3867.892
532.883, 3272.096
534.208, 2903.257
535.534, 2248.378
536.858, 1900.457
538.183, 1520.494
539.508, 1141.497
540.832, 991.457
542.156, 781.379
543.480, 769.266
544.803, 532.110
546.127, 551.925
547.450, 408.697
548.773, 310.429
550.096, 269.117
551.418, 160.761
552.741, 162.373
554.063, 180.935
555.385, 145.467
556.706, 158.968
558.028, 42.419
559.349, 28.830
560.670, 19.191
561.991, 87.493
563.312, 84.712
564.632, 7.136
565.952, 20.053
567.272, 1.958
568.592, 80.095
569.911, 13.249
571.231, 19.473
572.550, 5.773
573.869, 41.857
575.187, 38.570
576.506, 99.916
577.824, 1.652
579.142, 112.710
580.460, 98.021
581.778, 23.276
583.095, 68.474
584.412, 113.616
585.729, 115.706
587.046, 45.743
588.363, 26.725
589.679, 95.648
590.995, 40.482
592.311, 23.296
593.627, 125.019
594.942, 53.307
596.258, 23.273
597.573, 88.196
598.888, 35.774
600.202, 20.564
601.517, 66.137
602.831, 7.925
604.145, 24.765
605.459, 19.321
606.772, 45.765
608.086, 103.776
609.399, 30.770
610.712, 7.480
612.024, 138.729
613.337, 88.355
614.649, 44.405
615.961, 160.666
617.273, 250.301
618.585, 233.219
619.896, 297.092
621.208, 320.879
622.519, 411.528
623.829, 390.967
625.140, 487.922
626.450, 490.303
627.761, 541.956
629.071, 645.129
630.380, 619.761
631.690, 683.276
632.999, 846.558
634.308, 888.357
635.617, 1087.277
636.926, 1135.451
638.235, 1409.852
639.543, 1443.342
640.851, 1834.264
642.159, 2030.677
643.466, 2275.373
644.774, 2638.952
646.081, 3016.858
647.388, 3365.750
648.695, 3976.078
650.002, 4285.091
651.308, 4901.503
652.614, 5383.490
653.920, 5691.919
655.226, 6430.473
656.531, 6498.080
657.837, 7626.493
659.142, 7905.195
660.447, 8983.894
661.752, 10382.675
663.056, 11811.672
664.360, 14590.932
665.664, 17382.262
666.968, 22091.383
668.272, 27441.414
669.575, 32960.742
670.879, 40209.988
672.182, 43090.133
673.484, 43928.789
674.787, 41047.945
676.089, 34556.969
677.392, 29345.502
678.694, 22914.400
679.995, 18592.848
681.297, 15311.371
682.598, 12370.262
683.899, 11048.588
685.200, 9406.950
686.501, 8625.192
687.802, 8283.446
689.102, 7471.606
690.402, 7289.725
691.702, 6428.171
693.002, 5956.384
694.301, 5314.440
695.600, 4644.374
696.899, 4162.300
698.198, 3591.292
699.497, 3280.476
700.795, 2918.795
702.093, 2639.325
703.391, 2397.244
704.689, 2035.546
705.987, 1953.421
707.284, 1800.085
708.581, 1532.901
709.878, 1570.004
711.175, 1245.212
712.472, 1228.290
713.768, 1295.099
715.064, 894.167
716.360, 1150.763
717.656, 888.114
718.951, 889.863
720.247, 903.090
721.542, 785.634
722.837, 843.184
724.131, 641.390
725.426, 712.961
726.720, 752.320
728.014, 651.948
729.308, 722.193
730.601, 659.835
731.895, 788.802
733.188, 791.619
734.481, 778.805
735.774, 1048.608
737.067, 1141.318
738.359, 1205.467
739.651, 1417.987
740.943, 1383.663
742.235, 1359.315
743.526, 1291.644
744.818, 1266.680
746.109, 1292.156
747.400, 1195.434
748.691, 1202.266
749.981, 1294.771
751.271, 1162.115
752.562, 996.834
753.851, 744.905
755.141, 711.229
756.431, 530.760
757.720, 450.105
759.009, 465.069
760.298, 345.942
761.587, 379.299
762.875, 287.204
764.163, 155.024
765.451, 212.648
766.739, 99.458
768.027, 241.666
769.314, 86.645
770.601, 45.417
771.888, 118.653
773.175, 115.244
774.462, 23.743
775.748, 73.488
777.034, 2.688
778.320, 106.158
779.606, 20.983
780.892, 62.784
782.177, 20.563
783.462, 41.319
784.747, 10.055
786.032, 44.765
787.317, 7.451
788.601, 151.125
789.885, 69.780
791.169, 40.417
792.453, 62.032
793.736, 8.372
795.019, 154.189
796.303, 59.267
797.585, 22.222
798.868, 64.687
800.151, 132.872
801.433, 132.477
802.715, 18.193
803.997, 12.104
805.279, 72.379
806.560, 60.353
807.841, 59.868
809.122, 30.070
810.403, 71.254
811.684, 77.426
812.964, 24.582
814.245, 230.718
815.525, 81.838
816.804, 161.940
818.084, 76.024
819.363, 30.909
820.643, 86.117
821.922, 7.874
823.201, 14.104
824.479, 23.063
825.758, 13.998
827.036, 169.912
828.314, 11.806
829.592, 28.679
830.869, 181.533
832.147, 37.372
833.424, 192.192
834.701, 104.996
835.977, 5.788
837.254, 129.560
838.530, 110.317
839.807, 301.062
841.082, 113.791
842.358, 130.510
843.634, 246.216
844.909, 34.909
846.184, 79.588
847.459, 106.255
848.734, 32.089
850.008, 115.537
851.283, 14.851
852.557, 20.258
853.831, 0.312
855.105, 50.132
856.378, 63.391
857.651, 4.097
858.925, 20.398
860.197, 18.914
861.470, 75.584
862.743, 24.884
864.015, 83.655
865.287, 85.237
866.559, 59.143
867.831, 58.483
869.102, 32.138
870.373, 51.807
871.645, 26.500
872.915, 70.843
874.186, 55.207
875.457, 20.425
876.727, 3.947
877.997, 41.678
879.267, 8.455
880.536, 17.108
881.806, 61.520
883.075, 85.940
884.344, 90.379
885.613, 154.835
886.882, 199.316
888.150, 223.807
889.419, 328.298
890.687, 312.792
891.954, 337.289
893.222, 231.811
894.490, 336.335
895.757, 500.859
897.024, 365.395
898.291, 599.934
899.557, 654.474
900.824, 439.034
902.090, 673.600
903.356, 538.184
904.622, 612.791
905.888, 757.400
907.153, 692.102
908.418, 796.823
909.683, 731.551
910.948, 1076.309
912.213, 1191.077
913.477, 1135.868
914.741, 1340.666
916.005, 1315.465
917.269, 1650.116
918.533, 2064.978
919.796, 2199.429
921.060, 2444.306
922.323, 2988.722
923.585, 3232.976
924.848, 4097.545
926.111, 4332.104
927.373, 5176.287
928.635, 5420.688
929.897, 5504.006
931.158, 5488.549
932.420, 4882.742
933.681, 4277.112
934.942, 3611.314
936.203, 3035.605
937.463, 2649.607
938.724, 2413.924
939.984, 2277.854
941.244, 2172.621
942.504, 1987.052
943.764, 2291.359
945.023, 2285.764
946.282, 2158.995
947.541, 2473.792
948.800, 2044.228
950.059, 2088.478
951.317, 1912.921
952.575, 1648.908
953.833, 1593.641
955.091, 1356.485
956.349, 1160.714
957.606, 1335.208
958.864, 915.787
960.121, 910.240
961.377, 904.574
962.634, 709.083
963.891, 763.622
965.147, 597.946
966.403, 752.809
967.659, 717.384
968.914, 622.250
970.170, 797.085
971.425, 519.532
972.680, 604.145
973.935, 737.805
975.190, 582.123
976.444, 766.882
977.698, 700.290
978.952, 655.141
980.206, 779.715
981.460, 524.104
982.713, 868.947
983.967, 733.378
985.220, 688.216
986.473, 953.622
987.725, 637.928
988.978, 822.887
990.230, 968.054
991.482, 912.876
992.734, 1058.303
993.986, 1033.814
995.237, 1078.629
996.488, 1253.717
997.739, 1189.156
998.990, 1524.370
1000.241, 1557.617
1001.492, 1642.571
1002.742, 1936.955
1003.992, 1901.353
1005.242, 2036.030
1006.492, 2589.204
1007.741, 2434.563
1008.990, 2919.035
1010.239, 2841.397
1011.488, 3076.063
1012.737, 3528.647
1013.986, 3624.301
1015.234, 4005.386
1016.482, 4537.743
1017.730, 4622.996
1018.978, 5265.631
1020.225, 5420.040
1021.473, 5872.752
1022.720, 6450.793
1023.967, 6411.492
1025.213, 7396.726
1026.460, 8012.120
1027.706, 8197.810
1028.953, 8448.079
1030.198, 8290.228
1031.444, 7935.506
1032.690, 7151.521
1033.935, 6061.167
1035.180, 5876.714
1036.425, 5138.493
1037.670, 4784.488
1038.915, 4950.102
1040.159, 4446.648
1041.403, 4902.207
1042.647, 5123.041
1043.891, 5159.256
1045.135, 6114.669
1046.378, 6002.326
1047.621, 6857.930
1048.864, 7573.400
1050.107, 8339.588
1051.350, 9415.416
1052.592, 10084.284
1053.835, 11130.104
1055.077, 12765.244
1056.318, 12774.676
1057.560, 13900.112
1058.802, 13795.957
1060.043, 12921.879
1061.284, 12627.204
1062.525, 10723.935
1063.765, 9809.741
1065.006, 8964.782
1066.246, 7794.561
1067.486, 7330.064
1068.726, 6474.803
1069.966, 5511.221
1071.205, 4826.398
1072.445, 3872.154
1073.684, 3308.155
1074.923, 2983.222
1076.161, 2198.988
1077.400, 2295.291
1078.638, 1720.370
1079.876, 1616.069
1081.114, 1541.256
1082.352, 1226.854
1083.590, 1292.279
1084.827, 1197.560
1086.064, 1063.322
1087.301, 1208.639
1088.538, 973.358
1089.775, 998.640
1091.011, 1343.367
1092.247, 987.915
1093.483, 1073.146
1094.719, 977.988
1095.955, 963.120
1097.190, 838.198
1098.425, 742.738
1099.660, 710.013
1100.895, 634.451
1102.130, 559.294
1103.364, 624.541
1104.598, 668.488
1105.833, 413.556
1107.066, 619.298
1108.300, 413.438
1109.534, 548.198
1110.767, 502.736
1112.000, 377.306
1113.233, 442.281
1114.466, 375.783
1115.698, 262.064
1116.930, 586.419
1118.163, 170.343
1119.394, 305.947
1120.626, 430.276
1121.858, 294.256
1123.089, 458.858
1124.320, 152.109
1125.551, 396.268
1126.782, 390.418
1128.013, 193.634
1129.243, 357.798
1130.473, 282.032
1131.703, 265.751
1132.933, 319.791
1134.163, 103.196
1135.392, 287.047
1136.621, 241.301
1137.850, 174.287
1139.079, 378.384
1140.308, 122.051
1141.536, 115.114
1142.765, 289.624
1143.993, 132.653
1145.221, 95.874
1146.448, 179.789
1147.676, 192.680
1148.903, 256.064
1150.130, 129.308
1151.357, 72.453
1152.584, 208.904
1153.810, 32.062
1155.037, 125.169
1156.263, 239.169
1157.489, 127.802
1158.715, 255.454
1159.940, 19.914
1161.166, 32.382
1162.391, 178.749
1163.616, 19.397
1164.841, 192.902
1166.065, 157.090
1167.290, 48.731
1168.514, 231.109
1169.738, 44.745
1170.962, 83.426
1172.185, 229.598
1173.409, 2.254
1174.632, 73.545
1175.855, 176.896
1177.078, 52.062
1178.301, 189.474
1179.523, 64.884
1180.746, 54.916
1181.968, 211.555
1183.190, 86.072
1184.412, 104.463
1185.633, 197.590
1186.855, 8.615
1188.076, 208.899
1189.297, 68.090
1190.518, 51.975
1191.738, 242.810
1192.959, 16.064
1194.179, 194.027
1195.399, 224.806
1196.619, 55.457
1197.838, 134.558
1199.058, 32.924
1200.277, 136.137
1201.496, 295.713
1202.715, 197.713
1203.934, 230.987
1205.152, 130.121
1206.371, 110.640
1207.589, 248.556
1208.807, 7.860
1210.024, 126.831
1211.242, 304.977
1212.459, 39.358
1213.677, 198.113
1214.894, 376.604
1216.110, 35.952
1217.327, 263.029
1218.543, 121.431
1219.760, 79.968
1220.976, 276.732
1222.192, 104.050
1223.407, 40.606
1224.623, 258.150
1225.838, 126.611
1227.053, 243.848
1228.268, 142.580
1229.483, 202.025
1230.697, 230.641
1231.912, 135.854
1233.126, 234.921
1234.340, 371.037
1235.554, 245.178
1236.767, 371.129
1237.981, 407.104
1239.194, 250.088
1240.407, 335.337
1241.620, 262.412
1242.832, 268.469
1244.045, 393.752
1245.257, 31.365
1246.469, 407.269
1247.681, 312.104
1248.893, 208.623
1250.104, 513.583
1251.315, 238.566
1252.527, 124.565
1253.738, 449.211
1254.948, 295.438
1256.159, 340.337
1257.369, 324.841
1258.579, 220.827
1259.789, 565.707
1260.999, 69.453
1262.209, 345.090
1263.418, 438.638
1264.628, 112.736
1265.837, 328.432
1267.046, 401.786
1268.254, 246.778
1269.463, 560.631
1270.671, 333.156
1271.879, 327.027
1273.087, 540.079
1274.295, 302.348
1275.502, 275.715
1276.710, 387.955
1277.917, 300.398
1279.124, 446.518
1280.331, 327.700
1281.537, 220.321
1282.744, 513.448
1283.950, 234.932
1285.156, 328.566
1286.362, 459.208
1287.568, 159.724
1288.773, 442.184
1289.978, 382.447
1291.184, 213.117
1292.389, 433.934
1293.593, 304.089
1294.798, 325.888
1296.002, 336.198
1297.206, 35.443
1298.410, 306.048
1299.614, 304.859
1300.818, 153.946
1302.021, 294.131
1303.225, 215.601
1304.428, 84.558
1305.631, 402.690
1306.833, 139.632
1308.036, 478.727
1309.238, 355.256
1310.440, 93.047
1311.642, 480.611
1312.844, 287.496
1314.045, 85.010
1315.247, 499.900
1316.448, 98.385
1317.649, 178.578
1318.850, 434.551
1320.051, 100.570
1321.251, 457.008
1322.451, 309.553
1323.651, 15.582
1324.851, 640.910
1326.051, 7.434
1327.251, 128.188
1328.450, 417.559
1329.649, 62.373
1330.848, 257.391
1332.047, 411.332
1333.245, 56.098
1334.444, 405.420
1335.642, 209.191
1336.840, 163.604
1338.038, 325.600
1339.236, 179.482
1340.433, 183.348
1341.630, 499.758
1342.828, 42.943
1344.025, 452.936
1345.221, 306.150
1346.418, 40.443
1347.614, 428.512
1348.810, 301.305
1350.006, 93.531
1351.202, 605.592
1352.398, 198.027
1353.593, 238.902
1354.789, 410.941
1355.984, 46.795
1357.179, 510.584
1358.373, 242.139
1359.568, 114.133
1360.762, 544.287
1361.956, 195.521
1363.150, 166.031
1364.344, 836.137
1365.538, 365.275
1366.731, 1317.014
1367.924, 257.551
1369.117, 112.047
1370.310, 277.607
1371.503, 77.648
1372.695, 133.084
1373.888, 396.105
1375.080, 104.750
1376.272, 41.182
1377.464, 397.900
1378.655, 54.936
1379.847, 401.107
1381.038, 376.699
1382.229, 39.693
1383.420, 656.277
1384.610, 132.057
1385.801, 275.764
1386.991, 441.215
1388.181, 76.090
1389.371, 251.303
1390.561, 483.729
1391.750, 136.988
1392.940, 411.258
1394.129, 385.674
1395.318, 169.174
1396.507, 423.357
1397.696, 126.457
1398.884, 319.732
1400.072, 391.771
1401.260, 124.596
1402.448, 257.400
1403.636, 548.721
1404.824, 130.047
1406.011, 561.975
1407.198, 283.271
1408.385, 99.865
1409.572, 469.156
1410.758, 138.934
1411.945, 297.248
1413.131, 459.561
1414.317, 207.150
1415.503, 377.582
1416.689, 605.404
1417.874, 217.861
1419.060, 495.266
1420.245, 385.010
1421.430, 9.594
1422.615, 608.477
1423.799, 234.229
1424.984, 122.830
1426.168, 347.922
1427.352, 73.930
1428.536, 540.857
1429.720, 428.822
1430.903, 142.980
1432.087, 648.592
1433.270, 256.969
1434.453, 273.525
1435.635, 489.504
1436.818, 104.793
1438.001, 232.910
1439.183, 859.348
1440.365, 173.928
1441.547, 582.898
1442.728, 610.977
1443.910, 175.627
1445.091, 453.695
1446.272, 498.572
1447.453, 119.373
1448.634, 748.781
1449.815, 208.973
1450.995, 311.836
1452.176, 665.672
1453.356, 263.461
1454.535, 474.740
1455.715, 677.986
1456.895, 138.318
1458.074, 696.090
1459.253, 433.906
1460.432, 214.863
1461.611, 822.908
1462.790, 207.018
1463.968, 213.936
1465.146, 663.436
1466.324, 250.914
1467.502, 469.600
1468.680, 790.105
1469.858, 168.912
1471.035, 571.928
1472.212, 703.855
1473.389, 403.391
1474.566, 628.109
1475.742, 492.670
1476.919, 235.686
1478.095, 831.080
1479.271, 164.887
1480.447, 458.523
1481.623, 626.395
1482.798, 49.148
1483.974, 657.637
1485.149, 595.266
1486.324, 53.043
1487.499, 747.844
1488.674, 374.248
1489.848, 280.604
1491.022, 817.193
1492.196, 94.238
1493.370, 600.225
1494.544, 627.758
1495.718, 15.393
1496.891, 653.408
1498.064, 751.857
1499.237, 80.781
1500.410, 729.746
1501.583, 483.791
1502.755, 310.785
1503.928, 757.799
1505.100, 163.984
1506.272, 245.180
1507.443, 950.592
1508.615, 13.764
1509.786, 575.297
1510.958, 854.908
1512.129, 77.344
1513.300, 755.025
1514.470, 396.949
1515.641, 0.000
##END=



