##NAMES=Tremolite
##RRUFFID=R050167
##IDEAL CHEMISTRY=[box]Ca_2_Mg_5_Si_8_O_22_(OH)_2_
##LOCALITY=Hunza Valley, Afghanistan
##OWNER=RRUFF
##SOURCE=Marcus Origlieri
##DESCRIPTION=Green tabular crystals
##STATUS=The identification of this mineral has been confirmed by X-ray diffraction and chemical analysis
##URL=rruff.info/R050167
##MEASURED CHEMISTRY=  ([box]_0.90_Na_0.10_)(Ca_0.98_Mg_0.01_Fe^2+^_0.01_)_2_(Mg_0.94_Al_0.06_)_5_(Si_0.95_Al_0.05_)_8_O_22_((OH)_0.98_F_0.02_)_2_
##PIN_ID=L00357
##ORIENTATION=Laser parallel to b* (0 1 0). Fiducial mark perpendicular to laser is parallel to c [0 0 1]
47.263, 0.000
48.666, 33.996
50.068, 64.947
51.471, 5.999
52.873, 3.594
54.275, 54.919
55.677, 71.122
57.079, 144.960
58.480, 206.729
59.882, 247.444
61.283, 457.374
62.683, 719.172
64.084, 837.410
65.484, 991.379
66.884, 1164.099
68.284, 1227.038
69.684, 1315.395
71.083, 1472.631
72.482, 1850.566
73.881, 2491.095
75.280, 2204.396
76.678, 2078.739
78.076, 1760.499
79.474, 1202.455
80.872, 885.203
82.270, 644.006
83.667, 509.080
85.064, 365.612
86.461, 290.827
87.858, 259.857
89.254, 115.756
90.650, 153.646
92.046, 138.102
93.442, 84.374
94.838, 171.382
96.233, 199.965
97.628, 253.044
99.023, 365.130
100.418, 427.748
101.812, 525.656
103.206, 540.449
104.600, 619.652
105.994, 662.830
107.387, 833.533
108.781, 985.138
110.174, 1303.551
111.566, 1721.886
112.959, 1966.035
114.351, 2659.372
115.744, 2686.274
117.136, 2943.673
118.527, 3438.043
119.919, 4239.383
121.310, 4952.697
122.701, 5805.990
124.092, 5980.170
125.482, 5746.340
126.873, 4978.417
128.263, 3766.603
129.653, 2860.779
131.042, 2017.001
132.432, 1389.413
133.821, 988.970
135.210, 776.672
136.599, 480.511
137.987, 335.473
139.376, 253.545
140.764, 192.713
142.152, 86.965
143.539, 20.163
144.927, 47.669
146.314, 81.902
147.701, 116.433
149.088, 51.934
150.474, 144.409
151.861, 72.878
153.247, 106.357
154.633, 82.859
156.018, 21.381
157.404, 6.942
158.789, 17.654
160.174, 168.502
161.559, 307.261
162.943, 306.397
164.327, 290.526
165.711, 390.861
167.095, 402.254
168.479, 517.207
169.862, 719.149
171.246, 1157.083
172.628, 1743.008
174.011, 2855.927
175.394, 4277.849
176.776, 6180.755
178.158, 8028.607
179.540, 9268.366
180.922, 9287.948
182.303, 8207.319
183.684, 6465.472
185.065, 4827.449
186.446, 3431.315
187.826, 2535.138
189.207, 1809.943
190.587, 1376.732
191.967, 1044.521
193.346, 879.329
194.726, 648.204
196.105, 562.146
197.484, 593.153
198.862, 453.205
200.241, 426.294
201.619, 398.425
202.997, 356.554
204.375, 417.668
205.753, 446.765
207.130, 577.844
208.507, 671.901
209.884, 743.936
211.261, 974.955
212.638, 1198.958
214.014, 1608.827
215.390, 2084.165
216.766, 2798.971
218.141, 3854.865
219.517, 5095.159
220.892, 6681.619
222.267, 7988.014
223.642, 9102.337
225.016, 8946.531
226.391, 8230.591
227.765, 6934.509
229.139, 5668.286
230.512, 4748.926
231.886, 4110.435
233.259, 3890.812
234.632, 3689.021
236.005, 3459.060
237.377, 3229.920
238.749, 2693.620
240.122, 2283.146
241.493, 1755.506
242.865, 1501.725
244.237, 1281.819
245.608, 1237.797
246.979, 1266.668
248.350, 1403.441
249.720, 1643.122
251.090, 1803.716
252.461, 1984.030
253.830, 1896.110
255.200, 1685.252
256.570, 1473.604
257.939, 1221.720
259.308, 999.159
260.677, 779.205
262.045, 663.143
263.414, 531.616
264.782, 391.929
266.150, 398.932
267.517, 336.923
268.885, 250.744
270.252, 177.857
271.619, 190.038
272.986, 151.190
274.353, 121.329
275.719, 101.451
277.085, 121.559
278.451, 152.651
279.817, 136.730
281.182, 222.795
282.548, 289.157
283.913, 378.347
285.278, 509.684
286.642, 712.393
288.007, 989.064
289.371, 1269.678
290.735, 1252.175
292.099, 1281.752
293.462, 1168.678
294.826, 1051.224
296.189, 944.790
297.552, 812.519
298.914, 758.268
300.277, 766.146
301.639, 924.123
303.001, 986.809
304.363, 1064.036
305.724, 1059.633
307.086, 985.706
308.447, 897.332
309.808, 684.917
311.168, 701.373
312.529, 596.669
313.889, 487.235
315.249, 440.363
316.609, 369.473
317.969, 381.034
319.328, 365.016
320.687, 465.346
322.046, 473.804
323.405, 512.185
324.764, 672.591
326.122, 813.552
327.480, 1026.460
328.838, 1411.213
330.196, 1774.349
331.553, 2248.623
332.910, 2524.505
334.267, 2581.686
335.624, 2257.765
336.981, 1921.257
338.337, 1639.042
339.693, 1464.677
341.049, 1347.793
342.405, 1262.771
343.760, 1415.168
345.116, 1414.361
346.471, 1470.674
347.826, 1437.909
349.180, 1512.122
350.535, 1614.860
351.889, 1710.910
353.243, 1830.712
354.597, 1835.164
355.950, 1808.463
357.304, 1793.681
358.657, 1728.886
360.010, 1931.078
361.362, 2056.255
362.715, 2435.262
364.067, 3072.150
365.419, 3909.915
366.771, 5073.498
368.123, 6554.329
369.474, 7943.276
370.825, 8981.352
372.176, 9229.412
373.527, 8647.458
374.877, 7555.490
376.228, 6325.506
377.578, 5402.479
378.928, 4268.411
380.277, 3642.306
381.627, 3112.164
382.976, 2936.987
384.325, 2804.903
385.674, 2839.078
387.023, 2874.811
388.371, 3212.825
389.719, 3734.678
391.067, 4543.496
392.415, 5585.391
393.762, 6548.148
395.110, 7324.026
396.457, 7381.892
397.804, 6506.604
399.150, 5330.666
400.497, 4181.521
401.843, 3221.229
403.189, 2438.080
404.535, 1950.939
405.881, 1632.881
407.226, 1339.785
408.571, 1246.400
409.916, 1265.188
411.261, 1382.914
412.605, 1510.238
413.950, 1689.683
415.294, 1934.426
416.638, 2072.607
417.981, 2228.050
419.325, 2213.158
420.668, 2020.190
422.011, 1834.128
423.354, 1399.076
424.697, 1265.971
426.039, 979.848
427.381, 803.359
428.723, 661.887
430.065, 522.146
431.406, 460.035
432.748, 386.584
434.089, 361.198
435.430, 396.665
436.770, 336.792
438.111, 347.013
439.451, 314.284
440.791, 281.915
442.131, 274.521
443.471, 177.547
444.810, 214.941
446.149, 176.752
447.488, 84.881
448.827, 90.876
450.166, 100.914
451.504, 107.031
452.842, 79.953
454.180, 52.582
455.518, 102.286
456.855, 93.933
458.193, 51.488
459.530, 42.858
460.867, 8.204
462.203, 29.477
463.540, 46.803
464.876, 16.063
466.212, 37.304
467.548, 24.530
468.883, 8.253
470.219, 27.042
471.554, 6.849
472.889, 89.635
474.224, 10.433
475.558, 17.219
476.892, 4.974
478.227, 65.713
479.561, 32.455
480.894, 1.189
482.228, 6.920
483.561, 39.348
484.894, 15.614
486.227, 130.873
487.559, 134.116
488.892, 148.343
490.224, 152.555
491.556, 127.750
492.888, 94.940
494.220, 37.118
495.551, 57.291
496.882, 41.537
498.213, 62.410
499.544, 44.324
500.874, 52.281
502.205, 66.288
503.535, 57.349
504.865, 38.465
506.194, 40.675
507.524, 39.747
508.853, 23.074
510.182, 48.359
511.511, 37.693
512.840, 34.071
514.168, 150.510
515.496, 183.069
516.824, 305.609
518.152, 336.130
519.480, 419.632
520.807, 448.115
522.134, 434.578
523.461, 456.024
524.788, 451.452
526.114, 440.890
527.441, 436.248
528.767, 409.633
530.093, 420.990
531.418, 394.329
532.744, 419.649
534.069, 399.950
535.394, 377.232
536.719, 343.495
538.044, 269.739
539.368, 276.966
540.693, 189.174
542.017, 190.365
543.340, 150.538
544.664, 78.693
545.987, 174.828
547.311, 97.946
548.634, 127.045
549.956, 126.127
551.279, 98.204
552.601, 122.261
553.923, 84.302
555.245, 78.325
556.567, 106.337
557.889, 14.338
559.210, 55.329
560.531, 82.312
561.852, 40.291
563.173, 30.250
564.493, 3.219
565.813, 4.166
567.133, 66.101
568.453, 17.029
569.773, 24.937
571.092, 113.845
572.412, 77.746
573.731, 2.629
575.049, 127.492
576.368, 59.338
577.686, 133.178
579.005, 146.003
580.323, 182.813
581.640, 155.608
582.958, 256.387
584.275, 224.149
585.593, 272.898
586.909, 240.631
588.226, 223.349
589.543, 221.054
590.859, 226.747
592.175, 216.428
593.491, 123.099
594.807, 142.759
596.122, 79.408
597.438, 106.046
598.753, 80.673
600.068, 53.287
601.382, 71.886
602.697, 46.161
604.011, 32.581
605.325, 24.825
606.639, 50.669
607.952, 34.524
609.266, 9.405
610.579, 50.294
611.892, 114.055
613.205, 89.688
614.518, 97.517
615.830, 113.403
617.142, 198.992
618.454, 193.014
619.766, 282.202
621.078, 238.060
622.389, 311.839
623.700, 355.632
625.011, 332.278
626.322, 417.080
627.632, 389.516
628.943, 411.029
630.253, 506.573
631.563, 498.169
632.872, 695.346
634.182, 672.331
635.491, 780.678
636.800, 901.377
638.109, 988.156
639.418, 1111.459
640.726, 1304.460
642.035, 1459.207
643.343, 1677.717
644.651, 1930.764
645.958, 2260.748
647.266, 2604.886
648.573, 3053.910
649.880, 3636.494
651.187, 4156.618
652.494, 5006.181
653.800, 5590.704
655.106, 6237.969
656.412, 6760.860
657.718, 7222.867
659.024, 7453.429
660.329, 8083.543
661.634, 8803.533
662.939, 9754.941
664.244, 10946.106
665.549, 13226.946
666.853, 15678.795
668.157, 19309.162
669.461, 24520.213
670.765, 30101.375
672.069, 36874.859
673.372, 41368.473
674.675, 43542.137
675.978, 42115.785
677.281, 36939.414
678.583, 30943.041
679.886, 24686.645
681.188, 19430.236
682.490, 15283.812
683.792, 12087.373
685.093, 9780.920
686.394, 7784.453
687.696, 6567.971
688.997, 5317.477
690.297, 4568.025
691.598, 3984.500
692.898, 3545.960
694.198, 3081.486
695.498, 2714.213
696.798, 2371.755
698.097, 2250.326
699.397, 1960.894
700.696, 1825.463
701.995, 1734.928
703.293, 1478.668
704.592, 1405.065
705.890, 1307.747
707.188, 1274.069
708.486, 1132.411
709.784, 1140.308
711.081, 1035.704
712.378, 970.729
713.675, 933.595
714.972, 878.132
716.269, 812.970
717.565, 795.562
718.862, 715.664
720.158, 667.583
721.453, 708.396
722.749, 604.559
724.045, 672.292
725.340, 675.319
726.635, 639.739
727.930, 654.376
729.224, 684.469
730.519, 629.521
731.813, 702.677
733.107, 628.606
734.401, 612.979
735.694, 607.483
736.988, 727.876
738.281, 692.007
739.574, 715.100
740.867, 819.491
742.160, 813.459
743.452, 868.580
744.744, 950.626
746.036, 1034.556
747.328, 1211.429
748.620, 1274.721
749.911, 1369.385
751.202, 1320.139
752.493, 1247.812
753.784, 1189.366
755.075, 953.800
756.365, 870.145
757.655, 751.517
758.945, 594.770
760.235, 512.954
761.525, 456.093
762.814, 357.331
764.103, 373.491
765.392, 297.537
766.681, 262.743
767.969, 185.206
769.258, 199.558
770.546, 113.932
771.834, 170.362
773.122, 107.941
774.409, 103.508
775.697, 160.063
776.984, 78.617
778.271, 42.157
779.558, 95.684
780.844, 43.198
782.131, 27.699
783.417, 10.188
784.703, 11.668
785.989, 7.033
787.274, 57.613
788.560, 22.079
789.845, 62.535
791.130, 90.979
792.415, 90.429
793.699, 91.875
794.983, 115.310
796.268, 37.736
797.552, 26.853
798.835, 51.528
800.119, 66.894
801.402, 41.245
802.686, 69.580
803.969, 38.100
805.251, 32.819
806.534, 60.573
807.816, 74.768
809.098, 36.766
810.380, 45.097
811.662, 9.983
812.944, 33.119
814.225, 0.780
815.506, 88.319
816.787, 29.421
818.068, 52.519
819.349, 141.614
820.629, 138.708
821.909, 121.798
823.189, 115.890
824.469, 142.980
825.749, 169.068
827.028, 150.145
828.307, 165.208
829.586, 169.259
830.865, 162.300
832.144, 165.329
833.422, 166.347
834.700, 210.355
835.978, 226.353
837.256, 197.338
838.534, 306.313
839.811, 215.276
841.088, 146.229
842.365, 255.172
843.642, 131.102
844.919, 179.022
846.195, 162.930
847.472, 126.827
848.748, 75.714
850.023, 116.588
851.299, 106.451
852.575, 104.302
853.850, 69.142
855.125, 19.969
856.400, 47.784
857.674, 50.586
858.949, 9.376
860.223, 41.846
861.497, 56.894
862.771, 0.622
864.045, 25.330
865.318, 23.977
866.591, 19.312
867.864, 37.665
869.137, 40.050
870.410, 50.473
871.682, 36.064
872.955, 107.410
874.227, 62.044
875.499, 33.494
876.770, 39.064
878.042, 16.332
879.313, 69.283
880.584, 34.949
881.855, 52.359
883.126, 2.656
884.396, 80.940
885.667, 44.788
886.937, 28.446
888.207, 6.672
889.476, 47.884
890.746, 99.082
892.015, 112.283
893.284, 37.473
894.553, 134.651
895.822, 94.844
897.090, 109.025
898.359, 133.202
899.627, 143.368
900.895, 39.524
902.163, 167.700
903.430, 145.896
904.698, 99.083
905.965, 228.263
907.232, 211.432
908.499, 142.593
909.765, 268.747
911.032, 305.891
912.298, 351.043
913.564, 433.188
914.830, 306.325
916.095, 522.455
917.361, 513.578
918.626, 550.693
919.891, 695.799
921.156, 744.894
922.420, 909.980
923.685, 979.949
924.949, 1173.016
926.213, 1430.939
927.477, 1642.833
928.740, 1815.868
930.004, 2151.636
931.267, 2203.239
932.530, 2321.056
933.793, 2081.641
935.056, 1874.148
936.318, 1675.574
937.581, 1341.993
938.843, 1257.368
940.104, 1090.957
941.366, 922.384
942.628, 1061.971
943.889, 923.663
945.150, 1017.340
946.411, 965.011
947.672, 1096.765
948.932, 1091.184
950.193, 1055.713
951.453, 1019.162
952.713, 983.666
953.973, 786.047
955.232, 730.533
956.491, 646.333
957.751, 606.424
959.010, 551.811
960.268, 495.294
961.527, 459.577
962.785, 402.901
964.044, 373.281
965.302, 397.444
966.559, 340.218
967.817, 270.654
969.075, 305.829
970.332, 295.089
971.589, 290.706
972.846, 280.298
974.102, 316.805
975.359, 304.270
976.615, 262.836
977.871, 322.386
979.127, 356.106
980.383, 312.660
981.638, 345.861
982.893, 408.942
984.149, 342.952
985.404, 384.074
986.658, 407.197
987.913, 362.089
989.167, 422.221
990.421, 320.641
991.675, 432.781
992.929, 376.127
994.183, 416.499
995.436, 412.593
996.689, 497.272
997.942, 557.218
999.195, 600.403
1000.448, 694.907
1001.700, 797.925
1002.952, 802.776
1004.204, 942.562
1005.456, 984.260
1006.708, 1091.673
1007.959, 1218.382
1009.210, 1324.077
1010.461, 1449.640
1011.712, 1620.271
1012.963, 1617.053
1014.213, 1769.331
1015.464, 1800.305
1016.714, 1936.655
1017.964, 2057.916
1019.214, 2017.815
1020.463, 2221.368
1021.712, 2390.412
1022.962, 2644.944
1024.210, 3035.370
1025.459, 3279.593
1026.708, 4036.503
1027.956, 4614.604
1029.204, 5284.806
1030.452, 5730.562
1031.700, 5650.222
1032.948, 5260.500
1034.195, 4680.724
1035.442, 3961.227
1036.689, 3538.177
1037.936, 2866.567
1039.183, 2740.758
1040.429, 2492.920
1041.676, 2224.370
1042.922, 2252.072
1044.168, 2087.558
1045.413, 2243.771
1046.659, 2365.176
1047.904, 2440.874
1049.149, 2598.399
1050.394, 2867.000
1051.639, 2929.461
1052.884, 3308.886
1054.128, 3579.670
1055.372, 3950.232
1056.616, 4230.483
1057.860, 4600.926
1059.104, 4851.339
1060.347, 4941.507
1061.590, 5105.610
1062.833, 4905.853
1064.076, 4656.131
1065.319, 4556.768
1066.561, 4597.046
1067.803, 4667.125
1069.046, 5127.169
1070.287, 5417.225
1071.529, 4757.275
1072.771, 4447.075
1074.012, 3777.188
1075.253, 3237.170
1076.494, 2640.010
1077.735, 2119.308
1078.975, 1895.104
1080.216, 1623.559
1081.456, 1396.646
1082.696, 1300.118
1083.936, 1027.885
1085.175, 906.930
1086.415, 897.574
1087.654, 654.390
1088.893, 764.257
1090.132, 577.674
1091.371, 599.821
1092.609, 626.086
1093.847, 379.464
1095.085, 482.298
1096.323, 545.167
1097.561, 304.943
1098.799, 419.389
1100.036, 360.300
1101.273, 376.554
1102.510, 377.425
1103.747, 305.549
1104.983, 339.971
1106.220, 361.679
1107.456, 240.021
1108.692, 330.269
1109.928, 281.227
1111.163, 274.749
1112.399, 300.599
1113.634, 264.405
1114.869, 240.518
1116.104, 265.627
1117.339, 254.460
1118.573, 257.442
1119.808, 246.616
1121.042, 253.119
1122.276, 240.733
1123.509, 258.896
1124.743, 321.120
1125.976, 289.538
1127.210, 183.524
1128.443, 221.447
1129.675, 63.301
1130.908, 90.452
1132.141, 105.131
1133.373, 74.847
1134.605, 72.295
1135.837, 124.447
1137.068, 64.857
1138.300, 232.439
1139.531, 56.925
1140.762, 5.371
1141.993, 235.670
1143.224, 45.622
1144.455, 157.290
1145.685, 89.857
1146.915, 10.819
1148.145, 120.373
1149.375, 34.876
1150.605, 61.239
1151.834, 71.671
1153.063, 54.276
1154.292, 74.733
1155.521, 28.419
1156.750, 30.832
1157.978, 25.424
1159.207, 87.979
1160.435, 15.573
1161.663, 327.303
1162.891, 171.247
1164.118, 157.375
1165.345, 35.278
1166.573, 66.635
1167.800, 113.268
1169.026, 75.119
1170.253, 27.275
1171.480, 80.388
1172.706, 57.722
1173.932, 106.544
1175.158, 2.325
1176.383, 69.031
1177.609, 83.944
1178.834, 23.545
1180.059, 76.171
1181.284, 21.319
1182.509, 45.546
1183.734, 157.088
1184.958, 14.566
1186.182, 34.432
1187.406, 79.045
1188.630, 42.667
1189.854, 20.007
1191.077, 9.606
1192.301, 83.728
1193.524, 51.096
1194.747, 13.216
1195.969, 54.174
1197.192, 43.848
1198.414, 109.755
1199.636, 101.897
1200.858, 16.289
1202.080, 17.247
1203.302, 111.032
1204.523, 60.858
1205.744, 53.217
1206.966, 115.550
1208.186, 49.969
1209.407, 87.224
1210.628, 89.672
1211.848, 27.190
1213.068, 77.870
1214.288, 121.418
1215.508, 123.758
1216.727, 114.926
1217.947, 112.471
1219.166, 165.395
1220.385, 87.017
1221.604, 112.091
1222.822, 139.618
1224.041, 47.408
1225.259, 142.390
1226.477, 218.605
1227.695, 65.555
1228.913, 205.159
1230.130, 135.664
1231.348, 70.021
1232.565, 155.534
1233.782, 109.578
1234.999, 91.130
1236.215, 192.829
1237.432, 44.887
1238.648, 216.312
1239.864, 182.370
1241.080, 72.910
1242.296, 290.342
1243.511, 73.073
1244.726, 137.887
1245.942, 260.327
1247.156, 25.866
1248.371, 268.143
1249.586, 199.946
1250.800, 132.440
1252.014, 298.349
1253.228, 141.555
1254.442, 161.411
1255.656, 227.952
1256.869, 90.873
1258.083, 243.100
1259.296, 246.649
1260.509, 165.855
1261.722, 159.162
1262.934, 216.846
1264.147, 173.775
1265.359, 252.921
1266.571, 137.490
1267.783, 236.008
1268.994, 334.741
1270.206, 87.955
1271.417, 256.211
1272.628, 110.725
1273.839, 116.720
1275.050, 384.537
1276.260, 74.235
1277.471, 144.935
1278.681, 379.562
1279.891, 178.517
1281.101, 238.334
1282.310, 165.809
1283.520, 113.387
1284.729, 371.624
1285.938, 124.574
1287.147, 148.060
1288.356, 220.623
1289.564, 75.273
1290.773, 289.799
1291.981, 183.473
1293.189, 72.265
1294.397, 271.322
1295.604, 175.535
1296.812, 122.234
1298.019, 230.979
1299.226, 5.043
1300.433, 167.521
1301.640, 220.179
1302.846, 25.236
1304.053, 167.473
1305.259, 37.035
1306.465, 112.466
1307.671, 81.587
1308.876, 223.220
1310.082, 160.707
1311.287, 245.948
1312.492, 92.892
1313.697, 240.348
1314.902, 157.054
1316.106, 153.454
1317.310, 200.016
1318.515, 102.611
1319.719, 189.057
1320.922, 194.985
1322.126, 131.092
1323.329, 217.163
1324.533, 151.539
1325.736, 77.398
1326.939, 62.900
1328.141, 148.427
1329.344, 184.329
1330.546, 248.935
1331.748, 104.134
1332.950, 149.419
1334.152, 271.755
1335.354, 3.447
1336.555, 241.117
1337.757, 170.244
1338.958, 4.897
1340.159, 238.198
1341.359, 32.589
1342.560, 46.835
1343.760, 293.771
1344.960, 30.989
1346.160, 214.702
1347.360, 238.702
1348.560, 42.747
1349.759, 306.486
1350.959, 80.232
1352.158, 54.017
1353.357, 283.753
1354.555, 112.775
1355.754, 170.547
1356.952, 113.543
1358.151, 16.625
1359.349, 159.793
1360.546, 182.893
1361.744, 5.860
1362.941, 218.712
1364.139, 2.392
1365.336, 134.954
1366.533, 247.540
1367.730, 19.845
1368.926, 102.209
1370.123, 64.889
1371.319, 7.521
1372.515, 19.412
1373.711, 36.796
1374.906, 3.762
1376.102, 106.245
1377.297, 37.156
1378.492, 82.958
1379.687, 58.631
1380.882, 24.992
1382.077, 291.044
1383.271, 126.299
1384.465, 51.364
1385.659, 247.399
1386.853, 163.045
1388.047, 127.978
1389.240, 202.817
1390.434, 81.688
1391.627, 212.914
1392.820, 327.679
1394.013, 67.695
1395.205, 257.655
1396.398, 171.714
1397.590, 55.139
1398.782, 299.286
1399.974, 193.822
1401.166, 17.779
1402.357, 250.913
1403.549, 94.985
1404.740, 278.310
1405.931, 171.288
1407.122, 103.531
1408.313, 266.859
1409.503, 149.562
1410.693, 138.479
1411.883, 305.780
1413.073, 166.391
1414.263, 137.217
1415.453, 339.256
1416.642, 120.789
1417.831, 182.706
1419.020, 274.256
1420.209, 75.299
1421.398, 296.543
1422.587, 167.952
1423.775, 177.195
1424.963, 358.165
1426.151, 189.068
1427.339, 180.454
1428.526, 317.720
1429.714, 95.482
1430.901, 274.938
1432.088, 325.089
1433.275, 164.706
1434.462, 294.631
1435.648, 155.531
1436.835, 35.877
1438.021, 251.143
1439.207, 139.063
1440.393, 119.410
1441.579, 377.399
1442.764, 114.285
1443.949, 259.273
1445.135, 267.514
1446.320, 37.584
1447.504, 429.964
1448.689, 177.076
1449.873, 234.042
1451.058, 371.804
1452.242, 268.555
1453.426, 117.574
1454.609, 535.639
1455.793, 108.251
1456.976, 202.918
1458.159, 330.589
1459.342, 196.739
1460.525, 250.145
1461.708, 345.922
1462.890, 172.645
1464.073, 488.184
1465.255, 222.670
1466.437, 149.131
1467.619, 485.049
1468.800, 189.171
1469.982, 303.116
1471.163, 538.522
1472.344, 83.814
1473.525, 427.531
1474.706, 371.164
1475.886, 117.114
1477.066, 511.316
1478.247, 190.140
1479.427, 223.556
1480.607, 506.554
1481.786, 259.307
1482.966, 227.445
1484.145, 310.908
1485.324, 115.125
1486.503, 227.046
1487.682, 278.885
1488.860, 43.188
1490.039, 517.308
1491.217, 260.947
1492.395, 94.939
1493.573, 397.779
1494.751, 301.460
1495.928, 182.528
1497.106, 455.854
1498.283, 77.396
1499.460, 310.630
1500.637, 333.871
1501.814, 108.165
1502.990, 311.668
1504.166, 302.729
1505.342, 2.931
1506.518, 400.056
1507.694, 214.610
1508.870, 187.424
1510.045, 312.623
1511.221, 57.983
1512.396, 229.343
1513.571, 353.240
1514.745, 3.292
1515.920, 159.755
1517.094, 198.421
1518.269, 0.000
##END=



