##NAMES=Tremolite
##RRUFFID=R040045
##IDEAL CHEMISTRY=[box]Ca_2_Mg_5_Si_8_O_22_(OH)_2_
##LOCALITY=Gouverneur, New York, USA
##OWNER=RRUFF
##SOURCE=University of Arizona Mineral Museum
##DESCRIPTION=Group of colorless acicular single crystals
##STATUS=The identification of this mineral has been confirmed by X-ray diffraction and chemical analysis
##URL=rruff.info/R040045
##MEASURED CHEMISTRY=Ca_2.01_(Mg_0.99_Fe_0.01_)_5_(Si_0.99_Fe_0.01_)_8_O_22_(OH)_2_
##PIN_ID=M00230
##ORIENTATION=Laser parallel to b* (0 1 0). Fiducial mark perpendicular to laser is parallel to -c [0 0 -1]
133.003, 0.000
134.390, 171.771
135.777, 3.623
137.164, 199.771
138.550, 209.838
139.937, 84.975
141.323, 164.121
142.709, 156.564
144.094, 1.658
145.480, 279.037
146.865, 188.373
148.250, 169.402
149.635, 251.914
151.019, 245.740
152.403, 0.738
153.788, 126.793
155.171, 123.805
156.555, 161.684
157.939, 330.350
159.322, 389.732
160.705, 269.775
162.088, 510.422
163.470, 361.633
164.853, 193.363
166.235, 495.586
167.617, 388.266
168.998, 591.379
170.380, 294.908
171.761, 708.828
173.142, 973.121
174.523, 1587.770
175.904, 2372.746
177.284, 2778.020
178.664, 3153.566
180.044, 3029.369
181.424, 2335.414
182.803, 1451.691
184.183, 1148.193
185.562, 684.906
186.940, 631.826
188.319, 528.939
189.698, 296.244
191.076, 263.725
192.454, 351.385
193.831, 49.213
195.209, 387.205
196.586, 155.369
197.963, 253.701
199.340, 352.191
200.717, 330.848
202.093, 365.977
203.470, 248.646
204.846, 337.787
206.221, 336.102
207.597, 336.531
208.972, 406.125
210.347, 515.857
211.722, 425.727
213.097, 455.725
214.472, 815.850
215.846, 886.068
217.220, 1206.266
218.594, 1456.457
219.967, 2236.662
221.341, 2746.891
222.714, 2997.154
224.087, 2997.457
225.460, 2697.805
226.832, 2128.199
228.204, 1658.646
229.577, 1609.260
230.948, 1199.928
232.320, 1320.660
233.692, 1111.461
235.063, 852.318
236.434, 773.236
237.805, 591.434
239.175, 365.289
240.545, 366.406
241.916, 397.582
243.286, 338.818
244.655, 480.113
246.025, 461.467
247.394, 652.879
248.763, 534.357
250.132, 765.898
251.501, 617.496
252.869, 619.152
254.237, 470.867
255.605, 562.641
256.973, 344.643
258.340, 346.816
259.708, 499.062
261.075, 211.365
262.442, 303.719
263.808, 506.162
265.175, 108.717
266.541, 191.377
267.907, 334.166
269.273, 527.035
270.639, 100.006
272.004, 183.061
273.369, 386.287
274.734, 109.631
276.099, 363.010
277.463, 236.416
278.828, 269.857
280.192, 253.330
281.556, 256.322
282.919, 200.371
284.283, 363.939
285.646, 337.543
287.009, 471.180
288.372, 574.842
289.734, 678.537
291.097, 676.898
292.459, 546.004
293.821, 599.777
295.183, 463.648
296.544, 357.473
297.905, 428.092
299.266, 238.145
300.627, 357.625
301.988, 248.270
303.348, 469.061
304.709, 380.045
306.069, 391.195
307.428, 282.502
308.788, 423.951
310.147, 225.529
311.507, 317.230
312.865, 9.047
314.224, 370.971
315.583, 122.996
316.941, 285.113
318.299, 307.326
319.657, 179.625
321.015, 512.004
322.372, 264.465
323.729, 384.396
325.086, 297.004
326.443, 359.682
327.800, 442.426
329.156, 365.234
330.512, 809.396
331.868, 972.328
333.224, 1075.314
334.579, 1098.359
335.935, 771.459
337.290, 654.609
338.645, 597.811
339.999, 782.547
341.354, 455.848
342.708, 619.195
344.062, 532.588
345.416, 656.025
346.769, 569.506
348.123, 563.029
349.476, 736.594
350.829, 700.199
352.182, 793.844
353.534, 877.529
354.887, 791.252
356.239, 835.012
357.591, 558.807
358.942, 662.639
360.294, 826.504
361.645, 660.404
362.996, 885.117
364.347, 1299.084
365.698, 1793.082
367.048, 2747.111
368.398, 3361.172
369.748, 3685.260
371.098, 3429.379
372.448, 2863.523
373.797, 1957.697
375.146, 1401.896
376.495, 1076.123
377.844, 682.148
379.192, 623.686
380.540, 574.805
381.889, 689.129
383.236, 605.498
384.584, 629.871
385.932, 664.270
387.279, 869.439
388.626, 1233.883
389.973, 1538.359
391.319, 1892.977
392.666, 2814.623
394.012, 2901.645
395.358, 2956.232
396.704, 2410.838
398.049, 1736.484
399.394, 1181.164
400.740, 782.266
402.084, 746.988
403.429, 541.727
404.774, 572.678
406.118, 607.453
407.462, 442.252
408.806, 545.871
410.150, 550.965
411.493, 653.129
412.836, 707.992
414.179, 812.873
415.522, 887.768
416.865, 815.516
418.207, 779.498
419.549, 612.533
420.891, 517.559
422.233, 362.748
423.575, 157.717
424.916, 22.697
426.257, 277.725
427.598, 142.760
428.939, 168.201
430.279, 153.256
431.619, 148.316
432.959, 73.391
434.299, 78.625
435.639, 214.193
436.978, 129.398
438.318, 44.748
439.657, 429.850
440.996, 354.959
442.334, 270.070
443.673, 235.189
445.011, 170.311
446.349, 205.443
447.687, 390.582
449.024, 115.734
450.361, 330.879
451.699, 106.064
453.036, 241.215
454.372, 3.629
455.709, 161.535
457.045, 306.701
458.381, 272.113
459.717, 137.307
461.053, 82.518
462.388, 2.244
463.724, 123.018
465.059, 73.764
466.394, 173.588
467.728, 118.896
469.063, 194.223
470.397, 219.562
471.731, 134.914
473.065, 10.283
474.398, 115.664
475.732, 81.256
477.065, 256.691
478.398, 62.314
479.731, 117.766
481.063, 283.225
482.396, 48.691
483.728, 165.768
485.060, 579.715
486.391, 185.207
487.723, 60.719
489.054, 336.234
490.385, 38.191
491.716, 257.371
493.047, 392.941
494.377, 68.512
495.708, 324.086
497.038, 279.723
498.368, 225.363
499.697, 38.992
501.027, 196.641
502.356, 212.277
503.685, 147.945
505.014, 573.625
506.342, 309.293
507.671, 114.969
508.999, 280.641
510.327, 276.312
511.655, 101.984
512.982, 297.656
514.310, 243.336
515.637, 389.012
516.964, 224.688
518.291, 200.363
519.617, 156.039
520.944, 551.711
522.270, 12.617
523.596, 323.066
524.921, 298.742
526.247, 54.418
527.572, 120.090
528.897, 115.762
530.222, 411.430
531.547, 147.094
532.871, 412.754
534.196, 98.406
535.520, 154.059
536.844, 190.293
538.167, 117.324
539.491, 109.281
540.814, 46.125
542.137, 28.473
543.460, 176.902
544.783, 52.629
546.105, 2.008
547.427, 363.340
548.749, 100.246
550.071, 15.586
551.393, 103.676
552.714, 28.422
554.035, 56.793
555.356, 62.004
556.677, 162.348
557.998, 240.023
559.318, 84.895
560.638, 100.926
561.958, 75.930
563.278, 79.066
564.597, 66.340
565.917, 122.430
567.236, 122.402
568.555, 82.641
569.874, 252.379
571.192, 82.488
572.511, 127.129
573.829, 112.047
575.147, 198.195
576.464, 111.547
577.782, 146.133
579.099, 60.711
580.416, 35.766
581.733, 140.309
583.050, 94.840
584.366, 128.121
585.683, 422.629
586.999, 37.117
588.315, 301.586
589.630, 146.043
590.946, 121.988
592.261, 76.414
593.576, 38.504
594.891, 89.816
596.206, 59.641
597.520, 214.027
598.834, 298.398
600.148, 372.750
601.462, 347.086
602.776, 330.957
604.089, 317.770
605.402, 272.055
606.715, 136.324
608.028, 260.578
609.341, 134.812
610.653, 299.035
611.965, 194.137
613.277, 329.828
614.589, 483.988
615.901, 98.137
617.212, 344.379
618.523, 438.488
619.834, 283.141
621.145, 489.227
622.456, 283.281
623.766, 677.500
625.076, 682.078
626.386, 386.949
627.696, 661.531
629.006, 435.480
630.315, 540.914
631.624, 315.094
632.933, 138.988
634.242, 650.824
635.551, 154.672
636.859, 658.766
638.167, 442.566
639.475, 566.348
640.783, 536.141
642.090, 622.473
643.398, 776.625
644.705, 834.398
646.012, 858.062
647.318, 1323.309
648.625, 1005.629
649.931, 1289.219
651.237, 1763.520
652.543, 1367.059
653.849, 2194.098
655.155, 1457.590
656.460, 1752.133
657.765, 1504.504
659.070, 1737.914
660.375, 1659.871
661.679, 1863.234
662.984, 2006.562
664.288, 2659.867
665.592, 3193.324
666.895, 4516.801
668.199, 5680.164
669.502, 7473.434
670.805, 10078.898
672.108, 12232.125
673.411, 14225.328
674.713, 13318.504
676.016, 12241.758
677.318, 9626.359
678.620, 7689.609
679.921, 5776.547
681.223, 4169.734
682.524, 3242.902
683.825, 2376.641
685.126, 2139.812
686.427, 1752.938
687.727, 1216.035
689.028, 1499.109
690.328, 1002.152
691.628, 1005.164
692.927, 988.770
694.227, 620.238
695.526, 815.902
696.825, 622.652
698.124, 425.520
699.423, 596.336
700.721, 219.145
702.020, 481.922
703.318, 603.938
704.616, 86.672
705.913, 309.363
707.211, 8.090
708.508, 657.395
709.805, 367.492
711.102, 500.020
712.399, 202.516
713.695, 46.031
714.992, 416.344
716.288, 132.289
717.584, 604.594
718.879, 356.875
720.175, 182.934
721.470, 95.156
722.765, 237.340
724.060, 240.809
725.355, 252.934
726.649, 227.711
727.944, 319.777
729.238, 211.816
730.532, 423.828
731.825, 215.809
733.119, 457.762
734.412, 389.691
735.705, 171.508
736.998, 373.148
738.291, 324.988
739.584, 83.199
740.876, 428.652
742.168, 360.336
743.460, 311.594
744.752, 873.223
746.043, 64.828
747.334, 906.387
748.626, 867.777
749.916, 645.754
751.207, 1127.117
752.498, 478.320
753.788, 889.746
755.078, 581.148
756.368, 462.520
757.658, 643.859
758.947, 45.172
760.237, 356.434
761.526, 587.668
762.815, 388.855
764.104, 330.035
765.392, 351.141
766.680, 132.254
767.969, 73.332
769.257, 574.363
770.544, 465.520
771.832, 46.250
773.119, 617.172
774.406, 188.070
775.693, 48.930
776.980, 339.742
778.267, 280.523
779.553, 191.277
780.839, 141.988
782.125, 182.668
783.411, 443.309
784.697, 83.922
785.982, 264.492
787.267, 515.023
788.552, 64.672
789.837, 405.727
791.122, 265.918
792.406, 356.258
793.690, 366.570
794.974, 193.152
796.258, 556.961
797.542, 227.078
798.825, 2.840
800.108, 567.172
801.391, 122.848
802.674, 607.008
803.957, 416.840
805.239, 166.641
806.522, 386.402
807.804, 153.863
809.085, 635.723
810.367, 125.281
811.649, 234.797
812.930, 664.520
814.211, 75.609
815.492, 793.746
816.772, 723.078
818.053, 342.500
819.333, 291.789
820.613, 281.254
821.893, 300.484
823.173, 406.969
824.452, 56.137
825.732, 538.055
827.011, 388.289
828.290, 477.355
829.568, 731.188
830.847, 130.203
832.125, 421.309
833.403, 10.250
834.681, 489.133
835.959, 589.824
837.236, 238.648
838.514, 367.449
839.791, 637.281
841.068, 426.031
842.345, 716.215
843.621, 404.906
844.898, 803.582
846.174, 242.223
847.450, 320.836
848.726, 559.477
850.001, 228.125
851.277, 946.777
852.552, 695.406
853.827, 694.016
855.102, 812.242
856.376, 524.406
857.651, 972.945
858.925, 1149.898
860.199, 838.383
861.473, 761.434
862.746, 479.910
864.020, 1018.375
865.293, 876.816
866.566, 474.781
867.839, 1115.949
869.112, 564.328
870.384, 681.918
871.656, 700.273
872.928, 588.613
874.200, 586.477
875.472, 953.633
876.744, 281.664
878.015, 639.754
879.286, 827.867
880.557, 605.988
881.828, 574.301
883.098, 528.449
884.369, 503.543
885.639, 477.824
886.909, 445.762
888.178, 454.961
889.448, 412.656
890.717, 435.621
891.987, 466.242
893.256, 328.328
894.524, 636.434
895.793, 594.520
897.061, 712.594
898.330, 550.648
899.598, 647.184
900.865, 1035.199
902.133, 36.801
903.401, 1111.160
904.668, 629.102
905.935, 536.891
907.202, 924.629
908.468, 402.145
909.735, 779.539
911.001, 586.914
912.267, 662.188
913.533, 1119.402
914.799, 686.574
916.064, 393.727
917.330, 410.855
918.595, 667.961
919.860, 914.133
921.124, 849.613
922.389, 306.602
923.653, 1183.570
924.918, 378.402
926.182, 1075.320
927.445, 981.645
928.709, 1296.434
929.972, 1473.270
931.236, 1289.898
932.499, 1256.129
933.761, 1602.004
935.024, 688.133
936.286, 1234.840
937.549, 950.023
938.811, 866.406
940.073, 1263.027
941.334, 401.656
942.596, 548.223
943.857, 464.484
945.118, 380.984
946.379, 1317.453
947.640, 587.859
948.900, 1314.285
950.161, 610.250
951.421, 782.559
952.681, 1008.941
953.940, 703.695
955.200, 630.055
956.459, 786.398
957.719, 551.203
958.978, 565.453
960.236, 381.129
961.495, 367.453
962.753, 372.691
964.012, 198.590
965.270, 154.918
966.527, 282.672
967.785, 359.020
969.043, 218.035
970.300, 324.410
971.557, 190.629
972.814, 316.832
974.071, 236.855
975.327, 359.570
976.583, 6.176
977.840, 50.125
979.095, 376.449
980.351, 357.203
981.607, 559.043
982.862, 155.723
984.117, 360.598
985.372, 532.156
986.627, 9.473
987.882, 546.078
989.136, 343.230
990.390, 139.660
991.644, 566.773
992.898, 23.523
994.152, 269.828
995.405, 216.809
996.659, 353.750
997.912, 470.652
999.165, 547.555
1000.417, 614.453
1001.670, 1141.328
1002.922, 648.242
1004.174, 385.141
1005.426, 672.016
1006.678, 21.570
1007.930, 635.258
1009.181, 402.055
1010.432, 308.828
1011.683, 555.570
1012.934, 372.289
1014.185, 648.977
1015.435, 705.555
1016.685, 372.273
1017.935, 1248.973
1019.185, 486.672
1020.435, 1003.223
1021.684, 1199.738
1022.934, 896.234
1024.183, 1962.719
1025.432, 1619.203
1026.680, 1805.660
1027.929, 3162.113
1029.177, 2268.363
1030.425, 3224.828
1031.673, 2571.289
1032.921, 2097.770
1034.169, 1854.242
1035.416, 1140.730
1036.663, 897.223
1037.911, 1233.719
1039.157, 370.324
1040.404, 1676.930
1041.650, 833.645
1042.897, 830.480
1044.143, 1137.387
1045.389, 574.477
1046.634, 1121.586
1047.880, 1168.812
1049.125, 596.180
1050.371, 1562.461
1051.615, 1190.012
1052.860, 907.352
1054.105, 1694.523
1055.349, 1089.578
1056.593, 2259.195
1057.837, 1348.047
1059.081, 2130.332
1060.325, 2856.230
1061.568, 2108.379
1062.812, 2481.191
1064.055, 1923.441
1065.298, 1698.672
1066.540, 1883.848
1067.783, 1668.949
1069.025, 1993.977
1070.267, 2778.930
1071.509, 1535.277
1072.751, 1929.898
1073.993, 1514.422
1075.234, 968.852
1076.475, 1433.168
1077.716, 887.594
1078.957, 1161.914
1080.198, 1196.121
1081.438, 660.203
1082.679, 1084.168
1083.919, 978.008
1085.159, 651.695
1086.398, 1145.227
1087.638, 878.574
1088.877, 561.727
1090.116, 1064.645
1091.355, 587.301
1092.594, 1359.676
1093.833, 611.734
1095.071, 323.965
1096.309, 877.461
1097.547, 332.398
1098.785, 887.812
1100.023, 413.754
1101.260, 199.730
1102.498, 195.750
1103.735, 272.215
1104.972, 688.828
1106.208, 1335.594
1107.445, 282.555
1108.681, 899.754
1109.918, 357.250
1111.154, 335.125
1112.389, 1063.488
1113.625, 32.480
1114.860, 372.289
1116.096, 512.883
1117.331, 55.867
1118.566, 896.098
1119.800, 238.871
1121.035, 62.605
1122.269, 1057.473
1123.503, 223.695
1124.737, 931.449
1125.971, 452.020
1127.205, 134.621
1128.438, 585.719
1129.671, 382.320
1130.904, 1.434
1132.137, 508.082
1133.370, 0.000
##END=



