##NAMES=Tremolite
##RRUFFID=R050173
##IDEAL CHEMISTRY=[box]Ca_2_Mg_5_Si_8_O_22_(OH)_2_
##LOCALITY=Fort Dauphin, Madagascar
##OWNER=RRUFF
##SOURCE=Marcus Origlieri
##DESCRIPTION=Mass of colorless acicular crystals
##STATUS=The identification of this mineral has been confirmed by X-ray diffraction and chemical analysis
##URL=rruff.info/R050173
##MEASURED CHEMISTRY=[box]Ca_2.00_Mg_5.00_Si_8.00_O_22_(OH)_2_
##PIN_ID=L00398
##ORIENTATION=Laser parallel to (1 0 1). Fiducial mark perpendicular to laser is parallel to b [0 1 0]
86.978, 0.000
88.374, 0.296
89.770, 59.884
91.166, 27.952
92.562, 80.197
93.958, 202.641
95.353, 128.767
96.748, 30.246
98.143, 102.632
99.538, 23.932
100.932, 80.147
102.326, 4.969
103.720, 90.572
105.114, 206.568
106.508, 132.855
107.901, 179.298
109.294, 215.799
110.687, 395.793
112.079, 612.604
113.472, 840.188
114.864, 1448.789
116.256, 1818.445
117.647, 1868.248
119.039, 1947.896
120.430, 1787.342
121.821, 1386.543
123.211, 1025.469
124.602, 924.101
125.992, 792.421
127.382, 580.421
128.772, 548.097
130.162, 415.462
131.551, 202.535
132.940, 289.674
134.329, 49.024
135.718, 199.598
137.106, 261.806
138.494, 307.211
139.882, 252.909
141.270, 340.351
142.657, 322.617
144.045, 414.532
145.432, 268.850
146.819, 280.540
148.205, 358.992
149.592, 357.216
150.978, 415.058
152.364, 552.448
153.749, 989.410
155.135, 1745.963
156.520, 2822.124
157.905, 3897.908
159.290, 4763.330
160.674, 5018.403
162.059, 3983.142
163.443, 3267.562
164.826, 2251.675
166.210, 1505.495
167.593, 909.035
168.977, 772.307
170.360, 885.370
171.742, 1548.368
173.125, 2841.289
174.507, 4474.128
175.889, 6286.875
177.271, 7110.922
178.652, 6993.154
180.034, 5594.436
181.415, 3318.765
182.796, 1597.359
184.176, 798.645
185.557, 414.200
186.937, 356.178
188.317, 252.312
189.697, 261.713
191.076, 323.579
192.456, 259.475
193.835, 191.245
195.213, 270.110
196.592, 68.944
197.970, 207.741
199.349, 206.503
200.726, 55.659
202.104, 239.286
203.482, 251.117
204.859, 356.500
206.236, 421.880
207.613, 571.151
208.989, 861.071
210.366, 1082.535
211.742, 1483.215
213.118, 1973.340
214.493, 2510.826
215.869, 3638.151
217.244, 5705.430
218.619, 8872.646
219.994, 12879.789
221.368, 16096.854
222.742, 17093.830
224.117, 16110.711
225.490, 14067.478
226.864, 13234.144
228.237, 15530.702
229.611, 19397.180
230.984, 21803.580
232.356, 21969.906
233.729, 19086.154
235.101, 14032.330
236.473, 9138.436
237.845, 5594.477
239.216, 3430.461
240.588, 2316.386
241.959, 1832.292
243.330, 1948.201
244.701, 2634.062
246.071, 4159.877
247.441, 5845.656
248.811, 7051.389
250.181, 7397.068
251.551, 6572.689
252.920, 4824.408
254.289, 3345.513
255.658, 2036.635
257.027, 1497.453
258.395, 1028.224
259.763, 778.696
261.131, 869.070
262.499, 819.054
263.867, 799.354
265.234, 667.414
266.601, 377.558
267.968, 97.000
269.334, 42.931
270.701, 122.938
272.067, 143.059
273.433, 173.301
274.799, 133.667
276.164, 95.616
277.530, 15.239
278.895, 34.563
280.260, 123.800
281.624, 173.695
282.989, 253.629
284.353, 373.734
285.717, 484.049
287.080, 264.320
288.444, 124.508
289.807, 164.694
291.170, 44.297
292.533, 14.148
293.896, 156.383
295.258, 6.794
296.620, 21.994
297.982, 240.084
299.344, 517.590
300.705, 825.506
302.067, 1073.329
303.428, 1051.043
304.789, 868.646
306.149, 696.131
307.510, 663.477
308.870, 830.815
310.230, 808.758
311.589, 756.520
312.949, 534.742
314.308, 293.022
315.667, 171.251
317.026, 59.532
318.385, 112.402
319.743, 34.747
321.101, 31.850
322.459, 8.450
323.817, 25.391
325.174, 40.669
326.532, 30.321
327.889, 7.246
329.246, 99.245
330.602, 225.877
331.958, 302.406
333.315, 288.580
334.671, 345.154
336.026, 312.624
337.382, 409.329
338.737, 585.723
340.092, 982.352
341.447, 1988.120
342.802, 2003.955
344.156, 2708.939
345.510, 3123.771
346.864, 3358.082
348.218, 4382.293
349.571, 5226.264
350.925, 5629.930
352.278, 5433.072
353.630, 4606.147
354.983, 3619.189
356.336, 2831.801
357.688, 2493.859
359.040, 2246.404
360.391, 2416.813
361.743, 2688.867
363.094, 3550.861
364.445, 4830.863
365.796, 6913.008
367.147, 9224.983
368.497, 10617.239
369.847, 9839.606
371.197, 8202.360
372.547, 6195.021
373.897, 4787.621
375.246, 3780.164
376.595, 3152.654
377.944, 2505.102
379.293, 2097.506
380.641, 1829.867
381.989, 1702.188
383.337, 1674.554
384.685, 1867.305
386.032, 2210.188
387.380, 3233.082
388.727, 4496.109
390.074, 6968.853
391.421, 10041.774
392.767, 12494.916
394.113, 12755.024
395.459, 10900.287
396.805, 7843.527
398.151, 5006.126
399.496, 3130.237
400.841, 2303.365
402.186, 1875.749
403.531, 1599.787
404.875, 1563.960
406.219, 1846.673
407.564, 1949.560
408.907, 2642.047
410.251, 3714.338
411.594, 5016.573
412.937, 6708.640
414.280, 8090.718
415.623, 8302.202
416.966, 7693.674
418.308, 6075.098
419.650, 4606.846
420.992, 3118.045
422.334, 2389.529
423.675, 1721.050
425.016, 1432.107
426.357, 1183.452
427.698, 1004.187
429.038, 1054.629
430.379, 1172.954
431.719, 1855.959
433.059, 2554.176
434.399, 3300.657
435.738, 3376.600
437.077, 2824.021
438.416, 2027.273
439.755, 1034.861
441.094, 651.460
442.432, 300.396
443.770, 269.257
445.108, 210.464
446.446, 140.191
447.783, 130.453
449.121, 129.787
450.458, 107.879
451.795, 226.510
453.131, 143.124
454.468, 208.646
455.804, 133.486
457.140, 297.288
458.476, 492.688
459.811, 751.216
461.146, 910.438
462.482, 929.823
463.816, 1089.009
465.151, 918.157
466.486, 597.146
467.820, 516.083
469.154, 395.004
470.488, 223.884
471.821, 242.706
473.155, 111.475
474.488, 76.843
475.821, 67.237
477.154, 43.695
478.486, 58.599
479.818, 114.287
481.150, 334.794
482.482, 308.858
483.814, 611.963
485.145, 472.929
486.477, 507.119
487.808, 320.979
489.138, 202.972
490.469, 148.150
491.799, 154.522
493.129, 221.230
494.459, 107.836
495.789, 15.374
497.119, 41.230
498.448, 98.184
499.777, 25.867
501.106, 213.597
502.434, 161.297
503.763, 298.949
505.091, 266.561
506.419, 554.130
507.747, 661.662
509.074, 1009.157
510.402, 1346.622
511.729, 1744.058
513.056, 2031.466
514.383, 2278.836
515.709, 2516.179
517.035, 2513.488
518.361, 2490.768
519.687, 2688.053
521.013, 2285.315
522.338, 2382.548
523.663, 2589.762
524.988, 3166.954
526.313, 3634.132
527.638, 4201.278
528.962, 4268.395
530.286, 3845.475
531.610, 2972.545
532.934, 2289.582
534.257, 1306.604
535.581, 1253.593
536.904, 620.550
538.227, 627.473
539.549, 394.361
540.872, 341.218
542.194, 288.065
543.516, 184.879
544.838, 141.654
546.159, 128.396
547.480, 85.099
548.802, 141.760
550.123, 88.394
551.443, 24.989
552.764, 128.455
554.084, 52.004
555.404, 5.618
556.724, 110.721
558.044, 32.979
559.363, 6.733
560.682, 129.468
562.001, 34.369
563.320, 38.261
564.639, 17.793
565.957, 6.197
567.275, 49.770
568.593, 85.694
569.911, 88.011
571.228, 117.432
572.546, 103.241
573.863, 229.021
575.180, 215.383
576.496, 210.468
577.813, 116.145
579.129, 231.783
580.445, 147.388
581.761, 122.958
583.076, 218.490
584.392, 133.987
585.707, 289.446
587.022, 134.872
588.337, 150.261
589.651, 105.625
590.966, 30.986
592.280, 126.361
593.594, 28.241
594.907, 7.177
596.221, 77.390
597.534, 31.980
598.847, 123.396
600.160, 11.247
601.473, 53.331
602.785, 42.244
604.097, 81.882
605.409, 45.687
606.721, 29.419
608.033, 23.120
609.344, 3.292
610.655, 15.766
611.966, 24.678
613.277, 28.682
614.588, 112.426
615.898, 76.868
617.208, 51.897
618.518, 156.896
619.828, 182.118
621.137, 216.731
622.446, 212.740
623.755, 308.475
625.064, 273.315
626.373, 346.127
627.681, 303.867
628.990, 407.776
630.298, 382.275
631.605, 375.667
632.913, 589.665
634.220, 592.886
635.527, 526.149
636.834, 649.643
638.141, 763.393
639.448, 898.593
640.754, 1043.559
642.060, 1098.774
643.366, 1375.565
644.672, 1500.720
645.977, 1816.009
647.283, 2161.369
648.588, 2465.854
649.892, 3070.095
651.197, 3535.017
652.502, 3759.312
653.806, 3965.095
655.110, 3948.984
656.414, 4182.881
657.717, 4006.406
659.021, 4505.042
660.324, 5169.207
661.627, 5824.214
662.930, 7288.765
664.232, 8974.038
665.534, 11619.083
666.837, 15745.642
668.138, 21082.139
669.440, 29758.041
670.742, 38672.672
672.043, 45817.961
673.344, 47642.945
674.645, 43737.426
675.946, 35141.301
677.246, 26625.686
678.546, 19870.322
679.846, 14427.931
681.146, 11092.469
682.446, 8850.560
683.745, 7475.246
685.045, 6589.649
686.344, 6303.939
687.642, 5903.639
688.941, 6238.160
690.239, 5586.617
691.538, 5251.309
692.836, 4648.955
694.133, 4189.967
695.431, 3204.376
696.728, 2548.713
698.025, 2208.815
699.322, 1982.710
700.619, 1535.940
701.916, 1530.731
703.212, 1394.054
704.508, 1207.128
705.804, 1152.979
707.100, 1086.529
708.395, 1159.809
709.690, 965.397
710.985, 915.718
712.280, 1077.662
713.575, 920.807
714.869, 812.412
716.164, 654.747
717.458, 778.038
718.751, 519.306
720.045, 640.414
721.338, 612.928
722.632, 615.355
723.925, 558.074
725.217, 430.757
726.510, 524.354
727.802, 506.543
729.095, 470.733
730.386, 593.559
731.678, 705.987
732.970, 790.678
734.261, 863.140
735.552, 985.898
736.843, 1368.975
738.134, 1801.450
739.424, 2114.056
740.715, 2196.247
742.005, 1928.701
743.295, 1650.733
744.584, 1662.938
745.874, 1574.652
747.163, 1856.029
748.452, 2187.783
749.741, 2618.255
751.030, 2189.461
752.318, 1907.131
753.607, 1487.186
754.895, 1158.806
756.182, 949.591
757.470, 712.260
758.758, 550.343
760.045, 431.701
761.332, 392.891
762.619, 313.993
763.905, 276.161
765.192, 195.904
766.478, 256.893
767.764, 237.898
769.050, 298.901
770.335, 278.836
771.621, 261.189
772.906, 252.434
774.191, 183.882
775.475, 185.408
776.760, 117.054
778.044, 38.653
779.329, 250.327
780.613, 108.026
781.896, 26.478
783.180, 275.017
784.463, 116.486
785.746, 307.928
787.029, 59.347
788.312, 230.737
789.594, 182.105
790.877, 153.450
792.159, 164.770
793.441, 46.065
794.722, 77.326
796.004, 98.555
797.285, 10.250
798.566, 110.897
799.847, 22.013
801.128, 3.090
802.408, 44.131
803.689, 105.140
804.969, 16.119
806.249, 37.065
807.528, 32.019
808.808, 58.849
810.087, 150.312
811.366, 120.420
812.645, 58.876
813.923, 91.764
815.202, 22.375
816.480, 92.951
817.758, 13.528
819.036, 44.068
820.314, 15.423
821.591, 14.962
822.868, 4.550
824.145, 116.130
825.422, 6.498
826.699, 16.970
827.975, 127.756
829.251, 141.996
830.527, 138.145
831.803, 68.303
833.079, 41.612
834.354, 78.419
835.629, 51.578
836.904, 28.364
838.179, 88.279
839.454, 108.165
840.728, 81.977
842.002, 37.812
843.276, 62.430
844.550, 7.261
845.824, 46.947
847.097, 66.604
848.370, 26.246
849.643, 35.861
850.916, 94.553
852.188, 104.956
853.461, 154.437
854.733, 16.108
856.005, 63.312
857.277, 72.705
858.548, 37.920
859.820, 1.407
861.091, 0.706
862.362, 99.976
863.633, 109.252
864.903, 188.521
866.173, 37.775
867.444, 27.000
868.713, 70.775
869.983, 5.408
871.253, 74.578
872.522, 63.729
873.791, 59.725
875.060, 21.979
876.329, 31.066
877.597, 70.133
878.866, 10.820
880.134, 208.193
881.402, 22.791
882.670, 156.189
883.937, 235.146
885.204, 25.914
886.472, 112.984
887.739, 151.865
889.005, 0.725
890.272, 99.559
891.538, 158.371
892.804, 167.162
894.070, 245.936
895.336, 194.688
896.601, 163.428
897.867, 262.143
899.132, 280.844
900.397, 299.529
901.662, 188.195
902.926, 486.848
904.190, 425.488
905.455, 584.127
906.718, 362.754
907.982, 551.363
909.246, 389.959
910.509, 478.539
911.772, 687.109
913.035, 565.662
914.298, 664.199
915.560, 582.723
916.823, 761.229
918.085, 869.514
919.347, 1152.711
920.608, 1726.416
921.870, 2024.855
923.131, 2553.273
924.392, 3341.676
925.653, 4310.059
926.914, 5808.166
928.175, 6796.256
929.435, 7684.043
930.695, 7391.477
931.955, 6499.748
933.215, 4819.998
934.474, 3935.133
935.734, 3053.338
936.993, 2350.988
938.252, 2109.150
939.511, 1986.514
940.769, 2054.576
942.027, 2252.412
943.286, 2680.111
944.544, 3267.832
945.801, 3655.037
947.059, 3812.350
948.316, 2869.730
949.573, 2415.516
950.830, 2042.902
952.087, 1459.896
953.344, 1290.441
954.600, 1053.713
955.856, 930.990
957.112, 788.252
958.368, 675.199
959.623, 579.650
960.879, 367.242
962.134, 505.803
963.389, 283.012
964.644, 316.742
965.898, 484.205
967.153, 350.934
968.407, 365.650
969.661, 342.225
970.915, 289.773
972.168, 275.574
973.422, 270.766
974.675, 147.014
975.928, 215.441
977.181, 182.465
978.433, 100.162
979.686, 298.201
980.938, 266.963
982.190, 205.318
983.442, 332.848
984.693, 238.324
985.945, 296.086
987.196, 320.193
988.447, 268.387
989.698, 373.914
990.949, 333.701
992.199, 477.070
993.449, 424.461
994.699, 367.688
995.949, 381.057
997.199, 398.254
998.448, 489.393
999.697, 627.117
1000.947, 564.396
1002.195, 706.559
1003.444, 623.631
1004.693, 831.594
1005.941, 877.930
1007.189, 995.303
1008.437, 943.400
1009.684, 1248.865
1010.932, 1385.768
1012.179, 1772.750
1013.426, 1889.689
1014.673, 2337.893
1015.920, 2805.568
1017.166, 3722.754
1018.413, 4241.184
1019.659, 4778.838
1020.905, 5265.934
1022.151, 6063.035
1023.396, 7680.363
1024.641, 10137.436
1025.887, 12924.119
1027.132, 15941.717
1028.376, 16199.162
1029.621, 14635.625
1030.865, 11458.053
1032.109, 8573.846
1033.353, 5911.314
1034.597, 4409.242
1035.841, 3325.340
1037.084, 2912.684
1038.327, 2531.182
1039.570, 2067.822
1040.813, 1725.611
1042.056, 1913.328
1043.298, 1730.783
1044.540, 1628.686
1045.782, 1736.879
1047.024, 1643.955
1048.266, 2002.125
1049.507, 2409.600
1050.748, 2856.826
1051.990, 3214.021
1053.230, 4361.740
1054.471, 6049.102
1055.711, 8186.463
1056.952, 11303.461
1058.192, 13960.934
1059.432, 15178.139
1060.671, 13935.605
1061.911, 10872.586
1063.150, 8169.879
1064.389, 6497.727
1065.628, 5614.543
1066.867, 5372.172
1068.105, 5458.900
1069.344, 5185.393
1070.582, 4642.479
1071.820, 3789.035
1073.058, 3165.561
1074.295, 2482.064
1075.532, 1908.416
1076.770, 1665.082
1078.007, 1451.682
1079.243, 1317.289
1080.480, 1564.090
1081.716, 1719.527
1082.953, 2415.512
1084.189, 3921.861
1085.424, 5058.393
1086.660, 4604.574
1087.895, 3440.355
1089.131, 2436.529
1090.366, 1362.770
1091.601, 1349.611
1092.835, 994.879
1094.070, 780.707
1095.304, 696.303
1096.538, 452.965
1097.772, 538.598
1099.005, 524.133
1100.239, 450.188
1101.472, 256.055
1102.705, 421.521
1103.938, 436.967
1105.171, 243.156
1106.404, 528.189
1107.636, 433.967
1108.868, 208.689
1110.100, 24.344
1111.332, 379.807
1112.563, 144.117
1113.795, 259.881
1115.026, 424.240
1116.257, 140.588
1117.488, 373.709
1118.718, 178.232
1119.949, 222.689
1121.179, 537.547
1122.409, 251.592
1123.639, 25.895
1124.868, 190.875
1126.098, 94.227
1127.327, 118.420
1128.556, 82.512
1129.785, 47.764
1131.014, 172.459
1132.242, 13.828
1133.470, 120.533
1134.699, 135.078
1135.927, 9.744
1137.154, 174.379
1138.382, 137.971
1139.609, 22.428
1140.836, 161.834
1142.063, 206.781
1143.290, 120.252
1144.517, 219.807
1145.743, 76.453
1146.969, 68.328
1148.195, 182.080
1149.421, 16.457
1150.647, 305.672
1151.872, 139.738
1153.097, 103.428
1154.322, 190.488
1155.547, 24.273
1156.772, 38.361
1157.996, 181.047
1159.221, 155.482
1160.445, 317.857
1161.669, 19.951
1162.892, 223.297
1164.116, 187.221
1165.339, 18.795
1166.562, 104.451
1167.785, 166.541
1169.008, 245.979
1170.231, 180.285
1171.453, 251.436
1172.675, 305.555
1173.897, 104.049
1175.119, 176.143
1176.341, 192.727
1177.562, 65.748
1178.783, 205.051
1180.004, 246.973
1181.225, 229.383
1182.446, 110.439
1183.666, 243.412
1184.887, 35.752
1186.107, 275.738
1187.327, 124.137
1188.546, 194.666
1189.766, 290.229
1190.985, 240.691
1192.204, 132.312
1193.423, 362.250
1194.642, 162.742
1195.861, 322.613
1197.079, 389.740
1198.297, 349.568
1199.515, 279.584
1200.733, 357.795
1201.951, 363.875
1203.168, 441.795
1204.385, 319.811
1205.602, 379.566
1206.819, 307.469
1208.036, 414.348
1209.253, 332.387
1210.469, 188.850
1211.685, 425.779
1212.901, 223.500
1214.117, 431.961
1215.332, 477.506
1216.548, 342.857
1217.763, 458.488
1218.978, 454.123
1220.193, 450.992
1221.407, 477.557
1222.622, 395.100
1223.836, 400.418
1225.050, 625.318
1226.264, 329.852
1227.477, 644.035
1228.691, 508.533
1229.904, 412.826
1231.117, 356.996
1232.330, 434.707
1233.543, 518.754
1234.755, 412.699
1235.968, 389.496
1237.180, 233.113
1238.392, 595.961
1239.604, 449.842
1240.815, 492.115
1242.027, 225.887
1243.238, 459.387
1244.449, 472.281
1245.660, 334.914
1246.871, 368.738
1248.081, 449.943
1249.291, 441.803
1250.501, 258.061
1251.711, 518.773
1252.921, 334.656
1254.131, 575.615
1255.340, 336.289
1256.549, 376.965
1257.758, 637.807
1258.967, 276.893
1260.175, 598.227
1261.384, 388.367
1262.592, 561.184
1263.800, 491.482
1265.008, 490.768
1266.216, 380.990
1267.423, 560.287
1268.630, 409.459
1269.838, 299.279
1271.044, 639.105
1272.251, 336.715
1273.458, 465.031
1274.664, 202.270
1275.870, 279.525
1277.076, 508.916
1278.282, 334.781
1279.488, 272.609
1280.693, 168.422
1281.898, 334.059
1283.103, 440.809
1284.308, 13.969
1285.513, 241.586
1286.717, 147.082
1287.922, 512.012
1289.126, 29.234
1290.330, 265.398
1291.534, 115.398
1292.737, 219.045
1293.940, 133.350
1295.144, 24.344
1296.347, 151.416
1297.549, 183.723
1298.752, 6.334
1299.955, 148.447
1301.157, 111.316
1302.359, 272.324
1303.561, 74.285
1304.762, 295.826
1305.964, 338.379
1307.165, 128.527
1308.366, 79.338
1309.567, 69.801
1310.768, 108.740
1311.969, 218.395
1313.169, 51.879
1314.369, 37.930
1315.569, 82.770
1316.769, 36.559
1317.969, 44.113
1319.168, 134.078
1320.368, 17.674
1321.567, 170.402
1322.766, 233.787
1323.965, 101.486
1325.163, 120.854
1326.361, 156.557
1327.560, 33.115
1328.758, 49.973
1329.955, 235.586
1331.153, 67.887
1332.351, 137.693
1333.548, 186.664
1334.745, 119.037
1335.942, 44.307
1337.139, 138.871
1338.335, 84.180
1339.531, 118.439
1340.728, 66.859
1341.923, 97.826
1343.119, 117.869
1344.315, 245.828
1345.510, 60.350
1346.706, 243.217
1347.901, 206.910
1349.095, 49.891
1350.290, 182.908
1351.485, 345.422
1352.679, 128.182
1353.873, 370.398
1355.067, 221.814
1356.261, 114.025
1357.454, 55.184
1358.648, 437.002
1359.841, 81.178
1361.034, 339.818
1362.227, 301.107
1363.420, 102.195
1364.612, 113.080
1365.804, 46.066
1366.996, 226.338
1368.188, 286.457
1369.380, 337.344
1370.572, 379.777
1371.763, 267.463
1372.954, 277.371
1374.145, 266.721
1375.336, 5.691
1376.527, 214.680
1377.717, 203.869
1378.907, 12.463
1380.098, 200.787
1381.287, 338.316
1382.477, 127.256
1383.667, 395.498
1384.856, 103.898
1386.045, 111.277
1387.234, 169.273
1388.423, 186.016
1389.612, 63.275
1390.800, 369.699
1391.988, 266.355
1393.176, 8.127
1394.364, 377.994
1395.552, 5.844
1396.740, 360.463
1397.927, 255.672
1399.114, 121.047
1400.301, 295.979
1401.488, 469.996
1402.675, 112.102
1403.861, 365.730
1405.047, 236.824
1406.233, 259.562
1407.419, 264.395
1408.605, 125.502
1409.791, 368.773
1410.976, 237.494
1412.161, 49.250
1413.346, 77.314
1414.531, 310.703
1415.715, 158.318
1416.900, 305.055
1418.084, 222.688
1419.268, 46.223
1420.452, 362.174
1421.636, 95.973
1422.819, 426.510
1424.003, 232.148
1425.186, 140.020
1426.369, 404.217
1427.552, 72.207
1428.734, 220.453
1429.917, 333.051
1431.099, 183.006
1432.281, 262.076
1433.463, 392.402
1434.645, 221.525
1435.826, 94.752
1437.008, 334.975
1438.189, 13.086
1439.370, 344.871
1440.551, 185.941
1441.731, 338.246
1442.912, 4.633
1444.092, 471.594
1445.272, 183.387
1446.452, 200.098
1447.632, 66.344
1448.811, 417.242
1449.991, 348.125
1451.170, 368.020
1452.349, 290.234
1453.528, 302.684
1454.706, 315.926
1455.885, 479.754
1457.063, 303.957
1458.241, 469.965
1459.419, 344.551
1460.597, 381.535
1461.775, 608.754
1462.952, 404.348
1464.129, 596.590
1465.306, 379.461
1466.483, 702.781
1467.660, 144.742
1468.836, 605.160
1470.012, 321.273
1471.189, 458.820
1472.365, 687.781
1473.540, 261.516
1474.716, 318.621
1475.891, 729.500
1477.067, 238.801
1478.242, 424.691
1479.416, 684.750
1480.591, 356.859
1481.766, 405.379
1482.940, 501.250
1484.114, 322.875
1485.288, 560.617
1486.462, 172.008
1487.635, 449.879
1488.809, 412.211
1489.982, 264.168
1491.155, 405.992
1492.328, 387.445
1493.501, 388.629
1494.673, 419.992
1495.846, 141.266
1497.018, 152.414
1498.190, 372.859
1499.362, 444.215
1500.533, 85.938
1501.705, 358.082
1502.876, 170.551
1504.047, 313.309
1505.218, 406.508
1506.389, 69.828
1507.560, 234.320
1508.730, 448.848
1509.900, 113.738
1511.070, 99.133
1512.240, 45.156
1513.410, 192.043
1514.579, 199.855
1515.749, 98.719
1516.918, 278.215
1518.087, 195.668
1519.255, 113.699
1520.424, 252.117
1521.592, 330.309
1522.761, 36.438
1523.929, 357.801
1525.097, 431.027
1526.264, 0.000
##END=



