##NAMES=Tremolite
##RRUFFID=R040045
##IDEAL CHEMISTRY=[box]Ca_2_Mg_5_Si_8_O_22_(OH)_2_
##LOCALITY=Gouverneur, New York, USA
##OWNER=RRUFF
##SOURCE=University of Arizona Mineral Museum
##DESCRIPTION=Group of colorless acicular single crystals
##STATUS=The identification of this mineral has been confirmed by X-ray diffraction and chemical analysis
##URL=rruff.info/R040045
##MEASURED CHEMISTRY=Ca_2.01_(Mg_0.99_Fe_0.01_)_5_(Si_0.99_Fe_0.01_)_8_O_22_(OH)_2_
##PIN_ID=M00236
##ORIENTATION=Laser parallel to a [1 0 0]. Fiducial mark perpendicular to laser is parallel to -b* (0 -1 0)
131.615, 0.000
133.003, 2.249
134.390, 50.212
135.777, 130.436
137.164, 178.764
138.550, 266.146
139.937, 410.310
141.323, 490.431
142.709, 538.933
144.094, 442.382
145.480, 432.449
146.865, 238.891
148.250, 84.503
149.635, 71.189
151.019, 93.823
152.403, 56.253
153.788, 262.383
155.171, 478.129
156.555, 994.430
157.939, 1400.240
159.322, 1747.506
160.705, 1685.180
162.088, 1179.301
163.470, 739.672
164.853, 336.348
166.235, 165.302
167.617, 115.190
168.998, 91.751
170.380, 299.675
171.761, 523.931
173.142, 838.345
174.523, 1387.912
175.904, 1958.624
177.284, 2204.478
178.664, 2170.463
180.044, 1784.577
181.424, 1121.979
182.803, 508.504
184.183, 299.122
185.562, 128.821
186.940, 32.600
188.319, 36.453
189.698, 71.376
191.076, 1.632
192.454, 178.425
193.831, 93.544
195.209, 76.723
196.586, 46.960
197.963, 19.084
199.340, 17.600
200.717, 30.004
202.093, 29.536
203.470, 43.979
204.846, 52.205
206.221, 170.527
207.597, 400.997
208.972, 624.125
210.347, 940.728
211.722, 1258.328
213.097, 1626.008
214.472, 2019.889
215.846, 2549.777
217.220, 3180.707
218.594, 4135.671
219.967, 5520.778
221.341, 6555.931
222.714, 7151.090
224.087, 6836.272
225.460, 6531.477
226.832, 6506.699
228.204, 7382.083
229.577, 8772.339
230.948, 9919.117
232.320, 9964.309
233.692, 8789.800
235.063, 6645.024
236.434, 4690.271
237.805, 3225.538
239.175, 2102.825
240.545, 1523.130
241.916, 1287.454
243.286, 1287.796
244.655, 1749.157
246.025, 2258.535
247.394, 2912.931
248.763, 3558.343
250.132, 3733.766
251.501, 3379.206
252.869, 2684.661
254.237, 2038.132
255.605, 1436.614
256.973, 1106.112
258.340, 932.623
259.708, 850.148
261.075, 780.692
262.442, 821.257
263.808, 713.239
265.175, 716.493
266.541, 554.220
267.907, 383.977
269.273, 245.744
270.639, 179.520
272.004, 66.307
273.369, 130.195
274.734, 53.093
276.099, 6.022
277.463, 59.020
278.828, 35.055
280.192, 46.916
281.556, 21.110
282.919, 15.868
284.283, 30.142
285.646, 53.135
287.009, 39.123
288.372, 2.880
289.734, 30.883
291.097, 28.877
292.459, 56.166
293.821, 0.148
295.183, 40.939
296.544, 218.099
297.905, 278.998
299.266, 466.797
300.627, 582.898
301.988, 587.645
303.348, 736.560
304.709, 650.975
306.069, 538.267
307.428, 509.856
308.788, 565.446
310.147, 452.725
311.507, 399.064
312.865, 328.771
314.224, 209.219
315.583, 192.970
316.941, 51.507
318.299, 56.083
319.657, 79.958
321.015, 177.605
322.372, 42.283
323.729, 1.010
325.086, 71.725
326.443, 74.516
327.800, 17.746
329.156, 9.956
330.512, 84.853
331.868, 104.674
333.224, 3.487
334.579, 193.367
335.935, 97.236
337.290, 193.121
338.645, 275.138
339.999, 349.048
341.354, 447.971
342.708, 599.058
344.062, 669.002
345.416, 703.955
346.769, 800.918
348.123, 1038.889
349.476, 1182.867
350.829, 1432.854
352.182, 1478.847
353.534, 1444.848
354.887, 1302.839
356.239, 999.852
357.591, 892.870
358.942, 723.894
360.294, 791.923
361.645, 942.956
362.996, 1278.996
364.347, 1923.038
365.698, 2788.714
367.048, 3994.764
368.398, 4720.801
369.748, 4906.836
371.098, 4162.867
372.448, 3238.883
373.797, 2594.893
375.146, 2040.904
376.495, 1786.919
377.844, 1452.936
379.192, 1158.954
380.540, 1015.974
381.889, 919.995
383.236, 1056.062
384.584, 1133.273
385.932, 1279.354
387.279, 1915.711
388.626, 2621.802
389.973, 3827.877
391.319, 5185.326
392.666, 6593.080
394.012, 6809.285
395.358, 5916.473
396.704, 4572.771
398.049, 3076.844
399.394, 2102.983
400.740, 1550.815
402.084, 1237.174
403.429, 1093.181
404.774, 1069.421
406.118, 1115.561
407.462, 1261.560
408.806, 1547.916
410.150, 2204.046
411.493, 2899.579
412.836, 3655.759
414.179, 4482.219
415.522, 4708.643
416.865, 4384.595
418.207, 3505.562
419.549, 2631.507
420.891, 1847.958
422.233, 1364.053
423.575, 930.212
424.916, 736.436
426.257, 659.516
427.598, 486.434
428.939, 586.768
430.279, 670.674
431.619, 957.011
432.959, 1123.670
434.299, 1379.967
435.639, 1302.159
436.978, 1523.680
438.318, 1050.413
439.657, 695.074
440.996, 504.684
442.334, 334.605
443.673, 167.343
445.011, 108.599
446.349, 49.782
447.687, 163.071
449.024, 9.001
450.361, 32.088
451.699, 128.195
453.036, 105.990
454.372, 21.314
455.709, 111.376
457.045, 37.707
458.381, 121.403
459.717, 9.750
461.053, 27.554
462.388, 24.441
463.724, 22.044
465.059, 57.122
466.394, 85.173
467.728, 10.373
469.063, 23.061
470.397, 54.404
471.731, 66.865
473.065, 15.323
474.398, 66.771
475.732, 3.783
477.065, 116.659
478.398, 110.096
479.731, 18.525
481.063, 183.944
482.396, 149.357
483.728, 204.765
485.060, 340.074
486.391, 285.466
487.723, 227.864
489.054, 212.645
490.385, 267.676
491.716, 173.050
493.047, 198.417
494.377, 163.601
495.708, 108.951
497.038, 214.296
498.368, 39.632
499.697, 114.970
501.027, 130.301
502.356, 35.622
503.685, 160.959
505.014, 176.284
506.342, 231.601
507.671, 216.904
508.999, 232.198
510.327, 267.487
511.655, 352.764
512.982, 628.031
514.310, 633.290
515.637, 718.536
516.964, 873.805
518.291, 889.062
519.617, 1044.312
520.944, 1089.565
522.270, 844.809
523.596, 1090.076
524.921, 1255.331
526.247, 1590.577
527.572, 1675.814
528.897, 1831.041
530.222, 1656.255
531.547, 1241.456
532.871, 1036.646
534.196, 641.823
535.520, 616.988
536.844, 332.145
538.167, 327.288
539.491, 272.420
540.814, 157.541
542.137, 102.651
543.460, 70.432
544.783, 102.838
546.105, 37.914
547.427, 102.976
548.749, 108.023
550.071, 3.055
551.393, 1.940
552.714, 73.035
554.035, 8.016
555.356, 52.970
556.677, 102.092
557.998, 92.770
559.318, 2.389
560.638, 42.433
561.958, 127.234
563.278, 72.040
564.597, 96.828
565.917, 131.602
567.236, 46.358
568.555, 101.098
569.874, 124.180
571.192, 90.446
572.511, 35.059
573.829, 39.681
575.147, 214.253
576.464, 51.189
577.782, 153.320
579.099, 37.816
580.416, 112.291
581.733, 96.749
583.050, 81.188
584.366, 115.608
585.683, 160.009
586.999, 54.392
588.315, 168.755
589.630, 53.099
590.946, 27.423
592.261, 61.722
593.576, 15.998
594.891, 25.023
596.206, 24.483
597.520, 58.686
598.834, 42.871
600.148, 147.037
601.462, 91.184
602.776, 65.309
604.089, 159.512
605.402, 23.597
606.715, 147.662
608.028, 101.407
609.341, 95.434
610.653, 169.694
611.965, 16.152
613.277, 126.027
614.589, 222.212
615.901, 52.979
617.212, 117.227
618.523, 39.635
619.834, 71.324
621.145, 205.418
622.456, 109.533
623.766, 69.701
625.076, 147.189
626.386, 141.154
627.696, 202.587
629.006, 306.588
630.315, 281.106
631.624, 295.089
632.933, 239.468
634.242, 275.798
635.551, 259.944
636.859, 453.818
638.167, 427.409
639.475, 531.449
640.783, 435.873
642.090, 509.368
643.398, 643.580
644.705, 740.216
646.012, 784.246
647.318, 869.009
648.625, 942.383
649.931, 1046.396
651.237, 1100.431
652.543, 1194.318
653.849, 1388.847
655.155, 1542.524
656.460, 1748.846
657.765, 1763.448
659.070, 2026.646
660.375, 2296.622
661.679, 2750.067
662.984, 3513.617
664.288, 4346.895
665.592, 5750.441
666.895, 7695.090
668.199, 10318.178
669.502, 13771.879
670.805, 17996.145
672.108, 21179.139
673.411, 23440.234
674.713, 21543.855
676.016, 18048.041
677.318, 13844.720
678.620, 10418.171
679.921, 7670.357
681.223, 6023.201
682.524, 4616.756
683.825, 3610.851
685.126, 3084.367
686.427, 2627.184
687.727, 2520.604
689.028, 2313.583
690.328, 2116.708
691.628, 1960.062
692.927, 1633.721
694.227, 1307.030
695.526, 1250.406
696.825, 1083.852
698.124, 997.188
699.423, 830.935
700.721, 633.973
702.020, 747.689
703.318, 640.805
704.616, 673.391
705.913, 495.762
707.211, 407.194
708.508, 608.447
709.805, 435.547
711.102, 596.809
712.399, 369.763
713.695, 305.421
714.992, 427.438
716.288, 260.228
717.584, 314.002
718.879, 238.438
720.175, 281.361
721.470, 413.865
722.765, 335.986
724.060, 338.332
725.355, 250.481
726.649, 313.248
727.944, 346.201
729.238, 227.949
730.532, 329.879
731.825, 292.314
733.119, 442.115
734.412, 484.678
735.705, 504.696
736.998, 648.828
738.291, 590.250
739.584, 582.043
740.876, 693.495
742.168, 675.295
743.460, 557.071
744.752, 848.573
746.043, 650.171
747.334, 1050.848
748.626, 1011.854
749.916, 1024.164
751.207, 1244.673
752.498, 935.132
753.788, 735.990
755.078, 456.695
756.368, 349.267
757.658, 488.748
758.947, 219.704
760.237, 270.815
761.526, 320.998
762.815, 311.991
764.104, 272.758
765.392, 183.467
766.680, 204.449
767.969, 172.490
769.257, 303.235
770.544, 244.179
771.832, 154.639
773.119, 305.330
774.406, 145.632
775.693, 166.093
776.980, 146.907
778.267, 57.452
779.553, 247.826
780.839, 78.538
782.125, 219.190
783.411, 169.895
784.697, 60.564
785.982, 91.197
787.267, 73.044
788.552, 37.646
789.837, 112.854
791.122, 173.319
792.406, 173.750
793.690, 124.148
794.974, 54.512
796.258, 244.836
797.542, 75.128
798.825, 24.616
800.108, 105.579
801.391, 15.738
802.674, 265.854
803.957, 95.939
805.239, 85.986
806.522, 115.997
807.804, 25.984
809.085, 156.260
810.367, 23.828
811.649, 16.023
812.930, 256.672
814.211, 83.521
815.492, 186.300
816.772, 155.958
818.053, 216.039
819.333, 145.895
820.613, 5.523
821.893, 246.102
823.173, 98.940
824.452, 28.893
825.732, 258.739
827.011, 101.044
828.290, 98.229
829.568, 29.562
830.847, 31.244
832.125, 133.331
833.403, 117.475
834.681, 281.841
835.959, 91.270
837.236, 30.181
838.514, 89.991
839.791, 249.320
841.068, 98.175
842.345, 197.179
843.621, 156.335
844.898, 95.020
846.174, 54.057
847.450, 93.116
848.726, 83.920
850.001, 73.704
851.277, 83.808
852.552, 32.747
853.827, 91.265
855.102, 29.682
856.376, 61.168
857.651, 209.460
858.925, 257.710
860.199, 145.913
861.473, 104.085
862.746, 47.769
864.020, 220.325
865.293, 58.388
866.566, 16.416
867.839, 284.424
869.112, 7.603
870.384, 170.338
871.656, 31.750
872.928, 46.111
874.200, 113.939
875.472, 231.726
876.744, 89.483
878.015, 177.211
879.286, 164.909
880.557, 32.617
881.828, 170.291
883.098, 127.906
884.369, 111.254
885.639, 16.892
886.909, 80.674
888.178, 108.206
889.448, 85.710
890.717, 313.182
891.987, 150.625
893.256, 258.040
894.524, 205.426
895.793, 102.782
897.061, 300.109
898.330, 127.408
899.598, 284.678
900.865, 291.922
902.133, 0.859
903.401, 406.326
904.668, 263.484
905.935, 300.618
907.202, 387.721
908.468, 264.797
909.735, 371.840
911.001, 208.849
912.267, 285.701
913.533, 452.616
914.799, 479.490
916.064, 557.964
917.330, 610.718
918.595, 639.553
919.860, 746.085
921.124, 772.474
922.389, 1009.130
923.653, 1345.751
924.918, 1441.929
926.182, 2128.445
927.445, 2574.516
928.709, 3230.613
929.972, 3716.599
931.236, 3742.097
932.499, 3368.445
933.761, 2904.059
935.024, 2060.229
936.286, 1876.164
937.549, 1291.535
938.811, 1197.080
940.073, 1072.494
941.334, 924.646
942.596, 1170.193
943.857, 1235.963
945.118, 1311.707
946.379, 1517.209
947.640, 1232.281
948.900, 1558.230
950.161, 933.412
951.421, 976.121
952.681, 801.395
953.940, 595.889
955.200, 561.723
956.459, 506.867
957.719, 291.941
958.978, 470.078
960.236, 154.562
961.495, 249.943
962.753, 242.422
964.012, 56.689
965.270, 223.559
966.527, 192.209
967.785, 277.500
969.043, 112.715
970.300, 158.084
971.557, 203.141
972.814, 27.053
974.071, 27.518
975.327, 98.486
976.583, 112.656
977.840, 48.059
979.095, 225.213
980.351, 10.195
981.607, 253.781
982.862, 64.629
984.117, 179.930
985.372, 115.701
986.627, 80.811
987.882, 245.555
989.136, 19.211
990.390, 73.328
991.644, 178.061
992.898, 132.107
994.152, 86.438
995.405, 190.521
996.659, 94.270
997.912, 77.633
999.165, 17.459
1000.417, 12.129
1001.670, 291.377
1002.922, 4.818
1004.174, 161.025
1005.426, 175.877
1006.678, 33.605
1007.930, 379.615
1009.181, 232.844
1010.432, 493.891
1011.683, 347.721
1012.934, 362.434
1014.185, 517.219
1015.435, 650.939
1016.685, 705.121
1017.935, 1066.158
1019.185, 1029.922
1020.435, 1384.742
1021.684, 1709.764
1022.934, 1854.246
1024.183, 2798.799
1025.432, 3581.484
1026.680, 4656.600
1027.929, 6131.668
1029.177, 6636.695
1030.425, 6791.414
1031.673, 5526.352
1032.921, 4271.246
1034.169, 2926.102
1035.416, 2120.922
1036.663, 1645.699
1037.911, 1460.441
1039.157, 955.150
1040.404, 1209.834
1041.650, 734.484
1042.897, 929.104
1044.143, 893.699
1045.389, 618.314
1046.634, 972.902
1047.880, 907.467
1049.125, 702.002
1050.371, 1276.555
1051.615, 1131.092
1052.860, 1145.605
1054.105, 1709.535
1055.349, 2003.986
1056.593, 3227.012
1057.837, 3741.285
1059.081, 5074.521
1060.325, 5736.988
1061.568, 5254.621
1062.812, 4526.600
1064.055, 3547.143
1065.298, 2911.484
1066.540, 2584.877
1067.783, 2458.211
1069.025, 2369.684
1070.267, 2293.264
1071.509, 1756.561
1072.751, 1589.004
1073.993, 1114.652
1075.234, 955.600
1076.475, 799.184
1077.716, 596.295
1078.957, 610.121
1080.198, 393.961
1081.438, 347.773
1082.679, 531.604
1083.919, 325.449
1085.159, 379.254
1086.398, 473.041
1087.638, 386.797
1088.877, 400.498
1090.116, 314.143
1091.355, 227.725
1092.594, 561.246
1093.833, 324.709
1095.071, 188.104
1096.309, 331.436
1097.547, 144.697
1098.785, 257.883
1100.023, 160.990
1101.260, 154.029
1102.498, 227.021
1103.735, 259.990
1104.972, 293.137
1106.208, 306.518
1107.445, 39.965
1108.681, 343.615
1109.918, 57.211
1111.154, 111.162
1112.389, 365.305
1113.625, 10.408
1114.860, 133.902
1116.096, 208.238
1117.331, 62.604
1118.566, 297.012
1119.800, 161.479
1121.035, 186.025
1122.269, 410.674
1123.503, 4.541
1124.737, 340.418
1125.971, 85.584
1127.205, 118.074
1128.438, 321.283
1129.671, 85.191
1130.904, 17.133
1132.137, 98.990
1133.370, 91.102
1134.602, 42.607
1135.834, 4.100
1137.066, 24.416
1138.298, 252.891
1139.530, 77.219
1140.762, 212.002
1141.993, 70.186
1143.224, 40.262
1144.455, 58.973
1145.686, 0.000
##END=



