##NAMES=Tremolite
##RRUFFID=R050167
##IDEAL CHEMISTRY=[box]Ca_2_Mg_5_Si_8_O_22_(OH)_2_
##LOCALITY=Hunza Valley, Afghanistan
##OWNER=RRUFF
##SOURCE=Marcus Origlieri
##DESCRIPTION=Green tabular crystals
##STATUS=The identification of this mineral has been confirmed by X-ray diffraction and chemical analysis
##URL=rruff.info/R050167
##MEASURED CHEMISTRY=  ([box]_0.90_Na_0.10_)(Ca_0.98_Mg_0.01_Fe^2+^_0.01_)_2_(Mg_0.94_Al_0.06_)_5_(Si_0.95_Al_0.05_)_8_O_22_((OH)_0.98_F_0.02_)_2_
##PIN_ID=M00415
##ORIENTATION=Laser parallel to -c* (0 0 -1). Fiducial mark perpendicular to laser is parallel to -a [-1 0 0]
91.844, 0.000
93.242, 64.713
94.639, 25.354
96.037, 74.330
97.434, 84.172
98.831, 44.509
100.227, 12.250
101.624, 33.080
103.020, 7.220
104.416, 12.264
105.812, 56.368
107.207, 51.832
108.603, 174.953
109.998, 183.063
111.393, 277.396
112.787, 265.526
114.182, 402.732
115.576, 616.846
116.970, 821.424
118.363, 958.306
119.757, 986.747
121.150, 956.131
122.543, 954.754
123.936, 765.481
125.328, 679.303
126.720, 504.209
128.112, 349.191
129.504, 182.242
130.896, 193.353
132.287, 84.519
133.678, 17.731
135.069, 67.988
136.460, 17.662
137.850, 69.229
139.240, 4.384
140.630, 23.956
142.020, 2.580
143.410, 78.751
144.799, 46.043
146.188, 41.700
147.577, 69.525
148.965, 54.722
150.354, 158.902
151.742, 269.073
153.130, 518.242
154.517, 1175.419
155.905, 2083.606
157.292, 3855.804
158.679, 5851.010
160.066, 8247.219
161.452, 8777.431
162.839, 7157.643
164.225, 5622.851
165.611, 4487.055
166.996, 4175.252
168.381, 3996.441
169.767, 4638.621
171.152, 5616.788
172.536, 7618.945
173.921, 10739.091
175.305, 14049.229
176.689, 18139.391
178.073, 19509.568
179.456, 18400.064
180.839, 15522.638
182.222, 11252.904
183.605, 8362.464
184.988, 5768.209
186.370, 4398.932
187.752, 3316.748
189.134, 2504.483
190.516, 2286.235
191.898, 1905.003
193.279, 1755.801
194.660, 1603.618
196.041, 1605.450
197.421, 1474.304
198.801, 1496.155
200.182, 1495.979
201.561, 1554.813
202.941, 1809.633
204.321, 1914.507
205.700, 2184.478
207.079, 2614.516
208.457, 2983.619
209.836, 3536.816
211.214, 4194.052
212.592, 5402.390
213.970, 6605.823
215.348, 8786.325
216.725, 11426.870
218.102, 15087.473
219.479, 19638.066
220.856, 23108.650
222.232, 25959.205
223.608, 25059.729
224.984, 22140.229
226.360, 18130.691
227.736, 13931.125
229.111, 10861.523
230.486, 8141.892
231.861, 6492.228
233.236, 4959.534
234.610, 3857.809
235.984, 3073.053
237.358, 2380.266
238.732, 1997.448
240.105, 1549.600
241.479, 1440.722
242.852, 1229.813
244.224, 1134.878
245.597, 1196.918
246.969, 1261.932
248.342, 1460.919
249.713, 1460.882
251.085, 1548.821
252.457, 1340.737
253.828, 1098.629
255.199, 943.495
256.570, 729.336
257.940, 577.441
259.310, 495.438
260.681, 447.306
262.050, 362.050
263.420, 174.784
264.790, 199.933
266.159, 106.697
267.528, 96.677
268.896, 9.280
270.265, 55.495
271.633, 17.648
273.001, 69.153
274.369, 30.516
275.737, 37.022
277.104, 36.454
278.471, 19.030
279.838, 18.367
281.205, 37.278
282.572, 114.688
283.938, 193.588
285.304, 269.027
286.670, 494.540
288.035, 576.994
289.401, 659.453
290.766, 689.207
292.131, 577.281
293.495, 581.065
294.860, 662.693
296.224, 690.264
297.588, 947.922
298.952, 1228.032
300.315, 1580.041
301.679, 1945.680
303.042, 2108.350
304.405, 1946.008
305.767, 1713.349
307.130, 1527.016
308.492, 1219.321
309.854, 1077.382
311.216, 887.143
312.578, 769.842
313.939, 660.185
315.300, 640.877
316.661, 667.465
318.021, 545.563
319.382, 651.170
320.742, 582.821
322.102, 669.653
323.462, 690.401
324.821, 769.872
326.181, 1020.123
327.540, 1209.347
328.899, 1550.864
330.257, 1812.920
331.616, 1986.831
332.974, 1972.903
334.332, 1640.396
335.690, 1480.935
337.047, 1255.724
338.405, 1078.405
339.762, 1017.305
341.119, 1013.828
342.475, 1049.429
343.832, 1163.096
345.188, 1283.076
346.544, 1452.954
347.900, 1551.725
349.255, 1770.150
350.610, 1850.838
351.965, 2063.895
353.320, 1929.104
354.675, 1772.127
356.029, 1666.133
357.384, 1489.121
358.738, 1431.090
360.091, 1337.042
361.445, 1453.975
362.798, 1692.890
364.151, 1882.786
365.504, 2374.663
366.857, 2668.522
368.209, 3336.362
369.561, 3613.181
370.913, 3553.980
372.265, 3498.760
373.617, 2963.518
374.968, 2636.254
376.319, 2195.969
377.670, 1880.660
379.021, 1685.330
380.371, 1419.975
381.721, 1468.597
383.071, 1314.195
384.421, 1390.770
385.770, 1516.447
387.120, 1625.004
388.469, 1809.512
389.818, 2130.991
391.166, 2677.572
392.515, 2832.254
393.863, 3016.992
395.211, 2989.577
396.559, 2422.522
397.906, 1950.880
399.254, 1402.515
400.601, 1148.193
401.948, 875.594
403.294, 662.360
404.641, 559.994
405.987, 441.635
407.333, 463.274
408.679, 486.902
410.025, 464.308
411.370, 504.850
412.715, 426.549
414.060, 604.924
415.405, 516.173
416.749, 571.725
418.093, 469.105
419.437, 396.559
420.781, 415.777
422.125, 279.060
423.468, 270.296
424.811, 215.222
426.154, 100.051
427.497, 141.970
428.839, 117.669
430.182, 133.418
431.524, 114.259
432.866, 135.445
434.207, 201.497
435.549, 153.400
436.890, 196.920
438.231, 161.687
439.572, 184.095
440.912, 168.981
442.252, 51.996
443.593, 132.344
444.932, 40.926
446.272, 102.456
447.611, 83.779
448.951, 97.071
450.290, 95.334
451.628, 46.567
452.967, 18.767
454.305, 41.935
455.644, 60.071
456.981, 66.197
458.319, 50.302
459.657, 75.373
460.994, 7.569
462.331, 76.443
463.668, 39.433
465.004, 55.396
466.341, 67.337
467.677, 72.269
469.013, 95.173
470.348, 7.046
471.684, 20.908
473.019, 30.747
474.354, 14.448
475.689, 17.677
477.024, 47.960
478.358, 24.312
479.692, 41.278
481.026, 81.167
482.360, 22.301
483.694, 19.271
485.027, 46.883
486.360, 43.564
487.693, 4.702
489.026, 39.925
490.358, 72.888
491.691, 70.776
493.023, 41.727
494.354, 32.731
495.686, 17.784
497.017, 53.894
498.349, 19.927
499.680, 40.291
501.010, 34.577
502.341, 21.084
503.671, 16.705
505.001, 84.285
506.331, 92.833
507.661, 104.346
508.990, 171.834
510.319, 100.293
511.648, 279.717
512.977, 205.115
514.306, 340.482
515.634, 385.822
516.962, 431.134
518.290, 438.418
519.618, 468.673
520.945, 467.901
522.273, 378.101
523.600, 453.272
524.927, 377.416
526.253, 385.531
527.580, 511.619
528.906, 516.678
530.232, 547.709
531.558, 610.712
532.883, 509.687
534.208, 508.634
535.534, 453.552
536.858, 365.442
538.183, 384.305
539.508, 321.139
540.832, 267.945
542.156, 293.724
543.480, 308.474
544.803, 206.197
546.127, 228.890
547.450, 234.555
548.773, 245.192
550.096, 204.801
551.418, 174.383
552.741, 154.934
554.063, 185.455
555.385, 92.946
556.706, 227.407
558.028, 154.841
559.349, 138.255
560.670, 198.639
561.991, 104.994
563.312, 130.318
564.632, 122.611
565.952, 116.882
567.272, 113.122
568.592, 160.332
569.911, 121.514
571.231, 77.664
572.550, 148.782
573.869, 172.871
575.187, 93.930
576.506, 128.957
577.824, 104.954
579.142, 153.919
580.460, 130.855
581.778, 134.760
583.095, 201.636
584.412, 217.327
585.729, 187.509
587.046, 193.836
588.363, 163.034
589.679, 164.269
590.995, 103.400
592.311, 216.620
593.627, 189.099
594.942, 110.386
596.258, 209.827
597.573, 57.113
598.888, 196.481
600.202, 175.817
601.517, 116.673
602.831, 130.046
604.145, 170.741
605.459, 248.735
606.772, 237.625
608.086, 241.990
609.399, 274.099
610.712, 253.708
612.024, 345.213
613.337, 369.965
614.649, 365.154
615.961, 440.209
617.273, 505.653
618.585, 484.403
619.896, 640.588
621.208, 643.726
622.519, 781.453
623.829, 645.606
625.140, 756.502
626.450, 776.220
627.761, 816.858
629.071, 963.414
630.380, 1064.321
631.690, 1124.118
632.999, 1163.999
634.308, 1240.239
635.617, 1365.540
636.926, 1486.168
638.235, 1727.307
639.543, 1804.405
640.851, 2066.975
642.159, 2405.162
643.466, 2583.198
644.774, 3002.274
646.081, 3338.487
647.388, 3881.468
648.695, 4431.569
650.002, 4999.716
651.308, 5852.392
652.614, 6383.887
653.920, 6983.542
655.226, 7701.922
656.531, 7973.356
657.837, 9131.505
659.142, 9292.314
660.447, 10663.539
661.752, 12114.654
663.056, 13696.620
664.360, 16998.393
665.664, 20071.965
666.968, 25444.031
668.272, 31505.771
669.575, 37088.156
670.879, 45490.316
672.182, 48272.641
673.484, 49134.922
674.787, 45637.184
676.089, 38089.422
677.392, 32171.643
678.694, 24523.877
679.995, 19566.051
681.297, 15478.218
682.598, 11860.361
683.899, 10162.485
685.200, 8054.589
686.501, 6676.678
687.802, 5988.745
689.102, 4834.797
690.402, 4550.830
691.702, 3877.844
693.002, 3462.840
694.301, 3124.819
695.600, 2731.780
696.899, 2416.723
698.198, 2217.648
699.497, 2011.558
700.795, 1860.449
702.093, 1617.197
703.391, 1556.023
704.689, 1351.859
705.987, 1203.683
707.284, 1185.492
708.581, 1008.032
709.878, 1085.476
711.175, 822.157
712.472, 800.691
713.768, 785.397
715.064, 713.315
716.360, 775.703
717.656, 539.345
718.951, 589.484
720.247, 607.715
721.542, 588.034
722.837, 568.184
724.131, 456.866
725.426, 417.171
726.720, 561.301
728.014, 336.352
729.308, 411.572
730.601, 354.881
731.895, 454.848
733.188, 464.949
734.481, 267.938
735.774, 401.122
737.067, 337.198
738.359, 435.279
739.651, 430.628
740.943, 397.035
742.235, 365.309
743.526, 311.601
744.818, 356.756
746.109, 402.909
747.400, 236.800
748.691, 270.157
749.981, 303.391
751.271, 133.287
752.562, 183.591
753.851, 117.249
755.141, 102.483
756.431, 76.621
757.720, 42.506
759.009, 77.439
760.298, 87.537
761.587, 86.802
762.875, 8.060
764.163, 31.303
765.451, 72.537
766.739, 9.237
768.027, 14.971
769.314, 79.830
770.601, 29.686
771.888, 83.428
773.175, 57.464
774.462, 29.601
775.748, 2.664
777.034, 14.286
778.320, 20.255
779.606, 48.247
780.892, 9.725
782.177, 42.688
783.462, 105.357
784.747, 57.535
786.032, 4.576
787.317, 53.700
788.601, 8.148
789.885, 7.998
791.169, 35.859
792.453, 20.726
793.736, 9.588
795.019, 116.470
796.303, 53.650
797.585, 37.206
798.868, 61.925
800.151, 33.922
801.433, 8.769
802.715, 28.389
803.997, 77.542
805.279, 57.718
806.560, 45.913
807.841, 29.879
809.122, 15.322
810.403, 28.482
811.684, 34.285
812.964, 39.898
814.245, 119.909
815.525, 90.715
816.804, 15.523
818.084, 67.328
819.363, 28.870
820.643, 161.913
821.922, 66.693
823.201, 50.471
824.479, 57.244
825.758, 49.014
827.036, 237.780
828.314, 81.542
829.592, 84.299
830.869, 180.053
832.147, 45.805
833.424, 232.552
834.701, 187.295
835.977, 173.040
837.254, 226.780
838.530, 183.519
839.807, 264.256
841.082, 165.990
842.358, 251.722
843.634, 301.453
844.909, 157.181
846.184, 223.909
847.459, 171.635
848.734, 124.362
850.008, 232.090
851.283, 92.816
852.557, 132.541
853.831, 40.265
855.105, 71.987
856.378, 205.711
857.651, 85.435
858.925, 97.157
860.197, 3.905
861.470, 38.652
862.743, 55.401
864.015, 3.155
865.287, 9.091
866.559, 97.667
867.831, 55.572
869.102, 9.171
870.373, 4.927
871.645, 36.682
872.915, 51.441
874.186, 49.797
875.457, 49.947
876.727, 16.292
877.997, 39.467
879.267, 105.229
880.536, 0.017
881.806, 64.807
883.075, 105.601
884.344, 94.399
885.613, 280.202
886.882, 184.008
888.150, 227.819
889.419, 358.635
890.687, 220.474
891.954, 330.316
893.222, 306.171
894.490, 341.028
895.757, 413.887
897.024, 395.776
898.291, 484.671
899.557, 540.568
900.824, 474.495
902.090, 626.423
903.356, 489.381
904.622, 696.344
905.888, 745.312
907.153, 666.316
908.418, 889.275
909.683, 782.134
910.948, 1055.869
912.213, 1166.758
913.477, 1110.697
914.741, 1351.642
916.005, 1418.140
917.269, 1683.866
918.533, 1888.772
919.796, 2066.433
921.060, 2466.119
922.323, 2766.496
923.585, 3119.038
924.848, 3883.036
926.111, 4039.889
927.373, 4780.678
928.635, 4931.108
929.897, 5090.644
931.158, 5069.868
932.420, 4517.427
933.681, 3948.173
934.942, 3419.075
936.203, 2683.132
937.463, 2407.117
938.724, 2281.331
939.984, 2021.721
941.244, 2009.524
942.504, 1974.335
943.764, 2150.277
945.023, 2135.165
946.282, 2107.014
947.541, 2388.180
948.800, 2020.781
950.059, 1995.774
951.317, 1915.919
952.575, 1499.921
953.833, 1596.829
955.091, 1288.046
956.349, 1198.329
957.606, 1241.888
958.864, 936.174
960.121, 1102.217
961.377, 884.254
962.634, 749.310
963.891, 825.398
965.147, 649.168
966.403, 745.412
967.659, 647.661
968.914, 606.703
970.170, 684.958
971.425, 533.446
972.680, 538.713
973.935, 603.983
975.190, 441.216
976.444, 667.681
977.698, 556.921
978.952, 405.208
980.206, 558.522
981.460, 355.814
982.713, 559.298
983.967, 390.564
985.220, 478.868
986.473, 565.130
987.725, 457.439
988.978, 509.753
990.230, 490.536
991.482, 448.855
992.734, 550.615
993.986, 554.155
995.237, 498.556
996.488, 687.375
997.739, 588.121
998.990, 708.017
1000.241, 690.113
1001.492, 707.556
1002.742, 864.062
1003.992, 716.784
1005.242, 893.209
1006.492, 1059.268
1007.741, 924.901
1008.990, 1183.416
1010.239, 1116.297
1011.488, 1191.559
1012.737, 1345.505
1013.986, 1366.064
1015.234, 1532.641
1016.482, 1665.310
1017.730, 1662.316
1018.978, 1861.326
1020.225, 1955.415
1021.473, 2023.776
1022.720, 2243.789
1023.967, 2188.582
1025.213, 2608.025
1026.460, 2729.799
1027.706, 2793.284
1028.953, 3235.056
1030.198, 3122.388
1031.444, 3343.722
1032.690, 3375.779
1033.935, 3187.937
1035.180, 3639.838
1036.425, 3481.962
1037.670, 3853.856
1038.915, 4455.876
1040.159, 4472.230
1041.403, 5253.965
1042.647, 5608.032
1043.891, 6119.932
1045.135, 7431.361
1046.378, 7899.641
1047.621, 9201.908
1048.864, 10573.680
1050.107, 11701.104
1051.350, 13862.752
1052.592, 14990.706
1053.835, 16882.861
1055.077, 19455.035
1056.318, 19533.914
1057.560, 21495.676
1058.802, 21377.762
1060.043, 19751.695
1061.284, 19033.430
1062.525, 15785.597
1063.765, 14007.625
1065.006, 12139.144
1066.246, 9861.362
1067.486, 8883.301
1068.726, 7264.734
1069.966, 6068.169
1071.205, 5090.053
1072.445, 4032.171
1073.684, 3424.611
1074.923, 2976.372
1076.161, 2322.537
1077.400, 2294.750
1078.638, 1776.425
1079.876, 1583.770
1081.114, 1594.313
1082.352, 1344.979
1083.590, 1306.899
1084.827, 1146.242
1086.064, 984.005
1087.301, 1057.060
1088.538, 845.814
1089.775, 763.013
1091.011, 973.482
1092.247, 666.355
1093.483, 721.114
1094.719, 695.535
1095.955, 601.702
1097.190, 748.787
1098.425, 418.071
1099.660, 562.350
1100.895, 511.872
1102.130, 442.916
1103.364, 506.434
1104.598, 461.663
1105.833, 426.649
1107.066, 421.383
1108.300, 308.605
1109.534, 365.554
1110.767, 371.369
1112.000, 265.825
1113.233, 323.445
1114.466, 192.649
1115.698, 321.640
1116.930, 321.938
1118.163, 117.020
1119.394, 186.516
1120.626, 287.930
1121.858, 121.385
1123.089, 340.182
1124.320, 73.169
1125.551, 138.620
1126.782, 193.173
1128.013, 119.086
1129.243, 196.583
1130.473, 84.124
1131.703, 134.545
1132.933, 220.981
1134.163, 16.216
1135.392, 194.198
1136.621, 156.519
1137.850, 27.422
1139.079, 156.811
1140.308, 38.252
1141.536, 93.442
1142.765, 136.619
1143.993, 38.543
1145.221, 58.709
1146.448, 27.020
1147.676, 3.097
1148.903, 140.128
1150.130, 127.238
1151.357, 77.768
1152.584, 153.394
1153.810, 4.317
1155.037, 108.079
1156.263, 139.774
1157.489, 103.486
1158.715, 230.776
1159.940, 44.063
1161.166, 13.084
1162.391, 112.975
1163.616, 21.651
1164.841, 43.060
1166.065, 8.307
1167.290, 36.785
1168.514, 189.250
1169.738, 59.435
1170.962, 113.164
1172.185, 167.043
1173.409, 43.487
1174.632, 57.591
1175.855, 133.527
1177.078, 80.962
1178.301, 216.311
1179.523, 68.484
1180.746, 44.823
1181.968, 108.749
1183.190, 57.490
1184.412, 112.875
1185.633, 86.114
1186.855, 61.186
1188.076, 155.220
1189.297, 23.625
1190.518, 118.409
1191.738, 237.103
1192.959, 89.503
1194.179, 31.369
1195.399, 161.874
1196.619, 72.191
1197.838, 190.564
1199.058, 79.927
1200.277, 68.458
1201.496, 62.260
1202.715, 91.550
1203.934, 169.621
1205.152, 92.000
1206.371, 11.935
1207.589, 175.071
1208.807, 73.614
1210.024, 105.142
1211.242, 224.985
1212.459, 62.021
1213.677, 127.973
1214.894, 249.492
1216.110, 0.989
1217.327, 140.580
1218.543, 88.812
1219.760, 37.907
1220.976, 173.310
1222.192, 79.493
1223.407, 65.924
1224.623, 194.268
1225.838, 56.035
1227.053, 232.354
1228.268, 29.186
1229.483, 160.360
1230.697, 353.559
1231.912, 35.204
1233.126, 139.464
1234.340, 209.678
1235.554, 107.777
1236.767, 279.507
1237.981, 180.489
1239.194, 210.506
1240.407, 288.099
1241.620, 106.890
1242.832, 124.049
1244.045, 354.506
1245.257, 19.983
1246.469, 257.780
1247.681, 129.099
1248.893, 58.618
1250.104, 384.839
1251.315, 141.310
1252.527, 202.021
1253.738, 384.104
1254.948, 146.761
1256.159, 176.323
1257.369, 258.260
1258.579, 216.501
1259.789, 314.337
1260.999, 122.102
1262.209, 283.229
1263.418, 346.882
1264.628, 57.227
1265.837, 245.447
1267.046, 230.930
1268.254, 147.360
1269.463, 361.726
1270.671, 219.822
1271.879, 190.331
1273.087, 361.497
1274.295, 193.562
1275.502, 182.850
1276.710, 205.605
1277.917, 196.794
1279.124, 345.811
1280.331, 189.620
1281.537, 207.099
1282.744, 300.740
1283.950, 177.851
1285.156, 159.933
1286.362, 212.913
1287.568, 13.938
1288.773, 266.415
1289.978, 201.135
1291.184, 50.407
1292.389, 254.226
1293.593, 164.490
1294.798, 187.175
1296.002, 318.891
1297.206, 33.335
1298.410, 211.016
1299.614, 241.006
1300.818, 78.361
1302.021, 231.177
1303.225, 107.051
1304.428, 100.312
1305.631, 161.583
1306.833, 5.472
1308.036, 256.563
1309.238, 163.908
1310.440, 32.808
1311.642, 191.442
1312.844, 93.416
1314.045, 75.040
1315.247, 394.635
1316.448, 98.784
1317.649, 153.072
1318.850, 228.099
1320.051, 29.217
1321.251, 441.663
1322.451, 135.892
1323.651, 149.933
1324.851, 461.298
1326.051, 53.453
1327.251, 63.793
1328.450, 294.824
1329.649, 31.005
1330.848, 196.982
1332.047, 243.553
1333.245, 24.639
1334.444, 303.311
1335.642, 134.162
1336.840, 195.290
1338.038, 289.606
1339.236, 60.282
1340.433, 250.252
1341.630, 265.047
1342.828, 95.536
1344.025, 369.634
1345.221, 199.452
1346.418, 50.843
1347.614, 322.090
1348.810, 242.052
1350.006, 11.617
1351.202, 299.390
1352.398, 29.145
1353.593, 148.396
1354.789, 317.706
1355.984, 12.554
1357.179, 246.413
1358.373, 15.689
1359.568, 95.301
1360.762, 342.847
1361.956, 121.879
1363.150, 140.635
1364.344, 449.012
1365.538, 98.010
1366.731, 256.565
1367.924, 66.793
1369.117, 34.260
1370.310, 243.986
1371.503, 36.987
1372.695, 59.448
1373.888, 228.597
1375.080, 52.964
1376.272, 37.966
1377.464, 189.628
1378.655, 1.777
1379.847, 323.945
1381.038, 214.844
1382.229, 14.733
1383.420, 416.599
1384.610, 227.574
1385.801, 128.470
1386.991, 339.823
1388.181, 70.899
1389.371, 182.300
1390.561, 403.007
1391.750, 53.188
1392.940, 373.989
1394.129, 214.687
1395.318, 144.920
1396.507, 315.636
1397.696, 135.483
1398.884, 145.970
1400.072, 335.624
1401.260, 45.578
1402.448, 334.874
1403.636, 319.571
1404.824, 177.228
1406.011, 316.327
1407.198, 105.760
1408.385, 112.435
1409.572, 410.214
1410.758, 8.259
1411.945, 275.775
1413.131, 429.823
1414.317, 190.811
1415.503, 258.006
1416.689, 335.753
1417.874, 17.444
1419.060, 383.662
1420.245, 181.898
1421.430, 40.167
1422.615, 424.849
1423.799, 80.679
1424.984, 288.402
1426.168, 264.015
1427.352, 110.925
1428.536, 278.859
1429.720, 356.974
1430.903, 5.712
1432.087, 312.626
1433.270, 101.107
1434.453, 156.567
1435.635, 341.531
1436.818, 5.443
1438.001, 229.543
1439.183, 426.523
1440.365, 32.585
1441.547, 319.530
1442.728, 425.625
1443.910, 104.769
1445.091, 291.460
1446.272, 377.323
1447.453, 41.216
1448.634, 483.732
1449.815, 93.090
1450.995, 159.423
1452.176, 384.669
1453.356, 37.814
1454.535, 251.225
1455.715, 476.565
1456.895, 31.010
1458.074, 473.727
1459.253, 185.764
1460.432, 150.938
1461.611, 494.936
1462.790, 146.095
1463.968, 205.394
1465.146, 479.859
1466.324, 193.476
1467.502, 358.450
1468.680, 611.688
1469.858, 232.037
1471.035, 413.346
1472.212, 385.056
1473.389, 188.561
1474.566, 354.828
1475.742, 255.095
1476.919, 71.444
1478.095, 534.022
1479.271, 62.549
1480.447, 372.901
1481.623, 485.577
1482.798, 125.670
1483.974, 366.854
1485.149, 386.776
1486.324, 109.055
1487.499, 538.276
1488.674, 220.176
1489.848, 261.905
1491.022, 543.708
1492.196, 35.521
1493.370, 367.469
1494.544, 419.490
1495.718, 71.596
1496.891, 473.299
1498.064, 435.146
1499.237, 38.236
1500.410, 441.607
1501.583, 285.354
1502.755, 149.600
1503.928, 604.267
1505.100, 147.734
1506.272, 253.396
1507.443, 629.962
1508.615, 14.344
1509.786, 353.989
1510.958, 633.765
1512.129, 105.464
1513.300, 515.232
1514.470, 197.034
1515.641, 0.000
##END=



