##NAMES=Tremolite
##RRUFFID=R050173
##IDEAL CHEMISTRY=[box]Ca_2_Mg_5_Si_8_O_22_(OH)_2_
##LOCALITY=Fort Dauphin, Madagascar
##OWNER=RRUFF
##SOURCE=Marcus Origlieri
##DESCRIPTION=Mass of colorless acicular crystals
##STATUS=The identification of this mineral has been confirmed by X-ray diffraction and chemical analysis
##URL=rruff.info/R050173
##MEASURED CHEMISTRY=[box]Ca_2.00_Mg_5.00_Si_8.00_O_22_(OH)_2_
##PIN_ID=L00398
##ORIENTATION=Laser parallel to (1 0 1). Fiducial mark perpendicular to laser is parallel to b [0 1 0]
96.748, 0.000
98.143, 168.825
99.538, 47.272
100.932, 3.880
102.326, 51.493
103.720, 52.627
105.114, 59.886
106.508, 108.729
107.901, 90.768
109.294, 86.907
110.687, 200.333
112.079, 501.040
113.472, 1019.968
114.864, 1495.059
116.256, 1761.558
117.647, 1823.978
119.039, 1937.746
120.430, 1830.046
121.821, 1613.799
123.211, 1413.253
124.602, 1092.860
125.992, 877.521
127.382, 517.198
128.772, 381.854
130.162, 166.466
131.551, 106.017
132.940, 32.491
134.329, 13.042
135.718, 20.677
137.106, 0.407
138.494, 17.866
139.882, 96.229
141.270, 81.499
142.657, 86.568
144.045, 172.187
145.432, 111.401
146.819, 68.520
148.205, 117.463
149.592, 121.670
150.978, 286.377
152.364, 369.967
153.749, 631.500
155.135, 969.814
156.520, 1781.914
157.905, 2536.812
159.290, 3425.525
160.674, 3734.065
162.059, 3242.438
163.443, 2540.654
164.826, 1750.716
166.210, 1313.630
167.593, 851.402
168.977, 1116.139
170.360, 1672.676
171.742, 3169.179
173.125, 5856.398
174.507, 10303.506
175.889, 15060.505
177.271, 18478.059
178.652, 17887.973
180.034, 13154.631
181.415, 7311.271
182.796, 3480.518
184.176, 1749.461
185.557, 1019.872
186.937, 700.828
188.317, 481.645
189.697, 474.047
191.076, 377.522
192.456, 388.211
193.835, 289.007
195.213, 258.852
196.592, 124.732
197.970, 157.727
199.349, 65.603
200.726, 143.469
202.104, 217.333
203.482, 275.900
204.859, 357.161
206.236, 377.676
207.613, 546.378
208.989, 698.032
210.366, 1041.052
211.742, 1633.823
213.118, 2057.601
214.493, 3038.384
215.869, 4563.175
217.244, 7787.987
218.619, 12712.823
219.994, 19057.682
221.368, 25142.525
222.742, 26837.350
224.117, 23192.137
225.490, 16156.880
226.864, 10051.587
228.237, 7006.255
229.611, 5730.879
230.984, 5215.449
232.356, 4719.964
233.729, 3814.442
235.101, 2928.881
236.473, 1809.282
237.845, 1003.645
239.216, 552.969
240.588, 264.259
241.959, 201.521
243.330, 135.759
244.701, 257.972
246.071, 738.163
247.441, 1310.329
248.811, 1518.473
250.181, 1730.623
251.551, 1513.778
252.920, 899.923
254.289, 691.057
255.658, 322.185
257.027, 201.305
258.395, 75.398
259.763, 198.462
261.131, 302.481
262.499, 338.554
263.867, 330.966
265.234, 293.127
266.601, 92.050
267.968, 27.837
269.334, 225.977
270.701, 189.194
272.067, 216.485
273.433, 141.865
274.799, 19.314
276.164, 84.199
277.530, 233.690
278.895, 322.102
280.260, 416.729
281.624, 527.016
282.989, 576.290
284.353, 698.364
285.717, 894.717
287.080, 1312.182
288.444, 1541.854
289.807, 1517.756
291.170, 1195.774
292.533, 766.052
293.896, 364.932
295.258, 324.601
296.620, 307.773
297.982, 353.993
299.344, 790.558
300.705, 994.741
302.067, 1203.536
303.428, 1092.379
304.789, 733.268
306.149, 557.111
307.510, 260.907
308.870, 290.011
310.230, 229.423
311.589, 214.892
312.949, 151.528
314.308, 127.779
315.667, 121.458
317.026, 81.655
318.385, 78.318
319.743, 76.688
321.101, 201.134
322.459, 271.784
323.817, 361.769
325.174, 459.003
326.532, 634.226
327.889, 978.217
329.246, 1552.280
330.602, 1969.465
331.958, 2255.571
333.315, 1954.542
334.671, 1456.443
336.026, 1141.284
337.382, 1023.899
338.737, 1288.885
340.092, 1688.855
341.447, 2375.132
342.802, 2819.717
344.156, 3053.432
345.510, 3187.505
346.864, 3421.105
348.218, 4174.409
349.571, 4527.452
350.925, 4920.422
352.278, 4643.369
353.630, 3936.296
354.983, 3119.202
356.336, 2422.086
357.688, 2224.946
359.040, 2067.778
360.391, 2159.906
361.743, 2642.265
363.094, 3303.430
364.445, 4655.646
365.796, 6878.179
367.147, 9450.872
368.497, 11203.535
369.847, 10526.164
371.197, 8638.748
372.547, 6311.291
373.897, 4583.803
375.246, 3666.293
376.595, 2708.757
377.944, 2201.198
379.293, 1697.615
380.641, 1309.089
381.989, 1184.068
383.337, 991.484
384.685, 1048.790
386.032, 1136.884
387.380, 1472.845
388.727, 2023.775
390.074, 2816.602
391.421, 3979.687
392.767, 4972.789
394.113, 5065.848
395.459, 4348.430
396.805, 3051.368
398.151, 1974.433
399.496, 1124.478
400.841, 823.459
402.186, 623.230
403.531, 540.293
404.875, 406.886
406.219, 479.740
407.564, 492.319
408.907, 618.158
410.251, 813.907
411.594, 1082.824
412.937, 1336.242
414.280, 1750.979
415.623, 1693.526
416.966, 1619.083
418.308, 1368.521
419.650, 1056.427
420.992, 647.678
422.334, 492.068
423.675, 498.347
425.016, 253.002
426.357, 282.522
427.698, 232.097
429.038, 301.651
430.379, 366.477
431.719, 700.067
433.059, 974.193
434.399, 1389.139
435.738, 1460.031
437.077, 1324.736
438.416, 912.283
439.755, 368.473
441.094, 261.844
442.432, 73.644
443.770, 69.965
445.108, 25.782
446.446, 126.411
447.783, 1.435
449.121, 37.328
450.458, 7.807
451.795, 91.742
453.131, 1.517
454.468, 109.274
455.804, 151.956
457.140, 262.530
458.476, 242.963
459.811, 489.431
461.146, 702.872
462.482, 775.284
463.816, 832.670
465.151, 666.023
466.486, 450.349
467.820, 430.644
469.154, 195.620
470.488, 110.682
471.821, 83.450
473.155, 39.118
474.488, 87.457
475.821, 29.559
477.154, 95.563
478.486, 9.987
479.818, 39.345
481.150, 23.607
482.482, 5.925
483.814, 91.492
485.145, 33.310
486.477, 30.091
487.808, 62.835
489.138, 39.556
490.469, 20.259
491.799, 24.925
493.129, 36.556
494.459, 40.149
495.789, 56.293
497.119, 92.216
498.448, 15.692
499.777, 28.852
501.106, 148.549
502.434, 63.918
503.763, 297.253
505.091, 170.576
506.419, 375.872
507.747, 600.142
509.074, 878.385
510.402, 1245.603
511.729, 1454.797
513.056, 1693.975
514.383, 1693.129
515.709, 1902.258
517.035, 1741.374
518.361, 1750.464
519.687, 1689.538
521.013, 1438.589
522.338, 1277.617
523.663, 1446.633
524.988, 1605.627
526.313, 1784.598
527.638, 2083.548
528.962, 2162.475
530.286, 2111.383
531.610, 1530.281
532.934, 1229.155
534.257, 778.032
535.581, 673.890
536.904, 448.735
538.227, 383.578
539.549, 229.397
540.872, 102.192
542.194, 169.967
543.516, 71.715
544.838, 55.432
546.159, 81.116
547.480, 81.769
548.802, 100.391
550.123, 31.980
551.443, 21.540
552.764, 26.068
554.084, 133.562
555.404, 41.866
556.724, 5.459
558.044, 3.856
559.363, 99.779
560.682, 56.499
562.001, 4.254
563.320, 12.955
564.639, 61.866
565.957, 59.258
567.275, 8.352
568.593, 23.415
569.911, 71.556
571.228, 89.403
572.546, 6.343
573.863, 45.264
575.180, 36.152
576.496, 58.008
577.813, 101.836
579.129, 36.636
580.445, 208.407
581.761, 69.148
583.076, 209.858
584.392, 281.106
585.707, 210.451
587.022, 201.559
588.337, 304.936
589.651, 171.542
590.966, 106.196
592.280, 207.884
593.594, 134.615
594.907, 96.370
596.221, 110.114
597.534, 168.829
598.847, 176.515
600.160, 66.049
601.473, 170.763
602.785, 177.431
604.097, 131.247
605.409, 188.849
606.721, 144.167
608.033, 117.555
609.344, 153.317
610.655, 190.000
611.966, 165.267
613.277, 182.521
614.588, 199.328
615.898, 266.847
617.208, 281.482
618.518, 272.691
619.828, 350.051
621.137, 337.868
622.446, 375.434
623.755, 402.998
625.064, 360.602
626.373, 448.065
627.681, 555.191
628.990, 561.792
630.298, 658.536
631.605, 644.916
632.913, 851.936
634.220, 787.920
635.527, 834.109
636.834, 1070.281
638.141, 1166.599
639.448, 1323.513
640.754, 1659.435
642.060, 1936.070
643.366, 2252.673
644.672, 2588.877
645.977, 3397.812
647.283, 4248.922
648.588, 5005.023
649.892, 6501.465
651.197, 7827.508
652.502, 8553.836
653.806, 8701.164
655.110, 8127.672
656.414, 7467.744
657.717, 6861.882
659.021, 6808.725
660.324, 7064.886
661.627, 7465.278
662.930, 8912.782
664.232, 10909.914
665.534, 13347.005
666.837, 17753.932
668.138, 23710.859
669.440, 32810.121
670.742, 42766.633
672.043, 50863.621
673.344, 53473.547
674.645, 49100.000
675.946, 39388.398
677.246, 29535.180
678.546, 21852.092
679.846, 15600.024
681.146, 11986.736
682.446, 9703.491
683.745, 7891.508
685.045, 6928.145
686.344, 6516.395
687.642, 5946.253
688.941, 6102.903
690.239, 5565.578
691.538, 5053.277
692.836, 4333.148
694.133, 3614.130
695.431, 3120.949
696.728, 2617.290
698.025, 2185.408
699.322, 2051.511
700.619, 1696.999
701.916, 1742.342
703.212, 1527.756
704.508, 1353.054
705.804, 1308.359
707.100, 1194.327
708.395, 1139.141
709.690, 1044.357
710.985, 1070.030
712.280, 951.922
713.575, 949.974
714.869, 774.874
716.164, 713.692
717.458, 634.852
718.751, 583.438
720.045, 588.407
721.338, 581.780
722.632, 586.878
723.925, 592.094
725.217, 396.808
726.510, 517.377
727.802, 524.766
729.095, 422.867
730.386, 597.670
731.678, 592.109
732.970, 598.505
734.261, 773.156
735.552, 917.335
736.843, 1282.074
738.134, 1606.536
739.424, 1682.714
740.715, 1837.755
742.005, 1442.466
743.295, 1237.654
744.584, 942.351
745.874, 867.102
747.163, 861.172
748.452, 905.425
749.741, 1049.675
751.030, 803.399
752.318, 817.151
753.607, 641.117
754.895, 475.085
756.182, 528.561
757.470, 372.447
758.758, 286.334
760.045, 210.024
761.332, 264.003
762.619, 157.776
763.905, 291.437
765.192, 215.227
766.478, 249.143
767.764, 82.938
769.050, 226.771
770.335, 160.646
771.621, 64.535
772.906, 48.384
774.191, 202.196
775.475, 85.977
776.760, 139.719
778.044, 133.427
779.329, 117.101
780.613, 144.249
781.896, 133.771
783.180, 167.912
784.463, 101.451
785.746, 124.958
787.029, 28.433
788.312, 191.873
789.594, 225.285
790.877, 1.331
792.159, 122.019
793.441, 5.336
794.722, 118.616
796.004, 91.867
797.285, 25.084
798.566, 108.267
799.847, 28.582
801.128, 65.485
802.408, 97.536
803.689, 20.526
804.969, 133.482
806.249, 66.411
807.528, 70.693
808.808, 62.144
810.087, 55.054
811.366, 37.686
812.645, 20.400
813.923, 93.080
815.202, 44.271
816.480, 1.690
817.758, 40.852
819.036, 43.454
820.314, 75.920
821.591, 68.425
822.868, 29.182
824.145, 153.153
825.422, 35.457
826.699, 42.088
827.975, 150.482
829.251, 17.141
830.527, 55.069
831.803, 17.461
833.079, 10.478
834.354, 51.549
835.629, 33.543
836.904, 14.011
838.179, 47.937
839.454, 19.597
840.728, 47.761
842.002, 24.024
843.276, 93.956
844.550, 12.293
845.824, 50.673
847.097, 69.115
848.370, 2.389
849.643, 33.857
850.916, 34.707
852.188, 16.679
853.461, 58.029
854.733, 69.353
856.005, 70.650
857.277, 91.917
858.548, 101.494
859.820, 5.634
861.091, 125.543
862.362, 26.694
863.633, 17.820
864.903, 78.915
866.173, 49.983
867.444, 51.025
868.713, 72.041
869.983, 34.879
871.253, 64.048
872.522, 15.012
873.791, 34.054
875.060, 16.848
876.329, 2.277
877.597, 58.567
878.866, 39.384
880.134, 39.808
881.402, 59.049
882.670, 31.654
883.937, 102.329
885.204, 27.023
886.472, 103.579
887.739, 144.156
889.005, 174.721
890.272, 95.259
891.538, 14.228
892.804, 106.247
894.070, 156.696
895.336, 27.120
896.601, 167.518
897.867, 87.887
899.132, 178.230
900.397, 248.550
901.662, 148.850
902.926, 399.122
904.190, 449.377
905.455, 369.607
906.718, 249.813
907.982, 399.995
909.246, 460.158
910.509, 380.297
911.772, 440.416
913.035, 570.395
914.298, 580.468
915.560, 580.181
916.823, 710.205
918.085, 650.111
919.347, 970.089
920.608, 1139.393
921.870, 1539.272
923.131, 1728.851
924.392, 2398.001
925.653, 3117.058
926.914, 4176.732
928.175, 4985.896
929.435, 5505.260
930.695, 5164.574
931.955, 4753.795
933.215, 3563.105
934.474, 2792.345
935.734, 2281.702
936.993, 1940.756
938.252, 1699.883
939.511, 1748.579
940.769, 1967.938
942.027, 2227.408
943.286, 2965.341
944.544, 3574.327
945.801, 3952.555
947.059, 4041.478
948.316, 3230.262
949.573, 2588.741
950.830, 2157.543
952.087, 1613.758
953.344, 1187.638
954.600, 1056.319
955.856, 834.652
957.112, 784.099
958.368, 662.800
959.623, 606.251
960.879, 524.801
962.134, 419.940
963.389, 248.199
964.644, 366.898
965.898, 685.439
967.153, 490.431
968.407, 398.728
969.661, 186.873
970.915, 285.364
972.168, 193.603
973.422, 311.839
974.675, 237.638
975.928, 236.707
977.181, 165.367
978.433, 121.176
979.686, 160.523
980.938, 187.761
982.190, 136.834
983.442, 215.539
984.693, 275.482
985.945, 214.582
987.196, 92.818
988.447, 200.561
989.698, 69.938
990.949, 227.348
992.199, 265.310
993.449, 143.678
994.699, 245.954
995.949, 253.903
997.199, 339.058
998.448, 267.884
999.697, 416.156
1000.947, 374.800
1002.195, 431.277
1003.444, 489.485
1004.693, 658.459
1005.941, 707.236
1007.189, 815.221
1008.437, 944.883
1009.684, 1023.218
1010.932, 1201.098
1012.179, 1360.312
1013.426, 1518.932
1014.673, 1787.582
1015.920, 2106.119
1017.166, 2734.756
1018.413, 3053.486
1019.659, 3392.396
1020.905, 3741.162
1022.151, 3939.385
1023.396, 4907.412
1024.641, 6063.309
1025.887, 7741.736
1027.132, 9349.894
1028.376, 9638.394
1029.621, 8866.660
1030.865, 6892.555
1032.109, 5317.669
1033.353, 3655.902
1034.597, 2843.820
1035.841, 2309.895
1037.084, 2178.423
1038.327, 1829.367
1039.570, 1627.797
1040.813, 1586.668
1042.056, 1793.944
1043.298, 1842.351
1044.540, 1921.396
1045.782, 2159.848
1047.024, 2248.062
1048.266, 2756.832
1049.507, 3395.300
1050.748, 4254.245
1051.990, 5192.452
1053.230, 6841.600
1054.471, 9899.833
1055.711, 13637.877
1056.952, 18705.963
1058.192, 23514.816
1059.432, 25893.258
1060.671, 23141.922
1061.911, 17860.428
1063.150, 13118.604
1064.389, 9826.703
1065.628, 7694.859
1066.867, 6872.836
1068.105, 6421.242
1069.344, 5988.906
1070.582, 5297.021
1071.820, 4324.477
1073.058, 3452.361
1074.295, 2640.150
1075.532, 2178.078
1076.770, 1815.979
1078.007, 1663.891
1079.243, 1611.438
1080.480, 1819.371
1081.716, 1917.484
1082.953, 2754.564
1084.189, 3972.203
1085.424, 5039.684
1086.660, 4626.914
1087.895, 3484.445
1089.131, 2382.158
1090.366, 1459.428
1091.601, 1477.090
1092.835, 1083.637
1094.070, 811.805
1095.304, 678.229
1096.538, 455.334
1097.772, 412.248
1099.005, 509.512
1100.239, 466.467
1101.472, 283.199
1102.705, 350.553
1103.938, 307.080
1105.171, 124.213
1106.404, 230.643
1107.636, 328.262
1108.868, 254.744
1110.100, 111.992
1111.332, 378.982
1112.563, 165.193
1113.795, 272.459
1115.026, 378.037
1116.257, 94.895
1117.488, 321.059
1118.718, 216.883
1119.949, 343.035
1121.179, 294.754
1122.409, 314.969
1123.639, 171.299
1124.868, 147.805
1126.098, 113.299
1127.327, 89.354
1128.556, 114.828
1129.785, 50.898
1131.014, 97.150
1132.242, 68.012
1133.470, 27.158
1134.699, 214.896
1135.927, 20.314
1137.154, 14.049
1138.382, 20.461
1139.609, 72.465
1140.836, 153.193
1142.063, 159.451
1143.290, 5.928
1144.517, 121.277
1145.743, 113.520
1146.969, 81.508
1148.195, 77.178
1149.421, 33.039
1150.647, 159.225
1151.872, 15.270
1153.097, 71.584
1154.322, 147.061
1155.547, 132.832
1156.772, 59.590
1157.996, 74.648
1159.221, 8.814
1160.445, 48.477
1161.669, 27.248
1162.892, 112.713
1164.116, 57.898
1165.339, 32.730
1166.562, 7.617
1167.785, 2.346
1169.008, 157.189
1170.231, 151.324
1171.453, 176.906
1172.675, 50.541
1173.897, 43.943
1175.119, 91.447
1176.341, 126.363
1177.562, 120.035
1178.783, 44.475
1180.004, 121.699
1181.225, 266.951
1182.446, 249.684
1183.666, 113.971
1184.887, 51.875
1186.107, 200.396
1187.327, 16.531
1188.546, 122.559
1189.766, 156.631
1190.985, 48.422
1192.204, 66.662
1193.423, 259.619
1194.642, 42.170
1195.861, 209.588
1197.079, 142.910
1198.297, 236.156
1199.515, 90.301
1200.733, 300.436
1201.951, 343.484
1203.168, 324.008
1204.385, 134.332
1205.602, 225.924
1206.819, 165.646
1208.036, 193.738
1209.253, 262.754
1210.469, 272.312
1211.685, 251.746
1212.901, 298.094
1214.117, 188.221
1215.332, 356.904
1216.548, 252.295
1217.763, 400.896
1218.978, 289.252
1220.193, 313.123
1221.407, 272.156
1222.622, 272.000
1223.836, 260.406
1225.050, 338.459
1226.264, 236.150
1227.477, 205.535
1228.691, 442.561
1229.904, 301.594
1231.117, 328.662
1232.330, 393.342
1233.543, 310.125
1234.755, 256.783
1235.968, 355.676
1237.180, 253.795
1238.392, 509.578
1239.604, 120.301
1240.815, 526.752
1242.027, 352.463
1243.238, 390.615
1244.449, 295.633
1245.660, 365.086
1246.871, 412.213
1248.081, 256.893
1249.291, 442.428
1250.501, 288.861
1251.711, 441.785
1252.921, 148.443
1254.131, 413.020
1255.340, 217.178
1256.549, 273.045
1257.758, 446.572
1258.967, 179.533
1260.175, 576.840
1261.384, 260.369
1262.592, 412.922
1263.800, 456.875
1265.008, 389.867
1266.216, 203.979
1267.423, 607.479
1268.630, 310.994
1269.838, 253.102
1271.044, 435.148
1272.251, 246.512
1273.458, 408.023
1274.664, 278.607
1275.870, 169.592
1277.076, 561.441
1278.282, 459.316
1279.488, 30.301
1280.693, 250.377
1281.898, 291.230
1283.103, 410.541
1284.308, 59.219
1285.513, 236.994
1286.717, 96.410
1287.922, 454.955
1289.126, 32.963
1290.330, 281.143
1291.534, 293.795
1292.737, 151.430
1293.940, 118.725
1295.144, 75.244
1296.347, 80.422
1297.549, 52.066
1298.752, 126.037
1299.955, 82.633
1301.157, 19.498
1302.359, 144.994
1303.561, 290.939
1304.762, 205.836
1305.964, 280.969
1307.165, 65.584
1308.366, 80.654
1309.567, 105.232
1310.768, 89.441
1311.969, 93.961
1313.169, 77.414
1314.369, 141.248
1315.569, 24.852
1316.769, 178.334
1317.969, 108.908
1319.168, 16.461
1320.368, 35.953
1321.567, 218.311
1322.766, 20.434
1323.965, 17.902
1325.163, 13.760
1326.361, 186.215
1327.560, 37.967
1328.758, 38.930
1329.955, 197.416
1331.153, 11.682
1332.351, 11.801
1333.548, 141.727
1334.745, 198.178
1335.942, 52.580
1337.139, 56.486
1338.335, 76.127
1339.531, 45.223
1340.728, 23.754
1341.923, 22.234
1343.119, 0.889
1344.315, 338.697
1345.510, 17.279
1346.706, 195.732
1347.901, 203.900
1349.095, 61.074
1350.290, 278.410
1351.485, 635.303
1352.679, 381.619
1353.873, 219.080
1355.067, 215.910
1356.261, 57.602
1357.454, 98.826
1358.648, 294.598
1359.841, 49.061
1361.034, 246.551
1362.227, 273.244
1363.420, 31.363
1364.612, 123.902
1365.804, 48.809
1366.996, 163.518
1368.188, 187.996
1369.380, 222.623
1370.572, 133.354
1371.763, 310.273
1372.954, 44.721
1374.145, 228.396
1375.336, 68.016
1376.527, 225.619
1377.717, 218.740
1378.907, 21.480
1380.098, 44.463
1381.287, 316.855
1382.477, 19.410
1383.667, 142.127
1384.856, 225.113
1386.045, 17.146
1387.234, 328.947
1388.423, 9.193
1389.612, 42.064
1390.800, 333.176
1391.988, 153.264
1393.176, 62.744
1394.364, 512.539
1395.552, 32.951
1396.740, 223.252
1397.927, 262.021
1399.114, 31.984
1400.301, 390.613
1401.488, 368.816
1402.675, 5.764
1403.861, 305.178
1405.047, 299.820
1406.233, 177.168
1407.419, 251.590
1408.605, 127.264
1409.791, 176.629
1410.976, 165.754
1412.161, 278.365
1413.346, 229.850
1414.531, 321.951
1415.715, 222.562
1416.900, 436.490
1418.084, 238.520
1419.268, 129.043
1420.452, 399.254
1421.636, 159.459
1422.819, 458.498
1424.003, 110.693
1425.186, 259.619
1426.369, 431.330
1427.552, 138.201
1428.734, 293.457
1429.917, 457.682
1431.099, 323.676
1432.281, 363.076
1433.463, 498.037
1434.645, 343.924
1435.826, 363.611
1437.008, 488.594
1438.189, 196.131
1439.370, 441.814
1440.551, 323.176
1441.731, 380.412
1442.912, 234.000
1444.092, 520.109
1445.272, 286.963
1446.452, 452.246
1447.632, 344.215
1448.811, 509.301
1449.991, 293.627
1451.170, 305.088
1452.349, 295.018
1453.528, 354.402
1454.706, 125.428
1455.885, 378.467
1457.063, 336.332
1458.241, 621.277
1459.419, 329.943
1460.597, 346.561
1461.775, 614.578
1462.952, 374.303
1464.129, 389.428
1465.306, 250.854
1466.483, 489.348
1467.660, 165.072
1468.836, 437.898
1470.012, 272.117
1471.189, 627.318
1472.365, 553.031
1473.540, 333.881
1474.716, 426.414
1475.891, 608.270
1477.067, 302.637
1478.242, 192.830
1479.416, 468.127
1480.591, 154.709
1481.766, 179.842
1482.940, 434.033
1484.114, 249.162
1485.288, 521.893
1486.462, 126.252
1487.635, 541.373
1488.809, 435.842
1489.982, 129.549
1491.155, 201.584
1492.328, 177.117
1493.501, 102.578
1494.673, 327.893
1495.846, 82.986
1497.018, 177.691
1498.190, 230.797
1499.362, 335.898
1500.533, 61.064
1501.705, 286.521
1502.876, 17.885
1504.047, 467.205
1505.218, 243.064
1506.389, 289.086
1507.560, 104.615
1508.730, 251.020
1509.900, 97.826
1511.070, 134.531
1512.240, 121.172
1513.410, 288.863
1514.579, 265.875
1515.749, 186.684
1516.918, 254.816
1518.087, 273.422
1519.255, 152.449
1520.424, 281.984
1521.592, 322.898
1522.761, 4.027
1523.929, 111.289
1525.097, 357.477
1526.264, 0.000
##END=



