##NAMES=Tremolite
##RRUFFID=R050173
##IDEAL CHEMISTRY=[box]Ca_2_Mg_5_Si_8_O_22_(OH)_2_
##LOCALITY=Fort Dauphin, Madagascar
##OWNER=RRUFF
##SOURCE=Marcus Origlieri
##DESCRIPTION=Mass of colorless acicular crystals
##STATUS=The identification of this mineral has been confirmed by X-ray diffraction and chemical analysis
##URL=rruff.info/R050173
##MEASURED CHEMISTRY=[box]Ca_2.00_Mg_5.00_Si_8.00_O_22_(OH)_2_
##PIN_ID=L00486
##ORIENTATION=Laser parallel to -c* (0 0 -1). Fiducial mark perpendicular to laser is parallel to a [1 0 0]
96.748, 0.000
98.143, 185.453
99.538, 6.095
100.932, 13.539
102.326, 131.243
103.720, 54.919
105.114, 333.286
106.508, 195.363
107.901, 100.339
109.294, 87.759
110.687, 227.448
112.079, 829.099
113.472, 1312.360
114.864, 1816.906
116.256, 1922.442
117.647, 1858.729
119.039, 1985.649
120.430, 1813.739
121.821, 1593.302
123.211, 1514.053
124.602, 1265.616
125.992, 1057.748
127.382, 850.271
128.772, 663.021
130.162, 405.854
131.551, 208.661
132.940, 161.365
134.329, 213.898
135.718, 86.218
137.106, 268.286
138.494, 350.080
139.882, 301.681
141.270, 315.293
142.657, 316.611
144.045, 314.244
145.432, 266.546
146.819, 248.737
148.205, 160.204
149.592, 200.521
150.978, 99.781
152.364, 378.191
153.749, 736.072
155.135, 1833.489
156.520, 3440.299
157.905, 4456.434
159.290, 5121.820
160.674, 4976.492
162.059, 3710.492
163.443, 2443.854
164.826, 1366.610
166.210, 838.792
167.593, 420.429
168.977, 591.542
170.360, 742.158
171.742, 1672.299
173.125, 3191.990
174.507, 5541.250
175.889, 7470.101
177.271, 8348.563
178.652, 7836.650
180.034, 6034.426
181.415, 3482.031
182.796, 1614.856
184.176, 725.773
185.557, 465.193
186.937, 547.938
188.317, 524.363
189.697, 666.838
191.076, 700.783
192.456, 789.315
193.835, 812.048
195.213, 868.803
196.592, 962.074
197.970, 988.283
199.349, 1027.940
200.726, 1067.635
202.104, 1187.356
203.482, 1267.099
204.859, 1556.856
206.236, 1768.772
207.613, 1574.621
208.989, 1742.927
210.366, 2151.053
211.742, 2679.225
213.118, 3077.455
214.493, 3681.226
215.869, 4713.312
217.244, 6896.115
218.619, 10146.594
219.994, 14345.631
221.368, 17564.666
222.742, 18123.684
224.117, 16712.664
225.490, 14701.594
226.864, 13510.450
228.237, 15229.234
229.611, 18807.938
230.984, 21266.557
232.356, 21815.105
233.729, 19603.566
235.101, 14951.947
236.473, 10170.252
237.845, 6388.472
239.216, 4016.612
240.588, 2694.676
241.959, 2132.670
243.330, 1990.601
244.701, 2638.481
246.071, 4176.308
247.441, 5874.091
248.811, 7181.822
250.181, 7539.549
251.551, 6927.219
252.920, 5254.848
254.289, 3882.471
255.658, 2510.070
257.027, 1807.613
258.395, 1325.098
259.763, 1232.522
261.131, 1319.889
262.499, 1292.978
263.867, 1135.940
265.234, 1028.752
266.601, 572.023
267.968, 275.384
269.334, 48.798
270.701, 47.777
272.067, 197.491
273.433, 151.065
274.799, 257.834
276.164, 224.711
277.530, 81.703
278.895, 188.787
280.260, 176.003
281.624, 253.349
282.989, 180.850
284.353, 98.224
285.717, 55.016
287.080, 2.642
288.444, 39.371
289.807, 71.276
291.170, 133.079
292.533, 84.782
293.896, 3.622
295.258, 147.849
296.620, 249.219
297.982, 510.502
299.344, 871.693
300.705, 1222.801
302.067, 1453.824
303.428, 1514.763
304.789, 1185.618
306.149, 1076.379
307.510, 927.027
308.870, 1047.551
310.230, 867.942
311.589, 1008.201
312.949, 728.330
314.308, 538.334
315.667, 478.212
317.026, 277.968
318.385, 289.039
319.743, 237.123
321.101, 306.503
322.459, 225.764
323.817, 214.904
325.174, 303.928
326.532, 272.841
327.889, 221.645
329.246, 410.367
330.602, 449.075
331.958, 587.894
333.315, 546.658
334.671, 475.556
336.026, 524.469
337.382, 573.541
338.737, 842.735
340.092, 1031.884
341.447, 1410.947
342.802, 1840.009
344.156, 2128.362
345.510, 2526.759
346.864, 2924.315
348.218, 3711.651
349.571, 4258.604
350.925, 4835.115
352.278, 4771.300
353.630, 4157.088
354.983, 3392.559
356.336, 2747.816
357.688, 2362.931
359.040, 2097.927
360.391, 2152.778
361.743, 2397.559
363.094, 3182.297
364.445, 4396.990
365.796, 6441.639
367.147, 8556.243
368.497, 10010.804
369.847, 9475.310
371.197, 8219.749
372.547, 6564.104
373.897, 5168.379
375.246, 4212.574
376.595, 3336.687
377.944, 2860.738
379.293, 2364.732
380.641, 2169.029
381.989, 1793.400
383.337, 1997.519
384.685, 2052.219
386.032, 2616.878
387.380, 3501.533
388.727, 4706.605
390.074, 7072.525
391.421, 10556.926
392.767, 13071.869
394.113, 13467.856
395.459, 11872.131
396.805, 8927.171
398.151, 5792.035
399.496, 3851.758
400.841, 2786.493
402.186, 2140.896
403.531, 1965.707
404.875, 1910.113
406.219, 2017.104
407.564, 2074.177
408.907, 2830.760
410.251, 3927.523
411.594, 5091.607
412.937, 6756.020
414.280, 8450.108
415.623, 8524.161
416.966, 8118.261
418.308, 6761.941
419.650, 5395.962
420.992, 3599.902
422.334, 2883.637
423.675, 2177.166
425.016, 1640.636
426.357, 1493.670
427.698, 1326.478
429.038, 1369.430
430.379, 1530.187
431.719, 1937.399
433.059, 2638.852
434.399, 3370.928
435.738, 3825.562
437.077, 3126.394
438.416, 2308.360
439.755, 1377.166
441.094, 998.774
442.432, 641.507
443.770, 619.329
445.108, 522.468
446.446, 339.799
447.783, 499.706
449.121, 603.112
450.458, 578.428
451.795, 714.893
453.131, 632.482
454.468, 968.707
455.804, 1201.243
457.140, 1728.905
458.476, 2299.708
459.811, 3479.820
461.146, 4501.057
462.482, 4972.366
463.816, 5233.170
465.151, 4513.883
466.486, 3614.442
467.820, 2895.228
469.154, 1975.700
470.488, 1546.094
471.821, 1276.432
473.155, 906.715
474.488, 796.630
475.821, 705.692
477.154, 604.444
478.486, 481.776
479.818, 509.148
481.150, 655.886
482.482, 523.287
483.814, 779.769
485.145, 746.056
486.477, 613.287
487.808, 620.206
489.138, 456.436
490.469, 434.382
491.799, 382.438
493.129, 371.023
494.459, 314.812
495.789, 287.388
497.119, 225.542
498.448, 173.846
499.777, 163.146
501.106, 162.390
502.434, 141.594
503.763, 290.741
505.091, 259.839
506.419, 478.898
507.747, 467.912
509.074, 596.888
510.402, 975.835
511.729, 1124.749
513.056, 1323.642
514.383, 1612.503
515.709, 2041.346
517.035, 2090.193
518.361, 2169.006
519.687, 2347.849
521.013, 2146.664
522.338, 2165.465
523.663, 2494.232
524.988, 2992.964
526.313, 3501.685
527.638, 3930.372
528.962, 4189.024
530.286, 3827.665
531.610, 2836.297
532.934, 2174.908
534.257, 1323.492
535.581, 1132.047
536.904, 730.576
538.227, 629.071
539.549, 297.535
540.872, 265.963
542.194, 314.351
543.516, 162.705
544.838, 161.018
546.159, 149.294
547.480, 37.529
548.802, 24.272
550.123, 173.870
551.443, 31.975
552.764, 29.969
554.084, 168.030
555.404, 4.010
556.724, 3.908
558.044, 98.220
559.363, 9.562
560.682, 77.295
562.001, 5.013
563.320, 52.631
564.639, 59.764
565.957, 62.225
567.275, 54.758
568.593, 59.147
569.911, 69.976
571.228, 2.733
572.546, 44.510
573.863, 41.734
575.180, 17.993
576.496, 106.046
577.813, 13.140
579.129, 20.190
580.445, 57.194
581.761, 94.155
583.076, 91.074
584.392, 177.951
585.707, 214.790
587.022, 21.589
588.337, 138.346
589.651, 5.072
590.966, 71.780
592.280, 38.493
593.594, 95.253
594.907, 67.951
596.221, 51.118
597.534, 55.748
598.847, 142.631
600.160, 39.562
601.473, 26.533
602.785, 26.435
604.097, 30.373
605.409, 36.494
606.721, 6.660
608.033, 10.771
609.344, 2.151
610.655, 55.356
611.966, 92.392
613.277, 40.219
614.588, 47.236
615.898, 45.229
617.208, 192.214
618.518, 179.320
619.828, 147.343
621.137, 254.816
622.446, 262.160
623.755, 299.795
625.064, 217.344
626.373, 278.544
627.681, 301.395
628.990, 338.143
630.298, 415.517
631.605, 452.179
632.913, 549.978
634.220, 497.188
635.527, 553.733
636.834, 622.386
638.141, 769.498
639.448, 926.499
640.754, 994.117
642.060, 1071.187
643.366, 1362.000
644.672, 1439.139
645.977, 1767.039
647.283, 2075.269
648.588, 2312.372
649.892, 2869.359
651.197, 3316.314
652.502, 3542.549
653.806, 3668.896
655.110, 3764.875
656.414, 3850.611
657.717, 3996.286
659.021, 4435.119
660.324, 5220.633
661.627, 6087.118
662.930, 7515.547
664.232, 9462.369
665.534, 12150.097
666.837, 16610.066
668.138, 22198.285
669.440, 31438.646
670.742, 41086.703
672.043, 48707.484
673.344, 49573.160
674.645, 46859.891
675.946, 38081.699
677.246, 28959.947
678.546, 21520.377
679.846, 15636.992
681.146, 11883.111
682.446, 9694.551
683.745, 7990.930
685.045, 6857.268
686.344, 6438.506
687.642, 5660.328
688.941, 5979.169
690.239, 5316.873
691.538, 4873.533
692.836, 4141.176
694.133, 3397.203
695.431, 2973.405
696.728, 2489.002
698.025, 2113.807
699.322, 2049.540
700.619, 1714.483
701.916, 1650.056
703.212, 1344.758
704.508, 1290.306
705.804, 1253.752
707.100, 1198.558
708.395, 1002.110
709.690, 974.875
710.985, 739.445
712.280, 804.734
713.575, 688.348
714.869, 727.152
716.164, 640.699
717.458, 695.004
718.751, 488.281
720.045, 683.475
721.338, 604.879
722.632, 605.709
723.925, 657.246
725.217, 348.277
726.510, 592.289
727.802, 485.314
729.095, 584.555
730.386, 597.791
731.678, 440.818
732.970, 644.947
734.261, 678.578
735.552, 711.670
736.843, 1064.811
738.134, 1128.416
739.424, 1301.486
740.715, 1375.773
742.005, 1388.986
743.295, 1151.779
744.584, 1275.332
745.874, 1147.594
747.163, 1820.088
748.452, 2052.738
749.741, 2405.938
751.030, 2195.426
752.318, 1935.711
753.607, 1517.986
754.895, 980.592
756.182, 932.732
757.470, 614.785
758.758, 535.934
760.045, 477.934
761.332, 499.930
762.619, 231.576
763.905, 403.389
765.192, 205.053
766.478, 436.977
767.764, 119.020
769.050, 390.803
770.335, 182.576
771.621, 192.549
772.906, 264.846
774.191, 37.051
775.475, 159.078
776.760, 181.512
778.044, 103.936
779.329, 116.412
780.613, 145.678
781.896, 370.920
783.180, 283.262
784.463, 125.564
785.746, 287.820
787.029, 20.037
788.312, 142.201
789.594, 294.318
790.877, 3.602
792.159, 148.416
793.441, 170.391
794.722, 22.318
796.004, 144.195
797.285, 43.975
798.566, 117.779
799.847, 9.484
801.128, 1.133
802.408, 82.725
803.689, 54.271
804.969, 45.771
806.249, 157.227
807.528, 98.641
808.808, 120.014
810.087, 121.344
811.366, 119.906
812.645, 36.111
813.923, 125.074
815.202, 36.221
816.480, 22.680
817.758, 88.359
819.036, 2.797
820.314, 39.102
821.591, 7.887
822.868, 47.084
824.145, 6.359
825.422, 55.617
826.699, 134.979
827.975, 45.523
829.251, 234.045
830.527, 13.787
831.803, 53.588
833.079, 36.637
834.354, 146.713
835.629, 72.990
836.904, 67.156
838.179, 67.057
839.454, 72.387
840.728, 82.627
842.002, 32.916
843.276, 13.008
844.550, 6.574
845.824, 13.881
847.097, 75.602
848.370, 25.047
849.643, 74.451
850.916, 223.816
852.188, 43.152
853.461, 72.447
854.733, 1.703
856.005, 100.910
857.277, 9.916
858.548, 59.211
859.820, 78.307
861.091, 227.367
862.362, 146.396
863.633, 105.396
864.903, 15.609
866.173, 153.338
867.444, 122.256
868.713, 161.166
869.983, 40.041
871.253, 168.883
872.522, 12.303
873.791, 56.461
875.060, 155.205
876.329, 83.930
877.597, 142.635
878.866, 51.318
880.134, 189.967
881.402, 91.408
882.670, 187.139
883.937, 205.652
885.204, 24.139
886.472, 42.586
887.739, 171.002
889.005, 189.395
890.272, 107.758
891.538, 226.088
892.804, 14.391
894.070, 312.656
895.336, 200.891
896.601, 129.100
897.867, 297.275
899.132, 365.428
900.397, 223.547
901.662, 141.641
902.926, 449.701
904.190, 517.748
905.455, 445.777
906.718, 343.777
907.982, 417.602
909.246, 423.789
910.509, 477.623
911.772, 595.523
913.035, 613.396
914.298, 741.242
915.560, 808.725
916.823, 1016.518
918.085, 1201.582
919.347, 1501.588
920.608, 1758.496
921.870, 2096.184
923.131, 2583.301
924.392, 3520.447
925.653, 4767.865
926.914, 6224.301
928.175, 7431.215
929.435, 8438.191
930.695, 8034.809
931.955, 7471.445
933.215, 5498.174
934.474, 4255.562
935.734, 3382.799
936.993, 2679.344
938.252, 2346.535
939.511, 2122.527
940.769, 2189.045
942.027, 2266.166
943.286, 2751.109
944.544, 3127.551
945.801, 3554.057
947.059, 3479.891
948.316, 2966.219
949.573, 2498.758
950.830, 2044.912
952.087, 1440.256
953.344, 1045.203
954.600, 1191.625
955.856, 817.971
957.112, 833.992
958.368, 670.947
959.623, 737.322
960.879, 453.541
962.134, 630.814
963.389, 376.746
964.644, 500.293
965.898, 626.799
967.153, 442.268
968.407, 377.113
969.661, 153.312
970.915, 308.748
972.168, 211.004
973.422, 425.123
974.675, 307.592
975.928, 272.875
977.181, 275.078
978.433, 274.490
979.686, 350.812
980.938, 322.365
982.190, 318.164
983.442, 239.160
984.693, 285.447
985.945, 201.727
987.196, 212.553
988.447, 388.207
989.698, 93.287
990.949, 333.400
992.199, 403.846
993.449, 197.020
994.699, 321.430
995.949, 338.973
997.199, 473.152
998.448, 399.508
999.697, 536.473
1000.947, 493.104
1002.195, 631.020
1003.444, 586.469
1004.693, 712.100
1005.941, 717.162
1007.189, 833.662
1008.437, 948.152
1009.684, 1104.861
1010.932, 1240.605
1012.179, 1367.496
1013.426, 1583.188
1014.673, 1935.879
1015.920, 2230.404
1017.166, 3156.721
1018.413, 3563.994
1019.659, 4099.586
1020.905, 4545.590
1022.151, 5371.863
1023.396, 7146.277
1024.641, 9322.297
1025.887, 11778.625
1027.132, 14654.668
1028.376, 15160.477
1029.621, 13806.297
1030.865, 10853.811
1032.109, 8104.691
1033.353, 5730.652
1034.597, 4266.297
1035.841, 3332.004
1037.084, 2627.977
1038.327, 2385.197
1039.570, 2052.119
1040.813, 1777.420
1042.056, 1874.242
1043.298, 1858.969
1044.540, 1905.668
1045.782, 1982.455
1047.024, 2169.660
1048.266, 2354.145
1049.507, 2689.572
1050.748, 3385.305
1051.990, 3780.811
1053.230, 5166.904
1054.471, 7302.809
1055.711, 9868.271
1056.952, 13674.258
1058.192, 16800.895
1059.432, 18606.631
1060.671, 16702.434
1061.911, 12877.631
1063.150, 9602.887
1064.389, 7569.291
1065.628, 6034.125
1066.867, 5470.742
1068.105, 5516.416
1069.344, 5101.277
1070.582, 4556.715
1071.820, 3861.629
1073.058, 3016.982
1074.295, 2361.945
1075.532, 2017.348
1076.770, 1582.062
1078.007, 1336.926
1079.243, 1162.039
1080.480, 1058.023
1081.716, 1020.564
1082.953, 1084.684
1084.189, 1159.701
1085.424, 1224.406
1086.660, 1019.219
1087.895, 1023.678
1089.131, 1138.160
1090.366, 932.293
1091.601, 987.168
1092.835, 820.193
1094.070, 615.707
1095.304, 529.488
1096.538, 533.715
1097.772, 548.469
1099.005, 432.090
1100.239, 386.533
1101.472, 380.629
1102.705, 265.176
1103.938, 250.293
1105.171, 313.043
1106.404, 195.824
1107.636, 269.674
1108.868, 322.750
1110.100, 66.434
1111.332, 380.270
1112.563, 182.748
1113.795, 236.811
1115.026, 389.182
1116.257, 32.584
1117.488, 254.510
1118.718, 206.652
1119.949, 510.012
1121.179, 375.967
1122.409, 244.865
1123.639, 107.508
1124.868, 180.855
1126.098, 57.195
1127.327, 135.744
1128.556, 47.520
1129.785, 130.551
1131.014, 223.193
1132.242, 114.725
1133.470, 222.055
1134.699, 239.682
1135.927, 282.207
1137.154, 414.455
1138.382, 415.594
1139.609, 191.506
1140.836, 231.090
1142.063, 194.225
1143.290, 52.469
1144.517, 242.436
1145.743, 95.445
1146.969, 23.145
1148.195, 18.656
1149.421, 28.986
1150.647, 264.762
1151.872, 246.105
1153.097, 218.236
1154.322, 61.729
1155.547, 72.715
1156.772, 105.266
1157.996, 205.916
1159.221, 77.236
1160.445, 278.793
1161.669, 130.756
1162.892, 129.898
1164.116, 121.559
1165.339, 26.281
1166.562, 314.400
1167.785, 101.578
1169.008, 163.799
1170.231, 224.973
1171.453, 108.205
1172.675, 128.068
1173.897, 138.475
1175.119, 249.279
1176.341, 168.895
1177.562, 11.244
1178.783, 48.527
1180.004, 262.178
1181.225, 354.393
1182.446, 153.525
1183.666, 104.846
1184.887, 0.371
1186.107, 38.723
1187.327, 351.781
1188.546, 100.943
1189.766, 416.268
1190.985, 224.727
1192.204, 130.248
1193.423, 458.637
1194.642, 256.162
1195.861, 534.109
1197.079, 387.643
1198.297, 357.543
1199.515, 382.695
1200.733, 418.641
1201.951, 515.225
1203.168, 380.771
1204.385, 217.520
1205.602, 425.654
1206.819, 402.369
1208.036, 537.158
1209.253, 513.090
1210.469, 227.816
1211.685, 590.791
1212.901, 156.311
1214.117, 371.479
1215.332, 554.902
1216.548, 413.316
1217.763, 526.846
1218.978, 410.387
1220.193, 496.133
1221.407, 379.367
1222.622, 532.400
1223.836, 485.197
1225.050, 577.756
1226.264, 480.787
1227.477, 553.529
1228.691, 616.047
1229.904, 388.621
1231.117, 450.861
1232.330, 412.625
1233.543, 485.041
1234.755, 466.268
1235.968, 538.541
1237.180, 353.527
1238.392, 863.447
1239.604, 184.850
1240.815, 575.111
1242.027, 455.275
1243.238, 316.131
1244.449, 575.801
1245.660, 366.273
1246.871, 437.760
1248.081, 316.611
1249.291, 476.221
1250.501, 406.818
1251.711, 694.291
1252.921, 423.078
1254.131, 590.670
1255.340, 428.627
1256.549, 377.385
1257.758, 684.527
1258.967, 291.186
1260.175, 679.834
1261.384, 416.551
1262.592, 752.916
1263.800, 539.975
1265.008, 376.221
1266.216, 334.756
1267.423, 740.615
1268.630, 507.775
1269.838, 305.162
1271.044, 630.064
1272.251, 382.209
1273.458, 647.004
1274.664, 340.844
1275.870, 414.955
1277.076, 639.637
1278.282, 393.027
1279.488, 357.475
1280.693, 320.525
1281.898, 414.199
1283.103, 488.477
1284.308, 241.232
1285.513, 258.969
1286.717, 150.938
1287.922, 151.453
1289.126, 41.363
1290.330, 161.926
1291.534, 421.662
1292.737, 300.814
1293.940, 201.547
1295.144, 69.520
1296.347, 330.270
1297.549, 189.420
1298.752, 68.318
1299.955, 336.256
1301.157, 116.369
1302.359, 364.047
1303.561, 222.604
1304.762, 179.680
1305.964, 327.473
1307.165, 247.766
1308.366, 124.408
1309.567, 80.762
1310.768, 94.219
1311.969, 40.074
1313.169, 58.754
1314.369, 114.180
1315.569, 20.078
1316.769, 224.775
1317.969, 100.682
1319.168, 103.562
1320.368, 92.006
1321.567, 161.738
1322.766, 154.098
1323.965, 3.164
1325.163, 20.176
1326.361, 183.863
1327.560, 36.203
1328.758, 41.594
1329.955, 249.229
1331.153, 169.842
1332.351, 112.098
1333.548, 207.271
1334.745, 144.291
1335.942, 215.186
1337.139, 124.525
1338.335, 195.363
1339.531, 135.113
1340.728, 34.211
1341.923, 25.562
1343.119, 65.070
1344.315, 304.092
1345.510, 193.711
1346.706, 322.951
1347.901, 141.395
1349.095, 48.908
1350.290, 117.037
1351.485, 344.830
1352.679, 152.961
1353.873, 280.766
1355.067, 657.205
1356.261, 145.615
1357.454, 161.266
1358.648, 427.570
1359.841, 4.432
1361.034, 320.461
1362.227, 276.998
1363.420, 62.602
1364.612, 268.285
1365.804, 274.727
1366.996, 290.117
1368.188, 305.100
1369.380, 209.869
1370.572, 221.955
1371.763, 236.596
1372.954, 216.951
1374.145, 242.836
1375.336, 298.869
1376.527, 195.117
1377.717, 369.379
1378.907, 183.408
1380.098, 27.879
1381.287, 591.162
1382.477, 244.699
1383.667, 449.002
1384.856, 442.559
1386.045, 265.996
1387.234, 498.703
1388.423, 282.055
1389.612, 153.883
1390.800, 596.148
1391.988, 276.797
1393.176, 148.117
1394.364, 789.047
1395.552, 290.016
1396.740, 609.133
1397.927, 537.844
1399.114, 176.105
1400.301, 711.988
1401.488, 584.215
1402.675, 210.406
1403.861, 696.055
1405.047, 379.555
1406.233, 391.410
1407.419, 495.098
1408.605, 209.965
1409.791, 673.812
1410.976, 246.184
1412.161, 132.637
1413.346, 522.582
1414.531, 608.414
1415.715, 374.430
1416.900, 438.723
1418.084, 407.680
1419.268, 296.008
1420.452, 441.195
1421.636, 240.039
1422.819, 483.473
1424.003, 272.797
1425.186, 169.812
1426.369, 465.055
1427.552, 44.430
1428.734, 308.199
1429.917, 454.422
1431.099, 244.391
1432.281, 478.688
1433.463, 472.969
1434.645, 359.625
1435.826, 104.562
1437.008, 571.617
1438.189, 161.883
1439.370, 756.230
1440.551, 450.719
1441.731, 542.668
1442.912, 34.223
1444.092, 586.188
1445.272, 287.051
1446.452, 598.184
1447.632, 410.027
1448.811, 591.902
1449.991, 441.562
1451.170, 425.770
1452.349, 604.641
1453.528, 471.309
1454.706, 168.695
1455.885, 481.980
1457.063, 271.941
1458.241, 656.043
1459.419, 358.805
1460.597, 348.859
1461.775, 630.766
1462.952, 447.727
1464.129, 451.047
1465.306, 423.016
1466.483, 703.406
1467.660, 243.840
1468.836, 752.465
1470.012, 177.449
1471.189, 601.371
1472.365, 1204.535
1473.540, 568.926
1474.716, 408.398
1475.891, 809.199
1477.067, 384.137
1478.242, 389.047
1479.416, 740.211
1480.591, 333.387
1481.766, 486.523
1482.940, 389.320
1484.114, 427.055
1485.288, 476.586
1486.462, 48.141
1487.635, 579.965
1488.809, 451.812
1489.982, 492.199
1491.155, 1011.984
1492.328, 894.781
1493.501, 277.523
1494.673, 480.387
1495.846, 123.785
1497.018, 2.762
1498.190, 420.938
1499.362, 229.094
1500.533, 323.281
1501.705, 618.188
1502.876, 63.680
1504.047, 210.898
1505.218, 519.637
1506.389, 5.391
1507.560, 190.719
1508.730, 192.797
1509.900, 40.770
1511.070, 0.000
##END=



