##NAMES=Tremolite
##RRUFFID=R040045
##IDEAL CHEMISTRY=[box]Ca_2_Mg_5_Si_8_O_22_(OH)_2_
##LOCALITY=Gouverneur, New York, USA
##OWNER=RRUFF
##SOURCE=University of Arizona Mineral Museum
##DESCRIPTION=Group of colorless acicular single crystals
##STATUS=The identification of this mineral has been confirmed by X-ray diffraction and chemical analysis
##URL=rruff.info/R040045
##MEASURED CHEMISTRY=Ca_2.01_(Mg_0.99_Fe_0.01_)_5_(Si_0.99_Fe_0.01_)_8_O_22_(OH)_2_
##PIN_ID=L00397
##ORIENTATION=Laser parallel to [-1 0 -1]. Fiducial mark perpendicular to laser is parallel to -b* (0 -1 0)
105.212, 0.000
106.604, 1.389
107.995, 146.464
109.387, 53.110
110.777, 45.248
112.168, 121.229
113.559, 240.021
114.949, 320.935
116.339, 353.645
117.729, 487.852
119.119, 453.198
120.508, 509.496
121.897, 386.589
123.286, 384.349
124.675, 172.661
126.063, 151.472
127.452, 102.748
128.840, 102.737
130.228, 84.833
131.615, 144.057
133.003, 45.183
134.390, 96.566
135.777, 18.176
137.164, 49.965
138.550, 111.893
139.937, 113.931
141.323, 129.683
142.709, 158.240
144.094, 120.478
145.480, 82.751
146.865, 66.123
148.250, 18.889
149.635, 16.093
151.019, 1.168
152.403, 66.067
153.788, 0.755
155.171, 135.251
156.555, 389.580
157.939, 773.758
159.322, 1597.801
160.705, 2481.740
162.088, 2495.831
163.470, 1990.014
164.853, 2254.115
166.235, 1368.096
167.617, 251.964
168.998, 285.726
170.380, 139.389
171.761, 232.958
173.142, 356.439
174.523, 649.837
175.904, 1123.153
177.284, 1936.396
178.664, 2979.567
180.044, 3082.672
181.424, 2335.716
182.803, 1348.708
184.183, 661.649
185.562, 364.543
186.940, 85.696
188.319, 95.753
189.698, 19.469
191.076, 225.192
192.454, 66.520
193.831, 187.827
195.209, 167.710
196.586, 162.417
197.963, 227.422
199.340, 214.862
200.717, 276.177
202.093, 187.568
203.470, 158.985
204.846, 300.431
206.221, 221.910
207.597, 423.457
208.972, 365.061
210.347, 546.688
211.722, 698.330
213.097, 800.055
214.472, 1232.094
215.846, 1524.473
217.220, 2130.372
218.594, 2723.480
219.967, 4046.530
221.341, 6200.810
222.714, 8462.864
224.087, 10414.409
225.460, 9825.961
226.832, 8657.519
228.204, 8009.078
229.577, 9050.636
230.948, 11942.193
232.320, 14653.736
233.692, 16835.270
235.063, 15106.800
236.434, 12008.318
237.805, 8029.828
239.175, 5331.328
240.545, 3532.819
241.916, 2404.300
243.286, 2075.771
244.655, 1847.232
246.025, 2028.685
247.394, 2780.128
248.763, 3591.594
250.132, 5333.051
251.501, 5774.503
252.869, 5635.971
254.237, 4437.447
255.605, 3139.057
256.973, 2500.668
258.340, 1622.287
259.708, 1213.914
261.075, 775.557
262.442, 757.196
263.808, 518.822
265.175, 330.438
266.541, 352.061
267.907, 126.288
269.273, 95.331
270.639, 203.146
272.004, 131.512
273.369, 89.724
274.734, 97.841
276.099, 54.100
277.463, 66.112
278.828, 208.182
280.192, 180.301
281.556, 202.463
282.919, 224.656
284.283, 53.122
285.646, 329.104
287.009, 8.648
288.372, 113.872
289.734, 236.153
291.097, 138.654
292.459, 201.364
293.821, 173.650
295.183, 171.710
296.544, 234.554
297.905, 196.847
299.266, 359.438
300.627, 331.732
301.988, 884.361
303.348, 776.693
304.709, 1039.481
306.069, 882.629
307.428, 725.070
308.788, 982.689
310.147, 724.945
311.507, 837.781
312.865, 820.310
314.224, 772.512
315.583, 575.040
316.941, 337.203
318.299, 414.652
319.657, 196.775
321.015, 128.882
322.372, 80.969
323.729, 43.037
325.086, 135.088
326.443, 2.881
327.800, 59.121
329.156, 68.897
330.512, 23.037
331.868, 35.427
333.224, 67.318
334.579, 9.302
335.935, 131.309
337.290, 123.141
338.645, 76.159
339.999, 198.128
341.354, 399.912
342.708, 441.900
344.062, 703.711
345.416, 535.636
346.769, 697.421
348.123, 849.131
349.476, 1020.826
350.829, 1632.428
352.182, 1793.900
353.534, 2385.225
354.887, 2186.479
356.239, 2057.725
357.591, 1668.965
358.942, 1240.158
360.294, 1241.329
361.645, 1032.492
362.996, 1103.646
364.347, 1544.792
365.698, 2005.931
367.048, 3197.061
368.398, 4798.184
369.748, 6869.295
371.098, 7700.397
372.448, 6711.492
373.797, 4802.576
375.146, 3233.649
376.495, 2384.713
377.844, 1915.767
379.192, 1506.805
380.540, 1417.812
381.889, 1038.761
383.236, 1159.693
384.584, 1111.054
385.932, 1311.950
387.279, 1472.838
388.626, 1997.013
389.973, 2797.880
391.319, 3919.133
392.666, 5869.979
394.012, 7851.601
395.358, 9163.136
396.704, 8443.995
398.049, 6049.158
399.394, 4389.951
400.740, 2631.344
402.084, 1957.354
403.429, 1658.191
404.774, 1489.235
406.118, 1453.521
407.462, 1214.598
408.806, 1696.128
410.150, 1766.832
411.493, 2431.972
412.836, 3442.736
414.179, 4716.145
415.522, 6086.816
416.865, 6717.609
418.207, 6528.730
419.549, 5279.346
420.891, 4040.665
422.233, 2921.520
423.575, 2022.094
424.916, 1578.026
426.257, 1218.572
427.598, 1014.681
428.939, 895.383
430.279, 666.770
431.619, 908.129
432.959, 925.028
434.299, 1497.174
435.639, 1953.230
436.978, 2336.316
438.318, 2597.080
439.657, 1687.462
440.996, 1228.572
442.334, 859.590
443.673, 480.226
445.011, 381.271
446.349, 297.495
447.687, 308.610
449.024, 127.663
450.361, 188.218
451.699, 139.016
453.036, 89.764
454.372, 380.795
455.709, 58.308
457.045, 62.076
458.381, 303.077
459.717, 123.737
461.053, 345.149
462.388, 115.330
463.724, 186.131
465.059, 76.546
466.394, 27.202
467.728, 157.596
469.063, 52.476
470.397, 257.388
471.731, 57.589
473.065, 67.411
474.398, 247.593
475.732, 117.385
477.065, 247.601
478.398, 52.646
479.731, 217.045
481.063, 286.717
482.396, 256.389
483.728, 416.003
485.060, 215.206
486.391, 544.839
487.723, 471.926
489.054, 311.205
490.385, 354.087
491.716, 82.467
493.047, 241.295
494.377, 170.541
495.708, 158.188
497.038, 377.657
498.368, 7.068
499.697, 156.247
501.027, 215.695
502.356, 145.128
503.685, 184.541
505.014, 153.934
506.342, 183.980
507.671, 228.684
508.999, 282.008
510.327, 321.345
511.655, 410.661
512.982, 429.969
514.310, 559.261
515.637, 908.535
516.964, 897.864
518.291, 1077.176
519.617, 1566.472
520.944, 1395.754
522.270, 1505.019
523.596, 1494.287
524.921, 1363.538
526.247, 1782.774
527.572, 1871.996
528.897, 2271.200
530.222, 2280.420
531.547, 2179.618
532.871, 1728.803
534.196, 1287.970
535.520, 987.119
536.844, 546.262
538.167, 375.387
539.491, 454.492
540.814, 223.602
542.137, 442.695
543.460, 101.773
544.783, 280.830
546.105, 239.871
547.427, 31.098
548.749, 277.881
550.071, 116.846
551.393, 235.787
552.714, 24.709
554.035, 43.609
555.356, 202.482
556.677, 48.662
557.998, 220.139
559.318, 68.918
560.638, 222.320
561.958, 196.289
563.278, 144.883
564.597, 36.545
565.917, 131.979
567.236, 21.477
568.555, 249.984
569.874, 51.523
571.192, 196.914
572.511, 24.670
573.829, 213.703
575.147, 182.059
576.464, 100.396
577.782, 318.709
579.099, 47.000
580.416, 155.498
581.733, 323.773
583.050, 67.973
584.366, 290.223
585.683, 71.605
586.999, 176.500
588.315, 224.584
589.630, 12.688
590.946, 130.762
592.261, 1.129
593.576, 23.010
594.891, 215.090
596.206, 123.203
597.520, 221.291
598.834, 49.357
600.148, 67.393
601.462, 155.402
602.776, 53.385
604.089, 81.340
605.402, 29.287
606.715, 55.295
608.028, 154.840
609.341, 92.805
610.653, 100.814
611.965, 28.201
613.277, 56.389
614.589, 158.377
615.901, 5.557
617.212, 84.201
618.523, 8.424
619.834, 189.631
621.145, 37.014
622.456, 124.730
623.766, 62.449
625.076, 119.107
626.386, 247.330
627.696, 279.826
629.006, 137.432
630.315, 315.281
631.624, 132.129
632.933, 512.416
634.242, 119.420
635.551, 357.791
636.859, 250.900
638.167, 238.180
639.475, 520.254
640.783, 188.479
642.090, 455.684
643.398, 706.344
644.705, 473.506
646.012, 881.984
647.318, 620.246
648.625, 937.959
649.931, 1360.672
651.237, 948.277
652.543, 1516.363
653.849, 1514.164
655.155, 1751.420
656.460, 1768.020
657.765, 1785.533
659.070, 2083.559
660.375, 2220.906
661.679, 2657.840
662.984, 2985.652
664.288, 3632.445
665.592, 4851.512
666.895, 5810.918
668.199, 7757.699
669.502, 10826.699
670.805, 14284.234
672.108, 20231.689
673.411, 24255.576
674.713, 27202.230
676.016, 26470.041
677.318, 21537.604
678.620, 17234.926
679.921, 12686.320
681.223, 9323.480
682.524, 7131.027
683.825, 5248.662
685.126, 4305.762
686.427, 3629.734
687.727, 3156.150
689.028, 2953.775
690.328, 2310.732
691.628, 2497.533
692.927, 2036.705
694.227, 1753.391
695.526, 1660.041
696.825, 1211.832
698.124, 1378.246
699.423, 955.971
700.721, 1022.490
702.020, 1039.219
703.318, 757.178
704.616, 909.947
705.913, 556.988
707.211, 613.139
708.508, 719.119
709.805, 425.438
711.102, 520.650
712.399, 647.266
713.695, 379.369
714.992, 375.631
716.288, 472.088
717.584, 652.918
718.879, 359.418
720.175, 485.922
721.470, 448.723
722.765, 52.713
724.060, 547.523
725.355, 334.277
726.649, 396.975
727.944, 592.432
729.238, 296.686
730.532, 342.709
731.825, 368.820
733.119, 404.430
734.412, 639.832
735.705, 242.969
736.998, 718.043
738.291, 483.357
739.584, 525.398
740.876, 880.652
742.168, 410.965
743.460, 947.143
744.752, 642.311
746.043, 847.154
747.334, 1122.047
748.626, 1016.430
749.916, 1579.020
751.207, 1614.012
752.498, 1559.500
753.788, 1364.457
755.078, 768.697
756.368, 922.945
757.658, 427.531
758.947, 551.662
760.237, 505.879
761.526, 359.842
762.815, 383.887
764.104, 268.316
765.392, 202.455
766.680, 406.592
767.969, 200.395
769.257, 304.281
770.544, 418.609
771.832, 72.266
773.119, 316.213
774.406, 199.355
775.693, 273.680
776.980, 257.332
778.267, 141.320
779.553, 375.010
780.839, 88.910
782.125, 213.223
783.411, 267.525
784.697, 61.436
785.982, 485.670
787.267, 30.506
788.552, 313.641
789.837, 57.311
791.122, 41.389
792.406, 395.449
793.690, 60.518
794.974, 73.441
796.258, 327.201
797.542, 38.906
798.825, 354.922
800.108, 8.760
801.391, 42.559
802.674, 176.314
803.957, 79.957
805.239, 193.689
806.522, 47.303
807.804, 100.875
809.085, 264.408
810.367, 127.908
811.649, 151.377
812.930, 64.809
814.211, 168.213
815.492, 302.348
816.772, 55.693
818.053, 399.010
819.333, 16.635
820.613, 23.379
821.893, 369.820
823.173, 16.625
824.452, 136.504
825.732, 150.791
827.011, 255.658
828.290, 447.213
829.568, 50.996
830.847, 103.848
832.125, 157.580
833.403, 58.422
834.681, 184.344
835.959, 88.678
837.236, 61.373
838.514, 186.006
839.791, 101.027
841.068, 381.504
842.345, 46.281
843.621, 198.740
844.898, 231.266
846.174, 26.338
847.450, 246.078
848.726, 248.457
850.001, 69.197
851.277, 293.109
852.552, 6.494
853.827, 148.727
855.102, 202.020
856.376, 5.820
857.651, 386.309
858.925, 108.418
860.199, 220.486
861.473, 402.523
862.746, 74.525
864.020, 386.496
865.293, 168.445
866.566, 210.354
867.839, 252.281
869.112, 54.174
870.384, 286.027
871.656, 157.914
872.928, 99.764
874.200, 201.582
875.472, 116.621
876.744, 434.107
878.015, 85.783
879.286, 17.420
880.557, 569.035
881.828, 30.619
883.098, 232.166
884.369, 173.688
885.639, 205.168
886.909, 396.611
888.178, 111.973
889.448, 489.141
890.717, 430.420
891.987, 8.318
893.256, 452.912
894.524, 214.113
895.793, 95.297
897.061, 486.439
898.330, 237.586
899.598, 338.699
900.865, 269.781
902.133, 410.834
903.401, 471.863
904.668, 162.857
905.935, 543.811
907.202, 374.729
908.468, 415.619
909.735, 556.473
911.001, 437.297
912.267, 468.096
913.533, 768.863
914.799, 529.607
916.064, 610.316
917.330, 600.881
918.595, 851.131
919.860, 1101.732
921.124, 821.898
922.389, 1372.436
923.653, 1322.930
924.918, 1632.443
926.182, 2222.865
927.445, 2412.838
928.709, 3123.076
929.972, 4303.203
931.236, 4352.805
932.499, 5053.031
933.761, 4162.326
935.024, 3642.094
936.286, 3092.043
937.549, 1941.084
938.811, 2151.100
940.073, 1548.160
941.334, 1658.088
942.596, 1636.922
943.857, 1385.639
945.118, 2105.828
946.379, 2140.750
947.640, 2179.572
948.900, 2270.162
950.161, 1996.287
951.421, 1885.387
952.681, 1433.557
953.940, 1141.873
955.200, 1273.629
956.459, 786.906
957.719, 846.045
958.978, 684.723
960.236, 563.021
961.495, 992.182
962.753, 530.484
964.012, 669.590
965.270, 740.898
966.527, 239.227
967.785, 650.385
969.043, 431.184
970.300, 170.068
971.557, 732.904
972.814, 479.127
974.071, 338.312
975.327, 727.598
976.583, 145.516
977.840, 313.842
979.095, 506.123
980.351, 195.215
981.607, 545.885
982.862, 213.492
984.117, 142.162
985.372, 571.855
986.627, 89.691
987.882, 538.787
989.136, 47.090
990.390, 365.391
991.644, 698.703
992.898, 17.014
994.152, 684.648
995.405, 425.414
996.659, 583.180
997.912, 987.578
999.165, 605.344
1000.417, 733.824
1001.670, 606.338
1002.922, 204.211
1004.174, 1042.664
1005.426, 210.902
1006.678, 708.295
1007.930, 658.744
1009.181, 546.869
1010.432, 974.150
1011.683, 742.230
1012.934, 880.092
1014.185, 1178.602
1015.435, 858.043
1016.685, 1455.053
1017.935, 1201.512
1019.185, 1498.814
1020.435, 2095.648
1021.684, 2044.914
1022.934, 2751.729
1024.183, 3350.535
1025.432, 3657.471
1026.680, 5646.361
1027.929, 6667.781
1029.177, 8945.594
1030.425, 10131.508
1031.673, 9239.760
1032.921, 8315.719
1034.169, 6274.385
1035.416, 4140.869
1036.663, 3657.459
1037.911, 2636.111
1039.157, 2194.838
1040.404, 1991.994
1041.650, 1502.652
1042.897, 1817.590
1044.143, 984.848
1045.389, 1281.117
1046.634, 1366.859
1047.880, 1283.385
1049.125, 1459.527
1050.371, 1366.855
1051.615, 1393.846
1052.860, 2140.281
1054.105, 1786.871
1055.349, 2262.582
1056.593, 3048.645
1057.837, 3526.219
1059.081, 5112.082
1060.325, 5997.867
1061.568, 6666.875
1062.812, 6442.510
1064.055, 5331.223
1065.298, 4636.711
1066.540, 3932.021
1067.783, 3513.801
1069.025, 3613.236
1070.267, 3098.309
1071.509, 3214.332
1072.751, 3209.191
1073.993, 2013.969
1075.234, 2008.645
1076.475, 1693.219
1077.716, 1027.715
1078.957, 1192.066
1080.198, 746.324
1081.438, 850.309
1082.679, 964.176
1083.919, 597.932
1085.159, 1091.572
1086.398, 565.080
1087.638, 558.490
1088.877, 711.717
1090.116, 604.764
1091.355, 657.674
1092.594, 700.473
1093.833, 413.121
1095.071, 685.643
1096.309, 478.053
1097.547, 280.791
1098.785, 902.943
1100.023, 85.020
1101.260, 726.984
1102.498, 648.734
1103.735, 40.373
1104.972, 771.891
1106.208, 413.289
1107.445, 365.355
1108.681, 546.533
1109.918, 437.613
1111.154, 698.439
1112.389, 309.096
1113.625, 19.623
1114.860, 675.938
1116.096, 82.963
1117.331, 38.826
1118.566, 555.355
1119.800, 29.012
1121.035, 587.391
1122.269, 403.293
1123.503, 57.824
1124.737, 712.756
1125.971, 407.217
1127.205, 303.426
1128.438, 387.473
1129.671, 136.129
1130.904, 520.191
1132.137, 296.451
1133.370, 178.635
1134.602, 786.238
1135.834, 162.318
1137.066, 258.363
1138.298, 374.363
1139.530, 90.312
1140.762, 536.135
1141.993, 371.920
1143.224, 57.654
1144.455, 573.398
1145.686, 220.898
1146.917, 684.777
1148.147, 340.412
1149.377, 73.982
1150.607, 841.619
1151.837, 147.211
1153.067, 272.771
1154.296, 768.309
1155.526, 23.703
1156.755, 479.064
1157.984, 434.387
1159.213, 349.693
1160.441, 584.955
1161.670, 170.180
1162.898, 195.352
1164.126, 770.488
1165.354, 54.393
1166.581, 820.717
1167.809, 435.820
1169.036, 170.934
1170.263, 696.057
1171.490, 141.205
1172.717, 546.379
1173.943, 871.590
1175.170, 56.848
1176.396, 232.168
1177.622, 596.844
1178.848, 352.086
1180.073, 1025.904
1181.299, 173.828
1182.524, 543.752
1183.749, 888.557
1184.974, 233.070
1186.199, 688.309
1187.423, 795.848
1188.648, 76.879
1189.872, 896.252
1191.096, 458.590
1192.320, 637.016
1193.543, 761.289
1194.767, 46.527
1195.990, 838.311
1197.213, 243.465
1198.436, 243.002
1199.659, 982.479
1200.881, 419.490
1202.104, 393.121
1203.326, 1006.719
1204.548, 126.148
1205.770, 850.510
1206.991, 622.604
1208.213, 10.223
1209.434, 837.885
1210.655, 14.635
1211.876, 602.670
1213.096, 721.662
1214.317, 167.111
1215.537, 817.131
1216.757, 455.002
1217.977, 116.270
1219.197, 744.771
1220.417, 454.664
1221.636, 600.068
1222.855, 776.086
1224.074, 326.666
1225.293, 751.719
1226.512, 489.480
1227.731, 463.814
1228.949, 1036.146
1230.167, 297.750
1231.385, 700.213
1232.603, 337.730
1233.820, 503.355
1235.038, 599.090
1236.255, 472.906
1237.472, 440.008
1238.689, 690.953
1239.906, 153.629
1241.122, 292.504
1242.338, 820.207
1243.555, 7.219
1244.771, 586.176
1245.986, 464.535
1247.202, 42.348
1248.417, 521.715
1249.633, 412.070
1250.848, 103.363
1252.063, 957.035
1253.277, 11.219
1254.492, 208.051
1255.706, 540.676
1256.920, 69.148
1258.134, 523.562
1259.348, 0.000
##END=



