##NAMES=Tremolite
##RRUFFID=R050173
##IDEAL CHEMISTRY=[box]Ca_2_Mg_5_Si_8_O_22_(OH)_2_
##LOCALITY=Fort Dauphin, Madagascar
##OWNER=RRUFF
##SOURCE=Marcus Origlieri
##DESCRIPTION=Mass of colorless acicular crystals
##STATUS=The identification of this mineral has been confirmed by X-ray diffraction and chemical analysis
##URL=rruff.info/R050173
##MEASURED CHEMISTRY=[box]Ca_2.00_Mg_5.00_Si_8.00_O_22_(OH)_2_
##PIN_ID=L00389
##ORIENTATION=Laser parallel to a* (1 0 0). Fiducial mark perpendicular to laser is parallel to b [0 1 0]
88.374, 0.000
89.770, 2.850
91.166, 11.586
92.562, 28.252
93.958, 35.164
95.353, 6.676
96.748, 107.098
98.143, 24.545
99.538, 22.416
100.932, 285.209
102.326, 336.826
103.720, 501.887
105.114, 669.891
106.508, 510.371
107.901, 732.920
109.294, 1067.191
110.687, 1822.891
112.079, 2550.080
113.472, 3389.154
114.864, 4129.844
116.256, 4941.863
117.647, 5984.992
119.039, 7589.109
120.430, 8914.008
121.821, 9569.490
123.211, 9205.418
124.602, 7841.674
125.992, 6368.164
127.382, 4744.811
128.772, 3121.557
130.162, 2128.354
131.551, 1485.168
132.940, 1431.979
134.329, 1090.672
135.718, 1243.664
137.106, 1189.217
138.494, 1154.744
139.882, 1169.617
141.270, 964.453
142.657, 1038.834
144.045, 1002.832
145.432, 1016.654
146.819, 761.074
148.205, 795.480
149.592, 749.291
150.978, 812.494
152.364, 1015.135
153.749, 1397.238
155.135, 1738.840
156.520, 2209.963
157.905, 2410.637
159.290, 2370.881
160.674, 2150.717
162.059, 1740.164
163.443, 1459.242
164.826, 1067.967
166.210, 1016.357
167.593, 1054.432
168.977, 1432.209
170.360, 1859.705
171.742, 3246.947
173.125, 4653.986
174.507, 6160.873
175.889, 6777.623
177.271, 6494.342
178.652, 5033.688
180.034, 3546.889
181.415, 2390.668
182.796, 1663.369
184.176, 1733.479
185.557, 1767.500
186.937, 1728.736
188.317, 1920.160
189.697, 2081.855
191.076, 2349.789
192.456, 2455.164
193.835, 2520.129
195.213, 3082.160
196.592, 3035.580
197.970, 3503.826
199.349, 3669.963
200.726, 3659.021
202.104, 3884.287
203.482, 4190.188
204.859, 4145.340
206.236, 4102.689
207.613, 4207.740
208.989, 4037.689
210.366, 4027.648
211.742, 4117.609
213.118, 3897.848
214.493, 3827.953
215.869, 4337.943
217.244, 5487.934
218.619, 6537.900
219.994, 7587.828
221.368, 7557.711
222.742, 6607.551
224.117, 4987.340
225.490, 3737.086
226.864, 3546.777
228.237, 3716.418
229.611, 4086.004
230.984, 3825.529
232.356, 3484.996
233.729, 2474.420
235.101, 1843.795
236.473, 1233.135
237.845, 832.438
239.216, 481.721
240.588, 440.971
241.959, 450.197
243.330, 709.404
244.701, 728.627
246.071, 1167.949
247.441, 1587.271
248.811, 1556.623
250.181, 1365.963
251.551, 1145.262
252.920, 634.518
254.289, 616.027
255.658, 467.203
257.027, 679.281
258.395, 891.705
259.763, 1014.373
261.131, 1107.268
262.499, 1030.344
263.867, 543.818
265.234, 416.959
266.601, 80.521
267.968, 165.533
269.334, 101.938
270.701, 228.436
272.067, 284.971
273.433, 331.580
274.799, 178.289
276.164, 265.057
277.530, 71.904
278.895, 268.539
280.260, 155.553
281.624, 67.355
282.989, 20.223
284.353, 303.033
285.717, 485.807
287.080, 808.541
288.444, 701.229
289.807, 463.875
291.170, 246.475
292.533, 89.039
293.896, 31.543
295.258, 64.010
296.620, 13.584
297.982, 298.736
299.344, 420.994
300.705, 503.168
302.067, 485.258
303.428, 247.256
304.789, 109.160
306.149, 190.961
307.510, 172.668
308.870, 244.273
310.230, 105.791
311.589, 157.203
312.949, 48.514
314.308, 59.713
315.667, 119.195
317.026, 171.742
318.385, 187.410
319.743, 63.271
321.101, 173.854
322.459, 134.346
323.817, 134.750
325.174, 425.064
326.532, 655.301
327.889, 955.469
329.246, 1185.564
330.602, 1215.590
331.958, 1135.547
333.315, 815.438
334.671, 565.258
336.026, 645.541
337.382, 595.959
338.737, 876.391
340.092, 1037.164
341.447, 1157.068
342.802, 1116.963
344.156, 1275.941
345.510, 1294.906
346.864, 1583.094
348.218, 1950.986
349.571, 2088.693
350.925, 2296.312
352.278, 2073.889
353.630, 1551.416
354.983, 1228.873
356.336, 896.221
357.688, 1023.465
359.040, 870.660
360.391, 1237.803
361.743, 1564.871
363.094, 2461.871
364.445, 3338.793
365.796, 4715.611
367.147, 5202.273
368.497, 5068.746
369.847, 4075.145
371.197, 2981.482
372.547, 2287.779
373.897, 1934.037
375.246, 1551.416
376.595, 1167.951
377.944, 955.197
379.293, 911.561
380.641, 1059.559
381.989, 966.543
383.337, 1203.562
384.685, 1310.371
386.032, 1939.445
387.380, 3066.709
388.727, 4604.164
390.074, 6160.793
391.421, 7718.004
392.767, 7518.156
394.113, 6245.113
395.459, 4612.068
396.805, 3344.662
398.151, 2481.320
399.496, 1892.049
400.841, 1501.475
402.186, 1127.836
403.531, 1072.285
404.875, 859.848
406.219, 1072.434
407.564, 1049.262
408.907, 1295.695
410.251, 1862.168
411.594, 2149.277
412.937, 2556.016
414.280, 2480.350
415.623, 2328.020
416.966, 2083.773
418.308, 1710.008
419.650, 1375.561
420.992, 871.389
422.334, 867.246
423.675, 752.877
425.016, 638.824
426.357, 784.207
427.698, 669.365
429.038, 592.227
430.379, 661.928
431.719, 744.645
433.059, 933.031
434.399, 1054.695
435.738, 923.127
437.077, 711.824
438.416, 777.812
439.755, 512.758
441.094, 604.527
442.432, 605.467
443.770, 1037.416
445.108, 1086.555
446.446, 1170.770
447.783, 1495.342
449.121, 1499.711
450.458, 1874.275
451.795, 2498.535
453.131, 3115.357
454.468, 4336.473
455.804, 5964.529
457.140, 8865.080
458.476, 11771.654
459.811, 15124.156
461.146, 16547.393
462.482, 15751.281
463.816, 13535.143
465.151, 10227.652
466.486, 7907.484
467.820, 5548.361
469.154, 4279.051
470.488, 3461.008
471.821, 2740.502
473.155, 2250.861
474.488, 2007.941
475.821, 1725.369
477.154, 1542.156
478.486, 1302.096
479.818, 1304.588
481.150, 1301.721
482.482, 1111.312
483.814, 1210.219
485.145, 909.039
486.477, 870.037
487.808, 671.693
489.138, 733.293
490.469, 584.834
491.799, 536.320
493.129, 627.750
494.459, 569.121
495.789, 340.230
497.119, 291.486
498.448, 271.439
499.777, 173.715
501.106, 364.783
502.434, 315.795
503.763, 486.750
505.091, 357.652
506.419, 558.504
507.747, 739.307
509.074, 720.066
510.402, 810.779
511.729, 861.447
513.056, 812.072
514.383, 933.947
515.709, 858.287
517.035, 1083.703
518.361, 924.172
519.687, 954.643
521.013, 1345.068
522.338, 535.455
523.663, 635.816
524.988, 736.156
526.313, 736.453
527.638, 786.715
528.962, 606.934
530.286, 767.111
531.610, 517.250
532.934, 457.350
534.257, 157.404
535.581, 347.408
536.904, 167.379
538.227, 367.295
539.549, 17.164
540.872, 196.979
542.194, 176.766
543.516, 216.504
544.838, 13.811
546.159, 85.805
547.480, 45.363
548.802, 214.869
550.123, 64.320
551.443, 36.258
552.764, 103.078
554.084, 92.357
555.404, 78.406
556.724, 140.727
558.044, 210.195
559.363, 31.285
560.682, 177.543
562.001, 113.633
563.320, 4.936
564.639, 86.303
565.957, 32.223
567.275, 100.695
568.593, 79.119
569.911, 2.514
571.228, 15.795
572.546, 144.047
573.863, 152.262
575.180, 187.121
576.496, 58.551
577.813, 206.611
579.129, 124.631
580.445, 102.600
581.761, 140.514
583.076, 48.379
584.392, 165.945
585.707, 193.707
587.022, 221.303
588.337, 78.539
589.651, 276.143
590.966, 46.158
592.280, 101.543
593.594, 139.299
594.907, 2.885
596.221, 55.051
597.534, 2.793
598.847, 150.365
600.160, 31.748
601.473, 36.133
602.785, 213.979
604.097, 11.797
605.409, 89.836
606.721, 127.553
608.033, 65.260
609.344, 82.873
610.655, 58.744
611.966, 138.738
613.277, 143.814
614.588, 43.527
615.898, 11.621
617.208, 219.143
618.518, 146.389
619.828, 54.389
621.137, 21.701
622.446, 78.828
623.755, 306.406
625.064, 313.432
626.373, 292.455
627.681, 137.867
628.990, 284.779
630.298, 272.428
631.605, 409.279
632.913, 417.064
634.220, 533.941
635.527, 330.781
636.834, 307.590
638.141, 504.439
639.448, 741.270
640.754, 768.072
642.060, 814.930
643.366, 912.090
644.672, 948.803
645.977, 1305.477
647.283, 1672.109
648.588, 1638.705
649.892, 2215.266
651.197, 2361.785
652.502, 2438.264
653.806, 2544.217
655.110, 2439.893
656.414, 2525.889
657.717, 2791.225
659.021, 3347.650
660.324, 3784.039
661.627, 4561.033
662.930, 5717.430
664.232, 7724.434
665.534, 10371.330
666.837, 14388.355
668.138, 19335.459
669.440, 25522.221
670.742, 29678.352
672.043, 30097.311
673.344, 26608.568
674.645, 21834.861
675.946, 15992.107
677.246, 11968.648
678.546, 9015.648
679.846, 6557.482
681.146, 5087.941
682.446, 4415.029
683.745, 3562.691
685.045, 3219.094
686.344, 2975.832
687.642, 2662.441
688.941, 2809.414
690.239, 2265.436
691.538, 2290.629
692.836, 1978.363
694.133, 1913.150
695.431, 1618.650
696.728, 1352.643
698.025, 1223.678
699.322, 1368.693
700.619, 733.375
701.916, 996.506
703.212, 720.123
704.508, 804.662
705.804, 839.279
707.100, 808.590
708.395, 789.275
709.690, 741.441
710.985, 598.973
712.280, 597.766
713.575, 511.742
714.869, 402.502
716.164, 493.717
717.458, 518.037
718.751, 353.859
720.045, 526.869
721.338, 465.066
722.632, 508.691
723.925, 453.428
725.217, 528.133
726.510, 490.270
727.802, 593.664
729.095, 691.184
730.386, 545.236
731.678, 409.158
732.970, 772.807
734.261, 667.469
735.552, 841.131
736.843, 904.592
738.134, 1108.479
739.424, 1071.615
740.715, 1064.971
742.005, 1128.150
743.295, 912.230
744.584, 1035.984
745.874, 1159.430
747.163, 1509.090
748.452, 1452.777
749.741, 1696.221
751.030, 1388.191
752.318, 1407.250
753.607, 989.305
754.895, 773.061
756.182, 773.527
757.470, 526.498
758.758, 529.387
760.045, 261.396
761.332, 363.838
762.619, 316.268
763.905, 558.404
765.192, 130.584
766.478, 409.172
767.764, 391.518
769.050, 534.723
770.335, 126.609
771.621, 258.326
772.906, 320.879
774.191, 123.096
775.475, 274.893
776.760, 306.520
778.044, 188.357
779.329, 381.115
780.613, 16.129
781.896, 123.512
783.180, 318.324
784.463, 130.750
785.746, 383.086
787.029, 85.766
788.312, 298.402
789.594, 381.008
790.877, 403.457
792.159, 385.781
793.441, 318.283
794.722, 370.756
796.004, 293.193
797.285, 215.598
798.566, 467.967
799.847, 480.305
801.128, 502.607
802.408, 465.104
803.689, 557.348
804.969, 477.883
806.249, 582.479
807.528, 304.629
808.808, 406.754
810.087, 209.604
811.366, 261.680
812.645, 184.076
813.923, 136.506
815.202, 128.502
816.480, 160.918
817.758, 108.484
819.036, 125.730
820.314, 87.844
821.591, 59.678
822.868, 131.529
824.145, 273.814
825.422, 34.299
826.699, 72.332
827.975, 209.324
829.251, 168.877
830.527, 132.822
831.803, 14.242
833.079, 84.379
834.354, 63.082
835.629, 1.154
836.904, 15.828
838.179, 112.098
839.454, 24.662
840.728, 45.756
842.002, 3.082
843.276, 168.648
844.550, 79.727
845.824, 28.977
847.097, 172.115
848.370, 193.115
849.643, 144.086
850.916, 94.969
852.188, 95.889
853.461, 206.709
854.733, 17.494
856.005, 328.252
857.277, 28.984
858.548, 189.676
859.820, 79.664
861.091, 250.916
862.362, 321.482
863.633, 27.982
864.903, 62.506
866.173, 222.984
867.444, 3.432
868.713, 183.908
869.983, 155.621
871.253, 234.727
872.522, 145.082
873.791, 75.410
875.060, 135.738
876.329, 3.967
877.597, 236.291
878.866, 56.521
880.134, 136.729
881.402, 53.057
882.670, 127.096
883.937, 187.215
885.204, 117.301
886.472, 17.371
887.739, 167.400
889.005, 187.441
890.272, 117.451
891.538, 197.426
892.804, 257.373
894.070, 387.291
895.336, 127.184
896.601, 57.051
897.867, 376.883
899.132, 406.686
900.397, 76.480
901.662, 166.242
902.926, 375.969
904.190, 395.682
905.455, 415.383
906.718, 75.057
907.982, 504.697
909.246, 134.320
910.509, 463.916
911.772, 433.479
913.035, 292.746
914.298, 512.256
915.560, 581.699
916.823, 511.160
918.085, 429.777
919.347, 779.201
920.608, 1018.596
921.870, 998.002
923.131, 1236.594
924.392, 1835.717
925.653, 2165.043
926.914, 2793.539
928.175, 2702.645
929.435, 2721.854
930.695, 2520.543
931.955, 1999.721
933.215, 1426.832
934.474, 1317.492
935.734, 876.578
936.993, 934.869
938.252, 933.893
939.511, 981.928
940.769, 1030.824
942.027, 819.748
943.286, 1188.641
944.544, 987.518
945.801, 876.596
947.059, 1205.578
948.316, 604.346
949.573, 603.320
950.830, 822.018
952.087, 481.131
953.344, 281.270
954.600, 460.279
955.856, 160.119
957.112, 419.650
958.368, 398.133
959.623, 436.986
960.879, 155.445
962.134, 427.215
963.389, 256.066
964.644, 248.518
965.898, 356.279
967.153, 233.955
968.407, 320.055
969.661, 157.338
970.915, 294.652
972.168, 431.768
973.422, 338.729
974.675, 227.023
975.928, 316.977
977.181, 282.357
978.433, 336.955
979.686, 296.125
980.938, 286.326
982.190, 364.939
983.442, 392.303
984.693, 345.094
985.945, 186.848
987.196, 232.992
988.447, 249.840
989.698, 18.811
990.949, 505.748
992.199, 577.992
993.449, 225.246
994.699, 372.225
995.949, 327.799
997.199, 362.914
998.448, 441.123
999.697, 539.697
1000.947, 596.961
1002.195, 658.152
1003.444, 651.453
1004.693, 700.842
1005.941, 606.629
1007.189, 473.623
1008.437, 449.379
1009.684, 675.762
1010.932, 526.748
1012.179, 973.699
1013.426, 740.496
1014.673, 1164.871
1015.920, 931.412
1017.166, 1527.754
1018.413, 1695.537
1019.659, 1813.771
1020.905, 2390.504
1022.151, 2537.143
1023.396, 3474.170
1024.641, 4550.693
1025.887, 5007.258
1027.132, 5483.451
1028.376, 4620.232
1029.621, 3897.451
1030.865, 2912.324
1032.109, 2365.432
1033.353, 1421.803
1034.597, 1417.662
1035.841, 1127.000
1037.084, 1212.584
1038.327, 1268.514
1039.570, 904.275
1040.813, 870.369
1042.056, 1076.123
1043.298, 992.764
1044.540, 1149.422
1045.782, 1077.814
1047.024, 852.885
1048.266, 1139.680
1049.507, 1656.146
1050.748, 1921.922
1051.990, 2519.527
1053.230, 2465.260
1054.471, 3891.291
1055.711, 4627.293
1056.952, 5722.230
1058.192, 5858.436
1059.432, 5534.141
1060.671, 4550.021
1061.911, 3605.844
1063.150, 3091.566
1064.389, 2967.684
1065.628, 2863.553
1066.867, 3179.594
1068.105, 3165.205
1069.344, 2730.770
1070.582, 2336.289
1071.820, 1921.738
1073.058, 1627.535
1074.295, 1362.859
1075.532, 1158.133
1076.770, 1173.184
1078.007, 1268.195
1079.243, 1183.105
1080.480, 1487.953
1081.716, 1399.797
1082.953, 1247.551
1084.189, 1332.344
1085.424, 1147.113
1086.660, 971.848
1087.895, 496.555
1089.131, 931.219
1090.366, 495.824
1091.601, 680.387
1092.835, 404.895
1094.070, 350.477
1095.304, 364.875
1096.538, 389.371
1097.772, 253.586
1099.005, 607.719
1100.239, 301.703
1101.472, 85.637
1102.705, 309.289
1103.938, 113.074
1105.171, 166.793
1106.404, 410.449
1107.636, 304.039
1108.868, 397.574
1110.100, 9.707
1111.332, 233.691
1112.563, 23.316
1113.795, 349.543
1115.026, 352.742
1116.257, 84.570
1117.488, 848.352
1118.718, 1080.535
1119.949, 743.242
1121.179, 576.145
1122.409, 148.934
1123.639, 31.199
1124.868, 283.773
1126.098, 36.160
1127.327, 58.727
1128.556, 8.957
1129.785, 73.328
1131.014, 185.793
1132.242, 118.215
1133.470, 89.410
1134.699, 452.227
1135.927, 105.098
1137.154, 26.910
1138.382, 237.641
1139.609, 360.246
1140.836, 101.715
1142.063, 344.027
1143.290, 94.102
1144.517, 259.066
1145.743, 80.766
1146.969, 52.480
1148.195, 204.094
1149.421, 218.055
1150.647, 519.613
1151.872, 511.648
1153.097, 522.891
1154.322, 504.047
1155.547, 694.738
1156.772, 575.070
1157.996, 865.102
1159.221, 294.621
1160.445, 689.594
1161.669, 314.555
1162.892, 189.488
1164.116, 554.414
1165.339, 29.348
1166.562, 44.250
1167.785, 219.125
1169.008, 313.922
1170.231, 138.684
1171.453, 173.402
1172.675, 218.035
1173.897, 132.598
1175.119, 257.125
1176.341, 71.605
1177.562, 83.957
1178.783, 180.445
1180.004, 224.805
1181.225, 429.125
1182.446, 3.418
1183.666, 287.672
1184.887, 98.105
1186.107, 486.078
1187.327, 250.227
1188.546, 424.336
1189.766, 248.410
1190.985, 302.461
1192.204, 26.480
1193.423, 410.477
1194.642, 254.453
1195.861, 328.402
1197.079, 242.336
1198.297, 276.246
1199.515, 140.113
1200.733, 433.371
1201.951, 456.164
1203.168, 509.332
1204.385, 350.344
1205.602, 270.738
1206.819, 533.812
1208.036, 621.699
1209.253, 387.090
1210.469, 319.926
1211.685, 350.129
1212.901, 303.535
1214.117, 545.238
1215.332, 424.305
1216.548, 451.301
1217.763, 425.488
1218.978, 305.055
1220.193, 387.863
1221.407, 479.523
1222.622, 435.340
1223.836, 584.684
1225.050, 588.945
1226.264, 524.492
1227.477, 683.344
1228.691, 545.047
1229.904, 496.750
1231.117, 488.473
1232.330, 539.449
1233.543, 610.484
1234.755, 400.285
1235.968, 742.164
1237.180, 320.941
1238.392, 657.328
1239.604, 93.641
1240.815, 698.617
1242.027, 245.410
1243.238, 463.195
1244.449, 512.160
1245.660, 465.828
1246.871, 322.301
1248.081, 277.281
1249.291, 281.293
1250.501, 91.164
1251.711, 346.867
1252.921, 446.762
1254.131, 522.477
1255.340, 415.344
1256.549, 450.395
1257.758, 353.859
1258.967, 256.672
1260.175, 671.000
1261.384, 265.180
1262.592, 647.957
1263.800, 342.613
1265.008, 297.875
1266.216, 233.234
1267.423, 468.207
1268.630, 342.707
1269.838, 246.762
1271.044, 550.645
1272.251, 450.672
1273.458, 811.809
1274.664, 465.711
1275.870, 680.523
1277.076, 465.387
1278.282, 406.414
1279.488, 351.375
1280.693, 6.395
1281.898, 481.523
1283.103, 396.758
1284.308, 192.145
1285.513, 577.520
1286.717, 12.910
1287.922, 718.418
1289.126, 5.391
1290.330, 321.129
1291.534, 528.059
1292.737, 231.879
1293.940, 11.887
1295.144, 294.414
1296.347, 62.219
1297.549, 190.270
1298.752, 194.590
1299.955, 181.602
1301.157, 177.969
1302.359, 13.336
1303.561, 0.000
##END=



