##NAMES=Trilithionite
##RRUFFID=R040101
##IDEAL CHEMISTRY=KLi_1.5_Al_1.5_(Si_3_Al)O_10_F_2_
##LOCALITY=Zambezi Region, Mozambique
##OWNER=RRUFF
##SOURCE=University of Arizona Mineral Museum
##DESCRIPTION=Aggregate of purple hexagonal plates, polytype is 2M1
##STATUS=The identification of this mineral has been confirmed by X-ray diffraction and chemical analysis
##URL=rruff.info/R040101
##MEASURED CHEMISTRY=(K_0.84_Li_0.13_Na_0.02_)(Li_0.54_Al_0.44_Mn_0.02_)_3_(Si_0.82_Al_0.18_)_4_O_10_F_2.00_
##PIN_ID=M00337
##ORIENTATION=Laser parallel to (1 0 1). Fiducial mark perpendicular to laser is parallel to b [0 1 0]
134.390, 0.000
135.777, 64.122
137.164, 68.599
138.550, 44.375
139.937, 4.774
141.323, 5.379
142.709, 90.639
144.094, 357.044
145.480, 288.683
146.865, 155.062
148.250, 9.235
149.635, 79.536
151.019, 4.139
152.403, 4.687
153.788, 127.695
155.171, 223.673
156.555, 444.430
157.939, 565.792
159.322, 847.611
160.705, 1232.828
162.088, 1569.417
163.470, 2071.283
164.853, 2508.312
166.235, 3184.399
167.617, 3870.459
168.998, 4695.414
170.380, 5746.197
171.761, 6758.745
173.142, 7797.006
174.523, 9266.931
175.904, 10778.474
177.284, 11916.586
178.664, 12902.211
180.044, 13535.300
181.424, 14336.814
182.803, 14490.730
184.183, 14237.228
185.562, 14024.550
186.940, 13862.771
188.319, 13128.644
189.698, 13222.096
191.076, 12587.842
192.454, 12618.866
193.831, 12620.151
195.209, 12062.690
196.586, 11901.468
197.963, 11162.478
199.340, 10447.707
200.717, 9538.150
202.093, 8805.797
203.470, 7904.641
204.846, 7318.674
206.221, 6859.891
207.597, 6653.285
208.972, 6435.848
210.347, 5816.576
211.722, 5543.466
213.097, 5499.512
214.472, 5258.705
215.846, 5152.187
217.220, 5057.740
218.594, 4938.904
219.967, 4882.281
221.341, 4798.635
222.714, 4729.992
224.087, 4721.371
225.460, 4840.736
226.832, 5105.154
228.204, 5360.628
229.577, 5540.170
230.948, 6002.786
232.320, 6349.494
233.692, 6833.135
235.063, 7429.157
236.434, 7838.409
237.805, 8537.456
239.175, 9162.976
240.545, 9752.530
241.916, 10760.389
243.286, 11099.158
244.655, 11752.303
246.025, 12330.498
247.394, 12711.742
248.763, 13175.036
250.132, 13683.379
251.501, 14905.772
252.869, 15748.215
254.237, 17404.711
255.605, 18975.256
256.973, 20765.855
258.340, 22756.504
259.708, 24257.203
261.075, 24937.959
262.442, 24907.764
263.808, 24308.623
265.175, 22595.527
266.541, 20597.492
267.907, 17826.506
269.273, 15097.568
270.639, 12772.676
272.004, 10687.749
273.369, 8867.028
274.734, 7333.271
276.099, 6026.561
277.463, 5090.893
278.828, 4516.271
280.192, 3860.691
281.556, 3252.158
282.919, 3082.666
284.283, 2604.219
285.646, 2374.815
287.009, 2082.455
288.372, 1963.137
289.734, 1999.860
291.097, 1643.628
292.459, 1644.436
293.821, 1632.287
295.183, 1528.178
296.544, 1600.112
297.905, 1428.085
299.266, 1451.903
300.627, 1388.529
301.988, 1390.954
303.348, 1260.377
304.709, 1062.384
306.069, 1068.103
307.428, 1038.209
308.788, 1024.596
310.147, 818.243
311.507, 628.133
312.865, 635.004
314.224, 447.548
315.583, 479.018
316.941, 393.728
318.299, 404.611
319.657, 217.663
321.015, 315.871
322.372, 169.227
323.729, 146.727
325.086, 183.360
326.443, 200.123
327.800, 55.009
329.156, 181.280
330.512, 151.042
331.868, 137.091
333.224, 17.702
334.579, 91.461
335.935, 167.614
337.290, 8.694
338.645, 92.113
339.999, 99.199
341.354, 88.690
342.708, 68.581
344.062, 31.610
345.416, 40.712
346.769, 30.024
348.123, 42.132
349.476, 44.481
350.829, 43.346
352.182, 25.596
353.534, 113.277
354.887, 223.580
356.239, 261.932
357.591, 308.331
358.942, 308.777
360.294, 438.271
361.645, 533.809
362.996, 417.393
364.347, 644.019
365.698, 657.688
367.048, 843.399
368.398, 760.152
369.748, 909.946
371.098, 989.780
372.448, 1154.655
373.797, 1321.568
375.146, 1316.520
376.495, 1527.509
377.844, 1634.535
379.192, 1630.599
380.540, 1823.699
381.889, 1689.834
383.236, 1835.008
384.584, 1974.218
385.932, 2022.465
387.279, 2002.750
388.626, 2284.072
389.973, 2515.434
391.319, 2412.831
392.666, 2818.267
394.012, 2841.738
395.358, 3088.246
396.704, 3388.729
398.049, 3663.225
399.394, 4024.710
400.740, 4181.184
402.084, 4375.643
403.429, 4496.108
404.774, 4505.583
406.118, 4524.881
407.462, 4486.541
408.806, 4326.059
410.150, 4267.601
411.493, 3996.169
412.836, 3776.764
414.179, 3472.382
415.522, 3144.554
416.865, 2774.692
418.207, 2477.385
419.549, 2155.100
420.891, 1918.842
422.233, 1749.605
423.575, 1560.395
424.916, 1269.207
426.257, 1144.041
427.598, 1117.898
428.939, 829.779
430.279, 1054.683
431.619, 805.607
432.959, 690.556
434.299, 629.524
435.639, 847.516
436.978, 655.529
438.318, 845.563
439.657, 620.619
440.996, 838.696
442.334, 785.794
443.673, 696.911
445.011, 712.050
446.349, 806.208
447.687, 731.388
449.024, 791.587
450.361, 688.805
451.699, 680.043
453.036, 451.300
454.372, 468.576
455.709, 531.872
457.045, 323.186
458.381, 380.518
459.717, 437.869
461.053, 436.259
462.388, 402.689
463.724, 569.159
465.059, 572.670
466.394, 512.223
467.728, 580.814
469.063, 718.442
470.397, 779.107
471.731, 848.808
473.065, 949.541
474.398, 914.307
475.732, 1005.118
477.065, 953.948
478.398, 790.828
479.731, 824.727
481.063, 690.653
482.396, 564.606
483.728, 369.586
485.060, 407.591
486.391, 244.620
487.723, 166.673
489.054, 30.750
490.385, 52.834
491.716, 20.200
493.047, 186.747
494.377, 131.010
495.708, 209.285
497.038, 167.935
498.368, 198.199
499.697, 294.197
501.027, 255.857
502.356, 181.419
503.685, 196.401
505.014, 189.180
506.342, 265.518
507.671, 89.397
508.999, 138.248
510.327, 40.368
511.655, 0.518
512.982, 30.595
514.310, 125.767
515.637, 203.972
516.964, 326.245
518.291, 279.569
519.617, 565.938
520.944, 479.371
522.270, 508.851
523.596, 702.354
524.921, 637.932
526.247, 813.527
527.572, 903.178
528.897, 835.880
530.222, 1021.630
531.547, 1060.424
532.871, 1276.244
534.196, 1197.084
535.520, 1143.961
536.844, 1458.886
538.167, 1491.825
539.491, 1575.815
540.814, 1626.822
542.137, 1737.868
543.460, 1940.932
544.783, 2235.019
546.105, 2200.147
547.427, 2583.312
548.749, 2783.493
550.071, 2962.686
551.393, 3367.891
552.714, 3718.110
554.035, 3828.345
555.356, 4235.592
556.677, 4321.852
557.998, 4296.125
559.318, 4614.412
560.638, 4621.713
561.958, 4492.028
563.278, 4033.356
564.597, 4060.697
565.917, 3680.053
567.236, 3330.422
568.555, 3199.805
569.874, 2646.199
571.192, 2472.617
572.511, 2207.046
573.829, 1890.485
575.147, 1546.936
576.464, 1394.400
577.782, 1190.877
579.099, 1078.363
580.416, 836.861
581.733, 701.370
583.050, 701.888
584.366, 531.413
585.683, 959.947
586.999, 710.489
588.315, 1334.040
589.630, 487.597
590.946, 414.161
592.261, 462.730
593.576, 434.307
594.891, 412.500
596.206, 389.479
597.520, 369.071
598.834, 408.670
600.148, 378.272
601.462, 458.880
602.776, 533.493
604.089, 499.109
605.402, 596.730
606.715, 660.355
608.028, 783.983
609.341, 763.616
610.653, 792.251
611.965, 981.890
613.277, 916.531
614.589, 1015.175
615.901, 1057.821
617.212, 1175.470
618.523, 1289.120
619.834, 1372.773
621.145, 1527.428
622.456, 1608.083
623.766, 1535.739
625.076, 1810.396
626.386, 1865.053
627.696, 2059.710
629.006, 1832.366
630.315, 2280.021
631.624, 2069.678
632.933, 2156.331
634.242, 2390.985
635.551, 2116.636
636.859, 2239.285
638.167, 2068.931
639.475, 2178.575
640.783, 2066.217
642.090, 2003.855
643.398, 2025.490
644.705, 2089.121
646.012, 1889.749
647.318, 1992.105
648.625, 2092.161
649.931, 1980.048
651.237, 1982.594
652.543, 1989.383
653.849, 2069.090
655.155, 2251.991
656.460, 2186.094
657.765, 2382.280
659.070, 2148.141
660.375, 2236.961
661.679, 2409.239
662.984, 2314.972
664.288, 2336.271
665.592, 2491.855
666.895, 2611.737
668.199, 2550.070
669.502, 2812.064
670.805, 2735.666
672.108, 2999.571
673.411, 3141.051
674.713, 3281.180
676.016, 3613.162
677.318, 3811.147
678.620, 4167.985
679.921, 4351.247
681.223, 4826.975
682.524, 5373.500
683.825, 5660.900
685.126, 6414.744
686.427, 7043.843
687.727, 7584.889
689.028, 8336.375
690.328, 9129.597
691.628, 10295.256
692.927, 11539.577
694.227, 12818.592
695.526, 13636.344
696.825, 15998.968
698.124, 17356.834
699.423, 19582.762
700.721, 21851.318
702.020, 24692.377
703.318, 27119.408
704.616, 30261.330
705.913, 32861.102
707.211, 36349.309
708.508, 39610.375
709.805, 40175.508
711.102, 39049.410
712.399, 37855.734
713.695, 33491.676
714.992, 29546.713
716.288, 24552.707
717.584, 20484.875
718.879, 16645.883
720.175, 13586.038
721.470, 11872.081
722.765, 9699.289
724.060, 8238.448
725.355, 7149.266
726.649, 5997.969
727.944, 5363.561
729.238, 5030.240
730.532, 4330.189
731.825, 4296.303
733.119, 4036.396
734.412, 3721.069
735.705, 3552.736
736.998, 3523.396
738.291, 3612.719
739.584, 3785.048
740.876, 3893.606
742.168, 4051.611
743.460, 4076.988
744.752, 4360.950
746.043, 4603.891
747.334, 4620.916
748.626, 4778.812
749.916, 4752.859
751.207, 4798.711
752.498, 4739.539
753.788, 4731.346
755.078, 4568.131
756.368, 4556.889
757.658, 4398.627
758.947, 3930.342
760.237, 3830.031
761.526, 3555.699
762.815, 3370.342
764.104, 2973.961
765.392, 2690.559
766.680, 2600.131
767.969, 2209.679
769.257, 2247.204
770.544, 1924.704
771.832, 2085.180
773.119, 1809.631
774.406, 1765.058
775.693, 1863.460
776.980, 1605.839
778.267, 1804.191
779.553, 1746.519
780.839, 1878.822
782.125, 1721.101
783.411, 1817.353
784.697, 1595.580
785.982, 1634.783
787.267, 1428.959
788.552, 1432.109
789.837, 1255.234
791.122, 1339.334
792.406, 1039.407
793.690, 1011.455
794.974, 828.476
796.258, 701.473
797.542, 787.441
798.825, 490.385
800.108, 517.303
801.391, 331.192
802.674, 525.064
803.957, 349.915
805.239, 209.759
806.522, 348.633
807.804, 35.475
809.085, 266.414
810.367, 175.328
811.649, 87.725
812.930, 58.789
814.211, 16.139
815.492, 117.920
816.772, 22.033
818.053, 101.153
819.333, 53.301
820.613, 133.496
821.893, 51.769
823.173, 90.101
824.452, 142.521
825.732, 13.064
827.011, 149.665
828.290, 80.397
829.568, 62.225
830.847, 126.136
832.125, 76.165
833.403, 14.713
834.681, 170.453
835.959, 54.240
837.236, 102.103
838.514, 93.551
839.791, 82.100
841.068, 65.741
842.345, 9.472
843.621, 80.744
844.898, 45.073
846.174, 87.966
847.450, 115.045
848.726, 95.975
850.001, 34.905
851.277, 51.254
852.552, 15.513
853.827, 0.237
855.102, 72.087
856.376, 56.498
857.651, 112.014
858.925, 145.495
860.199, 56.947
861.473, 71.366
862.746, 61.752
864.020, 97.104
865.293, 36.425
866.566, 76.711
867.839, 62.966
869.112, 65.188
870.384, 41.378
871.656, 58.532
872.928, 37.926
874.200, 48.744
875.472, 28.800
876.744, 30.821
878.015, 66.809
879.286, 17.235
880.557, 110.669
881.828, 84.545
883.098, 39.391
884.369, 20.203
885.639, 19.512
886.909, 64.726
888.178, 61.440
889.448, 58.125
890.717, 132.778
891.987, 125.406
893.256, 65.007
894.524, 265.579
895.793, 97.128
897.061, 252.648
898.330, 207.145
899.598, 163.616
900.865, 427.066
902.133, 146.494
903.401, 255.897
904.668, 392.276
905.935, 438.632
907.202, 512.405
908.468, 393.272
909.735, 520.558
911.001, 544.818
912.267, 387.057
913.533, 506.273
914.799, 490.491
916.064, 522.693
917.330, 571.875
918.595, 508.035
919.860, 522.173
921.124, 535.286
922.389, 393.378
923.653, 467.445
924.918, 437.489
926.182, 509.512
927.445, 472.519
928.709, 448.502
929.972, 477.576
931.236, 392.407
932.499, 491.327
933.761, 555.227
935.024, 571.239
936.286, 548.970
937.549, 593.811
938.811, 462.630
940.073, 520.434
941.334, 447.216
942.596, 584.977
943.857, 707.720
945.118, 669.440
946.379, 594.143
947.640, 707.825
948.900, 680.455
950.161, 726.141
951.421, 769.784
952.681, 902.418
953.940, 991.033
955.200, 943.636
956.459, 1003.224
957.719, 1310.802
958.978, 1225.367
960.236, 1380.479
961.495, 1342.008
962.753, 1547.521
964.012, 1548.292
965.270, 1431.897
966.527, 1738.035
967.785, 1618.908
969.043, 1702.008
970.300, 1589.851
971.557, 1770.789
972.814, 1706.668
974.071, 1724.648
975.327, 1677.197
976.583, 1760.448
977.840, 1815.806
979.095, 1695.576
980.351, 1670.683
981.607, 1825.924
982.862, 1908.145
984.117, 1801.516
985.372, 2017.445
986.627, 1742.894
987.882, 1881.565
989.136, 2171.263
990.390, 1929.539
991.644, 2106.541
992.898, 2033.578
994.152, 2071.158
995.405, 1964.982
996.659, 1941.348
997.912, 2141.034
999.165, 2081.024
1000.417, 2168.260
1001.670, 1934.604
1002.922, 2168.698
1004.174, 1911.718
1005.426, 2244.092
1006.678, 2102.965
1007.930, 2057.854
1009.181, 2334.840
1010.432, 2229.961
1011.683, 2335.612
1012.934, 2291.384
1014.185, 2402.076
1015.435, 2375.980
1016.685, 2384.446
1017.935, 2297.271
1019.185, 2320.626
1020.435, 2512.721
1021.684, 2326.258
1022.934, 2388.939
1024.183, 2403.446
1025.432, 2335.045
1026.680, 2373.542
1027.929, 2147.186
1029.177, 2211.958
1030.425, 2157.824
1031.673, 2143.777
1032.921, 2273.641
1034.169, 1883.211
1035.416, 2091.593
1036.663, 2223.972
1037.911, 2044.146
1039.157, 2227.903
1040.404, 2414.742
1041.650, 2378.082
1042.897, 2708.414
1044.143, 2627.709
1045.389, 3007.179
1046.634, 3264.256
1047.880, 3411.544
1049.125, 3565.243
1050.371, 3830.185
1051.615, 4310.008
1052.860, 4274.489
1054.105, 4700.947
1055.349, 4773.684
1056.593, 4805.098
1057.837, 5008.352
1059.081, 4999.217
1060.325, 4941.463
1061.568, 5056.940
1062.812, 4880.356
1064.055, 4868.626
1065.298, 4728.852
1066.540, 4443.517
1067.783, 4307.299
1069.025, 4088.660
1070.267, 4134.979
1071.509, 3841.173
1072.751, 3759.525
1073.993, 3883.751
1075.234, 3682.022
1076.475, 3579.846
1077.716, 3609.169
1078.957, 3486.779
1080.198, 3415.451
1081.438, 3533.708
1082.679, 3344.362
1083.919, 3299.889
1085.159, 3330.170
1086.398, 3199.491
1087.638, 3180.105
1088.877, 3102.502
1090.116, 3060.033
1091.355, 2961.353
1092.594, 2988.952
1093.833, 3080.295
1095.071, 3017.964
1096.309, 3093.544
1097.547, 3055.910
1098.785, 3001.012
1100.023, 3000.471
1101.260, 3147.981
1102.498, 3262.757
1103.735, 3218.346
1104.972, 3453.553
1106.208, 3388.550
1107.445, 3479.980
1108.681, 3488.719
1109.918, 3673.503
1111.154, 3574.606
1112.389, 3674.490
1113.625, 3855.569
1114.860, 3890.734
1116.096, 4023.918
1117.331, 4223.064
1118.566, 4212.738
1119.800, 4417.546
1121.035, 4629.076
1122.269, 4719.682
1123.503, 5040.072
1124.737, 5157.082
1125.971, 5205.922
1127.205, 5395.135
1128.438, 5555.080
1129.671, 5844.783
1130.904, 6033.711
1132.137, 6497.729
1133.370, 6989.412
1134.602, 7354.230
1135.834, 7466.994
1137.066, 7775.012
1138.298, 8129.998
1139.530, 7926.398
1140.762, 8120.699
1141.993, 7995.072
1143.224, 7058.049
1144.455, 6367.033
1145.686, 5531.972
1146.917, 4807.938
1148.147, 4009.080
1149.377, 3304.094
1150.607, 2705.105
1151.837, 2252.089
1153.067, 1690.431
1154.296, 1483.445
1155.526, 1331.023
1156.755, 980.195
1157.984, 965.530
1159.213, 723.531
1160.441, 613.637
1161.670, 559.216
1162.898, 516.503
1164.126, 375.351
1165.354, 496.450
1166.581, 254.632
1167.809, 313.076
1169.036, 205.678
1170.263, 343.670
1171.490, 130.616
1172.717, 173.205
1173.943, 63.310
1175.170, 37.126
1176.396, 111.629
1177.622, 206.247
1178.848, 176.116
1180.073, 213.479
1181.299, 121.472
1182.524, 129.217
1183.749, 171.981
1184.974, 10.727
1186.199, 161.356
1187.423, 85.933
1188.648, 42.512
1189.872, 37.895
1191.096, 2.339
1192.320, 74.418
1193.543, 74.703
1194.767, 129.471
1195.990, 21.544
1197.213, 13.627
1198.436, 0.499
1199.659, 33.497
1200.881, 81.576
1202.104, 15.901
1203.326, 92.997
1204.548, 164.877
1205.770, 38.847
1206.991, 81.682
1208.213, 79.674
1209.434, 94.462
1210.655, 106.774
1211.876, 40.085
1213.096, 35.563
1214.317, 8.186
1215.537, 108.780
1216.757, 119.375
1217.977, 153.913
1219.197, 111.447
1220.417, 141.959
1221.636, 131.480
1222.855, 26.964
1224.074, 119.491
1225.293, 50.896
1226.512, 36.273
1227.731, 135.631
1228.949, 41.216
1230.167, 17.479
1231.385, 130.791
1232.603, 121.035
1233.820, 51.254
1235.038, 12.557
1236.255, 71.598
1237.472, 121.722
1238.689, 47.817
1239.906, 123.880
1241.122, 38.925
1242.338, 60.105
1243.555, 111.088
1244.771, 35.961
1245.986, 25.051
1247.202, 25.189
1248.417, 19.638
1249.633, 9.127
1250.848, 1.891
1252.063, 30.321
1253.277, 4.810
1254.492, 26.674
1255.706, 24.115
1256.920, 13.479
1258.134, 12.881
1259.348, 154.813
1260.562, 123.374
1261.775, 123.039
1262.988, 121.322
1264.201, 49.295
1265.414, 42.688
1266.627, 111.611
1267.839, 103.506
1269.052, 159.349
1270.264, 33.874
1271.476, 68.835
1272.688, 3.412
1273.899, 56.218
1275.111, 9.204
1276.322, 72.327
1277.533, 60.178
1278.744, 145.258
1279.955, 8.658
1281.165, 136.989
1282.376, 75.285
1283.586, 89.512
1284.796, 29.701
1286.006, 44.849
1287.215, 38.958
1288.425, 110.026
1289.634, 106.055
1290.843, 120.044
1292.052, 51.009
1293.261, 74.883
1294.469, 111.732
1295.678, 34.455
1296.886, 120.304
1298.094, 6.975
1299.302, 33.300
1300.509, 25.680
1301.717, 80.888
1302.924, 57.417
1304.131, 115.905
1305.338, 88.355
1306.545, 32.768
1307.752, 59.137
1308.958, 12.537
1310.164, 79.764
1311.370, 68.998
1312.576, 96.192
1313.782, 84.344
1314.987, 93.455
1316.193, 101.525
1317.398, 183.555
1318.603, 71.546
1319.807, 123.407
1321.012, 37.884
1322.216, 163.973
1323.421, 102.791
1324.625, 38.429
1325.829, 111.292
1327.032, 121.975
1328.236, 113.621
1329.439, 115.229
1330.642, 138.250
1331.845, 147.116
1333.048, 142.338
1334.251, 184.516
1335.453, 90.635
1336.656, 89.503
1337.858, 192.690
1339.060, 83.841
1340.261, 234.135
1341.463, 71.981
1342.664, 208.442
1343.866, 234.092
1345.067, 208.871
1346.267, 144.814
1347.468, 193.444
1348.669, 279.358
1349.869, 213.398
1351.069, 319.015
1352.269, 196.773
1353.469, 283.490
1354.668, 253.234
1355.868, 251.092
1357.067, 333.966
1358.266, 339.685
1359.465, 359.618
1360.664, 426.988
1361.862, 328.920
1363.061, 342.721
1364.259, 366.515
1365.457, 206.181
1366.655, 420.781
1367.852, 227.797
1369.050, 315.501
1370.247, 280.682
1371.444, 240.540
1372.641, 175.990
1373.838, 328.938
1375.035, 316.964
1376.231, 330.269
1377.427, 276.391
1378.623, 240.971
1379.819, 324.053
1381.015, 235.437
1382.211, 312.795
1383.406, 323.502
1384.601, 239.372
1385.796, 198.190
1386.991, 317.192
1388.185, 391.377
1389.380, 259.941
1390.574, 364.660
1391.768, 286.330
1392.962, 361.344
1394.156, 214.662
1395.350, 249.682
1396.543, 422.527
1397.736, 198.153
1398.929, 317.153
1400.122, 248.670
1401.315, 311.520
1402.507, 259.551
1403.700, 324.656
1404.892, 344.608
1406.084, 213.850
1407.276, 224.758
1408.467, 406.451
1409.659, 194.046
1410.850, 315.347
1412.041, 397.779
1413.232, 167.031
1414.423, 318.413
1415.614, 142.980
1416.804, 244.932
1417.994, 249.472
1419.184, 271.573
1420.374, 285.306
1421.564, 337.035
1422.753, 275.421
1423.943, 203.174
1425.132, 222.437
1426.321, 221.564
1427.510, 292.357
1428.698, 278.156
1429.887, 220.076
1431.075, 349.793
1432.263, 145.450
1433.451, 184.191
1434.639, 233.514
1435.827, 310.977
1437.014, 199.663
1438.201, 409.032
1439.388, 440.214
1440.575, 196.616
1441.762, 295.050
1442.949, 352.431
1444.135, 382.720
1445.321, 279.918
1446.507, 312.814
1447.693, 196.817
1448.879, 337.781
1450.064, 329.177
1451.250, 258.978
1452.435, 114.696
1453.620, 372.358
1454.805, 360.960
1455.989, 279.113
1457.174, 417.535
1458.358, 122.908
1459.542, 286.199
1460.726, 374.932
1461.910, 279.819
1463.093, 389.688
1464.277, 243.589
1465.460, 227.479
1466.643, 368.303
1467.826, 216.111
1469.009, 450.963
1470.191, 223.037
1471.373, 368.930
1472.556, 335.103
1473.738, 245.264
1474.919, 261.487
1476.101, 194.869
1477.283, 200.624
1478.464, 155.860
1479.645, 174.400
1480.826, 260.977
1482.007, 159.568
1483.187, 353.168
1484.368, 248.768
1485.548, 254.377
1486.728, 184.008
1487.908, 143.682
1489.088, 182.316
1490.268, 121.334
1491.447, 153.980
1492.626, 122.955
1493.805, 180.016
1494.984, 295.152
1496.163, 332.377
1497.341, 150.701
1498.520, 282.129
1499.698, 156.654
1500.876, 269.285
1502.054, 1.992
1503.232, 10.172
1504.409, 88.762
1505.586, 46.824
1506.763, 194.031
1507.940, 102.410
1509.117, 111.965
1510.294, 56.705
1511.470, 156.648
1512.647, 9.193
1513.823, 149.055
1514.999, 146.031
1516.174, 124.506
1517.350, 85.076
1518.526, 199.455
1519.701, 66.684
1520.876, 4.711
1522.051, 94.902
1523.226, 10.189
1524.400, 0.000
##END=



