##NAMES=Trilithionite
##RRUFFID=R040101
##IDEAL CHEMISTRY=KLi_1.5_Al_1.5_(Si_3_Al)O_10_F_2_
##LOCALITY=Zambezi Region, Mozambique
##OWNER=RRUFF
##SOURCE=University of Arizona Mineral Museum
##DESCRIPTION=Aggregate of purple hexagonal plates, polytype is 2M1
##STATUS=The identification of this mineral has been confirmed by X-ray diffraction and chemical analysis
##URL=rruff.info/R040101
##MEASURED CHEMISTRY=(K_0.84_Li_0.13_Na_0.02_)(Li_0.54_Al_0.44_Mn_0.02_)_3_(Si_0.82_Al_0.18_)_4_O_10_F_2.00_
##PIN_ID=M00449
##ORIENTATION=Laser parallel to -a* (-1 0 0). Fiducial mark perpendicular to laser is parallel to b [0 1 0]
127.452, 0.000
128.840, 9.157
130.228, 37.795
131.615, 56.679
133.003, 177.974
134.390, 111.346
135.777, 34.168
137.164, 73.622
138.550, 136.027
139.937, 24.382
141.323, 105.825
142.709, 11.083
144.094, 108.294
145.480, 46.599
146.865, 46.514
148.250, 172.753
149.635, 208.070
151.019, 356.241
152.403, 492.073
153.788, 578.426
155.171, 829.312
156.555, 1157.773
157.939, 1345.675
159.322, 1595.846
160.705, 2225.149
162.088, 2809.464
163.470, 3332.693
164.853, 3983.756
166.235, 4977.576
167.617, 5858.093
168.998, 7003.252
170.380, 8116.993
171.761, 9959.255
173.142, 11377.983
174.523, 13659.144
175.904, 15637.710
177.284, 17278.658
178.664, 18566.014
180.044, 18992.287
181.424, 19354.832
182.803, 19028.879
184.183, 18538.127
185.562, 17768.791
186.940, 17428.525
188.319, 16878.324
189.698, 16991.195
191.076, 16475.141
192.454, 16523.162
193.831, 16321.267
195.209, 15713.459
196.586, 14920.736
197.963, 13565.108
199.340, 12279.568
200.717, 10959.117
202.093, 9994.760
203.470, 9044.491
204.846, 8385.318
206.221, 8091.236
207.597, 7953.249
208.972, 7973.355
210.347, 7746.523
211.722, 7833.639
213.097, 7969.703
214.472, 7713.727
215.846, 7686.644
217.220, 7396.571
218.594, 7404.521
219.967, 7285.511
221.341, 7288.552
222.714, 7393.652
224.087, 7419.818
225.460, 7643.058
226.832, 9296.373
228.204, 10115.770
229.577, 9123.770
230.948, 10038.526
232.320, 9769.056
233.692, 10264.151
235.063, 11141.106
236.434, 11751.346
237.805, 12508.964
239.175, 13284.661
240.545, 13926.021
241.916, 15239.613
243.286, 15614.190
244.655, 16216.843
246.025, 16604.598
247.394, 17020.432
248.763, 17493.373
250.132, 17984.398
251.501, 19333.514
252.869, 20506.723
254.237, 22589.023
255.605, 25046.412
256.973, 27537.885
258.340, 29958.445
259.708, 31381.100
261.075, 32319.834
262.442, 31459.656
263.808, 29285.559
265.175, 25731.533
266.541, 22668.582
267.907, 19227.701
269.273, 15991.888
270.639, 13344.143
272.004, 11097.465
273.369, 9506.856
274.734, 8186.318
276.099, 7135.850
277.463, 6045.449
278.828, 5609.117
280.192, 4945.854
281.556, 4464.662
282.919, 4197.536
284.283, 3873.477
285.646, 3575.488
287.009, 3258.566
288.372, 3624.713
289.734, 3162.048
291.097, 3468.211
292.459, 2686.354
293.821, 2773.820
295.183, 2554.313
296.544, 2611.998
297.905, 2360.357
299.266, 2408.098
300.627, 2213.871
301.988, 2085.029
303.348, 1936.716
304.709, 1779.673
306.069, 1605.883
307.428, 1551.192
308.788, 1289.853
310.147, 1274.718
311.507, 1212.772
312.865, 881.007
314.224, 782.411
315.583, 687.976
316.941, 601.692
318.299, 477.556
319.657, 417.556
321.015, 423.687
322.372, 298.941
323.729, 273.313
325.086, 222.798
326.443, 94.389
327.800, 11.084
329.156, 31.313
330.512, 23.082
331.868, 87.632
333.224, 68.453
334.579, 42.337
335.935, 207.493
337.290, 75.360
338.645, 154.004
339.999, 154.116
341.354, 134.533
342.708, 216.839
344.062, 143.591
345.416, 169.668
346.769, 82.705
348.123, 166.999
349.476, 133.270
350.829, 70.872
352.182, 56.982
353.534, 59.386
354.887, 19.238
356.239, 34.905
357.591, 71.880
358.942, 142.382
360.294, 138.189
361.645, 191.044
362.996, 215.945
364.347, 297.893
365.698, 398.887
367.048, 425.927
368.398, 471.012
369.748, 482.144
371.098, 617.320
372.448, 638.542
373.797, 725.810
375.146, 695.122
376.495, 835.481
377.844, 973.888
379.192, 885.343
380.540, 1116.844
381.889, 1062.394
383.236, 1228.992
384.584, 1405.638
385.932, 1371.332
387.279, 1429.073
388.626, 1620.863
389.973, 1812.700
391.319, 1937.174
392.666, 2033.499
394.012, 2256.414
395.358, 2341.298
396.704, 2490.156
398.049, 2745.965
399.394, 3200.695
400.740, 3158.383
402.084, 3366.008
403.429, 3255.626
404.774, 3214.260
406.118, 3469.941
407.462, 3339.672
408.806, 3114.450
410.150, 2819.277
411.493, 2632.152
412.836, 2522.076
414.179, 2338.046
415.522, 1885.063
416.865, 1876.128
418.207, 1569.239
419.549, 1290.397
420.891, 1246.602
422.233, 1064.851
423.575, 957.147
424.916, 595.489
426.257, 666.876
427.598, 674.310
428.939, 505.786
430.279, 632.311
431.619, 341.877
432.959, 225.490
434.299, 349.146
435.639, 418.848
436.978, 336.593
438.318, 424.384
439.657, 207.217
440.996, 388.094
442.334, 309.015
443.673, 361.979
445.011, 195.987
446.349, 290.037
447.687, 278.131
449.024, 273.268
450.361, 339.445
451.699, 287.667
453.036, 279.929
454.372, 256.251
455.709, 346.635
457.045, 88.080
458.381, 233.584
459.717, 136.152
461.053, 308.781
462.388, 312.469
463.724, 349.238
465.059, 412.064
466.394, 342.944
467.728, 358.878
469.063, 522.865
470.397, 467.905
471.731, 506.995
473.065, 796.135
474.398, 669.324
475.732, 846.562
477.065, 581.848
478.398, 695.181
479.731, 585.561
481.063, 508.986
482.396, 358.457
483.728, 291.974
485.060, 246.534
486.391, 204.139
487.723, 188.787
489.054, 177.479
490.385, 39.300
491.716, 1.420
493.047, 114.020
494.377, 67.219
495.708, 6.434
497.038, 36.927
498.368, 196.064
499.697, 227.290
501.027, 111.888
502.356, 116.687
503.685, 92.897
505.014, 129.440
506.342, 114.471
507.671, 111.303
508.999, 53.497
510.327, 113.040
511.655, 11.591
512.982, 79.587
514.310, 131.701
515.637, 91.401
516.964, 235.505
518.291, 160.692
519.617, 419.967
520.944, 449.312
522.270, 418.705
523.596, 442.157
524.921, 512.698
526.247, 557.306
527.572, 681.995
528.897, 570.752
530.222, 914.556
531.547, 851.403
532.871, 1073.311
534.196, 856.271
535.520, 964.294
536.844, 1071.394
538.167, 1106.560
539.491, 1215.789
540.814, 1260.064
542.137, 1407.395
543.460, 1567.771
544.783, 1739.199
546.105, 1815.678
547.427, 2239.223
548.749, 2326.814
550.071, 2541.450
551.393, 2987.129
552.714, 3438.891
554.035, 3496.696
555.356, 3845.540
556.677, 3913.440
557.998, 3998.379
559.318, 4225.359
560.638, 4106.383
561.958, 3983.468
563.278, 3699.592
564.597, 3570.771
565.917, 3093.004
567.236, 2846.274
568.555, 2601.589
569.874, 2087.956
571.192, 1997.368
572.511, 1734.817
573.829, 1444.308
575.147, 1181.836
576.464, 1161.403
577.782, 998.010
579.099, 735.654
580.416, 671.338
581.733, 467.085
583.050, 548.868
584.366, 293.715
585.683, 477.600
586.999, 346.521
588.315, 223.482
589.630, 323.482
590.946, 364.521
592.261, 393.595
593.576, 346.701
594.891, 386.996
596.206, 244.024
597.520, 379.236
598.834, 328.483
600.148, 261.768
601.462, 357.084
602.776, 390.433
604.089, 326.812
605.402, 442.225
606.715, 449.666
608.028, 609.139
609.341, 587.643
610.653, 676.176
611.965, 787.740
613.277, 686.332
614.589, 757.954
615.901, 796.605
617.212, 928.285
618.523, 924.991
619.834, 993.726
621.145, 1070.487
622.456, 1267.276
623.766, 1164.090
625.076, 1359.931
626.386, 1256.796
627.696, 1510.688
629.006, 1311.604
630.315, 1766.544
631.624, 1524.509
632.933, 1726.496
634.242, 1797.509
635.551, 1660.544
636.859, 1606.604
638.167, 1553.685
639.475, 1531.488
640.783, 1619.913
642.090, 1558.061
643.398, 1642.230
644.705, 1676.421
646.012, 1599.631
647.318, 1711.862
648.625, 1898.963
649.931, 1931.765
651.237, 1935.949
652.543, 1938.299
653.849, 2019.074
655.155, 2256.614
656.460, 2223.211
657.765, 2371.860
659.070, 2229.311
660.375, 2466.500
661.679, 2676.500
662.984, 2509.043
664.288, 2528.770
665.592, 2529.692
666.895, 2780.883
668.199, 2750.752
669.502, 2915.633
670.805, 2984.991
672.108, 3284.797
673.411, 3279.306
674.713, 3487.775
676.016, 3902.340
677.318, 3995.972
678.620, 4443.006
679.921, 4704.799
681.223, 5056.840
682.524, 5433.512
683.825, 5812.171
685.126, 6533.791
686.427, 7141.453
687.727, 7667.289
689.028, 8504.278
690.328, 9237.378
691.628, 10442.597
692.927, 11547.066
694.227, 12771.661
695.526, 13719.423
696.825, 16204.053
698.124, 17647.494
699.423, 19774.146
700.721, 22200.402
702.020, 25157.842
703.318, 27959.387
704.616, 31273.551
705.913, 34042.656
707.211, 37074.184
708.508, 40345.242
709.805, 39930.480
711.102, 37570.758
712.399, 35157.066
713.695, 29996.461
714.992, 25877.594
716.288, 20863.426
717.584, 17177.484
718.879, 14006.880
720.175, 11325.693
721.470, 9926.051
722.765, 8160.299
724.060, 7136.606
725.355, 6161.038
726.649, 5240.693
727.944, 4753.916
729.238, 4501.965
730.532, 3758.534
731.825, 3941.094
733.119, 3671.785
734.412, 3465.542
735.705, 3369.103
736.998, 3304.745
738.291, 3459.897
739.584, 3623.486
740.876, 3718.109
742.168, 3920.721
743.460, 3974.251
744.752, 4085.937
746.043, 4335.141
747.334, 4540.801
748.626, 4412.859
749.916, 4404.608
751.207, 4358.086
752.498, 4319.354
753.788, 4354.869
755.078, 3907.993
756.368, 3772.103
757.658, 3744.061
758.947, 3432.014
760.237, 3304.157
761.526, 2831.066
762.815, 2694.958
764.104, 2390.895
765.392, 2173.752
766.680, 2034.594
767.969, 1705.639
769.257, 1768.444
770.544, 1473.293
771.832, 1593.062
773.119, 1502.875
774.406, 1359.607
775.693, 1477.320
776.980, 1263.014
778.267, 1445.688
779.553, 1394.344
780.839, 1493.978
782.125, 1367.591
783.411, 1489.186
784.697, 1261.756
785.982, 1221.308
787.267, 1297.838
788.552, 1089.347
789.837, 1042.832
791.122, 956.298
792.406, 823.740
793.690, 652.160
794.974, 668.558
796.258, 478.932
797.542, 519.283
798.825, 497.610
800.108, 407.915
801.391, 265.195
802.674, 312.451
803.957, 311.687
805.239, 154.904
806.522, 190.131
807.804, 53.332
809.085, 106.516
810.367, 45.689
811.649, 19.116
812.930, 7.082
814.211, 16.269
815.492, 151.552
816.772, 57.475
818.053, 43.558
819.333, 88.417
820.613, 59.460
821.893, 15.569
823.173, 69.713
824.452, 102.938
825.732, 29.267
827.011, 39.660
828.290, 70.124
829.568, 134.674
830.847, 71.347
832.125, 31.894
833.403, 24.906
834.681, 139.771
835.959, 53.761
837.236, 116.831
838.514, 52.015
839.791, 13.721
841.068, 55.411
842.345, 24.935
843.621, 10.349
844.898, 43.820
846.174, 95.369
847.450, 49.262
848.726, 51.753
850.001, 20.433
851.277, 14.426
852.552, 20.654
853.827, 11.312
855.102, 1.913
856.376, 63.416
857.651, 6.418
858.925, 52.200
860.199, 28.942
861.473, 135.358
862.746, 45.215
864.020, 178.746
865.293, 27.753
866.566, 139.678
867.839, 53.075
869.112, 77.433
870.384, 40.249
871.656, 140.996
872.928, 20.794
874.200, 13.649
875.472, 232.434
876.744, 41.483
878.015, 15.508
879.286, 21.438
880.557, 215.340
881.828, 59.208
883.098, 107.037
884.369, 107.830
885.639, 91.588
886.909, 83.308
888.178, 105.990
889.448, 69.361
890.717, 240.195
891.987, 69.278
893.256, 95.159
894.524, 95.561
895.793, 19.926
897.061, 84.246
898.330, 37.530
899.598, 84.774
900.865, 199.980
902.133, 71.154
903.401, 102.293
904.668, 137.396
905.935, 94.467
907.202, 35.502
908.468, 166.494
909.735, 216.459
911.001, 197.394
912.267, 148.299
913.533, 270.172
914.799, 246.021
916.064, 187.839
917.330, 408.625
918.595, 230.383
919.860, 150.109
921.124, 227.804
922.389, 189.467
923.653, 212.098
924.918, 189.698
926.182, 211.677
927.445, 228.567
928.709, 248.317
929.972, 274.800
931.236, 262.251
932.499, 281.672
933.761, 354.062
935.024, 243.434
936.286, 304.774
937.549, 472.085
938.811, 295.367
940.073, 466.622
941.334, 330.848
942.596, 323.044
943.857, 423.211
945.118, 429.350
946.379, 459.751
947.640, 383.544
948.900, 463.596
950.161, 430.621
951.421, 338.637
952.681, 443.625
953.940, 537.585
955.200, 534.515
956.459, 618.024
957.719, 629.126
958.978, 677.274
960.236, 670.106
961.495, 639.959
962.753, 690.602
964.012, 677.730
965.270, 646.441
966.527, 739.368
967.785, 742.986
969.043, 725.442
970.300, 817.731
971.557, 684.122
972.814, 889.266
974.071, 775.101
975.327, 900.501
976.583, 755.754
977.840, 877.569
979.095, 936.718
980.351, 972.901
981.607, 924.995
982.862, 1009.013
984.117, 942.624
985.372, 1154.466
986.627, 782.060
987.882, 1003.010
989.136, 1065.961
990.390, 890.957
991.644, 1174.911
992.898, 1060.701
994.152, 1148.322
995.405, 1135.827
996.659, 1119.208
997.912, 1142.323
999.165, 1158.318
1000.417, 1314.131
1001.670, 1021.071
1002.922, 1424.199
1004.174, 1155.104
1005.426, 1253.403
1006.678, 1343.531
1007.930, 1350.541
1009.181, 1435.916
1010.432, 1368.348
1011.683, 1452.351
1012.934, 1476.791
1014.185, 1505.044
1015.435, 1528.244
1016.685, 1576.414
1017.935, 1602.473
1019.185, 1640.787
1020.435, 1650.387
1021.684, 1597.742
1022.934, 1686.741
1024.183, 1836.330
1025.432, 1757.362
1026.680, 1920.490
1027.929, 1738.541
1029.177, 1877.453
1030.425, 1793.119
1031.673, 1904.201
1032.921, 1925.455
1034.169, 1922.168
1035.416, 2060.873
1036.663, 2189.423
1037.911, 2172.891
1039.157, 2379.556
1040.404, 2590.224
1041.650, 2694.401
1042.897, 3040.993
1044.143, 2988.660
1045.389, 3445.285
1046.634, 3709.174
1047.880, 3792.568
1049.125, 4171.858
1050.371, 4405.229
1051.615, 4808.493
1052.860, 4899.865
1054.105, 5460.849
1055.349, 5581.713
1056.593, 5575.416
1057.837, 5879.180
1059.081, 6068.097
1060.325, 5992.521
1061.568, 5790.896
1062.812, 5676.539
1064.055, 5378.243
1065.298, 5295.463
1066.540, 4985.401
1067.783, 4770.538
1069.025, 4549.671
1070.267, 4504.406
1071.509, 4168.332
1072.751, 4067.246
1073.993, 4111.039
1075.234, 3914.897
1076.475, 3769.227
1077.716, 3746.178
1078.957, 3522.784
1080.198, 3427.617
1081.438, 3549.335
1082.679, 3365.375
1083.919, 3378.590
1085.159, 3250.281
1086.398, 3200.140
1087.638, 3054.229
1088.877, 3166.851
1090.116, 3146.656
1091.355, 3134.721
1092.594, 3138.790
1093.833, 3055.801
1095.071, 2966.052
1096.309, 3010.969
1097.547, 3065.848
1098.785, 3011.021
1100.023, 3268.353
1101.260, 3216.507
1102.498, 3277.197
1103.735, 3240.957
1104.972, 3444.766
1106.208, 3407.833
1107.445, 3564.990
1108.681, 3462.042
1109.918, 3758.979
1111.154, 3668.196
1112.389, 3888.263
1113.625, 4020.755
1114.860, 3918.449
1116.096, 4179.975
1117.331, 4434.717
1118.566, 4425.716
1119.800, 4576.739
1121.035, 4911.908
1122.269, 4996.318
1123.503, 5332.244
1124.737, 5594.469
1125.971, 5697.381
1127.205, 6134.244
1128.438, 6338.683
1129.671, 6886.074
1130.904, 7089.643
1132.137, 7625.744
1133.370, 8191.441
1134.602, 8537.469
1135.834, 8764.601
1137.066, 9154.997
1138.298, 9595.232
1139.530, 9014.235
1140.762, 9249.684
1141.993, 8303.879
1143.224, 7570.390
1144.455, 6731.482
1145.686, 5732.533
1146.917, 4957.947
1148.147, 4069.131
1149.377, 3325.353
1150.607, 2735.776
1151.837, 2175.174
1153.067, 1794.905
1154.296, 1604.602
1155.526, 1350.956
1156.755, 1143.369
1157.984, 1017.281
1159.213, 846.617
1160.441, 777.964
1161.670, 715.467
1162.898, 796.107
1164.126, 432.711
1165.354, 720.545
1166.581, 938.237
1167.809, 972.330
1169.036, 751.469
1170.263, 633.757
1171.490, 650.769
1172.717, 798.735
1173.943, 760.474
1175.170, 826.620
1176.396, 822.340
1177.622, 1009.104
1178.848, 621.953
1180.073, 245.038
1181.299, 277.199
1182.524, 122.341
1183.749, 117.038
1184.974, 225.194
1186.199, 117.588
1187.423, 95.996
1188.648, 86.663
1189.872, 118.312
1191.096, 88.349
1192.320, 97.106
1193.543, 48.939
1194.767, 144.689
1195.990, 22.291
1197.213, 163.878
1198.436, 54.450
1199.659, 97.002
1200.881, 11.779
1202.104, 85.364
1203.326, 60.031
1204.548, 158.513
1205.770, 24.016
1206.991, 6.597
1208.213, 14.018
1209.434, 165.415
1210.655, 39.203
1211.876, 50.146
1213.096, 102.473
1214.317, 67.781
1215.537, 67.069
1216.757, 108.359
1217.977, 114.632
1219.197, 101.886
1220.417, 144.123
1221.636, 112.344
1222.855, 13.545
1224.074, 103.004
1225.293, 7.836
1226.512, 129.299
1227.731, 171.413
1228.949, 77.565
1230.167, 42.361
1231.385, 165.813
1232.603, 117.823
1233.820, 61.812
1235.038, 7.223
1236.255, 127.801
1237.472, 64.732
1238.689, 62.648
1239.906, 75.551
1241.122, 19.415
1242.338, 96.266
1243.555, 104.060
1244.771, 32.814
1245.986, 69.449
1247.202, 35.248
1248.417, 144.916
1249.633, 127.571
1250.848, 138.802
1252.063, 51.766
1253.277, 79.716
1254.492, 52.713
1255.706, 79.104
1256.920, 23.466
1258.134, 45.799
1259.348, 34.890
1260.562, 136.355
1261.775, 176.559
1262.988, 134.811
1264.201, 24.138
1265.414, 70.951
1266.627, 43.004
1267.839, 16.981
1269.052, 84.068
1270.264, 42.815
1271.476, 121.672
1272.688, 144.510
1273.899, 25.229
1275.111, 40.059
1276.322, 17.576
1277.533, 1.828
1278.744, 211.731
1279.955, 15.731
1281.165, 102.743
1282.376, 49.190
1283.586, 32.429
1284.796, 28.100
1286.006, 50.811
1287.215, 99.431
1288.425, 42.646
1289.634, 12.169
1290.843, 139.979
1292.052, 31.899
1293.261, 117.179
1294.469, 11.771
1295.678, 14.759
1296.886, 69.216
1298.094, 50.840
1299.302, 49.943
1300.509, 78.903
1301.717, 52.722
1302.924, 18.494
1304.131, 84.247
1305.338, 79.957
1306.545, 59.636
1307.752, 42.281
1308.958, 1.894
1310.164, 230.467
1311.370, 14.991
1312.576, 139.509
1313.782, 125.977
1314.987, 92.412
1316.193, 67.184
1317.398, 166.162
1318.603, 1.477
1319.807, 119.753
1321.012, 29.997
1322.216, 256.208
1323.421, 186.393
1324.625, 35.453
1325.829, 105.655
1327.032, 106.736
1328.236, 239.787
1329.439, 96.813
1330.642, 56.188
1331.845, 7.761
1333.048, 212.579
1334.251, 226.331
1335.453, 120.189
1336.656, 182.892
1337.858, 161.603
1339.060, 178.083
1340.261, 217.856
1341.463, 246.171
1342.664, 221.900
1343.866, 233.296
1345.067, 152.844
1346.267, 194.009
1347.468, 170.456
1348.669, 230.774
1349.869, 316.381
1351.069, 168.809
1352.269, 270.837
1353.469, 449.877
1354.668, 243.419
1355.868, 282.095
1357.067, 413.230
1358.266, 208.569
1359.465, 325.749
1360.664, 276.067
1361.862, 264.391
1363.061, 312.997
1364.259, 246.502
1365.457, 313.948
1366.655, 278.257
1367.852, 147.149
1369.050, 412.417
1370.247, 326.679
1371.444, 238.644
1372.641, 199.636
1373.838, 265.201
1375.035, 176.482
1376.231, 364.318
1377.427, 280.792
1378.623, 367.842
1379.819, 191.968
1381.015, 299.303
1382.211, 319.422
1383.406, 281.936
1384.601, 395.452
1385.796, 421.706
1386.991, 370.611
1388.185, 410.843
1389.380, 247.545
1390.574, 326.833
1391.768, 341.956
1392.962, 230.255
1394.156, 252.489
1395.350, 275.321
1396.543, 349.759
1397.736, 210.917
1398.929, 280.785
1400.122, 319.182
1401.315, 417.434
1402.507, 307.142
1403.700, 398.966
1404.892, 331.534
1406.084, 271.473
1407.276, 209.273
1408.467, 222.541
1409.659, 284.784
1410.850, 219.550
1412.041, 395.164
1413.232, 322.740
1414.423, 484.228
1415.614, 210.750
1416.804, 327.742
1417.994, 306.706
1419.184, 297.109
1420.374, 326.340
1421.564, 318.631
1422.753, 304.706
1423.943, 341.122
1425.132, 295.775
1426.321, 307.697
1427.510, 176.096
1428.698, 280.499
1429.887, 136.930
1431.075, 324.584
1432.263, 233.398
1433.451, 291.769
1434.639, 332.090
1435.827, 450.735
1437.014, 433.423
1438.201, 409.604
1439.388, 431.126
1440.575, 402.409
1441.762, 288.914
1442.949, 359.165
1444.135, 313.342
1445.321, 259.924
1446.507, 333.967
1447.693, 251.830
1448.879, 474.494
1450.064, 443.382
1451.250, 439.005
1452.435, 179.655
1453.620, 501.255
1454.805, 287.943
1455.989, 325.568
1457.174, 492.120
1458.358, 237.595
1459.542, 202.207
1460.726, 274.930
1461.910, 297.614
1463.093, 416.415
1464.277, 288.291
1465.460, 271.225
1466.643, 482.396
1467.826, 290.614
1469.009, 386.896
1470.191, 243.277
1471.373, 341.808
1472.556, 388.400
1473.738, 413.177
1474.919, 261.135
1476.101, 348.110
1477.283, 291.094
1478.464, 323.099
1479.645, 251.124
1480.826, 410.171
1482.007, 166.253
1483.187, 404.388
1484.368, 231.595
1485.548, 211.889
1486.728, 301.285
1487.908, 310.797
1489.088, 262.443
1490.268, 520.246
1491.447, 209.207
1492.626, 149.338
1493.805, 152.645
1494.984, 446.125
1496.163, 368.785
1497.341, 120.625
1498.520, 405.648
1499.698, 314.871
1500.876, 285.320
1502.054, 55.963
1503.232, 232.051
1504.409, 59.398
1505.586, 68.113
1506.763, 347.232
1507.940, 243.436
1509.117, 330.156
1510.294, 252.492
1511.470, 297.631
1512.647, 129.145
1513.823, 177.055
1514.999, 168.854
1516.174, 162.270
1517.350, 0.090
1518.526, 252.244
1519.701, 0.000
##END=



