##NAMES=Trilithionite
##RRUFFID=R040105
##IDEAL CHEMISTRY=KLi_1.5_Al_1.5_(Si_3_Al)O_10_F_2_
##LOCALITY=Brown Derby mine, Ohio City, Gunnison County, Colorado, USA
##OWNER=RRUFF
##SOURCE=University of Arizona Mineral Museum
##DESCRIPTION=Purple hexagonal tablet
##STATUS=The identification of this mineral has been confirmed by X-ray diffraction and chemical analysis
##URL=rruff.info/R040105
##MEASURED CHEMISTRY=(K_0.82_Li_0.14_Na_0.04_)(Li_0.53_Al_0.42_Mn_0.05_)_3_(Si_0.84_Al_0.17_)_4_O_10_((OH)_0.59_F_0.41_)_2_
##PIN_ID=L01837
##ORIENTATION=Laser parallel to -b* (0 -1 0). Fiducial mark perpendicular to laser is parallel to c [0 0 1]
139.0430, 0.0000000E+00
140.2710, 183.9219
141.5000, 259.6934
142.7280, 107.5781
143.9560, 11.84570
145.1840, 74.43750
146.4120, 154.5801
147.6390, 64.21289
148.8670, 1.388672
150.0940, 146.1992
151.3210, 13.49219
152.5490, 95.16211
153.7750, 61.87891
155.0020, 293.4395
156.2290, 206.6465
157.4550, 221.3262
158.6810, 396.3203
159.9080, 414.4844
161.1340, 375.6953
162.3590, 500.8457
163.5850, 792.8418
164.8110, 905.6094
166.0360, 1200.105
167.2610, 1294.357
168.4860, 1476.357
169.7110, 1846.033
170.9360, 2142.316
172.1610, 2626.141
173.3850, 2829.461
174.6100, 3507.230
175.8340, 4057.410
177.0580, 4295.951
178.2820, 5029.820
179.5050, 5502.982
180.7290, 5625.410
181.9520, 6129.086
183.1760, 6070.988
184.3990, 6137.111
185.6220, 5823.434
186.8450, 5813.945
188.0670, 5457.639
189.2900, 4843.504
190.5120, 4489.629
191.7340, 4351.021
192.9560, 4022.051
194.1780, 3707.746
195.4000, 3355.270
196.6220, 3281.934
197.8430, 3222.756
199.0640, 2986.604
200.2860, 2902.480
201.5070, 2788.389
202.7270, 2748.330
203.9480, 2554.301
205.1690, 2459.303
206.3890, 2249.332
207.6090, 2226.387
208.8290, 2144.469
210.0490, 1959.574
211.2690, 1928.703
212.4890, 1970.842
213.7080, 2073.916
214.9280, 2289.924
216.1470, 2036.881
217.3660, 2153.809
218.5850, 2335.727
219.8030, 2171.635
221.0220, 2335.555
222.2400, 2148.484
223.4590, 2464.426
224.6770, 2318.391
225.8950, 2520.379
227.1120, 2474.393
228.3300, 2792.432
229.5480, 2998.500
230.7650, 3042.604
231.9820, 3221.736
233.1990, 3362.900
234.4160, 3418.094
235.6330, 3704.320
236.8490, 3617.578
238.0660, 3943.867
239.2820, 3983.188
240.4980, 4204.947
241.7140, 4341.689
242.9300, 4457.363
244.1460, 4899.969
245.3610, 4736.240
246.5770, 4831.162
247.7920, 4964.730
249.0070, 4798.283
250.2220, 5224.910
251.4370, 5143.451
252.6510, 5382.002
253.8660, 5322.248
255.0800, 5374.055
256.2940, 5508.500
257.5080, 5481.008
258.7220, 5541.531
259.9360, 5956.090
261.1490, 5757.727
262.3630, 5729.432
263.5760, 5666.145
264.7890, 5425.871
266.0020, 5111.602
267.2150, 4905.340
268.4270, 4731.084
269.6400, 4206.824
270.8520, 3922.564
272.0640, 3538.305
273.2760, 3074.045
274.4880, 2946.785
275.7000, 2359.523
276.9120, 2426.262
278.1230, 2025.000
279.3340, 1691.736
280.5450, 1467.471
281.7560, 1710.205
282.9670, 1399.936
284.1780, 1409.875
285.3880, 1373.537
286.5980, 988.1309
287.8090, 965.3848
289.0190, 967.9258
290.2290, 674.5254
291.4380, 778.5273
292.6480, 728.7305
293.8570, 799.1152
295.0670, 822.6465
296.2760, 735.3418
297.4850, 787.0352
298.6930, 686.9844
299.9020, 773.0469
301.1110, 809.2109
302.3190, 563.4707
303.5270, 689.8184
304.7350, 490.2461
305.9430, 428.7520
307.1510, 476.3281
308.3580, 178.9688
309.5660, 590.6738
310.7730, 265.4336
311.9800, 508.2480
313.1870, 154.1113
314.3940, 374.0234
315.6010, 348.9805
316.8070, 388.9746
318.0130, 318.0078
319.2200, 315.9785
320.4260, 290.3203
321.6310, 260.4551
322.8370, 290.6191
324.0430, 262.8105
325.2480, 154.0273
326.4540, 20.26953
327.6590, 99.53516
328.8640, 107.8223
330.0680, 46.13281
331.2730, 83.46289
332.4780, 206.8105
333.6820, 13.17773
334.8860, 198.5664
336.0900, 27.96680
337.2940, 123.3828
338.4980, 43.81250
339.7010, 128.2500
340.9050, 43.28516
342.1080, 42.84570
343.3110, 74.58789
344.5140, 7.025391
345.7170, 16.46484
346.9200, 89.16406
348.1220, 94.35156
349.3240, 80.92773
350.5270, 91.81250
351.7290, 110.9902
352.9310, 39.62695
354.1320, 87.27344
355.3340, 74.93945
356.5350, 188.6230
357.7370, 106.6465
358.9380, 94.98242
360.1390, 242.7344
361.3400, 110.4551
362.5400, 38.29883
363.7410, 17.10938
364.9410, 76.77734
366.1410, 64.16992
367.3410, 35.58203
368.5410, 27.34375
369.7410, 92.87695
370.9400, 118.0215
372.1400, 256.1621
373.3390, 252.5508
374.5380, 272.1055
375.7370, 154.9102
376.9360, 251.0430
378.1350, 236.3516
379.3330, 233.7051
380.5310, 253.8301
381.7300, 274.3867
382.9280, 485.5020
384.1260, 519.6172
385.3230, 369.7129
386.5210, 177.7949
387.7180, 367.8711
388.9160, 438.9121
390.1130, 385.8965
391.3100, 521.8262
392.5060, 524.7012
393.7030, 410.5078
394.9000, 555.1992
396.0960, 630.8789
397.2920, 592.5449
398.4880, 525.1895
399.6840, 521.8125
400.8800, 468.4336
402.0750, 635.0469
403.2710, 602.6562
404.4660, 718.2578
405.6610, 642.8594
406.8560, 561.4512
408.0510, 780.0391
409.2450, 584.6191
410.4400, 475.1953
411.6340, 560.7617
412.8280, 531.3262
414.0220, 522.8809
415.2160, 460.4336
416.4100, 308.9805
417.6030, 200.5195
418.7970, 255.0547
419.9900, 237.5840
421.1830, 307.1055
422.3760, 206.6230
423.5690, 188.1328
424.7610, 319.6387
425.9540, 60.13867
427.1460, 303.6328
428.3380, 58.11914
429.5300, 59.60938
430.7220, 155.1016
431.9140, 82.59961
433.1050, 160.1035
434.2970, 134.6133
435.4880, 273.1309
436.6790, 188.6484
437.8700, 192.1660
439.0610, 219.6836
440.2510, 200.2012
441.4420, 288.7188
442.6320, 251.7188
443.8220, 260.9316
445.0120, 235.2637
446.2020, 256.7754
447.3910, 280.2793
448.5810, 320.4648
449.7700, 356.4238
450.9600, 306.9199
452.1490, 429.4062
453.3370, 349.8926
454.5260, 342.3711
455.7150, 386.8438
456.9030, 169.3105
458.0910, 259.7715
459.2800, 170.2227
460.4670, 405.6699
461.6550, 300.1074
462.8430, 78.54297
464.0300, 239.9668
465.2180, 144.3809
466.4050, 263.7891
467.5920, 277.1875
468.7790, 203.5801
469.9650, 169.9629
471.1520, 194.3691
472.3380, 298.7070
473.5250, 229.0684
474.7110, 424.4180
475.8970, 433.7637
477.0820, 457.0957
478.2680, 332.4199
479.4540, 310.7363
480.6390, 334.0449
481.8240, 241.3418
483.0090, 103.6309
484.1940, 287.2266
485.3780, 160.8086
486.5630, 165.0684
487.7470, 323.3203
488.9320, 75.43555
490.1160, 102.7246
491.3000, 122.2148
492.4830, 23.61523
493.6670, 60.80078
494.8500, 172.0352
496.0340, 289.1484
497.2170, 812.6680
498.4000, 842.8223
499.5820, 648.4668
500.7650, 56.03320
501.9480, 87.90039
503.1300, 115.5098
504.3120, 49.51953
505.4940, 136.5781
506.6760, 68.90234
507.8580, 300.0488
509.0390, 186.3770
510.2210, 12.94141
511.4020, 94.12500
512.5830, 71.33203
513.7640, 81.77930
514.9450, 49.77734
516.1250, 38.61914
517.3060, 98.00977
518.4860, 136.3945
519.6660, 23.77344
520.8460, 18.85547
522.0260, 199.4863
523.2060, 150.1738
524.3850, 73.07031
525.5650, 159.3379
526.7440, 105.5996
527.9230, 212.8535
529.1020, 114.1016
530.2810, 267.3457
531.4590, 291.5859
532.6380, 100.8496
533.8160, 68.10547
534.9940, 307.3848
536.1720, 263.6895
537.3500, 254.9883
538.5270, 326.7969
539.7050, 294.5840
540.8820, 294.8770
542.0590, 374.1680
543.2360, 274.4551
544.4130, 415.7363
545.5900, 475.0137
546.7660, 582.2891
547.9430, 300.5625
549.1190, 533.8320
550.2950, 441.1055
551.4710, 615.3730
552.6470, 462.6758
553.8220, 593.9766
554.9980, 888.2969
556.1730, 903.6289
557.3480, 886.9551
558.5230, 1348.279
559.6980, 1246.615
560.8730, 1124.994
562.0470, 1141.373
563.2220, 1345.752
564.3960, 1324.129
565.5700, 1518.504
566.7440, 1252.895
567.9170, 1178.076
569.0910, 1453.459
570.2640, 1071.574
571.4380, 1027.705
572.6110, 1152.076
573.7840, 855.4453
574.9570, 890.8066
576.1290, 587.1758
577.3020, 715.5391
578.4740, 668.8965
579.6460, 480.2500
580.8180, 640.6094
581.9900, 503.0234
583.1620, 406.4316
584.3330, 409.8887
585.5040, 409.3359
586.6760, 320.7812
587.8470, 454.2227
589.0180, 317.6699
590.1880, 38.10742
591.3590, 357.5410
592.5290, 436.9668
593.7000, 423.3887
594.8700, 203.8027
596.0400, 284.2129
597.2090, 114.6172
598.3790, 496.0156
599.5490, 232.4043
600.7180, 339.7891
601.8870, 98.16406
603.0560, 467.5488
604.2250, 302.7871
605.3940, 559.1582
606.5620, 255.5234
607.7300, 303.8828
608.8990, 364.2324
610.0670, 336.6035
611.2350, 506.9668
612.4020, 513.8750
613.5700, 623.6992
614.7370, 582.0762
615.9050, 350.4473
617.0720, 269.8164
618.2390, 268.1758
619.4060, 365.5254
620.5720, 267.8770
621.7390, 360.2227
622.9050, 451.5703
624.0710, 353.8867
625.2370, 452.2305
626.4030, 425.2168
627.5690, 251.9414
628.7340, 440.3008
629.9000, 270.3945
631.0650, 333.6973
632.2300, 313.0566
633.3950, 368.7227
634.5600, 164.6738
635.7240, 481.0762
636.8890, 251.4824
638.0530, 366.9141
639.2170, 79.45117
640.3810, 364.9277
641.5450, 102.2988
642.7080, 431.7871
643.8720, 332.3301
645.0350, 427.8047
646.1980, 182.3574
647.3610, 396.2363
648.5240, 476.6074
649.6870, 151.1133
650.8490, 437.6367
652.0120, 340.1719
653.1740, 187.7734
654.3360, 560.3730
655.4980, 398.7207
656.6600, 425.3027
657.8210, 651.4648
658.9830, 414.0469
660.1440, 657.4395
661.3050, 731.1875
662.4660, 765.9473
663.6270, 893.1094
664.7870, 857.6309
665.9480, 733.1660
667.1080, 861.7051
668.2680, 712.4062
669.4280, 831.3125
670.5880, 856.8418
671.7480, 888.7207
672.9070, 922.2246
674.0670, 1028.338
675.2260, 1086.926
676.3850, 1020.406
677.5440, 1031.844
678.7030, 1138.904
679.8610, 1109.971
681.0200, 1236.801
682.1780, 1298.551
683.3360, 1716.281
684.4940, 1715.699
685.6520, 1789.721
686.8090, 2067.383
687.9670, 2093.801
689.1240, 2376.199
690.2810, 2457.746
691.4380, 2773.033
692.5950, 2869.262
693.7520, 3430.441
694.9080, 3662.568
696.0650, 4191.379
697.2210, 4571.164
698.3770, 5213.617
699.5330, 6014.141
700.6880, 6718.254
701.8440, 7616.461
702.9990, 8584.711
704.1550, 9464.625
705.3100, 10793.00
706.4650, 11696.41
707.6190, 12690.26
708.7740, 13753.77
709.9290, 13894.91
711.0830, 14299.45
712.2370, 13609.56
713.3910, 13018.65
714.5450, 11940.38
715.6980, 10304.51
716.8520, 8942.678
718.0050, 7571.051
719.1580, 6617.975
720.3110, 5522.699
721.4640, 4526.340
722.6170, 4038.836
723.7700, 3531.988
724.9220, 3012.490
726.0740, 2656.398
727.2260, 2510.359
728.3780, 1971.232
729.5300, 1931.941
730.6810, 1617.635
731.8330, 1706.906
732.9840, 1186.699
734.1350, 1469.094
735.2860, 958.8516
736.4370, 891.2051
737.5880, 941.9199
738.7380, 1242.619
739.8880, 890.2969
741.0390, 1133.768
742.1890, 971.9941
743.3380, 944.6113
744.4880, 858.4551
745.6380, 791.0312
746.7870, 717.5840
747.9360, 1012.314
749.0850, 830.4219
750.2340, 894.1934
751.3830, 704.6621
752.5310, 806.1934
753.6800, 757.4648
754.8280, 743.4688
755.9760, 737.8477
757.1240, 928.5059
758.2720, 933.5664
759.4190, 715.6094
760.5670, 586.2676
761.7140, 881.8223
762.8610, 683.7852
764.0080, 622.5273
765.1550, 384.4102
766.3020, 584.9844
767.4480, 518.3535
768.5950, 340.9844
769.7410, 501.1172
770.8870, 263.7988
772.0330, 422.4980
773.1780, 218.5840
774.3240, 448.0000
775.4690, 529.4688
776.6140, 173.7441
777.7590, 269.7285
778.9040, 225.0625
780.0490, 337.9941
781.1940, 318.3418
782.3380, 427.2461
783.4820, 424.2852
784.6260, 424.7109
785.7700, 443.0742
786.9140, 350.2266
788.0580, 386.2051
789.2010, 353.8477
790.3450, 285.3320
791.4880, 302.7852
792.6310, 271.1133
793.7730, 198.9844
794.9160, 80.26953
796.0590, 337.2891
797.2010, 309.0703
798.3430, 123.3164
799.4850, 19.04688
800.6270, 211.7383
801.7690, 79.96484
802.9100, 301.0547
804.0520, 384.6406
805.1930, 183.5508
806.3340, 134.4375
807.4750, 32.92969
808.6160, 69.27344
809.7560, 225.7539
810.8970, 72.91016
812.0370, 80.48828
813.1770, 247.6680
814.3170, 37.79688
815.4570, 83.88672
816.5960, 80.94141
817.7360, 134.9609
818.8750, 151.7070
820.0140, 154.8945
821.1530, 227.8164
822.2920, 80.70703
823.4310, 164.5586
824.5690, 33.37891
825.7070, 34.16016
826.8460, 184.9023
827.9840, 124.3867
829.1220, 45.20312
830.2590, 43.23828
831.3970, 26.75391
832.5340, 108.6602
833.6710, 111.0430
834.8080, 18.60547
835.9450, 159.3242
837.0820, 47.82812
838.2190, 37.94141
839.3550, 33.01953
840.4910, 66.05469
841.6270, 48.94922
842.7630, 173.9727
843.8990, 67.86328
845.0350, 142.7188
846.1700, 351.5391
847.3060, 127.3281
848.4410, 33.08203
849.5760, 302.7969
850.7100, 9.515625
851.8450, 211.1133
852.9800, 196.7109
854.1140, 143.2773
855.2480, 14.18750
856.3820, 186.7109
857.5160, 66.61719
858.6500, 168.0859
859.7830, 173.0703
860.9170, 84.19531
862.0500, 120.2812
863.1830, 11.66406
864.3160, 258.3359
865.4480, 274.3086
866.5810, 36.24609
867.7130, 108.1484
868.8460, 359.0234
869.9780, 67.86328
871.1100, 310.6719
872.2410, 66.44922
873.3730, 299.1914
874.5050, 211.9062
875.6360, 351.5859
876.7670, 33.75781
877.8980, 68.83984
879.0290, 276.3945
880.1590, 148.9258
881.2900, 286.4258
882.4200, 231.8945
883.5500, 73.66406
884.6800, 62.69141
885.8100, 27.98047
886.9400, 230.2891
888.0690, 57.46875
889.1990, 24.69531
890.3280, 48.82812
891.4570, 208.9297
892.5860, 126.0000
893.7140, 5.960938
894.8430, 30.03906
895.9710, 17.00000
897.1000, 123.9180
898.2280, 27.80469
899.3560, 65.65625
900.4830, 87.52344
901.6110, 92.21484
902.7380, 133.9219
903.8660, 73.59766
904.9930, 258.2461
906.1200, 46.86719
907.2460, 41.45312
908.3730, 188.0156
909.5000, 94.55078
910.6260, 23.94531
911.7520, 113.5078
912.8780, 228.8477
914.0040, 84.25781
915.1290, 212.6289
916.2550, 65.98438
917.3800, 164.3047
918.5050, 73.39453
919.6300, 123.1719
920.7550, 47.95703
921.8800, 111.0586
923.0040, 38.87109
924.1290, 101.1523
925.2530, 234.1445
926.3770, 30.10938
927.5010, 51.05078
928.6250, 434.9570
929.7480, 48.76172
930.8720, 103.0391
931.9950, 321.8672
933.1180, 31.67188
934.2410, 186.0469
935.3640, 279.5977
936.4860, 4.285156
937.6090, 41.03516
938.7310, 195.7305
939.8530, 50.39062
940.9750, 46.86328
942.0970, 227.1055
943.2180, 316.6836
944.3400, 418.9062
945.4610, 192.4688
946.5820, 74.39844
947.7030, 261.8164
948.8240, 494.3164
949.9450, 189.8281
951.0650, 352.6875
952.1860, 147.5117
953.3060, 140.5430
954.4260, 204.6250
955.5460, 255.7031
956.6650, 431.0664
957.7850, 447.7383
958.9040, 218.8633
960.0230, 444.1445
961.1420, 401.4141
962.2610, 153.5039
963.3800, 207.8281
964.4990, 195.1836
965.6170, 313.5625
966.7350, 131.9688
967.8530, 389.6523
968.9710, 193.3398
970.0890, 207.1992
971.2070, 294.2148
972.3240, 462.4844
973.4410, 359.6367
974.5580, 410.7188
975.6750, 172.1055
976.7920, 501.0000
977.9090, 220.8359
979.0250, 440.2031
980.1410, 541.8828
981.2580, 347.9062
982.3740, 466.5039
983.4890, 530.5117
984.6050, 241.5000
985.7200, 449.8281
986.8360, 595.7305
987.9510, 424.5703
989.0660, 536.1719
990.1810, 550.1953
991.2950, 357.3906
992.4100, 376.6523
993.5240, 405.0273
994.6390, 665.7148
995.7530, 606.0312
996.8660, 523.5000
997.9800, 784.7422
999.0940, 456.6562
1000.207, 465.5586
1001.320, 275.6055
1002.433, 149.0547
1003.546, 700.9531
1004.659, 513.2227
1005.772, 440.1484
1006.884, 552.4531
1007.996, 331.3672
1009.108, 573.2773
1010.220, 476.1836
1011.332, 614.3125
1012.444, 541.6562
1013.555, 486.5898
1014.666, 623.2773
1015.777, 769.1992
1016.888, 426.1250
1017.999, 483.8477
1019.110, 510.1641
1020.220, 432.7891
1021.331, 621.6992
1022.441, 328.5117
1023.551, 383.5938
1024.661, 560.8945
1025.770, 520.8203
1026.880, 367.4844
1027.989, 193.7422
1029.098, 536.9961
1030.207, 439.6055
1031.316, 463.2969
1032.425, 303.5547
1033.533, 531.0078
1034.642, 396.2969
1035.750, 181.8711
1036.858, 524.6211
1037.966, 410.1484
1039.073, 591.1484
1040.181, 434.5781
1041.288, 660.9883
1042.396, 527.9883
1043.503, 346.6484
1044.610, 342.2305
1045.716, 263.3984
1046.823, 384.6602
1047.929, 422.5078
1049.036, 604.3242
1050.142, 626.9023
1051.248, 703.9023
1052.353, 802.6016
1053.459, 703.2109
1054.564, 725.7422
1055.670, 674.5508
1056.775, 627.5625
1057.880, 750.3477
1058.985, 896.3984
1060.089, 578.9062
1061.194, 942.5117
1062.298, 619.5703
1063.402, 1083.188
1064.506, 889.0469
1065.610, 915.1172
1066.713, 901.6953
1067.817, 849.7812
1068.920, 945.8789
1070.023, 1327.207
1071.126, 1232.934
1072.229, 1155.074
1073.332, 849.8594
1074.435, 1173.652
1075.537, 851.8398
1076.639, 1129.656
1077.741, 1424.863
1078.843, 1323.070
1079.945, 1315.145
1081.046, 1365.426
1082.148, 1257.715
1083.249, 1359.621
1084.350, 1565.320
1085.451, 1474.637
1086.551, 1498.965
1087.652, 1502.051
1088.752, 1457.906
1089.853, 1515.254
1090.953, 1519.609
1092.053, 1400.973
1093.152, 1531.344
1094.252, 1486.738
1095.351, 1391.129
1096.451, 1781.605
1097.550, 1684.055
1098.649, 1727.543
1099.748, 1809.047
1100.846, 1556.566
1101.945, 1500.090
1103.043, 1899.633
1104.141, 1577.246
1105.239, 1865.859
1106.337, 1476.492
1107.434, 1845.141
1108.532, 1778.793
1109.629, 1954.480
1110.726, 1887.176
1111.823, 1965.918
1112.920, 1883.590
1114.017, 2142.703
1115.113, 2128.438
1116.210, 2343.234
1117.306, 2533.988
1118.402, 2400.762
1119.498, 2183.547
1120.593, 2412.344
1121.689, 2427.145
1122.784, 2861.836
1123.879, 2677.730
1124.974, 2365.703
1126.069, 2728.668
1127.164, 2896.648
1128.259, 2654.012
1129.353, 2780.367
1130.447, 2951.523
1131.541, 2569.555
1132.635, 3116.578
1133.729, 2784.633
1134.822, 2719.699
1135.916, 2892.770
1137.009, 2890.070
1138.102, 2469.164
1139.195, 1882.496
1140.288, 1721.613
1141.380, 1593.730
1142.473, 1489.461
1143.565, 1333.613
1144.657, 1129.891
1145.749, 987.8438
1146.841, 862.2305
1147.932, 659.4141
1149.024, 514.8164
1150.115, 388.0391
1151.206, 499.2734
1152.297, 551.5312
1153.388, 510.4102
1154.479, 171.0820
1155.569, 489.7969
1156.659, 235.1094
1157.750, 157.0977
1158.839, 421.9062
1159.929, 209.2461
1161.019, 119.6016
1162.108, 61.97266
1163.198, 330.3438
1164.287, 116.7266
1165.376, 185.1172
1166.465, 211.6797
1167.553, 96.11719
1168.642, 384.4453
1169.730, 345.4570
1170.818, 306.9141
1171.906, 327.3945
1172.994, 85.86328
1174.082, 348.7617
1175.170, 88.24219
1176.257, 33.26172
1177.344, 73.23047
1178.431, 152.7305
1179.518, 107.2344
1180.605, 148.4219
1181.691, 118.1680
1182.778, 108.7773
1183.864, 94.32422
1184.950, 117.8359
1186.036, 171.5391
1187.122, 184.1758
1188.207, 241.2188
1189.292, 278.0391
1190.378, 339.1484
1191.463, 308.8164
1192.548, 301.4922
1193.632, 264.1680
1194.717, 232.3555
1195.801, 244.0391
1196.886, 127.4023
1197.970, 195.1016
1199.054, 91.80078
1200.137, 89.49219
1201.221, 111.1797
1202.305, 246.8633
1203.388, 198.5430
1204.471, 102.2344
1205.554, 7.4219003E-02
1206.637, 83.08203
1207.719, 158.5859
1208.802, 9.253906
1209.884, 162.9219
1210.966, 170.5977
1212.048, 345.2734
1213.130, 230.1758
1214.212, 235.5469
1215.293, 90.53516
1216.374, 57.22266
1217.456, 117.9062
1218.536, 52.40625
1219.617, 116.2656
1220.698, 230.9375
1221.778, 85.60547
1222.859, 279.2812
1223.939, 11.95312
1225.019, 277.6328
1226.099, 24.69141
1227.178, 577.9805
1228.258, 311.6523
1229.337, 219.3242
1230.417, 31.98828
1231.496, 229.6641
1232.574, 67.33984
1233.653, 211.0625
1234.732, 101.8125
1235.810, 171.5625
1236.888, 27.31250
1237.966, 325.0586
1239.044, 254.8047
1240.122, 165.5547
1241.199, 353.3047
1242.277, 183.0508
1243.354, 3.199219
1244.431, 223.5430
1245.508, 27.45312
1246.585, 456.1992
1247.661, 284.9336
1248.738, 273.2422
1249.814, 265.9766
1250.890, 47.70703
1251.966, 9.562500
1253.042, 163.1602
1254.117, 34.54297
1255.193, 53.20703
1256.268, 60.31641
1257.343, 49.97266
1258.418, 3.707031
1259.493, 108.6211
1260.567, 128.9883
1261.642, 41.40234
1262.716, 112.2383
1263.790, 274.4570
1264.864, 100.3203
1265.938, 154.0312
1267.011, 139.4492
1268.085, 9.078125
1269.158, 161.3828
1270.231, 120.8398
1271.304, 141.7070
1272.377, 177.6719
1273.450, 4.953125
1274.522, 135.6641
1275.594, 135.2188
1276.666, 139.5898
1277.738, 26.95703
1278.810, 110.4414
1279.882, 367.6797
1280.953, 169.0312
1282.025, 206.3711
1283.096, 137.7148
1284.167, 116.9531
1285.238, 129.5664
1286.308, 104.1758
1287.379, 84.88672
1288.449, 150.5625
1289.519, 338.1406
1290.589, 291.3320
1291.659, 138.4414
1292.729, 281.5469
1293.798, 428.6445
1294.868, 62.73438
1295.937, 106.8203
1297.006, 56.10547
1298.075, 15.92578
1299.143, 108.9375
1300.212, 93.94531
1301.280, 195.9453
1302.348, 31.06641
1303.416, 242.8867
1304.484, 423.8359
1305.552, 110.3711
1306.620, 433.2969
1307.687, 798.3086
1308.754, 178.2227
1309.821, 310.1250
1310.888, 327.0195
1311.955, 289.9062
1313.021, 366.7812
1314.088, 317.7148
1315.154, 578.5781
1316.220, 407.4258
1317.286, 383.2656
1318.352, 348.0977
1319.417, 207.9141
1320.483, 179.0156
1321.548, 197.8750
1322.613, 82.32812
1323.678, 246.1094
1324.743, 312.8828
1325.807, 248.6484
1326.872, 203.4062
1327.936, 313.1641
1329.000, 140.0938
1330.064, 627.8359
1331.128, 416.5664
1332.191, 332.2969
1333.255, 353.0195
1334.318, 57.70703
1335.381, 403.7812
1336.444, 144.4844
1337.507, 228.1797
1338.569, 392.8672
1339.632, 224.5469
1340.694, 76.22266
1341.756, 385.8867
1342.818, 381.5469
1343.880, 290.2031
1344.941, 415.8516
1346.003, 191.4883
1347.064, 295.8516
1348.125, 326.4727
1349.186, 454.0898
1350.247, 487.6953
1351.308, 416.2891
1352.368, 313.8750
1353.428, 257.4531
1354.489, 258.1523
1355.549, 233.7188
1356.608, 297.2734
1357.668, 461.8164
1358.727, 437.9297
1359.787, 469.2500
1360.846, 467.3711
1361.905, 333.6562
1362.964, 232.1602
1364.022, 318.6523
1365.081, 297.5391
1366.139, 498.0117
1367.197, 537.8203
1368.255, 505.9453
1369.313, 649.4023
1370.371, 436.8438
1371.428, 303.8867
1372.486, 122.3164
1373.543, 459.6875
1374.600, 249.1055
1375.657, 55.51953
1376.713, 428.9219
1377.770, 379.3203
1378.826, 312.7070
1379.882, 564.2305
1380.938, 397.6094
1381.994, 388.9141
1383.050, 276.2188
1384.106, 274.5156
1385.161, 311.4336
1386.216, 411.3633
1387.271, 359.5078
1388.326, 164.4219
1389.381, 30.70703
1390.435, 46.37891
1391.490, 93.22656
1392.544, 143.4727
1393.598, 162.7344
1394.652, 225.2852
1395.705, 245.7539
1396.759, 279.2930
1397.812, 334.5312
1398.866, 225.6562
1399.919, 220.8789
1400.972, 96.49219
1402.024, 111.8086
1403.077, 411.9180
1404.129, 219.1250
1405.181, 269.1094
1406.233, 536.0938
1407.285, 296.0703
1408.337, 161.0352
1409.389, 289.9922
1410.440, 193.9375
1411.491, 88.46875
1412.542, 282.3164
1413.593, 122.6797
1414.644, 63.00000
1415.695, 39.90625
1416.745, 123.8008
1417.795, 157.6914
1418.845, 183.5703
1419.895, 154.4375
1420.945, 172.2891
1421.995, 176.0000
1423.044, 204.8359
1424.093, 142.7617
1425.142, 197.2422
1426.191, 255.5898
1427.240, 242.1836
1428.289, 333.7773
1429.337, 304.9336
1430.385, 279.5039
1431.433, 77.00391
1432.481, 352.4883
1433.529, 117.9531
1434.577, 356.3945
1435.624, 241.8125
1436.672, 288.2031
1437.719, 539.5664
1438.766, 427.9180
1439.812, 105.7539
1440.859, 235.5273
1441.905, 194.9648
1442.952, 408.2266
1443.998, 377.4805
1445.044, 372.7383
1446.090, 521.6641
1447.135, 380.7891
1448.181, 353.8281
1449.226, 463.5977
1450.271, 451.7852
1451.316, 422.9609
1452.361, 397.1523
1453.405, 486.3398
1454.450, 251.5234
1455.494, 455.3945
1456.538, 255.5859
1457.582, 259.7656
1458.626, 328.6836
1459.670, 248.8320
1460.713, 143.9688
1461.757, 493.1211
1462.800, 381.2617
1463.843, 210.3828
1464.886, 453.5078
1465.928, 280.2734
1466.971, 162.7266
1468.013, 263.7539
1469.055, 262.6523
1470.097, 393.5391
1471.139, 321.4102
1472.181, 429.2617
1473.222, 233.1055
1474.263, 247.7188
1475.305, 187.8086
1476.346, 192.5977
1477.386, 265.3711
1478.427, 195.5820
1479.468, 117.8906
1480.508, 203.6719
1481.548, 364.5195
1482.588, 540.0547
1483.628, 65.37109
1484.668, 528.3047
1485.707, 158.7539
1486.747, 65.78516
1487.786, 346.8516
1488.825, 286.5430
1489.864, 64.48047
1490.902, 276.4141
1491.941, 536.3398
1492.979, 396.2539
1494.017, 765.8125
1495.055, 338.7695
1496.093, 314.8281
1497.131, 259.0078
1498.168, 292.1914
1499.206, 355.4180
1500.243, 346.5508
1501.280, 476.9961
1502.317, 325.3633
1503.354, 403.2969
1504.390, 237.5391
1505.426, 376.9648
1506.463, 220.4102
1507.499, 227.7148
1508.535, 401.9883
1509.570, 201.2773
1510.606, 216.5820
1511.641, 476.9180
1512.676, 45.27734
1513.711, 417.6289
1514.746, 325.9922
1515.781, 204.3516
1516.816, 348.7188
1517.850, 202.0547
1518.884, 535.4258
1519.918, 312.8047
1520.952, 104.1875
1521.986, 175.5781
1523.019, 7.015625
1524.053, 183.4062
1525.086, 38.12891
1526.119, 356.3555
1527.152, 296.4375
1528.185, 355.9883
1529.217, 346.5312
1530.250, 479.0977
1531.282, 315.5078
1532.314, 151.6523
1533.346, 632.9609
1534.377, 415.2422
1535.409, 158.4883
1536.440, 13.33203
1537.472, 333.7656
1538.503, 298.7852
1539.534, 188.7148
1540.564, 240.7773
1541.595, 321.9883
1542.625, 264.1172
1543.656, 312.0000
1544.686, 254.2891
1545.716, 329.9570
1546.745, 183.4727
1547.775, 196.2695
1548.804, 215.6328
1549.834, 235.9023
1550.863, 226.4375
1551.892, 161.3867
1552.920, 250.0156
1553.949, 259.4609
1554.977, 319.5703
1556.006, 364.7031
1557.034, 127.4219
1558.062, 233.6055
1559.089, 234.3672
1560.117, 319.4375
1561.144, 342.9219
1562.172, 370.6562
1563.199, 374.7148
1564.226, 102.1367
1565.252, 54.37109
1566.279, 165.0625
1567.305, 363.7930
1568.332, 299.5703
1569.358, 1.179688
1570.384, 0.8242190
1571.409, 236.4883
1572.435, 0.0000000E+00
##END=



