##NAMES=Trilithionite
##RRUFFID=R040105
##IDEAL CHEMISTRY=KLi_1.5_Al_1.5_(Si_3_Al)O_10_F_2_
##LOCALITY=Brown Derby mine, Ohio City, Gunnison County, Colorado, USA
##OWNER=RRUFF
##SOURCE=University of Arizona Mineral Museum
##DESCRIPTION=Purple hexagonal tablet
##STATUS=The identification of this mineral has been confirmed by X-ray diffraction and chemical analysis
##URL=rruff.info/R040105
##MEASURED CHEMISTRY=(K_0.82_Li_0.14_Na_0.04_)(Li_0.53_Al_0.42_Mn_0.05_)_3_(Si_0.84_Al_0.17_)_4_O_10_((OH)_0.59_F_0.41_)_2_
##PIN_ID=L00110
##ORIENTATION=Laser parallel to a* (1 0 0). Fiducial mark perpendicular to laser is parallel to b [0 1 0]
139.0430, 0.0000000E+00
140.2710, 49.18164
141.5000, 38.66992
142.7280, 58.32031
143.9560, 44.40234
145.1840, 68.24219
146.4120, 66.74805
147.6390, 122.3887
148.8670, 25.21484
150.0940, 177.6426
151.3210, 35.72852
152.5490, 183.8652
153.7750, 85.93164
155.0020, 126.8203
156.2290, 164.4434
157.4550, 94.71875
158.6810, 155.5664
159.9080, 155.9219
161.1340, 184.7266
162.3590, 53.93164
163.5850, 171.4961
164.8110, 266.3926
166.0360, 439.6426
167.2610, 373.2637
168.4860, 314.2207
169.7110, 548.4746
170.9360, 474.9902
172.1610, 592.7383
173.3850, 744.6934
174.6100, 727.8301
175.8340, 787.1328
177.0580, 828.5801
178.2820, 840.1523
179.5050, 857.7578
180.7290, 774.6250
181.9520, 830.5059
183.1760, 918.4727
184.3990, 864.5156
185.6220, 970.6348
186.8450, 907.1523
188.0670, 856.0996
189.2900, 770.5293
190.5120, 667.0312
191.7340, 528.0859
192.9560, 809.8066
194.1780, 720.5605
195.4000, 698.3477
196.6220, 624.2715
197.8430, 522.1641
199.0640, 587.0430
200.2860, 546.9102
201.5070, 543.7617
202.7270, 467.5996
203.9480, 468.0664
205.1690, 437.4492
206.3890, 417.0371
207.6090, 386.8242
208.8290, 309.5957
210.0490, 260.3555
211.2690, 386.0996
212.4890, 222.8242
213.7080, 291.5098
214.9280, 297.1602
216.1470, 494.7832
217.3660, 377.3809
218.5850, 342.9551
219.8030, 266.5234
221.0220, 470.0820
222.2400, 312.6387
223.4590, 455.1875
224.6770, 453.7422
225.8950, 457.2969
227.1120, 412.8496
228.3300, 523.4043
229.5480, 520.9668
230.7650, 539.5312
231.9820, 650.0996
233.1990, 781.6699
234.4160, 790.2480
235.6330, 947.8574
236.8490, 955.9629
238.0660, 1134.744
239.2820, 1222.932
240.4980, 1222.479
241.7140, 1316.957
242.9300, 1325.205
244.1460, 1395.984
245.3610, 1531.998
246.5770, 1785.748
247.7920, 1777.744
249.0070, 1593.791
250.2220, 1875.982
251.4370, 2110.697
252.6510, 1967.273
253.8660, 2350.439
255.0800, 2493.705
256.2940, 2455.146
257.5080, 2561.668
258.7220, 2900.561
259.9360, 2838.098
261.1490, 3045.641
262.3630, 2865.199
263.5760, 2501.758
264.7890, 2573.336
266.0020, 2505.902
267.2150, 2203.455
268.4270, 2102.998
269.6400, 1775.527
270.8520, 1762.049
272.0640, 1459.555
273.2760, 1292.049
274.4880, 1205.529
275.7000, 1199.996
276.9120, 1083.453
278.1230, 1018.094
279.3340, 868.3281
280.5450, 862.7461
281.7560, 706.1523
282.9670, 662.5469
284.1780, 635.9297
285.3880, 547.2188
286.5980, 508.2266
287.8090, 446.0371
289.0190, 493.9277
290.2290, 449.7988
291.4380, 501.7656
292.6480, 476.8145
293.8570, 488.9375
295.0670, 388.2539
296.2760, 360.4961
297.4850, 578.7910
298.6930, 500.1309
299.9020, 488.5137
301.1110, 545.9336
302.3190, 440.3887
303.5270, 359.8730
304.7350, 366.3945
305.9430, 327.9395
307.1510, 378.5078
308.3580, 303.1016
309.5660, 367.7129
310.7730, 143.3418
311.9800, 317.9902
313.1870, 227.6523
314.3940, 223.3281
315.6010, 350.0156
316.8070, 246.7109
318.0130, 376.4199
319.2200, 282.1387
320.4260, 176.8789
321.6310, 116.6270
322.8370, 149.3789
324.0430, 86.68945
325.2480, 91.09961
326.4540, 69.66602
327.6590, 110.4336
328.8640, 128.2051
330.0680, 195.9785
331.2730, 5.753906
332.4780, 17.47070
333.6820, 32.30078
334.8860, 24.92578
336.0900, 127.8379
337.2940, 148.6016
338.4980, 4.644531
339.7010, 89.10547
340.9050, 31.84766
342.1080, 7.416016
343.3110, 21.30859
344.5140, 19.97461
345.7170, 96.26953
346.9200, 187.1816
348.1220, 28.56836
349.3240, 125.9648
350.5270, 49.40820
351.7290, 60.67773
352.9310, 11.83203
354.1320, 59.33594
355.3340, 140.6172
356.5350, 118.2949
357.7370, 117.7246
358.9380, 35.11719
360.1390, 67.75391
361.3400, 32.75781
362.5400, 11.65039
363.7410, 39.06836
364.9410, 31.65234
366.1410, 104.3828
367.3410, 222.5352
368.5410, 248.9863
369.7410, 271.4160
370.9400, 175.1699
372.1400, 168.8438
373.3390, 245.5703
374.5380, 367.4883
375.7370, 41.04297
376.9360, 347.6133
378.1350, 228.0293
379.3330, 201.3613
380.5310, 385.0957
381.7300, 290.2207
382.9280, 409.7969
384.1260, 565.7832
385.3230, 361.4336
386.5210, 535.6797
387.7180, 501.3203
388.9160, 586.4180
390.1130, 652.4375
391.3100, 538.4258
392.5060, 483.4062
393.7030, 636.3789
394.9000, 748.3438
396.0960, 682.2754
397.2920, 754.1797
398.4880, 809.0723
399.6840, 1233.957
400.8800, 857.8340
402.0750, 991.7012
403.2710, 1101.561
404.4660, 883.4062
405.6610, 933.2402
406.8560, 960.0684
408.0510, 833.8867
409.2450, 990.6914
410.4400, 771.4883
411.6340, 909.2734
412.8280, 1018.049
414.0220, 665.8164
415.2160, 846.5723
416.4100, 548.3184
417.6030, 361.0566
418.7970, 493.7832
419.9900, 602.4980
421.1830, 377.2070
422.3760, 628.9043
423.5690, 396.5918
424.7610, 504.2695
425.9540, 444.9375
427.1460, 376.5977
428.3380, 432.2461
429.5300, 498.8906
430.7220, 349.5273
431.9140, 537.1582
433.1050, 345.7832
434.2970, 426.3984
435.4880, 368.0059
436.6790, 441.6094
437.8700, 419.2031
439.0610, 490.7891
440.2510, 389.3672
441.4420, 312.9590
442.6320, 466.5195
443.8220, 393.0684
445.0120, 349.6074
446.2020, 275.1367
447.3910, 308.9746
448.5810, 509.7246
449.7700, 418.2988
450.9600, 493.7871
452.1490, 612.2637
453.3370, 444.7305
454.5260, 337.5000
455.7150, 421.9414
456.9030, 380.4766
458.0910, 356.9062
459.2800, 429.7402
460.4670, 309.3379
461.6550, 530.7480
462.8430, 612.7852
464.0300, 658.1426
465.2180, 436.4883
466.4050, 731.8203
467.5920, 339.1406
468.7790, 442.4473
469.9650, 480.7402
471.1520, 558.0234
472.3380, 607.5508
473.5250, 643.5449
474.7110, 630.7695
475.8970, 744.9746
477.0820, 625.1895
478.2680, 737.8848
479.4540, 391.0742
480.6390, 596.2500
481.8240, 345.1660
483.0090, 189.3145
484.1940, 427.4512
485.3780, 420.9336
486.5630, 280.0273
487.7470, 330.8555
488.9320, 81.16992
490.1160, 344.5977
491.3000, 215.9434
492.4830, 388.8105
493.6670, 113.4414
494.8500, 536.3320
496.0340, 856.2285
497.2170, 1.783203
498.4000, 3.585938
499.5820, 102.3418
500.7650, 51.69531
501.9480, 119.3359
503.1300, 228.1367
504.3120, 89.73828
505.4940, 69.42969
506.6760, 90.83984
507.8580, 87.70312
509.0390, 113.5859
510.2210, 11.03906
511.4020, 70.61914
512.5830, 123.8223
513.7640, 106.8457
514.9450, 3.517578
516.1250, 31.67578
517.3060, 116.6250
518.4860, 109.6211
519.6660, 144.8945
520.8460, 283.1543
522.0260, 64.40430
523.2060, 5.359375
524.3850, 92.84961
525.5650, 24.04297
526.7440, 70.25391
527.9230, 239.4512
529.1020, 16.36133
530.2810, 214.7930
531.4590, 189.9355
532.6380, 167.0781
533.8160, 363.2266
534.9940, 394.4023
536.1720, 353.5703
537.3500, 387.7598
538.5270, 379.9414
539.7050, 474.1484
540.8820, 450.3477
542.0590, 546.5371
543.2360, 379.7188
544.4130, 610.8906
545.5900, 591.0527
546.7660, 409.2012
547.9430, 452.3398
549.1190, 702.4688
550.2950, 509.5957
551.4710, 631.7305
552.6470, 635.8555
553.8220, 911.9707
554.9980, 747.0762
556.1730, 825.1738
557.3480, 957.2715
558.5230, 866.3711
559.6980, 956.4629
560.8730, 1047.543
562.0470, 968.6133
563.2220, 976.6875
564.3960, 896.7539
565.5700, 844.8438
566.7440, 1000.928
567.9170, 641.0000
569.0910, 954.0625
570.2640, 546.1133
571.4380, 745.1523
572.6110, 719.1797
573.7840, 638.0156
574.9570, 764.2012
576.1290, 517.1953
577.3020, 550.1758
578.4740, 223.1523
579.6460, 431.1230
580.8180, 348.1094
581.9900, 163.0840
583.1620, 396.0449
584.3330, 367.0000
585.5040, 398.9434
586.6760, 170.8809
587.8470, 9.195313
589.0180, 203.7363
590.1880, 150.6543
591.3590, 274.5625
592.5290, 177.4590
593.7000, 403.3418
594.8700, 94.21484
596.0400, 364.0703
597.2090, 144.9160
598.3790, 167.7441
599.5490, 149.5645
600.7180, 40.98633
601.8870, 164.9629
603.0560, 44.07227
604.2250, 283.6582
605.3940, 347.3770
606.5620, 252.0859
607.7300, 177.7871
608.8990, 437.4746
610.0670, 498.1504
611.2350, 233.8125
612.4020, 478.4609
613.5700, 238.0977
614.7370, 377.7227
615.9050, 421.3320
617.0720, 483.9355
618.2390, 349.5254
619.4060, 280.1113
620.5720, 249.6836
621.7390, 126.2422
622.9050, 320.7930
624.0710, 189.3359
625.2370, 318.8633
626.4030, 199.3848
627.5690, 135.8945
628.7340, 61.40039
629.9000, 94.50000
631.0650, 93.80078
632.2300, 179.6367
633.3950, 200.2246
634.5600, 185.6211
635.7240, 269.2148
636.8890, 332.7949
638.0530, 117.5762
639.2170, 372.2324
640.3810, 162.5332
641.5450, 114.1406
642.7080, 85.51758
643.8720, 259.9492
645.0350, 183.0352
646.1980, 215.1074
647.3610, 101.2793
648.5240, 180.4219
649.6870, 271.1191
650.8490, 205.5293
652.0120, 215.9395
653.1740, 17.00391
654.3360, 262.7266
655.4980, 25.48633
656.6600, 153.2949
657.8210, 376.4766
658.9830, 216.8613
660.1440, 318.5410
661.3050, 233.9688
662.4660, 462.4570
663.6270, 380.4844
664.7870, 429.6230
665.9480, 574.3340
667.1080, 533.8965
668.2680, 476.8594
669.4280, 600.7168
670.5880, 540.9531
671.7480, 614.7656
672.9070, 552.6348
674.0670, 694.1426
675.2260, 703.1914
676.3850, 780.0684
677.5440, 819.9023
678.7030, 1001.893
679.8610, 1105.604
681.0200, 1154.176
682.1780, 1124.857
683.3360, 1359.654
684.4940, 1660.721
685.6520, 1633.771
686.8090, 1755.221
687.9670, 2102.309
689.1240, 2502.799
690.2810, 2474.875
691.4380, 2919.891
692.5950, 3098.545
693.7520, 3313.340
694.9080, 3795.465
696.0650, 4245.512
697.2210, 4890.635
698.3770, 5439.027
699.5330, 6228.137
700.6880, 6871.814
701.8440, 7743.359
702.9990, 8457.510
704.1550, 9203.781
705.3100, 9522.328
706.4650, 10020.48
707.6190, 10300.44
708.7740, 10244.29
709.9290, 9946.816
711.0830, 9245.193
712.2370, 8640.145
713.3910, 7699.857
714.5450, 6646.535
715.6980, 5789.193
716.8520, 4823.871
718.0050, 4420.340
719.1580, 3840.469
720.3110, 3319.055
721.4640, 2768.848
722.6170, 2540.713
723.7700, 2033.650
724.9220, 1917.195
726.0740, 1596.682
727.2260, 1431.176
728.3780, 1207.312
729.5300, 1293.271
730.6810, 1059.680
731.8330, 979.0664
732.9840, 1047.615
734.1350, 746.6445
735.2860, 1063.969
736.4370, 871.4492
737.5880, 1017.723
738.7380, 620.9004
739.8880, 947.7129
741.0390, 840.1465
742.1890, 960.5254
743.3380, 718.7109
744.4880, 510.2949
745.6380, 769.8828
746.7870, 705.0762
747.9360, 660.5176
749.0850, 618.5977
750.2340, 688.7090
751.3830, 598.7480
752.5310, 656.8242
753.6800, 758.8203
754.8280, 353.8008
755.9760, 751.0566
757.1240, 500.2285
758.2720, 589.2715
759.4190, 502.5293
760.5670, 376.8379
761.7140, 604.0762
762.8610, 247.1152
764.0080, 617.4648
765.1550, 496.4512
766.3020, 548.0605
767.4480, 273.5156
768.5950, 657.2051
769.7410, 431.1113
770.8870, 455.7891
772.0330, 463.7012
773.1780, 303.3359
774.3240, 479.9492
775.4690, 598.7285
776.6140, 267.3105
777.7590, 392.9082
778.9040, 316.8438
780.0490, 277.1543
781.1940, 339.7227
782.3380, 306.2188
783.4820, 376.7266
784.6260, 419.2109
785.7700, 344.4141
786.9140, 321.8555
788.0580, 404.5938
789.2010, 248.0352
790.3450, 362.4766
791.4880, 75.40625
792.6310, 54.87500
793.7730, 27.84766
794.9160, 339.2773
796.0590, 159.6875
797.2010, 122.0703
798.3430, 196.4258
799.4850, 81.75781
800.6270, 90.06250
801.7690, 187.3477
802.9100, 100.1992
804.0520, 83.97266
805.1930, 43.12109
806.3340, 205.2383
807.4750, 218.3398
808.6160, 11.57031
809.7560, 28.53516
810.8970, 118.5625
812.0370, 42.31250
813.1770, 93.84766
814.3170, 57.90625
815.4570, 111.3164
816.5960, 77.30859
817.7360, 106.9062
818.8750, 76.47266
820.0140, 52.01562
821.1530, 215.5234
822.2920, 275.0156
823.4310, 115.4727
824.5690, 214.8164
825.7070, 5.765625
826.8460, 31.40234
827.9840, 315.9062
829.1220, 65.96484
830.2590, 46.21875
831.3970, 184.7305
832.5340, 15.07031
833.6710, 17.92578
834.8080, 107.1680
835.9450, 170.2344
837.0820, 46.27344
838.2190, 9.710938
839.3550, 15.25000
840.4910, 101.8203
841.6270, 51.01172
842.7630, 131.8164
843.8990, 173.5898
845.0350, 193.3438
846.1700, 190.6211
847.3060, 130.7773
848.4410, 154.4570
849.5760, 206.1094
850.7100, 243.7383
851.8450, 266.3438
852.9800, 2.070313
854.1140, 31.47266
855.2480, 74.01562
856.3820, 242.4180
857.5160, 144.8242
858.6500, 9.210938
859.7830, 104.5664
860.9170, 16.89062
862.0500, 284.1836
863.1830, 92.54297
864.3160, 41.64453
865.4480, 52.81250
866.5810, 316.9492
867.7130, 313.1719
868.8460, 152.1562
869.9780, 348.2266
871.1100, 247.2734
872.2410, 126.3008
873.3730, 194.3086
874.5050, 217.2891
875.6360, 163.2500
876.7670, 133.1914
877.8980, 17.11328
879.0290, 263.0195
880.1590, 84.90234
881.2900, 0.7656250
882.4200, 166.5898
883.5500, 101.3984
884.6800, 254.1758
885.8100, 168.9375
886.9400, 201.6094
888.0690, 165.3984
889.1990, 178.1016
890.3280, 175.7852
891.4570, 104.4414
892.5860, 118.0312
893.7140, 142.6992
894.8430, 85.29297
895.9710, 23.86719
897.1000, 2.582031
898.2280, 118.9336
899.3560, 38.42969
900.4830, 118.9023
901.6110, 2.355469
902.7380, 121.7773
903.8660, 50.81641
904.9930, 33.53516
906.1200, 389.8672
907.2460, 100.1797
908.3730, 228.5117
909.5000, 185.8281
910.6260, 112.1250
911.7520, 98.39844
912.8780, 145.6523
914.0040, 48.89453
915.1290, 168.1094
916.2550, 65.67969
917.3800, 160.4961
918.5050, 583.6523
919.6300, 370.7930
920.7550, 190.9141
921.8800, 273.0195
923.0040, 103.8867
924.1290, 314.1211
925.2530, 342.1172
926.3770, 202.0938
927.5010, 192.4531
928.6250, 143.6836
929.7480, 276.6406
930.8720, 254.5508
931.9950, 354.1992
933.1180, 215.6719
934.2410, 407.4375
935.3640, 247.7109
936.4860, 150.0000
937.6090, 82.67969
938.7310, 211.3359
939.8530, 211.5508
940.9750, 122.5039
942.0970, 208.1953
943.2180, 112.9258
944.3400, 355.0508
945.4610, 171.0938
946.5820, 337.4766
947.7030, 197.3320
948.8240, 449.2344
949.9450, 75.20703
951.0650, 159.9883
952.1860, 127.0234
953.3060, 337.1758
954.4260, 198.1875
955.5460, 314.0586
956.6650, 291.6289
957.7850, 219.1875
958.9040, 156.6758
960.0230, 432.7539
961.1420, 394.7578
962.2610, 458.1445
963.3800, 44.42578
964.4990, 224.3242
965.6170, 2.093750
966.7350, 140.1523
967.8530, 220.5195
968.9710, 412.7070
970.0890, 235.6367
971.2070, 156.8242
972.3240, 75.42188
973.4410, 214.1328
974.5580, 283.2148
975.6750, 284.1484
976.7920, 245.7812
977.9090, 176.7930
979.0250, 195.4219
980.1410, 257.2422
981.2580, 202.4922
982.3740, 320.4844
983.4890, 354.5742
984.6050, 181.8711
985.7200, 466.1836
986.8360, 330.4883
987.9510, 137.7461
989.0660, 75.19531
990.1810, 236.9531
991.2950, 353.2266
992.4100, 420.2539
993.5240, 363.2031
994.6390, 339.0586
995.7530, 499.2812
996.8660, 281.5469
997.9800, 523.2422
999.0940, 131.8359
1000.207, 213.4961
1001.320, 65.76953
1002.433, 446.0352
1003.546, 454.1172
1004.659, 416.3750
1005.772, 402.6289
1006.884, 435.7539
1007.996, 233.8516
1009.108, 412.1016
1010.220, 362.2344
1011.332, 138.2695
1012.444, 387.6914
1013.555, 265.9609
1014.666, 270.7969
1015.777, 415.6172
1016.888, 194.8008
1017.999, 630.7188
1019.110, 395.0273
1020.220, 542.2773
1021.331, 466.5898
1022.441, 370.8594
1023.551, 328.1836
1024.661, 66.50391
1025.770, 213.5234
1026.880, 339.6094
1027.989, 22.80469
1029.098, 287.7617
1030.207, 225.4492
1031.316, 183.3828
1032.425, 515.4922
1033.533, 239.2930
1034.642, 251.4336
1035.750, 206.8164
1036.858, 334.9766
1037.966, 83.61328
1039.073, 249.4180
1040.181, 202.7656
1041.288, 171.7461
1042.396, 38.09766
1043.503, 353.4414
1044.610, 383.6055
1045.716, 347.7188
1046.823, 422.0312
1047.929, 550.9492
1049.036, 305.6289
1050.142, 324.9844
1051.248, 348.3438
1052.353, 206.7070
1053.459, 518.0703
1054.564, 316.4375
1055.670, 347.1484
1056.775, 176.2383
1057.880, 440.6094
1058.985, 505.9883
1060.089, 461.3633
1061.194, 346.7422
1062.298, 566.1328
1063.402, 323.5312
1064.506, 650.9297
1065.610, 273.3320
1066.713, 660.7422
1067.817, 635.1562
1068.920, 611.5703
1070.023, 585.9961
1071.126, 658.2344
1072.229, 486.7031
1073.332, 859.1797
1074.435, 450.6562
1075.537, 905.1445
1076.639, 684.6250
1077.741, 856.1289
1078.843, 803.6562
1079.945, 628.2305
1081.046, 666.8633
1082.148, 579.4844
1083.249, 852.0547
1084.350, 777.7188
1085.451, 795.3984
1086.551, 865.0820
1087.652, 847.7695
1088.752, 1038.473
1089.853, 883.1797
1090.953, 709.9062
1092.053, 472.7148
1093.152, 840.4414
1094.252, 624.1797
1095.351, 784.9453
1096.451, 962.9336
1097.550, 782.7148
1098.649, 817.1914
1099.748, 649.6367
1100.846, 736.4570
1101.945, 818.2930
1103.043, 614.1367
1104.141, 869.9883
1105.239, 691.3281
1106.337, 953.2031
1107.434, 799.0938
1108.532, 915.0273
1109.629, 600.9688
1110.726, 752.9141
1111.823, 803.8672
1112.920, 668.8320
1114.017, 775.8008
1115.113, 767.7773
1116.210, 996.7578
1117.306, 1009.746
1118.402, 1297.742
1119.498, 941.7422
1120.593, 876.7578
1121.689, 1214.785
1122.784, 772.8477
1123.879, 1075.918
1124.974, 1351.992
1126.069, 952.2773
1127.164, 1065.375
1128.259, 1312.480
1129.353, 969.3164
1130.447, 1076.469
1131.541, 790.6289
1132.635, 544.8008
1133.729, 461.9766
1134.822, 336.1562
1135.916, 473.3438
1137.009, 323.5625
1138.102, 385.7891
1139.195, 367.1992
1140.288, 287.7344
1141.380, 323.5117
1142.473, 269.3438
1143.565, 232.5977
1144.657, 410.8672
1145.749, 307.7148
1146.841, 127.4297
1147.932, 284.7266
1149.024, 230.0352
1150.115, 280.8594
1151.206, 257.1992
1152.297, 18.82422
1153.388, 277.4961
1154.479, 62.85156
1155.569, 219.2070
1156.659, 144.5742
1157.750, 176.9375
1158.839, 99.31250
1159.929, 75.69141
1161.019, 312.0742
1162.108, 185.4648
1163.198, 58.87500
1164.287, 398.6719
1165.376, 171.1055
1166.465, 0.4531250
1167.553, 266.9922
1168.642, 18.55469
1169.730, 223.9141
1170.818, 52.39062
1171.906, 162.1250
1172.994, 353.2852
1174.082, 160.6992
1175.170, 737.1172
1176.257, 607.5391
1177.344, 277.9688
1178.431, 333.4023
1179.518, 52.15625
1180.605, 18.26172
1181.691, 395.7109
1182.778, 211.1680
1183.864, 51.62109
1184.950, 128.0859
1186.036, 9.449219
1187.122, 319.0156
1188.207, 478.5156
1189.292, 179.0234
1190.378, 323.5352
1191.463, 102.0469
1192.548, 301.5664
1193.632, 40.08594
1194.717, 267.6133
1195.801, 55.14453
1196.886, 151.7031
1197.970, 340.2734
1199.054, 65.84375
1200.137, 137.4141
1201.221, 253.9961
1202.305, 156.5781
1203.388, 356.1680
1204.471, 74.75781
1205.554, 214.3516
1206.637, 163.9492
1207.719, 306.5547
1208.802, 28.15625
1209.884, 345.7656
1210.966, 2.378906
1212.048, 356.0000
1213.130, 117.6172
1214.212, 116.2383
1215.293, 264.0039
1216.374, 177.6328
1217.456, 414.2656
1218.536, 307.8984
1219.617, 225.5312
1220.698, 5.171875
1221.778, 412.8125
1222.859, 224.4883
1223.939, 55.17188
1225.019, 534.8594
1226.099, 171.9297
1227.178, 290.6562
1228.258, 67.61719
1229.337, 109.9180
1230.417, 498.7227
1231.496, 158.3672
1232.574, 189.0039
1233.653, 293.6523
1234.732, 57.69922
1235.810, 381.9219
1236.888, 350.5391
1237.966, 403.1602
1239.044, 31.21484
1240.122, 203.3867
1241.199, 291.9961
1242.277, 377.6016
1243.354, 324.2109
1244.431, 234.8164
1245.508, 244.4297
1246.585, 278.0391
1247.661, 266.6523
1248.738, 292.2617
1249.814, 188.0117
1250.890, 366.6250
1251.966, 166.2383
1253.042, 191.8555
1254.117, 426.4727
1255.193, 12.91406
1256.268, 51.69141
1257.343, 300.2969
1258.418, 87.09766
1259.493, 145.4570
1260.567, 44.01562
1261.642, 213.5703
1262.716, 354.1250
1263.790, 491.6836
1264.864, 524.7930
1265.938, 309.8789
1267.011, 547.3516
1268.085, 263.1758
1269.158, 244.7344
1270.231, 82.28516
1271.304, 95.16016
1272.377, 438.3359
1273.450, 92.82812
1274.522, 343.3242
1275.594, 261.8164
1276.666, 284.6484
1277.738, 372.2109
1278.810, 170.6211
1279.882, 297.9531
1280.953, 6.300781
1282.025, 39.92578
1283.096, 358.4180
1284.167, 291.7578
1285.238, 112.0977
1286.308, 417.4336
1287.379, 91.77344
1288.449, 334.2227
1289.519, 416.5586
1290.589, 198.8906
1291.659, 487.2227
1292.729, 71.44531
1293.798, 188.4258
1294.868, 129.7070
1295.937, 226.9570
1297.006, 350.2344
1298.075, 300.9180
1299.143, 314.1914
1300.212, 361.4609
1301.280, 505.8516
1302.348, 572.1172
1303.416, 575.3086
1304.484, 304.6523
1305.552, 436.9141
1306.620, 372.1758
1307.687, 56.44141
1308.754, 156.3711
1309.821, 409.6328
1310.888, 372.8867
1311.955, 340.1406
1313.021, 180.3945
1314.088, 241.6484
1315.154, 248.9609
1316.220, 84.80078
1317.286, 306.0508
1318.352, 387.3125
1319.417, 246.5781
1320.483, 237.8398
1321.548, 372.0977
1322.613, 650.3594
1323.678, 240.6016
1324.743, 428.1914
1325.807, 154.4336
1326.872, 195.9648
1327.936, 237.2070
1329.000, 319.4492
1330.064, 148.6875
1331.128, 281.9219
1332.191, 333.1602
1333.255, 139.3906
1334.318, 405.6250
1335.381, 397.8516
1336.444, 460.0820
1337.507, 314.3086
1338.569, 280.0898
1339.632, 305.2266
1340.694, 73.44922
1341.756, 139.6641
1342.818, 35.90625
1343.880, 387.1133
1344.941, 411.3281
1346.003, 414.5391
1347.064, 348.7461
1348.125, 411.9531
1349.186, 124.1406
1350.247, 175.3438
1351.308, 410.5469
1352.368, 245.7500
1353.428, 13.94531
1354.489, 477.7031
1355.549, 241.8906
1356.608, 241.1133
1357.668, 384.6484
1358.727, 269.8086
1359.787, 249.9570
1360.846, 439.1016
1361.905, 419.5703
1362.964, 326.2344
1364.022, 383.3750
1365.081, 174.4922
1366.139, 136.6055
1367.197, 183.7109
1368.255, 285.8203
1369.313, 352.9297
1370.371, 252.0352
1371.428, 468.1445
1372.486, 407.2734
1373.543, 101.3047
1374.600, 338.3906
1375.657, 257.4727
1376.713, 44.55469
1377.770, 346.6367
1378.826, 255.7188
1379.882, 369.2461
1380.938, 246.3281
1381.994, 307.4102
1383.050, 441.2930
1384.106, 172.5586
1385.161, 349.6445
1386.216, 359.0078
1387.271, 136.0938
1388.326, 116.1250
1389.381, 400.4258
1390.435, 149.4531
1391.490, 125.8008
1392.544, 72.16797
1393.598, 5.968750
1394.652, 14.85547
1395.705, 176.8281
1396.759, 145.8242
1397.812, 237.8203
1398.866, 199.2461
1399.919, 398.2383
1400.972, 368.2344
1402.024, 283.2305
1403.077, 2.445313
1404.129, 11.63281
1405.181, 37.50391
1406.233, 24.67578
1407.285, 1.367188
1408.337, 217.2461
1409.389, 183.8086
1410.440, 68.70312
1411.491, 402.6016
1412.542, 288.5000
1413.593, 162.4062
1414.644, 38.30859
1415.695, 115.8672
1416.745, 119.7695
1417.795, 80.19531
1418.845, 105.0938
1419.895, 62.39062
1420.945, 298.5195
1421.995, 63.40625
1423.044, 200.2969
1424.093, 164.1914
1425.142, 164.0859
1426.191, 148.5117
1427.240, 421.4141
1428.289, 537.3672
1429.337, 354.3281
1430.385, 105.3008
1431.433, 562.2773
1432.481, 193.2734
1433.529, 196.2578
1434.577, 361.2383
1435.624, 464.2383
1436.672, 511.2578
1437.719, 526.8672
1438.766, 311.3281
1439.812, 415.3711
1440.859, 400.4414
1441.905, 265.5352
1442.952, 463.6602
1443.998, 575.5781
1445.044, 621.7773
1446.090, 634.5586
1447.135, 250.2891
1448.181, 438.4141
1449.226, 203.4648
1450.271, 103.3242
1451.316, 145.8516
1452.361, 18.18750
1453.405, 216.1953
1454.450, 137.3672
1455.494, 217.5312
1456.538, 206.6953
1457.582, 475.8516
1458.626, 592.0078
1459.670, 318.0000
1460.713, 268.1484
1461.757, 136.2930
1462.800, 257.4336
1463.843, 67.57422
1464.886, 0.2421880
1465.928, 198.3281
1466.971, 455.5000
1468.013, 90.66797
1469.055, 398.8516
1470.097, 268.0547
1471.139, 316.2617
1472.181, 255.4844
1473.222, 286.6367
1474.263, 357.9297
1475.305, 301.1562
1476.346, 479.2109
1477.386, 321.4336
1478.427, 140.6562
1479.468, 105.1094
1480.508, 312.1562
1481.548, 555.4609
1482.588, 287.7695
1483.628, 579.0625
1484.668, 385.6328
1485.707, 277.8438
1486.747, 28.09766
1487.786, 422.3984
1488.825, 175.2031
1489.864, 320.9414
1490.902, 197.5273
1491.941, 162.9648
1492.979, 333.4336
1494.017, 419.9141
1495.055, 448.2109
1496.093, 326.7031
1497.131, 395.6914
1498.168, 337.1562
1499.206, 376.4336
1500.243, 279.9648
1501.280, 195.5078
1502.317, 159.0664
1503.354, 373.6367
1504.390, 11.21875
1505.426, 200.8125
1506.463, 384.4219
1507.499, 296.0469
1508.535, 75.67969
1509.570, 429.2617
1510.606, 582.8438
1511.641, 304.4688
1512.676, 125.1680
1513.711, 49.00781
1514.746, 210.4453
1515.781, 39.88672
1516.816, 424.3320
1517.850, 475.7891
1518.884, 398.9961
1519.918, 512.4961
1520.952, 190.9023
1521.986, 173.3672
1523.019, 354.8516
1524.053, 150.3320
1525.086, 300.8164
1526.119, 277.3125
1527.152, 44.19141
1528.185, 358.2812
1529.217, 291.5586
1530.250, 195.9297
1531.282, 104.2070
1532.314, 174.2773
1533.346, 191.1953
1534.377, 384.5039
1535.409, 377.0117
1536.440, 570.5898
1537.472, 678.1641
1538.503, 288.7266
1539.534, 0.6367190
1540.564, 566.1211
1541.595, 18.86719
1542.625, 680.2812
1543.656, 342.0039
1544.686, 132.4688
1545.716, 660.2773
1546.745, 347.1367
1547.775, 262.0391
1548.804, 158.9570
1549.834, 35.89062
1550.863, 346.0508
1551.892, 276.9375
1552.920, 459.5781
1553.949, 305.7461
1554.977, 233.0703
1556.006, 541.5664
1557.034, 432.2734
1558.062, 567.7031
1559.089, 470.2656
1560.117, 287.4180
1561.144, 495.8867
1562.172, 491.8867
1563.199, 409.5742
1564.226, 334.5000
1565.252, 566.9727
1566.279, 396.8203
1567.305, 14.63281
1568.332, 324.0195
1569.358, 496.6367
1570.384, 46.04688
1571.409, 116.2656
1572.435, 0.0000000E+00
##END=



