##NAMES=Trilithionite
##RRUFFID=R040101
##IDEAL CHEMISTRY=KLi_1.5_Al_1.5_(Si_3_Al)O_10_F_2_
##LOCALITY=Zambezi Region, Mozambique
##OWNER=RRUFF
##SOURCE=University of Arizona Mineral Museum
##DESCRIPTION=Aggregate of purple hexagonal plates, polytype is 2M1
##STATUS=The identification of this mineral has been confirmed by X-ray diffraction and chemical analysis
##URL=rruff.info/R040101
##MEASURED CHEMISTRY=(K_0.84_Li_0.13_Na_0.02_)(Li_0.54_Al_0.44_Mn_0.02_)_3_(Si_0.82_Al_0.18_)_4_O_10_F_2.00_
##PIN_ID=M00449
##ORIENTATION=Laser parallel to -a* (-1 0 0). Fiducial mark perpendicular to laser is parallel to b [0 1 0]
139.937, 0.000
141.323, 121.937
142.709, 29.165
144.094, 108.481
145.480, 84.225
146.865, 13.544
148.250, 16.806
149.635, 95.637
151.019, 33.784
152.403, 63.180
153.788, 110.845
155.171, 122.798
156.555, 306.257
157.939, 428.855
159.322, 758.276
160.705, 1072.248
162.088, 1389.527
163.470, 1740.896
164.853, 2150.160
166.235, 2724.185
167.617, 3423.896
168.998, 4143.166
170.380, 5111.877
171.761, 6062.911
173.142, 7576.172
174.523, 8623.579
175.904, 9728.045
177.284, 10619.507
178.664, 11343.902
180.044, 11479.173
181.424, 12011.271
182.803, 11838.120
184.183, 11260.657
185.562, 10471.817
186.940, 10393.558
188.319, 9988.853
189.698, 9885.732
191.076, 9810.329
192.454, 9763.677
193.831, 9626.033
195.209, 9286.848
196.586, 8710.096
197.963, 7704.765
199.340, 7081.832
200.717, 6357.277
202.093, 5838.092
203.470, 5181.254
204.846, 4986.756
206.221, 4533.584
207.597, 4756.729
208.972, 4755.174
210.347, 4338.914
211.722, 4403.940
213.097, 4349.240
214.472, 4220.809
215.846, 4160.636
217.220, 4069.713
218.594, 3893.038
219.967, 3750.598
221.341, 3805.395
222.714, 3792.355
224.087, 3780.289
225.460, 3996.204
226.832, 4102.088
228.204, 4401.987
229.577, 4541.898
230.948, 5001.879
232.320, 5236.940
233.692, 5660.098
235.063, 6099.453
236.434, 6590.053
237.805, 7107.863
239.175, 7772.365
240.545, 8079.492
241.916, 8882.880
243.286, 9134.149
244.655, 9653.360
246.025, 9850.041
247.394, 10245.122
248.763, 10544.332
250.132, 11023.644
251.501, 12009.059
252.869, 12995.566
254.237, 14340.165
255.605, 15959.856
256.973, 17749.643
258.340, 19577.527
259.708, 20313.498
261.075, 20779.568
262.442, 20126.729
263.808, 18672.982
265.175, 16466.332
266.541, 14310.770
267.907, 12077.303
269.273, 9953.924
270.639, 8230.641
272.004, 6723.446
273.369, 5883.344
274.734, 4914.327
276.099, 4115.399
277.463, 3445.554
278.828, 3215.795
280.192, 2678.118
281.556, 2306.524
282.919, 2341.013
284.283, 1947.582
285.646, 1966.234
287.009, 1584.966
288.372, 1540.775
289.734, 1626.663
291.097, 1469.629
292.459, 1287.672
293.821, 1406.791
295.183, 1239.986
296.544, 1382.254
297.905, 1254.598
299.266, 1332.014
300.627, 1184.529
301.988, 1088.089
303.348, 1136.721
304.709, 975.925
306.069, 1010.160
307.428, 997.396
308.788, 851.677
310.147, 575.218
311.507, 745.396
312.865, 538.370
314.224, 674.915
315.583, 509.854
316.941, 609.384
318.299, 522.888
319.657, 436.669
321.015, 515.712
322.372, 440.999
323.729, 433.518
325.086, 438.256
326.443, 457.202
327.800, 402.647
329.156, 358.957
330.512, 298.208
331.868, 188.564
333.224, 117.116
334.579, 172.788
335.935, 123.954
337.290, 141.776
338.645, 100.929
339.999, 51.559
341.354, 3.822
342.708, 22.521
344.062, 93.994
345.416, 103.431
346.769, 47.449
348.123, 18.716
349.476, 217.108
350.829, 153.541
352.182, 36.210
353.534, 227.439
354.887, 18.101
356.239, 140.849
357.591, 199.682
358.942, 87.857
360.294, 226.852
361.645, 232.923
362.996, 211.070
364.347, 372.292
365.698, 490.588
367.048, 466.954
368.398, 705.392
369.748, 553.897
371.098, 779.472
372.448, 843.112
373.797, 1048.818
375.146, 913.586
376.495, 1228.418
377.844, 1481.310
379.192, 1273.263
380.540, 1632.273
381.889, 1350.346
383.236, 1411.473
384.584, 1617.655
385.932, 1492.895
387.279, 1569.190
388.626, 1743.541
389.973, 1802.948
391.319, 1829.412
392.666, 2232.932
394.012, 2109.507
395.358, 2386.139
396.704, 2520.825
398.049, 2623.566
399.394, 3063.360
400.740, 2979.208
402.084, 3088.088
403.429, 3091.000
404.774, 3015.955
406.118, 3002.456
407.462, 2900.313
408.806, 2864.904
410.150, 2638.918
411.493, 2604.974
412.836, 2387.070
414.179, 2153.210
415.522, 1993.942
416.865, 1721.612
418.207, 1551.874
419.549, 1247.175
420.891, 1010.516
422.233, 1028.895
423.575, 901.313
424.916, 535.769
426.257, 685.264
427.598, 509.795
428.939, 490.363
430.279, 585.969
431.619, 347.610
432.959, 218.288
434.299, 344.000
435.639, 380.748
436.978, 267.531
438.318, 288.349
439.657, 215.200
440.996, 208.495
442.334, 260.003
443.673, 252.954
445.011, 173.938
446.349, 285.953
447.687, 312.000
449.024, 150.078
450.361, 243.188
451.699, 107.329
453.036, 67.499
454.372, 116.700
455.709, 210.931
457.045, 23.189
458.381, 83.477
459.717, 183.793
461.053, 137.137
462.388, 200.508
463.724, 313.906
465.059, 452.332
466.394, 347.816
467.728, 364.359
469.063, 540.959
470.397, 461.619
471.731, 512.334
473.065, 657.115
474.398, 501.949
475.732, 748.834
477.065, 483.773
478.398, 560.770
479.731, 457.814
481.063, 416.902
482.396, 240.037
483.728, 200.215
485.060, 252.434
486.391, 95.695
487.723, 5.004
489.054, 112.686
490.385, 40.396
491.716, 1.893
493.047, 37.783
494.377, 16.146
495.708, 83.182
497.038, 89.961
498.368, 188.697
499.697, 295.094
501.027, 185.635
502.356, 187.594
503.685, 200.830
505.014, 126.545
506.342, 277.613
507.671, 71.461
508.999, 66.807
510.327, 123.566
511.655, 182.857
512.982, 79.035
514.310, 90.789
515.637, 119.645
516.964, 68.562
518.291, 9.553
519.617, 370.602
520.944, 497.699
522.270, 268.859
523.596, 436.047
524.921, 393.291
526.247, 465.617
527.572, 418.002
528.897, 350.420
530.222, 672.863
531.547, 703.332
532.871, 768.834
534.196, 619.357
535.520, 799.928
536.844, 922.547
538.167, 858.189
539.491, 967.869
540.814, 1086.572
542.137, 1169.311
543.460, 1309.070
544.783, 1376.850
546.105, 1353.652
547.427, 1809.479
548.749, 1896.324
550.071, 2211.195
551.393, 2609.086
552.714, 2729.994
554.035, 2859.926
555.356, 3255.871
556.677, 3123.842
557.998, 3138.828
559.318, 3353.838
560.638, 3375.865
561.958, 3123.908
563.278, 2947.973
564.597, 2948.062
565.917, 2582.172
567.236, 2282.291
568.555, 2182.434
569.874, 1732.600
571.192, 1757.805
572.511, 1527.025
573.829, 1185.260
575.147, 955.510
576.464, 998.775
577.782, 705.053
579.099, 626.346
580.416, 348.656
581.733, 414.980
583.050, 613.316
584.366, 258.662
585.683, 420.021
586.999, 181.393
588.315, 166.779
589.630, 358.174
590.946, 239.582
592.261, 382.010
593.576, 248.449
594.891, 138.898
596.206, 124.355
597.520, 299.824
598.834, 361.299
600.148, 285.781
601.462, 321.268
602.776, 340.764
604.089, 368.262
605.402, 375.768
606.715, 488.279
608.028, 574.799
609.341, 489.320
610.653, 449.848
611.965, 721.379
613.277, 756.916
614.589, 645.457
615.901, 820.367
617.212, 907.525
618.523, 920.078
619.834, 1003.635
621.145, 1014.191
622.456, 1108.754
623.766, 954.314
625.076, 1279.881
626.386, 1251.445
627.696, 1364.014
629.006, 1068.582
630.315, 1622.150
631.624, 1331.719
632.933, 1403.285
634.242, 1801.852
635.551, 1242.418
636.859, 1409.984
638.167, 1300.545
639.475, 1602.105
640.783, 1406.662
642.090, 1406.217
643.398, 1388.768
644.705, 1498.314
646.012, 1352.984
647.318, 1366.119
648.625, 1453.918
649.931, 1562.773
651.237, 1423.598
652.543, 1572.457
653.849, 1531.871
655.155, 1570.287
656.460, 1630.236
657.765, 1704.137
659.070, 1598.826
660.375, 1745.303
661.679, 1772.904
662.984, 1891.414
664.288, 1937.080
665.592, 1927.109
666.895, 2066.965
668.199, 1856.078
669.502, 2262.998
670.805, 2214.348
672.108, 2514.383
673.411, 2524.260
674.713, 2594.453
676.016, 2975.016
677.318, 2979.564
678.620, 3377.369
679.921, 3646.002
681.223, 3912.467
682.524, 4244.227
683.825, 4562.922
685.126, 5163.564
686.427, 5880.320
687.727, 6123.945
689.028, 6772.545
690.328, 7364.988
691.628, 8410.668
692.927, 9389.832
694.227, 10393.545
695.526, 10997.902
696.825, 13411.045
698.124, 14450.867
699.423, 16490.533
700.721, 18428.867
702.020, 20768.641
703.318, 23065.900
704.616, 25797.629
705.913, 27778.256
707.211, 30621.154
708.508, 33069.059
709.805, 32546.158
711.102, 30391.361
712.399, 28169.584
713.695, 24012.764
714.992, 20753.115
716.288, 16620.330
717.584, 13714.443
718.879, 11359.369
720.175, 9005.166
721.470, 8125.344
722.765, 6791.381
724.060, 5776.170
725.355, 4976.850
726.649, 4296.215
727.944, 3862.273
729.238, 3733.879
730.532, 2958.512
731.825, 3166.090
733.119, 3014.387
734.412, 2730.645
735.705, 2659.877
736.998, 2619.713
738.291, 2735.496
739.584, 2926.668
740.876, 2952.111
742.168, 3105.164
743.460, 3080.740
744.752, 3240.738
746.043, 3297.391
747.334, 3338.508
748.626, 3536.553
749.916, 3372.463
751.207, 3551.660
752.498, 3446.238
753.788, 3436.736
755.078, 3223.209
756.368, 3127.656
757.658, 2980.078
758.947, 2614.475
760.237, 2654.846
761.526, 2135.191
762.815, 2166.514
764.104, 1882.805
765.392, 1833.074
766.680, 1520.316
767.969, 1221.957
769.257, 1484.148
770.544, 1266.312
771.832, 1349.449
773.119, 1182.562
774.406, 1127.646
775.693, 1383.703
776.980, 1004.734
778.267, 1269.740
779.553, 1266.717
780.839, 1166.666
782.125, 1099.590
783.411, 1264.486
784.697, 988.352
785.982, 1048.193
787.267, 1040.006
788.552, 907.789
789.837, 707.549
791.122, 788.275
792.406, 605.979
793.690, 634.650
794.974, 580.295
796.258, 408.912
797.542, 571.500
798.825, 385.059
800.108, 424.588
801.391, 157.102
802.674, 246.619
803.957, 160.131
805.239, 163.617
806.522, 243.096
807.804, 163.289
809.085, 129.021
810.367, 79.484
811.649, 38.037
812.930, 128.553
814.211, 16.143
815.492, 152.742
816.772, 64.426
818.053, 19.158
819.333, 146.885
820.613, 108.719
821.893, 69.357
823.173, 13.564
824.452, 58.500
825.732, 91.502
827.011, 88.529
828.290, 125.664
829.568, 135.920
830.847, 36.295
832.125, 88.488
833.403, 48.695
834.681, 67.900
835.959, 168.588
837.236, 88.418
838.514, 7.648
839.791, 127.662
841.068, 44.646
842.345, 6.590
843.621, 217.480
844.898, 43.658
846.174, 67.875
847.450, 124.820
848.726, 24.520
850.001, 70.076
851.277, 17.363
852.552, 126.133
853.827, 216.598
855.102, 24.033
856.376, 53.426
857.651, 103.783
858.925, 26.914
860.199, 79.383
861.473, 76.629
862.746, 57.838
864.020, 225.012
865.293, 0.156
866.566, 203.252
867.839, 32.318
869.112, 39.346
870.384, 217.332
871.656, 1.295
872.928, 13.791
874.200, 180.070
875.472, 230.900
876.744, 0.703
878.015, 2.461
879.286, 74.822
880.557, 184.811
881.828, 73.414
883.098, 66.992
884.369, 70.539
885.639, 108.055
886.909, 112.541
888.178, 8.994
889.448, 34.410
890.717, 222.795
891.987, 111.146
893.256, 65.473
894.524, 128.764
895.793, 43.023
897.061, 130.254
898.330, 31.455
899.598, 9.373
900.865, 18.865
902.133, 128.852
903.401, 67.918
904.668, 195.971
905.935, 320.002
907.202, 209.004
908.468, 236.984
909.735, 465.961
911.001, 376.908
912.267, 268.836
913.533, 381.734
914.799, 392.607
916.064, 255.455
917.330, 562.277
918.595, 261.078
919.860, 105.852
921.124, 488.604
922.389, 274.330
923.653, 312.033
924.918, 278.711
926.182, 504.367
927.445, 310.998
928.709, 456.605
929.972, 332.221
931.236, 338.812
932.499, 317.383
933.761, 461.926
935.024, 245.449
936.286, 319.947
937.549, 496.422
938.811, 271.877
940.073, 593.318
941.334, 346.738
942.596, 340.133
943.857, 516.510
945.118, 526.861
946.379, 469.189
947.640, 447.496
948.900, 469.729
950.161, 627.045
951.421, 567.287
952.681, 506.531
953.940, 658.756
955.200, 607.955
956.459, 544.154
957.719, 805.336
958.978, 861.490
960.236, 955.629
961.495, 802.633
962.753, 941.211
964.012, 822.109
965.270, 899.352
966.527, 1031.660
967.785, 1017.375
969.043, 994.621
970.300, 936.691
971.557, 870.727
972.814, 913.074
974.071, 890.422
975.327, 1009.785
976.583, 1110.348
977.840, 1155.855
979.095, 1129.504
980.351, 1017.809
981.607, 1246.475
982.862, 1102.389
984.117, 1205.031
985.372, 1495.820
986.627, 930.785
987.882, 1338.430
989.136, 1331.135
990.390, 1077.867
991.644, 1472.463
992.898, 1379.170
994.152, 1381.875
995.405, 1361.709
996.659, 1391.301
997.912, 1475.389
999.165, 1448.914
1000.417, 1619.770
1001.670, 1205.822
1002.922, 1734.193
1004.174, 1248.701
1005.426, 1407.520
1006.678, 1557.898
1007.930, 1511.771
1009.181, 1719.143
1010.432, 1466.586
1011.683, 1558.727
1012.934, 1586.840
1014.185, 1668.732
1015.435, 1774.492
1016.685, 1711.205
1017.935, 1622.928
1019.185, 1890.469
1020.435, 1751.113
1021.684, 1634.281
1022.934, 1758.156
1024.183, 1812.367
1025.432, 1554.945
1026.680, 1881.635
1027.929, 1501.129
1029.177, 1581.740
1030.425, 1627.342
1031.673, 1879.227
1032.921, 1686.145
1034.169, 1507.100
1035.416, 1699.641
1036.663, 1911.805
1037.911, 1817.020
1039.157, 1859.395
1040.404, 2015.449
1041.650, 2127.408
1042.897, 2330.590
1044.143, 2254.693
1045.389, 2426.930
1046.634, 2724.189
1047.880, 2705.773
1049.125, 3001.180
1050.371, 3206.291
1051.615, 3565.316
1052.860, 3540.486
1054.105, 4037.520
1055.349, 3865.953
1056.593, 4013.180
1057.837, 3959.645
1059.081, 4425.711
1060.325, 4250.174
1061.568, 4178.066
1062.812, 3934.480
1064.055, 3930.883
1065.298, 3765.027
1066.540, 3647.701
1067.783, 3556.174
1069.025, 3171.115
1070.267, 3492.074
1071.509, 3087.670
1072.751, 3005.715
1073.993, 3214.283
1075.234, 2895.035
1076.475, 2826.938
1077.716, 3107.529
1078.957, 2752.484
1080.198, 2758.422
1081.438, 2869.643
1082.679, 2721.422
1083.919, 2603.721
1085.159, 2627.867
1086.398, 2670.475
1087.638, 2610.246
1088.877, 2639.967
1090.116, 2657.688
1091.355, 2526.332
1092.594, 2672.240
1093.833, 2504.529
1095.071, 2416.438
1096.309, 2418.672
1097.547, 2428.801
1098.785, 2498.242
1100.023, 2616.039
1101.260, 2601.961
1102.498, 2733.436
1103.735, 2747.707
1104.972, 2852.619
1106.208, 2868.789
1107.445, 3099.379
1108.681, 3005.293
1109.918, 3289.027
1111.154, 3044.855
1112.389, 3212.457
1113.625, 3409.322
1114.860, 3259.598
1116.096, 3421.223
1117.331, 3675.277
1118.566, 3598.211
1119.800, 3706.475
1121.035, 4076.559
1122.269, 4200.578
1123.503, 4368.252
1124.737, 4404.672
1125.971, 4617.004
1127.205, 4797.789
1128.438, 4927.625
1129.671, 5225.123
1130.904, 5234.496
1132.137, 5850.633
1133.370, 6122.117
1134.602, 6324.594
1135.834, 6359.477
1137.066, 6779.070
1138.298, 7089.979
1139.530, 6368.467
1140.762, 6756.426
1141.993, 5909.996
1143.224, 5242.854
1144.455, 4597.566
1145.686, 3901.502
1146.917, 3403.170
1148.147, 2791.613
1149.377, 2154.123
1150.607, 1843.158
1151.837, 1480.430
1153.067, 1155.699
1154.296, 1029.551
1155.526, 862.193
1156.755, 615.787
1157.984, 676.789
1159.213, 458.131
1160.441, 357.562
1161.670, 430.783
1162.898, 423.426
1164.126, 283.301
1165.354, 265.639
1166.581, 316.822
1167.809, 363.258
1169.036, 57.922
1170.263, 260.461
1171.490, 117.496
1172.717, 197.268
1173.943, 205.422
1175.170, 32.713
1176.396, 35.117
1177.622, 106.898
1178.848, 105.188
1180.073, 41.666
1181.299, 178.318
1182.524, 48.139
1183.749, 9.465
1184.974, 224.242
1186.199, 152.564
1187.423, 83.926
1188.648, 112.633
1189.872, 225.883
1191.096, 145.699
1192.320, 237.674
1193.543, 63.273
1194.767, 115.961
1195.990, 32.746
1197.213, 115.957
1198.436, 50.998
1199.659, 240.229
1200.881, 89.037
1202.104, 221.242
1203.326, 33.119
1204.548, 389.959
1205.770, 93.232
1206.991, 209.498
1208.213, 105.199
1209.434, 257.863
1210.655, 251.826
1211.876, 39.172
1213.096, 150.738
1214.317, 196.889
1215.537, 83.393
1216.757, 0.117
1217.977, 161.582
1219.197, 53.002
1220.417, 164.596
1221.636, 119.945
1222.855, 81.264
1224.074, 153.547
1225.293, 116.205
1226.512, 66.945
1227.731, 252.061
1228.949, 100.652
1230.167, 214.037
1231.385, 19.709
1232.603, 135.688
1233.820, 94.629
1235.038, 29.469
1236.255, 87.377
1237.472, 132.195
1238.689, 52.967
1239.906, 198.711
1241.122, 48.562
1242.338, 207.248
1243.555, 88.883
1244.771, 54.465
1245.986, 66.012
1247.202, 76.471
1248.417, 137.973
1249.633, 183.305
1250.848, 75.291
1252.063, 202.949
1253.277, 99.154
1254.492, 36.285
1255.706, 59.383
1256.920, 44.432
1258.134, 36.566
1259.348, 151.650
1260.562, 93.457
1261.775, 91.906
1262.988, 29.607
1264.201, 46.246
1265.414, 192.816
1266.627, 34.344
1267.839, 45.789
1269.052, 107.141
1270.264, 106.551
1271.476, 192.688
1272.688, 79.879
1273.899, 73.023
1275.111, 9.895
1276.322, 15.135
1277.533, 2.904
1278.744, 178.006
1279.955, 87.160
1281.165, 82.598
1282.376, 55.689
1283.586, 88.945
1284.796, 187.523
1286.006, 3.041
1287.215, 159.506
1288.425, 89.920
1289.634, 40.711
1290.843, 72.596
1292.052, 39.150
1293.261, 16.043
1294.469, 13.188
1295.678, 76.713
1296.886, 29.314
1298.094, 0.701
1299.302, 89.773
1300.509, 113.076
1301.717, 119.879
1302.924, 256.641
1304.131, 170.355
1305.338, 14.029
1306.545, 189.648
1307.752, 85.225
1308.958, 54.754
1310.164, 147.234
1311.370, 16.326
1312.576, 113.051
1313.782, 71.377
1314.987, 83.211
1316.193, 14.553
1317.398, 252.404
1318.603, 154.535
1319.807, 114.623
1321.012, 52.926
1322.216, 225.445
1323.421, 104.068
1324.625, 131.635
1325.829, 158.551
1327.032, 2.326
1328.236, 309.498
1329.439, 203.254
1330.642, 9.932
1331.845, 7.600
1333.048, 184.516
1334.251, 326.709
1335.453, 143.217
1336.656, 99.469
1337.858, 181.902
1339.060, 153.721
1340.261, 239.723
1341.463, 131.182
1342.664, 319.102
1343.866, 230.711
1345.067, 103.941
1346.267, 190.951
1347.468, 383.117
1348.669, 290.504
1349.869, 525.611
1351.069, 317.080
1352.269, 294.109
1353.469, 309.674
1354.668, 258.682
1355.868, 383.666
1357.067, 507.873
1358.266, 127.613
1359.465, 539.428
1360.664, 380.367
1361.862, 220.211
1363.061, 313.914
1364.259, 229.125
1365.457, 405.707
1366.655, 366.094
1367.852, 281.410
1369.050, 561.916
1370.247, 461.064
1371.444, 396.904
1372.641, 151.365
1373.838, 443.203
1375.035, 371.438
1376.231, 299.156
1377.427, 507.898
1378.623, 404.404
1379.819, 416.414
1381.015, 266.834
1382.211, 455.475
1383.406, 434.285
1384.601, 241.213
1385.796, 396.295
1386.991, 459.279
1388.185, 461.248
1389.380, 467.744
1390.574, 462.154
1391.768, 331.398
1392.962, 598.574
1394.156, 223.529
1395.350, 393.996
1396.543, 462.475
1397.736, 269.924
1398.929, 459.248
1400.122, 370.990
1401.315, 561.496
1402.507, 368.660
1403.700, 412.404
1404.892, 407.107
1406.084, 382.275
1407.276, 446.529
1408.467, 413.539
1409.659, 295.613
1410.850, 394.723
1412.041, 408.133
1413.232, 267.584
1414.423, 520.992
1415.614, 242.480
1416.804, 404.912
1417.994, 554.408
1419.184, 462.906
1420.374, 472.760
1421.564, 392.232
1422.753, 303.615
1423.943, 285.529
1425.132, 280.127
1426.321, 297.113
1427.510, 477.535
1428.698, 389.357
1429.887, 405.365
1431.075, 449.332
1432.263, 285.926
1433.451, 432.602
1434.639, 338.650
1435.827, 414.641
1437.014, 375.160
1438.201, 389.545
1439.388, 464.027
1440.575, 423.408
1441.762, 507.643
1442.949, 517.348
1444.135, 568.035
1445.321, 411.014
1446.507, 527.912
1447.693, 509.848
1448.879, 399.727
1450.064, 494.479
1451.250, 495.148
1452.435, 323.773
1453.620, 558.309
1454.805, 450.412
1455.989, 488.795
1457.174, 751.080
1458.358, 301.479
1459.542, 393.705
1460.726, 579.146
1461.910, 500.586
1463.093, 527.076
1464.277, 450.676
1465.460, 413.275
1466.643, 648.994
1467.826, 240.004
1469.009, 652.105
1470.191, 326.211
1471.373, 543.412
1472.556, 540.717
1473.738, 489.219
1474.919, 386.777
1476.101, 383.295
1477.283, 474.352
1478.464, 345.254
1479.645, 408.227
1480.826, 455.225
1482.007, 270.244
1483.187, 599.334
1484.368, 315.498
1485.548, 419.730
1486.728, 369.072
1487.908, 438.518
1489.088, 433.496
1490.268, 694.826
1491.447, 357.727
1492.626, 374.812
1493.805, 204.094
1494.984, 539.586
1496.163, 468.281
1497.341, 226.191
1498.520, 321.330
1499.698, 141.699
1500.876, 432.307
1502.054, 63.820
1503.232, 333.350
1504.409, 153.861
1505.586, 163.748
1506.763, 293.059
1507.940, 307.834
1509.117, 173.119
1510.294, 280.973
1511.470, 207.281
1512.647, 144.326
1513.823, 288.080
1514.999, 251.465
1516.174, 145.734
1517.350, 1.926
1518.526, 199.570
1519.701, 303.559
1520.876, 72.336
1522.051, 0.000
##END=



