##NAMES=Trilithionite
##RRUFFID=R040101
##IDEAL CHEMISTRY=KLi_1.5_Al_1.5_(Si_3_Al)O_10_F_2_
##LOCALITY=Zambezi Region, Mozambique
##OWNER=RRUFF
##SOURCE=University of Arizona Mineral Museum
##DESCRIPTION=Aggregate of purple hexagonal plates, polytype is 2M1
##STATUS=The identification of this mineral has been confirmed by X-ray diffraction and chemical analysis
##URL=rruff.info/R040101
##MEASURED CHEMISTRY=(K_0.84_Li_0.13_Na_0.02_)(Li_0.54_Al_0.44_Mn_0.02_)_3_(Si_0.82_Al_0.18_)_4_O_10_F_2.00_
##PIN_ID=L00533
##ORIENTATION=Laser parallel to -b* (0 -1 0). Fiducial mark perpendicular to laser is parallel to c [0 0 1]
117.729, 0.000
119.119, 149.755
120.508, 248.144
121.897, 22.790
123.286, 194.622
124.675, 77.783
126.063, 2.519
127.452, 160.485
128.840, 65.700
130.228, 160.188
131.615, 42.834
133.003, 135.424
134.390, 27.223
135.777, 18.734
137.164, 54.848
138.550, 99.905
139.937, 0.879
141.323, 187.968
142.709, 31.077
144.094, 80.122
145.480, 90.030
146.865, 129.784
148.250, 263.334
149.635, 226.624
151.019, 365.604
152.403, 257.229
153.788, 501.459
155.171, 577.258
156.555, 815.592
157.939, 866.434
159.322, 1080.754
160.705, 1395.518
162.088, 1664.684
163.470, 1924.226
164.853, 2389.117
166.235, 2873.339
167.617, 3508.867
168.998, 4151.689
170.380, 4815.793
171.761, 5679.183
173.142, 6758.373
174.523, 7910.359
175.904, 9270.074
177.284, 10679.034
178.664, 12135.232
180.044, 13221.661
181.424, 14612.312
182.803, 15609.177
184.183, 15835.249
185.562, 15893.518
186.940, 16000.986
188.319, 15394.637
189.698, 15251.470
191.076, 14788.479
192.454, 14932.658
193.831, 15075.004
195.209, 15025.516
196.586, 15352.181
197.963, 14782.004
199.340, 14312.975
200.717, 13221.072
202.093, 11935.193
203.470, 10550.295
204.846, 9353.410
206.221, 8351.547
207.597, 7927.770
208.972, 7515.107
210.347, 6921.469
211.722, 6761.871
213.097, 6793.336
214.472, 6793.863
215.846, 6670.461
217.220, 6737.131
218.594, 6603.876
219.967, 6577.699
221.341, 6154.603
222.714, 6073.588
224.087, 5784.668
225.460, 5879.709
226.832, 5881.056
228.204, 6017.070
229.577, 6185.549
230.948, 6397.773
232.320, 6716.812
233.692, 7188.079
235.063, 7638.576
236.434, 8096.270
237.805, 8577.062
239.175, 9308.916
240.545, 9915.833
241.916, 11035.809
243.286, 11566.844
244.655, 12501.938
246.025, 13346.097
247.394, 14034.313
248.763, 14601.591
250.132, 14799.932
251.501, 15664.327
252.869, 16060.787
254.237, 17622.307
255.605, 19269.889
256.973, 21409.527
258.340, 24121.221
259.708, 26348.973
261.075, 28883.787
262.442, 30831.654
263.808, 31518.584
265.175, 31052.564
266.541, 29217.596
267.907, 26061.689
269.273, 22502.838
270.639, 19247.041
272.004, 15486.298
273.369, 13060.612
274.734, 10822.979
276.099, 8974.400
277.463, 7406.873
278.828, 6625.400
280.192, 5631.023
281.556, 4885.697
282.919, 4448.867
284.283, 4033.547
285.646, 3658.712
287.009, 3395.867
288.372, 2982.437
289.734, 2952.568
291.097, 2696.670
292.459, 2462.107
293.821, 2613.734
295.183, 2269.545
296.544, 2381.684
297.905, 2165.604
299.266, 2124.954
300.627, 2122.395
301.988, 2099.256
303.348, 2016.967
304.709, 1711.795
306.069, 1595.752
307.428, 1557.826
308.788, 1572.012
310.147, 1243.305
311.507, 1316.701
312.865, 1104.196
314.224, 1038.790
315.583, 891.475
316.941, 885.251
318.299, 683.113
319.657, 490.062
321.015, 472.092
322.372, 355.202
323.729, 303.390
325.086, 293.654
326.443, 278.991
327.800, 49.399
329.156, 200.585
330.512, 34.866
331.868, 9.252
333.224, 59.401
334.579, 69.195
335.935, 153.973
337.290, 36.779
338.645, 112.105
339.999, 110.185
341.354, 29.762
342.708, 52.993
344.062, 1.960
345.416, 34.100
346.769, 23.555
348.123, 31.457
349.476, 27.083
350.829, 70.873
352.182, 49.647
353.534, 119.625
354.887, 196.092
356.239, 196.604
357.591, 202.159
358.942, 254.757
360.294, 149.397
361.645, 266.080
362.996, 277.803
364.347, 505.568
365.698, 384.374
367.048, 421.221
368.398, 490.112
369.748, 441.044
371.098, 594.018
372.448, 781.032
373.797, 712.088
375.146, 752.186
376.495, 940.323
377.844, 1034.502
379.192, 978.723
380.540, 1024.982
381.889, 1058.282
383.236, 1144.622
384.584, 1260.002
385.932, 1205.423
387.279, 1312.882
388.626, 1338.374
389.973, 1484.095
391.319, 1569.438
392.666, 1845.966
394.012, 1958.518
395.358, 2163.098
396.704, 2211.715
398.049, 2540.363
399.394, 2915.048
400.740, 2907.764
402.084, 3299.513
403.429, 3321.294
404.774, 4254.107
406.118, 3946.663
407.462, 4464.828
408.806, 3705.735
410.150, 3651.676
411.493, 3601.646
412.836, 3232.646
414.179, 2925.680
415.522, 2483.742
416.865, 2512.834
418.207, 2135.957
419.549, 1829.109
420.891, 1668.293
422.233, 1327.504
423.575, 1306.745
424.916, 859.015
426.257, 919.313
427.598, 731.641
428.939, 653.996
430.279, 760.380
431.619, 357.792
432.959, 209.230
434.299, 207.698
435.639, 405.192
436.978, 194.713
438.318, 319.868
439.657, 184.442
440.996, 249.044
442.334, 197.671
443.673, 106.323
445.011, 102.017
446.349, 166.748
447.687, 85.524
449.024, 77.351
450.361, 150.218
451.699, 16.871
453.036, 98.074
454.372, 21.061
455.709, 198.086
457.045, 111.849
458.381, 22.801
459.717, 42.268
461.053, 130.379
462.388, 188.516
463.724, 101.717
465.059, 259.944
466.394, 189.206
467.728, 119.503
469.063, 181.834
470.397, 163.199
471.731, 234.596
473.065, 479.024
474.398, 406.486
475.732, 719.979
477.065, 430.502
478.398, 488.058
479.731, 488.643
481.063, 536.258
482.396, 438.902
483.728, 387.576
485.060, 287.277
486.391, 148.007
487.723, 259.767
489.054, 11.447
490.385, 67.349
491.716, 45.706
493.047, 75.548
494.377, 56.719
495.708, 35.899
497.038, 120.521
498.368, 128.290
499.697, 78.523
501.027, 143.776
502.356, 75.585
503.685, 97.052
505.014, 57.413
506.342, 126.416
507.671, 129.778
508.999, 123.167
510.327, 58.585
511.655, 80.013
512.982, 108.426
514.310, 66.168
515.637, 35.784
516.964, 281.428
518.291, 49.105
519.617, 330.832
520.944, 320.604
522.270, 292.439
523.596, 437.341
524.921, 290.320
526.247, 429.361
527.572, 475.457
528.897, 535.575
530.222, 641.721
531.547, 783.888
532.871, 853.100
534.196, 825.335
535.520, 791.596
536.844, 931.881
538.167, 1115.188
539.491, 1089.531
540.814, 1266.913
542.137, 1283.351
543.460, 1288.815
544.783, 1513.303
546.105, 1396.810
547.427, 1820.377
548.749, 1984.964
550.071, 2055.568
551.393, 2565.229
552.714, 2786.913
554.035, 3120.646
555.356, 3173.395
556.677, 3482.194
557.998, 3349.013
559.318, 3684.865
560.638, 3716.736
561.958, 3477.625
563.278, 3315.529
564.597, 3143.455
565.917, 2833.397
567.236, 2610.357
568.555, 2452.335
569.874, 2119.430
571.192, 1823.347
572.511, 1519.383
573.829, 1249.437
575.147, 1040.177
576.464, 859.184
577.782, 716.694
579.099, 592.809
580.416, 545.940
581.733, 432.087
583.050, 435.244
584.366, 203.416
585.683, 446.602
586.999, 257.801
588.315, 63.012
589.630, 203.239
590.946, 344.478
592.261, 200.738
593.576, 78.012
594.891, 99.298
596.206, 57.406
597.520, 55.859
598.834, 290.133
600.148, 86.414
601.462, 227.706
602.776, 273.006
604.089, 231.314
605.402, 205.631
606.715, 408.955
608.028, 572.287
609.341, 343.629
610.653, 315.571
611.965, 692.926
613.277, 517.275
614.589, 722.647
615.901, 630.867
617.212, 823.474
618.523, 872.865
619.834, 934.263
621.145, 1126.663
622.456, 1028.068
623.766, 1038.479
625.076, 1402.896
626.386, 1324.317
627.696, 1603.741
629.006, 1348.172
630.315, 1812.604
631.624, 1580.040
632.933, 1532.479
634.242, 2100.919
635.551, 1614.361
636.859, 1812.807
638.167, 1677.253
639.475, 2054.701
640.783, 1491.149
642.090, 1787.598
643.398, 1689.047
644.705, 1799.495
646.012, 1509.944
647.318, 1515.687
648.625, 1680.134
649.931, 1628.582
651.237, 1655.062
652.543, 1744.580
653.849, 1684.291
655.155, 1857.409
656.460, 1884.106
657.765, 1884.610
659.070, 1728.204
660.375, 2027.274
661.679, 2249.782
662.984, 1922.780
664.288, 1972.621
665.592, 1947.952
666.895, 2270.859
668.199, 2121.211
669.502, 2518.377
670.805, 2373.670
672.108, 2617.424
673.411, 2545.881
674.713, 2674.875
676.016, 2915.385
677.318, 3068.020
678.620, 3349.836
679.921, 3551.428
681.223, 3957.508
682.524, 4132.023
683.825, 4306.869
685.126, 5173.023
686.427, 5525.508
687.727, 5918.656
689.028, 6322.365
690.328, 6823.713
691.628, 7944.432
692.927, 8481.779
694.227, 9510.484
695.526, 9817.137
696.825, 11900.406
698.124, 12581.430
699.423, 14401.852
700.721, 15351.852
702.020, 17196.867
703.318, 18916.809
704.616, 20814.635
705.913, 22531.186
707.211, 25138.199
708.508, 28179.043
709.805, 30289.254
711.102, 31009.531
712.399, 32405.533
713.695, 30511.242
714.992, 28679.396
716.288, 24823.205
717.584, 21161.879
718.879, 16734.111
720.175, 13991.668
721.470, 11971.176
722.765, 9460.834
724.060, 7984.629
725.355, 6604.482
726.649, 5803.230
727.944, 5110.318
729.238, 4729.051
730.532, 4217.123
731.825, 3818.668
733.119, 3613.871
734.412, 3247.174
735.705, 3097.014
736.998, 3127.549
738.291, 3112.348
739.584, 3260.779
740.876, 3377.848
742.168, 3475.998
743.460, 3663.363
744.752, 3792.186
746.043, 3970.221
747.334, 4234.297
748.626, 4284.795
749.916, 4288.945
751.207, 4311.943
752.498, 4246.088
753.788, 4486.598
755.078, 4119.098
756.368, 4157.951
757.658, 4166.402
758.947, 3839.826
760.237, 3825.586
761.526, 3379.961
762.815, 3329.322
764.104, 2961.326
765.392, 2788.629
766.680, 2433.914
767.969, 2099.365
769.257, 2243.600
770.544, 1776.361
771.832, 1856.570
773.119, 1700.441
774.406, 1394.609
775.693, 1497.748
776.980, 1337.869
778.267, 1506.387
779.553, 1455.936
780.839, 1400.170
782.125, 1457.176
783.411, 1387.076
784.697, 1403.762
785.982, 1301.686
787.267, 1319.916
788.552, 1237.789
789.837, 1007.789
791.122, 1213.926
792.406, 689.715
793.690, 782.475
794.974, 730.465
796.258, 665.166
797.542, 626.844
798.825, 438.490
800.108, 485.107
801.391, 235.699
802.674, 473.270
803.957, 306.812
805.239, 165.324
806.522, 517.832
807.804, 47.672
809.085, 272.762
810.367, 253.195
811.649, 197.639
812.930, 67.074
814.211, 105.514
815.492, 39.061
816.772, 29.920
818.053, 10.646
819.333, 17.041
820.613, 4.756
821.893, 56.504
823.173, 99.254
824.452, 110.096
825.732, 130.979
827.011, 44.020
828.290, 0.977
829.568, 57.029
830.847, 43.164
832.125, 109.879
833.403, 122.404
834.681, 178.148
835.959, 105.742
837.236, 79.445
838.514, 64.758
839.791, 40.920
841.068, 64.064
842.345, 46.871
843.621, 47.135
844.898, 26.102
846.174, 45.406
847.450, 135.910
848.726, 32.240
850.001, 26.459
851.277, 102.746
852.552, 1.861
853.827, 70.414
855.102, 66.934
856.376, 119.588
857.651, 87.779
858.925, 150.111
860.199, 106.592
861.473, 8.598
862.746, 79.258
864.020, 203.793
865.293, 93.188
866.566, 90.732
867.839, 33.383
869.112, 70.436
870.384, 88.215
871.656, 188.965
872.928, 7.682
874.200, 115.354
875.472, 75.990
876.744, 56.594
878.015, 47.164
879.286, 2.307
880.557, 23.178
881.828, 53.621
883.098, 43.051
884.369, 37.449
885.639, 146.809
886.909, 117.449
888.178, 29.434
889.448, 59.691
890.717, 253.918
891.987, 66.113
893.256, 147.277
894.524, 55.412
895.793, 135.520
897.061, 16.594
898.330, 133.629
899.598, 21.363
900.865, 36.387
902.133, 89.523
903.401, 119.418
904.668, 176.283
905.935, 277.137
907.202, 302.520
908.468, 130.770
909.735, 309.555
911.001, 320.309
912.267, 136.039
913.533, 266.738
914.799, 218.422
916.064, 59.084
917.330, 320.715
918.595, 524.318
919.860, 0.105
921.124, 344.436
922.389, 87.951
923.653, 325.436
924.918, 57.922
926.182, 297.373
927.445, 335.797
928.709, 218.195
929.972, 116.582
931.236, 102.938
932.499, 171.266
933.761, 362.566
935.024, 62.842
936.286, 237.092
937.549, 313.318
938.811, 138.518
940.073, 417.697
941.334, 179.852
942.596, 139.980
943.857, 286.080
945.118, 339.150
946.379, 154.201
947.640, 347.225
948.900, 429.221
950.161, 241.193
951.421, 374.143
952.681, 408.072
953.940, 444.977
955.200, 421.852
956.459, 482.402
957.719, 480.525
958.978, 531.332
960.236, 588.707
961.495, 538.480
962.753, 535.240
964.012, 436.980
965.270, 400.162
966.527, 670.551
967.785, 619.346
969.043, 798.693
970.300, 572.508
971.557, 599.609
972.814, 825.467
974.071, 561.301
975.327, 770.174
976.583, 556.352
977.840, 776.592
979.095, 864.152
980.351, 645.150
981.607, 972.611
982.862, 825.922
984.117, 611.031
985.372, 1091.342
986.627, 643.158
987.882, 1001.506
989.136, 821.500
990.390, 740.166
991.644, 1037.475
992.898, 835.102
994.152, 903.137
995.405, 886.520
996.659, 896.529
997.912, 972.877
999.165, 1077.900
1000.417, 1120.938
1001.670, 860.340
1002.922, 1193.957
1004.174, 973.145
1005.426, 1223.730
1006.678, 1059.270
1007.930, 1007.855
1009.181, 1349.539
1010.432, 1154.461
1011.683, 1302.893
1012.934, 1179.467
1014.185, 1282.641
1015.435, 1318.744
1016.685, 1375.088
1017.935, 1185.691
1019.185, 1405.834
1020.435, 1411.283
1021.684, 1361.312
1022.934, 1578.273
1024.183, 1726.922
1025.432, 1524.584
1026.680, 1715.594
1027.929, 1499.281
1029.177, 1657.719
1030.425, 1544.080
1031.673, 1826.299
1032.921, 1692.674
1034.169, 1689.377
1035.416, 1626.971
1036.663, 1722.316
1037.911, 1820.902
1039.157, 1962.023
1040.404, 2223.775
1041.650, 2312.369
1042.897, 2659.994
1044.143, 2643.248
1045.389, 2986.264
1046.634, 3372.174
1047.880, 3524.391
1049.125, 3639.031
1050.371, 3870.225
1051.615, 4642.049
1052.860, 4645.451
1054.105, 5174.766
1055.349, 5433.734
1056.593, 5439.445
1057.837, 5860.338
1059.081, 6108.605
1060.325, 6042.559
1061.568, 5891.221
1062.812, 5844.682
1064.055, 5720.777
1065.298, 5446.473
1066.540, 5251.336
1067.783, 4929.502
1069.025, 4544.512
1070.267, 4703.051
1071.509, 4045.047
1072.751, 3842.148
1073.993, 4011.244
1075.234, 3585.500
1076.475, 3292.504
1077.716, 3484.375
1078.957, 3041.852
1080.198, 2834.941
1081.438, 3205.701
1082.679, 2608.873
1083.919, 2656.170
1085.159, 2532.109
1086.398, 2640.859
1087.638, 2236.264
1088.877, 2339.840
1090.116, 2155.295
1091.355, 2174.010
1092.594, 2096.887
1093.833, 2128.264
1095.071, 1960.658
1096.309, 2000.238
1097.547, 1943.107
1098.785, 1824.234
1100.023, 1956.453
1101.260, 2007.158
1102.498, 2168.770
1103.735, 1977.254
1104.972, 2198.971
1106.208, 2040.926
1107.445, 2314.250
1108.681, 2123.676
1109.918, 2519.348
1111.154, 2083.840
1112.389, 2430.006
1113.625, 2460.605
1114.860, 2465.688
1116.096, 2678.449
1117.331, 2766.467
1118.566, 2729.475
1119.800, 2812.494
1121.035, 3020.176
1122.269, 3006.352
1123.503, 3395.102
1124.737, 3482.736
1125.971, 3647.121
1127.205, 3732.520
1128.438, 3895.555
1129.671, 4248.396
1130.904, 4492.527
1132.137, 4710.381
1133.370, 5246.762
1134.602, 5781.137
1135.834, 6269.180
1137.066, 6582.543
1138.298, 7296.846
1139.530, 7229.584
1140.762, 7749.184
1141.993, 8003.803
1143.224, 8066.047
1144.455, 7890.680
1145.686, 7661.711
1146.917, 6790.613
1148.147, 6576.361
1149.377, 5652.652
1150.607, 4512.340
1151.837, 3596.805
1153.067, 3027.520
1154.296, 2455.162
1155.526, 2039.186
1156.755, 1662.355
1157.984, 1335.438
1159.213, 1128.518
1160.441, 890.811
1161.670, 754.197
1162.898, 659.367
1164.126, 372.762
1165.354, 499.695
1166.581, 353.600
1167.809, 335.541
1169.036, 74.775
1170.263, 394.889
1171.490, 243.637
1172.717, 294.922
1173.943, 95.424
1175.170, 132.092
1176.396, 183.369
1177.622, 319.387
1178.848, 172.434
1180.073, 100.828
1181.299, 120.510
1182.524, 138.379
1183.749, 114.484
1184.974, 365.842
1186.199, 311.664
1187.423, 162.896
1188.648, 130.949
1189.872, 202.822
1191.096, 135.389
1192.320, 24.127
1193.543, 201.463
1194.767, 187.814
1195.990, 20.879
1197.213, 110.014
1198.436, 90.039
1199.659, 295.062
1200.881, 74.938
1202.104, 211.742
1203.326, 78.055
1204.548, 390.654
1205.770, 44.131
1206.991, 250.016
1208.213, 77.121
1209.434, 296.176
1210.655, 50.811
1211.876, 57.131
1213.096, 93.021
1214.317, 180.586
1215.537, 214.195
1216.757, 37.158
1217.977, 210.998
1219.197, 49.682
1220.417, 95.684
1221.636, 215.854
1222.855, 195.348
1224.074, 223.803
1225.293, 36.789
1226.512, 61.547
1227.731, 122.834
1228.949, 90.406
1230.167, 103.586
1231.385, 35.174
1232.603, 14.871
1233.820, 67.326
1235.038, 0.662
1236.255, 47.572
1237.472, 183.727
1238.689, 102.979
1239.906, 294.832
1241.122, 48.650
1242.338, 176.426
1243.555, 166.143
1244.771, 99.803
1245.986, 74.613
1247.202, 5.180
1248.417, 211.795
1249.633, 238.254
1250.848, 178.984
1252.063, 116.975
1253.277, 44.238
1254.492, 30.441
1255.706, 31.426
1256.920, 28.293
1258.134, 59.650
1259.348, 7.594
1260.562, 66.594
1261.775, 135.172
1262.988, 73.844
1264.201, 76.461
1265.414, 73.027
1266.627, 12.475
1267.839, 53.957
1269.052, 128.332
1270.264, 10.379
1271.476, 223.834
1272.688, 149.012
1273.899, 70.990
1275.111, 102.859
1276.322, 59.637
1277.533, 4.449
1278.744, 32.049
1279.955, 34.373
1281.165, 141.992
1282.376, 164.295
1283.586, 0.523
1284.796, 141.682
1286.006, 4.225
1287.215, 158.795
1288.425, 14.244
1289.634, 52.355
1290.843, 17.455
1292.052, 159.795
1293.261, 102.850
1294.469, 35.436
1295.678, 111.957
1296.886, 166.420
1298.094, 101.828
1299.302, 112.977
1300.509, 5.463
1301.717, 51.686
1302.924, 88.846
1304.131, 129.941
1305.338, 28.979
1306.545, 149.945
1307.752, 44.150
1308.958, 139.668
1310.164, 58.426
1311.370, 8.115
1312.576, 236.732
1313.782, 26.287
1314.987, 178.305
1316.193, 102.271
1317.398, 122.051
1318.603, 146.689
1319.807, 251.979
1321.012, 64.266
1322.216, 151.586
1323.421, 13.479
1324.625, 40.830
1325.829, 275.920
1327.032, 14.814
1328.236, 312.441
1329.439, 56.539
1330.642, 142.912
1331.845, 62.535
1333.048, 286.564
1334.251, 318.404
1335.453, 2.488
1336.656, 152.219
1337.858, 112.697
1339.060, 159.588
1340.261, 218.367
1341.463, 190.393
1342.664, 207.791
1343.866, 196.947
1345.067, 222.838
1346.267, 227.883
1347.468, 335.449
1348.669, 254.414
1349.869, 447.135
1351.069, 341.047
1352.269, 557.602
1353.469, 626.393
1354.668, 382.977
1355.868, 334.232
1357.067, 452.834
1358.266, 158.551
1359.465, 386.604
1360.664, 471.910
1361.862, 306.471
1363.061, 523.580
1364.259, 380.072
1365.457, 403.029
1366.655, 436.336
1367.852, 366.057
1369.050, 418.705
1370.247, 434.014
1371.444, 328.477
1372.641, 242.707
1373.838, 364.357
1375.035, 215.949
1376.231, 426.090
1377.427, 504.826
1378.623, 397.703
1379.819, 262.709
1381.015, 273.607
1382.211, 240.877
1383.406, 329.523
1384.601, 352.408
1385.796, 416.934
1386.991, 602.170
1388.185, 468.652
1389.380, 277.086
1390.574, 546.344
1391.768, 302.180
1392.962, 578.738
1394.156, 408.641
1395.350, 395.527
1396.543, 576.754
1397.736, 424.508
1398.929, 437.799
1400.122, 337.318
1401.315, 596.701
1402.507, 425.588
1403.700, 533.080
1404.892, 355.672
1406.084, 549.045
1407.276, 370.391
1408.467, 411.266
1409.659, 473.561
1410.850, 485.088
1412.041, 524.820
1413.232, 305.951
1414.423, 492.520
1415.614, 345.109
1416.804, 402.352
1417.994, 465.756
1419.184, 539.977
1420.374, 206.930
1421.564, 493.877
1422.753, 210.463
1423.943, 470.385
1425.132, 217.031
1426.321, 345.441
1427.510, 342.559
1428.698, 420.311
1429.887, 527.080
1431.075, 533.877
1432.263, 543.266
1433.451, 367.355
1434.639, 455.674
1435.827, 387.900
1437.014, 282.082
1438.201, 388.768
1439.388, 692.578
1440.575, 504.389
1441.762, 554.195
1442.949, 584.875
1444.135, 481.502
1445.321, 456.393
1446.507, 493.891
1447.693, 501.117
1448.879, 416.113
1450.064, 590.141
1451.250, 601.715
1452.435, 407.197
1453.620, 827.078
1454.805, 496.012
1455.989, 464.170
1457.174, 822.291
1458.358, 368.357
1459.542, 465.309
1460.726, 687.502
1461.910, 291.746
1463.093, 527.889
1464.277, 343.955
1465.460, 554.102
1466.643, 632.342
1467.826, 378.162
1469.009, 813.898
1470.191, 340.227
1471.373, 484.037
1472.556, 569.953
1473.738, 625.924
1474.919, 601.510
1476.101, 593.879
1477.283, 486.846
1478.464, 405.830
1479.645, 396.816
1480.826, 489.834
1482.007, 372.926
1483.187, 396.494
1484.368, 387.471
1485.548, 353.977
1486.728, 296.664
1487.908, 305.568
1489.088, 377.699
1490.268, 290.535
1491.447, 393.773
1492.626, 318.742
1493.805, 248.967
1494.984, 552.424
1496.163, 423.137
1497.341, 304.158
1498.520, 489.545
1499.698, 203.355
1500.876, 392.641
1502.054, 41.539
1503.232, 123.869
1504.409, 171.924
1505.586, 155.707
1506.763, 360.352
1507.940, 138.006
1509.117, 1.930
1510.294, 329.967
1511.470, 29.689
1512.647, 53.701
1513.823, 144.172
1514.999, 0.000
##END=



