##NAMES=Vayrynenite
##RRUFFID=R050243
##IDEAL CHEMISTRY=Mn^2+^Be(PO_4_)OH
##LOCALITY=Viitaniemi pegmatite, Erajarvi, Orivesi, Finland
##OWNER=RRUFF
##SOURCE=Marcus Origlieri
##DESCRIPTION=Pink massive with defined cleavage planes
##STATUS=The identification of this mineral has been confirmed by X-ray diffraction and chemical analysis
##URL=rruff.info/R050243
##MEASURED CHEMISTRY=(Mn^2+^_0.95_Fe^2+^_0.05_)_Σ=1_Be_1.00_(P_1.00_O_4_)((OH)_0.94_F_0.06_)_Σ=1_ ; Be not measured but estimated by difference and charge balance.
##PIN_ID=M00427
##ORIENTATION=Laser parallel to b* (0 1 0). Fiducial mark perpendicular to laser is parallel to c [0 0 1]
56.365, 0.000
57.765, 23.015
59.164, 27.075
60.563, 23.067
61.962, 12.030
63.360, 16.241
64.758, 2.769
66.157, 17.757
67.554, 47.616
68.952, 97.896
70.349, 141.239
71.747, 194.357
73.144, 279.029
74.540, 321.082
75.937, 453.368
77.333, 527.760
78.729, 594.142
80.125, 706.413
81.521, 764.483
82.916, 837.275
84.311, 1011.721
85.706, 1196.767
87.101, 1540.363
88.496, 1934.504
89.890, 2442.184
91.284, 3085.364
92.678, 3872.998
94.071, 4385.050
95.465, 3968.485
96.858, 2647.278
98.251, 1650.399
99.644, 1230.820
101.036, 1082.510
102.428, 981.445
103.820, 950.606
105.212, 962.980
106.604, 994.553
107.995, 997.314
109.387, 905.256
110.777, 940.370
112.168, 884.649
113.559, 923.085
114.949, 959.674
116.339, 1095.408
117.729, 1288.378
119.119, 1547.801
120.508, 1746.667
121.897, 1987.789
123.286, 2243.085
124.675, 2338.445
126.063, 2128.871
127.452, 1595.367
128.840, 1209.936
130.228, 894.574
131.615, 756.283
133.003, 667.060
134.390, 610.904
135.777, 551.815
137.164, 542.791
138.550, 491.832
139.937, 526.911
141.323, 447.950
142.709, 479.959
144.094, 427.955
145.480, 446.953
146.865, 443.964
148.250, 417.994
149.635, 370.050
151.019, 407.135
152.403, 369.254
153.788, 370.409
155.171, 415.603
156.555, 373.839
157.939, 475.116
159.322, 504.448
160.705, 588.837
162.088, 657.279
163.470, 747.767
164.853, 745.300
166.235, 731.879
167.617, 641.503
168.998, 598.174
170.380, 553.890
171.761, 580.652
173.142, 669.459
174.523, 804.311
175.904, 1151.208
177.284, 1747.832
178.664, 2375.886
180.044, 3283.398
181.424, 4168.506
182.803, 5263.876
184.183, 5976.029
185.562, 5419.178
186.940, 3793.790
188.319, 2462.437
189.698, 1556.299
191.076, 1101.223
192.454, 816.214
193.831, 639.306
195.209, 517.490
196.586, 494.769
197.963, 446.122
199.340, 353.521
200.717, 410.956
202.093, 377.426
203.470, 393.929
204.846, 398.465
206.221, 423.034
207.597, 447.634
208.972, 480.268
210.347, 546.934
211.722, 552.635
213.097, 635.369
214.472, 663.137
215.846, 701.939
217.220, 796.774
218.594, 824.642
219.967, 819.543
221.341, 754.477
222.714, 629.675
224.087, 508.904
225.460, 430.133
226.832, 407.705
228.204, 338.965
229.577, 402.940
230.948, 394.083
232.320, 375.377
233.692, 296.811
235.063, 283.370
236.434, 219.047
237.805, 172.832
239.175, 149.719
240.545, 163.699
241.916, 105.769
243.286, 129.921
244.655, 95.152
246.025, 99.458
247.394, 52.835
248.763, 99.278
250.132, 80.786
251.501, 73.355
252.869, 160.983
254.237, 105.667
255.605, 153.404
256.973, 144.193
258.340, 209.031
259.708, 281.229
261.075, 319.689
262.442, 350.937
263.808, 458.237
265.175, 400.615
266.541, 402.733
267.907, 348.868
269.273, 257.039
270.639, 190.247
272.004, 150.491
273.369, 78.768
274.734, 149.080
276.099, 105.424
277.463, 204.800
278.828, 245.207
280.192, 350.645
281.556, 422.112
282.919, 484.609
284.283, 608.132
285.646, 628.680
287.009, 653.251
288.372, 571.845
289.734, 413.461
291.097, 294.100
292.459, 114.760
293.821, 53.441
295.183, 5.144
296.544, 41.133
297.905, 38.396
299.266, 56.644
300.627, 79.955
301.988, 58.111
303.348, 103.331
304.709, 94.550
306.069, 76.766
307.428, 76.976
308.788, 54.179
310.147, 43.372
311.507, 39.578
312.865, 38.719
314.224, 34.873
315.583, 51.014
316.941, 60.144
318.299, 14.734
319.657, 47.753
321.015, 39.668
322.372, 81.084
323.729, 99.675
325.086, 198.677
326.443, 356.018
327.800, 391.476
329.156, 549.663
330.512, 835.829
331.868, 1069.548
333.224, 1385.349
334.579, 1719.841
335.935, 2082.627
337.290, 2045.272
338.645, 1943.400
339.999, 1528.541
341.354, 1163.688
342.708, 914.830
344.062, 745.960
345.416, 734.064
346.769, 685.151
348.123, 766.236
349.476, 773.336
350.829, 811.437
352.182, 809.072
353.534, 780.866
354.887, 756.923
356.239, 685.153
357.591, 614.407
358.942, 535.689
360.294, 571.017
361.645, 589.379
362.996, 639.775
364.347, 670.199
365.698, 777.644
367.048, 947.116
368.398, 1213.606
369.748, 1464.121
371.098, 1885.653
372.448, 2476.206
373.797, 3126.779
375.146, 4122.370
376.495, 4948.978
377.844, 5808.600
379.192, 6466.234
380.540, 6177.880
381.889, 5786.536
383.236, 4718.201
384.584, 3774.875
385.932, 3250.572
387.279, 2442.291
388.626, 1864.032
389.973, 1547.793
391.319, 1291.577
392.666, 955.379
394.012, 894.198
395.358, 719.035
396.704, 680.888
398.049, 669.756
399.394, 700.639
400.740, 734.536
402.084, 751.448
403.429, 750.372
404.774, 692.128
406.118, 585.260
407.462, 514.221
408.806, 386.195
410.150, 255.179
411.493, 218.175
412.836, 177.181
414.179, 158.197
415.522, 106.223
416.865, 54.258
418.207, 64.303
419.549, 42.356
420.891, 15.419
422.233, 9.486
423.575, 17.555
424.916, 17.629
426.257, 16.707
427.598, 30.789
428.939, 40.877
430.279, 74.973
431.619, 57.074
432.959, 71.430
434.299, 46.297
435.639, 68.418
436.978, 89.544
438.318, 80.676
439.657, 122.813
440.996, 134.777
442.334, 160.102
443.673, 199.254
445.011, 227.411
446.349, 297.572
447.687, 389.737
449.024, 463.906
450.361, 582.080
451.699, 786.256
453.036, 1102.436
454.372, 1401.620
455.709, 1834.807
457.045, 2528.998
458.381, 3003.958
459.717, 3873.011
461.053, 4297.323
462.388, 4571.599
463.724, 4158.824
465.059, 3462.982
466.394, 2565.533
467.728, 1746.886
469.063, 1190.212
470.397, 872.536
471.731, 550.300
473.065, 366.211
474.398, 304.145
475.732, 147.218
477.065, 156.615
478.398, 63.604
479.731, 11.835
481.063, 29.067
482.396, 2.301
483.728, 19.470
485.060, 18.745
486.391, 32.040
487.723, 51.844
489.054, 9.679
490.385, 45.524
491.716, 18.397
493.047, 55.285
494.377, 13.207
495.708, 18.140
497.038, 15.089
498.368, 50.949
499.697, 55.987
501.027, 123.025
502.356, 189.063
503.685, 277.743
505.014, 366.025
506.342, 384.550
507.671, 428.421
508.999, 371.007
510.327, 330.153
511.655, 347.933
512.982, 281.718
514.310, 287.851
515.637, 301.817
516.964, 257.279
518.291, 348.483
519.617, 314.643
520.944, 352.523
522.270, 504.575
523.596, 396.377
524.921, 652.577
526.247, 759.058
527.572, 995.671
528.897, 1373.817
530.222, 1906.257
531.547, 3265.376
532.871, 4326.658
534.196, 6017.290
535.520, 7500.119
536.844, 8359.815
538.167, 9030.208
539.491, 6405.636
540.814, 4523.709
542.137, 3073.743
543.460, 1969.770
544.783, 1430.789
546.105, 1051.800
547.427, 785.803
548.749, 591.797
550.071, 468.784
551.393, 375.762
552.714, 326.731
554.035, 278.691
555.356, 185.643
556.677, 201.488
557.998, 171.540
559.318, 220.441
560.638, 197.355
561.958, 212.260
563.278, 267.155
564.597, 291.040
565.917, 382.915
567.236, 351.780
568.555, 397.634
569.874, 497.479
571.192, 520.312
572.511, 519.135
573.829, 476.948
575.147, 443.750
576.464, 372.540
577.782, 390.320
579.099, 372.089
580.416, 387.258
581.733, 439.750
583.050, 462.212
584.366, 524.653
585.683, 592.043
586.999, 766.722
588.315, 860.412
589.630, 1065.089
590.946, 1457.755
592.261, 1927.409
593.576, 2452.052
594.891, 3006.682
596.206, 3506.299
597.520, 3744.905
598.834, 3658.499
600.148, 3359.080
601.462, 2909.649
602.776, 2592.206
604.089, 2316.750
605.402, 2097.281
606.715, 2080.800
608.028, 2355.306
609.341, 2737.799
610.653, 3405.280
611.965, 4508.748
613.277, 6262.201
614.589, 8338.644
615.901, 10392.071
617.212, 11924.491
618.523, 11990.903
619.834, 10300.312
621.145, 7866.721
622.456, 5592.125
623.766, 4136.534
625.076, 3025.944
626.386, 2323.354
627.696, 1717.765
629.006, 1463.169
630.315, 1074.567
631.624, 1005.957
632.933, 774.340
634.242, 642.713
635.551, 640.082
636.859, 464.447
638.167, 384.675
639.475, 377.011
640.783, 412.852
642.090, 315.520
643.398, 290.780
644.705, 301.705
646.012, 262.515
647.318, 204.599
648.625, 215.706
649.931, 212.263
651.237, 235.740
652.543, 218.632
653.849, 175.249
655.155, 147.189
656.460, 194.449
657.765, 116.591
659.070, 123.771
660.375, 46.944
661.679, 23.254
662.984, 55.462
664.288, 38.838
665.592, 20.077
666.895, 28.959
668.199, 54.628
669.502, 54.729
670.805, 3.541
672.108, 57.636
673.411, 1.900
674.713, 13.574
676.016, 92.600
677.318, 39.944
678.620, 41.088
679.921, 19.912
681.223, 5.938
682.524, 12.968
683.825, 22.840
685.126, 5.298
686.427, 32.653
687.727, 13.888
689.028, 10.089
690.328, 25.476
691.628, 19.613
692.927, 63.093
694.227, 82.177
695.526, 78.244
696.825, 117.085
698.124, 139.117
699.423, 169.341
700.721, 226.343
702.020, 259.330
703.318, 346.302
704.616, 353.259
705.913, 345.202
707.211, 283.130
708.508, 309.044
709.805, 363.943
711.102, 283.828
712.399, 231.698
713.695, 348.554
714.992, 280.396
716.288, 386.223
717.584, 410.036
718.879, 428.835
720.175, 497.621
721.470, 584.392
722.765, 762.149
724.060, 895.892
725.355, 946.621
726.649, 1175.337
727.944, 1332.039
729.238, 1644.726
730.532, 2089.400
731.825, 2272.061
733.119, 2873.708
734.412, 3314.341
735.705, 3725.961
736.998, 4137.569
738.291, 4359.167
739.584, 4372.752
740.876, 4238.328
742.168, 3938.891
743.460, 3486.441
744.752, 2959.979
746.043, 2580.503
747.334, 2207.014
748.626, 1914.513
749.916, 1597.999
751.207, 1361.472
752.498, 1163.932
753.788, 993.379
755.078, 923.815
756.368, 828.237
757.658, 716.648
758.947, 669.046
760.237, 573.432
761.526, 581.805
762.815, 528.167
764.104, 460.517
765.392, 433.854
766.680, 402.181
767.969, 446.495
769.257, 295.804
770.544, 378.095
771.832, 309.375
773.119, 337.644
774.406, 240.901
775.693, 266.147
776.980, 267.382
778.267, 175.605
779.553, 171.818
780.839, 258.019
782.125, 223.208
783.411, 167.387
784.697, 194.555
785.982, 177.711
787.267, 145.857
788.552, 244.992
789.837, 195.116
791.122, 198.229
792.406, 187.331
793.690, 201.423
794.974, 227.505
796.258, 193.579
797.542, 268.650
798.825, 256.712
800.108, 246.773
801.391, 249.840
802.674, 155.903
803.957, 132.970
805.239, 178.035
806.522, 63.106
807.804, 58.174
809.085, 32.239
810.367, 61.298
811.649, 102.348
812.930, 72.643
814.211, 70.417
815.492, 38.795
816.772, 48.561
818.053, 24.073
819.333, 66.229
820.613, 5.339
821.893, 8.519
823.173, 68.731
824.452, 0.929
825.732, 54.768
827.011, 98.765
828.290, 7.744
829.568, 1.006
830.847, 20.236
832.125, 58.200
833.403, 50.414
834.681, 12.293
835.959, 68.635
837.236, 34.283
838.514, 68.079
839.791, 55.434
841.068, 28.895
842.345, 33.536
843.621, 8.995
844.898, 63.114
846.174, 37.983
847.450, 43.047
848.726, 44.391
850.001, 31.687
851.277, 60.333
852.552, 68.011
853.827, 88.691
855.102, 51.373
856.376, 127.079
857.651, 81.786
858.925, 137.505
860.199, 229.221
861.473, 152.938
862.746, 155.663
864.020, 240.392
865.293, 169.128
866.566, 114.872
867.839, 157.615
869.112, 89.358
870.384, 98.102
871.656, 95.845
872.928, 45.588
874.200, 3.330
875.472, 62.073
876.744, 12.815
878.015, 8.557
879.286, 48.299
880.557, 25.041
881.828, 43.784
883.098, 24.526
884.369, 33.270
885.639, 53.013
886.909, 56.757
888.178, 74.502
889.448, 119.247
890.717, 63.994
891.987, 109.741
893.256, 147.489
894.524, 97.239
895.793, 153.990
897.061, 76.741
898.330, 73.495
899.598, 126.250
900.865, 109.007
902.133, 155.766
903.401, 95.527
904.668, 56.291
905.935, 88.057
907.202, 84.825
908.468, 36.596
909.735, 69.370
911.001, 69.158
912.267, 39.948
913.533, 78.741
914.799, 94.538
916.064, 70.348
917.330, 77.162
918.595, 73.989
919.860, 77.820
921.124, 1.656
922.389, 140.496
923.653, 70.339
924.918, 164.184
926.182, 185.034
927.445, 131.887
928.709, 234.744
929.972, 188.604
931.236, 191.473
932.499, 189.345
933.761, 212.221
935.024, 250.103
936.286, 286.988
937.549, 256.877
938.811, 369.771
940.073, 250.670
941.334, 379.573
942.596, 329.482
943.857, 374.395
945.118, 385.313
946.379, 402.236
947.640, 410.163
948.900, 463.095
950.161, 469.870
951.421, 614.973
952.681, 538.920
953.940, 611.871
955.200, 711.829
956.459, 699.792
957.719, 825.760
958.978, 933.628
960.236, 1048.492
961.495, 1174.181
962.753, 1309.074
964.012, 1513.076
965.270, 1578.032
966.527, 1814.993
967.785, 1902.804
969.043, 1955.703
970.300, 2161.427
971.557, 2235.431
972.814, 2460.460
974.071, 2745.099
975.327, 3046.221
976.583, 3476.936
977.840, 3973.083
979.095, 4793.281
980.351, 5510.871
981.607, 6228.791
982.862, 7164.986
984.117, 7697.952
985.372, 7705.568
986.627, 7899.487
987.882, 7129.143
989.136, 6948.061
990.390, 6856.910
991.644, 6593.651
992.898, 7227.093
994.152, 7925.551
995.405, 9290.807
996.659, 12256.348
997.912, 14483.157
999.165, 18234.740
1000.417, 24624.301
1001.670, 33831.836
1002.922, 44412.508
1004.174, 56131.660
1005.426, 60248.980
1006.678, 57757.371
1007.930, 48427.730
1009.181, 37788.984
1010.432, 28813.621
1011.683, 21783.221
1012.934, 17373.180
1014.185, 13728.738
1015.435, 11317.140
1016.685, 9356.596
1017.935, 7884.209
1019.185, 6735.059
1020.435, 5952.769
1021.684, 5351.399
1022.934, 4674.146
1024.183, 4280.785
1025.432, 3924.430
1026.680, 3493.078
1027.929, 3396.734
1029.177, 3098.395
1030.425, 2976.062
1031.673, 2841.732
1032.921, 2790.408
1034.169, 2807.090
1035.416, 2724.777
1036.663, 2789.475
1037.911, 2898.181
1039.157, 2926.892
1040.404, 2964.614
1041.650, 3015.343
1042.897, 2940.077
1044.143, 2913.818
1045.389, 2556.578
1046.634, 2246.344
1047.880, 2084.125
1049.125, 1674.910
1050.371, 1485.849
1051.615, 1269.692
1052.860, 1289.597
1054.105, 1089.550
1055.349, 1036.370
1056.593, 904.295
1057.837, 811.298
1059.081, 834.237
1060.325, 868.769
1061.568, 919.627
1062.812, 880.506
1064.055, 1011.701
1065.298, 1174.807
1066.540, 1304.959
1067.783, 1673.387
1069.025, 2102.323
1070.267, 2658.713
1071.509, 3360.678
1072.751, 3897.645
1073.993, 4235.562
1075.234, 4127.484
1076.475, 3381.589
1077.716, 2486.515
1078.957, 1986.450
1080.198, 1421.318
1081.438, 1112.290
1082.679, 972.237
1083.919, 665.432
1085.159, 636.518
1086.398, 483.545
1087.638, 434.505
1088.877, 375.819
1090.116, 305.808
1091.355, 316.006
1092.594, 301.065
1093.833, 259.174
1095.071, 261.131
1096.309, 184.243
1097.547, 259.201
1098.785, 282.187
1100.023, 235.330
1101.260, 234.428
1102.498, 186.479
1103.735, 264.858
1104.972, 193.898
1106.208, 176.085
1107.445, 190.242
1108.681, 119.083
1109.918, 155.352
1111.154, 134.458
1112.389, 96.558
1113.625, 145.574
1114.860, 155.829
1116.096, 168.927
1117.331, 151.884
1118.566, 273.796
1119.800, 222.919
1121.035, 420.303
1122.269, 537.477
1123.503, 701.665
1124.737, 959.750
1125.971, 977.025
1127.205, 739.992
1128.438, 633.289
1129.671, 343.312
1130.904, 290.407
1132.137, 213.622
1133.370, 151.916
1134.602, 116.976
1135.834, 92.164
1137.066, 109.325
1138.298, 50.568
1139.530, 153.778
1140.762, 65.051
1141.993, 163.284
1143.224, 59.544
1144.455, 4.804
1145.686, 51.714
1146.917, 73.415
1148.147, 10.784
1149.377, 42.708
1150.607, 24.275
1151.837, 13.296
1153.067, 16.402
1154.296, 99.372
1155.526, 16.366
1156.755, 48.347
1157.984, 11.540
1159.213, 26.427
1160.441, 42.439
1161.670, 18.647
1162.898, 32.672
1164.126, 33.155
1165.354, 36.056
1166.581, 1.112
1167.809, 13.561
1169.036, 42.354
1170.263, 9.082
1171.490, 118.702
1172.717, 126.439
1173.943, 69.043
1175.170, 41.304
1176.396, 129.952
1177.622, 163.860
1178.848, 212.479
1180.073, 174.081
1181.299, 136.208
1182.524, 205.965
1183.749, 213.787
1184.974, 222.432
1186.199, 142.260
1187.423, 206.308
1188.648, 157.206
1189.872, 251.518
1191.096, 244.156
1192.320, 102.049
1193.543, 127.605
1194.767, 94.075
1195.990, 90.707
1197.213, 28.210
1198.436, 52.998
1199.659, 40.800
1200.881, 31.844
1202.104, 106.723
1203.326, 44.166
1204.548, 27.996
1205.770, 52.630
1206.991, 31.043
1208.213, 93.756
1209.434, 80.196
1210.655, 12.610
1211.876, 20.579
1213.096, 21.686
1214.317, 25.084
1215.537, 78.688
1216.757, 10.054
1217.977, 73.402
1219.197, 75.906
1220.417, 95.174
1221.636, 118.376
1222.855, 46.781
1224.074, 94.086
1225.293, 116.699
1226.512, 3.834
1227.731, 86.066
1228.949, 137.659
1230.167, 37.810
1231.385, 64.781
1232.603, 80.022
1233.820, 97.133
1235.038, 24.060
1236.255, 91.971
1237.472, 42.868
1238.689, 76.747
1239.906, 65.610
1241.122, 123.456
1242.338, 66.285
1243.555, 148.103
1244.771, 97.968
1245.986, 60.763
1247.202, 72.545
1248.417, 84.314
1249.633, 25.352
1250.848, 88.085
1252.063, 53.801
1253.277, 61.504
1254.492, 5.810
1255.706, 39.965
1256.920, 75.614
1258.134, 77.248
1259.348, 97.868
1260.562, 4.847
1261.775, 79.432
1262.988, 135.002
1264.201, 12.559
1265.414, 75.612
1266.627, 32.133
1267.839, 64.821
1269.052, 62.308
1270.264, 86.780
1271.476, 46.361
1272.688, 115.815
1273.899, 44.413
1275.111, 103.007
1276.322, 86.551
1277.533, 59.054
1278.744, 48.444
1279.955, 101.796
1281.165, 71.133
1282.376, 81.496
1283.586, 63.071
1284.796, 74.397
1286.006, 61.658
1287.215, 70.895
1288.425, 63.105
1289.634, 63.293
1290.843, 36.387
1292.052, 50.823
1293.261, 56.154
1294.469, 124.870
1295.678, 97.711
1296.886, 102.215
1298.094, 119.133
1299.302, 83.291
1300.509, 70.351
1301.717, 63.429
1302.924, 85.599
1304.131, 83.924
1305.338, 35.158
1306.545, 96.563
1307.752, 48.359
1308.958, 35.286
1310.164, 101.144
1311.370, 66.831
1312.576, 102.272
1313.782, 71.838
1314.987, 85.474
1316.193, 172.979
1317.398, 79.579
1318.603, 117.160
1319.807, 12.723
1321.012, 95.266
1322.216, 37.789
1323.421, 98.294
1324.625, 100.777
1325.829, 17.242
1327.032, 59.680
1328.236, 0.903
1329.439, 1.869
1330.642, 40.853
1331.845, 4.807
1333.048, 30.505
1334.251, 8.794
1335.453, 72.056
1336.656, 34.703
1337.858, 2.501
1339.060, 12.320
1340.261, 63.830
1341.463, 2.959
1342.664, 33.918
1343.866, 30.958
1345.067, 10.923
1346.267, 2.175
1347.468, 91.846
1348.669, 24.747
1349.869, 48.442
1351.069, 110.418
1352.269, 20.670
1353.469, 47.418
1354.668, 72.458
1355.868, 5.994
1357.067, 94.627
1358.266, 99.188
1359.465, 8.541
1360.664, 53.208
1361.862, 52.621
1363.061, 27.315
1364.259, 65.102
1365.457, 28.819
1366.655, 88.521
1367.852, 46.114
1369.050, 7.907
1370.247, 81.273
1371.444, 51.984
1372.641, 8.419
1373.838, 64.193
1375.035, 112.542
1376.231, 38.985
1377.427, 62.604
1378.623, 105.082
1379.819, 122.595
1381.015, 122.435
1382.211, 126.712
1383.406, 112.435
1384.601, 109.399
1385.796, 121.381
1386.991, 131.791
1388.185, 88.115
1389.380, 116.393
1390.574, 195.359
1391.768, 118.372
1392.962, 37.490
1394.156, 127.567
1395.350, 111.469
1396.543, 116.632
1397.736, 192.695
1398.929, 73.235
1400.122, 130.055
1401.315, 201.872
1402.507, 113.558
1403.700, 27.223
1404.892, 154.839
1406.084, 120.446
1407.276, 111.929
1408.467, 16.339
1409.659, 127.671
1410.850, 55.615
1412.041, 127.240
1413.232, 143.958
1414.423, 70.684
1415.614, 97.148
1416.804, 59.831
1417.994, 56.614
1419.184, 64.836
1420.374, 71.149
1421.564, 94.878
1422.753, 123.698
1423.943, 179.460
1425.132, 90.370
1426.321, 40.723
1427.510, 90.713
1428.698, 155.395
1429.887, 129.107
1431.075, 98.002
1432.263, 131.227
1433.451, 142.077
1434.639, 174.246
1435.827, 180.488
1437.014, 161.102
1438.201, 197.175
1439.388, 282.869
1440.575, 261.289
1441.762, 276.418
1442.949, 416.866
1444.135, 375.211
1445.321, 327.560
1446.507, 318.662
1447.693, 432.912
1448.879, 431.660
1450.064, 529.005
1451.250, 506.645
1452.435, 500.929
1453.620, 432.390
1454.805, 550.143
1455.989, 505.875
1457.174, 453.594
1458.358, 626.143
1459.542, 476.754
1460.726, 479.714
1461.910, 569.251
1463.093, 489.748
1464.277, 518.950
1465.460, 383.346
1466.643, 375.825
1467.826, 425.099
1469.009, 234.072
1470.191, 380.767
1471.373, 197.531
1472.556, 300.062
1473.738, 261.111
1474.919, 304.537
1476.101, 229.253
1477.283, 231.008
1478.464, 265.452
1479.645, 206.014
1480.826, 137.629
1482.007, 134.349
1483.187, 187.087
1484.368, 258.990
1485.548, 183.069
1486.728, 200.217
1487.908, 196.355
1489.088, 183.562
1490.268, 167.844
1491.447, 160.418
1492.626, 127.643
1493.805, 151.521
1494.984, 80.699
1496.163, 98.851
1497.341, 120.000
1498.520, 103.174
1499.698, 136.396
1500.876, 47.676
1502.054, 105.031
1503.232, 7.495
1504.409, 36.043
1505.586, 11.674
1506.763, 78.374
1507.940, 54.129
1509.117, 16.938
1510.294, 2.196
1511.470, 5.252
1512.647, 101.795
1513.823, 71.963
1514.999, 101.268
1516.174, 85.014
1517.350, 121.893
1518.526, 15.787
1519.701, 96.630
1520.876, 1.104
1522.051, 8.853
1523.226, 80.404
1524.400, 123.079
1525.574, 30.597
1526.749, 0.000
##END=



