##NAMES=Vayrynenite
##RRUFFID=R050243
##IDEAL CHEMISTRY=Mn^2+^Be(PO_4_)OH
##LOCALITY=Viitaniemi pegmatite, Erajarvi, Orivesi, Finland
##OWNER=RRUFF
##SOURCE=Marcus Origlieri
##DESCRIPTION=Pink massive with defined cleavage planes
##STATUS=The identification of this mineral has been confirmed by X-ray diffraction and chemical analysis
##URL=rruff.info/R050243
##MEASURED CHEMISTRY=(Mn^2+^_0.95_Fe^2+^_0.05_)_Σ=1_Be_1.00_(P_1.00_O_4_)((OH)_0.94_F_0.06_)_Σ=1_ ; Be not measured but estimated by difference and charge balance.
##PIN_ID=M00264
##ORIENTATION=Laser parallel to (1 0 1). Fiducial mark perpendicular to laser is parallel to b [0 1 0]
56.365, 0.000
57.765, 15.626
59.164, 23.168
60.563, 21.708
61.962, 34.829
63.360, 12.507
64.758, 3.671
66.157, 6.024
67.554, 4.974
68.952, 10.764
70.349, 20.517
71.747, 43.303
73.144, 69.010
74.540, 83.551
75.937, 144.844
77.333, 206.817
78.729, 227.406
80.125, 246.552
81.521, 323.202
82.916, 407.310
84.311, 617.837
85.706, 933.751
87.101, 1283.030
88.496, 1692.685
89.890, 2066.702
91.284, 2499.050
92.678, 2934.700
94.071, 3287.629
95.465, 3175.816
96.858, 2795.244
98.251, 1894.895
99.644, 1159.752
101.036, 873.794
102.428, 758.005
103.820, 742.373
105.212, 781.887
106.604, 839.540
107.995, 984.325
109.387, 1079.237
110.777, 1085.277
112.168, 1108.442
113.559, 1049.729
114.949, 1016.133
116.339, 1171.661
117.729, 1370.501
119.119, 1666.726
120.508, 1813.198
121.897, 2021.741
123.286, 2280.342
124.675, 2493.997
126.063, 2341.708
127.452, 2099.475
128.840, 1682.298
130.228, 1304.176
131.615, 977.109
133.003, 741.097
134.390, 618.140
135.777, 492.237
137.164, 436.389
138.550, 396.595
139.937, 397.838
141.323, 384.066
142.709, 371.285
144.094, 333.498
145.480, 325.709
146.865, 286.930
148.250, 324.168
149.635, 307.427
151.019, 305.711
152.403, 300.022
153.788, 268.362
155.171, 308.734
156.555, 291.140
157.939, 359.579
159.322, 335.075
160.705, 412.621
162.088, 440.252
163.470, 486.953
164.853, 577.742
166.235, 578.614
167.617, 564.525
168.998, 563.471
170.380, 524.451
171.761, 562.466
173.142, 631.515
174.523, 758.599
175.904, 1047.525
177.284, 1445.900
178.664, 1930.472
180.044, 2459.361
181.424, 2895.305
182.803, 3507.320
184.183, 3999.474
185.562, 4173.523
186.940, 3803.609
188.319, 3210.734
189.698, 2366.896
191.076, 1731.098
192.454, 1265.337
193.831, 905.614
195.209, 714.927
196.586, 578.278
197.963, 525.665
199.340, 470.089
200.717, 452.548
202.093, 422.042
203.470, 426.570
204.846, 451.131
206.221, 443.727
207.597, 456.357
208.972, 572.022
210.347, 622.723
211.722, 569.459
213.097, 570.232
214.472, 581.042
215.846, 614.888
217.220, 709.771
218.594, 806.690
219.967, 785.646
221.341, 775.637
222.714, 746.716
224.087, 692.893
225.460, 654.144
226.832, 733.442
228.204, 764.810
229.577, 870.297
230.948, 946.563
232.320, 1110.998
233.692, 1128.684
235.063, 1196.571
236.434, 1067.541
237.805, 790.589
239.175, 529.712
240.545, 331.905
241.916, 247.165
243.286, 174.488
244.655, 123.872
246.025, 94.314
247.394, 90.811
248.763, 79.363
250.132, 96.966
251.501, 57.619
252.869, 124.320
254.237, 126.068
255.605, 234.861
256.973, 335.697
258.340, 376.576
259.708, 528.960
261.075, 684.416
262.442, 796.535
263.808, 978.570
265.175, 1075.869
266.541, 1042.374
267.907, 1008.484
269.273, 888.962
270.639, 698.011
272.004, 510.654
273.369, 291.256
274.734, 212.361
276.099, 180.698
277.463, 110.065
278.828, 62.463
280.192, 65.889
281.556, 71.345
282.919, 43.828
284.283, 32.336
285.646, 52.870
287.009, 79.428
288.372, 14.010
289.734, 14.615
291.097, 38.245
292.459, 19.898
293.821, 21.425
295.183, 46.729
296.544, 63.016
297.905, 49.292
299.266, 64.552
300.627, 65.801
301.988, 71.039
303.348, 71.464
304.709, 50.484
306.069, 62.689
307.428, 24.881
308.788, 11.056
310.147, 20.209
311.507, 19.656
312.865, 6.544
314.224, 65.453
315.583, 73.385
316.941, 144.339
318.299, 215.314
319.657, 337.312
321.015, 438.331
322.372, 683.371
323.729, 797.433
325.086, 1105.516
326.443, 1411.620
327.800, 1711.745
329.156, 1926.890
330.512, 2093.250
331.868, 2172.488
333.224, 2223.442
334.579, 2103.665
335.935, 1930.907
337.290, 1666.169
338.645, 1474.451
339.999, 1184.747
341.354, 1040.041
342.708, 808.329
344.062, 671.611
345.416, 539.887
346.769, 483.166
348.123, 434.474
349.476, 438.817
350.829, 452.195
352.182, 415.599
353.534, 474.051
354.887, 435.531
356.239, 432.049
357.591, 388.606
358.942, 362.187
360.294, 352.808
361.645, 356.472
362.996, 396.175
364.347, 429.912
365.698, 531.683
367.048, 675.479
368.398, 880.312
369.748, 1061.171
371.098, 1350.055
372.448, 1898.963
373.797, 2387.895
375.146, 3087.849
376.495, 3723.825
377.844, 4395.819
379.192, 4873.829
380.540, 5052.856
381.889, 5005.901
383.236, 4451.962
384.584, 3893.039
385.932, 3201.141
387.279, 2617.268
388.626, 2046.420
389.973, 1602.598
391.319, 1273.798
392.666, 947.023
394.012, 864.271
395.358, 674.545
396.704, 600.840
398.049, 540.158
399.394, 564.497
400.740, 600.857
402.084, 599.237
403.429, 664.638
404.774, 673.059
406.118, 578.500
407.462, 573.961
408.806, 475.440
410.150, 347.939
411.493, 240.456
412.836, 212.992
414.179, 119.546
415.522, 108.118
416.865, 81.708
418.207, 47.315
419.549, 65.939
420.891, 8.419
422.233, 31.766
423.575, 0.890
424.916, 31.560
426.257, 66.753
427.598, 6.079
428.939, 19.394
430.279, 47.703
431.619, 38.017
432.959, 28.333
434.299, 47.647
435.639, 14.967
436.978, 13.720
438.318, 20.421
439.657, 87.137
440.996, 43.868
442.334, 133.612
443.673, 108.371
445.011, 208.144
446.349, 259.930
447.687, 312.731
449.024, 475.544
450.361, 599.372
451.699, 858.212
453.036, 1140.065
454.372, 1540.932
455.709, 2102.228
457.045, 2905.558
458.381, 3656.195
459.717, 4550.430
461.053, 5263.004
462.388, 5654.528
463.724, 5644.814
465.059, 5314.085
466.394, 4505.301
467.728, 3359.988
469.063, 2611.246
470.397, 1949.975
471.731, 1298.417
473.065, 960.459
474.398, 689.513
475.732, 474.578
477.065, 356.656
478.398, 249.745
479.731, 186.844
481.063, 122.956
482.396, 80.218
483.728, 93.212
485.060, 35.357
486.391, 66.512
487.723, 63.677
489.054, 58.854
490.385, 90.040
491.716, 128.237
493.047, 156.444
494.377, 230.660
495.708, 257.887
497.038, 392.123
498.368, 562.443
499.697, 862.698
501.027, 1284.478
502.356, 1880.774
503.685, 2478.173
505.014, 3084.762
506.342, 3702.314
507.671, 3881.039
508.999, 3745.965
510.327, 3191.967
511.655, 2485.456
512.982, 1942.672
514.310, 1603.732
515.637, 1316.547
516.964, 1085.482
518.291, 872.178
519.617, 631.175
520.944, 494.480
522.270, 358.550
523.596, 245.598
524.921, 242.612
526.247, 220.688
527.572, 252.316
528.897, 283.592
530.222, 447.872
531.547, 627.532
532.871, 941.371
534.196, 1295.256
535.520, 1564.792
536.844, 1891.349
538.167, 2200.884
539.491, 2086.423
540.814, 1817.990
542.137, 1383.548
543.460, 1014.125
544.783, 754.710
546.105, 563.297
547.427, 350.884
548.749, 336.473
550.071, 214.062
551.393, 147.652
552.714, 160.241
554.035, 129.844
555.356, 177.449
556.677, 169.060
557.998, 161.677
559.318, 175.294
560.638, 234.913
561.958, 268.539
563.278, 377.165
564.597, 407.790
565.917, 497.417
567.236, 734.042
568.555, 807.666
569.874, 947.294
571.192, 992.920
572.511, 982.544
573.829, 956.165
575.147, 833.784
576.464, 717.401
577.782, 635.014
579.099, 547.625
580.416, 417.767
581.733, 419.875
583.050, 359.354
584.366, 446.951
585.683, 451.318
586.999, 520.510
588.315, 698.129
589.630, 761.410
590.946, 1024.149
592.261, 1361.324
593.576, 1792.568
594.891, 2287.337
596.206, 2762.901
597.520, 3262.461
598.834, 3589.017
600.148, 3682.569
601.462, 3494.116
602.776, 3215.659
604.089, 2870.197
605.402, 2424.730
606.715, 2046.259
608.028, 1853.782
609.341, 1917.301
610.653, 1929.814
611.965, 2274.321
613.277, 2833.823
614.589, 3520.323
615.901, 4392.823
617.212, 5155.329
618.523, 5598.837
619.834, 5577.348
621.145, 5015.864
622.456, 4069.386
623.766, 3184.913
625.076, 2498.442
626.386, 1948.975
627.696, 1382.504
629.006, 1123.028
630.315, 820.548
631.624, 750.061
632.933, 653.566
634.242, 634.064
635.551, 717.555
636.859, 725.038
638.167, 730.512
639.475, 752.979
640.783, 755.438
642.090, 680.889
643.398, 616.331
644.705, 533.765
646.012, 446.191
647.318, 383.608
648.625, 263.016
649.931, 256.415
651.237, 147.806
652.543, 153.187
653.849, 84.559
655.155, 57.923
656.460, 73.275
657.765, 32.619
659.070, 64.947
660.375, 13.265
661.679, 45.563
662.984, 48.865
664.288, 24.863
665.592, 27.631
666.895, 28.441
668.199, 14.963
669.502, 78.853
670.805, 3.807
672.108, 39.760
673.411, 41.294
674.713, 12.706
676.016, 41.460
677.318, 61.890
678.620, 41.073
679.921, 24.091
681.223, 23.391
682.524, 8.454
683.825, 32.851
685.126, 6.612
686.427, 7.418
687.727, 23.954
689.028, 21.511
690.328, 21.965
691.628, 32.412
692.927, 86.779
694.227, 108.693
695.526, 173.091
696.825, 96.189
698.124, 201.312
699.423, 194.860
700.721, 333.681
702.020, 333.012
703.318, 430.330
704.616, 453.634
705.913, 494.989
707.211, 431.265
708.508, 484.528
709.805, 492.671
711.102, 371.325
712.399, 338.787
713.695, 339.225
714.992, 339.740
716.288, 351.249
717.584, 350.179
718.879, 372.608
720.175, 402.742
721.470, 432.493
722.765, 586.598
724.060, 626.703
725.355, 727.120
726.649, 902.181
727.944, 957.228
729.238, 1142.260
730.532, 1427.374
731.825, 1557.377
733.119, 1978.365
734.412, 2349.338
735.705, 2598.296
736.998, 2953.243
738.291, 3215.181
739.584, 3281.107
740.876, 3349.017
742.168, 3254.927
743.460, 3008.826
744.752, 2614.715
746.043, 2389.600
747.334, 2082.478
748.626, 1770.349
749.916, 1515.215
751.207, 1257.072
752.498, 1154.914
753.788, 1017.741
755.078, 969.555
756.368, 786.354
757.658, 686.138
758.947, 654.909
760.237, 571.665
761.526, 520.407
762.815, 488.134
764.104, 525.848
765.392, 429.547
766.680, 447.232
767.969, 472.903
769.257, 386.560
770.544, 429.203
771.832, 359.833
773.119, 382.447
774.406, 349.049
775.693, 326.636
776.980, 334.209
778.267, 310.768
779.553, 279.313
780.839, 300.845
782.125, 353.362
783.411, 348.865
784.697, 401.355
785.982, 384.830
787.267, 415.292
788.552, 409.740
789.837, 469.174
791.122, 480.595
792.406, 511.002
793.690, 513.395
794.974, 550.775
796.258, 626.142
797.542, 728.495
798.825, 695.835
800.108, 726.162
801.391, 758.475
802.674, 651.776
803.957, 602.063
805.239, 475.338
806.522, 404.600
807.804, 340.850
809.085, 257.087
810.367, 235.237
811.649, 203.448
812.930, 166.132
814.211, 160.298
815.492, 137.357
816.772, 77.223
818.053, 82.124
819.333, 79.848
820.613, 93.369
821.893, 43.812
823.173, 57.762
824.452, 19.984
825.732, 26.355
827.011, 18.967
828.290, 38.453
829.568, 4.175
830.847, 5.588
832.125, 18.314
833.403, 7.992
834.681, 26.343
835.959, 6.708
837.236, 12.000
838.514, 40.250
839.791, 15.171
841.068, 28.105
842.345, 45.431
843.621, 28.953
844.898, 9.468
846.174, 13.766
847.450, 71.029
848.726, 6.707
850.001, 43.563
851.277, 12.878
852.552, 68.189
853.827, 25.542
855.102, 3.087
856.376, 17.711
857.651, 41.973
858.925, 1.052
860.199, 43.560
861.473, 7.168
862.746, 52.228
864.020, 12.653
865.293, 27.085
866.566, 27.533
867.839, 10.997
869.112, 11.466
870.384, 37.942
871.656, 10.437
872.928, 24.062
874.200, 20.440
875.472, 47.049
876.744, 0.535
878.015, 34.980
879.286, 44.490
880.557, 4.959
881.828, 27.426
883.098, 5.108
884.369, 76.356
885.639, 47.820
886.909, 47.282
888.178, 119.744
889.448, 127.205
890.717, 136.667
891.987, 228.127
893.256, 211.588
894.524, 185.050
895.793, 235.511
897.061, 254.973
898.330, 269.435
899.598, 233.897
900.865, 198.360
902.133, 248.824
903.401, 196.289
904.668, 187.755
905.935, 135.222
907.202, 201.690
908.468, 123.160
909.735, 183.632
911.001, 158.105
912.267, 130.580
913.533, 93.056
914.799, 174.535
916.064, 178.016
917.330, 151.500
918.595, 157.987
919.860, 151.478
921.124, 107.970
922.389, 141.466
923.653, 215.965
924.918, 171.467
926.182, 190.972
927.445, 253.480
928.709, 248.992
929.972, 239.508
931.236, 313.027
932.499, 357.550
933.761, 417.077
935.024, 412.608
936.286, 428.144
937.549, 412.683
938.811, 501.228
940.073, 415.776
941.334, 497.329
942.596, 436.888
943.857, 473.451
945.118, 488.019
946.379, 462.593
947.640, 567.174
948.900, 560.760
950.161, 650.352
951.421, 612.949
952.681, 650.554
953.940, 727.164
955.200, 749.793
956.459, 763.428
957.719, 878.082
958.978, 1029.747
960.236, 1065.419
961.495, 1213.098
962.753, 1287.788
964.012, 1496.485
965.270, 1529.193
966.527, 1713.910
967.785, 1955.638
969.043, 2143.359
970.300, 2414.106
971.557, 2633.892
972.814, 3014.702
974.071, 3408.280
975.327, 3993.076
976.583, 4680.365
977.840, 5674.883
979.095, 6869.350
980.351, 8092.270
981.607, 9320.352
982.862, 11362.677
984.117, 11971.730
985.372, 12214.602
986.627, 12594.733
987.882, 11324.707
989.136, 10604.822
990.390, 9656.169
991.644, 8819.168
992.898, 8709.446
994.152, 8679.694
995.405, 9193.039
996.659, 10435.388
997.912, 12320.811
999.165, 15393.688
1000.417, 20047.084
1001.670, 26640.775
1002.922, 34885.449
1004.174, 44797.707
1005.426, 50812.680
1006.678, 52668.141
1007.930, 47643.629
1009.181, 40117.141
1010.432, 31712.613
1011.683, 24491.168
1012.934, 19238.740
1014.185, 15125.436
1015.435, 12170.615
1016.685, 9915.988
1017.935, 8295.384
1019.185, 6908.704
1020.435, 6064.029
1021.684, 5285.932
1022.934, 4629.344
1024.183, 4163.052
1025.432, 3735.154
1026.680, 3393.900
1027.929, 3087.867
1029.177, 2866.076
1030.425, 2639.872
1031.673, 2497.680
1032.921, 2379.505
1034.169, 2237.248
1035.416, 2187.100
1036.663, 2087.968
1037.911, 2149.847
1039.157, 2074.739
1040.404, 2032.651
1041.650, 2002.575
1042.897, 1931.515
1044.143, 1885.468
1045.389, 1660.435
1046.634, 1590.427
1047.880, 1410.432
1049.125, 1280.451
1050.371, 1090.483
1051.615, 975.528
1052.860, 924.589
1054.105, 806.666
1055.349, 806.759
1056.593, 716.868
1057.837, 646.114
1059.081, 662.250
1060.325, 737.398
1061.568, 715.559
1062.812, 751.739
1064.055, 873.932
1065.298, 951.137
1066.540, 1142.356
1067.783, 1250.927
1069.025, 1611.173
1070.267, 2033.448
1071.509, 2626.720
1072.751, 2988.007
1073.993, 3379.304
1075.234, 3427.617
1076.475, 2995.941
1077.716, 2448.277
1078.957, 2017.624
1080.198, 1497.983
1081.438, 1126.354
1082.679, 968.736
1083.919, 767.158
1085.159, 644.582
1086.398, 522.000
1087.638, 439.430
1088.877, 377.870
1090.116, 327.430
1091.355, 310.790
1092.594, 293.268
1093.833, 250.812
1095.071, 267.312
1096.309, 243.171
1097.547, 256.692
1098.785, 246.270
1100.023, 256.134
1101.260, 285.590
1102.498, 285.256
1103.735, 298.399
1104.972, 318.178
1106.208, 301.583
1107.445, 270.178
1108.681, 314.890
1109.918, 251.693
1111.154, 327.136
1112.389, 353.820
1113.625, 489.750
1114.860, 515.530
1116.096, 575.227
1117.331, 830.065
1118.566, 1093.921
1119.800, 1479.982
1121.035, 2115.250
1122.269, 3078.163
1123.503, 4402.202
1124.737, 5910.140
1125.971, 6829.665
1127.205, 6696.460
1128.438, 5511.603
1129.671, 4144.724
1130.904, 3080.022
1132.137, 2192.127
1133.370, 1826.455
1134.602, 1377.528
1135.834, 1268.758
1137.066, 1186.893
1138.298, 1277.561
1139.530, 1417.580
1140.762, 1412.275
1141.993, 1515.450
1143.224, 1356.354
1144.455, 1141.741
1145.686, 911.154
1146.917, 766.251
1148.147, 511.295
1149.377, 479.228
1150.607, 375.936
1151.837, 223.637
1153.067, 223.401
1154.296, 183.617
1155.526, 139.367
1156.755, 129.355
1157.984, 114.705
1159.213, 40.429
1160.441, 15.984
1161.670, 48.154
1162.898, 19.317
1164.126, 70.003
1165.354, 39.158
1166.581, 113.520
1167.809, 132.754
1169.036, 113.890
1170.263, 76.592
1171.490, 128.118
1172.717, 139.148
1173.943, 155.550
1175.170, 65.759
1176.396, 79.936
1177.622, 98.514
1178.848, 159.652
1180.073, 111.732
1181.299, 135.604
1182.524, 83.214
1183.749, 143.793
1184.974, 114.957
1186.199, 162.107
1187.423, 161.506
1188.648, 99.631
1189.872, 127.355
1191.096, 77.677
1192.320, 117.018
1193.543, 83.723
1194.767, 41.076
1195.990, 50.539
1197.213, 29.701
1198.436, 27.911
1199.659, 45.351
1200.881, 93.541
1202.104, 9.458
1203.326, 15.125
1204.548, 9.599
1205.770, 121.636
1206.991, 64.583
1208.213, 53.738
1209.434, 43.321
1210.655, 27.457
1211.876, 45.444
1213.096, 30.962
1214.317, 15.851
1215.537, 49.224
1216.757, 0.128
1217.977, 76.727
1219.197, 40.230
1220.417, 44.253
1221.636, 49.539
1222.855, 26.508
1224.074, 27.373
1225.293, 83.353
1226.512, 35.235
1227.731, 51.094
1228.949, 18.969
1230.167, 11.223
1231.385, 14.990
1232.603, 22.944
1233.820, 31.240
1235.038, 45.131
1236.255, 43.728
1237.472, 65.681
1238.689, 37.013
1239.906, 16.712
1241.122, 77.398
1242.338, 7.800
1243.555, 48.872
1244.771, 24.519
1245.986, 29.220
1247.202, 0.749
1248.417, 16.001
1249.633, 44.402
1250.848, 0.177
1252.063, 47.068
1253.277, 17.519
1254.492, 24.071
1255.706, 5.652
1256.920, 12.842
1258.134, 41.647
1259.348, 0.808
1260.562, 25.530
1261.775, 49.058
1262.988, 18.470
1264.201, 17.871
1265.414, 49.772
1266.627, 4.458
1267.839, 13.910
1269.052, 15.584
1270.264, 14.671
1271.476, 37.936
1272.688, 9.727
1273.899, 30.569
1275.111, 2.654
1276.322, 0.016
1277.533, 12.179
1278.744, 0.870
1279.955, 14.903
1281.165, 3.905
1282.376, 11.004
1283.586, 66.009
1284.796, 23.105
1286.006, 49.231
1287.215, 15.730
1288.425, 77.553
1289.634, 10.534
1290.843, 6.281
1292.052, 40.017
1293.261, 19.267
1294.469, 103.422
1295.678, 3.221
1296.886, 3.891
1298.094, 3.570
1299.302, 35.156
1300.509, 43.288
1301.717, 30.770
1302.924, 4.286
1304.131, 25.830
1305.338, 6.835
1306.545, 52.981
1307.752, 16.351
1308.958, 23.700
1310.164, 64.025
1311.370, 1.672
1312.576, 48.606
1313.782, 72.857
1314.987, 21.916
1316.193, 19.277
1317.398, 26.552
1318.603, 29.581
1319.807, 60.691
1321.012, 68.777
1322.216, 18.159
1323.421, 79.871
1324.625, 6.877
1325.829, 47.857
1327.032, 63.814
1328.236, 21.749
1329.439, 73.655
1330.642, 76.538
1331.845, 2.398
1333.048, 82.229
1334.251, 18.039
1335.453, 43.824
1336.656, 41.584
1337.858, 17.638
1339.060, 40.065
1340.261, 30.743
1341.463, 69.398
1342.664, 57.104
1343.866, 32.638
1345.067, 8.223
1346.267, 14.658
1347.468, 22.317
1348.669, 47.834
1349.869, 52.226
1351.069, 112.694
1352.269, 62.144
1353.469, 1.569
1354.668, 63.968
1355.868, 98.346
1357.067, 28.704
1358.266, 55.040
1359.465, 72.016
1360.664, 23.312
1361.862, 131.591
1363.061, 28.847
1364.259, 78.169
1365.457, 41.385
1366.655, 87.581
1367.852, 110.759
1369.050, 84.384
1370.247, 105.528
1371.444, 109.657
1372.641, 103.869
1373.838, 42.967
1375.035, 140.023
1376.231, 79.074
1377.427, 150.807
1378.623, 104.846
1379.819, 45.773
1381.015, 71.667
1382.211, 36.529
1383.406, 129.271
1384.601, 146.898
1385.796, 97.508
1386.991, 124.712
1388.185, 136.224
1389.380, 114.682
1390.574, 54.895
1391.768, 97.543
1392.962, 156.045
1394.156, 166.132
1395.350, 83.583
1396.543, 133.475
1397.736, 117.560
1398.929, 111.997
1400.122, 186.361
1401.315, 152.844
1402.507, 105.709
1403.700, 132.692
1404.892, 157.609
1406.084, 155.665
1407.276, 167.752
1408.467, 143.467
1409.659, 115.371
1410.850, 96.291
1412.041, 61.120
1413.232, 131.189
1414.423, 74.925
1415.614, 171.196
1416.804, 129.226
1417.994, 76.426
1419.184, 120.495
1420.374, 106.657
1421.564, 156.920
1422.753, 144.640
1423.943, 115.527
1425.132, 63.015
1426.321, 86.525
1427.510, 150.783
1428.698, 126.812
1429.887, 61.560
1431.075, 106.908
1432.263, 62.442
1433.451, 78.568
1434.639, 106.630
1435.827, 121.869
1437.014, 92.687
1438.201, 50.482
1439.388, 72.544
1440.575, 64.415
1441.762, 94.322
1442.949, 98.433
1444.135, 105.375
1445.321, 129.600
1446.507, 116.297
1447.693, 129.822
1448.879, 169.677
1450.064, 135.125
1451.250, 138.639
1452.435, 109.324
1453.620, 81.618
1454.805, 80.035
1455.989, 159.233
1457.174, 90.497
1458.358, 196.653
1459.542, 99.993
1460.726, 145.339
1461.910, 169.297
1463.093, 118.063
1464.277, 151.004
1465.460, 172.868
1466.643, 77.649
1467.826, 212.613
1469.009, 109.507
1470.191, 153.504
1471.373, 88.763
1472.556, 146.312
1473.738, 192.266
1474.919, 91.069
1476.101, 122.114
1477.283, 192.142
1478.464, 102.782
1479.645, 44.889
1480.826, 78.611
1482.007, 127.213
1483.187, 139.332
1484.368, 141.020
1485.548, 99.826
1486.728, 117.975
1487.908, 68.155
1489.088, 64.355
1490.268, 48.568
1491.447, 43.157
1492.626, 49.972
1493.805, 48.214
1494.984, 95.470
1496.163, 89.760
1497.341, 78.077
1498.520, 116.425
1499.698, 106.804
1500.876, 55.226
1502.054, 93.715
1503.232, 42.250
1504.409, 106.834
1505.586, 26.245
1506.763, 86.959
1507.940, 53.760
1509.117, 55.633
1510.294, 16.466
1511.470, 98.352
1512.647, 129.436
1513.823, 27.642
1514.999, 91.966
1516.174, 106.422
1517.350, 112.783
1518.526, 0.433
1519.701, 66.257
1520.876, 44.968
1522.051, 48.797
1523.226, 86.066
1524.400, 84.325
1525.574, 23.172
1526.749, 43.750
1527.923, 34.004
1529.097, 0.000
##END=



