##NAMES=Vayrynenite
##RRUFFID=R050243
##IDEAL CHEMISTRY=Mn^2+^Be(PO_4_)OH
##LOCALITY=Viitaniemi pegmatite, Erajarvi, Orivesi, Finland
##OWNER=RRUFF
##SOURCE=Marcus Origlieri
##DESCRIPTION=Pink massive with defined cleavage planes
##STATUS=The identification of this mineral has been confirmed by X-ray diffraction and chemical analysis
##URL=rruff.info/R050243
##MEASURED CHEMISTRY=(Mn^2+^_0.95_Fe^2+^_0.05_)_Σ=1_Be_1.00_(P_1.00_O_4_)((OH)_0.94_F_0.06_)_Σ=1_ ; Be not measured but estimated by difference and charge balance.
##PIN_ID=M00264
##ORIENTATION=Laser parallel to (1 0 1). Fiducial mark perpendicular to laser is parallel to b [0 1 0]
77.333, 0.000
78.729, 3.297
80.125, 17.601
81.521, 28.946
82.916, 48.921
84.311, 200.966
85.706, 351.961
87.101, 615.548
88.496, 902.790
89.890, 1146.006
91.284, 1308.683
92.678, 1562.439
94.071, 1788.993
95.465, 1962.112
96.858, 1805.594
98.251, 1168.270
99.644, 625.993
101.036, 467.646
102.428, 342.120
103.820, 275.325
105.212, 285.186
106.604, 278.687
107.995, 385.847
109.387, 360.601
110.777, 356.879
112.168, 314.622
113.559, 359.779
114.949, 362.309
116.339, 542.175
117.729, 751.345
119.119, 949.791
120.508, 1132.483
121.897, 1147.426
123.286, 1212.587
124.675, 1468.925
126.063, 1483.431
127.452, 1356.101
128.840, 1085.919
130.228, 789.875
131.615, 536.962
133.003, 356.236
134.390, 228.042
135.777, 153.609
137.164, 140.653
138.550, 90.790
139.937, 93.943
141.323, 73.097
142.709, 77.259
144.094, 19.431
145.480, 87.616
146.865, 20.813
148.250, 18.025
149.635, 57.250
151.019, 87.491
152.403, 55.747
153.788, 51.019
155.171, 96.306
156.555, 143.609
157.939, 267.928
159.322, 301.264
160.705, 341.591
162.088, 469.848
163.470, 522.067
164.853, 625.629
166.235, 638.486
167.617, 677.815
168.998, 528.987
170.380, 520.171
171.761, 544.391
173.142, 546.655
174.523, 691.948
175.904, 967.398
177.284, 1375.746
178.664, 1892.115
180.044, 2387.508
181.424, 2708.924
182.803, 3254.364
184.183, 3653.827
185.562, 4153.316
186.940, 3967.828
188.319, 3235.962
189.698, 2276.887
191.076, 1555.538
192.454, 1033.760
193.831, 747.879
195.209, 538.370
196.586, 396.527
197.963, 348.568
199.340, 256.971
200.717, 294.942
202.093, 244.970
203.470, 283.076
204.846, 293.258
206.221, 290.498
207.597, 348.802
208.972, 443.127
210.347, 437.764
211.722, 498.844
213.097, 498.234
214.472, 511.644
215.846, 584.074
217.220, 612.524
218.594, 635.990
219.967, 598.471
221.341, 612.966
222.714, 583.476
224.087, 589.000
225.460, 508.539
226.832, 474.093
228.204, 572.661
229.577, 636.243
230.948, 587.839
232.320, 626.448
233.692, 620.070
235.063, 642.705
236.434, 514.353
237.805, 337.012
239.175, 207.683
240.545, 133.365
241.916, 39.058
243.286, 39.130
244.655, 6.468
246.025, 35.312
247.394, 18.444
248.763, 6.810
250.132, 4.630
251.501, 5.011
252.869, 15.033
254.237, 2.963
255.605, 3.928
256.973, 4.282
258.340, 83.583
259.708, 36.969
261.075, 115.429
262.442, 126.959
263.808, 120.869
265.175, 174.580
266.541, 127.286
267.907, 154.230
269.273, 119.075
270.639, 58.922
272.004, 1.345
273.369, 36.579
274.734, 24.557
276.099, 38.548
277.463, 31.569
278.828, 24.617
280.192, 103.692
281.556, 174.792
282.919, 198.914
284.283, 256.059
285.646, 245.224
287.009, 326.408
288.372, 274.611
289.734, 191.831
291.097, 227.068
292.459, 144.320
293.821, 48.588
295.183, 18.869
296.544, 42.835
297.905, 18.536
299.266, 76.232
300.627, 49.938
301.988, 39.650
303.348, 82.368
304.709, 111.100
306.069, 122.854
307.428, 105.633
308.788, 37.432
310.147, 60.237
311.507, 90.053
312.865, 5.887
314.224, 27.721
315.583, 5.441
316.941, 4.396
318.299, 9.232
319.657, 5.930
321.015, 19.094
322.372, 80.921
323.729, 136.214
325.086, 253.813
326.443, 235.196
327.800, 416.978
329.156, 493.631
330.512, 651.453
331.868, 801.301
333.224, 1003.234
334.579, 1270.818
335.935, 1377.109
337.290, 1581.302
338.645, 1596.225
339.999, 1765.698
341.354, 1549.900
342.708, 1410.106
344.062, 1334.324
345.416, 1260.547
346.769, 1347.776
348.123, 1459.011
349.476, 1488.251
350.829, 1608.501
352.182, 1761.742
353.534, 1696.962
354.887, 1656.150
356.239, 1442.297
357.591, 1288.405
358.942, 1058.477
360.294, 944.550
361.645, 841.625
362.996, 763.708
364.347, 731.807
365.698, 836.916
367.048, 920.053
368.398, 1049.196
369.748, 1210.352
371.098, 1506.511
372.448, 1929.673
373.797, 2372.846
375.146, 3053.025
376.495, 3510.208
377.844, 4131.394
379.192, 4595.580
380.540, 4780.768
381.889, 4890.959
383.236, 4286.151
384.584, 3755.342
385.932, 3148.533
387.279, 2557.723
388.626, 2044.913
389.973, 1682.102
391.319, 1344.290
392.666, 1094.477
394.012, 975.663
395.358, 853.848
396.704, 800.032
398.049, 783.214
399.394, 830.395
400.740, 934.573
402.084, 934.750
403.429, 1055.926
404.774, 974.099
406.118, 935.283
407.462, 931.476
408.806, 682.676
410.150, 508.881
411.493, 386.090
412.836, 347.209
414.179, 253.321
415.522, 217.172
416.865, 134.389
418.207, 179.519
419.549, 102.735
420.891, 101.951
422.233, 93.166
423.575, 67.379
424.916, 41.590
426.257, 1.205
427.598, 75.979
428.939, 16.160
430.279, 59.326
431.619, 130.488
432.959, 25.645
434.299, 70.717
435.639, 63.858
436.978, 120.993
438.318, 127.124
439.657, 133.250
440.996, 145.370
442.334, 161.649
443.673, 183.594
445.011, 224.697
446.349, 249.794
447.687, 332.074
449.024, 424.970
450.361, 567.048
451.699, 767.119
453.036, 942.183
454.372, 1228.240
455.709, 1587.291
457.045, 2154.334
458.381, 2651.260
459.717, 3287.299
461.053, 3724.446
462.388, 4107.905
463.724, 4048.845
465.059, 3753.530
466.394, 3108.610
467.728, 2270.998
469.063, 1703.296
470.397, 1210.177
471.731, 869.868
473.065, 578.900
474.398, 452.211
475.732, 244.457
477.065, 259.200
478.398, 95.505
479.731, 71.562
481.063, 77.261
482.396, 6.165
483.728, 26.055
485.060, 38.064
486.391, 21.779
487.723, 56.388
489.054, 12.427
490.385, 24.787
491.716, 8.081
493.047, 10.194
494.377, 20.375
495.708, 29.670
497.038, 104.027
498.368, 158.087
499.697, 250.003
501.027, 405.233
502.356, 527.377
503.685, 732.339
505.014, 862.937
506.342, 946.629
507.671, 926.634
508.999, 965.960
510.327, 757.087
511.655, 567.117
512.982, 498.571
514.310, 409.814
515.637, 405.788
516.964, 327.000
518.291, 329.312
519.617, 261.135
520.944, 330.686
522.270, 336.302
523.596, 322.908
524.921, 474.036
526.247, 583.829
527.572, 694.302
528.897, 908.370
530.222, 1259.728
531.547, 1849.497
532.871, 2540.350
534.196, 3379.064
535.520, 4123.433
536.844, 4850.070
538.167, 5466.148
539.491, 5257.017
540.814, 4324.232
542.137, 3276.690
543.460, 2347.135
544.783, 1571.583
546.105, 1158.018
547.427, 741.440
548.749, 584.850
550.071, 382.246
551.393, 317.628
552.714, 302.009
554.035, 235.376
555.356, 206.729
556.677, 209.068
557.998, 153.394
559.318, 158.705
560.638, 165.005
561.958, 122.294
563.278, 217.568
564.597, 172.828
565.917, 240.074
567.236, 251.305
568.555, 232.521
569.874, 346.724
571.192, 289.912
572.511, 351.100
573.829, 393.273
575.147, 326.433
576.464, 366.578
577.782, 385.708
579.099, 345.822
580.416, 425.920
581.733, 429.002
583.050, 455.067
584.366, 696.800
585.683, 706.775
586.999, 912.792
588.315, 1069.606
589.630, 1438.550
590.946, 2061.518
592.261, 2677.625
593.576, 3503.561
594.891, 4291.463
596.206, 4919.366
597.520, 5455.253
598.834, 5649.123
600.148, 5190.978
601.462, 4359.815
602.776, 3715.636
604.089, 3231.439
605.402, 2620.228
606.715, 2387.998
608.028, 2411.751
609.341, 2540.487
610.653, 3045.879
611.965, 3532.909
613.277, 4671.595
614.589, 5870.262
615.901, 7249.914
617.212, 8476.556
618.523, 9294.188
619.834, 8856.818
621.145, 7744.443
622.456, 6103.061
623.766, 4711.679
625.076, 3307.307
626.386, 2547.944
627.696, 1847.589
629.006, 1461.227
630.315, 989.860
631.624, 914.498
632.933, 673.121
634.242, 626.734
635.551, 599.332
636.859, 388.915
638.167, 347.483
639.475, 206.036
640.783, 314.910
642.090, 214.302
643.398, 179.373
644.705, 160.646
646.012, 147.505
647.318, 151.474
648.625, 122.257
649.931, 164.997
651.237, 123.637
652.543, 71.610
653.849, 45.861
655.155, 68.190
656.460, 86.534
657.765, 52.831
659.070, 59.144
660.375, 4.366
661.679, 31.046
662.984, 26.565
664.288, 14.858
665.592, 44.120
666.895, 7.607
668.199, 5.474
669.502, 44.250
670.805, 8.070
672.108, 100.670
673.411, 8.198
674.713, 10.895
676.016, 18.803
677.318, 30.106
678.620, 15.974
679.921, 16.080
681.223, 8.732
682.524, 64.011
683.825, 38.923
685.126, 3.836
686.427, 48.450
687.727, 106.458
689.028, 1.581
690.328, 30.207
691.628, 45.476
692.927, 132.851
694.227, 64.864
695.526, 83.367
696.825, 63.111
698.124, 224.468
699.423, 227.859
700.721, 259.715
702.020, 283.979
703.318, 349.318
704.616, 368.634
705.913, 400.774
707.211, 447.193
708.508, 377.650
709.805, 482.898
711.102, 369.927
712.399, 275.901
713.695, 452.065
714.992, 323.098
716.288, 408.567
717.584, 330.206
718.879, 442.083
720.175, 460.942
721.470, 552.093
722.765, 716.914
724.060, 739.769
725.355, 938.829
726.649, 1077.592
727.944, 1249.846
729.238, 1538.571
730.532, 1895.276
731.825, 1967.111
733.119, 2452.805
734.412, 2910.454
735.705, 3175.083
736.998, 3525.694
738.291, 3836.286
739.584, 4075.859
740.876, 4144.415
742.168, 3822.962
743.460, 3630.489
744.752, 3129.004
746.043, 2758.502
747.334, 2349.980
748.626, 2143.446
749.916, 1822.892
751.207, 1602.320
752.498, 1357.730
753.788, 1158.122
755.078, 1120.496
756.368, 976.852
757.658, 926.191
758.947, 899.511
760.237, 766.814
761.526, 847.100
762.815, 720.367
764.104, 735.618
765.392, 754.851
766.680, 842.065
767.969, 754.264
769.257, 721.451
770.544, 816.615
771.832, 610.762
773.119, 701.892
774.406, 634.005
775.693, 580.102
776.980, 430.181
778.267, 357.244
779.553, 412.289
780.839, 393.318
782.125, 321.330
783.411, 356.325
784.697, 316.912
785.982, 328.264
787.267, 291.208
788.552, 355.136
789.837, 351.047
791.122, 322.941
792.406, 414.818
793.690, 287.679
794.974, 480.523
796.258, 519.354
797.542, 458.171
798.825, 546.986
800.108, 498.786
801.391, 452.560
802.674, 423.337
803.957, 348.996
805.239, 342.771
806.522, 224.420
807.804, 205.083
809.085, 180.348
810.367, 135.187
811.649, 140.631
812.930, 130.740
814.211, 81.911
815.492, 89.238
816.772, 55.906
818.053, 102.454
819.333, 100.665
820.613, 91.320
821.893, 11.428
823.173, 78.676
824.452, 36.333
825.732, 41.176
827.011, 105.264
828.290, 86.091
829.568, 8.205
830.847, 57.960
832.125, 47.375
833.403, 39.701
834.681, 45.015
835.959, 98.217
837.236, 33.164
838.514, 6.822
839.791, 73.104
841.068, 4.716
842.345, 7.765
843.621, 10.078
844.898, 12.964
846.174, 31.688
847.450, 9.709
848.726, 9.803
850.001, 151.499
851.277, 30.791
852.552, 16.827
853.827, 60.146
855.102, 35.843
856.376, 11.825
857.651, 11.797
858.925, 47.762
860.199, 31.729
861.473, 46.308
862.746, 4.630
864.020, 51.567
865.293, 90.498
866.566, 7.422
867.839, 33.339
869.112, 9.751
870.384, 14.853
871.656, 72.033
872.928, 58.913
874.200, 3.213
875.472, 93.652
876.744, 35.513
878.015, 2.633
879.286, 60.213
880.557, 66.945
881.828, 126.860
883.098, 96.660
884.369, 6.456
885.639, 34.246
886.909, 50.031
888.178, 74.812
889.448, 163.589
890.717, 55.362
891.987, 216.132
893.256, 159.897
894.524, 189.660
895.793, 233.418
897.061, 280.174
898.330, 251.926
899.598, 243.676
900.865, 135.422
902.133, 223.167
903.401, 173.907
904.668, 99.646
905.935, 130.384
907.202, 190.120
908.468, 77.854
909.735, 78.584
911.001, 210.325
912.267, 117.063
913.533, 94.801
914.799, 36.537
916.064, 101.271
917.330, 106.004
918.595, 223.737
919.860, 20.469
921.124, 9.201
922.389, 145.932
923.653, 114.662
924.918, 207.393
926.182, 177.122
927.445, 236.851
928.709, 167.581
929.972, 148.309
931.236, 174.041
932.499, 205.771
933.761, 261.501
935.024, 255.231
936.286, 216.963
937.549, 306.696
938.811, 398.429
940.073, 200.163
941.334, 450.897
942.596, 314.632
943.857, 341.368
945.118, 423.107
946.379, 391.846
947.640, 365.587
948.900, 399.330
950.161, 412.073
951.421, 442.850
952.681, 475.579
953.940, 518.340
955.200, 620.103
956.459, 641.870
957.719, 642.639
958.978, 731.410
960.236, 841.186
961.495, 881.970
962.753, 1025.725
964.012, 1193.513
965.270, 1233.269
966.527, 1401.830
967.785, 1649.445
969.043, 1672.933
970.300, 1821.630
971.557, 1902.348
972.814, 2106.038
974.071, 2333.843
975.327, 2620.532
976.583, 3121.089
977.840, 3499.688
979.095, 4240.643
980.351, 4827.552
981.607, 5339.249
982.862, 6254.102
984.117, 6690.924
985.372, 6994.745
986.627, 7352.621
987.882, 6711.045
989.136, 6734.751
990.390, 6331.150
991.644, 6096.477
992.898, 6612.063
994.152, 6982.521
995.405, 8004.452
996.659, 9362.722
997.912, 11506.881
999.165, 14934.390
1000.417, 19619.416
1001.670, 26469.182
1002.922, 34552.695
1004.174, 44620.957
1005.426, 50055.707
1006.678, 51375.469
1007.930, 45986.602
1009.181, 38138.742
1010.432, 30245.273
1011.683, 23292.596
1012.934, 18273.510
1014.185, 14251.261
1015.435, 11466.749
1016.685, 9322.172
1017.935, 7783.518
1019.185, 6641.854
1020.435, 5889.739
1021.684, 5070.440
1022.934, 4320.012
1024.183, 4122.468
1025.432, 3667.618
1026.680, 3415.085
1027.929, 3253.505
1029.177, 2793.706
1030.425, 2828.193
1031.673, 2563.176
1032.921, 2734.681
1034.169, 2579.207
1035.416, 2481.593
1036.663, 2437.118
1037.911, 2701.675
1039.157, 2756.240
1040.404, 2912.813
1041.650, 3118.404
1042.897, 3054.017
1044.143, 3187.635
1045.389, 2762.280
1046.634, 2675.932
1047.880, 2473.586
1049.125, 2194.249
1050.371, 1774.916
1051.615, 1510.588
1052.860, 1526.266
1054.105, 1210.163
1055.349, 1245.125
1056.593, 1143.816
1057.837, 1072.638
1059.081, 993.335
1060.325, 1093.526
1061.568, 1156.281
1062.812, 1176.167
1064.055, 1421.880
1065.298, 1573.595
1066.540, 1891.732
1067.783, 2298.454
1069.025, 2834.347
1070.267, 3609.464
1071.509, 4955.331
1072.751, 5634.063
1073.993, 6459.070
1075.234, 6599.846
1076.475, 5885.712
1077.716, 4708.828
1078.957, 3770.573
1080.198, 2811.835
1081.438, 2138.612
1082.679, 1629.363
1083.919, 1291.161
1085.159, 1033.466
1086.398, 837.398
1087.638, 672.157
1088.877, 551.236
1090.116, 452.039
1091.355, 388.948
1092.594, 373.002
1093.833, 379.234
1095.071, 352.997
1096.309, 343.558
1097.547, 235.167
1098.785, 290.933
1100.023, 277.055
1101.260, 210.930
1102.498, 240.957
1103.735, 350.830
1104.972, 184.126
1106.208, 286.322
1107.445, 171.327
1108.681, 212.613
1109.918, 50.361
1111.154, 191.531
1112.389, 41.618
1113.625, 170.371
1114.860, 102.772
1116.096, 146.796
1117.331, 247.671
1118.566, 256.171
1119.800, 310.089
1121.035, 453.250
1122.269, 729.422
1123.503, 896.695
1124.737, 1252.678
1125.971, 1503.457
1127.205, 1355.841
1128.438, 1135.383
1129.671, 788.611
1130.904, 694.775
1132.137, 362.012
1133.370, 433.985
1134.602, 345.342
1135.834, 295.543
1137.066, 369.712
1138.298, 319.688
1139.530, 500.841
1140.762, 340.954
1141.993, 397.233
1143.224, 300.622
1144.455, 234.792
1145.686, 101.055
1146.917, 86.373
1148.147, 95.989
1149.377, 116.365
1150.607, 63.509
1151.837, 2.837
1153.067, 1.373
1154.296, 18.641
1155.526, 50.506
1156.755, 54.639
1157.984, 57.000
1159.213, 31.793
1160.441, 33.537
1161.670, 42.358
1162.898, 18.276
1164.126, 55.783
1165.354, 15.699
1166.581, 77.364
1167.809, 91.135
1169.036, 134.018
1170.263, 21.119
1171.490, 173.174
1172.717, 101.368
1173.943, 242.247
1175.170, 145.420
1176.396, 176.489
1177.622, 208.523
1178.848, 286.580
1180.073, 360.728
1181.299, 303.257
1182.524, 528.705
1183.749, 572.232
1184.974, 576.916
1186.199, 717.453
1187.423, 643.777
1188.648, 596.395
1189.872, 512.028
1191.096, 451.479
1192.320, 342.772
1193.543, 320.311
1194.767, 255.751
1195.990, 187.234
1197.213, 190.094
1198.436, 175.487
1199.659, 144.607
1200.881, 47.169
1202.104, 34.291
1203.326, 197.539
1204.548, 71.655
1205.770, 240.935
1206.991, 37.015
1208.213, 93.353
1209.434, 63.955
1210.655, 110.261
1211.876, 132.735
1213.096, 9.868
1214.317, 121.009
1215.537, 72.440
1216.757, 20.460
1217.977, 80.316
1219.197, 123.349
1220.417, 51.490
1221.636, 108.594
1222.855, 88.806
1224.074, 30.650
1225.293, 149.742
1226.512, 3.822
1227.731, 116.531
1228.949, 139.412
1230.167, 114.595
1231.385, 4.210
1232.603, 85.065
1233.820, 233.955
1235.038, 52.861
1236.255, 120.416
1237.472, 95.945
1238.689, 62.929
1239.906, 21.385
1241.122, 165.899
1242.338, 29.647
1243.555, 89.272
1244.771, 164.959
1245.986, 53.578
1247.202, 32.899
1248.417, 78.449
1249.633, 115.724
1250.848, 21.967
1252.063, 40.323
1253.277, 86.521
1254.492, 25.697
1255.706, 3.839
1256.920, 48.956
1258.134, 0.951
1259.348, 170.083
1260.562, 16.096
1261.775, 86.085
1262.988, 122.176
1264.201, 13.086
1265.414, 28.030
1266.627, 54.816
1267.839, 52.621
1269.052, 36.373
1270.264, 100.098
1271.476, 8.784
1272.688, 33.536
1273.899, 35.813
1275.111, 43.727
1276.322, 57.228
1277.533, 43.702
1278.744, 102.150
1279.955, 29.571
1281.165, 28.938
1282.376, 60.409
1283.586, 40.274
1284.796, 65.988
1286.006, 79.195
1287.215, 46.356
1288.425, 33.479
1289.634, 63.527
1290.843, 27.489
1292.052, 42.450
1293.261, 64.647
1294.469, 35.198
1295.678, 80.008
1296.886, 18.587
1298.094, 52.993
1299.302, 7.420
1300.509, 10.305
1301.717, 63.319
1302.924, 33.909
1304.131, 46.255
1305.338, 14.308
1306.545, 44.995
1307.752, 6.142
1308.958, 17.159
1310.164, 83.529
1311.370, 140.738
1312.576, 113.343
1313.782, 84.313
1314.987, 44.552
1316.193, 48.631
1317.398, 32.646
1318.603, 74.926
1319.807, 33.022
1321.012, 42.085
1322.216, 45.115
1323.421, 41.109
1324.625, 1.070
1325.829, 37.010
1327.032, 16.862
1328.236, 21.303
1329.439, 96.489
1330.642, 13.248
1331.845, 19.968
1333.048, 23.347
1334.251, 39.706
1335.453, 133.885
1336.656, 66.558
1337.858, 104.945
1339.060, 124.417
1340.261, 18.860
1341.463, 83.271
1342.664, 72.651
1343.866, 37.003
1345.067, 105.322
1346.267, 42.398
1347.468, 139.386
1348.669, 166.618
1349.869, 122.697
1351.069, 283.876
1352.269, 85.535
1353.469, 45.685
1354.668, 90.601
1355.868, 91.670
1357.067, 76.713
1358.266, 115.132
1359.465, 54.304
1360.664, 134.104
1361.862, 167.858
1363.061, 120.637
1364.259, 89.599
1365.457, 95.270
1366.655, 66.854
1367.852, 146.791
1369.050, 82.229
1370.247, 80.021
1371.444, 162.276
1372.641, 116.104
1373.838, 54.839
1375.035, 180.504
1376.231, 105.647
1377.427, 92.269
1378.623, 82.858
1379.819, 161.105
1381.015, 163.649
1382.211, 61.004
1383.406, 202.167
1384.601, 148.909
1385.796, 87.015
1386.991, 109.396
1388.185, 91.556
1389.380, 98.869
1390.574, 118.491
1391.768, 152.794
1392.962, 166.246
1394.156, 218.981
1395.350, 135.729
1396.543, 230.853
1397.736, 225.968
1398.929, 169.069
1400.122, 196.961
1401.315, 242.442
1402.507, 244.928
1403.700, 184.605
1404.892, 300.420
1406.084, 125.291
1407.276, 181.398
1408.467, 199.944
1409.659, 250.956
1410.850, 253.437
1412.041, 217.980
1413.232, 214.879
1414.423, 227.744
1415.614, 128.903
1416.804, 108.447
1417.994, 287.323
1419.184, 187.857
1420.374, 248.025
1421.564, 179.360
1422.753, 245.862
1423.943, 109.874
1425.132, 253.015
1426.321, 237.937
1427.510, 183.194
1428.698, 231.353
1429.887, 198.744
1431.075, 221.844
1432.263, 150.835
1433.451, 194.647
1434.639, 108.754
1435.827, 244.377
1437.014, 121.339
1438.201, 191.527
1439.388, 253.851
1440.575, 281.054
1441.762, 259.003
1442.949, 175.363
1444.135, 262.718
1445.321, 301.882
1446.507, 272.785
1447.693, 335.860
1448.879, 265.039
1450.064, 253.774
1451.250, 212.313
1452.435, 307.244
1453.620, 264.010
1454.805, 327.058
1455.989, 326.746
1457.174, 235.227
1458.358, 406.641
1459.542, 352.897
1460.726, 353.726
1461.910, 279.980
1463.093, 306.869
1464.277, 331.967
1465.460, 199.985
1466.643, 260.044
1467.826, 317.708
1469.009, 255.712
1470.191, 365.660
1471.373, 205.696
1472.556, 300.656
1473.738, 331.406
1474.919, 368.494
1476.101, 165.500
1477.283, 384.169
1478.464, 190.076
1479.645, 181.141
1480.826, 134.379
1482.007, 249.914
1483.187, 170.468
1484.368, 436.025
1485.548, 192.558
1486.728, 212.099
1487.908, 289.643
1489.088, 187.193
1490.268, 159.771
1491.447, 430.378
1492.626, 151.024
1493.805, 167.707
1494.984, 42.474
1496.163, 213.283
1497.341, 226.146
1498.520, 161.074
1499.698, 129.078
1500.876, 114.158
1502.054, 91.586
1503.232, 15.616
1504.409, 63.021
1505.586, 45.528
1506.763, 13.877
1507.940, 119.819
1509.117, 91.636
1510.294, 118.590
1511.470, 90.698
1512.647, 115.313
1513.823, 43.730
1514.999, 220.353
1516.174, 109.917
1517.350, 153.943
1518.526, 26.912
1519.701, 131.101
1520.876, 104.935
1522.051, 4.117
1523.226, 203.737
1524.400, 184.460
1525.574, 178.771
1526.749, 6.296
1527.923, 0.000
##END=



