##NAMES=Vayrynenite
##RRUFFID=R050243
##IDEAL CHEMISTRY=Mn^2+^Be(PO_4_)OH
##LOCALITY=Viitaniemi pegmatite, Erajarvi, Orivesi, Finland
##OWNER=RRUFF
##SOURCE=Marcus Origlieri
##DESCRIPTION=Pink massive with defined cleavage planes
##STATUS=The identification of this mineral has been confirmed by X-ray diffraction and chemical analysis
##URL=rruff.info/R050243
##MEASURED CHEMISTRY=(Mn^2+^_0.95_Fe^2+^_0.05_)_Σ=1_Be_1.00_(P_1.00_O_4_)((OH)_0.94_F_0.06_)_Σ=1_ ; Be not measured but estimated by difference and charge balance.
##PIN_ID=M00427
##ORIENTATION=Laser parallel to b* (0 1 0). Fiducial mark perpendicular to laser is parallel to c [0 0 1]
56.365, 0.000
57.765, 40.374
59.164, 33.162
60.563, 21.409
61.962, 7.584
63.360, 10.797
64.758, 1.902
66.157, 4.366
67.554, 34.885
68.952, 48.446
70.349, 117.990
71.747, 156.253
73.144, 243.027
74.540, 319.147
75.937, 398.474
77.333, 476.884
78.729, 586.271
80.125, 622.539
81.521, 731.601
82.916, 852.383
84.311, 1013.823
85.706, 1108.866
87.101, 1266.467
88.496, 1526.614
89.890, 1819.289
91.284, 2165.451
92.678, 2801.062
94.071, 3738.091
95.465, 4456.508
96.858, 3666.287
98.251, 2230.406
99.644, 1553.836
101.036, 1259.545
102.428, 1130.510
103.820, 1112.713
105.212, 1115.139
106.604, 1099.774
107.995, 1126.610
109.387, 1138.635
110.777, 1122.847
112.168, 1108.239
113.559, 1098.804
114.949, 1140.537
116.339, 1216.429
117.729, 1385.547
119.119, 1558.111
120.508, 1795.997
121.897, 2118.074
123.286, 2506.264
124.675, 3087.551
126.063, 3050.938
127.452, 2654.427
128.840, 2021.019
130.228, 1466.710
131.615, 1138.498
133.003, 885.380
134.390, 787.355
135.777, 717.421
137.164, 633.575
138.550, 620.816
139.937, 626.114
141.323, 637.383
142.709, 559.632
144.094, 540.874
145.480, 550.126
146.865, 497.398
148.250, 534.697
149.635, 531.028
151.019, 481.397
152.403, 499.807
153.788, 471.261
155.171, 490.762
156.555, 481.311
157.939, 536.912
159.322, 613.565
160.705, 606.270
162.088, 783.061
163.470, 854.953
164.853, 1063.919
166.235, 1097.948
167.617, 1031.041
168.998, 877.186
170.380, 741.382
171.761, 732.628
173.142, 772.925
174.523, 880.272
175.904, 1017.669
177.284, 1335.625
178.664, 1721.522
180.044, 2210.497
181.424, 2839.156
182.803, 3875.710
184.183, 5238.664
185.562, 5849.455
186.940, 4773.942
188.319, 3141.001
189.698, 1903.585
191.076, 1287.252
192.454, 973.029
193.831, 696.890
195.209, 634.860
196.586, 573.933
197.963, 553.086
199.340, 465.279
200.717, 431.511
202.093, 400.781
203.470, 410.087
204.846, 419.429
206.221, 480.807
207.597, 486.221
208.972, 549.672
210.347, 615.159
211.722, 567.684
213.097, 649.245
214.472, 717.844
215.846, 725.479
217.220, 772.151
218.594, 790.860
219.967, 859.604
221.341, 849.384
222.714, 770.192
224.087, 663.014
225.460, 535.827
226.832, 496.938
228.204, 483.690
229.577, 469.191
230.948, 529.839
232.320, 647.623
233.692, 765.590
235.063, 746.687
236.434, 576.905
237.805, 384.237
239.175, 229.673
240.545, 206.209
241.916, 133.839
243.286, 182.556
244.655, 131.357
246.025, 143.238
247.394, 111.195
248.763, 106.223
250.132, 89.321
251.501, 71.485
252.869, 84.269
254.237, 86.550
255.605, 122.349
256.973, 136.753
258.340, 185.279
259.708, 252.789
261.075, 293.350
262.442, 381.959
263.808, 397.616
265.175, 479.458
266.541, 484.314
267.907, 466.075
269.273, 343.496
270.639, 227.408
272.004, 208.715
273.369, 107.666
274.734, 99.794
276.099, 86.989
277.463, 150.089
278.828, 152.186
280.192, 215.318
281.556, 250.483
282.919, 325.681
284.283, 432.911
285.646, 494.169
287.009, 513.456
288.372, 478.770
289.734, 411.112
291.097, 333.480
292.459, 159.875
293.821, 41.296
295.183, 12.743
296.544, 20.786
297.905, 42.292
299.266, 76.779
300.627, 92.252
301.988, 85.715
303.348, 114.167
304.709, 33.614
306.069, 47.042
307.428, 66.452
308.788, 18.849
310.147, 56.224
311.507, 43.584
312.865, 29.927
314.224, 7.749
315.583, 4.448
316.941, 19.832
318.299, 43.909
319.657, 3.672
321.015, 68.631
322.372, 74.236
323.729, 151.272
325.086, 247.551
326.443, 332.752
327.800, 405.695
329.156, 561.289
330.512, 784.799
331.868, 896.123
333.224, 1247.775
334.579, 1400.237
335.935, 1748.146
337.290, 1899.171
338.645, 2028.201
339.999, 1813.248
341.354, 1452.309
342.708, 1221.367
344.062, 1036.410
345.416, 992.441
346.769, 982.476
348.123, 1028.523
349.476, 1221.597
350.829, 1381.694
352.182, 1510.818
353.534, 1499.297
354.887, 1568.165
356.239, 1320.392
357.591, 1102.642
358.942, 854.926
360.294, 774.246
361.645, 656.597
362.996, 671.970
364.347, 651.379
365.698, 746.810
367.048, 760.264
368.398, 923.745
369.748, 1110.263
371.098, 1390.797
372.448, 1778.347
373.797, 2283.913
375.146, 2873.510
376.495, 3603.120
377.844, 4503.741
379.192, 5233.375
380.540, 5425.021
381.889, 5328.677
383.236, 4619.343
384.584, 3857.020
385.932, 3095.721
387.279, 2429.445
388.626, 1902.193
389.973, 1543.963
391.319, 1219.757
392.666, 1003.572
394.012, 826.814
395.358, 745.259
396.704, 700.130
398.049, 726.019
399.394, 859.923
400.740, 1100.844
402.084, 1057.781
403.429, 1161.733
404.774, 1300.699
406.118, 1235.680
407.462, 1147.674
408.806, 821.681
410.150, 579.701
411.493, 463.733
412.836, 359.778
414.179, 316.834
415.522, 240.901
416.865, 98.979
418.207, 133.068
419.549, 16.167
420.891, 36.275
422.233, 53.393
423.575, 41.520
424.916, 24.655
426.257, 9.200
427.598, 28.059
428.939, 4.928
430.279, 36.800
431.619, 22.313
432.959, 9.432
434.299, 41.554
435.639, 6.317
436.978, 17.807
438.318, 24.935
439.657, 68.069
440.996, 38.208
442.334, 88.354
443.673, 72.505
445.011, 111.661
446.349, 154.822
447.687, 264.988
449.024, 342.159
450.361, 380.334
451.699, 550.513
453.036, 713.697
454.372, 963.884
455.709, 1294.075
457.045, 1816.269
458.381, 2212.095
459.717, 2985.299
461.053, 3517.235
462.388, 4008.509
463.724, 4015.044
465.059, 3645.318
466.394, 2859.773
467.728, 1941.780
469.063, 1320.057
470.397, 995.914
471.731, 646.557
473.065, 390.654
474.398, 279.193
475.732, 184.423
477.065, 137.655
478.398, 51.473
479.731, 69.708
481.063, 14.943
482.396, 0.823
483.728, 62.596
485.060, 30.407
486.391, 28.239
487.723, 23.908
489.054, 68.946
490.385, 31.842
491.716, 27.762
493.047, 50.703
494.377, 10.678
495.708, 36.668
497.038, 31.351
498.368, 138.421
499.697, 151.496
501.027, 189.702
502.356, 457.002
503.685, 598.466
505.014, 778.530
506.342, 1017.823
507.671, 1051.841
508.999, 1045.773
510.327, 805.486
511.655, 671.546
512.982, 502.134
514.310, 446.044
515.637, 439.936
516.964, 394.807
518.291, 434.377
519.617, 334.650
520.944, 443.713
522.270, 346.867
523.596, 356.321
524.921, 391.365
526.247, 532.980
527.572, 703.106
528.897, 903.140
530.222, 1218.993
531.547, 1739.960
532.871, 2425.193
534.196, 3395.334
535.520, 4591.076
536.844, 5740.139
538.167, 6634.504
539.491, 6100.704
540.814, 4689.880
542.137, 3147.839
543.460, 2094.789
544.783, 1502.728
546.105, 1005.657
547.427, 701.576
548.749, 607.485
550.071, 401.384
551.393, 284.271
552.714, 268.148
554.035, 316.013
555.356, 238.866
556.677, 201.709
557.998, 220.547
559.318, 207.374
560.638, 248.190
561.958, 234.995
563.278, 295.792
564.597, 308.576
565.917, 406.348
567.236, 467.107
568.555, 600.858
569.874, 680.605
571.192, 732.338
572.511, 743.060
573.829, 792.768
575.147, 740.462
576.464, 603.142
577.782, 609.809
579.099, 575.393
580.416, 464.031
581.733, 471.654
583.050, 583.264
584.366, 684.858
585.683, 681.298
586.999, 898.754
588.315, 1014.333
589.630, 1257.279
590.946, 1688.760
592.261, 2273.871
593.576, 3004.363
594.891, 3963.699
596.206, 5210.992
597.520, 6067.398
598.834, 6330.830
600.148, 5706.246
601.462, 4675.648
602.776, 3863.037
604.089, 3145.409
605.402, 2607.765
606.715, 2324.105
608.028, 2234.429
609.341, 2456.737
610.653, 2745.030
611.965, 3357.305
613.277, 4511.565
614.589, 5899.808
615.901, 7720.034
617.212, 9526.244
618.523, 10698.446
619.834, 10198.642
621.145, 8247.829
622.456, 6078.015
623.766, 4360.200
625.076, 3051.371
626.386, 2393.532
627.696, 1740.684
629.006, 1401.821
630.315, 1077.947
631.624, 977.061
632.933, 651.161
634.242, 653.243
635.551, 554.308
636.859, 499.356
638.167, 445.387
639.475, 411.226
640.783, 419.421
642.090, 383.188
643.398, 306.715
644.705, 264.322
646.012, 329.188
647.318, 220.406
648.625, 225.708
649.931, 186.197
651.237, 153.359
652.543, 166.710
653.849, 113.615
655.155, 103.008
656.460, 102.932
657.765, 88.702
659.070, 81.621
660.375, 71.263
661.679, 108.379
662.984, 34.138
664.288, 12.944
665.592, 35.616
666.895, 21.235
668.199, 4.878
669.502, 29.222
670.805, 2.483
672.108, 49.570
673.411, 18.830
674.713, 28.635
676.016, 38.827
677.318, 19.680
678.620, 12.650
679.921, 42.147
681.223, 16.633
682.524, 4.468
683.825, 2.481
685.126, 48.654
686.427, 61.385
687.727, 55.961
689.028, 46.821
690.328, 16.726
691.628, 72.844
692.927, 140.213
694.227, 101.302
695.526, 117.040
696.825, 119.209
698.124, 214.800
699.423, 209.421
700.721, 300.000
702.020, 296.474
703.318, 454.928
704.616, 484.427
705.913, 568.841
707.211, 520.236
708.508, 502.610
709.805, 546.965
711.102, 431.301
712.399, 299.616
713.695, 405.610
714.992, 308.887
716.288, 376.494
717.584, 419.732
718.879, 400.994
720.175, 424.192
721.470, 555.384
722.765, 670.543
724.060, 714.734
725.355, 859.622
726.649, 1035.799
727.944, 1165.089
729.238, 1354.150
730.532, 1738.193
731.825, 1853.215
733.119, 2454.218
734.412, 2756.202
735.705, 3115.167
736.998, 3579.113
738.291, 3823.040
739.584, 3982.947
740.876, 4016.836
742.168, 3763.711
743.460, 3406.577
744.752, 2979.430
746.043, 2636.274
747.334, 2276.101
748.626, 1968.911
749.916, 1617.703
751.207, 1364.481
752.498, 1219.243
753.788, 1079.985
755.078, 990.711
756.368, 852.058
757.658, 832.747
758.947, 744.417
760.237, 639.069
761.526, 668.704
762.815, 534.319
764.104, 571.917
765.392, 571.499
766.680, 520.062
767.969, 575.607
769.257, 529.134
770.544, 571.645
771.832, 488.138
773.119, 462.613
774.406, 436.071
775.693, 378.512
776.980, 415.936
778.267, 300.342
779.553, 344.732
780.839, 303.104
782.125, 353.459
783.411, 318.798
784.697, 362.119
785.982, 309.424
787.267, 301.712
788.552, 307.982
789.837, 370.237
791.122, 339.476
792.406, 397.698
793.690, 345.903
794.974, 402.094
796.258, 333.273
797.542, 391.456
798.825, 454.633
800.108, 475.806
801.391, 460.963
802.674, 328.125
803.957, 337.284
805.239, 205.438
806.522, 159.593
807.804, 240.741
809.085, 36.849
810.367, 99.888
811.649, 131.906
812.930, 90.777
814.211, 68.536
815.492, 114.114
816.772, 10.076
818.053, 91.789
819.333, 16.760
820.613, 53.796
821.893, 15.964
823.173, 72.900
824.452, 41.221
825.732, 6.798
827.011, 79.177
828.290, 37.157
829.568, 28.579
830.847, 199.954
832.125, 28.682
833.403, 47.301
834.681, 38.397
835.959, 8.713
837.236, 45.622
838.514, 12.071
839.791, 3.550
841.068, 12.665
842.345, 50.015
843.621, 28.662
844.898, 48.988
846.174, 14.449
847.450, 58.999
848.726, 11.117
850.001, 12.619
851.277, 33.647
852.552, 20.122
853.827, 24.588
855.102, 70.049
856.376, 101.507
857.651, 25.977
858.925, 134.446
860.199, 224.912
861.473, 103.371
862.746, 102.839
864.020, 38.303
865.293, 183.761
866.566, 37.786
867.839, 100.646
869.112, 8.928
870.384, 50.491
871.656, 28.097
872.928, 60.302
874.200, 24.696
875.472, 53.086
876.744, 29.529
878.015, 43.158
879.286, 5.192
880.557, 5.462
881.828, 69.877
883.098, 37.213
884.369, 113.545
885.639, 67.875
886.909, 84.200
888.178, 82.522
889.448, 52.842
890.717, 93.159
891.987, 133.473
893.256, 120.785
894.524, 139.094
895.793, 182.402
897.061, 107.707
898.330, 156.009
899.598, 173.310
900.865, 166.609
902.133, 162.906
903.401, 121.201
904.668, 126.495
905.935, 55.791
907.202, 35.086
908.468, 25.619
909.735, 71.667
911.001, 67.965
912.267, 131.260
913.533, 46.555
914.799, 37.849
916.064, 90.147
917.330, 33.446
918.595, 192.745
919.860, 128.043
921.124, 26.344
922.389, 134.644
923.653, 105.943
924.918, 108.244
926.182, 81.543
927.445, 168.844
928.709, 200.146
929.972, 186.449
931.236, 245.758
932.499, 179.070
933.761, 207.385
935.024, 300.700
936.286, 205.018
937.549, 250.336
938.811, 381.656
940.073, 323.995
941.334, 323.351
942.596, 336.708
943.857, 362.068
945.118, 390.431
946.379, 387.795
947.640, 329.164
948.900, 369.372
950.161, 500.907
951.421, 431.283
952.681, 484.663
953.940, 589.044
955.200, 610.429
956.459, 779.816
957.719, 1065.940
958.978, 990.566
960.236, 1091.413
961.495, 990.865
962.753, 1117.151
964.012, 1190.579
965.270, 1342.840
966.527, 1514.018
967.785, 1667.396
969.043, 1733.770
970.300, 1810.079
971.557, 1961.731
972.814, 2134.938
974.071, 2456.084
975.327, 2677.436
976.583, 3044.671
977.840, 3641.704
979.095, 4236.210
980.351, 4881.571
981.607, 5684.631
982.862, 6503.318
984.117, 7219.792
985.372, 7406.368
986.627, 7651.329
987.882, 6948.214
989.136, 6685.856
990.390, 6301.697
991.644, 6150.287
992.898, 6483.322
994.152, 6948.060
995.405, 7913.185
996.659, 9253.163
997.912, 11339.323
999.165, 14902.754
1000.417, 19514.518
1001.670, 26749.842
1002.922, 35685.883
1004.174, 46817.715
1005.426, 53800.621
1006.678, 55211.625
1007.930, 48962.547
1009.181, 39465.090
1010.432, 30330.289
1011.683, 23101.312
1012.934, 17968.777
1014.185, 14203.816
1015.435, 11417.934
1016.685, 9433.994
1017.935, 7907.366
1019.185, 6769.439
1020.435, 5768.177
1021.684, 5207.272
1022.934, 4552.406
1024.183, 4268.514
1025.432, 3774.615
1026.680, 3412.735
1027.929, 3204.812
1029.177, 2918.176
1030.425, 2901.238
1031.673, 2646.172
1032.921, 2677.327
1034.169, 2560.492
1035.416, 2516.687
1036.663, 2533.513
1037.911, 2584.619
1039.157, 2586.306
1040.404, 2795.534
1041.650, 2902.796
1042.897, 2989.065
1044.143, 2948.340
1045.389, 2665.621
1046.634, 2475.907
1047.880, 2353.198
1049.125, 1911.496
1050.371, 1744.799
1051.615, 1469.110
1052.860, 1436.428
1054.105, 1188.837
1055.349, 1230.828
1056.593, 1112.162
1057.837, 994.819
1059.081, 1002.522
1060.325, 1068.175
1061.568, 1107.529
1062.812, 1167.926
1064.055, 1275.330
1065.298, 1354.641
1066.540, 1654.330
1067.783, 2226.703
1069.025, 2698.335
1070.267, 3401.991
1071.509, 4494.385
1072.751, 5418.784
1073.993, 6389.188
1075.234, 6544.600
1076.475, 5610.093
1077.716, 4466.628
1078.957, 3319.293
1080.198, 2467.983
1081.438, 1706.722
1082.679, 1531.584
1083.919, 1088.010
1085.159, 887.763
1086.398, 682.290
1087.638, 625.766
1088.877, 526.187
1090.116, 504.163
1091.355, 399.783
1092.594, 311.534
1093.833, 302.089
1095.071, 305.609
1096.309, 240.569
1097.547, 262.195
1098.785, 235.668
1100.023, 293.511
1101.260, 244.296
1102.498, 267.743
1103.735, 345.522
1104.972, 262.145
1106.208, 274.445
1107.445, 201.698
1108.681, 197.618
1109.918, 207.944
1111.154, 281.549
1112.389, 164.232
1113.625, 271.800
1114.860, 273.361
1116.096, 276.104
1117.331, 338.360
1118.566, 367.841
1119.800, 509.482
1121.035, 737.288
1122.269, 1053.884
1123.503, 1498.826
1124.737, 1937.429
1125.971, 2287.238
1127.205, 2168.802
1128.438, 1661.034
1129.671, 1149.297
1130.904, 817.989
1132.137, 510.582
1133.370, 408.129
1134.602, 353.997
1135.834, 304.958
1137.066, 223.611
1138.298, 350.482
1139.530, 407.729
1140.762, 331.673
1141.993, 390.947
1143.224, 201.818
1144.455, 199.212
1145.686, 82.087
1146.917, 42.932
1148.147, 70.813
1149.377, 31.662
1150.607, 37.356
1151.837, 23.513
1153.067, 6.340
1154.296, 33.543
1155.526, 86.087
1156.755, 43.848
1157.984, 4.524
1159.213, 32.139
1160.441, 74.065
1161.670, 60.918
1162.898, 9.500
1164.126, 76.396
1165.354, 61.934
1166.581, 115.282
1167.809, 95.234
1169.036, 82.849
1170.263, 17.577
1171.490, 212.073
1172.717, 119.843
1173.943, 164.411
1175.170, 170.110
1176.396, 161.583
1177.622, 117.034
1178.848, 184.559
1180.073, 321.042
1181.299, 256.445
1182.524, 376.436
1183.749, 312.126
1184.974, 361.389
1186.199, 427.522
1187.423, 353.653
1188.648, 337.716
1189.872, 291.313
1191.096, 223.747
1192.320, 160.220
1193.543, 147.649
1194.767, 188.945
1195.990, 179.354
1197.213, 164.817
1198.436, 75.502
1199.659, 136.124
1200.881, 55.615
1202.104, 6.957
1203.326, 95.322
1204.548, 3.560
1205.770, 92.710
1206.991, 33.116
1208.213, 100.125
1209.434, 74.214
1210.655, 74.290
1211.876, 9.784
1213.096, 10.181
1214.317, 90.957
1215.537, 30.898
1216.757, 26.671
1217.977, 91.677
1219.197, 99.214
1220.417, 97.916
1221.636, 92.892
1222.855, 75.861
1224.074, 67.516
1225.293, 38.218
1226.512, 9.975
1227.731, 23.671
1228.949, 5.636
1230.167, 103.135
1231.385, 24.707
1232.603, 80.297
1233.820, 93.796
1235.038, 50.596
1236.255, 43.143
1237.472, 63.397
1238.689, 32.889
1239.906, 81.231
1241.122, 90.562
1242.338, 7.877
1243.555, 67.311
1244.771, 93.597
1245.986, 28.916
1247.202, 32.376
1248.417, 126.590
1249.633, 35.790
1250.848, 73.975
1252.063, 27.855
1253.277, 10.830
1254.492, 17.403
1255.706, 11.373
1256.920, 82.704
1258.134, 64.743
1259.348, 92.761
1260.562, 95.167
1261.775, 52.745
1262.988, 98.706
1264.201, 10.735
1265.414, 79.650
1266.627, 41.546
1267.839, 92.780
1269.052, 25.635
1270.264, 94.462
1271.476, 45.429
1272.688, 106.172
1273.899, 21.108
1275.111, 5.432
1276.322, 4.218
1277.533, 101.828
1278.744, 112.441
1279.955, 40.008
1281.165, 30.551
1282.376, 90.073
1283.586, 43.560
1284.796, 16.987
1286.006, 35.393
1287.215, 16.714
1288.425, 46.009
1289.634, 14.275
1290.843, 47.515
1292.052, 52.725
1293.261, 48.540
1294.469, 53.248
1295.678, 36.185
1296.886, 47.123
1298.094, 5.195
1299.302, 24.222
1300.509, 5.815
1301.717, 52.784
1302.924, 7.463
1304.131, 63.248
1305.338, 39.110
1306.545, 17.520
1307.752, 67.329
1308.958, 18.954
1310.164, 73.797
1311.370, 119.521
1312.576, 19.776
1313.782, 51.891
1314.987, 35.533
1316.193, 77.071
1317.398, 29.661
1318.603, 55.701
1319.807, 35.766
1321.012, 75.278
1322.216, 79.765
1323.421, 86.228
1324.625, 1.662
1325.829, 5.066
1327.032, 68.563
1328.236, 31.755
1329.439, 110.047
1330.642, 175.314
1331.845, 23.443
1333.048, 86.237
1334.251, 35.913
1335.453, 55.039
1336.656, 47.920
1337.858, 51.789
1339.060, 78.274
1340.261, 51.256
1341.463, 43.315
1342.664, 23.302
1343.866, 26.263
1345.067, 35.200
1346.267, 41.269
1347.468, 57.390
1348.669, 64.135
1349.869, 80.667
1351.069, 72.495
1352.269, 50.002
1353.469, 78.791
1354.668, 78.521
1355.868, 110.228
1357.067, 95.014
1358.266, 137.408
1359.465, 10.895
1360.664, 128.531
1361.862, 71.385
1363.061, 17.116
1364.259, 162.737
1365.457, 67.558
1366.655, 65.144
1367.852, 139.736
1369.050, 121.185
1370.247, 91.494
1371.444, 122.771
1372.641, 65.009
1373.838, 125.011
1375.035, 126.661
1376.231, 117.688
1377.427, 175.977
1378.623, 105.250
1379.819, 127.120
1381.015, 91.804
1382.211, 98.608
1383.406, 173.054
1384.601, 190.683
1385.796, 197.753
1386.991, 98.083
1388.185, 183.455
1389.380, 119.615
1390.574, 74.367
1391.768, 214.451
1392.962, 185.565
1394.156, 213.811
1395.350, 127.841
1396.543, 169.251
1397.736, 133.090
1398.929, 97.745
1400.122, 181.552
1401.315, 307.604
1402.507, 283.245
1403.700, 166.823
1404.892, 211.141
1406.084, 148.836
1407.276, 102.342
1408.467, 147.751
1409.659, 206.784
1410.850, 44.769
1412.041, 184.521
1413.232, 298.798
1414.423, 68.846
1415.614, 217.676
1416.804, 164.926
1417.994, 172.807
1419.184, 163.000
1420.374, 197.495
1421.564, 102.024
1422.753, 181.300
1423.943, 163.699
1425.132, 207.450
1426.321, 138.049
1427.510, 187.128
1428.698, 174.673
1429.887, 172.418
1431.075, 156.034
1432.263, 218.700
1433.451, 200.523
1434.639, 146.512
1435.827, 244.385
1437.014, 209.729
1438.201, 191.419
1439.388, 329.900
1440.575, 352.613
1441.762, 312.619
1442.949, 354.315
1444.135, 318.133
1445.321, 407.967
1446.507, 371.129
1447.693, 402.168
1448.879, 368.843
1450.064, 379.294
1451.250, 430.122
1452.435, 433.867
1453.620, 384.546
1454.805, 528.312
1455.989, 466.259
1457.174, 385.845
1458.358, 586.089
1459.542, 388.883
1460.726, 491.584
1461.910, 490.209
1463.093, 419.464
1464.277, 475.015
1465.460, 355.495
1466.643, 469.705
1467.826, 495.075
1469.009, 281.472
1470.191, 417.308
1471.373, 311.701
1472.556, 327.100
1473.738, 252.438
1474.919, 449.792
1476.101, 321.120
1477.283, 390.630
1478.464, 315.457
1479.645, 203.288
1480.826, 256.150
1482.007, 209.037
1483.187, 182.938
1484.368, 191.179
1485.548, 99.888
1486.728, 142.935
1487.908, 210.999
1489.088, 134.080
1490.268, 144.180
1491.447, 276.294
1492.626, 211.449
1493.805, 245.171
1494.984, 126.868
1496.163, 178.163
1497.341, 221.553
1498.520, 96.070
1499.698, 102.683
1500.876, 113.407
1502.054, 179.240
1503.232, 20.833
1504.409, 32.196
1505.586, 57.337
1506.763, 12.600
1507.940, 91.001
1509.117, 35.562
1510.294, 101.311
1511.470, 116.271
1512.647, 160.463
1513.823, 62.904
1514.999, 135.735
1516.174, 51.494
1517.350, 210.848
1518.526, 10.517
1519.701, 220.619
1520.876, 1.325
1522.051, 101.693
1523.226, 43.077
1524.400, 0.000
##END=



