##NAMES=Vayrynenite
##RRUFFID=R050243
##IDEAL CHEMISTRY=Mn^2+^Be(PO_4_)OH
##LOCALITY=Viitaniemi pegmatite, Erajarvi, Orivesi, Finland
##OWNER=RRUFF
##SOURCE=Marcus Origlieri
##DESCRIPTION=Pink massive with defined cleavage planes
##STATUS=The identification of this mineral has been confirmed by X-ray diffraction and chemical analysis
##URL=rruff.info/R050243
##MEASURED CHEMISTRY=(Mn^2+^_0.95_Fe^2+^_0.05_)_Σ=1_Be_1.00_(P_1.00_O_4_)((OH)_0.94_F_0.06_)_Σ=1_ ; Be not measured but estimated by difference and charge balance.
##PIN_ID=M00437
##ORIENTATION=Laser parallel to a* (1 0 0). Fiducial mark perpendicular to laser is parallel to -b [0 -1 0]
80.125, 0.000
81.521, 28.787
82.916, 129.620
84.311, 258.446
85.706, 516.457
87.101, 830.397
88.496, 1322.019
89.890, 1966.452
91.284, 2621.856
92.678, 3091.431
94.071, 2902.821
95.465, 2269.252
96.858, 1632.092
98.251, 979.446
99.644, 484.299
101.036, 513.150
102.428, 325.882
103.820, 340.144
105.212, 299.335
106.604, 420.774
107.995, 509.883
109.387, 547.663
110.777, 503.158
112.168, 439.261
113.559, 578.990
114.949, 714.267
116.339, 1028.475
117.729, 1486.392
119.119, 2034.398
120.508, 2517.074
121.897, 2946.158
123.286, 3078.579
124.675, 2849.761
126.063, 2345.019
127.452, 1717.149
128.840, 1133.294
130.228, 728.518
131.615, 514.681
133.003, 318.721
134.390, 246.842
135.777, 149.436
137.164, 74.228
138.550, 29.372
139.937, 58.460
141.323, 65.260
142.709, 10.034
144.094, 32.982
145.480, 82.179
146.865, 92.545
148.250, 61.070
149.635, 77.746
151.019, 101.565
152.403, 112.519
153.788, 39.602
155.171, 20.807
156.555, 85.872
157.939, 271.442
159.322, 473.906
160.705, 656.755
162.088, 751.464
163.470, 796.350
164.853, 885.646
166.235, 748.019
167.617, 667.153
168.998, 562.390
170.380, 477.277
171.761, 508.578
173.142, 588.232
174.523, 664.876
175.904, 961.948
177.284, 1553.325
178.664, 2447.401
180.044, 3443.404
181.424, 4406.254
182.803, 4980.854
184.183, 4748.263
185.562, 3928.998
186.940, 2828.795
188.319, 1889.065
189.698, 1246.006
191.076, 811.969
192.454, 504.719
193.831, 375.889
195.209, 287.966
196.586, 216.070
197.963, 222.629
199.340, 144.717
200.717, 151.938
202.093, 212.700
203.470, 204.472
204.846, 224.253
206.221, 299.036
207.597, 407.817
208.972, 520.592
210.347, 662.363
211.722, 654.128
213.097, 733.886
214.472, 784.636
215.846, 790.378
217.220, 848.113
218.594, 884.838
219.967, 782.552
221.341, 731.255
222.714, 648.943
224.087, 641.616
225.460, 696.279
226.832, 895.934
228.204, 1340.584
229.577, 1841.227
230.948, 2301.866
232.320, 2400.499
233.692, 2112.128
235.063, 1595.750
236.434, 1088.368
237.805, 571.979
239.175, 312.585
240.545, 156.186
241.916, 50.780
243.286, 54.367
244.655, 25.064
246.025, 29.429
247.394, 66.087
248.763, 82.409
250.132, 27.563
251.501, 30.628
252.869, 32.664
254.237, 24.708
255.605, 34.754
256.973, 38.177
258.340, 35.298
259.708, 137.428
261.075, 122.314
262.442, 198.988
263.808, 187.786
265.175, 255.616
266.541, 164.400
267.907, 135.885
269.273, 71.270
270.639, 82.639
272.004, 64.903
273.369, 8.697
274.734, 28.741
276.099, 77.198
277.463, 34.550
278.828, 67.430
280.192, 112.985
281.556, 160.222
282.919, 207.343
284.283, 253.326
285.646, 238.233
287.009, 239.127
288.372, 182.000
289.734, 94.849
291.097, 71.671
292.459, 23.465
293.821, 11.229
295.183, 17.039
296.544, 41.347
297.905, 39.701
299.266, 22.101
300.627, 10.570
301.988, 14.417
303.348, 17.151
304.709, 16.808
306.069, 0.029
307.428, 32.779
308.788, 23.859
310.147, 24.840
311.507, 55.161
312.865, 25.452
314.224, 52.691
315.583, 88.434
316.941, 105.489
318.299, 122.311
319.657, 178.257
321.015, 262.370
322.372, 367.738
323.729, 461.937
325.086, 616.144
326.443, 755.252
327.800, 1004.310
329.156, 1132.214
330.512, 1346.958
331.868, 1421.625
333.224, 1550.234
334.579, 1721.821
335.935, 1813.390
337.290, 1806.945
338.645, 1758.483
339.999, 1596.995
341.354, 1495.473
342.708, 1494.920
344.062, 1584.340
345.416, 1720.742
346.769, 1945.133
348.123, 2280.511
349.476, 2612.890
350.829, 2673.254
352.182, 2673.585
353.534, 2547.861
354.887, 2179.092
356.239, 1838.300
357.591, 1494.488
358.942, 1225.676
360.294, 1083.740
361.645, 958.844
362.996, 947.642
364.347, 881.495
365.698, 952.629
367.048, 1046.753
368.398, 1214.983
369.748, 1495.297
371.098, 1794.627
372.448, 2263.972
373.797, 2880.329
375.146, 3632.697
376.495, 4218.070
377.844, 4771.442
379.192, 5064.809
380.540, 4734.169
381.889, 4205.524
383.236, 3496.873
384.584, 2847.213
385.932, 2366.547
387.279, 1883.874
388.626, 1533.192
389.973, 1341.504
391.319, 1180.809
392.666, 926.106
394.012, 959.396
395.358, 917.678
396.704, 975.952
398.049, 1229.219
399.394, 1344.479
400.740, 1649.730
402.084, 1798.974
403.429, 1830.975
404.774, 1620.391
406.118, 1405.838
407.462, 1106.506
408.806, 820.887
410.150, 556.933
411.493, 477.907
412.836, 356.271
414.179, 294.385
415.522, 210.312
416.865, 121.677
418.207, 106.351
419.549, 44.302
420.891, 24.173
422.233, 63.725
423.575, 90.179
424.916, 26.921
426.257, 4.418
427.598, 9.602
428.939, 7.890
430.279, 6.229
431.619, 3.847
432.959, 2.864
434.299, 28.063
435.639, 2.439
436.978, 105.806
438.318, 81.389
439.657, 100.695
440.996, 103.567
442.334, 89.555
443.673, 75.726
445.011, 104.078
446.349, 145.571
447.687, 201.024
449.024, 273.467
450.361, 393.657
451.699, 523.449
453.036, 651.035
454.372, 881.004
455.709, 1162.597
457.045, 1712.498
458.381, 2149.874
459.717, 2490.354
461.053, 2732.941
462.388, 2736.255
463.724, 2411.330
465.059, 1963.120
466.394, 1457.901
467.728, 998.903
469.063, 707.994
470.397, 480.002
471.731, 371.140
473.065, 238.678
474.398, 161.004
475.732, 123.648
477.065, 110.555
478.398, 43.596
479.731, 57.731
481.063, 12.114
482.396, 23.524
483.728, 59.920
485.060, 53.302
486.391, 69.673
487.723, 62.030
489.054, 68.376
490.385, 139.710
491.716, 182.033
493.047, 243.347
494.377, 251.650
495.708, 419.943
497.038, 559.227
498.368, 806.500
499.697, 1111.763
501.027, 1642.017
502.356, 2400.261
503.685, 3196.752
505.014, 3801.231
506.342, 4015.121
507.671, 3576.648
508.999, 2842.166
510.327, 2014.361
511.655, 1417.932
512.982, 977.181
514.310, 724.110
515.637, 553.235
516.964, 415.177
518.291, 375.885
519.617, 319.167
520.944, 301.836
522.270, 351.262
523.596, 330.005
524.921, 384.322
526.247, 435.370
527.572, 583.350
528.897, 734.519
530.222, 1036.961
531.547, 1551.927
532.871, 2199.332
534.196, 2977.267
535.520, 3588.108
536.844, 3750.928
538.167, 3595.664
539.491, 2857.864
540.814, 2090.120
542.137, 1428.059
543.460, 978.981
544.783, 709.889
546.105, 524.781
547.427, 348.659
548.749, 305.521
550.071, 289.368
551.393, 176.199
552.714, 190.015
554.035, 222.816
555.356, 216.602
556.677, 184.373
557.998, 174.128
559.318, 187.868
560.638, 217.592
561.958, 246.301
563.278, 284.996
564.597, 337.679
565.917, 432.350
567.236, 490.021
568.555, 572.694
569.874, 612.069
571.192, 635.079
572.511, 655.781
573.829, 616.485
575.147, 580.193
576.464, 574.860
577.782, 637.481
579.099, 553.834
580.416, 652.096
581.733, 711.511
583.050, 861.025
584.366, 1028.262
585.683, 1220.308
586.999, 1543.259
588.315, 1870.379
589.630, 2497.482
590.946, 3331.491
592.261, 4501.504
593.576, 6238.890
594.891, 7731.900
596.206, 8678.392
597.520, 9065.771
598.834, 8524.228
600.148, 7385.690
601.462, 5996.082
602.776, 4881.407
604.089, 3911.840
605.402, 3107.322
606.715, 2678.790
608.028, 2425.246
609.341, 2480.690
610.653, 2727.124
611.965, 3230.548
613.277, 4226.965
614.589, 5316.381
615.901, 6387.800
617.212, 7006.229
618.523, 6929.665
619.834, 6022.107
621.145, 4809.548
622.456, 3681.993
623.766, 2803.431
625.076, 2194.862
626.386, 1827.292
627.696, 1491.714
629.006, 1271.129
630.315, 996.536
631.624, 887.933
632.933, 680.322
634.242, 612.700
635.551, 605.067
636.859, 467.234
638.167, 484.448
639.475, 448.458
640.783, 488.504
642.090, 439.689
643.398, 428.833
644.705, 476.033
646.012, 453.188
647.318, 472.357
648.625, 389.592
649.931, 384.814
651.237, 376.023
652.543, 291.219
653.849, 317.402
655.155, 221.571
656.460, 266.727
657.765, 183.870
659.070, 193.000
660.375, 87.118
661.679, 87.219
662.984, 37.801
664.288, 70.373
665.592, 33.576
666.895, 12.563
668.199, 18.604
669.502, 44.929
670.805, 8.070
672.108, 27.249
673.411, 24.477
674.713, 52.751
676.016, 62.087
677.318, 68.311
678.620, 64.244
679.921, 68.763
681.223, 61.734
682.524, 56.886
683.825, 55.729
685.126, 42.742
686.427, 47.114
687.727, 39.438
689.028, 29.622
690.328, 22.196
691.628, 5.273
692.927, 35.611
694.227, 38.021
695.526, 79.865
696.825, 61.695
698.124, 190.510
699.423, 212.313
700.721, 298.105
702.020, 332.886
703.318, 464.655
704.616, 398.413
705.913, 426.160
707.211, 379.896
708.508, 363.621
709.805, 338.336
711.102, 311.040
712.399, 201.733
713.695, 252.417
714.992, 240.090
716.288, 276.752
717.584, 362.405
718.879, 345.048
720.175, 371.681
721.470, 528.305
722.765, 624.918
724.060, 748.523
725.355, 865.118
726.649, 1092.703
727.944, 1285.279
729.238, 1515.844
730.532, 1958.402
731.825, 2256.948
733.119, 2774.487
734.412, 3236.016
735.705, 3562.538
736.998, 4032.051
738.291, 4146.558
739.584, 4112.055
740.876, 3984.546
742.168, 3632.031
743.460, 3241.509
744.752, 2753.982
746.043, 2353.449
747.334, 2037.910
748.626, 1870.365
749.916, 1567.818
751.207, 1300.264
752.498, 1167.704
753.788, 950.136
755.078, 972.561
756.368, 833.979
757.658, 800.389
758.947, 716.793
760.237, 743.190
761.526, 764.580
762.815, 714.963
764.104, 729.340
765.392, 754.709
766.680, 788.124
767.969, 804.481
769.257, 760.573
770.544, 797.918
771.832, 657.257
773.119, 634.662
774.406, 636.049
775.693, 483.370
776.980, 505.685
778.267, 414.994
779.553, 379.297
780.839, 369.595
782.125, 415.887
783.411, 359.174
784.697, 444.456
785.982, 397.732
787.267, 453.004
788.552, 495.271
789.837, 502.533
791.122, 540.791
792.406, 708.044
793.690, 757.294
794.974, 888.542
796.258, 1040.786
797.542, 1088.027
798.825, 1175.264
800.108, 1079.499
801.391, 968.729
802.674, 769.958
803.957, 642.182
805.239, 552.404
806.522, 364.622
807.804, 396.838
809.085, 258.050
810.367, 216.260
811.649, 148.468
812.930, 113.673
814.211, 114.876
815.492, 89.820
816.772, 50.764
818.053, 66.285
819.333, 34.158
820.613, 11.029
821.893, 26.210
823.173, 9.993
824.452, 36.110
825.732, 8.522
827.011, 66.729
828.290, 60.109
829.568, 29.714
830.847, 2.265
832.125, 13.641
833.403, 26.963
834.681, 19.257
835.959, 34.313
837.236, 18.115
838.514, 19.859
839.791, 19.802
841.068, 24.031
842.345, 55.792
843.621, 21.011
844.898, 64.231
846.174, 60.560
847.450, 25.098
848.726, 59.316
850.001, 43.259
851.277, 111.146
852.552, 47.354
853.827, 184.583
855.102, 256.832
856.376, 200.096
857.651, 247.380
858.925, 396.679
860.199, 415.987
861.473, 378.304
862.746, 301.636
864.020, 371.980
865.293, 336.332
866.566, 195.694
867.839, 209.065
869.112, 149.445
870.384, 113.835
871.656, 100.235
872.928, 83.645
874.200, 88.064
875.472, 29.493
876.744, 78.933
878.015, 92.383
879.286, 56.843
880.557, 78.314
881.828, 134.795
883.098, 118.288
884.369, 96.791
885.639, 142.305
886.909, 192.830
888.178, 174.366
889.448, 243.914
890.717, 280.472
891.987, 372.042
893.256, 325.625
894.524, 363.218
895.793, 472.824
897.061, 417.441
898.330, 374.070
899.598, 385.711
900.865, 311.365
902.133, 278.031
903.401, 233.709
904.668, 172.400
905.935, 170.104
907.202, 138.820
908.468, 125.549
909.735, 131.291
911.001, 76.056
912.267, 88.845
913.533, 83.651
914.799, 72.485
916.064, 22.353
917.330, 16.252
918.595, 4.833
919.860, 9.094
921.124, 38.965
922.389, 7.982
923.653, 22.948
924.918, 7.064
926.182, 6.062
927.445, 14.962
928.709, 31.002
929.972, 45.663
931.236, 80.135
932.499, 87.228
933.761, 122.351
935.024, 153.489
936.286, 132.656
937.549, 118.837
938.811, 134.039
940.073, 151.261
941.334, 157.793
942.596, 159.751
943.857, 200.018
945.118, 235.301
946.379, 280.599
947.640, 323.582
948.900, 279.240
950.161, 396.584
951.421, 389.943
952.681, 381.318
953.940, 492.709
955.200, 498.116
956.459, 517.539
957.719, 566.977
958.978, 633.778
960.236, 764.901
961.495, 825.386
962.753, 922.888
964.012, 1050.406
965.270, 1079.943
966.527, 1199.497
967.785, 1346.068
969.043, 1497.656
970.300, 1638.264
971.557, 1749.890
972.814, 1910.539
974.071, 2203.229
975.327, 2505.194
976.583, 2866.954
977.840, 3363.746
979.095, 4216.570
980.351, 5374.428
981.607, 5385.328
982.862, 6102.093
984.117, 6561.542
985.372, 6713.553
986.627, 6974.992
987.882, 6298.925
989.136, 6057.587
990.390, 6026.270
991.644, 6067.025
992.898, 6592.713
994.152, 7250.246
995.405, 8449.153
996.659, 10215.550
997.912, 12865.979
999.165, 17147.881
1000.417, 23141.350
1001.670, 31764.967
1002.922, 41360.180
1004.174, 51470.492
1005.426, 55132.457
1006.678, 52811.727
1007.930, 44159.637
1009.181, 34639.828
1010.432, 26218.426
1011.683, 19884.045
1012.934, 15832.053
1014.185, 12227.019
1015.435, 10021.686
1016.685, 8176.370
1017.935, 6989.070
1019.185, 5919.785
1020.435, 5291.518
1021.684, 4640.265
1022.934, 4144.027
1024.183, 3774.807
1025.432, 3501.603
1026.680, 3298.413
1027.929, 3046.714
1029.177, 2879.506
1030.425, 2713.939
1031.673, 2612.812
1032.921, 2559.700
1034.169, 2537.603
1035.416, 2483.521
1036.663, 2640.455
1037.911, 2858.402
1039.157, 2861.365
1040.404, 2990.343
1041.650, 3097.336
1042.897, 3204.344
1044.143, 3215.375
1045.389, 3001.420
1046.634, 2670.482
1047.880, 2476.557
1049.125, 2029.650
1050.371, 1743.760
1051.615, 1538.886
1052.860, 1352.031
1054.105, 1183.195
1055.349, 1099.018
1056.593, 1088.573
1057.837, 1037.784
1059.081, 1055.095
1060.325, 1152.411
1061.568, 1204.219
1062.812, 1357.050
1064.055, 1520.665
1065.298, 1953.847
1066.540, 2413.324
1067.783, 3125.830
1069.025, 4028.120
1070.267, 5287.474
1071.509, 6874.101
1072.751, 8138.294
1073.993, 8926.431
1075.234, 8571.101
1076.475, 7144.212
1077.716, 5527.007
1078.957, 4107.446
1080.198, 3030.120
1081.438, 2262.584
1082.679, 1751.516
1083.919, 1388.045
1085.159, 1080.727
1086.398, 893.233
1087.638, 781.165
1088.877, 616.666
1090.116, 502.203
1091.355, 473.750
1092.594, 407.308
1093.833, 319.875
1095.071, 339.452
1096.309, 181.038
1097.547, 222.634
1098.785, 230.239
1100.023, 133.853
1101.260, 158.495
1102.498, 157.227
1103.735, 198.867
1104.972, 155.515
1106.208, 140.171
1107.445, 182.835
1108.681, 243.508
1109.918, 169.188
1111.154, 208.897
1112.389, 222.639
1113.625, 379.969
1114.860, 327.852
1116.096, 393.569
1117.331, 633.292
1118.566, 686.023
1119.800, 939.760
1121.035, 1408.503
1122.269, 2074.254
1123.503, 2911.011
1124.737, 3722.778
1125.971, 4037.551
1127.205, 3485.331
1128.438, 2622.119
1129.671, 1816.913
1130.904, 1278.711
1132.137, 868.516
1133.370, 649.328
1134.602, 556.148
1135.834, 524.975
1137.066, 408.810
1138.298, 450.650
1139.530, 486.495
1140.762, 361.344
1141.993, 398.196
1143.224, 281.057
1144.455, 216.928
1145.686, 106.814
1146.917, 56.693
1148.147, 13.558
1149.377, 25.590
1150.607, 54.756
1151.837, 55.929
1153.067, 49.116
1154.296, 35.309
1155.526, 46.503
1156.755, 32.702
1157.984, 3.103
1159.213, 15.907
1160.441, 27.283
1161.670, 5.474
1162.898, 40.339
1164.126, 84.157
1165.354, 103.847
1166.581, 62.807
1167.809, 124.640
1169.036, 162.478
1170.263, 117.320
1171.490, 162.166
1172.717, 229.017
1173.943, 121.872
1175.170, 280.730
1176.396, 304.565
1177.622, 369.380
1178.848, 396.147
1180.073, 453.538
1181.299, 478.683
1182.524, 564.438
1183.749, 631.181
1184.974, 684.923
1186.199, 694.651
1187.423, 609.725
1188.648, 544.421
1189.872, 471.159
1191.096, 390.796
1192.320, 307.622
1193.543, 276.723
1194.767, 157.494
1195.990, 179.815
1197.213, 105.063
1198.436, 76.387
1199.659, 43.501
1200.881, 107.027
1202.104, 90.431
1203.326, 63.552
1204.548, 49.491
1205.770, 12.466
1206.991, 22.788
1208.213, 29.955
1209.434, 2.186
1210.655, 41.452
1211.876, 65.858
1213.096, 54.026
1214.317, 12.550
1215.537, 42.062
1216.757, 48.862
1217.977, 23.399
1219.197, 1.313
1220.417, 13.158
1221.636, 11.637
1222.855, 12.631
1224.074, 11.916
1225.293, 46.482
1226.512, 19.027
1227.731, 29.456
1228.949, 38.073
1230.167, 26.378
1231.385, 33.102
1232.603, 54.322
1233.820, 4.260
1235.038, 3.146
1236.255, 60.543
1237.472, 67.936
1238.689, 52.320
1239.906, 60.700
1241.122, 55.698
1242.338, 60.731
1243.555, 45.704
1244.771, 68.986
1245.986, 55.238
1247.202, 42.472
1248.417, 32.692
1249.633, 61.893
1250.848, 76.073
1252.063, 67.240
1253.277, 99.374
1254.492, 80.492
1255.706, 64.593
1256.920, 49.677
1258.134, 44.780
1259.348, 17.835
1260.562, 34.911
1261.775, 102.930
1262.988, 88.933
1264.201, 83.971
1265.414, 148.019
1266.627, 116.042
1267.839, 115.984
1269.052, 180.036
1270.264, 134.983
1271.476, 226.178
1272.688, 185.048
1273.899, 200.948
1275.111, 248.853
1276.322, 242.723
1277.533, 177.669
1278.744, 208.452
1279.955, 170.207
1281.165, 106.922
1282.376, 171.514
1283.586, 153.069
1284.796, 150.561
1286.006, 131.009
1287.215, 115.298
1288.425, 97.435
1289.634, 123.418
1290.843, 77.398
1292.052, 150.212
1293.261, 77.498
1294.469, 164.087
1295.678, 160.810
1296.886, 173.642
1298.094, 159.666
1299.302, 197.473
1300.509, 128.274
1301.717, 171.069
1302.924, 75.859
1304.131, 215.642
1305.338, 137.418
1306.545, 198.189
1307.752, 159.955
1308.958, 117.715
1310.164, 150.471
1311.370, 231.219
1312.576, 187.951
1313.782, 289.665
1314.987, 278.368
1316.193, 255.052
1317.398, 227.708
1318.603, 289.342
1319.807, 245.854
1321.012, 272.481
1322.216, 223.927
1323.421, 190.435
1324.625, 266.500
1325.829, 239.784
1327.032, 193.558
1328.236, 127.880
1329.439, 156.533
1330.642, 85.534
1331.845, 22.613
1333.048, 67.014
1334.251, 50.455
1335.453, 16.664
1336.656, 35.199
1337.858, 15.042
1339.060, 44.867
1340.261, 6.643
1341.463, 9.273
1342.664, 6.739
1343.866, 7.970
1345.067, 1.497
1346.267, 4.091
1347.468, 14.484
1348.669, 25.638
1349.869, 22.800
1351.069, 49.433
1352.269, 19.045
1353.469, 23.632
1354.668, 4.195
1355.868, 97.739
1357.067, 29.270
1358.266, 69.791
1359.465, 0.696
1360.664, 29.817
1361.862, 93.270
1363.061, 20.751
1364.259, 80.348
1365.457, 28.951
1366.655, 35.518
1367.852, 68.015
1369.050, 62.465
1370.247, 96.374
1371.444, 78.176
1372.641, 124.430
1373.838, 113.611
1375.035, 61.716
1376.231, 116.747
1377.427, 105.900
1378.623, 161.327
1379.819, 91.752
1381.015, 159.259
1382.211, 116.821
1383.406, 152.392
1384.601, 132.794
1385.796, 279.779
1386.991, 213.482
1388.185, 210.310
1389.380, 166.789
1390.574, 130.239
1391.768, 144.660
1392.962, 122.856
1394.156, 115.491
1395.350, 109.145
1396.543, 89.609
1397.736, 124.206
1398.929, 89.007
1400.122, 106.641
1401.315, 49.949
1402.507, 129.390
1403.700, 47.314
1404.892, 118.436
1406.084, 120.333
1407.276, 41.983
1408.467, 34.503
1409.659, 35.042
1410.850, 49.916
1412.041, 22.882
1413.232, 39.902
1414.423, 7.046
1415.614, 63.364
1416.804, 8.596
1417.994, 34.313
1419.184, 38.640
1420.374, 21.398
1421.564, 105.620
1422.753, 115.037
1423.943, 81.204
1425.132, 32.720
1426.321, 19.338
1427.510, 12.069
1428.698, 1.784
1429.887, 13.646
1431.075, 0.000
##END=



