##NAMES=Vayrynenite
##RRUFFID=R050243
##IDEAL CHEMISTRY=Mn^2+^Be(PO_4_)OH
##LOCALITY=Viitaniemi pegmatite, Erajarvi, Orivesi, Finland
##OWNER=RRUFF
##SOURCE=Marcus Origlieri
##DESCRIPTION=Pink massive with defined cleavage planes
##STATUS=The identification of this mineral has been confirmed by X-ray diffraction and chemical analysis
##URL=rruff.info/R050243
##MEASURED CHEMISTRY=(Mn^2+^_0.95_Fe^2+^_0.05_)_Σ=1_Be_1.00_(P_1.00_O_4_)((OH)_0.94_F_0.06_)_Σ=1_ ; Be not measured but estimated by difference and charge balance.
##PIN_ID=M00471
##ORIENTATION=Laser parallel to c* (0 0 1). Fiducial mark perpendicular to laser is parallel to a [1 0 0]
56.365, 0.000
57.765, 33.680
59.164, 2.054
60.563, 1.009
61.962, 1.279
63.360, 18.416
64.758, 17.936
66.157, 10.505
67.554, 63.568
68.952, 82.705
70.349, 137.590
71.747, 188.965
73.144, 262.636
74.540, 306.458
75.937, 380.302
77.333, 487.054
78.729, 520.612
80.125, 573.888
81.521, 675.805
82.916, 719.298
84.311, 872.310
85.706, 1081.791
87.101, 1443.708
88.496, 1968.075
89.890, 2610.897
91.284, 3447.128
92.678, 4236.726
94.071, 4267.652
95.465, 3503.875
96.858, 2454.369
98.251, 1562.107
99.644, 1082.066
101.036, 857.220
102.428, 734.551
103.820, 693.045
105.212, 654.692
106.604, 701.495
107.995, 759.429
109.387, 806.487
110.777, 793.663
112.168, 796.952
113.559, 769.350
114.949, 890.851
116.339, 1159.466
117.729, 1547.438
119.119, 2068.893
120.508, 2636.779
121.897, 3173.926
123.286, 3368.117
124.675, 3234.314
126.063, 2611.520
127.452, 1959.737
128.840, 1347.966
130.228, 943.210
131.615, 655.468
133.003, 475.741
134.390, 359.031
135.777, 270.338
137.164, 244.663
138.550, 226.006
139.937, 179.351
141.323, 201.644
142.709, 157.903
144.094, 168.143
145.480, 124.373
146.865, 98.602
148.250, 121.836
149.635, 111.078
151.019, 128.332
152.403, 113.609
153.788, 131.896
155.171, 128.612
156.555, 139.935
157.939, 221.281
159.322, 277.650
160.705, 376.044
162.088, 530.467
163.470, 607.924
164.853, 583.417
166.235, 549.945
167.617, 483.501
168.998, 417.082
170.380, 376.689
171.761, 417.320
173.142, 457.976
174.523, 643.657
175.904, 946.447
177.284, 1421.156
178.664, 2086.584
180.044, 3068.821
181.424, 4092.626
182.803, 5002.091
184.183, 5069.325
185.562, 4204.169
186.940, 3154.855
188.319, 2144.154
189.698, 1369.483
191.076, 916.847
192.454, 635.254
193.831, 480.704
195.209, 338.187
196.586, 315.698
197.963, 275.236
199.340, 217.798
200.717, 222.384
202.093, 212.993
203.470, 243.622
204.846, 248.271
206.221, 262.939
207.597, 298.628
208.972, 358.337
210.347, 396.292
211.722, 456.739
213.097, 522.591
214.472, 589.386
215.846, 692.203
217.220, 787.042
218.594, 830.902
219.967, 751.783
221.341, 728.686
222.714, 563.698
224.087, 492.753
225.460, 423.816
226.832, 446.304
228.204, 480.968
229.577, 597.791
230.948, 754.745
232.320, 806.817
233.692, 783.994
235.063, 607.266
236.434, 375.626
237.805, 216.065
239.175, 146.579
240.545, 73.160
241.916, 53.806
243.286, 20.059
244.655, 12.270
246.025, 12.081
247.394, 1.942
248.763, 23.848
250.132, 18.798
251.501, 10.210
252.869, 6.820
254.237, 16.887
255.605, 49.989
256.973, 88.124
258.340, 144.291
259.708, 233.488
261.075, 284.714
262.442, 414.967
263.808, 468.246
265.175, 524.772
266.541, 490.100
267.907, 379.906
269.273, 255.362
270.639, 197.290
272.004, 110.947
273.369, 81.599
274.734, 58.390
276.099, 42.867
277.463, 45.917
278.828, 59.878
280.192, 76.410
281.556, 120.959
282.919, 155.524
284.283, 199.103
285.646, 203.693
287.009, 201.293
288.372, 170.904
289.734, 104.524
291.097, 39.155
292.459, 19.795
293.821, 17.554
295.183, 37.550
296.544, 55.829
297.905, 44.584
299.266, 86.929
300.627, 59.283
301.988, 71.641
303.348, 86.005
304.709, 53.379
306.069, 63.755
307.428, 72.137
308.788, 60.524
310.147, 43.916
311.507, 51.307
312.865, 32.701
314.224, 35.093
315.583, 14.483
316.941, 28.132
318.299, 68.757
319.657, 101.388
321.015, 169.030
322.372, 239.680
323.729, 355.434
325.086, 484.103
326.443, 619.172
327.800, 891.366
329.156, 1020.178
330.512, 1187.143
331.868, 1316.855
333.224, 1427.658
334.579, 1545.386
335.935, 1555.121
337.290, 1466.864
338.645, 1354.615
339.999, 1151.368
341.354, 959.102
342.708, 815.804
344.062, 750.475
345.416, 753.117
346.769, 744.729
348.123, 812.333
349.476, 922.931
350.829, 978.536
352.182, 991.158
353.534, 894.810
354.887, 828.490
356.239, 702.200
357.591, 589.932
358.942, 517.698
360.294, 495.492
361.645, 481.309
362.996, 530.155
364.347, 594.019
365.698, 668.908
367.048, 781.813
368.398, 997.740
369.748, 1299.686
371.098, 1660.645
372.448, 2185.614
373.797, 2833.596
375.146, 3719.590
376.495, 4485.595
377.844, 5111.606
379.192, 5563.625
380.540, 5447.651
381.889, 4923.684
383.236, 4073.723
384.584, 3316.770
385.932, 2692.832
387.279, 2123.910
388.626, 1688.003
389.973, 1351.110
391.319, 1162.230
392.666, 926.361
394.012, 835.504
395.358, 743.657
396.704, 761.820
398.049, 804.993
399.394, 910.175
400.740, 1070.366
402.084, 1191.565
403.429, 1213.772
404.774, 1149.987
406.118, 957.209
407.462, 797.438
408.806, 583.675
410.150, 474.914
411.493, 393.163
412.836, 324.418
414.179, 231.435
415.522, 182.702
416.865, 118.974
418.207, 80.191
419.549, 75.534
420.891, 38.822
422.233, 33.114
423.575, 47.411
424.916, 47.712
426.257, 17.018
427.598, 39.325
428.939, 10.636
430.279, 23.946
431.619, 9.258
432.959, 17.568
434.299, 18.879
435.639, 15.190
436.978, 40.501
438.318, 53.815
439.657, 85.132
440.996, 90.452
442.334, 108.774
443.673, 160.099
445.011, 168.427
446.349, 226.756
447.687, 327.088
449.024, 363.423
450.361, 522.759
451.699, 671.098
453.036, 855.438
454.372, 1130.780
455.709, 1616.338
457.045, 2162.958
458.381, 2789.644
459.717, 3479.877
461.053, 4011.858
462.388, 4213.319
463.724, 3821.095
465.059, 3139.069
466.394, 2408.785
467.728, 1760.933
469.063, 1228.608
470.397, 883.898
471.731, 628.036
473.065, 445.790
474.398, 319.467
475.732, 195.012
477.065, 158.545
478.398, 85.924
479.731, 48.305
481.063, 26.689
482.396, 20.074
483.728, 19.539
485.060, 11.839
486.391, 24.781
487.723, 8.412
489.054, 1.048
490.385, 3.684
491.716, 17.677
493.047, 0.040
494.377, 45.402
495.708, 74.765
497.038, 139.129
498.368, 186.495
499.697, 252.861
501.027, 382.253
502.356, 653.622
503.685, 896.998
505.014, 1217.007
506.342, 1420.663
507.671, 1436.125
508.999, 1316.719
510.327, 1060.183
511.655, 901.177
512.982, 856.549
514.310, 843.984
515.637, 807.493
516.964, 701.887
518.291, 573.117
519.617, 436.864
520.944, 348.802
522.270, 340.738
523.596, 307.481
524.921, 391.833
526.247, 474.208
527.572, 551.411
528.897, 729.520
530.222, 1027.167
531.547, 1516.925
532.871, 2228.748
534.196, 3035.189
535.520, 3852.211
536.844, 4297.643
538.167, 4378.069
539.491, 3512.493
540.814, 2633.917
542.137, 1810.336
543.460, 1251.759
544.783, 886.178
546.105, 662.593
547.427, 503.003
548.749, 379.408
550.071, 332.809
551.393, 253.205
552.714, 223.596
554.035, 248.982
555.356, 216.363
556.677, 248.739
557.998, 212.109
559.318, 245.474
560.638, 303.833
561.958, 385.187
563.278, 437.536
564.597, 518.878
565.917, 703.215
567.236, 873.546
568.555, 1002.871
569.874, 1158.193
571.192, 1178.509
572.511, 1206.818
573.829, 1122.123
575.147, 955.422
576.464, 791.714
577.782, 717.000
579.099, 589.279
580.416, 568.552
581.733, 554.818
583.050, 613.078
584.366, 681.330
585.683, 742.355
586.999, 870.594
588.315, 1073.373
589.630, 1307.517
590.946, 1742.205
592.261, 2366.177
593.576, 3201.168
594.891, 4023.033
596.206, 4789.223
597.520, 5212.407
598.834, 5134.583
600.148, 4640.752
601.462, 4037.915
602.776, 3359.070
604.089, 2866.218
605.402, 2381.358
606.715, 2052.491
608.028, 1973.617
609.341, 2029.735
610.653, 2395.845
611.965, 3017.949
613.277, 4097.043
614.589, 5310.136
615.901, 6589.228
617.212, 7572.324
618.523, 7676.423
619.834, 6805.532
621.145, 5628.647
622.456, 4260.769
623.766, 3270.904
625.076, 2488.042
626.386, 1865.186
627.696, 1453.339
629.006, 1162.498
630.315, 887.658
631.624, 785.822
632.933, 677.985
634.242, 595.149
635.551, 554.309
636.859, 522.461
638.167, 544.604
639.475, 525.739
640.783, 514.865
642.090, 474.889
643.398, 428.999
644.705, 413.708
646.012, 376.293
647.318, 289.261
648.625, 257.075
649.931, 291.143
651.237, 194.119
652.543, 196.170
653.849, 145.212
655.155, 144.246
656.460, 142.272
657.765, 78.289
659.070, 118.297
660.375, 83.296
661.679, 33.287
662.984, 51.312
664.288, 18.723
665.592, 4.789
666.895, 18.384
668.199, 5.483
669.502, 48.629
670.805, 33.550
672.108, 50.521
673.411, 16.831
674.713, 61.832
676.016, 38.237
677.318, 24.982
678.620, 40.140
679.921, 4.622
681.223, 29.071
682.524, 4.095
683.825, 7.593
685.126, 4.552
686.427, 26.598
687.727, 64.676
689.028, 22.511
690.328, 34.000
691.628, 50.338
692.927, 100.597
694.227, 117.796
695.526, 118.974
696.825, 136.059
698.124, 265.218
699.423, 290.990
700.721, 419.144
702.020, 429.273
703.318, 530.392
704.616, 577.502
705.913, 614.602
707.211, 572.692
708.508, 501.772
709.805, 474.843
711.102, 430.816
712.399, 392.889
713.695, 376.997
714.992, 337.029
716.288, 340.051
717.584, 328.064
718.879, 429.068
720.175, 449.062
721.470, 460.055
722.765, 616.031
724.060, 734.997
725.355, 812.435
726.649, 969.383
727.944, 1138.322
729.238, 1363.252
730.532, 1689.173
731.825, 1961.085
733.119, 2427.987
734.412, 2895.882
735.705, 3242.767
736.998, 3567.643
738.291, 3898.511
739.584, 3977.370
740.876, 3854.220
742.168, 3603.063
743.460, 3221.898
744.752, 2782.727
746.043, 2354.548
747.334, 1975.363
748.626, 1781.172
749.916, 1457.974
751.207, 1207.769
752.498, 1114.557
753.788, 943.336
755.078, 886.108
756.368, 748.872
757.658, 685.627
758.947, 615.375
760.237, 543.116
761.526, 536.849
762.815, 474.574
764.104, 460.292
765.392, 461.003
766.680, 461.706
767.969, 413.402
769.257, 393.091
770.544, 410.773
771.832, 340.448
773.119, 324.116
774.406, 276.776
775.693, 301.430
776.980, 292.077
778.267, 225.717
779.553, 260.350
780.839, 232.977
782.125, 264.596
783.411, 288.209
784.697, 346.814
785.982, 366.413
787.267, 373.006
788.552, 412.591
789.837, 397.170
791.122, 398.743
792.406, 383.309
793.690, 402.868
794.974, 427.422
796.258, 438.969
797.542, 514.515
798.825, 530.055
800.108, 474.596
801.391, 461.134
802.674, 388.667
803.957, 311.197
805.239, 252.721
806.522, 208.241
807.804, 160.755
809.085, 113.265
810.367, 91.770
811.649, 99.270
812.930, 86.740
814.211, 72.230
815.492, 56.710
816.772, 26.552
818.053, 57.745
819.333, 30.128
820.613, 3.378
821.893, 24.751
823.173, 15.592
824.452, 3.052
825.732, 1.445
827.011, 12.759
828.290, 2.815
829.568, 5.771
830.847, 13.161
832.125, 25.292
833.403, 22.429
834.681, 41.455
835.959, 53.953
837.236, 57.564
838.514, 55.019
839.791, 41.392
841.068, 23.316
842.345, 18.323
843.621, 9.724
844.898, 5.200
846.174, 2.516
847.450, 0.755
848.726, 4.029
850.001, 27.696
851.277, 10.573
852.552, 42.156
853.827, 0.102
855.102, 37.362
856.376, 3.625
857.651, 11.891
858.925, 82.159
860.199, 80.430
861.473, 50.704
862.746, 102.981
864.020, 80.262
865.293, 48.545
866.566, 57.833
867.839, 52.124
869.112, 35.418
870.384, 7.717
871.656, 31.019
872.928, 38.325
874.200, 0.635
875.472, 6.950
876.744, 36.268
878.015, 21.409
879.286, 2.914
880.557, 9.241
881.828, 69.573
883.098, 3.910
884.369, 36.251
885.639, 54.598
886.909, 69.950
888.178, 85.307
889.448, 97.670
890.717, 94.038
891.987, 159.412
893.256, 131.792
894.524, 148.177
895.793, 235.568
897.061, 171.965
898.330, 206.369
899.598, 196.779
900.865, 160.195
902.133, 159.617
903.401, 149.046
904.668, 141.928
905.935, 105.924
907.202, 135.374
908.468, 103.830
909.735, 82.294
911.001, 97.769
912.267, 102.252
913.533, 72.743
914.799, 102.243
916.064, 99.751
917.330, 85.266
918.595, 66.789
919.860, 56.320
921.124, 58.860
922.389, 64.098
923.653, 76.968
924.918, 106.537
926.182, 127.114
927.445, 176.699
928.709, 168.298
929.972, 239.918
931.236, 253.547
932.499, 273.188
933.761, 339.837
935.024, 386.496
936.286, 404.172
937.549, 420.995
938.811, 397.549
940.073, 400.252
941.334, 370.971
942.596, 375.154
943.857, 358.436
945.118, 383.183
946.379, 406.940
947.640, 424.707
948.900, 426.483
950.161, 438.270
951.421, 506.070
952.681, 559.888
953.940, 626.727
955.200, 671.587
956.459, 723.472
957.719, 772.374
958.978, 854.295
960.236, 920.239
961.495, 1025.192
962.753, 1108.162
964.012, 1204.143
965.270, 1325.135
966.527, 1439.138
967.785, 1614.152
969.043, 1774.132
970.300, 1944.178
971.557, 2174.243
972.814, 2354.828
974.071, 2675.942
975.327, 3097.030
976.583, 3606.906
977.840, 4195.818
979.095, 5100.049
980.351, 5997.961
981.607, 6912.254
982.862, 8096.870
984.117, 8806.887
985.372, 8947.211
986.627, 9014.494
987.882, 7899.146
989.136, 7331.649
990.390, 6863.413
991.644, 6662.058
992.898, 6984.774
994.152, 7376.737
995.405, 8430.042
996.659, 10058.498
997.912, 12602.038
999.165, 16315.648
1000.417, 21920.295
1001.670, 30194.045
1002.922, 40256.715
1004.174, 51502.785
1005.426, 57220.484
1006.678, 56330.195
1007.930, 47693.914
1009.181, 37468.668
1010.432, 28511.420
1011.683, 21456.197
1012.934, 16814.979
1014.185, 13244.778
1015.435, 10737.590
1016.685, 8813.416
1017.935, 7381.259
1019.185, 6341.113
1020.435, 5525.980
1021.684, 4858.863
1022.934, 4346.758
1024.183, 3803.668
1025.432, 3506.584
1026.680, 3184.521
1027.929, 2938.473
1029.177, 2741.957
1030.425, 2574.937
1031.673, 2459.930
1032.921, 2347.368
1034.169, 2317.958
1035.416, 2243.993
1036.663, 2255.042
1037.911, 2318.105
1039.157, 2388.182
1040.404, 2423.274
1041.650, 2540.379
1042.897, 2432.500
1044.143, 2376.635
1045.389, 2170.795
1046.634, 1951.970
1047.880, 1743.160
1049.125, 1466.365
1050.371, 1286.585
1051.615, 1129.818
1052.860, 1055.066
1054.105, 888.328
1055.349, 875.603
1056.593, 782.891
1057.837, 740.193
1059.081, 748.510
1060.325, 742.957
1061.568, 774.301
1062.812, 862.797
1064.055, 971.409
1065.298, 1174.805
1066.540, 1335.205
1067.783, 1737.617
1069.025, 2210.045
1070.267, 2844.591
1071.509, 3719.079
1072.751, 4331.377
1073.993, 4868.882
1075.234, 4599.375
1076.475, 3738.882
1077.716, 2757.498
1078.957, 2063.763
1080.198, 1454.307
1081.438, 1093.631
1082.679, 855.200
1083.919, 632.828
1085.159, 531.953
1086.398, 433.557
1087.638, 390.174
1088.877, 311.802
1090.116, 232.830
1091.355, 259.481
1092.594, 182.144
1093.833, 188.817
1095.071, 83.502
1096.309, 85.199
1097.547, 120.906
1098.785, 112.624
1100.023, 93.112
1101.260, 98.509
1102.498, 50.876
1103.735, 54.220
1104.972, 94.224
1106.208, 60.491
1107.445, 52.474
1108.681, 74.741
1109.918, 69.552
1111.154, 89.620
1112.389, 108.448
1113.625, 140.427
1114.860, 152.274
1116.096, 229.130
1117.331, 294.205
1118.566, 392.979
1119.800, 561.861
1121.035, 814.751
1122.269, 1276.654
1123.503, 1866.563
1124.737, 2574.481
1125.971, 3005.408
1127.205, 2635.344
1128.438, 2080.288
1129.671, 1478.241
1130.904, 1031.201
1132.137, 818.172
1133.370, 686.156
1134.602, 678.151
1135.834, 663.162
1137.066, 751.193
1138.298, 913.378
1139.530, 1129.524
1140.762, 1233.605
1141.993, 1155.553
1143.224, 1015.205
1144.455, 853.339
1145.686, 673.060
1146.917, 469.280
1148.147, 340.318
1149.377, 261.306
1150.607, 229.447
1151.837, 173.629
1153.067, 82.802
1154.296, 89.978
1155.526, 53.202
1156.755, 55.396
1157.984, 45.709
1159.213, 28.920
1160.441, 9.168
1161.670, 18.943
1162.898, 43.660
1164.126, 34.941
1165.354, 53.193
1166.581, 54.453
1167.809, 66.721
1169.036, 106.997
1170.263, 64.281
1171.490, 102.573
1172.717, 124.872
1173.943, 122.179
1175.170, 106.494
1176.396, 137.816
1177.622, 106.148
1178.848, 162.481
1180.073, 151.818
1181.299, 167.161
1182.524, 239.512
1183.749, 208.867
1184.974, 198.224
1186.199, 193.625
1187.423, 213.136
1188.648, 173.579
1189.872, 198.077
1191.096, 146.494
1192.320, 102.800
1193.543, 73.303
1194.767, 63.686
1195.990, 38.678
1197.213, 51.054
1198.436, 75.617
1199.659, 40.072
1200.881, 79.417
1202.104, 17.784
1203.326, 40.046
1204.548, 31.353
1205.770, 80.041
1206.991, 26.699
1208.213, 20.877
1209.434, 4.571
1210.655, 7.178
1211.876, 0.525
1213.096, 9.873
1214.317, 10.161
1215.537, 4.893
1216.757, 2.588
1217.977, 0.255
1219.197, 17.985
1220.417, 0.292
1221.636, 14.797
1222.855, 15.300
1224.074, 21.369
1225.293, 47.083
1226.512, 3.141
1227.731, 14.610
1228.949, 17.596
1230.167, 0.873
1231.385, 25.944
1232.603, 28.277
1233.820, 17.605
1235.038, 8.775
1236.255, 22.058
1237.472, 13.099
1238.689, 12.254
1239.906, 30.404
1241.122, 37.548
1242.338, 9.685
1243.555, 20.780
1244.771, 32.868
1245.986, 9.058
1247.202, 22.998
1248.417, 37.952
1249.633, 37.079
1250.848, 47.106
1252.063, 18.930
1253.277, 29.873
1254.492, 33.932
1255.706, 28.194
1256.920, 13.904
1258.134, 36.980
1259.348, 4.897
1260.562, 33.855
1261.775, 32.704
1262.988, 4.560
1264.201, 6.617
1265.414, 30.193
1266.627, 27.990
1267.839, 14.775
1269.052, 68.549
1270.264, 56.313
1271.476, 49.066
1272.688, 41.870
1273.899, 23.598
1275.111, 53.338
1276.322, 70.037
1277.533, 43.719
1278.744, 48.511
1279.955, 44.170
1281.165, 42.879
1282.376, 33.833
1283.586, 13.452
1284.796, 16.056
1286.006, 38.647
1287.215, 7.487
1288.425, 28.996
1289.634, 23.537
1290.843, 12.054
1292.052, 19.702
1293.261, 0.581
1294.469, 15.034
1295.678, 55.507
1296.886, 29.052
1298.094, 36.599
1299.302, 68.147
1300.509, 31.697
1301.717, 42.248
1302.924, 26.801
1304.131, 55.354
1305.338, 39.909
1306.545, 68.464
1307.752, 43.020
1308.958, 42.576
1310.164, 96.131
1311.370, 84.686
1312.576, 105.240
1313.782, 91.792
1314.987, 114.340
1316.193, 79.857
1317.398, 107.368
1318.603, 114.872
1319.807, 102.373
1321.012, 128.873
1322.216, 124.370
1323.421, 95.450
1324.625, 70.438
1325.829, 116.887
1327.032, 71.344
1328.236, 73.610
1329.439, 97.913
1330.642, 65.340
1331.845, 43.535
1333.048, 50.836
1334.251, 46.117
1335.453, 55.295
1336.656, 20.390
1337.858, 44.913
1339.060, 67.201
1340.261, 23.486
1341.463, 73.771
1342.664, 41.375
1343.866, 42.592
1345.067, 50.351
1346.267, 35.007
1347.468, 69.931
1348.669, 45.597
1349.869, 14.482
1351.069, 64.505
1352.269, 18.355
1353.469, 20.198
1354.668, 33.040
1355.868, 14.878
1357.067, 40.713
1358.266, 56.545
1359.465, 15.375
1360.664, 25.943
1361.862, 48.615
1363.061, 71.639
1364.259, 56.209
1365.457, 18.899
1366.655, 15.733
1367.852, 30.181
1369.050, 36.578
1370.247, 48.764
1371.444, 43.073
1372.641, 52.327
1373.838, 35.503
1375.035, 69.701
1376.231, 46.834
1377.427, 27.901
1378.623, 82.897
1379.819, 74.819
1381.015, 88.702
1382.211, 76.512
1383.406, 104.262
1384.601, 97.446
1385.796, 114.501
1386.991, 92.495
1388.185, 65.400
1389.380, 47.779
1390.574, 49.091
1391.768, 85.273
1392.962, 85.857
1394.156, 93.120
1395.350, 43.602
1396.543, 21.007
1397.736, 59.907
1398.929, 7.372
1400.122, 49.100
1401.315, 58.946
1402.507, 28.376
1403.700, 16.887
1404.892, 60.412
1406.084, 34.105
1407.276, 46.676
1408.467, 36.758
1409.659, 47.039
1410.850, 64.185
1412.041, 57.429
1413.232, 50.840
1414.423, 53.254
1415.614, 18.571
1416.804, 51.200
1417.994, 24.933
1419.184, 52.256
1420.374, 74.343
1421.564, 7.422
1422.753, 86.672
1423.943, 15.909
1425.132, 1.883
1426.321, 46.373
1427.510, 66.026
1428.698, 36.210
1429.887, 0.195
1431.075, 47.278
1432.263, 10.898
1433.451, 11.168
1434.639, 0.190
1435.827, 0.000
##END=



