##NAMES=Vayrynenite
##RRUFFID=R050243
##IDEAL CHEMISTRY=Mn^2+^Be(PO_4_)OH
##LOCALITY=Viitaniemi pegmatite, Erajarvi, Orivesi, Finland
##OWNER=RRUFF
##SOURCE=Marcus Origlieri
##DESCRIPTION=Pink massive with defined cleavage planes
##STATUS=The identification of this mineral has been confirmed by X-ray diffraction and chemical analysis
##URL=rruff.info/R050243
##MEASURED CHEMISTRY=(Mn^2+^_0.95_Fe^2+^_0.05_)_Σ=1_Be_1.00_(P_1.00_O_4_)((OH)_0.94_F_0.06_)_Σ=1_ ; Be not measured but estimated by difference and charge balance.
##PIN_ID=M00471
##ORIENTATION=Laser parallel to c* (0 0 1). Fiducial mark perpendicular to laser is parallel to a [1 0 0]
77.333, 0.000
78.729, 5.148
80.125, 2.906
81.521, 42.716
82.916, 102.962
84.311, 280.763
85.706, 475.207
87.101, 781.301
88.496, 1159.367
89.890, 1452.641
91.284, 1640.621
92.678, 1882.974
94.071, 2072.476
95.465, 2164.523
96.858, 2025.496
98.251, 1348.948
99.644, 681.747
101.036, 431.891
102.428, 313.338
103.820, 305.057
105.212, 287.030
106.604, 306.307
107.995, 392.907
109.387, 477.788
110.777, 466.905
112.168, 533.350
113.559, 576.429
114.949, 736.814
116.339, 1010.749
117.729, 1412.815
119.119, 1650.066
120.508, 1828.580
121.897, 2025.439
123.286, 2118.419
124.675, 2374.456
126.063, 2287.551
127.452, 1903.699
128.840, 1366.918
130.228, 972.190
131.615, 609.513
133.003, 359.240
134.390, 269.541
135.777, 115.289
137.164, 88.255
138.550, 49.189
139.937, 71.055
141.323, 47.858
142.709, 92.603
144.094, 50.296
145.480, 21.941
146.865, 16.459
148.250, 28.156
149.635, 39.378
151.019, 38.676
152.403, 33.437
153.788, 23.012
155.171, 1.384
156.555, 44.756
157.939, 31.104
159.322, 76.430
160.705, 86.746
162.088, 142.611
163.470, 192.808
164.853, 200.318
166.235, 256.444
167.617, 300.440
168.998, 304.443
170.380, 348.458
171.761, 387.500
173.142, 477.570
174.523, 709.680
175.904, 1071.799
177.284, 1649.929
178.664, 2316.354
180.044, 2880.805
181.424, 3268.952
182.803, 3647.105
184.183, 4023.314
185.562, 4284.690
186.940, 4110.208
188.319, 3357.973
189.698, 2297.911
191.076, 1548.598
192.454, 1047.594
193.831, 706.902
195.209, 536.941
196.586, 351.796
197.963, 305.994
199.340, 268.407
200.717, 272.839
202.093, 199.287
203.470, 247.753
204.846, 235.233
206.221, 213.728
207.597, 266.238
208.972, 342.760
210.347, 396.296
211.722, 345.845
213.097, 361.406
214.472, 354.980
215.846, 398.564
217.220, 443.159
218.594, 471.761
219.967, 518.371
221.341, 509.988
222.714, 460.614
224.087, 383.248
225.460, 339.892
226.832, 262.545
228.204, 263.208
229.577, 340.881
230.948, 335.564
232.320, 334.256
233.692, 387.958
235.063, 421.670
236.434, 347.391
237.805, 236.121
239.175, 137.860
240.545, 88.607
241.916, 10.636
243.286, 31.015
244.655, 24.044
246.025, 3.312
247.394, 29.177
248.763, 11.484
250.132, 2.729
251.501, 12.840
252.869, 2.131
254.237, 13.829
255.605, 70.269
256.973, 136.419
258.340, 142.618
259.708, 265.859
261.075, 361.149
262.442, 465.863
263.808, 501.187
265.175, 589.297
266.541, 636.699
267.907, 629.216
269.273, 531.406
270.639, 380.822
272.004, 265.251
273.369, 151.693
274.734, 118.146
276.099, 92.610
277.463, 15.072
278.828, 41.497
280.192, 27.885
281.556, 15.269
282.919, 48.662
284.283, 55.065
285.646, 120.475
287.009, 142.892
288.372, 106.315
289.734, 24.743
291.097, 115.176
292.459, 19.614
293.821, 35.944
295.183, 29.511
296.544, 49.086
297.905, 43.675
299.266, 48.300
300.627, 59.903
301.988, 47.549
303.348, 37.214
304.709, 24.897
306.069, 64.593
307.428, 38.313
308.788, 22.049
310.147, 41.797
311.507, 5.016
312.865, 1.647
314.224, 43.287
315.583, 5.239
316.941, 57.379
318.299, 99.900
319.657, 148.108
321.015, 202.321
322.372, 341.533
323.729, 423.745
325.086, 583.946
326.443, 738.144
327.800, 901.323
329.156, 1093.486
330.512, 1305.634
331.868, 1412.783
333.224, 1422.933
334.579, 1458.083
335.935, 1393.235
337.290, 1262.387
338.645, 1227.540
339.999, 1022.693
341.354, 901.847
342.708, 698.999
344.062, 576.150
345.416, 494.303
346.769, 344.461
348.123, 330.618
349.476, 311.782
350.829, 286.919
352.182, 270.016
353.534, 282.088
354.887, 291.123
356.239, 294.123
357.591, 285.098
358.942, 309.072
360.294, 365.068
361.645, 406.123
362.996, 489.121
364.347, 545.182
365.698, 656.265
367.048, 744.363
368.398, 1000.473
369.748, 1327.598
371.098, 1712.732
372.448, 2272.883
373.797, 2906.052
375.146, 3559.231
376.495, 4238.427
377.844, 4866.629
379.192, 5410.837
380.540, 5535.050
381.889, 5473.263
383.236, 4877.481
384.584, 4163.699
385.932, 3470.921
387.279, 2787.146
388.626, 2216.373
389.973, 1740.601
391.319, 1451.832
392.666, 1139.065
394.012, 928.301
395.358, 836.538
396.704, 656.777
398.049, 632.019
399.394, 553.261
400.740, 548.506
402.084, 480.753
403.429, 485.001
404.774, 454.228
406.118, 447.484
407.462, 421.746
408.806, 336.677
410.150, 338.923
411.493, 265.531
412.836, 197.739
414.179, 155.848
415.522, 99.701
416.865, 64.731
418.207, 98.005
419.549, 35.278
420.891, 48.552
422.233, 29.824
423.575, 7.095
424.916, 80.360
426.257, 18.376
427.598, 27.870
428.939, 21.114
430.279, 18.646
431.619, 57.576
432.959, 45.796
434.299, 35.014
435.639, 61.229
436.978, 37.443
438.318, 103.654
439.657, 102.687
440.996, 89.893
442.334, 167.098
443.673, 150.110
445.011, 224.310
446.349, 265.509
447.687, 346.705
449.024, 501.898
450.361, 523.090
451.699, 815.249
453.036, 1005.436
454.372, 1427.484
455.709, 1960.708
457.045, 2643.293
458.381, 3204.716
459.717, 3851.445
461.053, 4430.888
462.388, 4816.614
463.724, 4920.076
465.059, 4524.135
466.394, 3933.904
467.728, 2974.278
469.063, 2273.243
470.397, 1654.152
471.731, 1166.897
473.065, 843.812
474.398, 668.956
475.732, 438.122
477.065, 348.723
478.398, 256.898
479.731, 216.074
481.063, 152.250
482.396, 130.424
483.728, 60.598
485.060, 96.769
486.391, 91.939
487.723, 48.108
489.054, 77.275
490.385, 105.441
491.716, 122.606
493.047, 83.770
494.377, 153.932
495.708, 174.092
497.038, 268.251
498.368, 401.410
499.697, 504.567
501.027, 842.722
502.356, 1109.876
503.685, 1508.339
505.014, 1852.835
506.342, 2103.790
507.671, 2424.963
508.999, 2503.877
510.327, 2388.069
511.655, 2101.723
512.982, 1781.238
514.310, 1670.159
515.637, 1580.480
516.964, 1275.826
518.291, 1154.261
519.617, 876.043
520.944, 693.232
522.270, 471.967
523.596, 375.838
524.921, 329.350
526.247, 288.198
527.572, 288.365
528.897, 355.162
530.222, 439.660
531.547, 626.744
532.871, 928.374
534.196, 1216.087
535.520, 1476.798
536.844, 1791.369
538.167, 2152.197
539.491, 2152.499
540.814, 2007.651
542.137, 1628.799
543.460, 1165.941
544.783, 887.078
546.105, 656.208
547.427, 459.338
548.749, 386.461
550.071, 310.579
551.393, 222.690
552.714, 248.795
554.035, 182.894
555.356, 197.986
556.677, 198.071
557.998, 192.152
559.318, 244.226
560.638, 306.294
561.958, 401.358
563.278, 489.342
564.597, 592.967
565.917, 708.524
567.236, 833.574
568.555, 956.619
569.874, 1108.666
571.192, 1174.706
572.511, 1189.743
573.829, 1177.778
575.147, 1020.808
576.464, 833.837
577.782, 710.858
579.099, 537.873
580.416, 507.879
581.733, 412.863
583.050, 401.441
584.366, 374.425
585.683, 341.637
586.999, 420.569
588.315, 401.397
589.630, 461.561
590.946, 594.508
592.261, 712.447
593.576, 879.379
594.891, 994.303
596.206, 1169.220
597.520, 1400.129
598.834, 1540.032
600.148, 1616.927
601.462, 1560.814
602.776, 1659.696
604.089, 1601.569
605.402, 1555.435
606.715, 1641.292
608.028, 1798.143
609.341, 2217.985
610.653, 2907.984
611.965, 3606.647
613.277, 4916.466
614.589, 6208.292
615.901, 7786.122
617.212, 8961.959
618.523, 9744.803
619.834, 9478.656
621.145, 8493.521
622.456, 6982.394
623.766, 5621.272
625.076, 4214.154
626.386, 3232.048
627.696, 2388.949
629.006, 1861.851
630.315, 1354.760
631.624, 1176.668
632.933, 904.572
634.242, 726.467
635.551, 691.357
636.859, 578.239
638.167, 531.112
639.475, 447.976
640.783, 465.833
642.090, 398.680
643.398, 374.519
644.705, 407.350
646.012, 369.171
647.318, 318.984
648.625, 262.789
649.931, 279.584
651.237, 228.372
652.543, 203.150
653.849, 154.919
655.155, 141.454
656.460, 144.522
657.765, 102.265
659.070, 91.999
660.375, 39.725
661.679, 37.438
662.984, 14.482
664.288, 70.828
665.592, 6.150
666.895, 10.500
668.199, 1.877
669.502, 79.279
670.805, 17.843
672.108, 10.095
673.411, 6.756
674.713, 74.756
676.016, 64.351
677.318, 39.004
678.620, 63.702
679.921, 40.457
681.223, 37.400
682.524, 15.861
683.825, 2.083
685.126, 11.755
686.427, 11.462
687.727, 14.401
689.028, 22.801
690.328, 9.600
691.628, 23.464
692.927, 49.430
694.227, 35.311
695.526, 68.176
696.825, 107.258
698.124, 166.264
699.423, 172.097
700.721, 217.920
702.020, 242.732
703.318, 282.806
704.616, 350.563
705.913, 370.346
707.211, 353.119
708.508, 392.882
709.805, 352.635
711.102, 314.379
712.399, 213.113
713.695, 239.134
714.992, 225.848
716.288, 255.564
717.584, 228.902
718.879, 284.588
720.175, 376.550
721.470, 387.559
722.765, 542.214
724.060, 564.862
725.355, 706.501
726.649, 845.130
727.944, 1032.749
729.238, 1258.359
730.532, 1552.959
731.825, 1740.550
733.119, 2215.131
734.412, 2639.704
735.705, 2908.268
736.998, 3337.822
738.291, 3630.367
739.584, 3749.906
740.876, 3782.436
742.168, 3593.965
743.460, 3320.485
744.752, 2904.998
746.043, 2577.510
747.334, 2167.014
748.626, 1888.509
749.916, 1560.996
751.207, 1362.474
752.498, 1155.944
753.788, 1048.406
755.078, 898.859
756.368, 774.305
757.658, 664.742
758.947, 661.171
760.237, 532.593
761.526, 553.006
762.815, 491.412
764.104, 529.811
765.392, 507.201
766.680, 484.584
767.969, 462.960
769.257, 442.405
770.544, 402.690
771.832, 398.044
773.119, 390.390
774.406, 359.608
775.693, 302.061
776.980, 297.386
778.267, 243.703
779.553, 214.013
780.839, 213.316
782.125, 269.612
783.411, 260.901
784.697, 314.182
785.982, 290.457
787.267, 341.725
788.552, 347.985
789.837, 357.239
791.122, 289.486
792.406, 349.726
793.690, 257.960
794.974, 256.187
796.258, 319.407
797.542, 320.622
798.825, 302.830
800.108, 281.032
801.391, 244.073
802.674, 221.417
803.957, 172.601
805.239, 134.779
806.522, 148.951
807.804, 135.118
809.085, 14.279
810.367, 70.433
811.649, 50.582
812.930, 18.725
814.211, 43.863
815.492, 51.685
816.772, 17.468
818.053, 13.784
819.333, 4.877
820.613, 23.220
821.893, 21.279
823.173, 18.869
824.452, 20.408
825.732, 36.104
827.011, 1.216
828.290, 13.360
829.568, 12.396
830.847, 8.801
832.125, 22.794
833.403, 51.237
834.681, 19.861
835.959, 48.808
837.236, 95.507
838.514, 17.552
839.791, 29.234
841.068, 47.627
842.345, 17.620
843.621, 37.165
844.898, 77.195
846.174, 40.257
847.450, 36.100
848.726, 29.283
850.001, 1.040
851.277, 14.056
852.552, 25.845
853.827, 3.750
855.102, 18.656
856.376, 36.434
857.651, 8.467
858.925, 92.371
860.199, 81.278
861.473, 61.188
862.746, 42.103
864.020, 46.020
865.293, 98.941
866.566, 13.135
867.839, 69.791
869.112, 0.720
870.384, 24.347
871.656, 39.584
872.928, 13.479
874.200, 15.540
875.472, 34.601
876.744, 7.334
878.015, 2.273
879.286, 21.217
880.557, 33.166
881.828, 41.120
883.098, 61.079
884.369, 54.044
885.639, 64.014
886.909, 46.989
888.178, 39.970
889.448, 80.957
890.717, 21.950
891.987, 174.948
893.256, 126.953
894.524, 207.964
895.793, 191.981
897.061, 177.005
898.330, 209.035
899.598, 186.072
900.865, 184.118
902.133, 213.171
903.401, 157.231
904.668, 151.300
905.935, 125.378
907.202, 129.463
908.468, 169.555
909.735, 168.655
911.001, 145.776
912.267, 144.905
913.533, 73.042
914.799, 180.187
916.064, 183.354
917.330, 111.529
918.595, 169.712
919.860, 139.904
921.124, 127.104
922.389, 145.312
923.653, 162.530
924.918, 233.756
926.182, 194.990
927.445, 226.234
928.709, 326.487
929.972, 389.752
931.236, 376.040
932.499, 466.343
933.761, 542.661
935.024, 495.989
936.286, 495.327
937.549, 555.674
938.811, 541.031
940.073, 526.405
941.334, 599.790
942.596, 586.185
943.857, 533.590
945.118, 607.005
946.379, 662.431
947.640, 644.868
948.900, 639.316
950.161, 720.774
951.421, 755.243
952.681, 793.723
953.940, 917.215
955.200, 984.717
956.459, 1043.229
957.719, 1065.753
958.978, 1204.288
960.236, 1348.834
961.495, 1519.302
962.753, 1640.876
964.012, 1842.462
965.270, 2018.060
966.527, 2265.296
967.785, 2592.349
969.043, 2841.014
970.300, 3177.691
971.557, 3547.038
972.814, 3997.753
974.071, 4688.489
975.327, 5508.248
976.583, 6597.457
977.840, 7951.727
979.095, 9854.197
980.351, 11893.034
981.607, 13947.930
982.862, 16613.865
984.117, 17983.824
985.372, 18768.828
986.627, 19066.998
987.882, 16740.668
989.136, 14862.519
990.390, 12886.976
991.644, 11105.959
992.898, 10277.019
994.152, 9706.628
995.405, 10016.433
996.659, 10891.703
997.912, 12491.021
999.165, 15568.373
1000.417, 19965.744
1001.670, 26652.123
1002.922, 34288.145
1004.174, 44450.559
1005.426, 50621.992
1006.678, 52724.438
1007.930, 47700.676
1009.181, 39985.156
1010.432, 31514.650
1011.683, 24503.166
1012.934, 19168.691
1014.185, 15009.233
1015.435, 12216.790
1016.685, 9836.362
1017.935, 8182.651
1019.185, 7003.254
1020.435, 6064.859
1021.684, 5303.847
1022.934, 4538.905
1024.183, 4187.279
1025.432, 3801.611
1026.680, 3354.300
1027.929, 3172.003
1029.177, 2812.719
1030.425, 2707.451
1031.673, 2440.197
1032.921, 2285.958
1034.169, 2196.733
1035.416, 2116.523
1036.663, 2050.329
1037.911, 1952.149
1039.157, 1954.986
1040.404, 1886.836
1041.650, 1858.702
1042.897, 1752.583
1044.143, 1600.481
1045.389, 1449.398
1046.634, 1402.340
1047.880, 1203.298
1049.125, 1060.270
1050.371, 948.817
1051.615, 772.819
1052.860, 789.837
1054.105, 620.322
1055.349, 689.526
1056.593, 561.594
1057.837, 485.675
1059.081, 481.773
1060.325, 426.324
1061.568, 439.183
1062.812, 430.325
1064.055, 492.481
1065.298, 565.896
1066.540, 572.078
1067.783, 759.274
1069.025, 877.491
1070.267, 1064.722
1071.509, 1425.965
1072.751, 1610.223
1073.993, 1808.493
1075.234, 1804.779
1076.475, 1649.079
1077.716, 1219.417
1078.957, 1057.280
1080.198, 789.610
1081.438, 637.247
1082.679, 525.980
1083.919, 450.361
1085.159, 414.754
1086.398, 308.159
1087.638, 284.575
1088.877, 302.604
1090.116, 211.097
1091.355, 252.547
1092.594, 151.091
1093.833, 93.563
1095.071, 104.045
1096.309, 107.659
1097.547, 90.178
1098.785, 112.738
1100.023, 84.073
1101.260, 102.891
1102.498, 47.473
1103.735, 21.026
1104.972, 19.589
1106.208, 66.162
1107.445, 63.802
1108.681, 72.426
1109.918, 121.104
1111.154, 75.770
1112.389, 53.468
1113.625, 128.198
1114.860, 168.729
1116.096, 201.371
1117.331, 303.021
1118.566, 415.103
1119.800, 556.767
1121.035, 783.442
1122.269, 1246.124
1123.503, 1837.457
1124.737, 2489.151
1125.971, 3061.917
1127.205, 2976.644
1128.438, 2446.681
1129.671, 1854.526
1130.904, 1398.277
1132.137, 1116.032
1133.370, 1044.792
1134.602, 1042.556
1135.834, 1219.516
1137.066, 1374.303
1138.298, 1674.140
1139.530, 2136.308
1140.762, 2290.402
1141.993, 2544.035
1143.224, 2213.521
1144.455, 1856.875
1145.686, 1512.609
1146.917, 1131.704
1148.147, 891.431
1149.377, 709.493
1150.607, 511.971
1151.837, 415.857
1153.067, 260.148
1154.296, 228.132
1155.526, 190.749
1156.755, 121.679
1157.984, 69.615
1159.213, 60.234
1160.441, 98.934
1161.670, 49.891
1162.898, 49.921
1164.126, 48.527
1165.354, 24.511
1166.581, 98.500
1167.809, 97.652
1169.036, 61.657
1170.263, 19.327
1171.490, 98.694
1172.717, 119.724
1173.943, 187.759
1175.170, 73.803
1176.396, 109.861
1177.622, 168.917
1178.848, 152.961
1180.073, 181.011
1181.299, 197.550
1182.524, 175.093
1183.749, 203.643
1184.974, 208.697
1186.199, 171.912
1187.423, 180.110
1188.648, 163.244
1189.872, 177.491
1191.096, 162.624
1192.320, 118.501
1193.543, 139.946
1194.767, 51.317
1195.990, 115.711
1197.213, 18.245
1198.436, 90.023
1199.659, 19.448
1200.881, 14.850
1202.104, 6.156
1203.326, 46.490
1204.548, 36.599
1205.770, 42.214
1206.991, 60.788
1208.213, 54.449
1209.434, 98.032
1210.655, 16.016
1211.876, 59.834
1213.096, 54.134
1214.317, 75.197
1215.537, 62.991
1216.757, 44.954
1217.977, 26.912
1219.197, 42.065
1220.417, 24.443
1221.636, 43.728
1222.855, 13.073
1224.074, 1.175
1225.293, 10.043
1226.512, 49.269
1227.731, 21.645
1228.949, 22.540
1230.167, 24.876
1231.385, 36.736
1232.603, 62.503
1233.820, 27.216
1235.038, 24.077
1236.255, 4.616
1237.472, 44.354
1238.689, 3.182
1239.906, 38.848
1241.122, 49.503
1242.338, 3.148
1243.555, 21.759
1244.771, 15.327
1245.986, 10.059
1247.202, 24.139
1248.417, 20.918
1249.633, 41.400
1250.848, 53.860
1252.063, 62.276
1253.277, 20.713
1254.492, 28.113
1255.706, 18.467
1256.920, 8.201
1258.134, 20.183
1259.348, 15.455
1260.562, 100.156
1261.775, 59.021
1262.988, 85.161
1264.201, 4.280
1265.414, 84.374
1266.627, 74.449
1267.839, 58.688
1269.052, 1.723
1270.264, 73.907
1271.476, 36.895
1272.688, 115.875
1273.899, 10.843
1275.111, 28.728
1276.322, 69.578
1277.533, 70.396
1278.744, 84.190
1279.955, 85.036
1281.165, 19.769
1282.376, 118.483
1283.586, 0.839
1284.796, 13.784
1286.006, 17.381
1287.215, 60.066
1288.425, 9.568
1289.634, 7.075
1290.843, 60.658
1292.052, 34.220
1293.261, 4.001
1294.469, 27.210
1295.678, 11.414
1296.886, 69.616
1298.094, 19.803
1299.302, 53.989
1300.509, 5.827
1301.717, 75.353
1302.924, 85.529
1304.131, 30.703
1305.338, 50.423
1306.545, 123.590
1307.752, 68.754
1308.958, 20.916
1310.164, 87.075
1311.370, 121.230
1312.576, 55.378
1313.782, 98.521
1314.987, 128.652
1316.193, 141.755
1317.398, 166.836
1318.603, 139.230
1319.807, 158.731
1321.012, 99.571
1322.216, 121.585
1323.421, 125.579
1324.625, 107.528
1325.829, 105.278
1327.032, 170.156
1328.236, 36.017
1329.439, 133.867
1330.642, 69.698
1331.845, 74.752
1333.048, 80.646
1334.251, 58.451
1335.453, 14.129
1336.656, 20.509
1337.858, 9.933
1339.060, 48.572
1340.261, 48.012
1341.463, 123.529
1342.664, 63.990
1343.866, 49.529
1345.067, 34.125
1346.267, 35.572
1347.468, 37.342
1348.669, 101.609
1349.869, 29.807
1351.069, 146.507
1352.269, 58.909
1353.469, 32.203
1354.668, 156.494
1355.868, 72.350
1357.067, 154.560
1358.266, 92.959
1359.465, 1.024
1360.664, 129.517
1361.862, 144.752
1363.061, 56.662
1364.259, 84.289
1365.457, 4.078
1366.655, 18.312
1367.852, 35.266
1369.050, 119.193
1370.247, 1.752
1371.444, 61.320
1372.641, 64.591
1373.838, 10.479
1375.035, 57.349
1376.231, 78.480
1377.427, 102.519
1378.623, 202.485
1379.819, 95.343
1381.015, 78.210
1382.211, 55.070
1383.406, 154.483
1384.601, 117.311
1385.796, 167.124
1386.991, 112.147
1388.185, 163.449
1389.380, 143.452
1390.574, 126.486
1391.768, 150.058
1392.962, 81.354
1394.156, 127.854
1395.350, 81.264
1396.543, 143.777
1397.736, 72.331
1398.929, 96.100
1400.122, 65.625
1401.315, 35.585
1402.507, 52.500
1403.700, 17.270
1404.892, 62.567
1406.084, 49.811
1407.276, 56.258
1408.467, 48.642
1409.659, 39.316
1410.850, 4.377
1412.041, 32.918
1413.232, 1.649
1414.423, 27.268
1415.614, 20.904
1416.804, 15.330
1417.994, 26.757
1419.184, 41.585
1420.374, 66.809
1421.564, 38.546
1422.753, 3.283
1423.943, 20.355
1425.132, 11.624
1426.321, 11.586
1427.510, 40.439
1428.698, 11.138
1429.887, 21.844
1431.075, 32.516
1432.263, 1.279
1433.451, 11.169
1434.639, 0.234
1435.827, 0.000
##END=



