##NAMES=Vayrynenite
##RRUFFID=R050243
##IDEAL CHEMISTRY=Mn^2+^Be(PO_4_)OH
##LOCALITY=Viitaniemi pegmatite, Erajarvi, Orivesi, Finland
##OWNER=RRUFF
##SOURCE=Marcus Origlieri
##DESCRIPTION=Pink massive with defined cleavage planes
##STATUS=The identification of this mineral has been confirmed by X-ray diffraction and chemical analysis
##URL=rruff.info/R050243
##MEASURED CHEMISTRY=(Mn^2+^_0.95_Fe^2+^_0.05_)_Σ=1_Be_1.00_(P_1.00_O_4_)((OH)_0.94_F_0.06_)_Σ=1_ ; Be not measured but estimated by difference and charge balance.
##PIN_ID=M00264
##ORIENTATION=Laser parallel to (1 0 1). Fiducial mark perpendicular to laser is parallel to b [0 1 0]
56.365, 0.000
57.765, 23.819
59.164, 36.761
60.563, 0.661
61.962, 5.061
63.360, 1.550
64.758, 4.427
66.157, 8.673
67.554, 4.211
68.952, 10.813
70.349, 1.371
71.747, 19.009
73.144, 70.607
74.540, 84.068
75.937, 143.302
77.333, 245.226
78.729, 247.767
80.125, 230.857
81.521, 315.439
82.916, 385.463
84.311, 652.887
85.706, 981.678
87.101, 1455.834
88.496, 1978.387
89.890, 2435.315
91.284, 2779.574
92.678, 3136.127
94.071, 3269.945
95.465, 3179.000
96.858, 2680.271
98.251, 1819.739
99.644, 1105.382
101.036, 796.182
102.428, 741.123
103.820, 722.195
105.212, 775.388
106.604, 911.693
107.995, 998.105
109.387, 1084.619
110.777, 1072.233
112.168, 1021.943
113.559, 966.757
114.949, 1000.753
116.339, 1152.964
117.729, 1362.721
119.119, 1634.891
120.508, 1799.301
121.897, 1982.736
123.286, 2164.167
124.675, 2473.595
126.063, 2471.024
127.452, 2181.456
128.840, 1784.895
130.228, 1365.339
131.615, 988.793
133.003, 723.256
134.390, 543.731
135.777, 404.219
137.164, 337.720
138.550, 307.238
139.937, 311.757
141.323, 283.243
142.709, 288.699
144.094, 226.139
145.480, 182.570
146.865, 179.999
148.250, 208.431
149.635, 191.870
151.019, 190.320
152.403, 175.783
153.788, 193.261
155.171, 228.757
156.555, 228.271
157.939, 249.040
159.322, 283.362
160.705, 291.972
162.088, 362.646
163.470, 431.343
164.853, 517.078
166.235, 483.838
167.617, 511.621
168.998, 489.426
170.380, 477.055
171.761, 509.869
173.142, 558.476
174.523, 703.215
175.904, 1026.646
177.284, 1514.189
178.664, 2067.463
180.044, 2650.772
181.424, 3038.112
182.803, 3529.833
184.183, 3792.820
185.562, 3830.292
186.940, 3629.792
188.319, 3068.323
189.698, 2263.884
191.076, 1610.474
192.454, 1156.092
193.831, 852.740
195.209, 722.415
196.586, 562.118
197.963, 463.849
199.340, 453.607
200.717, 433.390
202.093, 427.196
203.470, 416.025
204.846, 415.876
206.221, 464.752
207.597, 502.651
208.972, 590.575
210.347, 660.524
211.722, 641.499
213.097, 609.500
214.472, 719.526
215.846, 689.580
217.220, 788.659
218.594, 859.765
219.967, 847.897
221.341, 873.054
222.714, 818.775
224.087, 789.596
225.460, 748.480
226.832, 870.231
228.204, 1070.365
229.577, 1244.613
230.948, 1384.886
232.320, 1560.331
233.692, 1614.820
235.063, 1529.430
236.434, 1318.112
237.805, 899.861
239.175, 585.674
240.545, 380.545
241.916, 249.472
243.286, 206.452
244.655, 151.480
246.025, 88.556
247.394, 129.676
248.763, 75.838
250.132, 81.041
251.501, 117.283
252.869, 124.562
254.237, 141.877
255.605, 280.225
256.973, 332.605
258.340, 441.016
259.708, 707.457
261.075, 893.927
262.442, 1077.695
263.808, 1173.219
265.175, 1282.691
266.541, 1225.266
267.907, 1178.864
269.273, 1027.486
270.639, 774.873
272.004, 558.002
273.369, 361.692
274.734, 264.404
276.099, 191.137
277.463, 103.891
278.828, 48.666
280.192, 25.460
281.556, 15.273
282.919, 11.898
284.283, 9.645
285.646, 20.207
287.009, 5.347
288.372, 20.476
289.734, 18.597
291.097, 9.709
292.459, 16.810
293.821, 52.902
295.183, 64.992
296.544, 108.083
297.905, 81.185
299.266, 105.291
300.627, 50.406
301.988, 68.520
303.348, 46.636
304.709, 28.748
306.069, 72.854
307.428, 23.962
308.788, 33.062
310.147, 5.156
311.507, 41.762
312.865, 104.693
314.224, 158.639
315.583, 152.598
316.941, 211.571
318.299, 341.558
319.657, 502.559
321.015, 612.573
322.372, 875.601
323.729, 1098.643
325.086, 1530.698
326.443, 1925.765
327.800, 2247.846
329.156, 2469.940
330.512, 2787.047
331.868, 2783.166
333.224, 2673.298
334.579, 2501.438
335.935, 2191.581
337.290, 1909.725
338.645, 1665.874
339.999, 1413.014
341.354, 1196.121
342.708, 947.191
344.062, 783.249
345.416, 702.302
346.769, 625.355
348.123, 624.424
349.476, 539.519
350.829, 539.650
352.182, 545.806
353.534, 515.999
354.887, 530.214
356.239, 504.470
357.591, 455.747
358.942, 421.053
360.294, 414.393
361.645, 428.763
362.996, 422.159
364.347, 493.582
365.698, 595.033
367.048, 738.514
368.398, 908.017
369.748, 1143.543
371.098, 1499.089
372.448, 1968.651
373.797, 2518.232
375.146, 3172.827
376.495, 3827.439
377.844, 4374.063
379.192, 4790.704
380.540, 4876.354
381.889, 4826.019
383.236, 4291.695
384.584, 3729.384
385.932, 3074.092
387.279, 2504.819
388.626, 2018.564
389.973, 1597.232
391.319, 1260.110
392.666, 995.908
394.012, 809.723
395.358, 704.554
396.704, 631.401
398.049, 555.263
399.394, 623.140
400.740, 685.032
402.084, 645.938
403.429, 721.858
404.774, 740.792
406.118, 650.739
407.462, 637.700
408.806, 524.674
410.150, 375.661
411.493, 326.660
412.836, 263.672
414.179, 196.696
415.522, 163.733
416.865, 114.664
418.207, 88.841
419.549, 50.913
420.891, 41.996
422.233, 28.090
423.575, 42.804
424.916, 36.291
426.257, 54.603
427.598, 8.488
428.939, 6.589
430.279, 18.699
431.619, 12.180
432.959, 6.057
434.299, 33.071
435.639, 38.209
436.978, 87.356
438.318, 72.513
439.657, 121.680
440.996, 79.856
442.334, 159.042
443.673, 186.237
445.011, 240.888
446.349, 297.636
447.687, 415.943
449.024, 545.866
450.361, 694.165
451.699, 915.551
453.036, 1222.314
454.372, 1720.782
455.709, 2314.534
457.045, 3104.679
458.381, 3950.522
459.717, 4886.828
461.053, 5475.826
462.388, 6090.711
463.724, 6141.692
465.059, 5587.775
466.394, 4820.734
467.728, 3729.507
469.063, 2831.697
470.397, 2149.475
471.731, 1548.505
473.065, 1045.897
474.398, 791.298
475.732, 536.708
477.065, 402.127
478.398, 296.555
479.731, 214.991
481.063, 181.436
482.396, 173.889
483.728, 90.350
485.060, 118.819
486.391, 72.296
487.723, 86.781
489.054, 94.275
490.385, 153.775
491.716, 168.284
493.047, 228.800
494.377, 286.323
495.708, 406.854
497.038, 566.392
498.368, 797.938
499.697, 1207.491
501.027, 1761.600
502.356, 2552.746
503.685, 3417.582
505.014, 4101.536
506.342, 4711.355
507.671, 4950.976
508.999, 4609.276
510.327, 3804.703
511.655, 2949.677
512.982, 2187.471
514.310, 1635.875
515.637, 1379.665
516.964, 1043.875
518.291, 896.926
519.617, 656.134
520.944, 491.505
522.270, 366.930
523.596, 281.461
524.921, 233.799
526.247, 193.097
527.572, 263.486
528.897, 261.699
530.222, 377.571
531.547, 588.247
532.871, 887.041
534.196, 1183.162
535.520, 1501.655
536.844, 1777.759
538.167, 2049.609
539.491, 2096.392
540.814, 1821.185
542.137, 1461.982
543.460, 1116.782
544.783, 790.594
546.105, 587.410
547.427, 417.230
548.749, 348.061
550.071, 252.891
551.393, 153.721
552.714, 195.566
554.035, 183.416
555.356, 112.272
556.677, 77.127
557.998, 148.993
559.318, 153.862
560.638, 246.737
561.958, 263.612
563.278, 311.491
564.597, 372.371
565.917, 532.252
567.236, 613.130
568.555, 740.007
569.874, 802.880
571.192, 824.752
572.511, 937.622
573.829, 920.489
575.147, 834.353
576.464, 713.214
577.782, 603.072
579.099, 509.927
580.416, 438.779
581.733, 379.627
583.050, 470.199
584.366, 434.040
585.683, 547.954
586.999, 655.787
588.315, 775.617
589.630, 971.443
590.946, 1319.524
592.261, 1701.881
593.576, 2250.696
594.891, 2855.506
596.206, 3440.312
597.520, 4123.113
598.834, 4611.911
600.148, 4664.702
601.462, 4329.491
602.776, 4009.272
604.089, 3473.053
605.402, 2800.832
606.715, 2269.610
608.028, 1952.384
609.341, 1813.158
610.653, 1790.931
611.965, 1935.701
613.277, 2346.469
614.589, 2712.244
615.901, 3242.026
617.212, 3640.826
618.523, 3898.638
619.834, 3924.467
621.145, 3524.300
622.456, 2974.142
623.766, 2449.988
625.076, 1871.834
626.386, 1514.689
627.696, 1154.542
629.006, 965.397
630.315, 798.247
631.624, 716.089
632.933, 658.924
634.242, 734.752
635.551, 806.573
636.859, 885.385
638.167, 970.190
639.475, 986.988
640.783, 1023.777
642.090, 916.559
643.398, 772.332
644.705, 666.097
646.012, 552.854
647.318, 441.133
648.625, 346.226
649.931, 250.075
651.237, 183.797
652.543, 120.512
653.849, 98.217
655.155, 100.913
656.460, 65.601
657.765, 2.721
659.070, 20.933
660.375, 13.428
661.679, 31.181
662.984, 28.224
664.288, 24.667
665.592, 19.147
666.895, 52.661
668.199, 13.228
669.502, 57.826
670.805, 3.479
672.108, 73.073
673.411, 0.183
674.713, 28.588
676.016, 46.497
677.318, 32.800
678.620, 17.509
679.921, 18.807
681.223, 30.245
682.524, 27.618
683.825, 3.625
685.126, 9.462
686.427, 15.415
687.727, 22.772
689.028, 22.003
690.328, 54.920
691.628, 38.672
692.927, 58.454
694.227, 78.028
695.526, 98.814
696.825, 105.488
698.124, 175.607
699.423, 184.931
700.721, 255.154
702.020, 302.636
703.318, 373.072
704.616, 451.907
705.913, 489.634
707.211, 459.267
708.508, 489.349
709.805, 399.940
711.102, 405.053
712.399, 314.703
713.695, 327.923
714.992, 302.054
716.288, 361.501
717.584, 317.024
718.879, 366.013
720.175, 411.819
721.470, 466.799
722.765, 559.265
724.060, 631.717
725.355, 695.154
726.649, 813.660
727.944, 972.086
729.238, 1110.481
730.532, 1390.861
731.825, 1578.226
733.119, 1950.578
734.412, 2298.914
735.705, 2568.237
736.998, 2884.545
738.291, 3126.840
739.584, 3337.129
740.876, 3298.405
742.168, 3229.681
743.460, 3007.942
744.752, 2600.188
746.043, 2315.421
747.334, 2004.644
748.626, 1804.855
749.916, 1533.052
751.207, 1296.235
752.498, 1121.404
753.788, 1012.559
755.078, 923.700
756.368, 779.826
757.658, 653.939
758.947, 629.038
760.237, 580.123
761.526, 544.194
762.815, 518.251
764.104, 493.295
765.392, 470.240
766.680, 450.316
767.969, 433.342
769.257, 415.330
770.544, 399.305
771.832, 385.265
773.119, 331.212
774.406, 349.144
775.693, 344.063
776.980, 330.968
778.267, 272.858
779.553, 298.735
780.839, 319.598
782.125, 332.447
783.411, 369.282
784.697, 402.103
785.982, 440.910
787.267, 459.703
788.552, 502.482
789.837, 571.248
791.122, 558.000
792.406, 656.738
793.690, 685.462
794.974, 775.174
796.258, 838.872
797.542, 915.556
798.825, 990.227
800.108, 969.885
801.391, 960.531
802.674, 833.163
803.957, 717.782
805.239, 615.388
806.522, 422.982
807.804, 388.350
809.085, 275.381
810.367, 378.686
811.649, 292.229
812.930, 498.211
814.211, 351.582
815.492, 607.396
816.772, 168.519
818.053, 107.772
819.333, 95.219
820.613, 105.982
821.893, 68.615
823.173, 76.696
824.452, 75.952
825.732, 41.595
827.011, 65.846
828.290, 2.673
829.568, 2.649
830.847, 6.459
832.125, 14.100
833.403, 1.680
834.681, 29.854
835.959, 49.210
837.236, 13.547
838.514, 16.015
839.791, 16.747
841.068, 19.184
842.345, 49.930
843.621, 61.813
844.898, 28.046
846.174, 4.335
847.450, 10.900
848.726, 2.112
850.001, 29.816
851.277, 5.767
852.552, 9.728
853.827, 40.700
855.102, 13.700
856.376, 13.713
857.651, 36.739
858.925, 0.788
860.199, 18.157
861.473, 58.902
862.746, 19.996
864.020, 29.102
865.293, 1.227
866.566, 48.357
867.839, 15.513
869.112, 37.679
870.384, 11.134
871.656, 32.056
872.928, 10.263
874.200, 15.476
875.472, 11.304
876.744, 23.082
878.015, 28.857
879.286, 3.369
880.557, 0.401
881.828, 78.169
883.098, 63.937
884.369, 116.702
885.639, 79.467
886.909, 114.231
888.178, 74.994
889.448, 169.756
890.717, 189.519
891.987, 285.280
893.256, 224.041
894.524, 324.802
895.793, 302.564
897.061, 318.325
898.330, 296.087
899.598, 271.849
900.865, 239.611
902.133, 231.179
903.401, 216.138
904.668, 198.903
905.935, 223.669
907.202, 184.437
908.468, 183.205
909.735, 134.974
911.001, 133.200
912.267, 179.528
913.533, 142.307
914.799, 119.089
916.064, 169.872
917.330, 178.658
918.595, 162.447
919.860, 151.241
921.124, 113.037
922.389, 183.836
923.653, 148.638
924.918, 202.443
926.182, 216.251
927.445, 232.063
928.709, 229.877
929.972, 304.696
931.236, 289.518
932.499, 348.344
933.761, 384.173
935.024, 410.007
936.286, 458.844
937.549, 443.687
938.811, 502.533
940.073, 430.384
941.334, 492.245
942.596, 411.111
943.857, 443.982
945.118, 509.858
946.379, 499.740
947.640, 516.634
948.900, 522.538
950.161, 589.458
951.421, 593.385
952.681, 624.317
953.940, 644.255
955.200, 686.202
956.459, 784.155
957.719, 829.116
958.978, 962.084
960.236, 1015.059
961.495, 1176.042
962.753, 1204.032
964.012, 1362.034
965.270, 1579.058
966.527, 1635.105
967.785, 1829.170
969.043, 1989.244
970.300, 2287.344
971.557, 2534.465
972.814, 2813.605
974.071, 3236.775
975.327, 3769.966
976.583, 4430.187
977.840, 5227.340
979.095, 6388.612
980.351, 7539.918
981.607, 8676.344
982.862, 10048.148
984.117, 10919.347
985.372, 11473.129
986.627, 11767.035
987.882, 10746.871
989.136, 10101.075
990.390, 9275.604
991.644, 8578.153
992.898, 8570.231
994.152, 8647.424
995.405, 9334.926
996.659, 10664.589
997.912, 12654.227
999.165, 16005.065
1000.417, 20770.697
1001.670, 27949.445
1002.922, 36134.754
1004.174, 46369.875
1005.426, 51864.090
1006.678, 53424.055
1007.930, 48344.074
1009.181, 40295.691
1010.432, 31883.436
1011.683, 24694.270
1012.934, 19251.666
1014.185, 15131.557
1015.435, 12150.919
1016.685, 9961.746
1017.935, 8178.002
1019.185, 6907.348
1020.435, 6051.376
1021.684, 5175.326
1022.934, 4544.811
1024.183, 4190.480
1025.432, 3779.979
1026.680, 3379.001
1027.929, 3084.037
1029.177, 2777.086
1030.425, 2612.065
1031.673, 2503.131
1032.921, 2352.229
1034.169, 2258.350
1035.416, 2160.488
1036.663, 2068.640
1037.911, 2134.806
1039.157, 2117.987
1040.404, 2037.183
1041.650, 2037.402
1042.897, 1896.640
1044.143, 1926.892
1045.389, 1748.162
1046.634, 1590.448
1047.880, 1446.747
1049.125, 1323.061
1050.371, 1138.392
1051.615, 1068.736
1052.860, 1000.097
1054.105, 832.473
1055.349, 881.861
1056.593, 789.266
1057.837, 739.685
1059.081, 749.119
1060.325, 788.486
1061.568, 791.946
1062.812, 836.419
1064.055, 896.908
1065.298, 1010.409
1066.540, 1245.988
1067.783, 1483.515
1069.025, 1823.581
1070.267, 2322.132
1071.509, 2977.696
1072.751, 3426.275
1073.993, 3886.867
1075.234, 3945.473
1076.475, 3467.092
1077.716, 2894.723
1078.957, 2219.366
1080.198, 1694.023
1081.438, 1383.692
1082.679, 1126.373
1083.919, 898.066
1085.159, 703.772
1086.398, 618.490
1087.638, 570.219
1088.877, 447.996
1090.116, 435.846
1091.355, 369.612
1092.594, 386.443
1093.833, 336.258
1095.071, 292.058
1096.309, 314.569
1097.547, 304.259
1098.785, 330.577
1100.023, 246.424
1101.260, 339.364
1102.498, 300.232
1103.735, 362.685
1104.972, 319.575
1106.208, 388.902
1107.445, 313.855
1108.681, 348.887
1109.918, 349.206
1111.154, 449.147
1112.389, 454.176
1113.625, 564.821
1114.860, 677.828
1116.096, 828.816
1117.331, 1149.974
1118.566, 1456.690
1119.800, 1964.698
1121.035, 2867.882
1122.269, 4272.011
1123.503, 6065.265
1124.737, 8176.538
1125.971, 9331.638
1127.205, 8830.944
1128.438, 7194.003
1129.671, 5274.274
1130.904, 3889.776
1132.137, 2786.285
1133.370, 2137.356
1134.602, 1651.606
1135.834, 1473.707
1137.066, 1266.052
1138.298, 1291.293
1139.530, 1366.700
1140.762, 1295.964
1141.993, 1345.294
1143.224, 1144.737
1144.455, 1025.241
1145.686, 865.728
1146.917, 735.613
1148.147, 595.073
1149.377, 495.231
1150.607, 361.353
1151.837, 295.322
1153.067, 210.596
1154.296, 190.032
1155.526, 133.760
1156.755, 123.646
1157.984, 100.635
1159.213, 108.179
1160.441, 83.281
1161.670, 80.363
1162.898, 46.937
1164.126, 111.628
1165.354, 51.360
1166.581, 114.883
1167.809, 88.439
1169.036, 123.955
1170.263, 44.524
1171.490, 91.899
1172.717, 137.417
1173.943, 78.097
1175.170, 159.875
1176.396, 61.360
1177.622, 72.054
1178.848, 125.281
1180.073, 153.985
1181.299, 82.934
1182.524, 175.031
1183.749, 88.880
1184.974, 77.413
1186.199, 151.536
1187.423, 106.248
1188.648, 123.809
1189.872, 101.975
1191.096, 51.519
1192.320, 47.153
1193.543, 65.047
1194.767, 65.724
1195.990, 49.460
1197.213, 58.775
1198.436, 15.431
1199.659, 52.500
1200.881, 89.454
1202.104, 38.956
1203.326, 53.978
1204.548, 13.750
1205.770, 9.541
1206.991, 34.004
1208.213, 41.488
1209.434, 8.104
1210.655, 7.037
1211.876, 23.396
1213.096, 5.199
1214.317, 41.071
1215.537, 21.517
1216.757, 8.728
1217.977, 16.012
1219.197, 47.073
1220.417, 62.635
1221.636, 63.049
1222.855, 37.687
1224.074, 32.944
1225.293, 12.388
1226.512, 9.796
1227.731, 41.159
1228.949, 23.458
1230.167, 44.698
1231.385, 65.023
1232.603, 57.394
1233.820, 60.703
1235.038, 6.843
1236.255, 26.878
1237.472, 74.432
1238.689, 6.896
1239.906, 14.977
1241.122, 59.102
1242.338, 33.710
1243.555, 19.546
1244.771, 45.010
1245.986, 31.056
1247.202, 10.294
1248.417, 34.416
1249.633, 11.491
1250.848, 51.628
1252.063, 7.426
1253.277, 26.512
1254.492, 11.466
1255.706, 5.402
1256.920, 44.698
1258.134, 16.395
1259.348, 25.515
1260.562, 46.529
1261.775, 44.293
1262.988, 7.214
1264.201, 8.002
1265.414, 57.761
1266.627, 10.934
1267.839, 27.467
1269.052, 3.977
1270.264, 3.657
1271.476, 44.349
1272.688, 3.978
1273.899, 40.248
1275.111, 13.312
1276.322, 14.142
1277.533, 13.615
1278.744, 21.989
1279.955, 31.493
1281.165, 37.056
1282.376, 20.482
1283.586, 5.994
1284.796, 16.371
1286.006, 21.281
1287.215, 36.037
1288.425, 19.325
1289.634, 15.586
1290.843, 6.179
1292.052, 11.180
1293.261, 9.185
1294.469, 0.523
1295.678, 30.142
1296.886, 12.044
1298.094, 14.970
1299.302, 47.072
1300.509, 5.903
1301.717, 23.902
1302.924, 40.929
1304.131, 33.004
1305.338, 10.085
1306.545, 7.798
1307.752, 34.658
1308.958, 23.498
1310.164, 21.315
1311.370, 52.112
1312.576, 45.886
1313.782, 58.638
1314.987, 46.370
1316.193, 6.075
1317.398, 3.755
1318.603, 14.593
1319.807, 26.029
1321.012, 72.627
1322.216, 34.201
1323.421, 6.247
1324.625, 34.274
1325.829, 17.229
1327.032, 16.237
1328.236, 25.677
1329.439, 63.094
1330.642, 16.581
1331.845, 35.951
1333.048, 9.703
1334.251, 3.201
1335.453, 59.896
1336.656, 6.158
1337.858, 26.394
1339.060, 40.607
1340.261, 35.797
1341.463, 13.962
1342.664, 43.103
1343.866, 21.222
1345.067, 25.474
1346.267, 65.391
1347.468, 23.443
1348.669, 34.472
1349.869, 33.479
1351.069, 73.463
1352.269, 60.506
1353.469, 44.449
1354.668, 26.371
1355.868, 89.312
1357.067, 77.191
1358.266, 107.987
1359.465, 72.947
1360.664, 110.239
1361.862, 99.106
1363.061, 21.888
1364.259, 47.919
1365.457, 67.120
1366.655, 41.843
1367.852, 101.547
1369.050, 60.233
1370.247, 63.902
1371.444, 71.562
1372.641, 85.194
1373.838, 97.805
1375.035, 75.397
1376.231, 64.869
1377.427, 75.310
1378.623, 113.718
1379.819, 78.051
1381.015, 66.272
1382.211, 48.555
1383.406, 136.746
1384.601, 101.937
1385.796, 84.129
1386.991, 83.590
1388.185, 37.065
1389.380, 98.935
1390.574, 62.271
1391.768, 83.682
1392.962, 90.028
1394.156, 80.725
1395.350, 112.472
1396.543, 146.018
1397.736, 107.943
1398.929, 66.319
1400.122, 70.461
1401.315, 120.743
1402.507, 143.723
1403.700, 80.022
1404.892, 117.070
1406.084, 79.812
1407.276, 141.633
1408.467, 110.303
1409.659, 131.962
1410.850, 137.257
1412.041, 102.530
1413.232, 103.988
1414.423, 92.435
1415.614, 121.378
1416.804, 50.333
1417.994, 101.925
1419.184, 142.973
1420.374, 113.021
1421.564, 63.311
1422.753, 125.406
1423.943, 138.377
1425.132, 60.267
1426.321, 55.789
1427.510, 122.172
1428.698, 80.858
1429.887, 90.882
1431.075, 83.456
1432.263, 89.726
1433.451, 143.142
1434.639, 39.132
1435.827, 105.175
1437.014, 92.022
1438.201, 29.539
1439.388, 72.888
1440.575, 99.119
1441.762, 87.259
1442.949, 82.589
1444.135, 93.964
1445.321, 72.499
1446.507, 91.036
1447.693, 127.432
1448.879, 114.327
1450.064, 73.979
1451.250, 141.935
1452.435, 113.473
1453.620, 120.348
1454.805, 161.810
1455.989, 147.201
1457.174, 148.906
1458.358, 187.636
1459.542, 155.078
1460.726, 130.292
1461.910, 132.771
1463.093, 115.453
1464.277, 130.203
1465.460, 94.750
1466.643, 86.990
1467.826, 105.246
1469.009, 87.744
1470.191, 133.173
1471.373, 65.621
1472.556, 26.777
1473.738, 163.414
1474.919, 152.664
1476.101, 78.219
1477.283, 116.112
1478.464, 133.709
1479.645, 99.332
1480.826, 66.029
1482.007, 82.282
1483.187, 114.370
1484.368, 179.089
1485.548, 52.805
1486.728, 82.475
1487.908, 62.167
1489.088, 157.853
1490.268, 88.528
1491.447, 118.199
1492.626, 115.877
1493.805, 51.591
1494.984, 83.326
1496.163, 96.082
1497.341, 27.873
1498.520, 50.697
1499.698, 100.548
1500.876, 13.938
1502.054, 80.842
1503.232, 20.804
1504.409, 58.792
1505.586, 13.156
1506.763, 0.059
1507.940, 101.080
1509.117, 70.265
1510.294, 67.509
1511.470, 73.818
1512.647, 34.807
1513.823, 79.233
1514.999, 99.409
1516.174, 104.092
1517.350, 92.526
1518.526, 88.850
1519.701, 59.912
1520.876, 75.592
1522.051, 11.245
1523.226, 9.967
1524.400, 5.181
1525.574, 0.143
1526.749, 0.000
##END=



