##NAMES=Vesuvianite
##RRUFFID=R050035
##IDEAL CHEMISTRY=(Ca,Na)_19_(Al,Mg,Fe^3+^)_13_(SiO_4_)_10_(Si_2_O_7_)_4_(OH,F,O)_10_
##LOCALITY=Olmsteadville, New York, USA
##OWNER=RRUFF
##SOURCE=University of Arizona Mineral Museum
##DESCRIPTION=Brown single crystal fragment
##STATUS=The identification of this mineral has been confirmed by X-ray diffraction and chemical analysis
##URL=rruff.info/R050035
##MEASURED CHEMISTRY=(Ca_18.66_Na_0.34_)_Σ=19_(Al_9.16_Mg_1.28_Ti_1.21_Fe^3+^_0.89_Fe^2+^_0.46_)_Σ=13_Si_18_O_68_((OH)_4.70_F_3.18_O_2.12_)_Σ=10_
##PIN_ID=L00076
##ORIENTATION=Laser parallel to c* (0 0 1). Fiducial mark perpendicular to laser is parallel to a [1 0 0]
148.691, 0.000
150.080, 4.737
151.469, 12.165
152.858, 14.366
154.247, 64.768
155.635, 17.886
157.024, 32.409
158.411, 5.153
159.799, 172.972
161.187, 176.578
162.574, 193.907
163.961, 345.578
165.348, 353.455
166.734, 505.416
168.121, 407.360
169.507, 522.196
170.893, 457.850
172.278, 571.261
173.664, 633.382
175.049, 642.494
176.434, 620.827
177.819, 681.736
179.203, 785.186
180.587, 820.139
181.971, 970.563
183.355, 982.430
184.739, 1003.712
186.122, 1004.382
187.505, 904.419
188.888, 706.801
190.271, 710.509
191.653, 546.529
193.035, 411.875
194.417, 314.563
195.799, 212.479
197.180, 158.901
198.562, 79.498
199.943, 3.352
201.324, 29.465
202.704, 104.772
204.084, 11.317
205.465, 147.073
206.844, 304.029
208.224, 397.180
209.603, 446.515
210.983, 514.029
212.362, 744.715
213.740, 932.563
215.119, 1157.571
216.497, 1251.730
217.875, 1536.036
219.253, 1520.482
220.631, 1855.062
222.008, 1609.770
223.385, 1634.601
224.762, 1469.551
226.139, 1214.615
227.515, 1029.787
228.891, 881.063
230.267, 776.439
231.643, 621.933
233.018, 502.515
234.394, 626.377
235.769, 596.611
237.144, 504.216
238.518, 574.158
239.893, 575.293
241.267, 403.486
242.641, 538.679
244.014, 412.860
245.388, 441.039
246.761, 444.225
248.134, 542.430
249.507, 542.664
250.879, 703.939
252.252, 859.267
253.624, 794.656
254.996, 924.113
256.367, 891.641
257.739, 731.235
259.110, 599.896
260.481, 585.625
261.852, 421.420
263.222, 201.278
264.592, 206.198
265.962, 85.182
267.332, 117.224
268.702, 90.308
270.071, 23.481
271.440, 100.693
272.809, 92.958
274.178, 121.275
275.546, 200.558
276.915, 264.175
278.283, 349.520
279.650, 468.028
281.018, 542.580
282.385, 655.172
283.752, 716.805
285.119, 913.476
286.486, 922.184
287.852, 1010.927
289.218, 1029.704
290.584, 988.514
291.950, 992.775
293.316, 976.226
294.681, 885.125
296.046, 744.050
297.411, 636.001
298.775, 537.975
300.140, 489.973
301.504, 422.990
302.868, 369.028
304.231, 375.086
305.595, 325.160
306.958, 333.251
308.321, 466.356
309.684, 426.476
311.047, 419.608
312.409, 733.751
313.771, 716.060
315.133, 949.413
316.495, 1019.898
317.856, 1217.139
319.217, 1459.581
320.578, 1517.127
321.939, 1760.504
323.299, 1995.643
324.660, 2064.020
326.020, 2183.937
327.380, 2356.067
328.739, 2331.268
330.099, 2321.631
331.458, 2410.221
332.817, 2239.043
334.176, 2176.601
335.534, 1934.232
336.892, 1841.979
338.251, 1759.849
339.608, 1547.836
340.966, 1485.996
342.323, 1354.320
343.681, 1532.845
345.037, 1511.591
346.394, 1410.539
347.751, 1479.693
349.107, 1359.091
350.463, 1388.696
351.819, 1608.531
353.174, 1528.579
354.530, 1578.850
355.885, 1539.327
357.240, 1579.983
358.594, 1710.798
359.949, 1641.716
361.303, 1822.693
362.657, 1903.707
364.011, 1904.751
365.365, 2155.604
366.718, 2306.701
368.071, 2337.824
369.424, 2428.971
370.777, 2580.141
372.129, 2531.332
373.481, 2512.545
374.833, 2413.776
376.185, 2275.027
377.537, 2106.295
378.888, 1847.580
380.239, 1718.880
381.590, 1460.195
382.941, 1301.526
384.291, 1182.869
385.642, 1064.354
386.992, 1020.611
388.341, 966.969
389.691, 1008.356
391.040, 1039.754
392.389, 1101.160
393.738, 1242.573
395.087, 1333.994
396.435, 1545.421
397.784, 1556.854
399.132, 1788.287
400.479, 2009.724
401.827, 2121.158
403.174, 2532.590
404.521, 2684.021
405.868, 2955.449
407.215, 2946.873
408.561, 3158.295
409.908, 3479.713
411.254, 3441.127
412.599, 3682.537
413.945, 3333.941
415.290, 3365.343
416.636, 3146.739
417.980, 2858.129
419.325, 2609.512
420.670, 2270.888
422.014, 1912.255
423.358, 1653.615
424.702, 1414.967
426.045, 1166.311
427.389, 1037.645
428.732, 867.968
430.075, 652.281
431.417, 441.584
432.760, 363.575
434.102, 243.193
435.444, 272.420
436.786, 112.675
438.127, 181.916
439.469, 97.145
440.810, 100.358
442.151, 161.559
443.492, 79.744
444.832, 102.914
446.172, 159.069
447.512, 212.208
448.852, 307.332
450.192, 225.438
451.531, 260.527
452.870, 205.602
454.209, 297.658
455.548, 350.695
456.887, 259.716
458.225, 231.718
459.563, 239.701
460.901, 211.667
462.238, 263.611
463.576, 186.538
464.913, 181.445
466.250, 170.333
467.587, 235.200
468.923, 97.048
470.259, 160.874
471.596, 31.680
472.931, 50.463
474.267, 50.776
475.603, 19.935
476.938, 54.373
478.273, 167.731
479.608, 81.203
480.942, 172.743
482.276, 250.397
483.611, 116.213
484.944, 165.119
486.278, 187.145
487.612, 58.298
488.945, 107.517
490.278, 23.825
491.611, 9.816
492.943, 7.426
494.276, 150.178
495.608, 284.736
496.940, 259.855
498.271, 259.499
499.603, 485.353
500.934, 641.717
502.265, 699.975
503.596, 1007.869
504.927, 1044.888
506.257, 1186.632
507.587, 1301.440
508.917, 1305.291
510.247, 1451.502
511.577, 1473.261
512.906, 1590.851
514.235, 1541.875
515.564, 1588.952
516.892, 1519.929
518.221, 1453.271
519.549, 1599.950
520.877, 1430.170
522.205, 1300.156
523.533, 1385.973
524.860, 1231.736
526.187, 1223.445
527.514, 1144.103
528.841, 1226.705
530.167, 1148.253
531.493, 1170.746
532.820, 1104.187
534.145, 1320.571
535.471, 1101.901
536.796, 1338.179
538.122, 1238.400
539.447, 1378.568
540.771, 1308.682
542.096, 1414.740
543.420, 1328.745
544.744, 1327.694
546.068, 1622.590
547.392, 1520.432
548.715, 1608.217
550.039, 1545.950
551.362, 1533.628
552.684, 1551.252
554.007, 1548.822
555.329, 1347.337
556.652, 1563.798
557.973, 1281.206
559.295, 1320.561
560.617, 1300.860
561.938, 1174.106
563.259, 1161.300
564.580, 1119.439
565.901, 1144.527
567.221, 1144.561
568.541, 947.541
569.861, 1091.470
571.181, 970.346
572.501, 1031.170
573.820, 985.942
575.139, 892.661
576.458, 1111.329
577.777, 880.945
579.095, 974.510
580.414, 985.023
581.732, 1130.486
583.049, 1128.898
584.367, 1269.260
585.685, 1210.570
587.002, 1314.831
588.319, 1397.043
589.636, 1473.205
590.952, 1639.317
592.268, 1755.382
593.585, 1871.395
594.900, 1897.361
596.216, 2023.280
597.532, 2169.149
598.847, 2444.972
600.162, 2430.746
601.477, 2726.473
602.792, 2712.154
604.106, 2847.789
605.420, 3013.377
606.734, 3058.918
608.048, 3114.416
609.361, 3139.866
610.675, 3265.273
611.988, 3190.634
613.301, 3185.952
614.614, 3271.225
615.926, 3186.455
617.238, 3261.643
618.550, 3016.786
619.862, 3011.888
621.174, 2776.949
622.485, 2601.969
623.797, 2586.947
625.108, 2401.888
626.418, 2256.788
627.729, 2211.651
629.039, 2006.476
630.349, 1821.264
631.659, 1606.014
632.969, 1636.621
634.279, 1531.007
635.588, 1471.221
636.897, 1414.454
638.206, 1292.923
639.515, 1145.659
640.823, 1050.204
642.131, 900.561
643.439, 820.541
644.747, 746.071
646.055, 639.466
647.362, 602.870
648.669, 331.181
649.976, 412.335
651.283, 148.316
652.589, 237.620
653.896, 40.095
655.202, 82.916
656.508, 104.862
657.814, 306.945
659.119, 276.270
660.424, 432.815
661.729, 517.664
663.034, 468.858
664.339, 489.371
665.643, 637.211
666.947, 519.453
668.251, 612.032
669.555, 549.996
670.859, 609.310
672.162, 551.243
673.465, 459.036
674.768, 390.364
676.071, 193.946
677.373, 32.677
678.676, 41.534
679.978, 211.725
681.280, 261.911
682.581, 642.094
683.883, 875.271
685.184, 1064.447
686.485, 1723.621
687.786, 2172.794
689.087, 2641.968
690.387, 3371.141
691.687, 3800.316
692.987, 4349.494
694.287, 4668.674
695.586, 4667.859
696.886, 4357.051
698.185, 3776.246
699.484, 3155.447
700.783, 2784.656
702.081, 2313.873
703.379, 1753.100
704.677, 1272.334
705.975, 1011.579
707.273, 1000.836
708.570, 850.104
709.868, 659.384
711.165, 552.679
712.462, 737.986
713.758, 717.311
715.055, 666.649
716.351, 1046.004
717.647, 1165.378
718.943, 1444.769
720.238, 1634.180
721.533, 2063.609
722.829, 2443.059
724.124, 2712.530
725.418, 3322.023
726.713, 3861.538
728.007, 4291.078
729.301, 5080.643
730.595, 5410.230
731.889, 6559.844
733.182, 7079.484
734.476, 7559.150
735.769, 8738.844
737.061, 9508.571
738.354, 10148.323
739.647, 11078.107
740.939, 11957.922
742.231, 12667.768
743.523, 13647.644
744.814, 14017.556
746.106, 14927.499
747.397, 15387.481
748.688, 15877.495
749.978, 16527.543
751.269, 16577.631
752.559, 16487.756
753.849, 16097.915
755.139, 15780.797
756.429, 15448.358
757.719, 14718.636
759.008, 14088.956
760.297, 13429.318
761.586, 12339.721
762.875, 11560.170
764.163, 10950.659
765.451, 9961.192
766.739, 9281.771
768.027, 9052.396
769.315, 8253.078
770.602, 7783.814
771.890, 7764.646
773.177, 7465.537
774.463, 7546.506
775.750, 7347.565
777.036, 7308.705
778.323, 7349.969
779.609, 7191.312
780.894, 7141.719
782.180, 7030.134
783.465, 6915.960
784.750, 6737.741
786.035, 6599.641
787.320, 6391.650
788.605, 6113.803
789.889, 5886.049
791.173, 5818.395
792.457, 5490.898
793.741, 5253.549
795.024, 5346.371
796.307, 4949.362
797.591, 4712.536
798.873, 4855.896
800.156, 4619.422
801.439, 4433.106
802.721, 4116.956
804.003, 4140.919
805.285, 3895.010
806.566, 3879.041
807.848, 3743.358
809.129, 3499.230
810.410, 3462.655
811.691, 3364.953
812.971, 3054.811
814.252, 3276.822
815.532, 3099.242
816.812, 3206.586
818.092, 2877.248
819.371, 2886.895
820.651, 2847.544
821.930, 2675.879
823.209, 2598.712
824.488, 2505.761
825.766, 2339.422
827.045, 2347.078
828.323, 2190.902
829.601, 2249.418
830.878, 2140.681
832.156, 2022.472
833.433, 2168.555
834.710, 2054.876
835.987, 2121.331
837.264, 2097.894
838.540, 2234.600
839.817, 2221.411
841.093, 2208.332
842.369, 2345.402
843.644, 2362.582
844.920, 2559.882
846.195, 2497.295
847.470, 2794.812
848.745, 2812.441
850.020, 3040.176
851.294, 3128.014
852.568, 3305.902
853.842, 3484.035
855.116, 3682.205
856.390, 3960.484
857.663, 4148.869
858.936, 4357.371
860.209, 4493.548
861.482, 4484.709
862.755, 4753.547
864.027, 4632.494
865.299, 4841.553
866.571, 4940.723
867.843, 4929.998
869.115, 5159.382
870.386, 4688.876
871.657, 5018.476
872.928, 4838.185
874.199, 4907.998
875.470, 4837.918
876.740, 4587.945
878.010, 4888.078
879.280, 4538.317
880.550, 4538.662
881.820, 4319.111
883.089, 4549.663
884.358, 4330.320
885.627, 4341.082
886.896, 4111.947
888.164, 4232.915
889.433, 4173.987
890.701, 4105.163
891.969, 3986.441
893.236, 3827.825
894.504, 3809.309
895.771, 3790.896
897.038, 3682.586
898.305, 3904.377
899.572, 3646.271
900.838, 3608.264
902.105, 3960.358
903.371, 3742.554
904.637, 3864.849
905.902, 3847.243
907.168, 4109.738
908.433, 4322.328
909.698, 4545.018
910.963, 4777.337
912.228, 4880.692
913.492, 5173.676
914.757, 5356.756
916.021, 5449.932
917.285, 6053.207
918.548, 6226.576
919.812, 6710.042
921.075, 6825.797
922.338, 7120.622
923.601, 7473.869
924.864, 7590.158
926.126, 7629.164
927.388, 8122.438
928.650, 7982.738
929.912, 7782.862
931.174, 7992.980
932.435, 7878.352
933.697, 7883.078
934.958, 8060.247
936.218, 7860.742
937.479, 8078.777
938.739, 7926.633
940.000, 7875.590
941.260, 7817.977
942.520, 7776.490
943.779, 8102.175
945.039, 8080.905
946.298, 8178.896
947.557, 8402.450
948.816, 8356.286
950.074, 8498.795
951.333, 8404.646
952.591, 8357.064
953.849, 8407.218
955.107, 8400.647
956.365, 8409.215
957.622, 8525.532
958.879, 8431.436
960.136, 8353.065
961.393, 7875.854
962.650, 8169.475
963.906, 7820.717
965.162, 7437.576
966.418, 7434.254
967.674, 6771.068
968.930, 6658.098
970.185, 6325.329
971.441, 6022.770
972.696, 5660.452
973.950, 5458.346
975.205, 5216.475
976.459, 4965.176
977.714, 4904.023
978.968, 4636.861
980.222, 4528.055
981.475, 4346.321
982.729, 4418.849
983.982, 4010.684
985.235, 3854.778
986.488, 3771.011
987.740, 3471.853
988.993, 3520.914
990.245, 3251.273
991.497, 3062.422
992.749, 3033.054
994.000, 2663.562
995.252, 2657.755
996.503, 2459.518
997.754, 2339.912
999.005, 2431.309
1000.256, 2321.918
1001.506, 2312.342
1002.756, 2275.510
1004.006, 2126.084
1005.256, 2246.973
1006.506, 2248.338
1007.755, 2178.831
1009.005, 2262.025
1010.254, 2204.367
1011.502, 2534.625
1012.751, 2388.053
1014.000, 2479.260
1015.248, 2401.324
1016.496, 2443.052
1017.744, 2644.107
1018.991, 2555.098
1020.239, 2546.959
1021.486, 2667.618
1022.733, 2559.396
1023.980, 2579.816
1025.227, 2600.912
1026.473, 2642.200
1027.719, 2643.229
1028.965, 2694.230
1030.211, 2554.975
1031.457, 2785.435
1032.702, 2566.361
1033.948, 2757.258
1035.193, 2787.655
1036.438, 2958.368
1037.682, 3189.115
1038.927, 3499.859
1040.171, 3730.647
1041.415, 4171.213
1042.659, 4422.262
1043.903, 4662.568
1045.146, 4693.213
1046.390, 4683.988
1047.633, 4274.650
1048.876, 4065.092
1050.118, 3605.611
1051.361, 3215.854
1052.603, 2556.638
1053.845, 2366.678
1055.087, 1977.036
1056.329, 1377.416
1057.571, 1437.539
1058.812, 1007.675
1060.053, 947.910
1061.294, 657.834
1062.535, 480.280
1063.775, 413.203
1065.016, 172.195
1066.256, 115.295
1067.496, 110.394
1068.736, 38.182
1069.975, 84.078
1071.214, 51.180
1072.454, 208.969
1073.693, 80.407
1074.931, 128.802
1076.170, 191.426
1077.408, 138.173
1078.647, 288.863
1079.885, 123.666
1081.122, 201.723
1082.360, 185.806
1083.597, 219.192
1084.835, 266.734
1086.072, 222.186
1087.308, 214.070
1088.545, 226.342
1089.781, 116.556
1091.018, 49.855
1092.254, 159.114
1093.490, 202.669
1094.725, 186.128
1095.961, 110.605
1097.196, 281.530
1098.431, 232.266
1099.666, 133.448
1100.900, 233.738
1102.135, 193.329
1103.369, 81.967
1104.603, 159.706
1105.837, 119.823
1107.071, 109.174
1108.304, 196.542
1109.538, 51.113
1110.771, 59.773
1112.004, 17.125
1113.236, 127.114
1114.469, 214.965
1115.701, 311.005
1116.933, 348.307
1118.165, 527.667
1119.397, 449.805
1120.629, 471.805
1121.860, 305.396
1123.091, 412.991
1124.322, 198.534
1125.553, 225.327
1126.783, 31.884
1128.014, 75.853
1129.244, 22.158
1130.474, 28.151
1131.704, 79.371
1132.933, 34.269
1134.163, 1.132
1135.392, 129.289
1136.621, 37.820
1137.850, 176.963
1139.079, 133.525
1140.307, 54.135
1141.535, 187.309
1142.763, 61.417
1143.991, 130.615
1145.219, 227.997
1146.446, 155.928
1147.674, 219.163
1148.901, 255.257
1150.128, 108.511
1151.354, 246.934
1152.581, 217.517
1153.807, 189.533
1155.033, 291.715
1156.259, 126.682
1157.485, 158.800
1158.710, 377.143
1159.936, 130.632
1161.161, 232.350
1162.386, 189.202
1163.611, 210.073
1164.835, 267.089
1166.060, 280.447
1167.284, 215.167
1168.508, 354.443
1169.732, 230.039
1170.955, 423.527
1172.179, 299.214
1173.402, 280.334
1174.625, 315.769
1175.848, 323.018
1177.070, 376.763
1178.293, 449.388
1179.515, 344.021
1180.737, 353.487
1181.959, 476.728
1183.181, 404.076
1184.402, 398.659
1185.624, 402.349
1186.845, 393.394
1188.066, 449.050
1189.286, 352.186
1190.507, 514.426
1191.727, 434.615
1192.947, 404.151
1194.167, 432.311
1195.387, 485.286
1196.607, 466.727
1197.826, 532.149
1199.045, 402.388
1200.264, 585.229
1201.483, 501.517
1202.702, 494.534
1203.920, 554.368
1205.138, 548.934
1206.356, 522.482
1207.574, 627.848
1208.792, 466.196
1210.009, 587.193
1211.227, 567.509
1212.444, 537.725
1213.661, 533.424
1214.877, 603.529
1216.094, 625.025
1217.310, 558.695
1218.526, 474.207
1219.742, 593.334
1220.958, 568.667
1222.173, 608.022
1223.389, 647.813
1224.604, 553.048
1225.819, 524.018
1227.034, 558.238
1228.248, 523.811
1229.463, 563.156
1230.677, 579.264
1231.891, 468.300
1233.105, 571.145
1234.318, 326.943
1235.532, 537.093
1236.745, 487.494
1237.958, 456.141
1239.171, 498.561
1240.384, 409.675
1241.596, 364.719
1242.809, 434.885
1244.021, 321.237
1245.233, 367.213
1246.444, 350.039
1247.656, 359.334
1248.867, 314.823
1250.079, 303.202
1251.290, 342.593
1252.500, 353.854
1253.711, 314.916
1254.921, 304.312
1256.132, 291.082
1257.342, 181.420
1258.552, 250.097
1259.761, 398.032
1260.971, 93.357
1262.180, 330.793
1263.389, 264.783
1264.598, 203.144
1265.807, 290.067
1267.015, 232.171
1268.223, 285.245
1269.432, 280.836
1270.640, 205.271
1271.847, 243.672
1273.055, 131.955
1274.262, 324.493
1275.470, 206.314
1276.677, 194.729
1277.883, 245.713
1279.090, 220.006
1280.296, 120.015
1281.503, 150.710
1282.709, 127.818
1283.915, 158.809
1285.120, 187.771
1286.326, 111.182
1287.531, 37.675
1288.736, 112.441
1289.941, 74.596
1291.146, 127.189
1292.350, 67.627
1293.555, 72.809
1294.759, 218.132
1295.963, 146.669
1297.167, 93.755
1298.370, 196.478
1299.574, 131.676
1300.777, 159.696
1301.980, 94.966
1303.183, 53.032
1304.386, 191.132
1305.588, 104.012
1306.790, 25.945
1307.993, 385.188
1309.195, 29.610
1310.396, 86.653
1311.598, 211.710
1312.799, 12.156
1314.000, 189.158
1315.201, 187.271
1316.402, 25.320
1317.603, 225.358
1318.803, 123.785
1320.003, 142.413
1321.203, 250.996
1322.403, 39.777
1323.603, 28.780
1324.802, 227.243
1326.002, 45.672
1327.201, 204.537
1328.400, 123.021
1329.599, 71.409
1330.797, 199.739
1331.995, 47.964
1333.194, 126.511
1334.392, 74.353
1335.589, 62.878
1336.787, 191.001
1337.985, 38.933
1339.182, 46.916
1340.379, 135.056
1341.576, 113.055
1342.772, 131.267
1343.969, 199.254
1345.165, 67.540
1346.361, 105.444
1347.557, 123.259
1348.753, 161.269
1349.949, 139.200
1351.144, 156.968
1352.339, 134.984
1353.534, 192.415
1354.729, 90.305
1355.924, 88.061
1357.118, 217.694
1358.312, 65.217
1359.506, 212.988
1360.700, 70.956
1361.894, 88.465
1363.088, 75.594
1364.281, 23.540
1365.474, 71.096
1366.667, 138.793
1367.860, 26.657
1369.052, 124.054
1370.245, 61.407
1371.437, 11.142
1372.629, 116.136
1373.821, 64.661
1375.013, 12.060
1376.204, 148.075
1377.395, 4.285
1378.586, 84.189
1379.777, 172.534
1380.968, 60.453
1382.159, 68.564
1383.349, 126.907
1384.539, 75.438
1385.729, 234.097
1386.919, 93.128
1388.109, 132.144
1389.298, 180.539
1390.487, 128.529
1391.676, 147.510
1392.865, 95.902
1394.054, 54.308
1395.242, 162.459
1396.431, 39.923
1397.619, 18.274
1398.807, 176.275
1399.995, 43.812
1401.182, 61.175
1402.370, 108.912
1403.557, 75.213
1404.744, 42.124
1405.931, 129.000
1407.118, 33.637
1408.304, 103.585
1409.490, 41.294
1410.676, 28.576
1411.862, 195.590
1413.048, 31.719
1414.234, 55.286
1415.419, 222.794
1416.604, 2.817
1417.789, 30.453
1418.974, 88.185
1420.159, 3.895
1421.343, 81.557
1422.528, 148.620
1423.712, 26.200
1424.896, 143.430
1426.079, 49.905
1427.263, 96.249
1428.446, 153.052
1429.629, 119.597
1430.812, 166.659
1431.995, 183.887
1433.178, 70.866
1434.360, 198.368
1435.543, 195.843
1436.725, 113.286
1437.907, 270.694
1439.088, 157.917
1440.270, 114.474
1441.451, 250.499
1442.632, 267.475
1443.813, 163.963
1444.994, 249.060
1446.175, 165.820
1447.355, 182.317
1448.535, 237.944
1449.715, 165.060
1450.895, 232.016
1452.075, 259.202
1453.255, 276.381
1454.434, 373.979
1455.613, 81.237
1456.792, 298.046
1457.971, 273.520
1459.149, 140.138
1460.328, 386.661
1461.506, 212.651
1462.684, 146.389
1463.862, 332.581
1465.040, 178.827
1466.217, 291.941
1467.395, 347.825
1468.572, 154.046
1469.749, 299.638
1470.925, 265.999
1472.102, 422.634
1473.278, 279.890
1474.455, 47.236
1475.631, 174.193
1476.807, 191.505
1477.982, 88.789
1479.158, 126.063
1480.333, 293.373
1481.508, 120.735
1482.683, 118.148
1483.858, 325.627
1485.033, 3.112
1486.207, 210.587
1487.381, 237.917
1488.555, 95.465
1489.729, 323.081
1490.903, 130.919
1492.076, 128.954
1493.250, 337.235
1494.423, 125.725
1495.596, 114.368
1496.769, 252.044
1497.941, 29.112
1499.114, 189.887
1500.286, 189.062
1501.458, 65.069
1502.630, 364.420
1503.802, 214.024
1504.973, 63.887
1506.145, 223.989
1507.316, 234.389
1508.487, 52.462
1509.657, 354.603
1510.828, 189.086
1511.999, 143.539
1513.169, 352.905
1514.339, 0.428
1515.509, 226.354
1516.678, 0.000
##END=



