##NAMES=Vesuvianite
##RRUFFID=R050035
##IDEAL CHEMISTRY=(Ca,Na)_19_(Al,Mg,Fe^3+^)_13_(SiO_4_)_10_(Si_2_O_7_)_4_(OH,F,O)_10_
##LOCALITY=Olmsteadville, New York, USA
##OWNER=RRUFF
##SOURCE=University of Arizona Mineral Museum
##DESCRIPTION=Brown single crystal fragment
##STATUS=The identification of this mineral has been confirmed by X-ray diffraction and chemical analysis
##URL=rruff.info/R050035
##MEASURED CHEMISTRY=(Ca_18.66_Na_0.34_)_Σ=19_(Al_9.16_Mg_1.28_Ti_1.21_Fe^3+^_0.89_Fe^2+^_0.46_)_Σ=13_Si_18_O_68_((OH)_4.70_F_3.18_O_2.12_)_Σ=10_
##PIN_ID=L00076
##ORIENTATION=Laser parallel to c* (0 0 1). Fiducial mark perpendicular to laser is parallel to a [1 0 0]
152.858, 0.000
154.247, 33.341
155.635, 138.588
157.024, 41.615
158.411, 14.390
159.799, 132.439
161.187, 151.216
162.574, 153.255
163.961, 188.041
165.348, 285.182
166.734, 474.368
168.121, 445.340
169.507, 537.883
170.893, 521.816
172.278, 561.980
173.664, 621.819
175.049, 640.655
176.434, 738.974
177.819, 808.173
179.203, 888.176
180.587, 944.144
181.971, 980.323
183.355, 1002.355
184.739, 1014.956
186.122, 958.087
187.505, 851.705
188.888, 755.776
190.271, 580.280
191.653, 485.623
193.035, 320.715
194.417, 276.605
195.799, 192.923
197.180, 159.638
198.562, 126.708
199.943, 14.098
201.324, 41.775
202.704, 39.720
204.084, 7.908
205.465, 66.330
206.844, 124.973
208.224, 323.825
209.603, 282.876
210.983, 302.117
212.362, 551.537
213.740, 691.130
215.119, 850.887
216.497, 1000.799
217.875, 1390.858
219.253, 1481.059
220.631, 1701.393
222.008, 1791.854
223.385, 1782.434
224.762, 1513.128
226.139, 1373.963
227.515, 1195.479
228.891, 787.611
230.267, 830.178
231.643, 652.809
233.018, 575.441
234.394, 578.290
235.769, 701.310
237.144, 614.458
238.518, 637.849
239.893, 811.219
241.267, 474.562
242.641, 577.846
244.014, 601.079
245.388, 594.271
246.761, 587.438
248.134, 680.588
249.507, 683.740
250.879, 806.906
252.252, 970.103
253.624, 1113.341
254.996, 1136.629
256.367, 1189.976
257.739, 1113.380
259.110, 826.845
260.481, 790.366
261.852, 663.942
263.222, 487.572
264.592, 431.255
265.962, 344.987
267.332, 408.770
268.702, 222.599
270.071, 286.473
271.440, 270.392
272.809, 134.351
274.178, 208.351
275.546, 182.388
276.915, 266.460
278.283, 310.566
279.650, 454.704
281.018, 318.870
282.385, 533.065
283.752, 497.285
285.119, 581.529
286.486, 775.795
287.852, 880.083
289.218, 984.388
290.584, 968.711
291.950, 963.048
293.316, 967.400
294.681, 881.763
296.046, 776.137
297.411, 740.521
298.775, 669.022
300.140, 509.261
301.504, 612.565
302.868, 476.116
304.231, 455.052
305.595, 520.121
306.958, 546.228
308.321, 610.274
309.684, 633.987
311.047, 707.697
312.409, 911.397
313.771, 1149.848
315.133, 1543.693
316.495, 1749.143
317.856, 2074.473
319.217, 2374.806
320.578, 2547.160
321.939, 2837.828
323.299, 3108.270
324.660, 3291.232
326.020, 3367.499
327.380, 3529.656
328.739, 3641.944
330.099, 3544.354
331.458, 3636.873
332.817, 3459.494
334.176, 3330.231
335.534, 2965.079
336.892, 2868.083
338.251, 2601.243
339.608, 2204.595
340.966, 2138.149
342.323, 1841.948
343.681, 1845.967
345.037, 1610.278
346.394, 1654.833
347.751, 1479.628
349.107, 1384.695
350.463, 1239.980
351.819, 1345.514
353.174, 1281.257
354.530, 1317.220
355.885, 1173.307
357.240, 1399.523
358.594, 1405.843
359.949, 1502.211
361.303, 1608.603
362.657, 1895.016
364.011, 1981.448
365.365, 2237.897
366.718, 2474.364
368.071, 2730.846
369.424, 2947.340
370.777, 3104.775
372.129, 3230.944
373.481, 3326.891
374.833, 3293.427
376.185, 3279.970
377.537, 3096.519
378.888, 2743.072
380.239, 2619.631
381.590, 2296.192
382.941, 2082.756
384.291, 1959.322
385.642, 1809.648
386.992, 1763.396
388.341, 1719.020
389.691, 1755.583
391.040, 1832.139
392.389, 1888.689
393.738, 2145.227
395.087, 2191.753
396.435, 2638.268
397.784, 2794.769
399.132, 3101.255
400.479, 3617.727
401.827, 3864.182
403.174, 4320.618
404.521, 4547.041
405.868, 4793.443
407.215, 5079.830
408.561, 4986.197
409.908, 5242.551
411.254, 5328.885
412.599, 5325.203
413.945, 4911.502
415.290, 4907.780
416.636, 4424.043
417.980, 4140.285
419.325, 3816.510
420.670, 3222.714
422.014, 2878.896
423.358, 2475.057
424.702, 2191.196
426.045, 1853.023
427.389, 1493.408
428.732, 1279.481
430.075, 1005.531
431.417, 801.556
432.760, 627.558
434.102, 553.534
435.444, 559.485
436.786, 335.412
438.127, 331.312
439.469, 107.187
440.810, 16.965
442.151, 118.843
443.492, 145.377
444.832, 69.669
446.172, 14.018
447.512, 218.407
448.852, 12.893
450.192, 77.419
451.531, 22.005
452.870, 146.638
454.209, 141.349
455.548, 63.863
456.887, 19.045
458.225, 14.188
459.563, 59.293
460.901, 44.353
462.238, 119.296
463.576, 174.121
464.913, 138.868
466.250, 168.655
467.587, 138.084
468.923, 132.605
470.259, 27.095
471.596, 18.451
472.931, 54.044
474.267, 29.694
475.603, 54.577
476.938, 18.767
478.273, 17.097
479.608, 103.020
480.942, 30.957
482.276, 265.103
483.611, 118.648
484.944, 32.387
486.278, 23.914
487.612, 139.720
488.945, 163.332
490.278, 326.922
491.611, 460.487
492.943, 384.029
494.276, 540.852
495.608, 717.604
496.940, 746.994
498.271, 807.564
499.603, 1077.479
500.934, 1171.092
502.265, 1345.943
503.596, 1585.725
504.927, 1683.664
506.257, 1930.278
507.587, 2057.501
508.917, 1982.245
510.247, 2385.693
511.577, 2276.057
512.906, 2437.654
514.235, 2392.418
515.564, 2424.628
516.892, 2339.389
518.221, 2267.293
519.549, 2333.730
520.877, 1976.336
522.205, 1758.877
523.533, 1901.351
524.860, 1733.761
526.187, 1606.105
527.514, 1708.386
528.841, 1580.599
530.167, 1532.748
531.493, 1684.832
532.820, 1536.851
534.145, 1838.806
535.471, 1550.695
536.796, 1872.520
538.122, 1624.279
539.447, 1745.975
540.771, 1787.605
542.096, 1789.172
543.420, 1870.675
544.744, 1712.113
546.068, 2043.489
547.392, 1814.801
548.715, 1976.050
550.039, 1857.235
551.362, 1888.357
552.684, 1899.416
554.007, 1970.413
555.329, 1631.349
556.652, 1832.221
557.973, 1603.031
559.295, 1533.781
560.617, 1494.470
561.938, 1325.098
563.259, 1265.664
564.580, 1216.173
565.901, 1106.619
567.221, 1117.008
568.541, 957.335
569.861, 987.604
571.181, 947.815
572.501, 1097.968
573.820, 1068.063
575.139, 1058.101
576.458, 1238.080
577.777, 1288.004
579.095, 1367.871
580.414, 1367.682
581.732, 1527.438
583.049, 1687.139
584.367, 1896.784
585.685, 1996.416
587.002, 2045.913
588.319, 2215.397
589.636, 2374.827
590.952, 2484.204
592.268, 2633.529
593.585, 2812.803
594.900, 2852.025
596.216, 2951.197
597.532, 3110.316
598.847, 3409.388
600.162, 3446.160
601.477, 3785.134
602.792, 3803.908
604.106, 3907.230
605.420, 4163.695
606.734, 4157.510
608.048, 4263.816
609.361, 4156.232
610.675, 4191.787
611.988, 4239.646
613.301, 4177.726
614.614, 4246.251
615.926, 3883.773
617.238, 4040.947
618.550, 3719.307
619.862, 3717.407
621.174, 3485.739
622.485, 3134.034
623.797, 3132.297
625.108, 2800.523
626.418, 2728.720
627.729, 2436.884
629.039, 2153.973
630.349, 1798.444
631.659, 1760.765
632.969, 1694.451
634.279, 1632.174
635.588, 1478.565
636.897, 1342.820
638.206, 1331.799
639.515, 978.617
640.823, 1007.330
642.131, 985.224
643.439, 721.991
644.747, 775.599
646.055, 553.445
647.362, 351.277
648.669, 279.099
649.976, 246.907
651.283, 34.703
652.589, 32.445
653.896, 179.865
655.202, 202.336
656.508, 354.977
657.814, 417.864
659.119, 601.029
660.424, 524.565
661.729, 818.432
663.034, 642.776
664.339, 657.506
665.643, 782.625
666.947, 608.197
668.251, 724.126
669.555, 590.469
670.859, 647.155
672.162, 294.207
673.465, 341.438
674.768, 238.869
676.071, 46.441
677.373, 65.944
678.676, 148.338
679.978, 360.738
681.280, 543.149
682.581, 845.570
683.883, 1308.002
685.184, 1761.957
686.485, 2332.906
687.786, 3035.378
689.087, 3727.867
690.387, 4650.373
691.687, 5402.896
692.987, 5955.441
694.287, 6188.004
695.586, 6340.588
696.886, 5803.191
698.185, 5235.821
699.484, 4348.473
700.783, 3831.149
702.081, 3063.854
703.379, 2456.582
704.677, 1949.341
705.975, 1432.128
707.273, 1594.943
708.570, 1197.790
709.868, 1120.670
711.165, 893.583
712.462, 1136.528
713.758, 1399.508
715.055, 1292.524
716.351, 1855.578
717.647, 1868.668
718.943, 2411.797
720.238, 2654.967
721.533, 3408.176
722.829, 3651.427
724.124, 4304.719
725.418, 5108.057
726.713, 5801.438
728.007, 6544.865
729.301, 7808.336
730.595, 8401.854
731.889, 10015.425
733.182, 10699.040
734.476, 11402.705
735.769, 12986.421
737.061, 14000.191
738.354, 15094.012
739.647, 16537.887
740.939, 17761.820
742.231, 18785.801
743.523, 20129.844
744.814, 20893.939
746.106, 21928.094
747.397, 22672.305
748.688, 23346.582
749.978, 23784.064
751.269, 23945.170
752.559, 24089.771
753.849, 23674.293
755.139, 23240.844
756.429, 22553.410
757.719, 21808.273
759.008, 20653.109
760.297, 19478.049
761.586, 17963.068
762.875, 16508.221
764.163, 15793.463
765.451, 14258.799
766.739, 13274.227
768.027, 12509.775
769.315, 11435.448
770.602, 11011.200
771.890, 10587.073
773.177, 10123.032
774.463, 10229.118
775.750, 9895.309
777.036, 9861.600
778.323, 9548.062
779.609, 9414.642
780.894, 9521.368
782.180, 9248.241
783.465, 8835.273
784.750, 8732.459
786.035, 8389.815
787.320, 8017.340
788.605, 7495.045
789.889, 7422.916
791.173, 7230.977
792.457, 6809.196
793.741, 6627.629
795.024, 6344.005
796.307, 6055.098
797.591, 5854.132
798.873, 5629.744
800.156, 5602.766
801.439, 5272.334
802.721, 5082.082
804.003, 4931.958
805.285, 4651.974
806.566, 4588.840
807.848, 4365.899
809.129, 4010.469
810.410, 4093.984
811.691, 4078.258
812.971, 3668.941
814.252, 3848.455
815.532, 3763.135
816.812, 3839.741
818.092, 3720.864
819.371, 3315.218
820.651, 3465.238
821.930, 3166.622
823.209, 3121.156
824.488, 3004.522
825.766, 2654.791
827.045, 2827.683
828.323, 2538.100
829.601, 2465.450
830.878, 2494.337
832.156, 2297.146
833.433, 2335.764
834.710, 2263.217
835.987, 2316.514
837.264, 2179.946
838.540, 2185.853
839.817, 2317.278
841.093, 2311.162
842.369, 2465.236
843.644, 2519.447
844.920, 2663.816
846.195, 2698.324
847.470, 2972.967
848.745, 3087.769
850.020, 3332.713
851.294, 3457.793
852.568, 3763.014
853.842, 3888.370
855.116, 4233.870
856.390, 4349.516
857.663, 4545.297
858.936, 4861.224
860.209, 4757.297
861.482, 5023.508
862.755, 5529.867
864.027, 5106.364
865.299, 5593.010
866.571, 5579.795
867.843, 5606.723
869.115, 5813.789
870.386, 5690.248
871.657, 5688.340
872.928, 5495.824
874.199, 5473.444
875.470, 5231.205
876.740, 5019.104
878.010, 4975.756
879.280, 5065.309
880.550, 4893.616
881.820, 4832.057
883.089, 4960.633
884.358, 4729.345
885.627, 4898.190
886.896, 4427.172
888.164, 4686.284
889.433, 4535.531
890.701, 4524.912
891.969, 4374.424
893.236, 4094.071
894.504, 4143.849
895.771, 4113.758
897.038, 3973.801
898.305, 4333.973
899.572, 4014.276
900.838, 4144.712
902.105, 4425.275
903.371, 4185.972
904.637, 4406.796
905.902, 4417.748
907.168, 4738.828
908.433, 4830.035
909.698, 4971.369
910.963, 5402.828
912.228, 5644.410
913.492, 6066.119
914.757, 6227.953
916.021, 6499.904
917.285, 7121.982
918.548, 7174.179
919.812, 7816.494
921.075, 7959.231
922.338, 8402.483
923.601, 8803.070
924.864, 9145.881
926.126, 9038.727
927.388, 9566.049
928.650, 9374.902
929.912, 9327.428
931.174, 9449.171
932.435, 9337.079
933.697, 9326.099
934.958, 9295.655
936.218, 9153.876
937.479, 9533.242
938.739, 9269.412
940.000, 9419.901
941.260, 9362.217
942.520, 9386.174
943.779, 9673.350
945.039, 9576.766
946.298, 9821.377
947.557, 10150.300
948.816, 9675.478
950.074, 10364.377
951.333, 10081.960
952.591, 10314.558
953.849, 10309.677
955.107, 10382.873
956.365, 10369.232
957.622, 10268.748
958.879, 10156.438
960.136, 10221.074
961.393, 9559.554
962.650, 9683.126
963.906, 9408.108
965.162, 8925.039
966.418, 8917.327
967.674, 7917.975
968.930, 7985.793
970.185, 7534.924
971.441, 6793.070
972.696, 6641.020
973.950, 6289.010
975.205, 6067.263
976.459, 5736.260
977.714, 5375.103
978.968, 5136.127
980.222, 5166.861
981.475, 4646.703
982.729, 4980.605
983.982, 4435.070
985.235, 4345.266
986.488, 4447.758
987.740, 3918.217
988.993, 3923.734
990.245, 3644.775
991.497, 3447.047
992.749, 3359.457
994.000, 2989.553
995.252, 3044.373
996.503, 2694.846
997.754, 2565.219
999.005, 2710.396
1000.256, 2541.541
1001.506, 2402.098
1002.756, 2423.115
1004.006, 2353.575
1005.256, 2585.211
1006.506, 2507.693
1007.755, 2368.480
1009.005, 2650.444
1010.254, 2593.312
1011.502, 2655.535
1012.751, 2677.261
1014.000, 2738.084
1015.248, 2761.471
1016.496, 2762.969
1017.744, 2829.249
1018.991, 2956.652
1020.239, 2928.017
1021.486, 3048.789
1022.733, 3100.698
1023.980, 3101.506
1025.227, 2993.464
1026.473, 3074.986
1027.719, 3095.742
1028.965, 3017.138
1030.211, 3048.086
1031.457, 3081.238
1032.702, 3090.037
1033.948, 3271.080
1035.193, 3391.666
1036.438, 3662.925
1037.682, 3913.649
1038.927, 4534.441
1040.171, 4785.424
1041.415, 5366.266
1042.659, 5607.299
1043.903, 6088.301
1045.146, 6138.766
1046.390, 6179.875
1047.633, 5810.671
1048.876, 5371.707
1050.118, 4792.369
1051.361, 4053.050
1052.603, 3544.333
1053.845, 3054.591
1055.087, 2564.989
1056.329, 2130.706
1057.571, 1746.054
1058.812, 1386.566
1060.053, 1096.671
1061.294, 946.866
1062.535, 657.570
1063.775, 577.487
1065.016, 237.371
1066.256, 117.459
1067.496, 237.267
1068.736, 77.037
1069.975, 12.952
1071.214, 33.113
1072.454, 193.476
1073.693, 16.041
1074.931, 214.342
1076.170, 114.989
1077.408, 135.749
1078.647, 346.132
1079.885, 166.982
1081.122, 258.045
1082.360, 268.529
1083.597, 270.121
1084.835, 241.908
1086.072, 253.294
1087.308, 195.664
1088.545, 257.896
1089.781, 280.442
1091.018, 300.213
1092.254, 185.872
1093.490, 279.058
1094.725, 292.107
1095.961, 195.471
1097.196, 289.324
1098.431, 342.857
1099.666, 156.947
1100.900, 231.379
1102.135, 266.163
1103.369, 70.999
1104.603, 116.179
1105.837, 161.354
1107.071, 126.908
1108.304, 232.321
1109.538, 128.213
1110.771, 43.991
1112.004, 59.825
1113.236, 123.858
1114.469, 2.712
1115.701, 31.979
1116.933, 135.145
1118.165, 88.767
1119.397, 172.502
1120.629, 295.375
1121.860, 438.485
1123.091, 491.179
1124.322, 243.998
1125.553, 347.249
1126.783, 119.671
1128.014, 142.484
1129.244, 234.674
1130.474, 67.621
1131.704, 60.937
1132.933, 233.078
1134.163, 65.245
1135.392, 227.019
1136.621, 58.808
1137.850, 200.830
1139.079, 152.824
1140.307, 45.403
1141.535, 366.496
1142.763, 97.805
1143.991, 310.266
1145.219, 353.393
1146.446, 104.201
1147.674, 266.179
1148.901, 359.117
1150.128, 300.576
1151.354, 411.256
1152.581, 262.021
1153.807, 222.701
1155.033, 372.821
1156.259, 262.588
1157.485, 222.673
1158.710, 403.038
1159.936, 222.597
1161.161, 421.824
1162.386, 227.056
1163.611, 345.458
1164.835, 295.134
1166.060, 364.264
1167.284, 382.723
1168.508, 502.791
1169.732, 340.744
1170.955, 508.461
1172.179, 348.079
1173.402, 396.163
1174.625, 545.359
1175.848, 423.231
1177.070, 510.655
1178.293, 558.445
1179.515, 466.235
1180.737, 502.920
1181.959, 624.646
1183.181, 471.576
1184.402, 598.354
1185.624, 584.940
1186.845, 541.210
1188.066, 578.411
1189.286, 535.038
1190.507, 544.263
1191.727, 682.231
1192.947, 527.748
1194.167, 603.572
1195.387, 546.825
1196.607, 634.683
1197.826, 630.827
1199.045, 508.957
1200.264, 733.438
1201.483, 699.176
1202.702, 553.565
1203.920, 817.886
1205.138, 662.352
1206.356, 756.329
1207.574, 730.368
1208.792, 604.693
1210.009, 808.854
1211.227, 812.234
1212.444, 735.382
1213.661, 848.376
1214.877, 841.895
1216.094, 734.627
1217.310, 768.568
1218.526, 841.069
1219.742, 805.875
1220.958, 768.262
1222.173, 790.916
1223.389, 819.886
1224.604, 676.659
1225.819, 719.500
1227.034, 732.679
1228.248, 541.483
1229.463, 837.344
1230.677, 773.748
1231.891, 630.930
1233.105, 816.763
1234.318, 675.459
1235.532, 869.878
1236.745, 782.335
1237.958, 573.629
1239.171, 761.188
1240.384, 542.494
1241.596, 543.201
1242.809, 628.961
1244.021, 448.755
1245.233, 494.621
1246.444, 521.679
1247.656, 553.973
1248.867, 473.509
1250.079, 574.853
1251.290, 463.007
1252.500, 537.979
1253.711, 404.767
1254.921, 445.007
1256.132, 361.034
1257.342, 332.107
1258.552, 402.180
1259.761, 549.979
1260.971, 162.575
1262.180, 496.903
1263.389, 304.241
1264.598, 250.710
1265.807, 458.011
1267.015, 355.723
1268.223, 463.686
1269.432, 381.319
1270.640, 262.754
1271.847, 530.104
1273.055, 313.737
1274.262, 450.836
1275.470, 227.269
1276.677, 159.588
1277.883, 341.554
1279.090, 447.443
1280.296, 220.984
1281.503, 306.508
1282.709, 206.905
1283.915, 192.460
1285.120, 208.031
1286.326, 151.329
1287.531, 226.855
1288.736, 77.593
1289.941, 42.619
1291.146, 247.980
1292.350, 78.177
1293.555, 32.344
1294.759, 94.922
1295.963, 161.214
1297.167, 135.867
1298.370, 129.280
1299.574, 181.770
1300.777, 235.883
1301.980, 148.741
1303.183, 100.623
1304.386, 184.486
1305.588, 225.960
1306.790, 40.323
1307.993, 410.761
1309.195, 93.659
1310.396, 135.763
1311.598, 238.548
1312.799, 41.359
1314.000, 294.688
1315.201, 316.802
1316.402, 39.938
1317.603, 161.846
1318.803, 44.109
1320.003, 147.059
1321.203, 219.291
1322.403, 121.889
1323.603, 104.529
1324.802, 296.680
1326.002, 31.114
1327.201, 171.462
1328.400, 173.281
1329.599, 185.542
1330.797, 227.621
1331.995, 59.424
1333.194, 101.279
1334.392, 72.858
1335.589, 35.618
1336.787, 236.354
1337.985, 127.595
1339.182, 69.063
1340.379, 260.204
1341.576, 41.630
1342.772, 17.052
1343.969, 273.574
1345.165, 35.135
1346.361, 226.465
1347.557, 207.107
1348.753, 138.586
1349.949, 219.530
1351.144, 170.795
1352.339, 81.880
1353.534, 82.369
1354.729, 223.558
1355.924, 244.697
1357.118, 305.545
1358.312, 86.592
1359.506, 277.592
1360.700, 1.727
1361.894, 69.043
1363.088, 139.934
1364.281, 182.230
1365.474, 102.959
1366.667, 3.840
1367.860, 64.752
1369.052, 115.205
1370.245, 235.788
1371.437, 13.568
1372.629, 216.300
1373.821, 7.139
1375.013, 68.628
1376.204, 110.482
1377.395, 182.571
1378.586, 164.461
1379.777, 286.188
1380.968, 68.170
1382.159, 190.536
1383.349, 283.312
1384.539, 36.207
1385.729, 329.063
1386.919, 101.925
1388.109, 144.659
1389.298, 166.518
1390.487, 99.289
1391.676, 148.671
1392.865, 234.543
1394.054, 166.510
1395.242, 178.864
1396.431, 170.722
1397.619, 61.506
1398.807, 323.386
1399.995, 134.689
1401.182, 55.342
1402.370, 255.867
1403.557, 142.646
1404.744, 172.201
1405.931, 228.910
1407.118, 68.671
1408.304, 218.517
1409.490, 128.860
1410.676, 88.324
1411.862, 180.781
1413.048, 78.932
1414.234, 111.234
1415.419, 279.984
1416.604, 98.871
1417.789, 106.975
1418.974, 117.107
1420.159, 45.980
1421.343, 149.717
1422.528, 279.598
1423.712, 119.916
1424.896, 307.844
1426.079, 20.512
1427.263, 50.602
1428.446, 178.760
1429.629, 151.959
1430.812, 210.803
1431.995, 401.225
1433.178, 1.156
1434.360, 310.262
1435.543, 139.811
1436.725, 130.875
1437.907, 430.771
1439.088, 207.449
1440.270, 57.352
1441.451, 194.799
1442.632, 203.557
1443.813, 240.840
1444.994, 239.438
1446.175, 148.271
1447.355, 368.564
1448.535, 328.105
1449.715, 118.604
1450.895, 457.637
1452.075, 256.924
1453.255, 256.334
1454.434, 336.158
1455.613, 196.076
1456.792, 284.904
1457.971, 354.400
1459.149, 153.008
1460.328, 372.617
1461.506, 371.557
1462.684, 191.154
1463.862, 560.375
1465.040, 197.621
1466.217, 266.930
1467.395, 356.381
1468.572, 185.180
1469.749, 294.795
1470.925, 282.090
1472.102, 225.076
1473.278, 324.863
1474.455, 93.611
1475.631, 103.342
1476.807, 353.010
1477.982, 232.756
1479.158, 152.574
1480.333, 292.510
1481.508, 22.480
1482.683, 142.428
1483.858, 382.385
1485.033, 102.355
1486.207, 362.326
1487.381, 242.346
1488.555, 222.412
1489.729, 392.518
1490.903, 183.285
1492.076, 64.178
1493.250, 315.266
1494.423, 16.967
1495.596, 48.928
1496.769, 351.137
1497.941, 23.631
1499.114, 256.445
1500.286, 325.596
1501.458, 63.363
1502.630, 407.689
1503.802, 282.697
1504.973, 21.516
1506.145, 365.137
1507.316, 292.863
1508.487, 171.945
1509.657, 242.732
1510.828, 148.002
1511.999, 124.945
1513.169, 447.537
1514.339, 0.000
##END=



