##NAMES=Vesuvianite
##RRUFFID=R050035
##IDEAL CHEMISTRY=(Ca,Na)_19_(Al,Mg,Fe^3+^)_13_(SiO_4_)_10_(Si_2_O_7_)_4_(OH,F,O)_10_
##LOCALITY=Olmsteadville, New York, USA
##OWNER=RRUFF
##SOURCE=University of Arizona Mineral Museum
##DESCRIPTION=Brown single crystal fragment
##STATUS=The identification of this mineral has been confirmed by X-ray diffraction and chemical analysis
##URL=rruff.info/R050035
##MEASURED CHEMISTRY=(Ca_18.66_Na_0.34_)_Σ=19_(Al_9.16_Mg_1.28_Ti_1.21_Fe^3+^_0.89_Fe^2+^_0.46_)_Σ=13_Si_18_O_68_((OH)_4.70_F_3.18_O_2.12_)_Σ=10_
##PIN_ID=M00130
##ORIENTATION=Laser parallel to a* (1 0 0). Fiducial mark perpendicular to laser is parallel to c [0 0 1]
126.163, 0.000
127.556, 7.292
128.949, 4.779
130.342, 40.623
131.734, 68.357
133.126, 147.363
134.518, 1.861
135.909, 92.295
137.301, 150.475
138.692, 115.990
140.083, 222.483
141.473, 178.366
142.864, 167.217
144.254, 73.010
145.644, 73.669
147.034, 20.129
148.423, 29.324
149.812, 3.196
151.201, 16.692
152.590, 49.226
153.979, 21.412
155.367, 46.423
156.755, 83.240
158.143, 113.376
159.530, 210.960
160.918, 215.972
162.305, 346.395
163.692, 384.225
165.078, 417.422
166.465, 544.972
167.851, 598.857
169.237, 707.055
170.623, 619.538
172.008, 632.290
173.393, 685.292
174.778, 622.533
176.163, 824.025
177.548, 708.795
178.932, 875.846
180.316, 1005.162
181.700, 1038.726
183.083, 1143.524
184.467, 1334.547
185.850, 1318.788
187.233, 1276.239
188.616, 1229.897
189.998, 1147.756
191.380, 1031.086
192.762, 870.056
194.144, 766.487
195.525, 611.098
196.907, 510.886
198.288, 465.968
199.669, 431.320
201.049, 383.602
202.429, 419.041
203.810, 459.634
205.189, 563.376
206.569, 574.264
207.949, 694.292
209.328, 829.426
210.707, 1057.571
212.085, 1208.737
213.464, 1336.926
214.842, 1642.146
216.220, 1943.403
217.598, 2176.865
218.976, 2367.204
220.353, 2679.598
221.730, 2702.103
223.107, 2714.847
224.483, 2567.911
225.860, 2351.403
227.236, 2075.276
228.612, 1681.481
229.988, 1382.823
231.363, 1164.192
232.738, 1114.587
234.113, 933.014
235.488, 905.478
236.863, 1009.989
238.237, 998.557
239.611, 900.191
240.985, 835.903
242.359, 885.702
243.732, 718.593
245.105, 828.582
246.478, 758.667
247.851, 711.849
249.223, 820.124
250.595, 947.491
251.967, 999.949
253.339, 1178.496
254.711, 1248.129
256.082, 1201.848
257.453, 1166.651
258.824, 1045.536
260.195, 959.502
261.565, 600.547
262.935, 490.670
264.305, 338.868
265.675, 163.140
267.044, 109.484
268.414, 6.101
269.783, 83.382
271.151, 3.066
272.520, 7.449
273.888, 34.233
275.256, 35.978
276.624, 122.784
277.992, 79.650
279.359, 274.575
280.726, 305.556
282.093, 327.591
283.460, 451.680
284.827, 491.823
286.193, 617.016
287.559, 774.260
288.925, 834.553
290.290, 862.894
291.656, 885.559
293.021, 863.206
294.386, 718.338
295.750, 744.383
297.115, 579.568
298.479, 424.878
299.843, 345.976
301.207, 197.506
302.570, 207.147
303.933, 156.897
305.296, 51.678
306.659, 10.487
308.022, 79.459
309.384, 143.514
310.746, 144.672
312.108, 288.757
313.470, 366.998
314.831, 554.747
316.193, 609.940
317.554, 785.786
318.914, 913.141
320.275, 1117.152
321.635, 1264.215
322.995, 1424.019
324.355, 1576.046
325.715, 1827.239
327.074, 1952.804
328.434, 2052.316
329.792, 2042.650
331.151, 2093.800
332.510, 1987.237
333.868, 1886.734
335.226, 1819.292
336.584, 1484.925
337.941, 1490.629
339.299, 1225.436
340.656, 1210.387
342.013, 1109.498
343.370, 1031.794
344.726, 988.263
346.082, 1074.943
347.438, 972.851
348.794, 1097.022
350.150, 1038.459
351.505, 1040.155
352.860, 1050.098
354.215, 1202.291
355.570, 1164.709
356.924, 1196.350
358.278, 1152.162
359.632, 1277.150
360.986, 1261.269
362.339, 1486.478
363.693, 1742.723
365.046, 1550.005
366.399, 1593.323
367.751, 1831.677
369.104, 1909.063
370.456, 2122.483
371.808, 2042.938
373.159, 2123.423
374.511, 2143.940
375.862, 1904.490
377.213, 1807.070
378.564, 1669.682
379.914, 1308.324
381.265, 1235.995
382.615, 869.695
383.965, 824.427
385.315, 659.186
386.664, 513.974
388.013, 666.787
389.362, 409.624
390.711, 472.482
392.060, 556.361
393.408, 674.260
394.756, 737.177
396.104, 870.113
397.451, 1016.067
398.799, 1121.040
400.146, 1292.030
401.493, 1574.039
402.840, 1859.064
404.186, 2072.105
405.533, 2403.163
406.879, 2764.236
408.225, 3005.324
409.570, 3276.427
410.916, 3457.542
412.261, 3708.672
413.606, 3699.814
414.951, 3710.968
416.295, 3442.133
417.639, 3403.310
418.983, 3024.497
420.327, 2845.694
421.671, 2476.901
423.014, 2078.117
424.357, 1775.341
425.700, 1481.575
427.043, 1344.814
428.386, 1119.930
429.728, 902.317
431.070, 800.523
432.412, 641.791
433.753, 462.021
435.095, 373.237
436.436, 290.391
437.777, 254.806
439.118, 209.097
440.458, 200.392
441.798, 176.689
443.138, 181.990
444.478, 318.293
445.818, 283.599
447.157, 373.906
448.496, 380.216
449.835, 332.526
451.174, 417.837
452.513, 383.149
453.851, 405.478
455.189, 357.823
456.527, 366.325
457.864, 307.557
459.202, 364.945
460.539, 346.347
461.876, 341.763
463.212, 243.190
464.549, 245.630
465.885, 194.081
467.221, 213.542
468.557, 267.922
469.893, 155.404
471.228, 106.896
472.563, 162.396
473.898, 31.904
475.233, 38.414
476.567, 80.072
477.902, 62.607
479.236, 151.178
480.570, 128.834
481.903, 153.560
483.237, 191.373
484.570, 256.293
485.903, 119.353
487.235, 210.486
488.568, 173.738
489.900, 43.091
491.232, 56.484
492.564, 76.076
493.896, 191.639
495.227, 168.205
496.558, 197.127
497.889, 396.533
499.220, 422.918
500.551, 485.681
501.881, 700.266
503.211, 888.056
504.541, 1071.976
505.870, 1242.508
507.200, 1385.264
508.529, 1540.210
509.858, 1633.354
511.187, 1713.740
512.515, 1778.552
513.844, 1801.072
515.172, 1841.400
516.500, 1822.572
517.827, 1827.671
519.155, 1719.817
520.482, 1748.586
521.809, 1794.459
523.136, 1525.699
524.462, 1452.902
525.789, 1473.068
527.115, 1438.197
528.441, 1392.289
529.766, 1315.344
531.092, 1450.362
532.417, 1491.343
533.742, 1583.286
535.067, 1491.193
536.391, 1705.062
537.716, 1524.896
539.040, 1779.692
540.364, 1709.451
541.688, 1744.173
543.011, 1894.858
544.334, 1963.507
545.657, 2015.823
546.980, 2081.805
548.303, 2090.232
549.625, 2116.735
550.947, 2105.201
552.269, 2055.630
553.591, 2011.023
554.913, 2058.381
556.234, 2049.702
557.555, 1883.987
558.876, 1948.238
560.197, 1725.452
561.517, 1616.631
562.837, 1659.775
564.157, 1480.883
565.477, 1502.957
566.797, 1621.997
568.116, 1499.002
569.435, 1479.972
570.754, 1344.909
572.073, 1451.812
573.391, 1292.681
574.709, 1341.517
576.027, 1285.319
577.345, 1259.088
578.663, 1224.825
579.980, 1242.137
581.297, 1215.201
582.614, 1323.841
583.931, 1348.448
585.248, 1436.024
586.564, 1557.570
587.880, 1601.084
589.196, 1812.568
590.511, 1793.021
591.827, 1923.444
593.142, 2048.839
594.457, 2247.203
595.772, 2608.539
597.086, 2708.846
598.401, 2957.124
599.715, 3115.373
601.029, 3283.595
602.343, 3401.789
603.656, 3589.956
604.969, 3768.096
606.282, 3896.209
607.595, 4024.295
608.908, 4072.356
610.220, 4110.392
611.532, 4138.401
612.844, 4026.387
614.156, 4043.737
615.468, 4132.283
616.779, 3950.196
618.090, 3878.086
619.401, 3795.952
620.712, 3663.796
622.022, 4031.617
623.332, 3579.418
624.642, 3337.197
625.952, 3304.957
627.262, 2632.698
628.571, 2620.419
629.880, 2292.124
631.189, 2115.810
632.498, 1979.471
633.807, 1842.124
635.115, 2444.109
636.423, 1755.981
637.731, 1778.288
639.039, 1872.102
640.346, 1291.806
641.653, 1132.238
642.960, 1047.815
644.267, 969.292
645.574, 801.464
646.880, 789.754
648.186, 684.286
649.492, 500.065
650.798, 401.623
652.103, 263.181
653.409, 75.741
654.714, 87.271
656.019, 47.224
657.323, 226.806
658.628, 294.561
659.932, 396.522
661.236, 353.742
662.540, 516.106
663.843, 581.200
665.147, 724.084
666.450, 737.626
667.753, 729.594
669.056, 676.980
670.358, 708.756
671.660, 614.936
672.963, 617.466
674.264, 430.346
675.566, 452.473
676.868, 284.856
678.169, 138.406
679.470, 96.952
680.771, 289.327
682.071, 551.718
683.372, 906.128
684.672, 1227.557
685.972, 1820.006
687.271, 2317.476
688.571, 3255.968
689.870, 4088.480
691.169, 4751.018
692.468, 5623.580
693.767, 6156.167
695.065, 6218.779
696.364, 6271.418
697.662, 5524.084
698.960, 4866.781
700.257, 4069.505
701.555, 3420.253
702.852, 2825.048
704.149, 2137.867
705.446, 1664.718
706.742, 1163.603
708.038, 946.522
709.335, 1081.476
710.631, 833.467
711.926, 767.494
713.222, 908.560
714.517, 939.663
715.812, 1202.806
717.107, 1241.988
718.402, 1743.212
719.696, 1867.478
720.990, 2297.785
722.284, 2701.136
723.578, 3304.531
724.872, 3737.972
726.165, 4381.457
727.458, 5134.988
728.751, 5888.569
730.044, 6522.196
731.336, 7585.873
732.629, 8279.597
733.921, 9653.374
735.213, 10497.202
736.504, 11191.079
737.796, 12645.011
739.087, 13678.997
740.378, 14273.035
741.669, 15987.132
742.960, 16721.277
744.250, 17655.482
745.540, 18949.748
746.830, 19094.066
748.120, 20258.447
749.410, 20712.889
750.699, 20747.385
751.988, 21551.943
753.277, 21076.568
754.566, 20711.252
755.854, 20056.000
757.143, 19630.807
758.431, 18655.682
759.719, 17250.617
761.006, 16295.624
762.294, 15360.692
763.581, 14105.830
764.868, 13081.040
766.155, 12146.312
767.442, 11201.656
768.728, 10437.069
770.014, 9972.554
771.300, 9428.132
772.586, 9023.784
773.872, 9009.550
775.157, 8785.435
776.442, 8961.427
777.727, 8817.562
779.012, 8723.835
780.297, 8600.243
781.581, 8476.788
782.865, 8393.455
784.149, 8170.266
785.433, 7857.214
786.716, 7494.289
787.999, 7211.511
789.282, 6868.875
790.565, 6696.422
791.848, 6484.146
793.130, 6202.066
794.413, 6050.186
795.695, 5568.504
796.977, 5727.038
798.258, 5385.799
799.540, 5114.753
800.821, 5263.938
802.102, 4723.348
803.382, 4762.922
804.663, 4272.673
805.943, 4272.580
807.224, 4072.619
808.504, 3850.450
809.783, 3778.919
811.063, 3580.566
812.342, 3501.953
813.621, 3389.628
814.900, 3011.229
816.179, 3215.797
817.457, 3060.467
818.736, 3061.354
820.014, 2743.583
821.292, 2625.293
822.569, 2707.853
823.847, 2534.073
825.124, 2328.677
826.401, 2339.563
827.678, 2060.708
828.954, 2054.026
830.231, 2006.392
831.507, 1929.235
832.783, 1951.075
834.059, 1923.645
835.334, 2116.375
836.610, 2019.240
837.885, 1932.256
839.160, 2125.430
840.435, 2138.736
841.709, 2182.187
842.983, 2385.779
844.258, 2379.508
845.532, 2583.381
846.805, 2717.398
848.079, 2851.549
849.352, 3185.844
850.625, 3220.283
851.898, 3554.865
853.171, 3849.579
854.443, 4064.426
855.715, 4249.410
856.988, 4524.530
858.259, 4689.785
859.531, 5065.171
860.803, 5140.689
862.074, 5286.354
863.345, 5342.143
864.616, 5798.070
865.886, 5594.133
867.157, 5750.326
868.427, 6046.653
869.697, 5783.108
870.967, 6049.694
872.236, 5776.412
873.506, 5943.262
874.775, 5890.242
876.044, 5687.352
877.313, 5624.588
878.581, 5541.955
879.849, 5649.449
881.118, 5427.071
882.386, 5434.823
883.653, 5242.702
884.921, 5410.707
886.188, 5198.841
887.455, 5147.102
888.722, 4985.486
889.989, 4853.999
891.255, 4862.636
892.522, 4641.396
893.788, 4650.286
895.054, 4459.300
896.319, 4528.441
897.585, 4387.705
898.850, 4397.092
900.115, 4556.603
901.380, 4506.234
902.645, 4574.101
903.909, 4765.866
905.174, 4655.863
906.438, 4765.979
907.701, 4866.217
908.965, 5066.573
910.229, 5417.051
911.492, 5607.643
912.755, 5798.356
914.018, 6289.186
915.280, 6620.131
916.543, 6891.195
917.805, 7202.373
919.067, 7653.667
920.329, 8015.075
921.590, 8376.644
922.852, 8671.609
924.113, 9064.610
925.374, 9263.941
926.635, 9576.452
927.895, 9664.805
929.156, 9801.806
930.416, 9798.096
931.676, 9672.877
932.936, 9788.767
934.195, 9761.772
935.454, 9628.621
936.714, 9944.452
937.973, 9547.111
939.231, 9774.239
940.490, 9891.756
941.748, 9871.065
943.006, 9900.088
944.264, 9979.645
945.522, 10219.846
946.780, 10329.234
948.037, 10269.930
949.294, 10499.936
950.551, 10299.631
951.808, 10593.112
953.064, 10546.993
954.320, 10563.609
955.577, 10502.897
956.832, 10752.884
958.088, 10417.587
959.344, 10654.848
960.599, 10276.700
961.854, 10235.791
963.109, 9777.068
964.364, 9665.310
965.618, 9259.805
966.872, 8876.176
968.127, 8492.669
969.380, 7998.860
970.634, 7674.629
971.888, 7300.936
973.141, 6952.195
974.394, 6423.903
975.647, 6300.873
976.900, 6048.641
978.152, 5678.077
979.404, 5677.773
980.656, 5376.736
981.908, 5406.732
983.160, 4937.074
984.411, 4886.379
985.663, 4721.694
986.914, 4451.914
988.165, 4505.053
989.415, 4069.804
990.666, 3869.766
991.916, 3791.030
993.166, 3542.854
994.416, 3393.554
995.665, 3245.409
996.915, 3054.620
998.164, 2999.385
999.413, 2878.570
1000.662, 2905.866
1001.911, 2921.700
1003.159, 2656.632
1004.407, 2818.507
1005.655, 2848.321
1006.903, 2761.109
1008.151, 2987.351
1009.398, 2727.229
1010.646, 2875.086
1011.893, 2986.308
1013.139, 3084.089
1014.386, 3140.025
1015.633, 3242.623
1016.879, 3116.368
1018.125, 3312.046
1019.371, 3222.557
1020.616, 3308.358
1021.862, 3328.938
1023.107, 3322.760
1024.352, 3480.798
1025.597, 3279.966
1026.842, 3292.375
1028.086, 3499.254
1029.330, 3321.053
1030.574, 3466.732
1031.818, 3386.841
1033.062, 3543.472
1034.305, 3670.064
1035.548, 3680.337
1036.791, 3966.644
1038.034, 4346.483
1039.277, 4556.213
1040.519, 5315.516
1041.762, 5655.400
1043.004, 6095.124
1044.246, 6515.188
1045.487, 6305.161
1046.729, 6134.557
1047.970, 5864.193
1049.211, 5123.887
1050.452, 4653.181
1051.692, 4034.708
1052.933, 3380.938
1054.173, 2936.204
1055.413, 2274.676
1056.653, 2183.723
1057.893, 1556.962
1059.132, 1331.259
1060.371, 1173.207
1061.610, 729.540
1062.849, 606.320
1064.088, 388.310
1065.326, 241.420
1066.565, 221.114
1067.803, 44.186
1069.041, 21.027
1070.278, 10.627
1071.516, 112.153
1072.753, 51.663
1073.990, 177.190
1075.227, 220.766
1076.464, 147.579
1077.700, 278.484
1078.936, 260.312
1080.173, 229.547
1081.408, 240.532
1082.644, 188.120
1083.880, 242.852
1085.115, 220.211
1086.350, 163.433
1087.585, 228.398
1088.820, 228.477
1090.054, 251.047
1091.288, 240.510
1092.522, 243.218
1093.756, 247.793
1094.990, 229.186
1096.224, 244.565
1097.457, 228.205
1098.690, 217.972
1099.923, 273.142
1101.156, 274.462
1102.388, 153.730
1103.621, 191.541
1104.853, 197.884
1106.085, 109.069
1107.316, 145.248
1108.548, 54.354
1109.779, 165.035
1111.010, 35.531
1112.241, 18.757
1113.472, 75.210
1114.703, 76.982
1115.933, 84.633
1117.163, 126.649
1118.393, 259.264
1119.623, 202.811
1120.853, 257.647
1122.082, 350.207
1123.311, 259.570
1124.540, 169.223
1125.769, 94.500
1126.997, 98.411
1128.226, 142.537
1129.454, 110.357
1130.682, 108.199
1131.910, 166.135
1133.138, 12.609
1134.365, 134.307
1135.592, 60.575
1136.819, 33.716
1138.046, 167.386
1139.273, 122.229
1140.499, 111.042
1141.725, 153.996
1142.951, 120.446
1144.177, 115.354
1145.403, 228.752
1146.628, 125.810
1147.854, 127.424
1149.079, 146.396
1150.304, 246.723
1151.528, 258.912
1152.753, 203.342
1153.977, 210.328
1155.201, 251.019
1156.425, 289.133
1157.649, 299.646
1158.872, 171.635
1160.096, 323.656
1161.319, 236.065
1162.542, 261.601
1163.764, 349.850
1164.987, 267.320
1166.209, 401.636
1167.431, 362.795
1168.653, 291.070
1169.875, 372.210
1171.097, 352.401
1172.318, 342.041
1173.539, 471.197
1174.760, 387.667
1175.981, 402.166
1177.202, 427.170
1178.422, 375.897
1179.642, 449.006
1180.862, 463.803
1182.082, 368.767
1183.302, 539.745
1184.521, 427.692
1185.740, 445.249
1186.959, 549.986
1188.178, 431.771
1189.397, 453.990
1190.615, 416.489
1191.834, 429.804
1193.052, 538.899
1194.269, 482.194
1195.487, 468.771
1196.705, 564.409
1197.922, 508.068
1199.139, 578.500
1200.356, 569.101
1201.573, 518.032
1202.789, 617.929
1204.006, 570.367
1205.222, 553.958
1206.438, 634.579
1207.653, 539.405
1208.869, 679.653
1210.084, 614.214
1211.299, 581.663
1212.514, 684.574
1213.729, 582.385
1214.944, 632.373
1216.158, 686.942
1217.372, 529.617
1218.586, 702.629
1219.800, 677.855
1221.014, 657.973
1222.227, 716.062
1223.440, 666.791
1224.654, 593.778
1225.866, 639.458
1227.079, 532.005
1228.292, 678.260
1229.504, 635.231
1230.716, 512.051
1231.928, 666.178
1233.139, 529.600
1234.351, 502.584
1235.562, 593.016
1236.773, 478.820
1237.984, 460.776
1239.195, 533.157
1240.406, 394.930
1241.616, 453.472
1242.826, 451.696
1244.036, 419.730
1245.246, 496.934
1246.456, 418.344
1247.665, 332.402
1248.874, 477.650
1250.083, 238.209
1251.292, 377.054
1252.501, 329.165
1253.709, 258.023
1254.917, 387.966
1256.125, 253.665
1257.333, 269.262
1258.541, 302.900
1259.748, 219.719
1260.956, 335.509
1262.163, 221.182
1263.370, 298.332
1264.576, 297.025
1265.783, 209.363
1266.989, 257.030
1268.195, 285.479
1269.401, 196.703
1270.607, 265.535
1271.813, 362.610
1273.018, 248.649
1274.223, 297.447
1275.428, 265.315
1276.633, 215.484
1277.838, 301.239
1279.042, 204.821
1280.246, 281.723
1281.450, 275.411
1282.654, 133.456
1283.858, 278.382
1285.061, 254.836
1286.265, 188.969
1287.468, 280.065
1288.671, 144.808
1289.873, 226.548
1291.076, 281.308
1292.278, 130.609
1293.480, 233.833
1294.682, 129.405
1295.884, 131.837
1297.086, 291.282
1298.287, 126.744
1299.488, 154.262
1300.689, 264.405
1301.890, 141.675
1303.091, 239.922
1304.291, 197.806
1305.491, 105.038
1306.691, 268.549
1307.891, 98.872
1309.091, 223.000
1310.290, 230.146
1311.490, 70.408
1312.689, 185.328
1313.888, 187.422
1315.086, 147.218
1316.285, 257.822
1317.483, 111.168
1318.681, 64.223
1319.879, 199.760
1321.077, 18.290
1322.275, 103.883
1323.472, 206.994
1324.669, 66.519
1325.866, 185.023
1327.063, 151.813
1328.260, 131.489
1329.456, 195.574
1330.653, 123.712
1331.849, 96.214
1333.045, 190.127
1334.240, 15.988
1335.436, 107.444
1336.631, 130.060
1337.826, 77.053
1339.021, 195.734
1340.216, 151.342
1341.411, 117.227
1342.605, 141.970
1343.799, 82.776
1344.993, 239.473
1346.187, 181.888
1347.381, 55.649
1348.574, 277.147
1349.767, 159.509
1350.961, 82.146
1352.153, 192.359
1353.346, 86.004
1354.539, 83.363
1355.731, 196.892
1356.923, 15.394
1358.115, 105.446
1359.307, 261.533
1360.498, 110.668
1361.690, 186.422
1362.881, 186.597
1364.072, 79.895
1365.263, 268.971
1366.453, 128.978
1367.644, 147.094
1368.834, 214.446
1370.024, 58.830
1371.214, 99.021
1372.404, 134.534
1373.593, 3.417
1374.783, 185.606
1375.972, 101.766
1377.161, 91.863
1378.349, 255.644
1379.538, 87.283
1380.726, 117.771
1381.915, 223.371
1383.103, 114.123
1384.290, 226.022
1385.478, 142.177
1386.665, 88.310
1387.853, 208.941
1389.040, 116.316
1390.227, 100.328
1391.413, 199.493
1392.600, 127.989
1393.786, 136.679
1394.972, 222.707
1396.158, 31.626
1397.344, 195.097
1398.530, 161.724
1399.715, 88.761
1400.900, 186.660
1402.085, 18.744
1403.270, 80.602
1404.455, 205.858
1405.639, 89.348
1406.824, 143.611
1408.008, 169.211
1409.192, 41.741
1410.375, 178.368
1411.559, 145.995
1412.742, 30.648
1413.925, 204.396
1415.108, 67.927
1416.291, 109.409
1417.474, 196.078
1418.656, 11.402
1419.839, 48.495
1421.021, 131.499
1422.202, 29.320
1423.384, 228.492
1424.566, 128.638
1425.747, 40.579
1426.928, 112.730
1428.109, 4.214
1429.290, 32.684
1430.470, 117.386
1431.651, 5.850
1432.831, 97.464
1434.011, 97.096
1435.191, 45.197
1436.370, 178.810
1437.550, 125.774
1438.729, 76.585
1439.908, 138.292
1441.087, 42.233
1442.266, 12.450
1443.444, 250.617
1444.623, 74.537
1445.801, 46.742
1446.979, 198.777
1448.157, 78.047
1449.334, 192.259
1450.512, 83.394
1451.689, 103.358
1452.866, 190.237
1454.043, 107.250
1455.220, 69.368
1456.396, 288.835
1457.573, 35.270
1458.749, 160.294
1459.925, 176.578
1461.100, 48.464
1462.276, 214.355
1463.451, 102.640
1464.627, 80.467
1465.802, 203.152
1466.977, 155.950
1468.151, 44.274
1469.326, 210.283
1470.500, 154.629
1471.674, 60.675
1472.848, 224.087
1474.022, 39.175
1475.195, 103.681
1476.369, 95.873
1477.542, 0.025
1478.715, 174.970
1479.888, 115.369
1481.061, 16.063
1482.233, 204.699
1483.405, 1.633
1484.577, 116.941
1485.749, 171.070
1486.921, 49.028
1488.093, 60.064
1489.264, 176.372
1490.435, 32.954
1491.606, 104.327
1492.777, 12.818
1493.948, 53.555
1495.118, 190.499
1496.288, 1.462
1497.459, 121.455
1498.628, 147.030
1499.798, 28.006
1500.968, 0.000
##END=



