##NAMES=Vesuvianite
##RRUFFID=R050233
##IDEAL CHEMISTRY=(Ca,Na)_19_(Al,Mg,Fe^3+^)_13_(SiO_4_)_10_(Si_2_O_7_)_4_(OH,F,O)_10_
##LOCALITY=Ludwig, Nevada, USA
##OWNER=RRUFF
##SOURCE=Marcus Origlieri
##DESCRIPTION=Pale green euhedral single crystal
##STATUS=The identification of this mineral has been confirmed by X-ray diffraction and chemical analysis
##URL=rruff.info/R050233
##MEASURED CHEMISTRY=Ca_19.00_(Al_10.04_Mg_2.54_Fe^2+^_0.42_)_Σ=13_(Si_17.96_Al_0.04_)_Σ=18_O_68_((OH)_9.66_F_0.34_)_Σ=10_ ; Boron not analyzed.
##PIN_ID=L00161
##ORIENTATION=Laser parallel to -c* (0 0 -1). Fiducial mark perpendicular to laser is parallel to -a [-1 0 0]
115.644, 0.000
117.034, 142.752
118.424, 58.416
119.813, 251.547
121.203, 135.352
122.592, 187.350
123.981, 168.195
125.369, 16.904
126.758, 44.049
128.146, 44.127
129.534, 159.258
130.922, 11.746
132.309, 232.027
133.696, 28.840
135.083, 476.967
136.470, 396.225
137.857, 690.443
139.243, 677.469
140.630, 603.154
142.016, 480.369
143.401, 493.000
144.787, 384.242
146.172, 397.113
147.557, 215.432
148.942, 199.836
150.327, 72.273
151.711, 65.701
153.096, 395.076
154.480, 472.359
155.863, 504.518
157.247, 889.510
158.630, 1092.279
160.013, 1348.760
161.396, 1727.895
162.779, 2227.635
164.161, 2123.953
165.544, 2410.814
166.926, 2300.195
168.308, 2329.074
169.689, 2331.434
171.070, 2718.256
172.452, 2684.523
173.833, 2812.227
175.213, 2912.352
176.594, 2661.883
177.974, 2855.820
179.354, 2871.166
180.734, 2680.930
182.114, 2411.119
183.493, 2267.740
184.872, 2062.789
186.251, 1881.262
187.630, 1635.021
189.008, 1310.416
190.387, 1154.078
191.765, 949.115
193.143, 811.516
194.520, 655.268
195.898, 722.355
197.275, 490.777
198.652, 893.445
200.029, 957.152
201.405, 1029.898
202.782, 1000.686
204.158, 1240.500
205.534, 1671.344
206.909, 1618.289
208.285, 2012.348
209.660, 2611.529
211.035, 2556.844
212.410, 3037.297
213.784, 3350.898
215.159, 3382.650
216.533, 3633.555
217.907, 3479.619
219.281, 3310.846
220.654, 2879.232
222.027, 2774.787
223.400, 2458.506
224.773, 2194.391
226.146, 2034.441
227.518, 1814.660
228.891, 1648.975
230.263, 1471.107
231.634, 1336.314
233.006, 1159.195
234.377, 990.242
235.748, 905.455
237.119, 812.830
238.490, 1167.451
239.860, 903.354
241.231, 1243.590
242.601, 1230.254
243.970, 1510.221
245.340, 1854.648
246.709, 1958.447
248.079, 2759.582
249.448, 2834.984
250.816, 3486.650
252.185, 4022.621
253.553, 4306.850
254.921, 4537.016
256.289, 4531.621
257.657, 4504.336
259.024, 4128.023
260.391, 3749.881
261.758, 3289.867
263.125, 2890.996
264.492, 2961.270
265.858, 2508.635
267.224, 2593.094
268.590, 2284.645
269.956, 2586.285
271.321, 2784.018
272.687, 2886.844
274.052, 2780.756
275.416, 3510.758
276.781, 3396.848
278.146, 3568.031
279.510, 3952.303
280.874, 4128.230
282.237, 4885.266
283.601, 4798.348
284.964, 4950.543
286.327, 5601.555
287.690, 5278.727
289.053, 5420.268
290.416, 5701.502
291.778, 5342.898
293.140, 5356.545
294.502, 4903.342
295.863, 4911.414
297.225, 4683.750
298.586, 4473.332
299.947, 4409.156
301.308, 4074.211
302.668, 3873.482
304.029, 3982.967
305.389, 3604.654
306.749, 3254.539
308.108, 3308.613
309.468, 2951.873
310.827, 2965.311
312.186, 2647.920
313.545, 2882.695
314.903, 2704.633
316.262, 2516.730
317.620, 2725.980
318.978, 2582.379
320.336, 2752.926
321.693, 2888.609
323.051, 2884.434
324.408, 2554.391
325.765, 2997.480
327.121, 2676.695
328.478, 2892.039
329.834, 2711.504
331.190, 3118.092
332.546, 2669.793
333.902, 3072.611
335.257, 2812.543
336.612, 2977.588
337.967, 3158.742
339.322, 3142.002
340.677, 3263.369
342.031, 3374.838
343.385, 3506.506
344.739, 3679.078
346.093, 3927.844
347.446, 4090.707
348.799, 4451.658
350.153, 4997.703
351.505, 5120.840
352.858, 5513.072
354.210, 6018.381
355.563, 6299.773
356.915, 6987.242
358.267, 7564.793
359.618, 7943.902
360.969, 8577.686
362.321, 8914.715
363.672, 9179.969
365.022, 9257.594
366.373, 9206.680
367.723, 8896.615
369.073, 8636.314
370.423, 8215.965
371.773, 7547.078
373.122, 7235.668
374.471, 7027.713
375.821, 6183.609
377.169, 6205.010
378.518, 5313.398
379.866, 5145.438
381.215, 4699.422
382.563, 4261.215
383.910, 3822.598
385.258, 3828.488
386.605, 3792.455
387.952, 3209.545
389.299, 3370.914
390.646, 3092.762
391.992, 3143.936
393.339, 3211.164
394.685, 3331.438
396.031, 3469.041
397.376, 3436.133
398.722, 3786.549
400.067, 3878.012
401.412, 3981.809
402.757, 4281.438
404.101, 4814.631
405.446, 4688.273
406.790, 4966.963
408.134, 5011.898
409.478, 5093.715
410.821, 5146.629
412.165, 4697.570
413.508, 4674.652
414.851, 4417.762
416.193, 3985.898
417.536, 3895.109
418.878, 3565.387
420.220, 3186.740
421.562, 2451.121
422.904, 2494.551
424.245, 2225.004
425.586, 1769.482
426.927, 1742.047
428.268, 1041.639
429.609, 876.295
430.949, 889.975
432.289, 959.711
433.629, 501.539
434.969, 779.441
436.309, 314.418
437.648, 381.420
438.987, 317.479
440.326, 225.564
441.665, 323.711
443.003, 511.980
444.342, 501.301
445.680, 698.773
447.018, 651.297
448.355, 525.953
449.693, 702.658
451.030, 799.426
452.367, 887.334
453.704, 530.293
455.041, 853.365
456.377, 660.477
457.713, 919.635
459.049, 699.871
460.385, 952.143
461.721, 1014.531
463.056, 868.949
464.391, 1020.400
465.726, 1336.881
467.061, 1270.385
468.395, 1357.910
469.730, 1726.455
471.064, 1409.020
472.398, 1955.602
473.731, 1680.199
475.065, 1919.812
476.398, 2109.438
477.731, 2163.078
479.064, 1906.727
480.397, 2227.387
481.729, 2058.055
483.062, 1646.729
484.394, 1825.412
485.725, 1551.100
487.057, 1504.789
488.389, 1472.482
489.720, 1022.184
491.051, 809.883
492.382, 1032.582
493.712, 821.277
495.043, 481.977
496.373, 534.672
497.703, 576.365
499.032, 462.053
500.362, 479.736
501.691, 497.414
503.020, 427.586
504.349, 371.748
505.678, 293.402
507.007, 256.049
508.335, 59.686
509.663, 177.311
510.991, 282.924
512.319, 10.525
513.646, 323.113
514.973, 66.686
516.300, 217.244
517.627, 334.785
518.954, 262.689
520.280, 9.689
521.607, 84.955
522.933, 156.658
524.259, 158.461
525.584, 299.367
526.910, 56.449
528.235, 179.588
529.560, 36.842
530.885, 258.146
532.209, 373.617
533.534, 122.312
534.858, 66.107
536.182, 136.971
537.506, 228.941
538.829, 18.926
540.152, 152.242
541.476, 40.469
542.799, 247.852
544.121, 141.348
545.444, 63.035
546.766, 138.613
548.088, 92.385
549.410, 2.744
550.732, 107.818
552.053, 158.861
553.375, 189.641
554.696, 231.617
556.017, 171.791
557.337, 189.699
558.658, 123.572
559.978, 59.061
561.298, 201.275
562.618, 2.980
563.938, 145.812
565.257, 321.887
566.576, 112.479
567.895, 420.736
569.214, 459.314
570.533, 578.867
571.851, 421.975
573.170, 924.074
574.488, 806.910
575.805, 952.410
577.123, 1164.352
578.440, 1409.578
579.758, 1684.342
581.075, 1748.973
582.391, 2232.152
583.708, 2309.320
585.024, 2301.047
586.341, 2897.592
587.657, 3046.531
588.972, 3467.543
590.288, 3657.160
591.603, 3972.361
592.918, 4225.475
594.233, 4588.537
595.548, 4650.684
596.863, 4961.537
598.177, 5146.586
599.491, 5365.656
600.805, 5509.230
602.119, 5886.973
603.432, 6244.887
604.746, 6586.768
606.059, 6386.805
607.372, 6477.459
608.685, 6830.475
609.997, 6564.525
611.309, 6674.002
612.621, 6507.102
613.933, 6890.781
615.245, 6902.859
616.557, 7029.836
617.868, 6972.096
619.179, 7301.105
620.490, 7295.164
621.801, 7883.227
623.111, 7922.477
624.421, 8472.463
625.731, 8461.432
627.041, 9771.410
628.351, 9465.633
629.660, 10413.531
630.970, 11498.211
632.279, 11397.180
633.588, 12277.555
634.896, 12152.074
636.205, 13554.289
637.513, 12789.424
638.821, 13147.477
640.129, 13114.453
641.437, 13097.346
642.744, 12334.160
644.051, 11752.895
645.358, 11186.547
646.665, 10036.121
647.972, 9120.609
649.278, 8149.020
650.584, 7122.348
651.890, 6771.594
653.196, 5532.758
654.502, 5330.842
655.807, 4098.842
657.113, 3944.762
658.418, 4065.596
659.722, 3357.350
661.027, 3113.020
662.331, 3148.607
663.636, 2975.111
664.940, 2683.535
666.244, 2600.873
667.547, 2301.129
668.851, 2661.301
670.154, 2475.375
671.457, 2564.379
672.760, 2864.301
674.062, 2599.141
675.365, 2940.895
676.667, 3129.088
677.969, 3366.600
679.271, 3860.854
680.572, 4262.770
681.874, 4756.527
683.175, 5381.070
684.476, 5820.023
685.777, 6510.572
687.077, 6719.164
688.378, 7741.289
689.678, 7943.926
690.978, 8413.102
692.278, 8487.086
693.577, 8649.215
694.877, 7982.020
696.176, 7676.164
697.475, 6884.352
698.774, 6513.717
700.072, 5512.484
701.371, 5020.730
702.669, 3773.889
703.967, 3428.908
705.265, 3403.635
706.562, 2457.869
707.860, 1584.758
709.157, 1888.582
710.454, 1110.338
711.751, 1329.031
713.047, 731.654
714.344, 816.215
715.640, 420.709
716.936, 205.844
718.232, 701.186
719.527, 254.801
720.823, 131.004
722.118, 284.119
723.413, 92.043
724.708, 115.180
726.002, 483.496
727.297, 301.895
728.591, 331.428
729.885, 383.684
731.179, 74.133
732.472, 35.107
733.766, 89.230
735.059, 171.477
736.352, 12.105
737.645, 231.621
738.937, 222.062
740.230, 138.566
741.522, 86.609
742.814, 82.299
744.106, 210.629
745.397, 49.512
746.689, 184.799
747.980, 120.297
749.271, 151.975
750.562, 153.154
751.853, 80.789
753.143, 68.111
754.433, 99.072
755.723, 201.416
757.013, 155.023
758.303, 317.607
759.592, 118.490
760.881, 245.486
762.170, 124.303
763.459, 4.023
764.748, 286.359
766.036, 293.010
767.325, 181.684
768.613, 205.430
769.901, 3.479
771.188, 109.562
772.476, 244.244
773.763, 276.012
775.050, 250.500
776.337, 65.951
777.624, 161.334
778.910, 202.654
780.196, 423.914
781.482, 400.123
782.768, 319.281
784.054, 375.385
785.339, 404.439
786.625, 313.441
787.910, 624.396
789.195, 375.301
790.479, 565.162
791.764, 535.980
793.048, 512.760
794.332, 878.500
795.616, 752.211
796.900, 886.877
798.183, 627.504
799.467, 869.090
800.750, 1002.637
802.033, 823.143
803.316, 1339.602
804.598, 778.023
805.880, 1316.400
807.163, 1389.736
808.445, 1118.033
809.726, 1264.287
811.008, 1428.500
812.289, 1362.676
813.570, 1569.812
814.851, 1558.910
816.132, 1802.969
817.413, 1561.988
818.693, 1983.973
819.973, 1995.922
821.253, 1940.832
822.533, 2308.709
823.813, 2445.547
825.092, 2604.354
826.371, 2607.148
827.650, 2571.912
828.929, 3278.715
830.208, 3477.488
831.486, 3135.291
832.764, 3683.076
834.042, 3705.961
835.320, 4072.906
836.598, 4493.859
837.875, 4606.980
839.152, 5018.086
840.429, 5806.277
841.706, 5511.453
842.983, 6087.742
844.259, 6875.203
845.536, 6662.680
846.812, 7417.148
848.088, 7929.652
849.363, 8572.195
850.639, 9301.766
851.914, 9546.398
853.189, 10064.062
854.464, 10866.773
855.739, 11016.848
857.013, 11402.379
858.288, 11593.234
859.562, 11895.094
860.836, 12132.957
862.110, 11156.797
863.383, 11662.613
864.656, 11329.410
865.930, 11076.188
867.203, 11116.941
868.475, 10711.738
869.748, 10137.992
871.020, 10242.191
872.292, 10266.969
873.564, 9933.555
874.836, 10044.891
876.108, 9749.617
877.379, 10270.660
878.650, 9932.281
879.922, 9987.969
881.192, 9973.047
882.463, 9965.070
883.733, 9798.324
885.004, 9775.855
886.274, 9799.883
887.544, 9674.785
888.813, 9739.719
890.083, 9469.914
891.352, 9628.504
892.621, 9372.047
893.890, 9219.973
895.159, 9230.016
896.427, 8801.609
897.695, 9122.066
898.964, 8892.863
900.232, 8572.246
901.499, 8570.758
902.767, 8850.367
904.034, 8435.391
905.301, 8627.656
906.568, 8818.664
907.835, 8809.965
909.102, 8553.938
910.368, 8709.070
911.634, 9052.965
912.900, 9041.836
914.166, 9690.488
915.432, 9553.453
916.697, 9421.008
917.962, 10272.461
919.227, 10152.430
920.492, 10796.711
921.757, 11229.348
923.021, 11970.523
924.285, 12232.738
925.550, 12744.609
926.813, 13054.668
928.077, 13480.730
929.341, 13938.613
930.604, 14441.246
931.867, 13969.078
933.130, 14311.867
934.393, 14682.582
935.655, 13777.059
936.918, 14230.926
938.180, 13331.961
939.442, 12979.562
940.703, 12909.836
941.965, 12474.414
943.226, 12201.215
944.488, 11443.707
945.749, 11460.410
947.009, 10934.238
948.270, 10417.082
949.530, 10405.254
950.791, 10463.438
952.051, 9966.840
953.311, 9496.945
954.570, 9983.059
955.830, 9673.184
957.089, 9442.320
958.348, 9204.461
959.607, 9192.613
960.866, 8756.773
962.124, 8258.953
963.383, 8507.145
964.641, 7947.336
965.899, 7777.547
967.156, 7598.766
968.414, 7118.992
969.671, 6888.223
970.928, 6546.461
972.185, 6629.141
973.442, 6184.395
974.699, 6236.660
975.955, 6135.938
977.211, 5648.582
978.468, 5781.938
979.723, 5537.395
980.979, 4950.801
982.234, 5514.438
983.490, 4283.559
984.745, 4632.434
986.000, 4359.367
987.254, 3835.703
988.509, 4157.836
989.763, 3585.465
991.017, 3544.191
992.271, 3298.207
993.525, 3056.977
994.779, 3166.062
996.032, 3158.703
997.285, 3129.664
998.538, 2486.332
999.791, 3153.816
1001.044, 2449.352
1002.296, 2902.375
1003.548, 2577.207
1004.800, 2512.504
1006.052, 2735.234
1007.304, 2380.348
1008.555, 2486.051
1009.807, 2554.379
1011.058, 2495.020
1012.309, 2496.004
1013.559, 2358.828
1014.810, 2163.055
1016.060, 2589.262
1017.310, 2420.551
1018.560, 2123.805
1019.810, 2523.082
1021.060, 2612.203
1022.309, 2287.531
1023.558, 2676.254
1024.807, 2226.016
1026.056, 2488.262
1027.305, 2297.004
1028.553, 2641.094
1029.801, 2644.953
1031.049, 2117.270
1032.297, 2575.336
1033.545, 3045.277
1034.793, 2547.652
1036.040, 2658.066
1037.287, 2746.172
1038.534, 2812.812
1039.781, 3151.367
1041.027, 2612.574
1042.274, 2950.555
1043.520, 3199.184
1044.766, 2462.891
1046.012, 2213.129
1047.257, 2147.617
1048.503, 2247.809
1049.748, 1528.672
1050.993, 1968.406
1052.238, 1810.434
1053.483, 1191.566
1054.727, 1126.695
1055.971, 1642.883
1057.216, 1086.094
1058.459, 1016.367
1059.703, 661.730
1060.947, 883.113
1062.190, 726.613
1063.433, 664.125
1064.676, 488.734
1065.919, 412.336
1067.162, 401.625
1068.404, 262.664
1069.646, 376.387
1070.888, 691.180
1072.130, 610.992
1073.372, 444.832
1074.613, 715.730
1075.855, 303.953
1077.096, 202.965
1078.337, 874.988
1079.578, 385.027
1080.818, 390.730
1082.059, 293.762
1083.299, 382.688
1084.539, 236.609
1085.779, 207.285
1087.018, 206.789
1088.258, 229.199
1089.497, 197.492
1090.736, 76.609
1091.975, 37.684
1093.213, 3.324
1094.452, 19.543
1095.690, 51.859
1096.928, 94.691
1098.166, 22.312
1099.404, 260.809
1100.642, 3.273
1101.879, 457.859
1103.116, 302.141
1104.353, 594.383
1105.590, 336.492
1106.827, 919.570
1108.063, 562.426
1109.299, 896.211
1110.536, 998.559
1111.771, 474.215
1113.007, 757.828
1114.243, 812.863
1115.478, 561.402
1116.713, 647.902
1117.948, 524.352
1119.183, 491.664
1120.418, 227.137
1121.652, 422.465
1122.886, 574.746
1124.120, 461.520
1125.354, 43.301
1126.588, 85.918
1127.821, 244.035
1129.055, 319.883
1130.288, 268.730
1131.521, 10.516
1132.753, 387.785
1133.986, 148.277
1135.218, 375.117
1136.450, 387.555
1137.682, 286.598
1138.914, 187.309
1140.146, 35.668
1141.377, 201.418
1142.609, 332.629
1143.840, 82.992
1145.071, 214.555
1146.301, 3.938
1147.532, 105.461
1148.762, 111.191
1149.992, 117.945
1151.222, 128.816
1152.452, 140.238
1153.682, 236.758
1154.911, 182.109
1156.140, 91.086
1157.369, 132.637
1158.598, 95.305
1159.827, 208.922
1161.055, 245.203
1162.284, 148.023
1163.512, 151.848
1164.740, 139.293
1165.967, 172.305
1167.195, 141.004
1168.422, 172.789
1169.650, 360.945
1170.877, 17.062
1172.103, 110.855
1173.330, 59.145
1174.557, 260.078
1175.783, 188.984
1177.009, 282.375
1178.235, 156.109
1179.461, 88.508
1180.686, 6.824
1181.912, 595.090
1183.137, 1041.449
1184.362, 38.086
1185.587, 372.344
1186.811, 503.762
1188.036, 113.176
1189.260, 320.582
1190.484, 426.980
1191.708, 749.363
1192.932, 301.738
1194.155, 260.098
1195.378, 339.445
1196.602, 501.777
1197.825, 254.082
1199.047, 491.367
1200.270, 441.625
1201.492, 919.859
1202.715, 821.543
1203.937, 863.090
1205.159, 619.215
1206.380, 657.297
1207.602, 594.156
1208.823, 537.770
1210.044, 564.230
1211.265, 652.977
1212.486, 716.211
1213.707, 676.227
1214.927, 737.789
1216.147, 556.840
1217.367, 672.547
1218.587, 546.242
1219.807, 657.930
1221.027, 555.594
1222.246, 445.250
1223.465, 764.906
1224.684, 856.562
1225.903, 693.625
1227.121, 380.289
1228.340, 825.098
1229.558, 970.383
1230.776, 672.523
1231.994, 538.438
1233.212, 629.203
1234.429, 688.609
1235.646, 470.637
1236.864, 735.395
1238.081, 461.898
1239.297, 830.184
1240.514, 766.055
1241.730, 693.586
1242.947, 650.730
1244.163, 281.773
1245.378, 654.629
1246.594, 655.203
1247.810, 74.219
1249.025, 536.055
1250.240, 329.609
1251.455, 270.129
1252.670, 593.109
1253.885, 437.785
1255.099, 442.145
1256.313, 0.496
1257.527, 451.766
1258.741, 431.891
1259.955, 92.164
1261.168, 413.746
1262.382, 495.629
1263.595, 423.680
1264.808, 472.926
1266.021, 365.734
1267.233, 331.051
1268.446, 524.840
1269.658, 58.090
1270.870, 272.848
1272.082, 140.172
1273.294, 314.906
1274.505, 268.949
1275.716, 358.402
1276.928, 213.910
1278.139, 372.699
1279.349, 392.973
1280.560, 187.500
1281.770, 319.297
1282.981, 154.883
1284.191, 385.758
1285.401, 290.758
1286.610, 174.863
1287.820, 355.914
1289.029, 273.480
1290.239, 408.223
1291.448, 369.469
1292.656, 237.016
1293.865, 349.008
1295.073, 256.844
1296.282, 32.535
1297.490, 248.926
1298.698, 476.246
1299.906, 227.758
1301.113, 57.324
1302.320, 133.598
1303.528, 461.234
1304.735, 178.391
1305.942, 248.949
1307.148, 616.820
1308.355, 3.078
1309.561, 589.570
1310.767, 286.824
1311.973, 388.781
1313.179, 40.699
1314.384, 570.719
1315.590, 313.742
1316.795, 403.238
1318.000, 41.164
1319.205, 677.090
1320.410, 279.781
1321.614, 69.484
1322.819, 630.258
1324.023, 264.449
1325.227, 693.754
1326.431, 667.895
1327.634, 0.000
##END=



