##NAMES=Vesuvianite
##RRUFFID=R050035
##IDEAL CHEMISTRY=(Ca,Na)_19_(Al,Mg,Fe^3+^)_13_(SiO_4_)_10_(Si_2_O_7_)_4_(OH,F,O)_10_
##LOCALITY=Olmsteadville, New York, USA
##OWNER=RRUFF
##SOURCE=University of Arizona Mineral Museum
##DESCRIPTION=Brown single crystal fragment
##STATUS=The identification of this mineral has been confirmed by X-ray diffraction and chemical analysis
##URL=rruff.info/R050035
##MEASURED CHEMISTRY=(Ca_18.66_Na_0.34_)_Σ=19_(Al_9.16_Mg_1.28_Ti_1.21_Fe^3+^_0.89_Fe^2+^_0.46_)_Σ=13_Si_18_O_68_((OH)_4.70_F_3.18_O_2.12_)_Σ=10_
##PIN_ID=L00076
##ORIENTATION=Laser parallel to c* (0 0 1). Fiducial mark perpendicular to laser is parallel to a [1 0 0]
104.109, 0.000
105.505, 23.024
106.902, 119.777
108.298, 135.347
109.694, 193.752
111.090, 615.094
112.486, 970.469
113.881, 900.985
115.277, 666.379
116.672, 434.032
118.066, 379.106
119.461, 268.942
120.855, 244.164
122.249, 107.473
123.643, 199.617
125.036, 150.396
126.430, 209.685
127.823, 120.436
129.216, 220.217
130.608, 188.368
132.001, 134.233
133.393, 205.045
134.785, 168.722
136.176, 237.192
137.568, 200.395
138.959, 236.276
140.350, 300.791
141.741, 177.895
143.131, 100.552
144.521, 126.729
145.911, 151.434
147.301, 73.034
148.691, 5.146
150.080, 17.575
151.469, 21.698
152.858, 32.689
154.247, 0.592
155.635, 8.528
157.024, 9.828
158.411, 22.383
159.799, 112.155
161.187, 187.164
162.574, 279.417
163.961, 383.904
165.348, 372.615
166.734, 515.542
168.121, 468.679
169.507, 494.019
170.893, 443.559
172.278, 473.193
173.664, 498.535
175.049, 553.329
176.434, 614.620
177.819, 717.089
179.203, 860.731
180.587, 883.540
181.971, 1032.514
183.355, 1047.646
184.739, 1093.935
186.122, 1117.375
187.505, 1132.869
188.888, 961.699
190.271, 879.874
191.653, 818.875
193.035, 628.115
194.417, 526.406
195.799, 540.755
197.180, 440.169
198.562, 355.655
199.943, 332.216
201.324, 262.855
202.704, 309.575
204.084, 320.581
205.465, 551.920
206.844, 484.759
208.224, 768.506
209.603, 719.397
210.983, 850.480
212.362, 1137.809
213.740, 1342.547
215.119, 1506.589
216.497, 1648.968
217.875, 1985.686
219.253, 2148.549
220.631, 2393.494
222.008, 2358.492
223.385, 2277.548
224.762, 2071.666
226.139, 1805.853
227.515, 1556.115
228.891, 1281.459
230.267, 1064.894
231.643, 887.419
233.018, 862.041
234.394, 756.761
235.769, 805.578
237.144, 735.489
238.518, 696.492
239.893, 732.583
241.267, 618.761
242.641, 640.024
244.014, 634.370
245.388, 593.797
246.761, 610.304
248.134, 614.889
249.507, 619.548
250.879, 795.282
252.252, 840.087
253.624, 868.964
254.996, 922.908
256.367, 938.919
257.739, 875.996
259.110, 659.135
260.481, 646.336
261.852, 485.598
263.222, 297.918
264.592, 202.295
265.962, 99.728
267.332, 70.214
268.702, 4.068
270.071, 46.657
271.440, 80.800
272.809, 104.134
274.178, 81.050
275.546, 78.618
276.915, 1.111
278.283, 21.892
279.650, 126.341
281.018, 134.791
282.385, 166.438
283.752, 246.266
285.119, 333.261
286.486, 426.414
287.852, 492.714
289.218, 560.153
290.584, 484.724
291.950, 588.419
293.316, 514.228
294.681, 442.140
296.046, 454.158
297.411, 222.280
298.775, 205.502
300.140, 134.819
301.504, 73.229
302.868, 4.274
304.231, 47.693
305.595, 109.034
306.958, 116.058
308.321, 112.444
309.684, 70.672
311.047, 33.759
312.409, 79.218
313.771, 184.572
315.133, 360.200
316.495, 580.299
317.856, 608.001
319.217, 873.505
320.578, 1067.228
321.939, 1193.266
323.299, 1266.176
324.660, 1520.024
326.020, 1554.844
327.380, 1639.729
328.739, 1854.158
330.099, 1788.478
331.458, 1884.225
332.817, 1710.521
334.176, 1563.344
335.534, 1550.227
336.892, 1349.174
338.251, 1190.200
339.608, 1082.328
340.966, 1004.570
342.323, 920.254
343.681, 991.559
345.037, 870.317
346.394, 882.282
347.751, 983.442
349.107, 941.822
350.463, 891.406
351.819, 935.211
353.174, 971.188
354.530, 910.320
355.885, 943.604
357.240, 1004.048
358.594, 1148.650
359.949, 1049.365
361.303, 1175.149
362.657, 1211.974
364.011, 1376.828
365.365, 1437.710
366.718, 1547.622
368.071, 1657.558
369.424, 1667.491
370.777, 1826.405
372.129, 1766.326
373.481, 1875.274
374.833, 1841.248
376.185, 1686.245
377.537, 1421.264
378.888, 1258.303
380.239, 1099.189
381.590, 946.435
382.941, 835.526
384.291, 731.151
385.642, 628.752
386.992, 597.888
388.341, 551.460
389.691, 547.758
391.040, 556.375
392.389, 598.563
393.738, 648.763
395.087, 747.975
396.435, 959.196
397.784, 953.428
399.132, 1211.669
400.479, 1382.919
401.827, 1535.178
403.174, 1966.444
404.521, 2018.717
405.868, 2319.996
407.215, 2481.282
408.561, 2552.574
409.908, 2923.871
411.254, 2975.171
412.599, 3216.477
413.945, 3157.785
415.290, 3149.096
416.636, 3080.409
417.980, 2741.726
419.325, 2643.043
420.670, 2149.361
422.014, 1993.681
423.358, 1605.000
424.702, 1522.319
426.045, 1182.639
427.389, 1025.956
428.732, 927.272
430.075, 657.588
431.417, 476.812
432.760, 434.245
434.102, 446.792
435.444, 282.671
436.786, 188.237
438.127, 291.885
439.469, 176.277
440.810, 105.332
442.151, 196.780
443.492, 107.239
444.832, 277.706
446.172, 367.182
447.512, 153.664
448.852, 320.153
450.192, 314.648
451.531, 356.147
452.870, 283.651
454.209, 291.157
455.548, 363.667
456.887, 347.177
458.225, 275.689
459.563, 321.203
460.901, 222.716
462.238, 381.229
463.576, 177.741
464.913, 184.129
466.250, 264.579
467.587, 255.175
468.923, 206.520
470.259, 113.971
471.596, 138.738
472.931, 104.493
474.267, 39.982
475.603, 5.548
476.938, 15.122
478.273, 26.741
479.608, 89.413
480.942, 161.167
482.276, 198.040
483.611, 18.051
484.944, 106.113
486.278, 155.271
487.612, 31.547
488.945, 179.883
490.278, 91.351
491.611, 104.091
492.943, 2.523
494.276, 154.968
495.608, 215.258
496.940, 340.062
498.271, 342.409
499.603, 489.988
500.934, 622.929
502.265, 653.811
503.596, 919.574
504.927, 983.789
506.257, 1161.442
507.587, 1332.515
508.917, 1353.487
510.247, 1503.955
511.577, 1513.222
512.906, 1583.058
514.235, 1655.725
515.564, 1616.093
516.892, 1530.335
518.221, 1507.446
519.549, 1705.956
520.877, 1472.166
522.205, 1252.043
523.533, 1412.866
524.860, 1193.646
526.187, 1281.381
527.514, 1215.073
528.841, 1209.910
530.167, 1244.880
531.493, 1310.887
532.820, 1260.405
534.145, 1398.879
535.471, 1368.310
536.796, 1541.696
538.122, 1460.041
539.447, 1498.340
540.771, 1468.596
542.096, 1593.809
543.420, 1623.978
544.744, 1601.103
546.068, 1832.186
547.392, 1825.225
548.715, 1766.221
550.039, 1812.174
551.362, 1817.083
552.684, 1854.949
554.007, 1829.773
555.329, 1673.554
556.652, 1825.292
557.973, 1587.987
559.295, 1697.640
560.617, 1550.250
561.938, 1421.817
563.259, 1420.343
564.580, 1296.827
565.901, 1370.269
567.221, 1336.668
568.541, 1225.026
569.861, 1308.343
571.181, 1200.618
572.501, 1296.852
573.820, 1218.045
575.139, 1184.197
576.458, 1192.309
577.777, 1059.379
579.095, 1159.410
580.414, 1149.401
581.732, 1197.353
583.049, 1274.264
584.367, 1277.135
585.685, 1361.968
587.002, 1331.761
588.319, 1541.516
589.636, 1564.232
590.952, 1696.911
592.268, 1819.556
593.585, 1939.171
594.900, 2089.761
596.216, 2151.321
597.532, 2344.852
598.847, 2593.345
600.162, 2634.804
601.477, 2910.226
602.792, 2957.610
604.106, 3184.959
605.420, 3372.271
606.734, 3239.548
608.048, 3316.788
609.361, 3433.993
610.675, 3511.162
611.988, 3568.297
613.301, 3495.397
614.614, 3502.461
615.926, 3419.494
617.238, 3426.490
618.550, 3193.454
619.862, 3170.384
621.174, 2967.282
622.485, 2734.148
623.797, 2750.983
625.108, 2539.792
626.418, 2293.585
627.729, 2193.359
629.039, 1938.121
630.349, 1896.861
631.659, 1736.576
632.969, 1554.954
634.279, 1535.094
635.588, 1287.639
636.897, 1348.481
638.206, 1276.846
639.515, 974.983
640.823, 1009.887
642.131, 960.952
643.439, 752.111
644.747, 755.331
646.055, 554.518
647.362, 497.191
648.669, 358.004
649.976, 302.422
651.283, 208.997
652.589, 71.722
653.896, 34.078
655.202, 29.628
656.508, 121.423
657.814, 177.660
659.119, 418.450
660.424, 323.832
661.729, 477.451
663.034, 551.384
664.339, 513.669
665.643, 611.285
666.947, 559.280
668.251, 671.625
669.555, 589.375
670.859, 511.487
672.162, 383.915
673.465, 418.590
674.768, 405.528
676.071, 241.719
677.373, 73.073
678.676, 33.497
679.978, 315.046
681.280, 378.600
682.581, 636.155
683.883, 1063.716
685.184, 1364.281
686.485, 1985.853
687.786, 2472.431
689.087, 3034.017
690.387, 3785.610
691.687, 4487.213
692.987, 5138.827
694.287, 5410.450
695.586, 5262.086
696.886, 5083.733
698.185, 4445.394
699.484, 3727.069
700.783, 3108.758
702.081, 2650.461
703.379, 2080.182
704.677, 1721.947
705.975, 1337.672
707.273, 1123.444
708.570, 975.236
709.868, 839.047
711.165, 718.879
712.462, 848.732
713.758, 882.607
715.055, 842.504
716.351, 1205.426
717.647, 1336.371
718.943, 1634.341
720.238, 1892.338
721.533, 2228.360
722.829, 2580.410
724.124, 3072.487
725.418, 3684.594
726.713, 4166.729
728.007, 4708.894
729.301, 5711.090
730.595, 6023.319
731.889, 7245.580
733.182, 7857.871
734.476, 8360.196
735.769, 9742.558
737.061, 10354.954
738.354, 11217.385
739.647, 12109.854
740.939, 13182.357
742.231, 14164.900
743.523, 15037.481
744.814, 15833.861
746.106, 16442.758
747.397, 17125.459
748.688, 17688.203
749.978, 18080.986
751.269, 18323.812
752.559, 18206.676
753.849, 17709.588
755.139, 17972.547
756.429, 16995.549
757.719, 16418.594
759.008, 15601.688
760.297, 14604.831
761.586, 13798.019
762.875, 12611.254
764.163, 12014.539
765.451, 10897.873
766.739, 9871.257
768.027, 9514.694
769.315, 8698.180
770.602, 8221.721
771.890, 7985.320
773.177, 7618.984
774.463, 7712.726
775.750, 7326.547
777.036, 7420.449
778.323, 7384.441
779.609, 7058.520
780.894, 7222.700
782.180, 6956.996
783.465, 6821.412
784.750, 6605.955
786.035, 6410.608
787.320, 6165.387
788.605, 5760.291
789.889, 5595.319
791.173, 5400.500
792.457, 5075.832
793.741, 5021.314
795.024, 4789.679
796.307, 4572.801
797.591, 4468.791
798.873, 4302.919
800.156, 4351.330
801.439, 4067.856
802.721, 4014.560
804.003, 3881.424
805.285, 3508.400
806.566, 3555.467
807.848, 3379.803
809.129, 3222.763
810.410, 3172.260
811.691, 3066.613
812.971, 2887.702
814.252, 3013.916
815.532, 2866.324
816.812, 2899.346
818.092, 2801.849
819.371, 2569.271
820.651, 2584.716
821.930, 2343.723
823.209, 2235.990
824.488, 2063.748
825.766, 1946.734
827.045, 2128.080
828.323, 1787.620
829.601, 1858.355
830.878, 1779.758
832.156, 1681.538
833.433, 1819.720
834.710, 1659.032
835.987, 1798.474
837.264, 1778.021
838.540, 1897.701
839.817, 1937.500
841.093, 1877.417
842.369, 1977.470
843.644, 2017.634
844.920, 2097.934
846.195, 2258.340
847.470, 2387.979
848.745, 2539.496
850.020, 2730.248
851.294, 2941.947
852.568, 3082.584
853.842, 3313.168
855.116, 3574.361
856.390, 3665.672
857.663, 4017.093
858.936, 4318.627
860.209, 3970.276
861.482, 4312.035
862.755, 4733.904
864.027, 4475.883
865.299, 4887.974
866.571, 4820.189
867.843, 4872.518
869.115, 5014.958
870.386, 4697.508
871.657, 4970.167
872.928, 4842.937
874.199, 4985.814
875.470, 4808.800
876.740, 4741.895
878.010, 4764.566
879.280, 4628.406
880.550, 4701.822
881.820, 4595.346
883.089, 4498.976
884.358, 4412.713
885.627, 4456.559
886.896, 4250.510
888.164, 4314.566
889.433, 4088.730
890.701, 4193.001
891.969, 4167.375
893.236, 3851.859
894.504, 3936.447
895.771, 3801.139
897.038, 3635.934
898.305, 3860.834
899.572, 3625.839
900.838, 3640.943
902.105, 3986.153
903.371, 3691.467
904.637, 3966.879
905.902, 3802.392
907.168, 4238.009
908.433, 4263.725
909.698, 4279.542
910.963, 4575.460
912.228, 4791.476
913.492, 5057.594
914.757, 5443.811
916.021, 5400.125
917.285, 6156.538
918.548, 6123.047
919.812, 6659.654
921.075, 6826.357
922.338, 7143.256
923.601, 7481.332
924.864, 7750.139
926.126, 7671.633
927.388, 8113.607
928.650, 8045.969
929.912, 8040.289
931.174, 8243.621
932.435, 8091.184
933.697, 8111.729
934.958, 8192.808
936.218, 8126.000
937.479, 8325.210
938.739, 8087.789
940.000, 8188.717
941.260, 8156.624
942.520, 8090.613
943.779, 8353.537
945.039, 8232.830
946.298, 8573.558
947.557, 8802.461
948.816, 8317.350
950.074, 8844.304
951.333, 8587.133
952.591, 8823.051
953.849, 8802.725
955.107, 8873.950
956.365, 8893.285
957.622, 8776.298
958.879, 9018.802
960.136, 9835.649
961.393, 8369.591
962.650, 8805.838
963.906, 8713.599
965.162, 7944.524
966.418, 7637.718
967.674, 6848.702
968.930, 6879.201
970.185, 6450.006
971.441, 5970.896
972.696, 5711.952
973.950, 5413.049
975.205, 5394.395
976.459, 4906.138
977.714, 4818.014
978.968, 4591.799
980.222, 4424.747
981.475, 4207.926
982.729, 4304.384
983.982, 3938.769
985.235, 4034.312
986.488, 3792.016
987.740, 3505.507
988.993, 3523.812
990.245, 3219.620
991.497, 3075.169
992.749, 2944.792
994.000, 2699.089
995.252, 2708.518
996.503, 2441.963
997.754, 2366.475
999.005, 2432.028
1000.256, 2258.111
1001.506, 2231.583
1002.756, 2197.021
1004.006, 2123.715
1005.256, 2212.908
1006.506, 2289.277
1007.755, 2247.744
1009.005, 2373.122
1010.254, 2261.836
1011.502, 2587.433
1012.751, 2417.410
1014.000, 2506.368
1015.248, 2456.996
1016.496, 2608.310
1017.744, 2693.681
1018.991, 2558.222
1020.239, 2632.604
1021.486, 2816.679
1022.733, 2671.515
1023.980, 2785.217
1025.227, 2799.522
1026.473, 2734.027
1027.719, 2797.684
1028.965, 2892.007
1030.211, 2975.918
1031.457, 3009.761
1032.702, 2753.788
1033.948, 2957.953
1035.193, 3042.194
1036.438, 3046.335
1037.682, 3390.369
1038.927, 3754.385
1040.171, 4068.289
1041.415, 4572.354
1042.659, 4887.076
1043.903, 5210.865
1045.146, 5194.503
1046.390, 5188.527
1047.633, 4802.452
1048.876, 4496.228
1050.118, 3989.759
1051.361, 3463.694
1052.603, 2917.566
1053.845, 2597.830
1055.087, 2110.079
1056.329, 1696.271
1057.571, 1573.708
1058.812, 1146.238
1060.053, 992.663
1061.294, 724.894
1062.535, 573.804
1063.775, 487.164
1065.016, 202.360
1066.256, 217.736
1067.496, 156.777
1068.736, 46.087
1069.975, 18.194
1071.214, 1.246
1072.454, 52.655
1073.693, 70.765
1074.931, 124.936
1076.170, 127.082
1077.408, 127.276
1078.647, 152.492
1079.885, 130.929
1081.122, 192.529
1082.360, 234.242
1083.597, 237.137
1084.835, 265.187
1086.072, 196.286
1087.308, 244.544
1088.545, 212.929
1089.781, 159.530
1091.018, 251.333
1092.254, 229.250
1093.490, 166.446
1094.725, 184.388
1095.961, 150.500
1097.196, 241.142
1098.431, 269.399
1099.666, 199.128
1100.900, 243.910
1102.135, 140.143
1103.369, 160.569
1104.603, 126.297
1105.837, 180.783
1107.071, 168.715
1108.304, 233.667
1109.538, 23.792
1110.771, 56.141
1112.004, 75.501
1113.236, 43.711
1114.469, 7.951
1115.701, 60.800
1116.933, 139.076
1118.165, 126.349
1119.397, 164.460
1120.629, 187.450
1121.860, 312.623
1123.091, 455.355
1124.322, 210.301
1125.553, 234.429
1126.783, 72.986
1128.014, 122.902
1129.244, 123.554
1130.474, 34.062
1131.704, 87.753
1132.933, 62.223
1134.163, 23.098
1135.392, 152.340
1136.621, 19.407
1137.850, 73.178
1139.079, 84.037
1140.307, 6.694
1141.535, 136.260
1142.763, 15.739
1143.991, 221.892
1145.219, 143.088
1146.446, 110.007
1147.674, 129.806
1148.901, 256.966
1150.128, 126.654
1151.354, 241.669
1152.581, 197.457
1153.807, 141.926
1155.033, 189.389
1156.259, 200.864
1157.485, 142.562
1158.710, 312.917
1159.936, 181.030
1161.161, 267.026
1162.386, 210.101
1163.611, 112.605
1164.835, 179.417
1166.060, 231.403
1167.284, 248.889
1168.508, 288.816
1169.732, 224.025
1170.955, 368.332
1172.179, 276.552
1173.402, 261.367
1174.625, 397.327
1175.848, 287.937
1177.070, 346.426
1178.293, 370.531
1179.515, 336.905
1180.737, 323.968
1181.959, 318.579
1183.181, 333.790
1184.402, 349.959
1185.624, 355.539
1186.845, 382.197
1188.066, 355.113
1189.286, 287.738
1190.507, 416.070
1191.727, 453.635
1192.947, 368.792
1194.167, 386.963
1195.387, 423.306
1196.607, 482.350
1197.826, 386.942
1199.045, 402.097
1200.264, 582.636
1201.483, 550.397
1202.702, 358.760
1203.920, 502.130
1205.138, 479.005
1206.356, 502.049
1207.574, 545.938
1208.792, 392.846
1210.009, 509.692
1211.227, 545.420
1212.444, 498.992
1213.661, 597.464
1214.877, 507.469
1216.094, 551.650
1217.310, 560.175
1218.526, 543.492
1219.742, 605.130
1220.958, 600.015
1222.173, 558.373
1223.389, 547.305
1224.604, 529.143
1225.819, 552.599
1227.034, 565.370
1228.248, 553.726
1229.463, 585.862
1230.677, 538.111
1231.891, 494.886
1233.105, 489.419
1234.318, 466.243
1235.532, 469.523
1236.745, 478.226
1237.958, 448.048
1239.171, 484.715
1240.384, 356.001
1241.596, 348.949
1242.809, 448.604
1244.021, 281.421
1245.233, 328.004
1246.444, 286.999
1247.656, 331.876
1248.867, 333.702
1250.079, 365.203
1251.290, 255.614
1252.500, 308.061
1253.711, 259.994
1254.921, 235.596
1256.132, 262.101
1257.342, 229.317
1258.552, 295.065
1259.761, 268.704
1260.971, 119.390
1262.180, 218.317
1263.389, 203.726
1264.598, 229.659
1265.807, 242.969
1267.015, 183.610
1268.223, 273.178
1269.432, 205.510
1270.640, 146.372
1271.847, 265.455
1273.055, 156.725
1274.262, 200.083
1275.470, 214.151
1276.677, 140.237
1277.883, 169.417
1279.090, 295.161
1280.296, 161.703
1281.503, 182.542
1282.709, 217.416
1283.915, 168.040
1285.120, 188.863
1286.326, 170.312
1287.531, 171.907
1288.736, 209.938
1289.941, 178.489
1291.146, 220.239
1292.350, 221.502
1293.555, 109.478
1294.759, 199.807
1295.963, 101.130
1297.167, 126.158
1298.370, 178.794
1299.574, 153.057
1300.777, 125.239
1301.980, 75.413
1303.183, 101.208
1304.386, 136.075
1305.588, 137.515
1306.790, 97.038
1307.993, 207.538
1309.195, 100.508
1310.396, 62.380
1311.598, 125.073
1312.799, 44.844
1314.000, 141.872
1315.201, 92.090
1316.402, 89.394
1317.603, 161.148
1318.803, 100.556
1320.003, 160.764
1321.203, 164.254
1322.403, 0.087
1323.603, 142.936
1324.802, 192.546
1326.002, 57.959
1327.201, 106.358
1328.400, 90.686
1329.599, 26.065
1330.797, 162.409
1331.995, 75.806
1333.194, 119.985
1334.392, 162.420
1335.589, 81.727
1336.787, 154.125
1337.985, 125.082
1339.182, 62.077
1340.379, 104.162
1341.576, 11.433
1342.772, 44.241
1343.969, 148.167
1345.165, 70.511
1346.361, 140.939
1347.557, 112.231
1348.753, 12.214
1349.949, 139.041
1351.144, 150.909
1352.339, 120.907
1353.534, 109.158
1354.729, 111.897
1355.924, 123.734
1357.118, 123.046
1358.312, 6.911
1359.506, 141.442
1360.700, 37.112
1361.894, 36.769
1363.088, 151.307
1364.281, 168.140
1365.474, 113.799
1366.667, 97.425
1367.860, 27.958
1369.052, 123.360
1370.245, 40.886
1371.437, 76.483
1372.629, 183.053
1373.821, 2.189
1375.013, 61.818
1376.204, 111.352
1377.395, 127.411
1378.586, 54.961
1379.777, 145.973
1380.968, 78.148
1382.159, 149.731
1383.349, 181.635
1384.539, 97.547
1385.729, 125.062
1386.919, 82.625
1388.109, 128.332
1389.298, 47.090
1390.487, 50.105
1391.676, 162.440
1392.865, 57.979
1394.054, 48.641
1395.242, 157.140
1396.431, 113.046
1397.619, 108.210
1398.807, 200.283
1399.995, 117.852
1401.182, 111.125
1402.370, 109.212
1403.557, 57.142
1404.744, 71.075
1405.931, 103.303
1407.118, 37.197
1408.304, 135.615
1409.490, 18.949
1410.676, 60.859
1411.862, 117.904
1413.048, 16.700
1414.234, 120.659
1415.419, 157.446
1416.604, 57.419
1417.789, 122.259
1418.974, 33.346
1420.159, 29.892
1421.343, 115.812
1422.528, 100.138
1423.712, 59.450
1424.896, 151.569
1426.079, 15.265
1427.263, 20.369
1428.446, 201.805
1429.629, 51.518
1430.812, 158.415
1431.995, 70.096
1433.178, 0.590
1434.360, 156.981
1435.543, 39.558
1436.725, 135.320
1437.907, 135.770
1439.088, 104.438
1440.270, 38.145
1441.451, 192.550
1442.632, 59.777
1443.813, 175.338
1444.994, 82.452
1446.175, 85.360
1447.355, 148.308
1448.535, 43.713
1449.715, 21.769
1450.895, 172.044
1452.075, 96.291
1453.255, 59.308
1454.434, 122.186
1455.613, 119.103
1456.792, 161.700
1457.971, 219.167
1459.149, 43.208
1460.328, 186.263
1461.506, 129.304
1462.684, 88.505
1463.862, 134.273
1465.040, 160.296
1466.217, 131.753
1467.395, 102.552
1468.572, 34.966
1469.749, 143.131
1470.925, 231.231
1472.102, 98.774
1473.278, 101.794
1474.455, 81.873
1475.631, 116.385
1476.807, 173.880
1477.982, 105.082
1479.158, 92.801
1480.333, 165.988
1481.508, 97.526
1482.683, 82.245
1483.858, 209.995
1485.033, 26.078
1486.207, 189.680
1487.381, 26.065
1488.555, 78.601
1489.729, 198.637
1490.903, 84.050
1492.076, 136.518
1493.250, 217.067
1494.423, 103.044
1495.596, 197.641
1496.769, 206.236
1497.941, 14.958
1499.114, 73.129
1500.286, 192.255
1501.458, 76.423
1502.630, 219.677
1503.802, 121.959
1504.973, 34.437
1506.145, 207.063
1507.316, 56.866
1508.487, 71.887
1509.657, 175.008
1510.828, 75.079
1511.999, 76.211
1513.169, 318.874
1514.339, 1.053
1515.509, 245.036
1516.678, 109.297
1517.848, 0.232
1519.017, 0.000
##END=



