##NAMES=Vesuvianite
##RRUFFID=R050233
##IDEAL CHEMISTRY=(Ca,Na)_19_(Al,Mg,Fe^3+^)_13_(SiO_4_)_10_(Si_2_O_7_)_4_(OH,F,O)_10_
##LOCALITY=Ludwig, Nevada, USA
##OWNER=RRUFF
##SOURCE=Marcus Origlieri
##DESCRIPTION=Pale green euhedral single crystal
##STATUS=The identification of this mineral has been confirmed by X-ray diffraction and chemical analysis
##URL=rruff.info/R050233
##MEASURED CHEMISTRY=Ca_19.00_(Al_10.04_Mg_2.54_Fe^2+^_0.42_)_Σ=13_(Si_17.96_Al_0.04_)_Σ=18_O_68_((OH)_9.66_F_0.34_)_Σ=10_ ; Boron not analyzed.
##PIN_ID=L00354
##ORIENTATION=Laser parallel to a* (1 0 0). Fiducial mark perpendicular to laser is parallel to c [0 0 1]
118.424, 0.000
119.813, 195.945
121.203, 98.773
122.592, 91.457
123.981, 121.180
125.369, 12.223
126.758, 54.121
128.146, 54.367
129.534, 212.848
130.922, 76.996
132.309, 125.420
133.696, 70.551
135.083, 255.627
136.470, 186.445
137.857, 555.791
139.243, 588.371
140.630, 615.920
142.016, 392.197
143.401, 607.971
144.787, 564.043
146.172, 504.238
147.557, 147.406
148.942, 59.408
150.327, 39.867
151.711, 34.516
153.096, 166.387
154.480, 206.775
155.863, 342.582
157.247, 700.744
158.630, 1113.207
160.013, 1366.910
161.396, 1801.766
162.779, 2209.674
164.161, 2395.553
165.544, 2681.338
166.926, 2732.980
168.308, 3022.436
169.689, 3058.664
171.070, 3416.635
172.452, 3648.322
173.833, 3583.701
175.213, 3889.748
176.594, 3806.445
177.974, 4162.770
179.354, 4110.711
180.734, 3725.262
182.114, 3526.445
183.493, 3423.279
184.872, 2982.785
186.251, 2572.951
187.630, 2184.758
189.008, 1993.180
190.387, 1488.197
191.765, 1175.795
193.143, 1062.951
194.520, 736.652
195.898, 789.883
197.275, 580.623
198.652, 811.865
200.029, 866.592
201.405, 928.688
202.782, 980.811
204.158, 1320.682
205.534, 2152.152
206.909, 2194.398
208.285, 2637.781
209.660, 3351.316
211.035, 3522.023
212.410, 4157.922
213.784, 4410.023
215.159, 4925.338
216.533, 5196.875
217.907, 5123.637
219.281, 5065.633
220.654, 4993.283
222.027, 4797.359
223.400, 4545.094
224.773, 4241.086
226.146, 3824.324
227.518, 3490.822
228.891, 3161.578
230.263, 2831.439
231.634, 2720.859
233.006, 2286.385
234.377, 2131.168
235.748, 1990.209
237.119, 1749.504
238.490, 1832.289
239.860, 1880.943
241.231, 2060.229
242.601, 2133.020
243.970, 2396.574
245.340, 2565.691
246.709, 2831.684
248.079, 3806.357
249.448, 4038.545
250.816, 5010.129
252.185, 5618.984
253.553, 6070.066
254.921, 6378.676
256.289, 6321.668
257.657, 6247.330
259.024, 5706.096
260.391, 4915.027
261.758, 4212.131
263.125, 3875.398
264.492, 3340.834
265.858, 2975.434
267.224, 2960.203
268.590, 2485.137
269.956, 2790.236
271.321, 2989.504
272.687, 2876.943
274.052, 2911.549
275.416, 3549.322
276.781, 3574.262
278.146, 3789.367
279.510, 4327.641
280.874, 4692.078
282.237, 5510.680
283.601, 5357.570
284.964, 5727.643
286.327, 6591.807
287.690, 6439.715
289.053, 6374.211
290.416, 6896.672
291.778, 6335.328
293.140, 6298.371
294.502, 5671.037
295.863, 5714.166
297.225, 5211.734
298.586, 4777.717
299.947, 4805.072
301.308, 4369.811
302.668, 4175.916
304.029, 4309.371
305.389, 3998.160
306.749, 3657.277
308.108, 3843.709
309.468, 3715.439
310.827, 3575.465
312.186, 3436.775
313.545, 3542.291
314.903, 3922.943
316.262, 3771.832
317.620, 4286.199
318.978, 4355.812
320.336, 4583.664
321.693, 4749.752
323.051, 5102.062
324.408, 4894.602
325.765, 5454.354
327.121, 4957.316
328.478, 5274.488
329.834, 5288.861
331.190, 5430.436
332.546, 5316.143
333.902, 5306.166
335.257, 4899.316
336.612, 4768.652
337.967, 4462.172
339.322, 4329.871
340.677, 4232.746
342.031, 4115.791
343.385, 4358.010
344.739, 4313.396
346.093, 4177.949
347.446, 4511.662
348.799, 4704.537
350.153, 5296.566
351.505, 5546.748
352.858, 6022.080
354.210, 6390.561
355.563, 7215.186
356.915, 7756.953
358.267, 8410.859
359.618, 8869.867
360.969, 9613.248
362.321, 9826.297
363.672, 10262.533
365.022, 10091.504
366.373, 9951.625
367.723, 10026.820
369.073, 9482.914
370.423, 9443.111
371.773, 8686.240
373.122, 8220.750
374.471, 8246.900
375.821, 7428.934
377.169, 7501.777
378.518, 6254.244
379.866, 6148.459
381.215, 6006.117
382.563, 5568.219
383.910, 5012.883
385.258, 4958.195
386.605, 4990.611
387.952, 4547.133
389.299, 4805.754
390.646, 4582.477
391.992, 4924.301
393.339, 5177.219
394.685, 5507.234
396.031, 6573.344
397.376, 6742.551
398.722, 7634.850
400.067, 8099.238
401.412, 8558.719
402.757, 9014.520
404.101, 9359.328
405.446, 9569.691
406.790, 9917.523
408.134, 10058.434
409.478, 10115.465
410.821, 10006.650
412.165, 9232.914
413.508, 8843.004
414.851, 8524.914
416.193, 7475.535
417.536, 7054.297
418.878, 6581.205
420.220, 5793.275
421.562, 4612.482
422.904, 4382.771
424.245, 3913.160
425.586, 3240.625
426.927, 3043.219
428.268, 2170.934
429.609, 1638.750
430.949, 1585.625
432.289, 1431.588
433.629, 833.635
434.969, 1054.768
436.309, 674.092
437.648, 835.484
438.987, 501.041
440.326, 374.684
441.665, 185.471
443.003, 577.428
444.342, 489.455
445.680, 651.697
447.018, 782.061
448.355, 472.654
449.693, 579.402
451.030, 694.285
452.367, 963.373
453.704, 762.562
455.041, 907.906
456.377, 630.348
457.713, 1072.910
459.049, 889.586
460.385, 1135.342
461.721, 1264.264
463.056, 1137.262
464.391, 1392.342
465.726, 1730.488
467.061, 1626.709
468.395, 1782.990
469.730, 2378.342
471.064, 2086.758
472.398, 2840.227
473.731, 2562.750
475.065, 2852.330
476.398, 2968.961
477.731, 3237.641
479.064, 3037.371
480.397, 3015.143
481.729, 3080.959
483.062, 2966.820
484.394, 2756.719
485.725, 2451.658
487.057, 2364.637
488.389, 2058.648
489.720, 1628.695
491.051, 1511.781
492.382, 1453.893
493.712, 1529.037
495.043, 1354.174
496.373, 917.414
497.703, 1077.645
499.032, 1091.898
500.362, 890.178
501.691, 1030.480
503.020, 751.805
504.349, 800.150
505.678, 574.512
507.007, 658.893
508.335, 618.291
509.663, 480.703
510.991, 739.129
512.319, 397.568
513.646, 565.021
514.973, 171.484
516.300, 502.955
517.627, 301.438
518.954, 308.074
520.280, 11.721
521.607, 94.375
522.933, 177.076
524.259, 375.854
525.584, 582.809
526.910, 160.039
528.235, 398.350
529.560, 129.850
530.885, 686.424
532.209, 575.338
533.534, 305.545
534.858, 353.906
536.182, 235.449
537.506, 187.121
538.829, 157.900
540.152, 122.777
541.476, 88.262
542.799, 134.709
544.121, 145.225
545.444, 279.146
546.766, 120.057
548.088, 279.949
549.410, 343.828
550.732, 356.691
552.053, 278.537
553.375, 178.363
554.696, 164.172
556.017, 152.650
557.337, 103.449
558.658, 214.475
559.978, 115.199
561.298, 164.990
562.618, 304.971
563.938, 148.395
565.257, 599.805
566.576, 326.709
567.895, 738.912
569.214, 924.619
570.533, 871.174
571.851, 868.699
573.170, 1442.764
574.488, 1480.799
575.805, 1751.463
577.123, 2054.830
578.440, 2580.299
579.758, 3020.975
581.075, 3199.879
582.391, 4199.734
583.708, 4059.883
585.024, 4383.705
586.341, 5190.404
587.657, 5492.664
588.972, 5785.033
590.288, 5852.254
591.603, 5874.611
592.918, 6173.816
594.233, 6650.234
595.548, 6829.422
596.863, 6819.449
598.177, 6779.924
599.491, 7483.297
600.805, 7301.543
602.119, 8414.770
603.432, 7869.984
604.746, 8387.629
606.059, 8074.877
607.372, 8155.691
608.685, 8404.898
609.997, 8402.326
611.309, 8346.617
612.621, 8385.039
613.933, 8500.832
615.245, 8631.922
616.557, 8896.076
617.868, 8610.709
619.179, 9097.328
620.490, 8928.316
621.801, 9436.715
623.111, 9633.910
624.421, 10428.393
625.731, 10157.848
627.041, 11532.863
628.351, 11458.875
629.660, 12499.684
630.970, 13650.229
632.279, 13751.414
633.588, 14427.773
634.896, 14496.039
636.205, 15961.211
637.513, 15299.289
638.821, 16068.268
640.129, 16088.152
641.437, 15936.939
642.744, 15013.633
644.051, 14583.225
645.358, 14125.719
646.665, 12628.117
647.972, 11573.414
649.278, 10262.613
650.584, 9155.715
651.890, 8484.711
653.196, 6961.607
654.502, 6567.404
655.807, 5191.102
657.113, 4576.695
658.418, 4824.188
659.722, 4084.578
661.027, 3600.865
662.331, 3550.051
663.636, 3423.133
664.940, 3008.107
666.244, 3183.980
667.547, 2840.752
668.851, 3306.414
670.154, 3129.973
671.457, 3219.428
672.760, 3752.777
674.062, 3710.021
675.365, 4235.158
676.667, 4365.227
677.969, 4971.953
679.271, 5531.039
680.572, 5873.961
681.874, 7476.172
683.175, 8223.254
684.476, 8975.285
685.777, 10066.447
687.077, 10943.527
688.378, 12434.699
689.678, 13054.514
690.978, 13992.715
692.278, 13900.049
693.577, 13954.500
694.877, 13657.547
696.176, 13182.773
697.475, 11969.570
698.774, 11297.945
700.072, 9904.773
701.371, 8564.967
702.669, 6987.076
703.967, 6205.094
705.265, 5819.021
706.562, 4668.859
707.860, 3393.609
709.157, 3520.271
710.454, 2264.842
711.751, 2319.324
713.047, 1383.715
714.344, 1464.020
715.640, 880.232
716.936, 525.357
718.232, 770.387
719.527, 440.332
720.823, 440.176
722.118, 329.924
723.413, 21.570
724.708, 162.955
726.002, 388.250
727.297, 337.641
728.591, 159.109
729.885, 212.734
731.179, 136.756
732.472, 149.496
733.766, 200.494
735.059, 141.777
736.352, 108.688
737.645, 11.020
738.937, 132.180
740.230, 119.787
741.522, 87.994
742.814, 19.420
744.106, 320.971
745.397, 25.258
746.689, 40.389
747.980, 4.369
749.271, 383.818
750.562, 95.625
751.853, 287.062
753.143, 10.068
754.433, 234.244
755.723, 330.709
757.013, 38.492
758.303, 304.451
759.592, 45.289
760.881, 375.111
762.170, 84.863
763.459, 30.816
764.748, 260.941
766.036, 178.645
767.325, 108.871
768.613, 69.404
769.901, 31.438
771.188, 20.443
772.476, 181.396
773.763, 226.863
775.050, 230.617
776.337, 92.006
777.624, 341.285
778.910, 247.477
780.196, 467.578
781.482, 154.600
782.768, 284.521
784.054, 546.365
785.339, 615.133
786.625, 404.824
787.910, 804.436
789.195, 682.977
790.479, 695.447
791.764, 1004.852
793.048, 881.186
794.332, 1180.445
795.616, 890.725
796.900, 1578.934
798.183, 1045.080
799.467, 1391.158
800.750, 1397.184
802.033, 1385.145
803.316, 2007.039
804.598, 1322.867
805.880, 2070.629
807.163, 1934.328
808.445, 1849.961
809.726, 2115.531
811.008, 2171.027
812.289, 2147.469
813.570, 2494.844
814.851, 2546.160
816.132, 2465.414
817.413, 2463.605
818.693, 3218.734
819.973, 2893.848
821.253, 3178.902
822.533, 3593.902
823.813, 3493.852
825.092, 3766.746
826.371, 3980.648
827.650, 4077.500
828.929, 4650.371
830.208, 5049.188
831.486, 4996.016
832.764, 5162.820
834.042, 5862.668
835.320, 6039.551
836.598, 6505.461
837.875, 7023.570
839.152, 7514.668
840.429, 8437.883
841.706, 8492.145
842.983, 9100.570
844.259, 10448.215
845.536, 10702.883
846.812, 11805.617
848.088, 12629.359
849.363, 13896.109
850.639, 15389.867
851.914, 15981.633
853.189, 17026.359
854.464, 18875.086
855.739, 19983.797
857.013, 20055.480
858.288, 20443.148
859.562, 20889.852
860.836, 21243.531
862.110, 20143.172
863.383, 20526.781
864.656, 19769.359
865.930, 19385.891
867.203, 19155.383
868.475, 18646.836
869.748, 17680.258
871.020, 17723.242
872.292, 17348.602
873.564, 16885.195
874.836, 16913.742
876.108, 16589.773
877.379, 17051.445
878.650, 16607.555
879.922, 16801.824
881.192, 16795.062
882.463, 16895.703
883.733, 16744.320
885.004, 16429.242
886.274, 16588.398
887.544, 16372.785
888.813, 16113.109
890.083, 16146.539
891.352, 16077.949
892.621, 15767.996
893.890, 15735.312
895.159, 15181.688
896.427, 15064.438
897.695, 15312.012
898.964, 14658.672
900.232, 14642.121
901.499, 14457.660
902.767, 14533.914
904.034, 14215.336
905.301, 14500.844
906.568, 14655.914
907.835, 14700.016
909.102, 14340.180
910.368, 14703.297
911.634, 15376.398
912.900, 15147.012
914.166, 16273.945
915.432, 16267.242
916.697, 16389.078
917.962, 18135.617
919.227, 18130.223
920.492, 18966.617
921.757, 19774.578
923.021, 21374.164
924.285, 22217.609
925.550, 22950.504
926.813, 23991.336
928.077, 24982.992
929.341, 25810.887
930.604, 26400.914
931.867, 26088.578
933.130, 26317.648
934.393, 27002.625
935.655, 25486.078
936.918, 25983.625
938.180, 24567.828
939.442, 23832.324
940.703, 23205.117
941.965, 22230.758
943.226, 21682.746
944.488, 20855.461
945.749, 20361.969
947.009, 19333.707
948.270, 18515.641
949.530, 17727.066
950.791, 17673.410
952.051, 16922.762
953.311, 16117.148
954.570, 16846.930
955.830, 16289.344
957.089, 15960.137
958.348, 15460.586
959.607, 15442.055
960.866, 14636.539
962.124, 14061.047
963.383, 14113.574
964.641, 13320.109
965.899, 12954.684
967.156, 12230.273
968.414, 11697.883
969.671, 11544.500
970.928, 10910.508
972.185, 10741.309
973.442, 10232.684
974.699, 10160.711
975.955, 9826.609
977.211, 9283.613
978.468, 9488.336
979.723, 8876.781
980.979, 8590.168
982.234, 8822.488
983.490, 7283.539
984.745, 7551.504
986.000, 6996.859
987.254, 6279.785
988.509, 6402.047
989.763, 5767.578
991.017, 5290.449
992.271, 5232.000
993.525, 4829.070
994.779, 4886.148
996.032, 4617.051
997.285, 4782.023
998.538, 3976.988
999.791, 4489.055
1001.044, 3678.355
1002.296, 4163.297
1003.548, 3948.766
1004.800, 3929.496
1006.052, 4138.926
1007.304, 3629.562
1008.555, 3898.652
1009.807, 3778.586
1011.058, 3722.715
1012.309, 4002.535
1013.559, 3836.191
1014.810, 3659.133
1016.060, 3957.484
1017.310, 3987.500
1018.560, 3682.074
1019.810, 4074.605
1021.060, 4168.047
1022.309, 4011.879
1023.558, 4541.195
1024.807, 3999.672
1026.056, 4344.488
1027.305, 4183.645
1028.553, 4588.688
1029.801, 4550.641
1031.049, 4095.059
1032.297, 4352.559
1033.545, 4462.547
1034.793, 4343.652
1036.040, 4342.469
1037.287, 4373.137
1038.534, 4298.660
1039.781, 4924.562
1041.027, 4219.059
1042.274, 4379.969
1043.520, 4329.828
1044.766, 3754.980
1046.012, 3630.961
1047.257, 3206.781
1048.503, 3370.906
1049.748, 2545.785
1050.993, 2885.051
1052.238, 2399.965
1053.483, 1700.125
1054.727, 1647.172
1055.971, 1856.809
1057.216, 1479.977
1058.459, 1192.113
1059.703, 985.688
1060.947, 1016.133
1062.190, 828.840
1063.433, 624.965
1064.676, 620.535
1065.919, 448.645
1067.162, 863.180
1068.404, 353.254
1069.646, 312.512
1070.888, 699.785
1072.130, 340.152
1073.372, 573.383
1074.613, 478.098
1075.855, 187.508
1077.096, 93.363
1078.337, 643.074
1079.578, 209.309
1080.818, 353.570
1082.059, 66.230
1083.299, 302.871
1084.539, 54.824
1085.779, 63.945
1087.018, 261.621
1088.258, 317.723
1089.497, 68.066
1090.736, 113.664
1091.975, 5.992
1093.213, 133.754
1094.452, 395.336
1095.690, 371.059
1096.928, 82.973
1098.166, 1.992
1099.404, 289.121
1100.642, 101.371
1101.879, 393.328
1103.116, 158.762
1104.353, 514.738
1105.590, 175.824
1106.827, 689.141
1108.063, 493.574
1109.299, 699.699
1110.536, 591.973
1111.771, 425.754
1113.007, 501.309
1114.243, 478.543
1115.478, 332.039
1116.713, 530.484
1117.948, 432.574
1119.183, 147.480
1120.418, 43.668
1121.652, 153.902
1122.886, 9.949
1124.120, 283.117
1125.354, 246.637
1126.588, 103.844
1127.821, 264.559
1129.055, 200.023
1130.288, 222.758
1131.521, 15.301
1132.753, 278.949
1133.986, 123.496
1135.218, 348.242
1136.450, 372.539
1137.682, 218.625
1138.914, 234.273
1140.146, 195.188
1141.377, 153.367
1142.609, 406.418
1143.840, 178.699
1145.071, 12.895
1146.301, 172.148
1147.532, 150.707
1148.762, 98.773
1149.992, 22.281
1151.222, 91.984
1152.452, 271.410
1153.682, 66.820
1154.911, 299.832
1156.140, 121.516
1157.369, 180.988
1158.598, 6.957
1159.827, 269.602
1161.055, 92.809
1162.284, 60.984
1163.512, 151.012
1164.740, 528.012
1165.967, 340.496
1167.195, 356.102
1168.422, 143.414
1169.650, 96.355
1170.877, 104.215
1172.103, 144.496
1173.330, 60.887
1174.557, 468.340
1175.783, 268.836
1177.009, 195.312
1178.235, 224.598
1179.461, 87.617
1180.686, 151.316
1181.912, 340.926
1183.137, 437.180
1184.362, 494.078
1185.587, 256.074
1186.811, 540.141
1188.036, 345.113
1189.260, 254.988
1190.484, 273.543
1191.708, 219.094
1192.932, 275.355
1194.155, 324.574
1195.378, 490.676
1196.602, 672.660
1197.825, 231.527
1199.047, 614.203
1200.270, 297.738
1201.492, 813.105
1202.715, 175.676
1203.937, 608.070
1205.159, 359.645
1206.380, 520.969
1207.602, 84.902
1208.823, 276.008
1210.044, 417.746
1211.265, 636.996
1212.486, 460.402
1213.707, 363.621
1214.927, 493.656
1216.147, 446.496
1217.367, 452.164
1218.587, 428.664
1219.807, 463.004
1221.027, 683.043
1222.246, 223.898
1223.465, 564.566
1224.684, 763.770
1225.903, 465.711
1227.121, 149.863
1228.340, 587.195
1229.558, 727.875
1230.776, 295.863
1231.994, 503.879
1233.212, 633.848
1234.429, 521.281
1235.646, 432.633
1236.864, 755.395
1238.081, 435.609
1239.297, 584.562
1240.514, 701.477
1241.730, 630.703
1242.947, 515.840
1244.163, 520.914
1245.378, 506.867
1246.594, 821.762
1247.810, 354.594
1249.025, 905.848
1250.240, 502.176
1251.455, 441.438
1252.670, 391.055
1253.885, 322.207
1255.099, 378.234
1256.313, 188.562
1257.527, 767.422
1258.741, 607.422
1259.955, 7.137
1261.168, 611.043
1262.382, 1393.613
1263.595, 392.973
1264.808, 407.332
1266.021, 605.094
1267.233, 249.746
1268.446, 721.992
1269.658, 251.121
1270.870, 469.453
1272.082, 112.520
1273.294, 323.559
1274.505, 283.633
1275.716, 430.625
1276.928, 50.777
1278.139, 534.160
1279.349, 217.148
1280.560, 363.020
1281.770, 239.367
1282.981, 119.723
1284.191, 459.520
1285.401, 219.133
1286.610, 131.773
1287.820, 426.680
1289.029, 79.438
1290.239, 449.734
1291.448, 239.316
1292.656, 343.605
1293.865, 209.363
1295.073, 224.820
1296.282, 126.371
1297.490, 318.629
1298.698, 459.992
1299.906, 481.738
1301.113, 212.195
1302.320, 213.863
1303.528, 301.750
1304.735, 185.828
1305.942, 525.473
1307.148, 453.930
1308.355, 233.004
1309.561, 573.148
1310.767, 284.445
1311.973, 311.906
1313.179, 34.305
1314.384, 387.508
1315.590, 245.125
1316.795, 362.270
1318.000, 78.047
1319.205, 533.250
1320.410, 160.207
1321.614, 92.238
1322.819, 465.914
1324.023, 176.039
1325.227, 783.371
1326.431, 483.930
1327.634, 26.508
1328.838, 178.211
1330.041, 527.746
1331.244, 638.895
1332.447, 444.090
1333.650, 436.219
1334.852, 478.984
1336.055, 371.758
1337.257, 504.219
1338.459, 348.113
1339.661, 370.371
1340.862, 386.008
1342.064, 375.469
1343.265, 327.465
1344.466, 402.773
1345.667, 402.582
1346.868, 698.141
1348.068, 518.047
1349.269, 600.363
1350.469, 528.402
1351.669, 552.809
1352.869, 554.992
1354.069, 502.797
1355.268, 9.758
1356.468, 646.980
1357.667, 721.574
1358.866, 215.152
1360.065, 455.309
1361.263, 269.625
1362.462, 205.234
1363.660, 520.977
1364.858, 391.879
1366.056, 465.883
1367.254, 306.566
1368.451, 466.922
1369.649, 1.766
1370.846, 411.680
1372.043, 0.000
##END=



