##NAMES=Vesuvianite
##RRUFFID=R050233
##IDEAL CHEMISTRY=(Ca,Na)_19_(Al,Mg,Fe^3+^)_13_(SiO_4_)_10_(Si_2_O_7_)_4_(OH,F,O)_10_
##LOCALITY=Ludwig, Nevada, USA
##OWNER=RRUFF
##SOURCE=Marcus Origlieri
##DESCRIPTION=Pale green euhedral single crystal
##STATUS=The identification of this mineral has been confirmed by X-ray diffraction and chemical analysis
##URL=rruff.info/R050233
##MEASURED CHEMISTRY=Ca_19.00_(Al_10.04_Mg_2.54_Fe^2+^_0.42_)_Σ=13_(Si_17.96_Al_0.04_)_Σ=18_O_68_((OH)_9.66_F_0.34_)_Σ=10_ ; Boron not analyzed.
##PIN_ID=L00354
##ORIENTATION=Laser parallel to a* (1 0 0). Fiducial mark perpendicular to laser is parallel to c [0 0 1]
115.644, 0.000
117.034, 486.973
118.424, 33.044
119.813, 93.394
121.203, 127.532
122.592, 265.100
123.981, 116.207
125.369, 21.950
126.758, 46.199
128.146, 107.160
129.534, 207.671
130.922, 25.465
132.309, 179.002
133.696, 26.066
135.083, 375.545
136.470, 351.357
137.857, 750.340
139.243, 580.328
140.630, 561.168
142.016, 483.723
143.401, 607.867
144.787, 607.496
146.172, 506.518
147.557, 288.842
148.942, 150.410
150.327, 45.164
151.711, 119.938
153.096, 57.059
154.480, 85.113
155.863, 166.182
157.247, 430.227
158.630, 683.186
160.013, 873.986
161.396, 1203.553
162.779, 1517.844
164.161, 1776.812
165.544, 2181.428
166.926, 2313.660
168.308, 2485.482
169.689, 2539.877
171.070, 3050.824
172.452, 3258.309
173.833, 3254.312
175.213, 3483.822
176.594, 3377.830
177.974, 3713.324
179.354, 3821.303
180.734, 3445.793
182.114, 3307.812
183.493, 3345.375
184.872, 2786.471
186.251, 2623.080
187.630, 2194.189
189.008, 1935.783
190.387, 1671.844
191.765, 1319.363
193.143, 1396.326
194.520, 936.719
195.898, 1088.535
197.275, 1000.762
198.652, 1131.314
200.029, 1037.957
201.405, 1142.678
202.782, 1229.465
204.158, 1426.693
205.534, 2112.139
206.909, 2066.105
208.285, 2585.217
209.660, 3146.482
211.035, 3198.918
212.410, 3735.527
213.784, 3951.322
215.159, 4177.307
216.533, 4546.477
217.907, 4671.836
219.281, 4644.402
220.654, 4499.176
222.027, 4571.160
223.400, 4511.357
224.773, 4439.770
226.146, 4229.396
227.518, 3962.240
228.891, 3709.451
230.263, 3291.580
231.634, 3079.074
233.006, 2779.785
234.377, 2510.713
235.748, 2371.855
237.119, 2031.213
238.490, 2298.812
239.860, 1938.674
241.231, 2093.891
242.601, 2067.701
243.970, 2219.035
245.340, 2303.059
246.709, 2439.672
248.079, 3236.861
249.448, 3320.484
250.816, 4157.367
252.185, 4694.410
253.553, 5110.600
254.921, 5338.641
256.289, 5290.299
257.657, 5184.109
259.024, 4679.938
260.391, 4035.908
261.758, 3317.027
263.125, 2919.289
264.492, 2618.691
265.858, 2277.240
267.224, 2267.932
268.590, 1980.770
269.956, 2244.752
271.321, 2345.881
272.687, 2493.156
274.052, 2378.580
275.416, 3055.152
276.781, 3056.869
278.146, 3146.734
279.510, 3742.748
280.874, 3868.074
282.237, 4584.219
283.601, 4638.146
284.964, 4819.051
286.327, 5604.875
287.690, 5427.326
289.053, 5584.818
290.416, 5887.012
291.778, 5619.633
293.140, 5545.584
294.502, 5131.898
295.863, 4922.543
297.225, 4664.500
298.586, 4502.693
299.947, 4335.186
301.308, 4042.963
302.668, 3650.016
304.029, 3759.336
305.389, 3496.916
306.749, 3304.746
308.108, 3404.824
309.468, 3117.139
310.827, 3124.682
312.186, 3050.451
313.545, 3263.438
314.903, 3199.643
316.262, 3154.473
317.620, 3468.088
318.978, 3370.902
320.336, 3795.912
321.693, 3817.113
323.051, 4166.498
324.408, 3876.064
325.765, 4379.811
327.121, 4113.730
328.478, 4151.824
329.834, 4326.090
331.190, 4562.516
332.546, 3967.113
333.902, 4235.867
335.257, 3753.781
336.612, 3659.852
337.967, 3593.076
339.322, 3374.453
340.677, 3279.980
342.031, 3143.656
343.385, 3053.475
344.739, 3140.438
346.093, 3013.541
347.446, 3234.779
348.799, 3561.158
350.153, 3780.668
351.505, 3799.309
352.858, 4274.078
354.210, 4473.973
355.563, 4947.992
356.915, 5419.135
358.267, 5679.402
359.618, 6176.928
360.969, 6628.426
362.321, 6723.900
363.672, 6873.535
365.022, 6791.797
366.373, 6813.713
367.723, 6735.688
369.073, 6543.693
370.423, 6359.227
371.773, 5892.660
373.122, 5844.238
374.471, 5716.986
375.821, 5213.809
377.169, 5309.967
378.518, 4651.121
379.866, 4418.734
381.215, 4574.027
382.563, 4229.055
383.910, 3964.689
385.258, 4047.086
386.605, 4127.576
387.952, 3544.160
389.299, 4131.836
390.646, 4258.596
391.992, 4683.447
393.339, 5505.387
394.685, 5320.410
396.031, 5686.195
397.376, 5707.389
398.722, 6535.666
400.067, 7060.025
401.412, 7660.465
402.757, 8103.660
404.101, 8530.525
405.446, 8922.861
406.790, 9215.004
408.134, 9472.828
409.478, 9677.742
410.821, 9717.777
412.165, 9034.879
413.508, 8973.176
414.851, 8373.551
416.193, 7523.000
417.536, 7087.570
418.878, 6408.283
420.220, 5870.107
421.562, 5217.137
422.904, 4525.143
424.245, 4024.348
425.586, 3324.615
426.927, 3079.018
428.268, 2188.539
429.609, 1762.162
430.949, 1640.842
432.289, 1689.643
433.629, 985.559
434.969, 1173.572
436.309, 685.688
437.648, 908.865
438.987, 621.182
440.326, 570.592
441.665, 388.096
443.003, 546.758
444.342, 379.520
445.680, 561.471
447.018, 499.541
448.355, 473.777
449.693, 473.131
451.030, 349.604
452.367, 603.297
453.704, 192.070
455.041, 737.029
456.377, 369.074
457.713, 556.244
459.049, 588.562
460.385, 753.959
461.721, 881.523
463.056, 929.160
464.391, 935.867
465.726, 1296.639
467.061, 1311.477
468.395, 1401.375
469.730, 1826.334
471.064, 1709.352
472.398, 2192.418
473.731, 2008.539
475.065, 2167.707
476.398, 2302.920
477.731, 2533.184
479.064, 2550.711
480.397, 2585.707
481.729, 2528.223
483.062, 2421.648
484.394, 2223.113
485.725, 2126.682
487.057, 1968.145
488.389, 1814.713
489.720, 1685.232
491.051, 1485.939
492.382, 1440.602
493.712, 1235.291
495.043, 1060.006
496.373, 927.748
497.703, 1019.518
499.032, 1069.309
500.362, 724.123
501.691, 876.959
503.020, 680.818
504.349, 1031.695
505.678, 840.588
507.007, 767.500
508.335, 721.428
509.663, 845.371
510.991, 934.328
512.319, 613.299
513.646, 718.283
514.973, 335.275
516.300, 554.277
517.627, 467.289
518.954, 99.691
520.280, 232.291
521.607, 64.719
522.933, 38.756
524.259, 335.812
525.584, 398.014
526.910, 206.393
528.235, 389.861
529.560, 148.508
530.885, 486.225
532.209, 531.176
533.534, 199.387
534.858, 461.695
536.182, 292.234
537.506, 324.916
538.829, 200.758
540.152, 190.705
541.476, 37.762
542.799, 1.514
544.121, 208.027
545.444, 88.895
546.766, 205.752
548.088, 216.596
549.410, 327.430
550.732, 251.248
552.053, 415.053
553.375, 126.840
554.696, 42.389
556.017, 214.328
557.337, 334.027
558.658, 220.709
559.978, 109.369
561.298, 592.014
562.618, 442.635
563.938, 244.285
565.257, 671.650
566.576, 263.506
567.895, 683.986
569.214, 935.781
570.533, 928.291
571.851, 865.807
573.170, 1330.480
574.488, 1420.336
575.805, 1608.168
577.123, 1937.623
578.440, 2519.598
579.758, 2822.398
581.075, 2986.814
582.391, 3750.297
583.708, 3669.992
585.024, 3803.422
586.341, 4670.367
587.657, 4765.031
588.972, 5267.602
590.288, 5353.887
591.603, 5225.547
592.918, 5572.066
594.233, 5872.863
595.548, 5978.074
596.863, 5971.527
598.177, 5885.408
599.491, 6242.344
600.805, 6176.672
602.119, 6314.414
603.432, 6546.969
604.746, 6811.156
606.059, 6695.230
607.372, 6753.912
608.685, 6898.381
609.997, 6932.311
611.309, 6804.367
612.621, 6875.295
613.933, 7046.711
615.245, 7001.328
616.557, 7247.240
617.868, 7184.375
619.179, 7305.818
620.490, 7130.199
621.801, 7588.605
623.111, 7513.961
624.421, 8024.086
625.731, 7744.150
627.041, 9147.246
628.351, 8863.520
629.660, 9641.004
630.970, 10488.779
632.279, 10627.207
633.588, 11372.812
634.896, 11298.328
636.205, 12337.758
637.513, 11853.094
638.821, 12410.348
640.129, 12491.512
641.437, 12315.582
642.744, 11677.562
644.051, 11386.453
645.358, 10945.256
646.665, 9951.965
647.972, 9133.582
649.278, 8159.105
650.584, 6966.537
651.890, 6443.877
653.196, 5368.121
654.502, 5185.273
655.807, 3975.332
657.113, 3610.295
658.418, 3643.162
659.722, 2993.936
661.027, 2682.613
662.331, 2739.193
663.636, 2838.676
664.940, 2483.064
666.244, 2487.354
667.547, 2265.549
668.851, 2853.643
670.154, 2492.643
671.457, 2547.541
672.760, 3034.342
674.062, 2935.047
675.365, 3438.650
676.667, 3587.012
677.969, 4167.418
679.271, 4681.863
680.572, 4993.166
681.874, 6231.859
683.175, 7174.906
684.476, 7815.918
685.777, 8746.906
687.077, 9350.385
688.378, 10779.975
689.678, 11594.441
690.978, 11950.754
692.278, 12459.242
693.577, 12373.762
694.877, 12281.881
696.176, 11742.379
697.475, 10808.211
698.774, 10105.318
700.072, 8832.828
701.371, 7847.586
702.669, 6486.260
703.967, 5552.848
705.265, 5242.354
706.562, 4341.773
707.860, 3245.111
709.157, 3066.367
710.454, 2255.535
711.751, 2120.947
713.047, 1411.947
714.344, 1212.865
715.640, 932.699
716.936, 652.859
718.232, 764.117
719.527, 357.699
720.823, 423.188
722.118, 304.586
723.413, 91.891
724.708, 46.938
726.002, 373.035
727.297, 363.080
728.591, 154.439
729.885, 143.844
731.179, 84.867
732.472, 159.795
733.766, 57.973
735.059, 136.350
736.352, 83.971
737.645, 118.568
738.937, 187.139
740.230, 169.027
741.522, 99.449
742.814, 49.092
744.106, 271.080
745.397, 126.848
746.689, 119.004
747.980, 39.383
749.271, 61.945
750.562, 79.301
751.853, 220.576
753.143, 38.730
754.433, 74.057
755.723, 162.580
757.013, 73.658
758.303, 283.227
759.592, 9.408
760.881, 217.748
762.170, 7.350
763.459, 7.105
764.748, 400.010
766.036, 180.732
767.325, 183.623
768.613, 75.783
769.901, 105.920
771.188, 193.818
772.476, 126.043
773.763, 305.191
775.050, 173.277
776.337, 80.656
777.624, 317.932
778.910, 79.127
780.196, 340.221
781.482, 138.234
782.768, 242.158
784.054, 406.998
785.339, 610.760
786.625, 370.451
787.910, 793.070
789.195, 661.617
790.479, 902.100
791.764, 915.523
793.048, 808.908
794.332, 1024.242
795.616, 995.520
796.900, 1308.734
798.183, 927.883
799.467, 1401.963
800.750, 1419.994
802.033, 1353.961
803.316, 1820.865
804.598, 1294.709
805.880, 1946.486
807.163, 1935.205
808.445, 1792.859
809.726, 1954.457
811.008, 2250.992
812.289, 2235.469
813.570, 2437.889
814.851, 2443.248
816.132, 2623.551
817.413, 2697.795
818.693, 2989.986
819.973, 3193.123
821.253, 3148.203
822.533, 3607.230
823.813, 3397.203
825.092, 3748.123
826.371, 3923.994
827.650, 4033.812
828.929, 4601.584
830.208, 4774.305
831.486, 4811.998
832.764, 5097.646
834.042, 5592.291
835.320, 5924.975
836.598, 6571.686
837.875, 6729.525
839.152, 7291.369
840.429, 8225.379
841.706, 8298.453
842.983, 8904.676
844.259, 10101.090
845.536, 10365.512
846.812, 11421.012
848.088, 12149.574
849.363, 13362.170
850.639, 14346.836
851.914, 15183.543
853.189, 16564.252
854.464, 17732.922
855.739, 18940.682
857.013, 19140.402
858.288, 19546.113
859.562, 19940.873
860.836, 20370.594
862.110, 19196.281
863.383, 19896.957
864.656, 18990.592
865.930, 18584.221
867.203, 18245.812
868.475, 17786.377
869.748, 17465.203
871.020, 17182.402
872.292, 16785.867
873.564, 16441.299
874.836, 16106.977
876.108, 15955.137
877.379, 16453.619
878.650, 16170.738
879.922, 16211.098
881.192, 15973.387
882.463, 16205.469
883.733, 15964.316
885.004, 15824.131
886.274, 15957.266
887.544, 16195.828
888.813, 15525.512
890.083, 15475.520
891.352, 15669.410
892.621, 15402.035
893.890, 15205.863
895.159, 14770.117
896.427, 14555.600
897.695, 14370.613
898.964, 14273.875
900.232, 14079.207
901.499, 14369.625
902.767, 14370.707
904.034, 14372.926
905.301, 14254.619
906.568, 14363.436
907.835, 14378.131
909.102, 14322.379
910.368, 14528.148
911.634, 15411.049
912.900, 15487.254
914.166, 16030.512
915.432, 16105.102
916.697, 16398.850
917.962, 17863.072
919.227, 18147.102
920.492, 18851.201
921.757, 19595.748
923.021, 21073.021
924.285, 22194.951
925.550, 23115.586
926.813, 23742.861
928.077, 24529.125
929.341, 25013.027
930.604, 26248.459
931.867, 25897.783
933.130, 26018.105
934.393, 26513.322
935.655, 25130.299
936.918, 25588.006
938.180, 24205.344
939.442, 23399.961
940.703, 22865.461
941.965, 22080.855
943.226, 20825.875
944.488, 20230.242
945.749, 19426.836
947.009, 18819.828
948.270, 18232.625
949.530, 17669.129
950.791, 17358.648
952.051, 16607.609
953.311, 15850.184
954.570, 16163.949
955.830, 15844.562
957.089, 15773.230
958.348, 15039.891
959.607, 15165.574
960.866, 14732.277
962.124, 13940.023
963.383, 13694.805
964.641, 13139.609
965.899, 12746.441
967.156, 12023.289
968.414, 11465.168
969.671, 11079.059
970.928, 10781.695
972.185, 10697.629
973.442, 10101.582
974.699, 10017.555
975.955, 9667.430
977.211, 9001.473
978.468, 9076.000
979.723, 8758.059
980.979, 8412.164
982.234, 8554.789
983.490, 7298.102
984.745, 7552.246
986.000, 7011.680
987.254, 6215.074
988.509, 6462.391
989.763, 5717.637
991.017, 5468.906
992.271, 5281.883
993.525, 5091.785
994.779, 5087.949
996.032, 4720.367
997.285, 4797.531
998.538, 4030.449
999.791, 4731.930
1001.044, 4001.922
1002.296, 4318.254
1003.548, 3960.688
1004.800, 4023.559
1006.052, 4022.691
1007.304, 4182.297
1008.555, 3895.930
1009.807, 4049.277
1011.058, 3949.293
1012.309, 4172.336
1013.559, 3981.328
1014.810, 4044.148
1016.060, 4084.961
1017.310, 4082.441
1018.560, 3981.777
1019.810, 4090.809
1021.060, 4306.129
1022.309, 4251.082
1023.558, 4677.133
1024.807, 4330.008
1026.056, 4570.906
1027.305, 4494.398
1028.553, 4893.547
1029.801, 4560.504
1031.049, 4352.812
1032.297, 4327.863
1033.545, 4775.961
1034.793, 4400.578
1036.040, 4578.711
1037.287, 4578.141
1038.534, 4523.621
1039.781, 4832.949
1041.027, 4174.105
1042.274, 4598.141
1043.520, 4385.633
1044.766, 3737.242
1046.012, 3607.895
1047.257, 3123.809
1048.503, 3372.227
1049.748, 2562.938
1050.993, 2748.230
1052.238, 2342.176
1053.483, 1776.633
1054.727, 1716.574
1055.971, 1908.605
1057.216, 1447.680
1058.459, 1303.980
1059.703, 975.453
1060.947, 987.129
1062.190, 966.957
1063.433, 745.852
1064.676, 711.242
1065.919, 546.844
1067.162, 862.277
1068.404, 379.855
1069.646, 440.848
1070.888, 633.270
1072.130, 386.945
1073.372, 393.641
1074.613, 335.844
1075.855, 290.039
1077.096, 196.855
1078.337, 593.652
1079.578, 293.293
1080.818, 483.707
1082.059, 307.473
1083.299, 448.438
1084.539, 134.012
1085.779, 140.398
1087.018, 100.078
1088.258, 162.730
1089.497, 74.070
1090.736, 247.660
1091.975, 85.168
1093.213, 165.613
1094.452, 78.195
1095.690, 69.246
1096.928, 57.555
1098.166, 200.754
1099.404, 286.398
1100.642, 69.824
1101.879, 330.965
1103.116, 115.527
1104.353, 340.891
1105.590, 158.492
1106.827, 582.176
1108.063, 274.910
1109.299, 804.250
1110.536, 667.551
1111.771, 281.859
1113.007, 425.453
1114.243, 421.695
1115.478, 262.781
1116.713, 232.023
1117.948, 366.922
1119.183, 50.574
1120.418, 393.320
1121.652, 575.867
1122.886, 606.582
1124.120, 36.582
1125.354, 244.582
1126.588, 139.266
1127.821, 20.785
1129.055, 339.648
1130.288, 145.070
1131.521, 7.043
1132.753, 98.938
1133.986, 276.312
1135.218, 235.535
1136.450, 317.574
1137.682, 62.867
1138.914, 452.980
1140.146, 254.945
1141.377, 267.410
1142.609, 397.000
1143.840, 69.137
1145.071, 0.203
1146.301, 82.379
1147.532, 77.188
1148.762, 206.887
1149.992, 82.926
1151.222, 28.410
1152.452, 274.617
1153.682, 432.480
1154.911, 325.895
1156.140, 71.691
1157.369, 256.355
1158.598, 41.602
1159.827, 268.332
1161.055, 22.227
1162.284, 165.812
1163.512, 46.652
1164.740, 182.602
1165.967, 222.250
1167.195, 299.082
1168.422, 241.438
1169.650, 96.176
1170.877, 103.895
1172.103, 3.844
1173.330, 34.129
1174.557, 228.203
1175.783, 92.469
1177.009, 159.875
1178.235, 317.438
1179.461, 181.891
1180.686, 175.883
1181.912, 298.910
1183.137, 451.543
1184.362, 164.676
1185.587, 169.324
1186.811, 472.918
1188.036, 102.395
1189.260, 340.852
1190.484, 482.363
1191.708, 474.230
1192.932, 242.266
1194.155, 194.820
1195.378, 43.473
1196.602, 267.016
1197.825, 161.430
1199.047, 481.730
1200.270, 372.938
1201.492, 702.051
1202.715, 655.316
1203.937, 529.871
1205.159, 468.180
1206.380, 445.746
1207.602, 403.578
1208.823, 392.152
1210.044, 385.152
1211.265, 285.793
1212.486, 245.281
1213.707, 290.551
1214.927, 696.613
1216.147, 427.496
1217.367, 343.227
1218.587, 521.793
1219.807, 290.188
1221.027, 424.406
1222.246, 120.414
1223.465, 592.234
1224.684, 661.875
1225.903, 339.551
1227.121, 194.859
1228.340, 628.000
1229.558, 490.980
1230.776, 343.809
1231.994, 195.527
1233.212, 555.047
1234.429, 593.438
1235.646, 380.711
1236.864, 644.688
1238.081, 219.598
1239.297, 554.516
1240.514, 483.277
1241.730, 638.551
1242.947, 500.242
1244.163, 414.184
1245.378, 554.211
1246.594, 531.219
1247.810, 141.102
1249.025, 729.906
1250.240, 412.641
1251.455, 363.523
1252.670, 589.152
1253.885, 584.734
1255.099, 447.656
1256.313, 98.926
1257.527, 203.633
1258.741, 591.227
1259.955, 235.047
1261.168, 373.645
1262.382, 500.238
1263.595, 543.926
1264.808, 337.832
1266.021, 931.262
1267.233, 486.734
1268.446, 629.340
1269.658, 7.766
1270.870, 198.922
1272.082, 172.672
1273.294, 235.418
1274.505, 94.117
1275.716, 121.316
1276.928, 246.684
1278.139, 479.336
1279.349, 288.094
1280.560, 517.418
1281.770, 192.730
1282.981, 45.922
1284.191, 336.504
1285.401, 327.781
1286.610, 188.656
1287.820, 428.637
1289.029, 15.652
1290.239, 516.758
1291.448, 72.844
1292.656, 138.754
1293.865, 533.262
1295.073, 196.680
1296.282, 151.613
1297.490, 176.117
1298.698, 405.684
1299.906, 252.715
1301.113, 111.863
1302.320, 231.477
1303.528, 293.289
1304.735, 154.363
1305.942, 394.566
1307.148, 556.211
1308.355, 271.656
1309.561, 620.637
1310.767, 409.648
1311.973, 357.902
1313.179, 14.402
1314.384, 118.305
1315.590, 404.219
1316.795, 349.148
1318.000, 194.004
1319.205, 503.977
1320.410, 447.711
1321.614, 59.941
1322.819, 462.477
1324.023, 77.820
1325.227, 701.434
1326.431, 408.012
1327.634, 77.414
1328.838, 346.457
1330.041, 502.012
1331.244, 623.016
1332.447, 43.703
1333.650, 411.484
1334.852, 179.156
1336.055, 253.422
1337.257, 547.031
1338.459, 279.211
1339.661, 584.090
1340.862, 597.680
1342.064, 516.008
1343.265, 495.812
1344.466, 572.402
1345.667, 522.277
1346.868, 613.793
1348.068, 614.207
1349.269, 206.234
1350.469, 611.371
1351.669, 320.461
1352.869, 688.320
1354.069, 764.195
1355.268, 666.977
1356.468, 571.242
1357.667, 675.363
1358.866, 447.824
1360.065, 489.969
1361.263, 223.984
1362.462, 220.672
1363.660, 270.547
1364.858, 286.281
1366.056, 380.043
1367.254, 406.371
1368.451, 358.203
1369.649, 85.844
1370.846, 144.121
1372.043, 318.137
1373.240, 289.309
1374.436, 432.684
1375.633, 94.582
1376.829, 149.090
1378.025, 2.633
1379.221, 315.266
1380.417, 0.000
##END=



