##NAMES=Vivianite
##RRUFFID=R040185
##IDEAL CHEMISTRY=Fe^2+^_3_(PO_4_)_2_&#183;8H_2_O
##LOCALITY=Siglo XX mine, Llallagua, Bustillos, Potosi, Bolivia
##OWNER=RRUFF
##SOURCE=University of Arizona Mineral Museum
##DESCRIPTION=Green acicular single crystal
##STATUS=The identification of this mineral has been confirmed by X-ray diffraction and chemical analysis
##URL=rruff.info/R040185
##MEASURED CHEMISTRY=(Fe_1.00_Mn_0.01_)_3_(P_0.97_Si_0.03_O_3.94_F_0.07_)_2_Â·8H_2_O
##PIN_ID=S00041
##ORIENTATION=Laser parallel to b* (0 1 0). Fiducial mark perpendicular to laser is parallel to -c [0 0 -1]
103.820, 0.000
105.212, 6.075
106.604, 54.678
107.995, 198.613
109.387, 197.242
110.777, 402.559
112.168, 861.982
113.559, 1199.186
114.949, 910.591
116.339, 701.059
117.729, 616.728
119.119, 684.927
120.508, 851.128
121.897, 1069.935
123.286, 1151.042
124.675, 1294.613
126.063, 1217.155
127.452, 1408.721
128.840, 1414.710
130.228, 1278.965
131.615, 1237.347
133.003, 956.741
134.390, 733.049
135.777, 589.183
137.164, 440.103
138.550, 403.841
139.937, 409.378
141.323, 323.645
142.709, 438.571
144.094, 373.107
145.480, 412.198
146.865, 531.771
148.250, 454.764
149.635, 415.128
151.019, 319.824
152.403, 255.819
153.788, 271.085
155.171, 204.598
156.555, 197.335
157.939, 180.280
159.322, 319.414
160.705, 313.738
162.088, 393.237
163.470, 331.920
164.853, 286.734
166.235, 321.674
167.617, 198.766
168.998, 212.353
170.380, 59.670
171.761, 90.825
173.142, 34.630
174.523, 62.699
175.904, 252.926
177.284, 319.137
178.664, 580.323
180.044, 832.592
181.424, 1213.029
182.803, 1602.541
184.183, 2140.194
185.562, 2480.755
186.940, 2720.218
188.319, 2923.490
189.698, 2906.616
191.076, 3139.627
192.454, 3412.542
193.831, 3615.379
195.209, 3918.150
196.586, 4090.867
197.963, 4123.536
199.340, 4106.165
200.717, 3568.758
202.093, 2941.320
203.470, 2378.854
204.846, 1905.362
206.221, 1360.848
207.597, 1139.312
208.972, 849.754
210.347, 879.178
211.722, 732.583
213.097, 749.968
214.472, 812.335
215.846, 862.685
217.220, 1079.007
218.594, 1285.308
219.967, 1587.589
221.341, 1901.145
222.714, 2401.372
224.087, 3011.578
225.460, 3383.763
226.832, 3725.925
228.204, 3848.269
229.577, 3861.216
230.948, 3713.966
232.320, 3659.498
233.692, 3529.132
235.063, 3466.284
236.434, 3540.966
237.805, 3531.357
239.175, 3329.436
240.545, 3029.367
241.916, 2761.336
243.286, 2337.820
244.655, 1987.963
246.025, 1630.396
247.394, 1367.874
248.763, 1164.729
250.132, 1002.545
251.501, 1070.880
252.869, 885.214
254.237, 810.315
255.605, 909.695
256.973, 832.578
258.340, 893.122
259.708, 872.108
261.075, 862.099
262.442, 1013.821
263.808, 1126.292
265.175, 1107.671
266.541, 1216.374
267.907, 1334.165
269.273, 1433.373
270.639, 1450.005
272.004, 1534.251
273.369, 1638.120
274.734, 1573.585
276.099, 1543.472
277.463, 1438.042
278.828, 1320.834
280.192, 1187.813
281.556, 1037.955
282.919, 873.238
284.283, 678.648
285.646, 558.168
287.009, 388.787
288.372, 379.494
289.734, 349.276
291.097, 214.128
292.459, 242.042
293.821, 278.008
295.183, 256.023
296.544, 353.080
297.905, 408.174
299.266, 516.301
300.627, 638.457
301.988, 843.636
303.348, 1029.837
304.709, 1051.055
306.069, 1089.286
307.428, 1052.526
308.788, 963.774
310.147, 874.025
311.507, 750.279
312.865, 606.531
314.224, 499.781
315.583, 411.027
316.941, 335.267
318.299, 297.500
319.657, 214.723
321.015, 182.937
322.372, 125.140
323.729, 62.330
325.086, 97.506
326.443, 52.668
327.800, 8.814
329.156, 26.056
330.512, 64.053
331.868, 25.144
333.224, 86.214
334.579, 92.260
335.935, 25.721
337.290, 101.260
338.645, 42.209
339.999, 121.125
341.354, 169.008
342.708, 119.856
344.062, 123.670
345.416, 54.449
346.769, 155.192
348.123, 117.900
349.476, 102.572
350.829, 21.207
352.182, 3.194
353.534, 85.368
354.887, 8.896
356.239, 20.389
357.591, 56.154
358.942, 83.732
360.294, 23.627
361.645, 75.047
362.996, 109.771
364.347, 45.562
365.698, 108.407
367.048, 142.322
368.398, 97.307
369.748, 98.361
371.098, 103.464
372.448, 61.638
373.797, 132.867
375.146, 56.147
376.495, 34.485
377.844, 47.850
379.192, 2.730
380.540, 4.801
381.889, 78.259
383.236, 13.157
384.584, 26.522
385.932, 20.153
387.279, 64.116
388.626, 75.349
389.973, 63.554
391.319, 26.721
392.666, 47.858
394.012, 115.950
395.358, 91.960
396.704, 75.907
398.049, 25.773
399.394, 67.528
400.740, 49.181
402.084, 22.769
403.429, 10.769
404.774, 21.595
406.118, 4.893
407.462, 2.868
408.806, 54.296
410.150, 0.418
411.493, 36.504
412.836, 46.575
414.179, 22.602
415.522, 16.577
416.865, 28.489
418.207, 60.672
419.549, 114.069
420.891, 165.752
422.233, 116.401
423.575, 184.990
424.916, 97.502
426.257, 177.978
427.598, 65.421
428.939, 126.822
430.279, 182.182
431.619, 178.521
432.959, 233.841
434.299, 197.139
435.639, 289.409
436.978, 251.653
438.318, 328.868
439.657, 367.055
440.996, 477.211
442.334, 519.335
443.673, 587.426
445.011, 677.484
446.349, 763.508
447.687, 1022.498
449.024, 1040.450
450.361, 1305.368
451.699, 1362.250
453.036, 1459.094
454.372, 1445.901
455.709, 1512.669
457.045, 1499.400
458.381, 1376.093
459.717, 1332.756
461.053, 1239.379
462.388, 1015.975
463.724, 897.531
465.059, 713.048
466.394, 760.524
467.728, 681.961
469.063, 643.357
470.397, 578.713
471.731, 561.027
473.065, 463.301
474.398, 500.533
475.732, 428.725
477.065, 525.880
478.398, 405.994
479.731, 455.066
481.063, 490.097
482.396, 511.085
483.728, 458.033
485.060, 523.938
486.391, 479.803
487.723, 556.624
489.054, 625.404
490.385, 605.458
491.716, 582.156
493.047, 639.814
494.377, 643.428
495.708, 668.481
497.038, 721.056
498.368, 747.094
499.697, 832.541
501.027, 927.945
502.356, 1013.309
503.685, 1111.671
505.014, 1186.833
506.342, 1309.151
507.671, 1344.747
508.999, 1439.904
510.327, 1535.021
511.655, 1640.109
512.982, 1844.742
514.310, 1900.034
515.637, 2094.818
516.964, 2099.649
518.291, 2204.103
519.617, 2432.738
520.944, 2587.607
522.270, 2548.799
523.596, 2505.592
524.921, 2726.183
526.247, 2732.806
527.572, 2778.723
528.897, 2875.569
530.222, 3056.207
531.547, 2952.708
532.871, 2992.244
534.196, 2903.074
535.520, 3092.208
536.844, 2978.701
538.167, 2977.951
539.491, 2790.096
540.814, 2862.253
542.137, 2879.304
543.460, 2881.676
544.783, 2819.973
546.105, 2474.731
547.427, 2608.352
548.749, 2314.006
550.071, 2157.666
551.393, 2044.332
552.714, 1987.261
554.035, 1753.703
555.356, 1779.179
556.677, 1628.051
557.998, 1807.301
559.318, 1774.384
560.638, 1877.759
561.958, 1989.096
563.278, 2268.691
564.597, 2759.789
565.917, 3107.957
567.236, 3527.514
568.555, 3849.525
569.874, 3654.916
571.192, 3753.144
572.511, 3274.688
573.829, 2926.315
575.147, 2476.463
576.464, 1897.477
577.782, 1752.697
579.099, 1355.282
580.416, 1191.835
581.733, 914.340
583.050, 897.252
584.366, 799.809
585.683, 742.611
586.999, 663.906
588.315, 576.279
589.630, 488.984
590.946, 541.637
592.261, 404.483
593.576, 447.136
594.891, 539.975
596.206, 362.781
597.520, 425.562
598.834, 498.312
600.148, 501.032
601.462, 506.654
602.776, 286.387
604.089, 479.021
605.402, 411.625
606.715, 444.201
608.028, 556.749
609.341, 409.268
610.653, 501.760
611.965, 474.224
613.277, 606.658
614.589, 629.066
615.901, 591.446
617.212, 695.835
618.523, 738.160
619.834, 862.837
621.145, 855.108
622.456, 797.354
623.766, 1089.575
625.076, 1071.767
626.386, 1043.934
627.696, 1006.073
629.006, 1018.187
630.315, 900.275
631.624, 572.337
632.933, 564.375
634.242, 577.335
635.551, 499.322
636.859, 571.284
638.167, 403.224
639.475, 495.138
640.783, 517.027
642.090, 628.894
643.398, 650.736
644.705, 602.556
646.012, 744.352
647.318, 736.299
648.625, 778.053
649.931, 629.785
651.237, 661.495
652.543, 553.184
653.849, 674.849
655.155, 506.498
656.460, 508.126
657.765, 309.732
659.070, 371.318
660.375, 213.063
661.679, 234.609
662.984, 146.134
664.288, 67.640
665.592, 139.121
666.895, 140.584
668.199, 92.025
669.502, 73.449
670.805, 64.855
672.108, 96.240
673.411, 87.607
674.713, 21.043
676.016, 120.272
677.318, 51.598
678.620, 2.902
679.921, 64.195
681.223, 85.506
682.524, 56.816
683.825, 8.146
685.126, 109.487
686.427, 29.152
687.727, 42.189
689.028, 23.550
690.328, 75.088
691.628, 36.245
692.927, 72.415
694.227, 48.874
695.526, 100.170
696.825, 81.464
698.124, 32.752
699.423, 94.058
700.721, 48.488
702.020, 86.651
703.318, 37.950
704.616, 10.762
705.913, 20.496
707.211, 48.260
708.508, 42.941
709.805, 25.862
711.102, 14.702
712.399, 73.571
713.695, 102.499
714.992, 51.411
716.288, 160.528
717.584, 60.337
718.879, 11.204
720.175, 72.075
721.470, 117.049
722.765, 93.764
724.060, 154.585
725.355, 84.594
726.649, 103.815
727.944, 46.905
729.238, 12.372
730.532, 188.343
731.825, 0.934
733.119, 169.790
734.412, 70.542
735.705, 58.708
736.998, 82.003
738.291, 72.712
739.584, 6.582
740.876, 154.116
742.168, 34.812
743.460, 185.511
744.752, 26.209
746.043, 6.905
747.334, 147.598
748.626, 158.289
749.916, 48.979
751.207, 289.666
752.498, 50.352
753.788, 131.036
755.078, 141.719
756.368, 132.400
757.658, 153.081
758.947, 83.761
760.237, 64.441
761.526, 70.080
762.815, 195.802
764.104, 96.482
765.392, 177.164
766.680, 237.847
767.969, 148.532
769.257, 89.218
770.544, 289.906
771.832, 59.404
773.119, 171.270
774.406, 68.056
775.693, 212.601
776.980, 63.261
778.267, 3.924
779.553, 64.590
780.839, 15.263
782.125, 85.938
783.411, 196.616
784.697, 17.301
785.982, 107.991
787.267, 8.686
788.552, 40.614
789.837, 180.083
791.122, 20.784
792.406, 161.493
793.690, 42.208
794.974, 52.931
796.258, 173.659
797.542, 24.396
798.825, 55.138
800.108, 215.889
801.391, 13.353
802.674, 197.411
803.957, 8.184
805.239, 78.965
806.522, 39.754
807.804, 10.552
809.085, 161.358
810.367, 22.175
811.649, 93.002
812.930, 223.837
814.211, 15.317
815.492, 245.535
816.772, 216.399
818.053, 267.272
819.333, 167.761
820.613, 128.657
821.893, 239.564
823.173, 160.315
824.452, 261.007
825.732, 221.649
827.011, 122.486
828.290, 433.310
829.568, 100.351
830.847, 231.354
832.125, 401.995
833.403, 140.744
834.681, 411.601
835.959, 272.571
837.236, 293.470
838.514, 332.831
839.791, 353.971
841.068, 411.153
842.345, 352.039
843.621, 282.407
844.898, 516.904
846.174, 277.806
847.450, 462.602
848.726, 343.697
850.001, 144.971
851.277, 586.254
852.552, 377.335
853.827, 488.658
855.102, 439.881
856.376, 461.238
857.651, 762.469
858.925, 831.744
860.199, 792.816
861.473, 719.904
862.746, 541.291
864.020, 699.929
865.293, 489.342
866.566, 405.133
867.839, 559.185
869.112, 276.522
870.384, 477.092
871.656, 338.701
872.928, 230.073
874.200, 321.727
875.472, 385.368
876.744, 237.071
878.015, 198.797
879.286, 184.738
880.557, 259.562
881.828, 211.361
883.098, 182.084
884.369, 483.932
885.639, 175.411
886.909, 357.308
888.178, 289.228
889.448, 167.530
890.717, 499.501
891.987, 231.498
893.256, 443.087
894.524, 325.136
895.793, 487.220
897.061, 609.331
898.330, 261.491
899.598, 643.704
900.865, 555.941
902.133, 378.258
903.401, 810.602
904.668, 432.973
905.935, 595.370
907.202, 707.794
908.468, 620.246
909.735, 832.726
911.001, 715.231
912.267, 837.786
913.533, 840.366
914.799, 872.977
916.064, 915.613
917.330, 888.277
918.595, 940.982
919.860, 1113.714
921.124, 1136.474
922.389, 1259.263
923.653, 1442.080
924.918, 1422.889
926.182, 1785.765
927.445, 1776.291
928.709, 2219.226
929.972, 2532.190
931.236, 2705.181
932.499, 3218.201
933.761, 3591.248
935.024, 4074.323
936.286, 4937.426
937.549, 5430.552
938.811, 6813.705
940.073, 8336.885
941.334, 9999.143
942.596, 12732.377
943.857, 15625.633
945.118, 19568.914
946.379, 24372.223
947.640, 28145.553
948.900, 31628.910
950.161, 30832.293
951.421, 29555.697
952.681, 25739.123
953.940, 21292.400
955.200, 17555.883
956.459, 14099.377
957.719, 11122.897
958.978, 9406.441
960.236, 7220.008
961.495, 6073.597
962.753, 4877.210
964.012, 4220.842
965.270, 3564.505
966.527, 3038.017
967.785, 2631.736
969.043, 2215.486
970.300, 1979.265
971.557, 1803.076
972.814, 1536.917
974.071, 1200.787
975.327, 1154.689
976.583, 1018.622
977.840, 1053.797
979.095, 997.793
980.351, 701.820
981.607, 907.087
982.862, 611.246
984.117, 895.386
985.372, 862.106
986.627, 816.320
987.882, 1096.597
989.136, 770.876
990.390, 855.193
991.644, 991.962
992.898, 936.362
994.152, 960.796
995.405, 845.568
996.659, 870.102
997.912, 1054.666
999.165, 939.291
1000.417, 1433.951
1001.670, 1608.643
1002.922, 1303.367
1004.174, 1298.125
1005.426, 983.047
1006.678, 807.873
1007.930, 832.730
1009.181, 737.621
1010.432, 842.553
1011.683, 743.572
1012.934, 618.592
1014.185, 923.701
1015.435, 808.967
1016.685, 894.104
1017.935, 1109.299
1019.185, 944.557
1020.435, 1249.867
1021.684, 1115.266
1022.934, 1300.686
1024.183, 1456.330
1025.432, 1152.848
1026.680, 1258.402
1027.929, 1524.176
1029.177, 1239.795
1030.425, 1635.471
1031.673, 1562.182
1032.921, 1717.955
1034.169, 1843.770
1035.416, 1859.617
1036.663, 2065.500
1037.911, 2491.416
1039.157, 2697.371
1040.404, 3533.377
1041.650, 3679.746
1042.897, 4535.820
1044.143, 5402.000
1045.389, 6220.590
1046.634, 7626.760
1047.880, 9168.879
1049.125, 10650.576
1050.371, 12416.814
1051.615, 13365.656
1052.860, 13401.871
1054.105, 12408.539
1055.349, 11034.816
1056.593, 9621.129
1057.837, 7537.789
1059.081, 6454.166
1060.325, 5140.574
1061.568, 3991.797
1062.812, 3438.193
1064.055, 2634.908
1065.298, 2351.432
1066.540, 1857.918
1067.783, 1587.240
1069.025, 1393.977
1070.267, 1410.531
1071.509, 987.412
1072.751, 1084.008
1073.993, 950.633
1075.234, 827.883
1076.475, 974.574
1077.716, 651.613
1078.957, 958.582
1080.198, 915.307
1081.438, 801.900
1082.679, 958.176
1083.919, 784.445
1085.159, 880.719
1086.398, 946.984
1087.638, 573.221
1088.877, 729.348
1090.116, 505.455
1091.355, 341.461
1092.594, 767.426
1093.833, 363.355
1095.071, 399.217
1096.309, 294.998
1097.547, 200.947
1098.785, 386.623
1100.023, 192.252
1101.260, 227.832
1102.498, 213.361
1103.735, 138.848
1104.972, 274.432
1106.208, 359.820
1107.445, 145.242
1108.681, 400.570
1109.918, 105.854
1111.154, 231.795
1112.389, 376.320
1113.625, 13.262
1114.860, 270.258
1116.096, 157.311
1117.331, 184.418
1118.566, 261.576
1119.800, 38.789
1121.035, 36.047
1122.269, 173.348
1123.503, 110.693
1124.737, 248.049
1125.971, 54.568
1127.205, 72.840
1128.438, 320.301
1129.671, 52.189
1130.904, 4.629
1132.137, 92.984
1133.370, 79.350
1134.602, 238.367
1135.834, 133.867
1137.066, 113.891
1138.298, 111.693
1139.530, 70.453
1140.762, 137.449
1141.993, 145.395
1143.224, 16.619
1144.455, 51.406
1145.686, 159.475
1146.917, 27.576
1148.147, 55.721
1149.377, 13.904
1150.607, 22.135
1151.837, 30.400
1153.067, 1.307
1154.296, 146.975
1155.526, 125.195
1156.755, 73.299
1157.984, 121.436
1159.213, 100.396
1160.441, 367.803
1161.670, 35.977
1162.898, 14.180
1164.126, 242.398
1165.354, 80.627
1166.581, 98.883
1167.809, 277.168
1169.036, 75.477
1170.263, 343.811
1171.490, 42.180
1172.717, 0.598
1173.943, 339.064
1175.170, 57.582
1176.396, 296.164
1177.622, 314.809
1178.848, 13.523
1180.073, 272.316
1181.299, 211.197
1182.524, 150.168
1183.749, 139.236
1184.974, 158.410
1186.199, 217.693
1187.423, 317.057
1188.648, 86.484
1189.872, 225.979
1191.096, 155.531
1192.320, 15.148
1193.543, 292.129
1194.767, 40.891
1195.990, 31.309
1197.213, 302.439
1198.436, 152.420
1199.659, 351.070
1200.881, 100.434
1202.104, 359.049
1203.326, 368.459
1204.548, 127.900
1205.770, 257.365
1206.991, 316.492
1208.213, 13.996
1209.434, 307.691
1210.655, 146.639
1211.876, 205.248
1213.096, 464.385
1214.317, 23.498
1215.537, 192.012
1216.757, 507.566
1217.977, 175.926
1219.197, 381.338
1220.417, 430.164
1221.636, 148.930
1222.855, 577.613
1224.074, 194.811
1225.293, 222.936
1226.512, 530.236
1227.731, 214.730
1228.949, 229.186
1230.167, 280.740
1231.385, 213.809
1232.603, 634.439
1233.820, 138.121
1235.038, 466.551
1236.255, 385.211
1237.472, 252.604
1238.689, 405.914
1239.906, 329.670
1241.122, 216.420
1242.338, 500.373
1243.555, 47.883
1244.771, 210.758
1245.986, 361.752
1247.202, 102.420
1248.417, 223.703
1249.633, 425.369
1250.848, 38.070
1252.063, 427.322
1253.277, 51.398
1254.492, 76.646
1255.706, 397.387
1256.920, 1.125
1258.134, 0.000
##END=



