##NAMES=Vivianite
##RRUFFID=R040185
##IDEAL CHEMISTRY=Fe^2+^_3_(PO_4_)_2_&#183;8H_2_O
##LOCALITY=Siglo XX mine, Llallagua, Bustillos, Potosi, Bolivia
##OWNER=RRUFF
##SOURCE=University of Arizona Mineral Museum
##DESCRIPTION=Green acicular single crystal
##STATUS=The identification of this mineral has been confirmed by X-ray diffraction and chemical analysis
##URL=rruff.info/R040185
##MEASURED CHEMISTRY=(Fe_1.00_Mn_0.01_)_3_(P_0.97_Si_0.03_O_3.94_F_0.07_)_2_Â·8H_2_O
##PIN_ID=S00041
##ORIENTATION=Laser parallel to b* (0 1 0). Fiducial mark perpendicular to laser is parallel to -c [0 0 -1]
99.644, 0.000
101.036, 163.977
102.428, 6.770
103.820, 67.010
105.212, 161.985
106.604, 197.836
107.995, 380.999
109.387, 308.379
110.777, 636.203
112.168, 589.441
113.559, 825.004
114.949, 629.167
116.339, 619.091
117.729, 642.556
119.119, 627.402
120.508, 616.487
121.897, 677.842
123.286, 723.275
124.675, 817.934
126.063, 894.782
127.452, 1011.330
128.840, 1122.500
130.228, 1051.233
131.615, 937.477
133.003, 711.199
134.390, 500.426
135.777, 413.180
137.164, 371.435
138.550, 314.134
139.937, 358.241
141.323, 349.721
142.709, 367.525
144.094, 431.608
145.480, 463.936
146.865, 442.476
148.250, 470.206
149.635, 424.102
151.019, 424.147
152.403, 331.325
153.788, 210.621
155.171, 239.022
156.555, 243.522
157.939, 222.117
159.322, 267.824
160.705, 257.621
162.088, 371.498
163.470, 341.458
164.853, 225.619
166.235, 318.262
167.617, 161.528
168.998, 156.161
170.380, 102.357
171.761, 79.926
173.142, 83.542
174.523, 87.095
175.904, 282.590
177.284, 339.062
178.664, 625.652
180.044, 824.329
181.424, 1280.003
182.803, 1747.587
184.183, 2224.043
185.562, 2660.379
186.940, 2859.616
188.319, 3096.758
189.698, 3033.818
191.076, 3014.798
192.454, 3274.705
193.831, 3492.543
195.209, 3615.321
196.586, 3786.040
197.963, 3718.706
199.340, 3490.320
200.717, 3095.887
202.093, 2541.407
203.470, 2078.881
204.846, 1733.312
206.221, 1295.699
207.597, 1017.046
208.972, 829.351
210.347, 728.615
211.722, 638.839
213.097, 655.944
214.472, 714.816
215.846, 854.127
217.220, 1047.178
218.594, 1302.725
219.967, 1671.077
221.341, 2032.940
222.714, 2557.357
224.087, 3001.339
225.460, 3459.950
226.832, 3683.604
228.204, 3999.717
229.577, 3920.829
230.948, 3796.440
232.320, 3640.038
233.692, 3511.734
235.063, 3326.695
236.434, 3233.235
237.805, 3026.804
239.175, 2940.508
240.545, 2657.254
241.916, 2342.339
243.286, 2138.493
244.655, 1865.781
246.025, 1645.730
247.394, 1382.340
248.763, 1255.016
250.132, 1103.845
251.501, 968.714
252.869, 948.827
254.237, 903.041
255.605, 943.821
256.973, 956.606
258.340, 941.624
259.708, 997.439
261.075, 999.683
262.442, 1078.476
263.808, 1176.058
265.175, 1201.684
266.541, 1379.340
267.907, 1393.569
269.273, 1604.651
270.639, 1640.835
272.004, 1728.080
273.369, 1838.404
274.734, 1660.449
276.099, 1730.792
277.463, 1607.357
278.828, 1464.624
280.192, 1354.958
281.556, 1137.349
282.919, 967.790
284.283, 878.274
285.646, 697.796
287.009, 575.349
288.372, 466.929
289.734, 385.531
291.097, 344.152
292.459, 377.786
293.821, 335.433
295.183, 398.087
296.544, 463.748
297.905, 535.412
299.266, 766.076
300.627, 862.740
301.988, 1029.398
303.348, 1183.049
304.709, 1311.691
306.069, 1342.323
307.428, 1275.942
308.788, 1221.546
310.147, 1059.136
311.507, 963.708
312.865, 764.262
314.224, 623.797
315.583, 551.312
316.941, 532.808
318.299, 426.280
319.657, 325.731
321.015, 257.159
322.372, 167.563
323.729, 193.943
325.086, 111.298
326.443, 142.626
327.800, 167.929
329.156, 114.204
330.512, 106.448
331.868, 118.659
333.224, 40.833
334.579, 164.969
335.935, 82.065
337.290, 159.120
338.645, 124.134
339.999, 136.108
341.354, 59.042
342.708, 139.933
344.062, 134.782
345.416, 181.589
346.769, 173.354
348.123, 106.079
349.476, 135.762
350.829, 60.403
352.182, 73.001
353.534, 21.559
354.887, 92.072
356.239, 17.453
357.591, 55.027
358.942, 69.643
360.294, 8.304
361.645, 51.000
362.996, 51.737
364.347, 94.520
365.698, 35.362
367.048, 79.249
368.398, 107.197
369.748, 10.782
371.098, 9.717
372.448, 50.394
373.797, 63.568
375.146, 131.772
376.495, 15.943
377.844, 159.365
379.192, 55.744
380.540, 11.186
381.889, 45.684
383.236, 23.766
384.584, 31.834
385.932, 4.475
387.279, 82.840
388.626, 37.107
389.973, 152.333
391.319, 68.529
392.666, 137.681
394.012, 99.746
395.358, 84.724
396.704, 83.596
398.049, 83.377
399.394, 99.117
400.740, 68.702
402.084, 49.325
403.429, 36.760
404.774, 50.132
406.118, 89.430
407.462, 44.672
408.806, 43.131
410.150, 21.003
411.493, 6.072
412.836, 56.090
414.179, 10.058
415.522, 25.965
416.865, 21.184
418.207, 60.582
419.549, 59.271
420.891, 148.899
422.233, 37.466
423.575, 153.977
424.916, 101.441
426.257, 65.862
427.598, 130.239
428.939, 155.579
430.279, 146.883
431.619, 163.147
432.959, 189.373
434.299, 204.560
435.639, 300.706
436.978, 254.815
438.318, 223.884
439.657, 344.912
440.996, 420.902
442.334, 376.852
443.673, 602.763
445.011, 582.634
446.349, 619.464
447.687, 813.254
449.024, 873.003
450.361, 997.711
451.699, 1138.377
453.036, 1208.002
454.372, 1235.585
455.709, 1259.125
457.045, 1220.624
458.381, 1107.080
459.717, 987.493
461.053, 996.863
462.388, 813.191
463.724, 780.476
465.059, 634.717
466.394, 649.916
467.728, 622.070
469.063, 493.187
470.397, 540.259
471.731, 464.289
473.065, 386.274
474.398, 422.216
475.732, 440.114
477.065, 356.969
478.398, 436.779
479.731, 379.549
481.063, 457.274
482.396, 449.955
483.728, 478.592
485.060, 505.847
486.391, 485.578
487.723, 529.045
489.054, 553.507
490.385, 544.743
491.716, 620.891
493.047, 628.775
494.377, 673.522
495.708, 693.021
497.038, 747.844
498.368, 789.935
499.697, 841.626
501.027, 914.508
502.356, 973.214
503.685, 1071.005
505.014, 1172.720
506.342, 1263.575
507.671, 1358.342
508.999, 1456.774
510.327, 1566.276
511.655, 1686.041
512.982, 1771.627
514.310, 1924.277
515.637, 2046.888
516.964, 2127.447
518.291, 2198.056
519.617, 2372.024
520.944, 2425.601
522.270, 2546.371
523.596, 2577.408
524.921, 2789.868
526.247, 2844.792
527.572, 2782.553
528.897, 2826.757
530.222, 3003.771
531.547, 3023.245
532.871, 3066.022
534.196, 2994.096
535.520, 3106.609
536.844, 2964.939
538.167, 3065.027
539.491, 2879.221
540.814, 2923.905
542.137, 2852.852
543.460, 2820.995
544.783, 2634.067
546.105, 2517.277
547.427, 2541.003
548.749, 2271.489
550.071, 2181.710
551.393, 1977.919
552.714, 2009.819
554.035, 1909.067
555.356, 1763.488
556.677, 1672.384
557.998, 1822.186
559.318, 1809.571
560.638, 2017.871
561.958, 2255.547
563.278, 2463.062
564.597, 2942.635
565.917, 3478.693
567.236, 3847.136
568.555, 4179.911
569.874, 4066.119
571.192, 4051.824
572.511, 3659.160
573.829, 3205.109
575.147, 2680.529
576.464, 2169.413
577.782, 1881.612
579.099, 1448.737
580.416, 1255.321
581.733, 1073.809
583.050, 881.812
584.366, 845.345
585.683, 808.332
586.999, 725.030
588.315, 609.893
589.630, 571.650
590.946, 529.472
592.261, 452.369
593.576, 509.294
594.891, 463.586
596.206, 394.651
597.520, 460.552
598.834, 437.797
600.148, 499.011
601.462, 428.195
602.776, 405.348
604.089, 517.471
605.402, 436.563
606.715, 481.627
608.028, 509.660
609.341, 486.665
610.653, 544.980
611.965, 388.584
613.277, 609.501
614.589, 616.389
615.901, 623.248
617.212, 787.079
618.523, 813.882
619.834, 803.689
621.145, 922.437
622.456, 1021.158
623.766, 1189.851
625.076, 1191.517
626.386, 1309.183
627.696, 1219.795
629.006, 1048.382
630.315, 1009.942
631.624, 797.477
632.933, 691.986
634.242, 618.469
635.551, 427.928
636.859, 534.809
638.167, 509.218
639.475, 610.602
640.783, 544.962
642.090, 664.299
643.398, 716.611
644.705, 753.901
646.012, 892.167
647.318, 849.411
648.625, 715.633
649.931, 839.834
651.237, 771.013
652.543, 759.173
653.849, 711.311
655.155, 498.428
656.460, 522.525
657.765, 354.602
659.070, 391.660
660.375, 172.699
661.679, 215.719
662.984, 201.720
664.288, 147.701
665.592, 137.664
666.895, 190.609
668.199, 99.536
669.502, 84.447
670.805, 116.342
672.108, 40.223
673.411, 37.083
674.713, 29.069
676.016, 36.052
677.318, 23.467
678.620, 30.721
679.921, 27.004
681.223, 15.399
682.524, 14.034
683.825, 6.021
685.126, 18.677
686.427, 26.349
687.727, 80.007
689.028, 41.659
690.328, 107.681
691.628, 5.922
692.927, 57.457
694.227, 67.886
695.526, 0.324
696.825, 27.238
698.124, 23.199
699.423, 28.350
700.721, 64.105
702.020, 9.596
703.318, 94.900
704.616, 24.611
705.913, 54.148
707.211, 144.731
708.508, 44.596
709.805, 17.084
711.102, 17.215
712.399, 113.493
713.695, 50.271
714.992, 16.916
716.288, 112.902
717.584, 41.214
718.879, 81.670
720.175, 29.399
721.470, 18.470
722.765, 17.461
724.060, 93.597
725.355, 38.322
726.649, 21.753
727.944, 74.838
729.238, 1.074
730.532, 164.019
731.825, 24.881
733.119, 91.226
734.412, 50.336
735.705, 34.551
736.998, 165.548
738.291, 98.653
739.584, 66.760
740.876, 53.868
742.168, 42.981
743.460, 94.098
744.752, 150.215
746.043, 128.335
747.334, 192.457
748.626, 123.582
749.916, 95.709
751.207, 227.836
752.498, 58.967
753.788, 149.099
755.078, 10.232
756.368, 145.368
757.658, 102.507
758.947, 141.648
760.237, 152.792
761.526, 178.940
762.815, 218.091
764.104, 104.247
765.392, 95.406
766.680, 182.569
767.969, 40.738
769.257, 162.912
770.544, 164.092
771.832, 14.276
773.119, 206.469
774.406, 1.334
775.693, 115.870
776.980, 125.082
778.267, 47.300
779.553, 163.526
780.839, 46.239
782.125, 111.993
783.411, 145.233
784.697, 60.484
785.982, 29.741
787.267, 38.010
788.552, 31.287
789.837, 40.123
791.122, 29.128
792.406, 30.175
793.690, 125.489
794.974, 35.814
796.258, 182.150
797.542, 46.498
798.825, 101.857
800.108, 121.229
801.391, 86.614
802.674, 149.012
803.957, 70.421
805.239, 98.844
806.522, 118.281
807.804, 33.730
809.085, 150.195
810.367, 41.674
811.649, 20.168
812.930, 184.676
814.211, 43.198
815.492, 242.738
816.772, 205.293
818.053, 185.862
819.333, 197.449
820.613, 234.058
821.893, 207.684
823.173, 250.302
824.452, 188.887
825.732, 316.562
827.011, 151.756
828.290, 355.917
829.568, 338.583
830.847, 330.887
832.125, 444.058
833.403, 198.853
834.681, 369.961
835.959, 303.877
837.236, 307.960
838.514, 313.373
839.791, 319.509
841.068, 496.006
842.345, 492.950
843.621, 469.849
844.898, 608.550
846.174, 374.460
847.450, 546.486
848.726, 467.948
850.001, 323.736
851.277, 600.800
852.552, 485.365
853.827, 672.545
855.102, 724.726
856.376, 590.418
857.651, 877.703
858.925, 912.636
860.199, 1045.808
861.473, 873.390
862.746, 750.782
864.020, 926.551
865.293, 703.998
866.566, 613.938
867.839, 627.946
869.112, 385.483
870.384, 565.771
871.656, 293.367
872.928, 485.831
874.200, 443.489
875.472, 401.179
876.744, 447.801
878.015, 385.555
879.286, 471.223
880.557, 459.041
881.828, 386.891
883.098, 434.604
884.369, 512.521
885.639, 289.298
886.909, 537.281
888.178, 305.297
889.448, 391.823
890.717, 439.909
891.987, 438.029
893.256, 546.183
894.524, 504.373
895.793, 602.597
897.061, 710.855
898.330, 519.156
899.598, 657.493
900.865, 625.862
902.133, 554.300
903.401, 902.772
904.668, 681.281
905.935, 739.824
907.202, 798.404
908.468, 777.043
909.735, 965.718
911.001, 894.428
912.267, 953.185
913.533, 1021.978
914.799, 940.812
916.064, 1069.688
917.330, 928.598
918.595, 1017.552
919.860, 1216.543
921.124, 1255.572
922.389, 1334.641
923.653, 1563.746
924.918, 1592.890
926.182, 1882.070
927.445, 1931.257
928.709, 2450.514
929.972, 2619.805
931.236, 2759.133
932.499, 3378.497
933.761, 3876.871
935.024, 4336.311
936.286, 5285.783
937.549, 5785.295
938.811, 7304.836
940.073, 8784.415
941.334, 10614.026
942.596, 13353.670
943.857, 16572.896
945.118, 20742.604
946.379, 25952.352
947.640, 29812.129
948.900, 33801.941
950.161, 33081.789
951.421, 31561.680
952.681, 27501.605
953.940, 22811.562
955.200, 18711.562
956.459, 15101.596
957.719, 11841.668
958.978, 9741.777
960.236, 7781.925
961.495, 6522.109
962.753, 5422.332
964.012, 4502.594
965.270, 3782.895
966.527, 3343.235
967.785, 2943.615
969.043, 2514.033
970.300, 2194.493
971.557, 2066.111
972.814, 1726.651
974.071, 1467.231
975.327, 1357.852
976.583, 1078.512
977.840, 1089.701
979.095, 980.445
980.351, 791.236
981.607, 932.084
982.862, 663.004
984.117, 1034.584
985.372, 945.611
986.627, 926.698
987.882, 1127.841
989.136, 939.037
990.390, 1100.285
991.644, 1081.580
992.898, 883.626
994.152, 1035.104
995.405, 1036.530
996.659, 1068.864
997.912, 1170.418
999.165, 1272.843
1000.417, 1724.530
1001.670, 1914.928
1002.922, 1696.709
1004.174, 1768.545
1005.426, 1221.719
1006.678, 983.664
1007.930, 1095.661
1009.181, 827.699
1010.432, 949.792
1011.683, 881.947
1012.934, 954.188
1014.185, 1016.472
1015.435, 968.809
1016.685, 1071.190
1017.935, 1153.648
1019.185, 1086.167
1020.435, 1378.730
1021.684, 1331.372
1022.934, 1374.059
1024.183, 1576.814
1025.432, 1409.615
1026.680, 1542.464
1027.929, 1625.365
1029.177, 1568.312
1030.425, 1811.317
1031.673, 1734.371
1032.921, 1937.458
1034.169, 2000.595
1035.416, 2143.781
1036.663, 2497.014
1037.911, 2760.296
1039.157, 3023.889
1040.404, 3877.268
1041.650, 4120.695
1042.897, 4914.172
1044.143, 5887.686
1045.389, 6771.236
1046.634, 8454.826
1047.880, 10089.791
1049.125, 11733.354
1050.371, 13676.938
1051.615, 14267.927
1052.860, 14691.606
1054.105, 13755.377
1055.349, 12059.149
1056.593, 10402.964
1057.837, 8231.724
1059.081, 7005.630
1060.325, 5729.584
1061.568, 4295.676
1062.812, 3709.717
1064.055, 2934.869
1065.298, 2359.278
1066.540, 2063.443
1067.783, 1698.496
1069.025, 1592.746
1070.267, 1427.039
1071.509, 1131.569
1072.751, 1165.688
1073.993, 909.837
1075.234, 884.096
1076.475, 928.119
1077.716, 672.276
1078.957, 906.170
1080.198, 820.030
1081.438, 803.971
1082.679, 937.685
1083.919, 701.871
1085.159, 675.814
1086.398, 749.370
1087.638, 543.009
1088.877, 526.320
1090.116, 379.467
1091.355, 372.402
1092.594, 485.140
1093.833, 258.859
1095.071, 212.645
1096.309, 276.498
1097.547, 170.419
1098.785, 364.409
1100.023, 158.468
1101.260, 252.595
1102.498, 186.791
1103.735, 111.057
1104.972, 295.393
1106.208, 279.799
1107.445, 224.264
1108.681, 138.799
1109.918, 83.402
1111.154, 188.074
1112.389, 232.816
1113.625, 17.622
1114.860, 172.497
1116.096, 27.440
1117.331, 32.449
1118.566, 197.521
1119.800, 57.348
1121.035, 47.840
1122.269, 143.001
1123.503, 68.220
1124.737, 223.494
1125.971, 31.168
1127.205, 54.232
1128.438, 99.693
1129.671, 25.216
1130.904, 0.798
1132.137, 33.562
1133.370, 52.138
1134.602, 197.894
1135.834, 33.706
1137.066, 89.575
1138.298, 45.499
1139.530, 21.479
1140.762, 32.492
1141.993, 6.411
1143.224, 49.725
1144.455, 34.097
1145.686, 52.128
1146.917, 31.691
1148.147, 14.539
1149.377, 179.213
1150.607, 17.052
1151.837, 73.333
1153.067, 40.357
1154.296, 15.989
1155.526, 62.374
1156.755, 48.800
1157.984, 105.277
1159.213, 96.168
1160.441, 188.398
1161.670, 85.058
1162.898, 141.779
1164.126, 128.580
1165.354, 35.476
1166.581, 32.482
1167.809, 99.590
1169.036, 116.792
1170.263, 224.090
1171.490, 41.481
1172.717, 198.968
1173.943, 186.546
1175.170, 104.217
1176.396, 211.979
1177.622, 209.835
1178.848, 117.781
1180.073, 213.063
1181.299, 131.136
1182.524, 59.300
1183.749, 196.277
1184.974, 184.599
1186.199, 31.307
1187.423, 289.772
1188.648, 98.329
1189.872, 206.977
1191.096, 93.290
1192.320, 179.486
1193.543, 215.716
1194.767, 6.185
1195.990, 124.304
1197.213, 217.991
1198.436, 83.913
1199.659, 274.228
1200.881, 102.411
1202.104, 210.631
1203.326, 218.880
1204.548, 32.856
1205.770, 225.408
1206.991, 213.659
1208.213, 21.877
1209.434, 250.042
1210.655, 58.261
1211.876, 116.425
1213.096, 343.042
1214.317, 81.013
1215.537, 248.876
1216.757, 466.839
1217.977, 146.459
1219.197, 222.455
1220.417, 187.912
1221.636, 153.227
1222.855, 254.582
1224.074, 75.055
1225.293, 141.205
1226.512, 181.997
1227.731, 61.970
1228.949, 154.197
1230.167, 10.819
1231.385, 13.331
1232.603, 55.076
1233.820, 15.054
1235.038, 91.165
1236.255, 100.014
1237.472, 28.335
1238.689, 0.000
##END=



