##NAMES=Wavellite
##RRUFFID=R040176
##IDEAL CHEMISTRY=Al_3_(PO_4_)_2_(OH)_3_&#183;5H_2_O
##LOCALITY=Montgomery County, Arkansas, USA
##OWNER=RRUFF
##SOURCE=University of Arizona Mineral Museum
##DESCRIPTION=Pale green radial aggregates
##STATUS=The identification of this mineral has been confirmed by X-ray diffraction and chemical analysis
##URL=rruff.info/R040176
##MEASURED CHEMISTRY=(Al_0.88_V_0.03_)_3_(P_0.97_O_4_)_2_((OH)_1.74_F_0.26_)_3_Â·5H_2_O
##PIN_ID=L00054
##ORIENTATION=Laser parallel to -a* (-1 0 0). Fiducial mark perpendicular to laser is parallel to b [0 1 0]
83.614, 0.000
85.009, 93.340
86.404, 18.878
87.798, 280.081
89.193, 596.721
90.587, 704.181
91.981, 981.892
93.375, 1154.318
94.768, 1307.323
96.161, 1664.608
97.554, 1970.015
98.947, 2363.824
100.340, 2847.240
101.732, 3265.492
103.124, 3960.780
104.516, 4070.250
105.908, 4361.114
107.300, 4829.973
108.691, 5681.012
110.082, 6281.645
111.473, 6215.287
112.864, 6001.885
114.254, 6538.410
115.644, 7355.855
117.034, 8693.210
118.424, 8324.470
119.813, 7479.870
121.203, 6399.588
122.592, 5043.930
123.981, 4230.615
125.369, 3238.037
126.758, 2755.317
128.146, 2597.692
129.534, 2819.645
130.922, 2127.971
132.309, 1914.146
133.696, 1664.764
135.083, 2117.988
136.470, 1755.821
137.857, 1620.309
139.243, 1503.488
140.630, 1336.405
142.016, 1214.105
143.401, 1074.631
144.787, 948.877
146.172, 699.249
147.557, 703.366
148.942, 465.363
150.327, 310.237
151.711, 203.997
153.096, 234.479
154.480, 496.078
155.863, 516.452
157.247, 681.952
158.630, 936.070
160.013, 993.520
161.396, 1114.199
162.779, 1074.184
164.161, 896.329
165.544, 883.477
166.926, 537.717
168.308, 401.014
169.689, 268.410
171.070, 195.947
172.452, 62.637
173.833, 71.511
175.213, 26.507
176.594, 135.312
177.974, 36.971
179.354, 31.528
180.734, 0.179
182.114, 48.027
183.493, 244.905
184.872, 486.972
186.251, 794.164
187.630, 937.479
189.008, 1210.904
190.387, 1532.433
191.765, 1609.101
193.143, 1646.906
194.520, 1501.849
195.898, 1361.966
197.275, 1308.439
198.652, 1270.124
200.029, 1136.117
201.405, 1254.354
202.782, 1258.728
204.158, 1474.189
205.534, 1797.734
206.909, 1774.307
208.285, 2144.879
209.660, 2463.447
211.035, 2180.013
212.410, 2055.493
213.784, 1693.829
215.159, 1266.129
216.533, 996.370
217.907, 707.610
219.281, 474.881
220.654, 287.151
222.027, 156.434
223.400, 59.725
224.773, 25.973
226.146, 149.659
227.518, 171.966
228.891, 165.001
230.263, 221.658
231.634, 259.304
233.006, 285.939
234.377, 266.566
235.748, 265.354
237.119, 289.805
238.490, 203.580
239.860, 158.564
241.231, 102.838
242.601, 18.593
243.970, 125.745
245.340, 186.743
246.709, 368.740
248.079, 603.772
249.448, 473.177
250.816, 835.515
252.185, 914.864
253.553, 1216.275
254.921, 1542.156
256.289, 1690.413
257.657, 1974.977
259.024, 2211.790
260.391, 2494.812
261.758, 2835.005
263.125, 3325.336
264.492, 3896.782
265.858, 4290.324
267.224, 5155.949
268.590, 5509.644
269.956, 6482.389
271.321, 7276.178
272.687, 7719.982
274.052, 8043.787
275.416, 8261.029
276.781, 8282.161
278.146, 8130.189
279.510, 7921.986
280.874, 7438.783
282.237, 6868.577
283.601, 6008.371
284.964, 5606.160
286.327, 5346.924
287.690, 4745.641
289.053, 4370.305
290.416, 4196.924
291.778, 3792.502
293.140, 3441.041
294.502, 3054.424
295.863, 2802.680
297.225, 2630.843
298.586, 2235.274
299.947, 2326.646
301.308, 2303.057
302.668, 2244.101
304.029, 2618.253
305.389, 2810.394
306.749, 2850.105
308.108, 3225.537
309.468, 3390.917
310.827, 3879.938
312.186, 3909.121
313.545, 4191.299
314.903, 4030.169
316.262, 3653.418
317.620, 3476.961
318.978, 2989.322
320.336, 2664.691
321.693, 2439.568
323.051, 2252.837
324.408, 1972.989
325.765, 1905.015
327.121, 1554.576
328.478, 1420.224
329.834, 1340.767
331.190, 1152.203
332.546, 781.663
333.902, 808.145
335.257, 477.647
336.612, 581.142
337.967, 430.202
339.322, 425.352
340.677, 448.655
342.031, 386.245
343.385, 516.750
344.739, 493.885
346.093, 470.094
347.446, 582.758
348.799, 558.438
350.153, 780.131
351.505, 886.836
352.858, 1072.555
354.210, 1207.284
355.563, 1439.025
356.915, 1550.775
358.267, 1986.535
359.618, 2011.304
360.969, 2415.080
362.321, 2637.859
363.672, 2918.645
365.022, 3170.430
366.373, 3305.220
367.723, 3734.008
369.073, 3920.799
370.423, 4304.589
371.773, 4440.380
373.122, 4892.170
374.471, 5393.961
375.821, 5601.751
377.169, 6345.543
378.518, 6685.335
379.866, 7361.128
381.215, 7961.922
382.563, 8766.715
383.910, 9425.510
385.258, 10534.303
386.605, 11715.100
387.952, 12557.792
389.299, 14097.732
390.646, 14949.283
391.992, 16693.287
393.339, 18040.750
394.685, 19571.863
396.031, 21039.320
397.376, 22348.008
398.722, 23990.793
400.067, 25523.053
401.412, 26398.758
402.757, 28318.357
404.101, 29123.490
405.446, 30228.344
406.790, 31367.252
408.134, 32635.166
409.478, 33303.086
410.821, 33929.012
412.165, 33721.113
413.508, 33328.965
414.851, 32248.023
416.193, 30897.166
417.536, 29225.350
418.878, 27325.576
420.220, 25008.838
421.562, 21606.115
422.904, 20015.416
424.245, 17731.742
425.586, 15298.066
426.927, 13578.437
428.268, 11229.854
429.609, 9858.307
430.949, 8414.815
432.289, 7547.357
433.629, 6044.953
434.969, 5311.607
436.309, 4305.299
437.648, 3725.992
438.987, 3032.701
440.326, 2642.433
441.665, 2176.205
443.003, 1781.021
444.342, 1467.873
445.680, 1202.752
447.018, 1023.653
448.355, 796.551
449.693, 595.447
451.030, 464.357
452.367, 459.313
453.704, 122.261
455.041, 235.234
456.377, 89.220
457.713, 100.214
459.049, 88.775
460.385, 32.173
461.721, 23.147
463.056, 16.896
464.391, 17.954
465.726, 17.053
467.061, 89.194
468.395, 243.414
469.730, 50.757
471.064, 108.158
472.398, 1.348
473.731, 189.183
475.065, 167.839
476.398, 125.621
477.731, 19.492
479.064, 31.422
480.397, 82.391
481.729, 47.558
483.062, 9.517
484.394, 3.634
485.725, 38.790
487.057, 114.010
488.389, 99.795
489.720, 131.574
491.051, 202.335
492.382, 170.080
493.712, 254.814
495.043, 250.531
496.373, 325.229
497.703, 386.911
499.032, 428.604
500.362, 459.281
501.691, 562.907
503.020, 616.150
504.349, 766.378
505.678, 791.053
507.007, 890.729
508.335, 1014.383
509.663, 1088.017
510.991, 1275.626
512.319, 1447.214
513.646, 1596.778
514.973, 1694.321
516.300, 2102.838
517.627, 2245.332
518.954, 2314.801
520.280, 2788.246
521.607, 2941.665
522.933, 3467.061
524.259, 3720.430
525.584, 4230.771
526.910, 4815.088
528.235, 5458.378
529.560, 6233.640
530.885, 6697.877
532.209, 7541.086
533.534, 8623.268
534.858, 9198.421
536.182, 10068.545
537.506, 11021.639
538.829, 11495.708
540.152, 11976.743
541.476, 12290.754
542.799, 12196.730
544.121, 12638.682
545.444, 12592.598
546.766, 12335.483
548.088, 12402.354
549.410, 12401.236
550.732, 11888.247
552.053, 11645.876
553.375, 11500.826
554.696, 11159.895
556.017, 11083.443
557.337, 10905.146
558.658, 10508.627
559.978, 10128.985
561.298, 10233.762
562.618, 9959.455
563.938, 9607.061
565.257, 9751.606
566.576, 9112.737
567.895, 9070.831
569.214, 8815.242
570.533, 8734.377
571.851, 8475.645
573.170, 8244.499
574.488, 7922.646
575.805, 7663.219
577.123, 7224.309
578.440, 7081.828
579.758, 6829.498
581.075, 6538.467
582.391, 6522.414
583.708, 6028.742
585.024, 5844.008
586.341, 5997.396
587.657, 5742.716
588.972, 5791.811
590.288, 5667.967
591.603, 5501.471
592.918, 5516.947
594.233, 5744.929
595.548, 5801.668
596.863, 6102.273
598.177, 6278.932
599.491, 6379.408
600.805, 6307.816
602.119, 6651.814
603.432, 6771.834
604.746, 7360.232
606.059, 7395.242
607.372, 7690.335
608.685, 8143.893
609.997, 8520.885
611.309, 9016.913
612.621, 9239.692
613.933, 9811.115
615.245, 10047.571
616.557, 10714.147
617.868, 11032.485
619.179, 11655.328
620.490, 12027.379
621.801, 12845.871
623.111, 13096.836
624.421, 13569.472
625.731, 13836.039
627.041, 14825.873
628.351, 14499.443
629.660, 15052.153
630.970, 15576.544
632.279, 15334.848
633.588, 15708.281
634.896, 15270.340
636.205, 15943.222
637.513, 15449.941
638.821, 15481.579
640.129, 15207.191
641.437, 15023.022
642.744, 14594.137
644.051, 14027.212
645.358, 13870.281
646.665, 12985.004
647.972, 12526.583
649.278, 11672.214
650.584, 10988.133
651.890, 10447.647
653.196, 9705.098
654.502, 9103.485
655.807, 8524.024
657.113, 7705.079
658.418, 7356.343
659.722, 6451.485
661.027, 5797.566
662.331, 5596.584
663.636, 4963.542
664.940, 4612.438
666.244, 4360.271
667.547, 3888.043
668.851, 3780.753
670.154, 3406.400
671.457, 3033.987
672.760, 3066.512
674.062, 2755.975
675.365, 2543.378
676.667, 2242.718
677.969, 2172.998
679.271, 2070.215
680.572, 1664.372
681.874, 1728.469
683.175, 1610.504
684.476, 1378.479
685.777, 1402.393
687.077, 1084.246
688.378, 1166.039
689.678, 1054.771
690.978, 1035.443
692.278, 645.056
693.577, 855.609
694.877, 714.103
696.176, 790.536
697.475, 479.910
698.774, 604.225
700.072, 536.480
701.371, 554.678
702.669, 534.916
703.967, 458.895
705.265, 405.916
706.562, 359.880
707.860, 215.782
709.157, 402.620
710.454, 116.399
711.751, 252.101
713.047, 221.737
714.344, 99.310
715.640, 102.801
716.936, 60.790
718.232, 241.466
719.527, 258.658
720.823, 127.788
722.118, 390.845
723.413, 463.844
724.708, 256.782
726.002, 85.661
727.297, 84.539
728.591, 110.788
729.885, 150.259
731.179, 85.150
732.472, 85.026
733.766, 36.057
735.059, 6.784
736.352, 32.478
737.645, 18.863
738.937, 41.638
740.230, 124.943
741.522, 129.692
742.814, 99.608
744.106, 178.646
745.397, 102.934
746.689, 175.340
747.980, 209.932
749.271, 109.726
750.562, 2.334
751.853, 46.693
753.143, 82.829
754.433, 147.095
755.723, 165.519
757.013, 146.669
758.303, 102.854
759.592, 96.729
760.881, 1.271
762.170, 19.801
763.459, 62.951
764.748, 201.202
766.036, 1.376
767.325, 126.106
768.613, 76.717
769.901, 67.425
771.188, 104.765
772.476, 31.131
773.763, 154.075
775.050, 9.853
776.337, 88.261
777.624, 40.549
778.910, 287.332
780.196, 2.906
781.482, 149.153
782.768, 2.558
784.054, 15.254
785.339, 28.952
786.625, 54.370
787.910, 124.311
789.195, 23.016
790.479, 2.266
791.764, 96.424
793.048, 3.895
794.332, 121.787
795.616, 27.446
796.900, 85.091
798.183, 78.276
799.467, 25.673
800.750, 82.099
802.033, 10.431
803.316, 124.938
804.598, 64.578
805.880, 130.871
807.163, 170.300
808.445, 117.709
809.726, 86.100
811.008, 127.472
812.289, 0.172
813.570, 113.164
814.851, 191.485
816.132, 107.791
817.413, 169.082
818.693, 261.357
819.973, 294.620
821.253, 273.870
822.533, 363.107
823.813, 278.334
825.092, 310.550
826.371, 373.755
827.650, 352.950
828.929, 475.137
830.208, 463.315
831.486, 330.484
832.764, 521.648
834.042, 400.806
835.320, 574.957
836.598, 525.103
837.875, 460.244
839.152, 542.862
840.429, 580.557
841.706, 615.649
842.983, 704.779
844.259, 820.908
845.536, 721.037
846.812, 849.165
848.088, 882.294
849.363, 865.424
850.639, 940.557
851.914, 908.692
853.189, 904.830
854.464, 1012.974
855.739, 994.411
857.013, 1140.273
858.288, 1079.431
859.562, 1247.596
860.836, 1353.660
862.110, 1119.130
863.383, 1307.318
864.656, 1229.439
865.930, 1157.139
867.203, 1222.734
868.475, 1248.607
869.748, 1064.660
871.020, 1084.333
872.292, 1302.116
873.564, 1169.998
874.836, 1200.924
876.108, 1222.238
877.379, 1473.572
878.650, 1389.573
879.922, 1464.826
881.192, 1427.891
882.463, 1602.430
883.733, 1624.620
885.004, 1643.030
886.274, 1644.586
887.544, 1720.592
888.813, 1747.973
890.083, 1870.267
891.352, 2061.597
892.621, 2146.536
893.890, 2204.535
895.159, 2398.396
896.427, 2427.338
897.695, 2599.537
898.964, 2567.693
900.232, 2668.523
901.499, 2804.418
902.767, 3112.797
904.034, 3040.442
905.301, 3250.222
906.568, 3393.008
907.835, 3482.007
909.102, 3600.086
910.368, 3675.596
911.634, 4015.102
912.900, 3984.250
914.166, 4362.820
915.432, 4144.354
916.697, 4207.449
917.962, 4479.160
919.227, 4388.842
920.492, 4627.796
921.757, 4569.139
923.021, 4626.322
924.285, 4450.475
925.550, 4411.523
926.813, 4329.151
928.077, 4252.559
929.341, 4293.889
930.604, 4182.289
931.867, 3970.791
933.130, 4011.459
934.393, 3906.156
935.655, 3760.204
936.918, 3854.499
938.180, 3574.980
939.442, 3573.557
940.703, 3595.315
941.965, 3507.069
943.226, 3576.688
944.488, 3434.678
945.749, 3705.498
947.009, 3540.593
948.270, 3682.762
949.530, 3742.014
950.791, 3885.082
952.051, 3923.025
953.311, 3789.262
954.570, 3960.783
955.830, 3807.383
957.089, 3790.706
958.348, 3663.456
959.607, 3709.276
960.866, 3405.165
962.124, 3453.145
963.383, 3336.193
964.641, 3369.252
965.899, 3187.459
967.156, 3104.737
968.414, 3111.087
969.671, 3100.506
970.928, 2954.995
972.185, 3215.557
973.442, 3116.188
974.699, 3354.890
975.955, 3436.669
977.211, 3504.520
978.468, 3935.441
979.723, 3946.435
980.979, 4027.499
982.234, 4732.637
983.490, 4647.845
984.745, 5169.125
986.000, 5379.479
987.254, 5605.906
988.509, 6448.408
989.763, 6568.982
991.017, 7072.628
992.271, 7542.350
993.525, 8190.154
994.779, 8917.028
996.032, 9542.982
997.285, 10355.007
998.538, 10993.108
999.791, 12359.285
1001.044, 12869.538
1002.296, 14326.866
1003.548, 14927.266
1004.800, 16054.742
1006.052, 17488.293
1007.304, 18580.918
1008.555, 20478.625
1009.807, 22176.398
1011.058, 24374.248
1012.309, 26782.184
1013.559, 29111.191
1014.810, 31431.277
1016.060, 34531.449
1017.310, 36803.703
1018.560, 38736.027
1019.810, 40678.449
1021.060, 41813.953
1022.309, 41349.574
1023.558, 40980.277
1024.807, 38581.055
1026.056, 36270.914
1027.305, 33192.840
1028.553, 30193.848
1029.801, 26879.926
1031.049, 23436.086
1032.297, 20846.369
1033.545, 18857.344
1034.793, 16572.891
1036.040, 15014.935
1037.287, 13779.151
1038.534, 12680.419
1039.781, 12038.403
1041.027, 11027.233
1042.274, 10688.423
1043.520, 10293.561
1044.766, 9847.970
1046.012, 9411.241
1047.257, 9034.913
1048.503, 9161.762
1049.748, 8582.807
1050.993, 8774.594
1052.238, 8410.056
1053.483, 7994.221
1054.727, 8003.232
1055.971, 8014.502
1057.216, 7736.390
1058.459, 7677.751
1059.703, 7775.562
1060.947, 7686.131
1062.190, 7790.039
1063.433, 7725.191
1064.676, 7733.487
1065.919, 7718.117
1067.162, 7879.484
1068.404, 7387.055
1069.646, 7359.305
1070.888, 7114.697
1072.130, 6587.605
1073.372, 6264.880
1074.613, 6030.865
1075.855, 5481.959
1077.096, 5039.758
1078.337, 5226.646
1079.578, 4758.862
1080.818, 4659.084
1082.059, 4359.846
1083.299, 4350.331
1084.539, 4057.487
1085.779, 3923.568
1087.018, 3638.764
1088.258, 3590.559
1089.497, 3376.385
1090.736, 3265.050
1091.975, 3089.336
1093.213, 2760.162
1094.452, 2793.949
1095.690, 2461.402
1096.928, 2560.933
1098.166, 2281.148
1099.404, 2344.822
1100.642, 2094.807
1101.879, 2126.910
1103.116, 2061.978
1104.353, 1980.296
1105.590, 1745.782
1106.827, 2006.712
1108.063, 1769.017
1109.299, 1932.251
1110.536, 1865.405
1111.771, 1748.699
1113.007, 1838.021
1114.243, 1778.926
1115.478, 1714.305
1116.713, 1709.917
1117.948, 1681.366
1119.183, 1496.982
1120.418, 1797.483
1121.652, 1968.008
1122.886, 1925.555
1124.120, 1868.263
1125.354, 1604.855
1126.588, 1486.468
1127.821, 1391.099
1129.055, 1467.752
1130.288, 1568.422
1131.521, 1534.109
1132.753, 1302.812
1133.986, 1392.532
1135.218, 1728.806
1136.450, 1440.729
1137.682, 1730.579
1138.914, 1474.354
1140.146, 1507.604
1141.377, 1645.483
1142.609, 1739.365
1143.840, 1859.943
1145.071, 1929.896
1146.301, 2043.854
1147.532, 2085.573
1148.762, 2148.092
1149.992, 2160.166
1151.222, 2256.360
1152.452, 2301.591
1153.682, 2050.774
1154.911, 2258.100
1156.140, 1968.593
1157.369, 1903.012
1158.598, 1780.337
1159.827, 1706.521
1161.055, 1523.501
1162.284, 1328.329
1163.512, 1131.480
1164.740, 1022.950
1165.967, 814.412
1167.195, 831.885
1168.422, 664.298
1169.650, 578.655
1170.877, 399.973
1172.103, 335.258
1173.330, 248.422
1174.557, 326.536
1175.783, 291.592
1177.009, 31.541
1178.235, 152.378
1179.461, 84.171
1180.686, 29.118
1181.912, 108.520
1183.137, 18.936
1184.362, 21.067
1185.587, 17.680
1186.811, 26.616
1188.036, 151.524
1189.260, 18.378
1190.484, 79.024
1191.708, 78.455
1192.932, 123.372
1194.155, 188.663
1195.378, 122.712
1196.602, 152.993
1197.825, 191.450
1199.047, 3.874
1200.270, 138.489
1201.492, 32.996
1202.715, 275.158
1203.937, 137.276
1205.159, 92.531
1206.380, 95.132
1207.602, 86.782
1208.823, 103.924
1210.044, 135.522
1211.265, 181.191
1212.486, 119.098
1213.707, 190.679
1214.927, 14.271
1216.147, 85.400
1217.367, 51.813
1218.587, 136.022
1219.807, 106.368
1221.027, 34.327
1222.246, 96.435
1223.465, 88.010
1224.684, 9.324
1225.903, 40.409
1227.121, 117.220
1228.340, 75.170
1229.558, 36.058
1230.776, 91.130
1231.994, 55.295
1233.212, 70.362
1234.429, 82.399
1235.646, 22.028
1236.864, 245.599
1238.081, 40.120
1239.297, 135.581
1240.514, 217.952
1241.730, 77.273
1242.947, 48.513
1244.163, 16.620
1245.378, 82.650
1246.594, 235.617
1247.810, 48.553
1249.025, 319.401
1250.240, 141.143
1251.455, 120.814
1252.670, 42.499
1253.885, 181.026
1255.099, 232.637
1256.313, 8.031
1257.527, 263.575
1258.741, 264.824
1259.955, 19.013
1261.168, 245.723
1262.382, 182.759
1263.595, 262.359
1264.808, 209.267
1266.021, 271.108
1267.233, 340.129
1268.446, 323.850
1269.658, 127.514
1270.870, 343.111
1272.082, 288.647
1273.294, 397.118
1274.505, 433.570
1275.716, 323.651
1276.928, 312.647
1278.139, 405.537
1279.349, 317.361
1280.560, 186.026
1281.770, 245.565
1282.981, 269.004
1284.191, 420.338
1285.401, 202.591
1286.610, 123.801
1287.820, 294.758
1289.029, 199.683
1290.239, 312.574
1291.448, 366.431
1292.656, 195.253
1293.865, 316.040
1295.073, 429.788
1296.282, 338.489
1297.490, 346.146
1298.698, 383.751
1299.906, 355.309
1301.113, 330.820
1302.320, 364.285
1303.528, 486.705
1304.735, 277.083
1305.942, 461.418
1307.148, 459.057
1308.355, 304.363
1309.561, 508.124
1310.767, 597.188
1311.973, 551.736
1313.179, 446.352
1314.384, 640.449
1315.590, 470.098
1316.795, 552.326
1318.000, 391.307
1319.205, 521.904
1320.410, 466.007
1321.614, 372.333
1322.819, 397.652
1324.023, 368.232
1325.227, 318.082
1326.431, 358.665
1327.634, 339.734
1328.838, 186.806
1330.041, 310.917
1331.244, 272.512
1332.447, 108.924
1333.650, 101.290
1334.852, 128.737
1336.055, 35.306
1337.257, 83.354
1338.459, 107.458
1339.661, 222.412
1340.862, 99.167
1342.064, 55.100
1343.265, 11.255
1344.466, 106.274
1345.667, 88.030
1346.868, 159.921
1348.068, 134.728
1349.269, 148.718
1350.469, 270.414
1351.669, 158.068
1352.869, 144.592
1354.069, 180.998
1355.268, 12.285
1356.468, 225.066
1357.667, 133.924
1358.866, 119.719
1360.065, 231.721
1361.263, 91.754
1362.462, 198.906
1363.660, 229.959
1364.858, 115.557
1366.056, 123.100
1367.254, 226.609
1368.451, 240.973
1369.649, 235.006
1370.846, 222.295
1372.043, 170.359
1373.240, 260.627
1374.436, 179.141
1375.633, 233.043
1376.829, 131.639
1378.025, 150.680
1379.221, 265.285
1380.417, 237.326
1381.613, 249.279
1382.808, 317.600
1384.003, 260.645
1385.199, 219.990
1386.393, 166.131
1387.588, 211.834
1388.783, 164.754
1389.977, 221.758
1391.171, 130.916
1392.365, 180.928
1393.559, 204.031
1394.753, 191.334
1395.946, 97.658
1397.140, 118.727
1398.333, 75.082
1399.526, 109.838
1400.719, 55.695
1401.911, 179.141
1403.104, 221.822
1404.296, 17.834
1405.488, 216.922
1406.680, 57.303
1407.872, 215.637
1409.063, 194.102
1410.255, 44.986
1411.446, 215.566
1412.637, 181.053
1413.828, 126.100
1415.018, 247.662
1416.209, 168.338
1417.399, 73.527
1418.589, 258.080
1419.779, 226.311
1420.969, 72.137
1422.159, 12.654
1423.348, 126.305
1424.537, 103.422
1425.726, 54.492
1426.915, 66.430
1428.104, 123.500
1429.293, 0.000
##END=



