##NAMES=Weloganite
##RRUFFID=R050217
##IDEAL CHEMISTRY=Na_2_Sr_3_Zr^4+^(C^4+^O_3_)_6_&#183;3H_2_O
##LOCALITY=Francon Quarry, Montréal, Québec, Canada
##OWNER=RRUFF
##SOURCE=Marcus Origlieri
##DESCRIPTION=Tan colored tapered hexagonal single crystals
##STATUS=The identification of this mineral has been confirmed by X-ray diffraction and chemical analysis
##URL=rruff.info/R050217
##MEASURED CHEMISTRY=Na_2.00_(Sr_2.93_Ca_0.07_)_Σ=3_(Zr_0.90_Hf_0.10_)_Σ=1_(CO_3_)_6_·3H_2_O
##PIN_ID=L00360
##ORIENTATION=Laser parallel to c* (0 0 1). Fiducial mark perpendicular to laser is parallel to [1 1 0]
89.193, 0.000
90.587, 135.977
91.981, 153.818
93.375, 122.975
94.768, 61.820
96.161, 19.917
97.554, 55.330
98.947, 307.874
100.340, 527.140
101.732, 652.146
103.124, 877.488
104.516, 1102.183
105.908, 1212.358
107.300, 1283.310
108.691, 886.458
110.082, 686.323
111.473, 194.503
112.864, 18.651
114.254, 24.523
115.644, 141.731
117.034, 260.200
118.424, 325.700
119.813, 487.063
121.203, 811.146
122.592, 1047.813
123.981, 1228.948
125.369, 1394.441
126.758, 1592.626
128.146, 1662.114
129.534, 1902.124
130.922, 2158.160
132.309, 2229.144
133.696, 2367.006
135.083, 2438.695
136.470, 2940.172
137.857, 3597.402
139.243, 4595.351
140.630, 5338.992
142.016, 6117.293
143.401, 6599.224
144.787, 7339.752
146.172, 8258.854
147.557, 9637.494
148.942, 10585.649
150.327, 11007.288
151.711, 11241.384
153.096, 11252.915
154.480, 11523.851
155.863, 11311.178
157.247, 10456.864
158.630, 9054.898
160.013, 7690.248
161.396, 5353.909
162.779, 4259.855
164.161, 3646.072
165.544, 3216.544
166.926, 2988.256
168.308, 2722.192
169.689, 2396.411
171.070, 2140.994
172.452, 2058.779
173.833, 1981.492
175.213, 1670.312
176.594, 1642.366
177.974, 1237.601
179.354, 1201.057
180.734, 950.794
182.114, 888.785
183.493, 827.038
184.872, 885.505
186.251, 887.273
187.630, 978.267
189.008, 1061.487
190.387, 1235.968
191.765, 1377.136
193.143, 1568.509
194.520, 1752.568
195.898, 1993.819
197.275, 2078.779
198.652, 2196.652
200.029, 2245.286
201.405, 2304.043
202.782, 2350.925
204.158, 2349.905
205.534, 2456.939
206.909, 2494.070
208.285, 2292.269
209.660, 2145.514
211.035, 2242.811
212.410, 2121.170
213.784, 2278.561
215.159, 2403.999
216.533, 2616.456
217.907, 2898.933
219.281, 3215.428
220.654, 3625.938
222.027, 4067.456
223.400, 4684.987
224.773, 5208.520
226.146, 5623.055
227.518, 5750.592
228.891, 5885.132
230.263, 5837.666
231.634, 5625.190
233.006, 5475.703
234.377, 5452.200
235.748, 5430.681
237.119, 5256.141
238.490, 4955.582
239.860, 4551.999
241.231, 3922.392
242.601, 3468.757
243.970, 3242.096
245.340, 2921.404
246.709, 2644.684
248.079, 2318.178
249.448, 2013.495
250.816, 1615.794
252.185, 1510.636
253.553, 1432.099
254.921, 1487.841
256.289, 1611.774
257.657, 1718.108
259.024, 1735.150
260.391, 1828.180
261.758, 1883.989
263.125, 1717.313
264.492, 1613.178
265.858, 1366.985
267.224, 1313.433
268.590, 1088.675
269.956, 997.988
271.321, 1073.740
272.687, 1232.340
274.052, 1377.992
275.416, 1525.076
276.781, 1698.246
278.146, 1831.741
279.510, 1749.266
280.874, 1788.011
282.237, 1596.240
283.601, 1489.810
284.964, 1150.269
286.327, 1092.069
287.690, 936.311
289.053, 838.909
290.416, 569.011
291.778, 698.152
293.140, 392.319
294.502, 402.166
295.863, 337.490
297.225, 297.153
298.586, 371.160
299.947, 381.857
301.308, 640.756
302.668, 749.479
304.029, 956.193
305.389, 1208.370
306.749, 1398.931
308.108, 1644.188
309.468, 2067.899
310.827, 2347.320
312.186, 2733.649
313.545, 3201.414
314.903, 3671.526
316.262, 3926.236
317.620, 4042.197
318.978, 4231.255
320.336, 4187.008
321.693, 4149.590
323.051, 4139.697
324.408, 3976.122
325.765, 3814.080
327.121, 3746.281
328.478, 3408.621
329.834, 3272.830
331.190, 3089.693
332.546, 3106.166
333.902, 3005.500
335.257, 2957.884
336.612, 2731.979
337.967, 2778.003
339.322, 2722.365
340.677, 2704.709
342.031, 2739.065
343.385, 2899.381
344.739, 3224.587
346.093, 3508.121
347.446, 3854.154
348.799, 4428.369
350.153, 4721.481
351.505, 5351.250
352.858, 5715.669
354.210, 6213.524
355.563, 6862.380
356.915, 7278.949
358.267, 8043.472
359.618, 8635.147
360.969, 9027.941
362.321, 9425.306
363.672, 9430.209
365.022, 9093.625
366.373, 8512.192
367.723, 7620.568
369.073, 6991.435
370.423, 6093.534
371.773, 5189.425
373.122, 4468.289
374.471, 3854.341
375.821, 3439.948
377.169, 2785.511
378.518, 2449.162
379.866, 1892.606
381.215, 1649.995
382.563, 1378.394
383.910, 1200.669
385.258, 1029.095
386.605, 808.256
387.952, 766.360
389.299, 535.406
390.646, 409.394
391.992, 376.322
393.339, 312.191
394.685, 258.000
396.031, 207.905
397.376, 270.594
398.722, 91.223
400.067, 59.790
401.412, 98.501
402.757, 2.410
404.101, 82.039
405.446, 6.140
406.790, 83.337
408.134, 38.891
409.478, 16.032
410.821, 9.984
412.165, 8.146
413.508, 4.373
414.851, 27.533
416.193, 32.363
417.536, 8.857
418.878, 58.960
420.220, 54.699
421.562, 88.615
422.904, 123.664
424.245, 86.710
425.586, 53.892
426.927, 44.236
428.268, 62.491
429.609, 99.492
430.949, 77.711
432.289, 94.167
433.629, 37.811
434.969, 96.630
436.309, 50.263
437.648, 62.452
438.987, 15.020
440.326, 45.135
441.665, 105.589
443.003, 61.314
444.342, 0.945
445.680, 73.170
447.018, 27.199
448.355, 1.154
449.693, 80.854
451.030, 37.696
452.367, 3.444
453.704, 36.922
455.041, 40.869
456.377, 29.728
457.713, 37.019
459.049, 35.551
460.385, 12.339
461.721, 41.729
463.056, 78.133
464.391, 82.546
465.726, 4.406
467.061, 96.590
468.395, 8.917
469.730, 39.822
471.064, 114.374
472.398, 20.888
473.731, 106.420
475.065, 39.657
476.398, 78.604
477.731, 107.340
479.064, 157.145
480.397, 187.482
481.729, 38.172
483.062, 111.361
484.394, 101.415
485.725, 179.381
487.057, 163.275
488.389, 157.090
489.720, 166.799
491.051, 133.414
492.382, 109.931
493.712, 164.343
495.043, 260.660
496.373, 181.891
497.703, 133.029
499.032, 260.085
500.362, 262.077
501.691, 257.983
503.020, 262.822
504.349, 285.572
505.678, 235.237
507.007, 318.853
508.335, 271.407
509.663, 289.873
510.991, 366.267
512.319, 242.583
513.646, 333.809
514.973, 326.947
516.300, 389.004
517.627, 391.976
518.954, 348.866
520.280, 311.667
521.607, 406.379
522.933, 283.027
524.259, 377.583
525.584, 331.076
526.910, 368.479
528.235, 506.794
529.560, 415.025
530.885, 455.170
532.209, 451.230
533.534, 396.204
534.858, 521.096
536.182, 491.904
537.506, 459.628
538.829, 515.267
540.152, 580.822
541.476, 486.293
542.799, 541.680
544.121, 456.983
545.444, 574.202
546.766, 558.336
548.088, 523.388
549.410, 579.355
550.732, 540.240
552.053, 566.041
553.375, 532.759
554.696, 482.393
556.017, 566.944
557.337, 531.411
558.658, 531.796
559.978, 476.098
561.298, 415.315
562.618, 468.213
563.938, 408.260
565.257, 397.502
566.576, 458.154
567.895, 340.329
569.214, 516.560
570.533, 472.915
571.851, 448.964
573.170, 422.682
574.488, 400.353
575.805, 375.477
577.123, 376.862
578.440, 336.832
579.758, 356.829
581.075, 358.458
582.391, 320.649
583.708, 320.928
585.024, 333.035
586.341, 293.517
587.657, 245.625
588.972, 249.158
590.288, 321.874
591.603, 214.318
592.918, 261.075
594.233, 214.925
595.548, 263.468
596.863, 318.037
598.177, 217.379
599.491, 238.623
600.805, 247.870
602.119, 223.697
603.432, 275.237
604.746, 218.932
606.059, 159.322
607.372, 181.297
608.685, 83.937
609.997, 240.081
611.309, 191.195
612.621, 196.288
613.933, 96.699
615.245, 226.622
616.557, 121.197
617.868, 287.410
619.179, 285.917
620.490, 178.201
621.801, 162.635
623.111, 260.342
624.421, 75.261
625.731, 289.756
627.041, 193.518
628.351, 208.022
629.660, 149.960
630.970, 202.599
632.279, 195.215
633.588, 234.148
634.896, 257.236
636.205, 216.698
637.513, 309.076
638.821, 209.659
640.129, 297.191
641.437, 389.884
642.744, 433.301
644.051, 303.256
645.358, 300.541
646.665, 343.702
647.972, 369.956
649.278, 359.398
650.584, 373.910
651.890, 382.649
653.196, 435.454
654.502, 416.461
655.807, 430.781
657.113, 486.049
658.418, 385.197
659.722, 518.472
661.027, 461.566
662.331, 405.059
663.636, 431.904
664.940, 534.936
666.244, 460.775
667.547, 548.560
668.851, 415.695
670.154, 559.293
671.457, 531.387
672.760, 661.666
674.062, 887.623
675.365, 1202.447
676.667, 1601.114
677.969, 2296.566
679.271, 2710.170
680.572, 2516.485
681.874, 1959.134
683.175, 1636.465
684.476, 1322.861
685.777, 915.668
687.077, 769.143
688.378, 716.729
689.678, 704.244
690.978, 600.389
692.278, 607.963
693.577, 517.484
694.877, 646.815
696.176, 551.256
697.475, 755.652
698.774, 656.937
700.072, 668.246
701.371, 541.306
702.669, 466.529
703.967, 454.435
705.265, 412.848
706.562, 396.943
707.860, 319.000
709.157, 267.014
710.454, 341.987
711.751, 283.766
713.047, 398.659
714.344, 283.515
715.640, 317.329
716.936, 298.901
718.232, 371.175
719.527, 528.629
720.823, 526.791
722.118, 694.872
723.413, 927.209
724.708, 1285.036
726.002, 2171.572
727.297, 3034.896
728.591, 2952.087
729.885, 2501.135
731.179, 2227.073
732.472, 2235.898
733.766, 2798.699
735.059, 3212.607
736.352, 3121.336
737.645, 2657.097
738.937, 2122.088
740.230, 1705.762
741.522, 1545.497
742.814, 1567.043
744.106, 1821.228
745.397, 2458.510
746.689, 3167.299
747.980, 3840.386
749.271, 4267.920
750.562, 4052.146
751.853, 3536.812
753.143, 2741.736
754.433, 2298.100
755.723, 2170.687
757.013, 2572.407
758.303, 3900.020
759.592, 5473.896
760.881, 7092.561
762.170, 6607.723
763.459, 4795.133
764.748, 2928.242
766.036, 1716.136
767.325, 1324.798
768.613, 816.510
769.901, 677.164
771.188, 486.087
772.476, 316.217
773.763, 323.437
775.050, 193.679
776.337, 233.475
777.624, 78.157
778.910, 153.287
780.196, 158.972
781.482, 151.243
782.768, 84.145
784.054, 37.118
785.339, 117.801
786.625, 156.783
787.910, 5.733
789.195, 116.854
790.479, 6.076
791.764, 3.120
793.048, 60.474
794.332, 9.457
795.616, 38.771
796.900, 40.889
798.183, 27.583
799.467, 6.319
800.750, 41.916
802.033, 33.154
803.316, 52.054
804.598, 114.602
805.880, 49.841
807.163, 44.028
808.445, 24.225
809.726, 64.591
811.008, 81.448
812.289, 31.635
813.570, 74.295
814.851, 89.722
816.132, 2.729
817.413, 155.276
818.693, 88.376
819.973, 90.464
821.253, 57.704
822.533, 27.914
823.813, 29.849
825.092, 22.604
826.371, 21.650
827.650, 120.073
828.929, 13.210
830.208, 79.489
831.486, 165.182
832.764, 77.131
834.042, 27.509
835.320, 82.858
836.598, 53.725
837.875, 84.303
839.152, 114.456
840.429, 200.443
841.706, 175.006
842.983, 88.563
844.259, 19.884
845.536, 126.654
846.812, 90.189
848.088, 199.718
849.363, 102.244
850.639, 207.765
851.914, 139.281
853.189, 172.796
854.464, 53.307
855.739, 104.814
857.013, 214.319
858.288, 155.821
859.562, 102.321
860.836, 194.819
862.110, 192.314
863.383, 106.810
864.656, 282.310
865.930, 400.808
867.203, 438.307
868.475, 620.803
869.748, 540.905
871.020, 618.809
872.292, 403.314
873.564, 243.820
874.836, 164.328
876.108, 94.839
877.379, 38.352
878.650, 59.868
879.922, 22.476
881.192, 107.919
882.463, 19.456
883.733, 111.997
885.004, 119.542
886.274, 113.091
887.544, 15.354
888.813, 173.201
890.083, 14.764
891.352, 18.671
892.621, 53.896
893.890, 29.470
895.159, 102.048
896.427, 95.632
897.695, 12.224
898.964, 71.822
900.232, 162.427
901.499, 38.039
902.767, 114.657
904.034, 151.284
905.301, 49.916
906.568, 140.553
907.835, 134.208
909.102, 123.869
910.368, 36.535
911.634, 95.209
912.900, 53.888
914.166, 106.574
915.432, 221.271
916.697, 23.976
917.962, 74.693
919.227, 335.430
920.492, 49.173
921.757, 231.923
923.021, 154.685
924.285, 153.450
925.550, 166.226
926.813, 164.005
928.077, 109.796
929.341, 111.594
930.604, 80.106
931.867, 174.916
933.130, 135.740
934.393, 190.569
935.655, 194.169
936.918, 103.585
938.180, 103.360
939.442, 177.221
940.703, 78.293
941.965, 207.104
943.226, 193.241
944.488, 85.325
945.749, 121.454
947.009, 202.754
948.270, 134.310
949.530, 67.770
950.791, 259.104
952.051, 210.818
953.311, 175.457
954.570, 127.074
955.830, 159.783
957.089, 259.754
958.348, 153.482
959.607, 186.199
960.866, 266.848
962.124, 152.200
963.383, 109.540
964.641, 234.301
965.899, 195.184
967.156, 184.236
968.414, 213.928
969.671, 184.866
970.928, 176.046
972.185, 41.161
973.442, 233.356
974.699, 174.468
975.955, 308.391
977.211, 145.305
978.468, 154.966
979.723, 270.157
980.979, 229.451
982.234, 51.670
983.490, 403.900
984.745, 109.327
986.000, 199.418
987.254, 232.584
988.509, 105.825
989.763, 406.113
991.017, 195.418
992.271, 341.733
993.525, 323.061
994.779, 301.400
996.032, 296.846
997.285, 192.229
998.538, 394.623
999.791, 217.035
1001.044, 327.461
1002.296, 208.897
1003.548, 327.347
1004.800, 294.810
1006.052, 284.284
1007.304, 333.771
1008.555, 352.271
1009.807, 364.783
1011.058, 268.384
1012.309, 380.923
1013.559, 430.475
1014.810, 243.619
1016.060, 366.197
1017.310, 429.787
1018.560, 387.391
1019.810, 344.291
1021.060, 269.920
1022.309, 432.568
1023.558, 492.229
1024.807, 435.904
1026.056, 363.592
1027.305, 468.292
1028.553, 431.007
1029.801, 594.734
1031.049, 504.565
1032.297, 456.319
1033.545, 570.086
1034.793, 640.148
1036.040, 498.942
1037.287, 632.749
1038.534, 619.299
1039.781, 696.134
1041.027, 813.980
1042.274, 723.495
1043.520, 812.369
1044.766, 954.256
1046.012, 940.156
1047.257, 860.070
1048.503, 961.999
1049.748, 1103.940
1050.993, 1031.896
1052.238, 1407.864
1053.483, 1528.846
1054.727, 1759.842
1055.971, 2246.851
1057.216, 3170.176
1058.459, 3781.212
1059.703, 4198.262
1060.947, 4068.325
1062.190, 4104.470
1063.433, 4345.561
1064.676, 5058.243
1065.919, 5922.361
1067.162, 6398.492
1068.404, 7077.545
1069.646, 7620.703
1070.888, 9308.872
1072.130, 12168.059
1073.372, 15923.257
1074.613, 19746.471
1075.855, 22099.699
1077.096, 22612.484
1078.337, 26965.732
1079.578, 38052.992
1080.818, 49691.285
1082.059, 51225.043
1083.299, 40285.348
1084.539, 28105.678
1085.779, 18882.016
1087.018, 12863.795
1088.258, 8426.160
1089.497, 6060.537
1090.736, 4570.934
1091.975, 3553.342
1093.213, 2794.202
1094.452, 2369.646
1095.690, 2126.123
1096.928, 1660.616
1098.166, 1482.283
1099.404, 1372.003
1100.642, 1181.951
1101.879, 1030.533
1103.116, 1044.305
1104.353, 771.916
1105.590, 809.539
1106.827, 639.175
1108.063, 647.825
1109.299, 453.489
1110.536, 486.641
1111.771, 436.249
1113.007, 521.829
1114.243, 504.592
1115.478, 501.320
1116.713, 348.128
1117.948, 347.952
1119.183, 414.832
1120.418, 241.750
1121.652, 579.679
1122.886, 800.637
1124.120, 802.616
1125.354, 718.933
1126.588, 442.906
1127.821, 369.930
1129.055, 145.724
1130.288, 323.824
1131.521, 291.889
1132.753, 200.053
1133.986, 114.162
1135.218, 174.283
1136.450, 322.438
1137.682, 60.604
1138.914, 256.782
1140.146, 44.971
1141.377, 89.170
1142.609, 91.382
1143.840, 0.604
1145.071, 241.914
1146.301, 188.163
1147.532, 186.631
1148.762, 166.900
1149.992, 96.182
1151.222, 111.474
1152.452, 118.776
1153.682, 217.090
1154.911, 61.413
1156.140, 167.748
1157.369, 75.093
1158.598, 4.552
1159.827, 160.812
1161.055, 195.188
1162.284, 45.427
1163.512, 99.954
1164.740, 111.346
1165.967, 130.747
1167.195, 37.841
1168.422, 164.568
1169.650, 61.120
1170.877, 93.551
1172.103, 89.991
1173.330, 88.441
1174.557, 118.900
1175.783, 182.369
1177.009, 94.850
1178.235, 71.661
1179.461, 114.811
1180.686, 8.291
1181.912, 10.220
1183.137, 45.277
1184.362, 81.783
1185.587, 143.301
1186.811, 183.828
1188.036, 93.364
1189.260, 35.912
1190.484, 170.469
1191.708, 169.036
1192.932, 216.612
1194.155, 151.197
1195.378, 117.793
1196.602, 123.397
1197.825, 77.662
1199.047, 91.635
1200.270, 79.268
1201.492, 131.917
1202.715, 237.577
1203.937, 49.755
1205.159, 165.901
1206.380, 114.569
1207.602, 219.246
1208.823, 0.068
1210.044, 68.626
1211.265, 12.669
1212.486, 81.038
1213.707, 205.755
1214.927, 58.516
1216.147, 83.198
1217.367, 164.929
1218.587, 108.668
1219.807, 103.417
1221.027, 197.175
1222.246, 83.941
1223.465, 30.281
1224.684, 198.489
1225.903, 221.271
1227.121, 13.062
1228.340, 7.138
1229.558, 246.666
1230.776, 205.482
1231.994, 216.307
1233.212, 25.863
1234.429, 162.963
1235.646, 107.793
1236.864, 65.629
1238.081, 188.471
1239.297, 24.683
1240.514, 17.157
1241.730, 183.007
1242.947, 48.857
1244.163, 2.703
1245.378, 18.444
1246.594, 41.282
1247.810, 58.260
1249.025, 3.098
1250.240, 40.923
1251.455, 79.736
1252.670, 64.556
1253.885, 138.384
1255.099, 93.218
1256.313, 40.959
1257.527, 30.148
1258.741, 65.512
1259.955, 121.453
1261.168, 66.745
1262.382, 87.040
1263.595, 91.831
1264.808, 57.627
1266.021, 27.407
1267.233, 41.756
1268.446, 106.970
1269.658, 38.757
1270.870, 2.551
1272.082, 47.653
1273.294, 49.134
1274.505, 25.073
1275.716, 11.716
1276.928, 162.510
1278.139, 10.300
1279.349, 127.095
1280.560, 63.895
1281.770, 44.696
1282.981, 42.505
1284.191, 9.683
1285.401, 46.129
1286.610, 92.945
1287.820, 25.766
1289.029, 136.591
1290.239, 64.590
1291.448, 214.225
1292.656, 12.957
1293.865, 90.861
1295.073, 112.682
1296.282, 194.507
1297.490, 190.305
1298.698, 108.168
1299.906, 154.004
1301.113, 101.843
1302.320, 56.687
1303.528, 138.533
1304.735, 188.308
1305.942, 191.103
1307.148, 189.019
1308.355, 272.298
1309.561, 105.161
1310.767, 208.028
1311.973, 62.897
1313.179, 186.488
1314.384, 11.636
1315.590, 295.238
1316.795, 196.117
1318.000, 205.001
1319.205, 290.889
1320.410, 288.780
1321.614, 167.677
1322.819, 113.580
1324.023, 313.396
1325.227, 249.310
1326.431, 434.229
1327.634, 281.872
1328.838, 253.804
1330.041, 467.742
1331.244, 442.687
1332.447, 592.638
1333.650, 600.596
1334.852, 487.561
1336.055, 660.533
1337.257, 694.512
1338.459, 786.498
1339.661, 812.492
1340.862, 1015.494
1342.064, 1167.503
1343.265, 1246.522
1344.466, 1286.548
1345.667, 1569.418
1346.868, 1832.463
1348.068, 2472.516
1349.269, 2626.277
1350.469, 2990.629
1351.669, 3334.715
1352.869, 3403.811
1354.069, 3263.195
1355.268, 3163.316
1356.468, 2770.869
1357.667, 2718.014
1358.866, 2760.137
1360.065, 2440.668
1361.263, 2601.438
1362.462, 2406.664
1363.660, 2452.016
1364.858, 2650.188
1366.056, 2682.375
1367.254, 2829.789
1368.451, 2908.441
1369.649, 2909.643
1370.846, 2818.064
1372.043, 2974.734
1373.240, 2752.312
1374.436, 2919.246
1375.633, 2848.242
1376.829, 2599.203
1378.025, 2606.609
1379.221, 2443.264
1380.417, 2593.793
1381.613, 2535.389
1382.808, 2599.439
1384.003, 2707.254
1385.199, 2907.510
1386.393, 2757.391
1387.588, 2735.172
1388.783, 2978.223
1389.977, 2764.459
1391.171, 2505.699
1392.365, 2261.264
1393.559, 2059.328
1394.753, 1891.217
1395.946, 1597.359
1397.140, 1556.504
1398.333, 1346.654
1399.526, 1373.078
1400.719, 1230.191
1401.911, 1228.246
1403.104, 1237.250
1404.296, 1252.361
1405.488, 1415.287
1406.680, 1731.393
1407.872, 1900.500
1409.063, 2319.619
1410.255, 3078.188
1411.446, 3661.234
1412.637, 4485.285
1413.828, 5412.336
1415.018, 6255.391
1416.209, 6663.445
1417.399, 6525.512
1418.589, 6085.588
1419.779, 5430.676
1420.969, 4353.227
1422.159, 3685.305
1423.348, 2802.383
1424.537, 2278.463
1425.726, 1880.584
1426.915, 1370.707
1428.104, 1304.834
1429.293, 1132.959
1430.481, 969.086
1431.669, 705.215
1432.857, 889.340
1434.045, 620.465
1435.233, 497.588
1436.420, 613.682
1437.608, 561.791
1438.795, 541.906
1439.982, 393.018
1441.169, 347.127
1442.355, 509.229
1443.542, 459.342
1444.728, 484.436
1445.914, 491.877
1447.100, 375.600
1448.286, 408.684
1449.472, 332.752
1450.657, 229.809
1451.842, 574.869
1453.027, 185.953
1454.212, 315.049
1455.397, 497.170
1456.581, 182.328
1457.766, 305.510
1458.950, 317.727
1460.134, 185.104
1461.318, 488.525
1462.501, 202.988
1463.685, 188.541
1464.868, 424.107
1466.051, 131.711
1467.234, 374.385
1468.417, 173.164
1469.600, 178.969
1470.782, 299.795
1471.965, 242.648
1473.147, 246.051
1474.329, 182.500
1475.510, 186.484
1476.692, 82.500
1477.873, 86.551
1479.055, 194.641
1480.236, 180.770
1481.416, 328.945
1482.597, 81.170
1483.778, 197.445
1484.958, 66.779
1486.138, 132.178
1487.318, 26.354
1488.498, 203.193
1489.678, 135.826
1490.857, 99.553
1492.037, 10.371
1493.216, 166.285
1494.395, 138.291
1495.574, 10.395
1496.752, 288.594
1497.931, 117.891
1499.109, 96.297
1500.287, 3.188
1501.465, 31.449
1502.643, 10.783
1503.820, 88.127
1504.998, 66.191
1506.175, 154.275
1507.352, 134.707
1508.529, 43.719
1509.706, 101.010
1510.882, 149.641
1512.059, 53.428
1513.235, 19.445
1514.411, 98.078
1515.587, 1.973
1516.762, 180.666
1517.938, 110.301
1519.113, 105.865
1520.288, 57.680
1521.463, 137.361
1522.638, 0.098
1523.813, 0.000
##END=



