##NAMES=Whewellite
##RRUFFID=R050240
##IDEAL CHEMISTRY=Ca(C_2_)^6+^O_4_&#183;H_2_O
##LOCALITY=Huron River, Milan, Ohio, USA
##OWNER=RRUFF
##SOURCE=Marcus Origlieri
##DESCRIPTION=White fragment
##STATUS=The identification of this mineral has been confirmed by X-ray diffraction and chemical analysis
##URL=rruff.info/R050240
##MEASURED CHEMISTRY=Ca_1.00_C_2_O_4_Â·H_2_O
##PIN_ID=L01973
##ORIENTATION=Laser parallel to b* (0 1 0). Fiducial mark perpendicular to laser is parallel to -c [0 0 -1]
100.8830, 0.0000000E+00
102.1160, 152.3711
103.3490, 14.75684
104.5820, 3.602539
105.8150, 197.3457
107.0470, 403.6895
108.2800, 378.0547
109.5120, 284.3701
110.7440, 269.4375
111.9760, 396.6104
113.2080, 639.6064
114.4400, 871.4082
115.6710, 1015.209
116.9030, 1495.377
118.1340, 1699.408
119.3650, 1884.891
120.5960, 2513.449
121.8270, 2942.750
123.0580, 3572.498
124.2880, 4097.435
125.5190, 4794.338
126.7490, 5497.016
127.9790, 6161.304
129.2090, 6979.086
130.4390, 7626.289
131.6680, 8042.848
132.8980, 8463.688
134.1270, 8743.749
135.3560, 8457.968
136.5850, 8437.258
137.8140, 8246.511
139.0430, 8127.617
140.2710, 7849.479
141.5000, 7601.670
142.7280, 7309.171
143.9560, 6905.886
145.1840, 6370.121
146.4120, 5793.834
147.6390, 5212.995
148.8670, 4438.570
150.0940, 3705.533
151.3210, 3345.860
152.5490, 2546.527
153.7750, 2448.516
155.0020, 1875.924
156.2290, 1643.748
157.4550, 1457.155
158.6810, 1148.206
159.9080, 967.9082
161.1340, 766.1309
162.3590, 698.7188
163.5850, 684.7881
164.8110, 445.4180
166.0360, 463.5059
167.2610, 435.1133
168.4860, 388.0225
169.7110, 566.2676
170.9360, 451.6338
172.1610, 704.9814
173.3850, 684.2705
174.6100, 968.4727
175.8340, 1115.503
177.0580, 1268.356
178.2820, 1566.072
179.5050, 1783.713
180.7290, 2002.287
181.9520, 2231.815
183.1760, 2615.316
184.3990, 2902.818
185.6220, 3432.330
186.8450, 3751.842
188.0670, 4312.360
189.2900, 4928.891
190.5120, 5511.465
191.7340, 5871.057
192.9560, 6556.668
194.1780, 7182.305
195.4000, 8011.963
196.6220, 8997.646
197.8430, 9809.354
199.0640, 11368.09
200.2860, 12348.85
201.5070, 13662.63
202.7270, 14587.44
203.9480, 15318.27
205.1690, 15776.12
206.3890, 15584.06
207.6090, 14791.37
208.8290, 14246.30
210.0490, 12996.20
211.2690, 12167.59
212.4890, 11085.46
213.7080, 9956.152
214.9280, 9217.457
216.1470, 8664.504
217.3660, 8176.611
218.5850, 7767.825
219.8030, 7313.297
221.0220, 6821.986
222.2400, 6302.648
223.4590, 5751.764
224.6770, 5103.266
225.8950, 4384.830
227.1120, 3572.879
228.3300, 3117.028
229.5480, 2631.518
230.7650, 2509.391
231.9820, 2119.225
233.1990, 1943.998
234.4160, 1947.370
235.6330, 1994.224
236.8490, 1992.630
238.0660, 2042.595
239.2820, 2184.999
240.4980, 2157.591
241.7140, 2249.495
242.9300, 2425.670
244.1460, 2664.482
245.3610, 2533.279
246.5770, 2864.689
247.7920, 2830.578
249.0070, 2781.767
250.2220, 2736.760
251.4370, 2456.422
252.6510, 2093.271
253.8660, 1884.652
255.0800, 1763.494
256.2940, 1745.229
257.5080, 1461.826
258.7220, 1315.973
259.9360, 1225.164
261.1490, 1135.607
262.3630, 1050.924
263.5760, 1034.803
264.7890, 991.8691
266.0020, 1039.105
267.2150, 1031.053
268.4270, 1075.586
269.6400, 1222.250
270.8520, 1062.046
272.0640, 962.9375
273.2760, 970.9707
274.4880, 1082.057
275.7000, 1030.227
276.9120, 1136.935
278.1230, 1054.628
279.3340, 958.0117
280.5450, 1076.455
281.7560, 1083.952
282.9670, 1000.496
284.1780, 969.0840
285.3880, 984.7891
286.5980, 744.4492
287.8090, 635.1396
289.0190, 588.8604
290.2290, 628.6055
291.4380, 672.3730
292.6480, 595.1621
293.8570, 496.9658
295.0670, 530.7871
296.2760, 550.6230
297.4850, 629.4688
298.6930, 481.3252
299.9020, 560.1895
301.1110, 396.0586
302.3190, 407.9316
303.5270, 320.8057
304.7350, 271.6768
305.9430, 262.5410
307.1510, 192.3975
308.3580, 132.2432
309.5660, 124.0771
310.7730, 1.107422
311.9800, 5.969727
313.1870, 54.53320
314.3940, 34.78613
315.6010, 44.61914
316.8070, 31.68359
318.0130, 42.72754
319.2200, 2.896484
320.4260, 13.50488
321.6310, 27.93164
322.8370, 120.3867
324.0430, 132.8926
325.2480, 31.54980
326.4540, 21.03125
327.6590, 134.6396
328.8640, 14.30371
330.0680, 81.99316
331.2730, 30.72559
332.4780, 141.4883
333.6820, 45.31152
334.8860, 87.17188
336.0900, 56.07812
337.2940, 35.02539
338.4980, 124.0078
339.7010, 41.95020
340.9050, 46.11328
342.1080, 78.78320
343.3110, 7.653320
344.5140, 47.50488
345.7170, 131.7061
346.9200, 15.97266
348.1220, 41.27441
349.3240, 27.37891
350.5270, 142.9883
351.7290, 85.42871
352.9310, 33.94141
354.1320, 64.48633
355.3340, 75.12988
356.5350, 26.80664
357.7370, 52.56934
358.9380, 79.42285
360.1390, 35.61621
361.3400, 100.4053
362.5400, 125.5479
363.7410, 42.80762
364.9410, 33.84863
366.1410, 14.57031
367.3410, 37.04102
368.5410, 119.4141
369.7410, 53.21680
370.9400, 103.9248
372.1400, 116.2129
373.3390, 123.3057
374.5380, 34.67871
375.7370, 37.22656
376.9360, 158.0527
378.1350, 0.7812500
379.3330, 96.44531
380.5310, 96.06250
381.7300, 143.5820
382.9280, 84.07910
384.1260, 183.5195
385.3230, 183.9219
386.5210, 209.3037
387.7180, 122.6758
388.9160, 155.0303
390.1130, 82.37402
391.3100, 83.69043
392.5060, 5.996094
393.7030, 119.2803
394.9000, 60.56445
396.0960, 178.8320
397.2920, 155.0947
398.4880, 163.3516
399.6840, 65.59570
400.8800, 188.8135
402.0750, 120.0176
403.2710, 207.2021
404.4660, 221.2900
405.6610, 103.5195
406.8560, 262.6426
408.0510, 188.7441
409.2450, 211.8252
410.4400, 48.92285
411.6340, 177.9756
412.8280, 318.0039
414.0220, 167.0068
415.2160, 266.9854
416.4100, 164.9375
417.6030, 210.8633
418.7970, 379.7617
419.9900, 132.6338
421.1830, 93.47461
422.3760, 265.2734
423.5690, 266.0430
424.7610, 295.7842
425.9540, 245.4941
427.1460, 254.1738
428.3380, 175.8232
429.5300, 243.4395
430.7220, 352.0254
431.9140, 255.5781
433.1050, 293.0996
434.2970, 305.5898
435.4880, 396.0469
436.6790, 322.4727
437.8700, 357.8643
439.0610, 327.2236
440.2510, 371.5508
441.4420, 360.0566
442.6320, 295.1104
443.8220, 392.3438
445.0120, 360.5439
446.2020, 457.7129
447.3910, 653.8467
448.5810, 511.9473
449.7700, 594.0156
450.9600, 556.0488
452.1490, 540.0488
453.3370, 678.0146
454.5260, 500.9043
455.7150, 577.6895
456.9030, 644.9463
458.0910, 768.9033
459.2800, 889.4043
460.4670, 787.3252
461.6550, 970.7236
462.8430, 940.4473
464.0300, 1006.778
465.2180, 1040.536
466.4050, 1050.214
467.5920, 1302.928
468.7790, 1188.528
469.9650, 1499.252
471.1520, 1683.371
472.3380, 1841.232
473.5250, 1928.339
474.7110, 2125.235
475.8970, 2362.269
477.0820, 2563.111
478.2680, 2729.221
479.4540, 3275.115
480.6390, 3782.118
481.8240, 4271.426
483.0090, 5002.258
484.1940, 5711.135
485.3780, 6690.370
486.5630, 8015.127
487.7470, 9509.450
488.9320, 11760.64
490.1160, 14335.86
491.3000, 17251.12
492.4830, 21041.33
493.6670, 25439.98
494.8500, 29766.02
496.0340, 34428.34
497.2170, 38941.50
498.4000, 43078.98
499.5820, 45847.34
500.7650, 46860.75
501.9480, 46009.76
503.1300, 42955.37
504.3120, 38546.77
505.4940, 33037.12
506.6760, 27539.62
507.8580, 22433.38
509.0390, 17706.46
510.2210, 14454.89
511.4020, 11461.55
512.5830, 9377.756
513.7640, 7545.679
514.9450, 6438.293
516.1250, 5653.904
517.3060, 4698.926
518.4860, 4123.031
519.6660, 3843.569
520.8460, 3393.538
522.0260, 3219.025
523.2060, 2861.460
524.3850, 2344.926
525.5650, 2123.035
526.7440, 1795.522
527.9230, 1672.936
529.1020, 1581.517
530.2810, 1229.420
531.4590, 1214.976
532.6380, 1157.752
533.8160, 1084.634
534.9940, 680.3262
536.1720, 802.6230
537.3500, 626.7158
538.5270, 693.2754
539.7050, 645.5869
540.8820, 459.0771
542.0590, 398.8623
543.2360, 268.1240
544.4130, 520.1436
545.5900, 362.5381
546.7660, 454.0664
547.9430, 442.6475
549.1190, 373.8809
550.2950, 300.2402
551.4710, 394.8232
552.6470, 442.7461
553.8220, 482.1016
554.9980, 250.3408
556.1730, 368.7383
557.3480, 369.0264
558.5230, 171.3438
559.6980, 308.7979
560.8730, 271.8701
562.0470, 355.9688
563.2220, 295.6299
564.3960, 292.0010
565.5700, 199.0029
566.7440, 330.9893
567.9170, 248.6592
569.0910, 348.9131
570.2640, 201.7705
571.4380, 236.6924
572.6110, 235.5996
573.7840, 289.4902
574.9570, 294.4756
576.1290, 498.2256
577.3020, 362.0703
578.4740, 537.9014
579.6460, 669.7158
580.8180, 635.5156
581.9900, 831.6006
583.1620, 785.6816
584.3330, 902.1348
585.5040, 1092.041
586.6760, 1128.883
587.8470, 1234.611
589.0180, 1417.311
590.1880, 1459.997
591.3590, 1412.669
592.5290, 1426.342
593.7000, 1298.985
594.8700, 1475.301
596.0400, 1468.945
597.2090, 1266.486
598.3790, 1368.006
599.5490, 1086.600
600.7180, 904.3457
601.8870, 833.9229
603.0560, 626.0264
604.2250, 646.6504
605.3940, 415.8213
606.5620, 453.4150
607.7300, 494.9727
608.8990, 425.8232
610.0670, 307.3574
611.2350, 368.3359
612.4020, 187.2822
613.5700, 238.3535
614.7370, 103.9287
615.9050, 163.4990
617.0720, 84.09375
618.2390, 179.6885
619.4060, 92.29590
620.5720, 235.9072
621.7390, 142.5166
622.9050, 3.272461
624.0710, 261.8887
625.2370, 157.5098
626.4030, 123.4258
627.5690, 100.0254
628.7340, 19.63184
629.9000, 29.26465
631.0650, 117.8945
632.2300, 14.46875
633.3950, 65.14551
634.5600, 114.7930
635.7240, 38.46094
636.8890, 33.13379
638.0530, 30.79297
639.2170, 33.47070
640.3810, 168.1533
641.5450, 5.849609
642.7080, 13.56250
643.8720, 7.266602
645.0350, 157.9941
646.1980, 56.75684
647.3610, 118.5322
648.5240, 29.69629
649.6870, 250.0635
650.8490, 162.8398
652.0120, 166.6025
653.1740, 100.3838
654.3360, 92.59961
655.4980, 80.17285
656.6600, 79.07617
657.8210, 72.11719
658.9830, 133.9619
660.1440, 156.7568
661.3050, 223.5605
662.4660, 187.3525
663.6270, 200.1934
664.7870, 105.9668
665.9480, 69.82422
667.1080, 142.5781
668.2680, 41.89258
669.4280, 12.82227
670.5880, 22.48340
671.7480, 112.3564
672.9070, 64.42383
674.0670, 123.0703
675.2260, 108.7295
676.3850, 44.97559
677.5440, 41.66504
678.7030, 140.2988
679.8610, 49.92090
681.0200, 313.6426
682.1780, 188.3701
683.3360, 223.6777
684.4940, 63.51465
685.6520, 37.29004
686.8090, 203.9395
687.9670, 125.2441
689.1240, 72.91699
690.2810, 130.6494
691.4380, 41.79590
692.5950, 63.24121
693.7520, 86.67480
694.9080, 43.09766
696.0650, 66.78125
697.2210, 45.91016
698.3770, 31.29688
699.5330, 105.6699
700.6880, 20.03516
701.8440, 146.3848
702.9990, 32.73242
704.1550, 195.0703
705.3100, 174.3965
706.4650, 167.7109
707.6190, 134.0195
708.7740, 163.3184
709.9290, 237.6113
711.0830, 254.8926
712.2370, 351.1641
713.3910, 108.4297
714.5450, 210.6836
715.6980, 153.9316
716.8520, 287.1680
718.0050, 114.3984
719.1580, 141.6328
720.3110, 35.86133
721.4640, 34.49023
722.6170, 8.289063
723.7700, 63.48242
724.9220, 75.66797
726.0740, 98.83984
727.2260, 117.0059
728.3780, 169.1641
729.5300, 164.3164
730.6810, 98.46484
731.8330, 249.5996
732.9840, 9.271484
734.1350, 94.83398
735.2860, 77.06836
736.4370, 29.03125
737.5880, 102.9727
738.7380, 61.96875
739.8880, 150.9551
741.0390, 190.9336
742.1890, 9.906250
743.3380, 8.861328
744.4880, 0.3144530
745.6380, 121.7305
746.7870, 3.353516
747.9360, 30.45703
749.0850, 69.59570
750.2340, 21.21289
751.3830, 86.99023
752.5310, 135.7402
753.6800, 271.4648
754.8280, 119.1797
755.9760, 217.8750
757.1240, 165.5762
758.2720, 143.2695
759.4190, 166.4258
760.5670, 63.62891
761.7140, 103.7617
762.8610, 154.4219
764.0080, 23.07422
765.1550, 130.7148
766.3020, 162.3457
767.4480, 298.6641
768.5950, 201.0547
769.7410, 289.6641
770.8870, 319.0117
772.0330, 402.5332
773.1780, 168.1191
774.3240, 252.5117
775.4690, 190.8789
776.6140, 411.2285
777.7590, 344.5820
778.9040, 293.1270
780.0490, 472.2520
781.1940, 396.4551
782.3380, 356.5840
783.4820, 155.0957
784.6260, 161.5039
785.7700, 102.9980
786.9140, 227.3633
788.0580, 77.84180
789.2010, 160.3125
790.3450, 96.77734
791.4880, 58.76758
792.6310, 76.63867
793.7730, 124.0215
794.9160, 48.40430
796.0590, 65.74414
797.2010, 87.12695
798.3430, 73.65039
799.4850, 217.8652
800.6270, 59.22461
801.7690, 146.5723
802.9100, 49.91406
804.0520, 207.1895
805.1930, 82.48633
806.3340, 103.3809
807.4750, 96.34570
808.6160, 11.60156
809.7560, 0.5722660
810.8970, 97.59766
812.0370, 92.75195
813.1770, 19.10352
814.3170, 50.80078
815.4570, 197.6875
816.5960, 158.7949
817.7360, 32.70117
818.8750, 29.79492
820.0140, 38.11914
821.1530, 15.06445
822.2920, 46.35938
823.4310, 35.53320
824.5690, 87.47070
825.7070, 24.46484
826.8460, 10.75000
827.9840, 230.7871
829.1220, 80.40625
830.2590, 141.1367
831.3970, 66.96289
832.5340, 39.59180
833.6710, 142.3242
834.8080, 134.9648
835.9450, 159.5137
837.0820, 105.4258
838.2190, 235.8281
839.3550, 297.7500
840.4910, 133.3203
841.6270, 71.23438
842.7630, 253.1445
843.8990, 267.0508
845.0350, 370.1270
846.1700, 453.0215
847.3060, 202.9121
848.4410, 560.8008
849.5760, 440.8242
850.7100, 413.7012
851.8450, 695.5762
852.9800, 761.4473
854.1140, 868.3125
855.2480, 1149.896
856.3820, 1431.756
857.5160, 1829.971
858.6500, 2439.512
859.7830, 3108.662
860.9170, 3680.344
862.0500, 3700.068
863.1830, 3784.891
864.3160, 3832.725
865.4480, 3494.570
866.5810, 2958.398
867.7130, 2674.209
868.8460, 2267.031
869.9780, 1755.164
871.1100, 1366.955
872.2410, 1593.832
873.3730, 1365.727
874.5050, 1402.535
875.6360, 1652.184
876.7670, 1886.986
877.8980, 1886.789
879.0290, 2220.994
880.1590, 2597.174
881.2900, 2726.920
882.4200, 3169.715
883.5500, 3813.234
884.6800, 4379.057
885.8100, 5643.436
886.9400, 7157.869
888.0690, 9974.172
889.1990, 13307.47
890.3280, 17715.79
891.4570, 22142.59
892.5860, 27837.40
893.7140, 33622.21
894.8430, 35622.02
895.9710, 31496.83
897.1000, 24588.53
898.2280, 17266.35
899.3560, 10687.17
900.4830, 6403.686
901.6110, 3886.508
902.7380, 2479.332
903.8660, 1652.176
904.9930, 1471.021
906.1200, 1124.869
907.2460, 805.7246
908.3730, 990.5801
909.5000, 881.4375
910.6260, 1057.299
911.7520, 818.1582
912.8780, 906.0234
914.0040, 993.8887
915.1290, 1145.756
916.2550, 1070.629
917.3800, 1114.504
918.5050, 1047.395
919.6300, 977.2871
920.7550, 1111.182
921.8800, 1107.078
923.0040, 1187.988
924.1290, 1046.896
925.2530, 1373.807
926.3770, 1169.723
927.5010, 1188.236
928.6250, 1424.158
929.7480, 1449.045
930.8720, 1333.885
931.9950, 1247.799
933.1180, 1389.756
934.2410, 1535.713
935.3640, 1579.672
936.4860, 1531.578
937.6090, 1524.543
938.7310, 1707.422
939.8530, 1589.395
940.9750, 1687.588
942.0970, 1553.574
943.2180, 1482.574
944.3400, 1407.406
945.4610, 1391.016
946.5820, 1391.035
947.7030, 1089.062
948.8240, 1235.492
949.9450, 935.5000
951.0650, 1050.562
952.1860, 925.6250
953.3060, 743.5820
954.4260, 752.5332
955.5460, 489.9004
956.6650, 499.7363
957.7850, 609.6250
958.9040, 692.6328
960.0230, 578.9863
961.1420, 381.9688
962.2610, 336.1816
963.3800, 364.3398
964.4990, 474.4902
965.6170, 208.7051
966.7350, 109.9258
967.8530, 3.148438
968.9710, 377.3828
970.0890, 431.3496
971.2070, 269.5977
972.3240, 131.8496
973.4410, 185.4473
974.5580, 184.7109
975.6750, 78.98047
976.7920, 146.2539
977.9090, 212.5352
979.0250, 12.18164
980.1410, 253.1055
981.2580, 101.3965
982.3740, 276.6953
983.4890, 10.00391
984.6050, 148.3027
985.7200, 207.6152
986.8360, 224.9336
987.9510, 187.2539
989.0660, 96.41797
990.1810, 166.8809
991.2950, 30.81641
992.4100, 103.5312
993.5240, 285.9316
994.6390, 7.343750
995.7530, 303.7617
996.8660, 195.1875
997.9800, 98.61719
999.0940, 40.94727
1000.207, 224.5859
1001.320, 156.0215
1002.433, 145.4609
1003.546, 126.9062
1004.659, 137.3633
1005.772, 235.8262
1006.884, 130.3184
1007.996, 167.8320
1009.108, 224.3477
1010.220, 76.87109
1011.332, 114.3984
1012.444, 78.92969
1013.555, 175.4707
1014.666, 238.0527
1015.777, 120.7051
1016.888, 121.2676
1017.999, 225.8418
1019.110, 429.9824
1020.220, 145.6035
1021.331, 295.3965
1022.441, 425.0547
1023.551, 276.7559
1024.661, 274.4570
1025.770, 361.1875
1026.880, 241.9219
1027.989, 299.6641
1029.098, 160.4102
1030.207, 354.1504
1031.316, 223.9062
1032.425, 302.6699
1033.533, 156.4336
1034.642, 315.2051
1035.750, 200.9785
1036.858, 287.8750
1037.966, 449.6582
1039.073, 322.4453
1040.181, 360.4297
1041.288, 173.2246
1042.396, 238.0234
1043.503, 201.8262
1044.610, 304.6328
1045.716, 160.4746
1046.823, 184.3223
1047.929, 94.21484
1049.036, 187.1055
1050.142, 4.228516
1051.248, 39.92773
1052.353, 33.82617
1053.459, 129.7285
1054.564, 129.6328
1055.670, 204.5391
1056.775, 209.3516
1057.880, 182.3633
1058.985, 171.2773
1060.089, 156.1973
1061.194, 49.13477
1062.298, 51.92578
1063.402, 1.000000
1064.506, 155.9473
1065.610, 238.8750
1066.713, 120.8047
1067.817, 40.73828
1068.920, 4.671875
1070.023, 41.65039
1071.126, 97.58789
1072.229, 395.5273
1073.332, 165.4688
1074.435, 262.6504
1075.537, 53.65039
1076.639, 204.6523
1077.741, 292.6582
1078.843, 235.6719
1079.945, 512.6836
1081.046, 850.6973
1082.148, 1196.297
1083.249, 1669.326
1084.350, 1912.354
1085.451, 2552.383
1086.551, 2414.412
1087.652, 2046.441
1088.752, 1559.721
1089.853, 798.7734
1090.953, 554.8418
1092.053, 245.9102
1093.152, 87.33594
1094.252, 227.6250
1095.351, 127.7227
1096.451, 51.44531
1097.550, 242.6230
1098.649, 135.6934
1099.748, 153.7617
1100.846, 45.82422
1101.945, 110.1133
1103.043, 47.89258
1104.141, 290.8965
1105.239, 71.10352
1106.337, 220.8574
1107.434, 166.8164
1108.532, 49.77539
1109.629, 163.7305
1110.726, 136.6875
1111.823, 179.5527
1112.920, 75.50586
1114.017, 48.45508
1115.113, 192.4082
1116.210, 108.5547
1117.306, 331.5156
1118.402, 90.47461
1119.498, 283.4297
1120.593, 281.6289
1121.689, 331.8574
1122.784, 348.8086
1123.879, 264.4277
1124.974, 334.4746
1126.069, 156.0898
1127.164, 267.0254
1128.259, 108.9570
1129.353, 157.8828
1130.447, 178.8047
1131.541, 22.70703
1132.635, 111.6191
1133.729, 52.52734
1134.822, 181.5117
1135.916, 232.4121
1137.009, 96.30859
1138.102, 164.1992
1139.195, 66.08594
1140.288, 251.9648
1141.380, 266.9297
1142.473, 237.8027
1143.565, 115.6680
1144.657, 96.53125
1145.749, 49.38672
1146.841, 35.23633
1147.932, 100.0801
1149.024, 197.9180
1150.115, 25.24805
1151.206, 104.5547
1152.297, 2.646484
1153.388, 118.2754
1154.479, 56.30078
1155.569, 240.3652
1156.659, 95.84180
1157.750, 212.5977
1158.839, 126.0449
1159.929, 280.7852
1161.019, 8.480469
1162.108, 82.22656
1163.198, 134.0273
1164.287, 197.7207
1165.376, 240.6211
1166.465, 279.2988
1167.553, 41.03125
1168.642, 270.8652
1169.730, 120.4863
1170.818, 38.35547
1171.906, 159.9590
1172.994, 162.6504
1174.082, 214.3848
1175.170, 255.0273
1176.257, 211.6387
1177.344, 226.7617
1178.431, 101.0215
1179.518, 135.5684
1180.605, 49.10742
1181.691, 10.36719
1182.778, 113.1250
1183.864, 200.6074
1184.950, 194.2305
1186.036, 366.6953
1187.122, 304.4805
1188.207, 166.5938
1189.292, 188.0312
1190.378, 282.4590
1191.463, 132.8789
1192.548, 365.2891
1193.632, 219.7266
1194.717, 60.91406
1195.801, 340.4160
1196.886, 251.7383
1197.970, 168.0488
1199.054, 184.3516
1200.137, 100.6445
1201.221, 341.9277
1202.305, 387.2012
1203.388, 267.4668
1204.471, 60.72070
1205.554, 268.9648
1206.637, 227.1973
1207.719, 274.4219
1208.802, 124.6348
1209.884, 218.8398
1210.966, 150.0332
1212.048, 35.85352
1213.130, 144.2812
1214.212, 412.4043
1215.293, 146.5176
1216.374, 147.6191
1217.456, 191.7109
1218.536, 59.79688
1219.617, 188.7070
1220.698, 280.7656
1221.778, 377.9199
1222.859, 49.95898
1223.939, 70.98047
1225.019, 135.9922
1226.099, 133.0078
1227.178, 328.9531
1228.258, 140.8398
1229.337, 192.7188
1230.417, 313.5859
1231.496, 125.4414
1232.574, 457.6094
1233.653, 387.4453
1234.732, 259.2695
1235.810, 282.7461
1236.888, 179.6387
1237.966, 207.4336
1239.044, 324.6914
1240.122, 114.4668
1241.199, 86.23047
1242.277, 169.9863
1243.354, 237.7324
1244.431, 366.6680
1245.508, 39.39453
1246.585, 186.7188
1247.661, 191.4180
1248.738, 309.1113
1249.814, 51.79297
1250.890, 200.4629
1251.966, 178.1387
1253.042, 132.1973
1254.117, 144.6230
1255.193, 27.83984
1256.268, 148.2910
1257.343, 344.7305
1258.418, 295.1602
1259.493, 115.5781
1260.567, 246.9883
1261.642, 272.2871
1262.716, 109.6816
1263.790, 89.06836
1264.864, 150.4414
1265.938, 286.8047
1267.011, 236.9609
1268.085, 287.5078
1269.158, 241.8438
1270.231, 86.16992
1271.304, 124.4883
1272.377, 135.7949
1273.450, 240.0918
1274.522, 187.3809
1275.594, 209.6289
1276.666, 212.5234
1277.738, 203.0645
1278.810, 193.3184
1279.882, 159.8125
1280.953, 197.2480
1282.025, 67.30859
1283.096, 6.525391
1284.167, 74.30859
1285.238, 65.24609
1286.308, 222.8965
1287.379, 16.96484
1288.449, 166.0195
1289.519, 251.0684
1290.589, 100.1191
1291.659, 72.15039
1292.729, 151.1758
1293.798, 43.19531
1294.868, 218.2031
1295.937, 214.2031
1297.006, 26.08008
1298.075, 143.0664
1299.143, 27.04883
1300.212, 173.8320
1301.280, 64.79883
1302.348, 52.76172
1303.416, 71.71680
1304.484, 102.3340
1305.552, 189.5449
1306.620, 120.5840
1307.687, 284.2012
1308.754, 166.9883
1309.821, 91.54297
1310.888, 226.5156
1311.955, 183.2910
1313.021, 44.05859
1314.088, 220.8242
1315.154, 251.5879
1316.220, 147.3477
1317.286, 363.1035
1318.352, 189.8672
1319.417, 198.6270
1320.483, 135.3828
1321.548, 436.1289
1322.613, 315.8750
1323.678, 224.5957
1324.743, 206.3301
1325.807, 132.0566
1326.872, 376.7754
1327.936, 329.4902
1329.000, 372.1582
1330.064, 102.8574
1331.128, 134.5469
1332.191, 263.2305
1333.255, 240.6934
1334.318, 345.3594
1335.381, 255.0195
1336.444, 125.6699
1337.507, 428.3164
1338.569, 200.9570
1339.632, 10.40820
1340.694, 94.64062
1341.756, 406.2598
1342.818, 76.87500
1343.880, 209.4805
1344.941, 163.0801
1346.003, 277.6758
1347.064, 12.97656
1348.125, 151.5801
1349.186, 25.13477
1350.247, 51.68359
1351.308, 87.89258
1352.368, 140.2363
1353.428, 169.7715
1354.489, 48.57227
1355.549, 245.1152
1356.608, 59.65625
1357.668, 269.1914
1358.727, 139.7285
1359.787, 21.26172
1360.846, 110.8203
1361.905, 76.37695
1362.964, 199.9316
1364.022, 9.503906
1365.081, 178.0742
1366.139, 12.35742
1367.197, 97.20508
1368.255, 138.7695
1369.313, 135.2422
1370.371, 199.8066
1371.428, 30.63477
1372.486, 169.9199
1373.543, 54.85938
1374.600, 342.6816
1375.657, 119.2246
1376.713, 138.7656
1377.770, 274.0625
1378.826, 147.6074
1379.882, 103.1523
1380.938, 216.3672
1381.994, 233.8086
1383.050, 342.6816
1384.106, 309.3438
1385.161, 416.7871
1386.216, 203.3457
1387.271, 361.9043
1388.326, 282.4668
1389.381, 498.0312
1390.435, 402.6016
1391.490, 412.0938
1392.544, 183.6699
1393.598, 456.2520
1394.652, 615.8379
1395.705, 545.4297
1396.759, 338.0254
1397.812, 539.5410
1398.866, 324.1504
1399.919, 329.7656
1400.972, 553.3887
1402.024, 278.0176
1403.077, 331.6562
1404.129, 387.3047
1405.181, 482.9590
1406.233, 214.6270
1407.285, 376.3125
1408.337, 262.0098
1409.389, 166.5820
1410.440, 466.0547
1411.491, 287.4941
1412.542, 572.5293
1413.593, 359.2910
1414.644, 430.1836
1415.695, 369.9727
1416.745, 455.7793
1417.795, 323.6094
1418.845, 402.3574
1419.895, 314.2246
1420.945, 307.9824
1421.995, 320.8848
1423.044, 619.9297
1424.093, 454.7246
1425.142, 483.3750
1426.191, 448.1543
1427.240, 384.1855
1428.289, 378.2324
1429.337, 549.1719
1430.385, 758.2246
1431.433, 542.7422
1432.481, 632.8906
1433.529, 661.3633
1434.577, 539.5742
1435.624, 592.8145
1436.672, 667.2285
1437.719, 695.5156
1438.766, 730.8340
1439.812, 568.0410
1440.859, 958.0176
1441.905, 777.4609
1442.952, 1127.936
1443.998, 1119.518
1445.044, 1446.070
1446.090, 1230.150
1447.135, 1569.895
1448.181, 1271.477
1449.226, 1767.105
1450.271, 2104.734
1451.316, 2144.363
1452.361, 2325.988
1453.405, 2652.615
1454.450, 3622.244
1455.494, 4839.867
1456.538, 6628.488
1457.582, 9216.148
1458.626, 12588.81
1459.670, 15623.47
1460.713, 17671.20
1461.757, 17639.74
1462.800, 15178.40
1463.843, 11973.12
1464.886, 9089.900
1465.928, 6531.680
1466.971, 5372.406
1468.013, 4390.195
1469.055, 3823.881
1470.097, 3648.102
1471.139, 3819.896
1472.181, 3766.191
1473.222, 3902.680
1474.263, 4143.445
1475.305, 4283.215
1476.346, 4805.986
1477.386, 5370.945
1478.427, 6155.980
1479.468, 7437.031
1480.508, 8565.088
1481.548, 10256.16
1482.588, 11844.24
1483.628, 14255.33
1484.668, 16845.43
1485.707, 19155.55
1486.747, 20932.67
1487.786, 22025.80
1488.825, 21316.95
1489.864, 19383.11
1490.902, 17025.27
1491.941, 13855.51
1492.979, 10963.88
1494.017, 8499.270
1495.055, 6434.668
1496.093, 4887.078
1497.131, 4074.506
1498.168, 2804.939
1499.206, 2389.379
1500.243, 2148.828
1501.280, 1559.285
1502.317, 1641.867
1503.354, 1172.592
1504.390, 1062.324
1505.426, 697.0645
1506.463, 905.8105
1507.499, 958.5547
1508.535, 729.2617
1509.570, 709.9922
1510.606, 370.7617
1511.641, 453.5703
1512.676, 486.4160
1513.711, 234.3047
1514.746, 369.2578
1515.781, 472.2578
1516.816, 211.3242
1517.850, 314.4434
1518.884, 182.6094
1519.918, 258.8281
1520.952, 255.7734
1521.986, 313.4824
1523.019, 277.0078
1524.053, 276.6055
1525.086, 280.2734
1526.119, 349.0117
1527.152, 190.8184
1528.185, 246.6992
1529.217, 227.6562
1530.250, 133.7012
1531.282, 88.83398
1532.314, 40.05664
1533.346, 4.365234
1534.377, 122.7754
1535.409, 339.2871
1536.440, 116.9082
1537.472, 230.6387
1538.503, 34.51562
1539.534, 64.44922
1540.564, 28.55273
1541.595, 102.8027
1542.625, 111.2090
1543.656, 126.7832
1544.686, 7.531250
1545.716, 82.46484
1546.745, 8.595703
1547.775, 16.92969
1548.804, 20.51953
1549.834, 43.25977
1550.863, 164.2871
1551.892, 40.58398
1552.920, 100.1680
1553.949, 248.0684
1554.977, 128.0039
1556.006, 171.1895
1557.034, 198.7227
1558.062, 272.7578
1559.089, 123.7461
1560.117, 62.54102
1561.144, 207.1758
1562.172, 128.1699
1563.199, 271.7246
1564.226, 28.88281
1565.252, 206.3750
1566.279, 254.5879
1567.305, 3.310547
1568.332, 167.5078
1569.358, 39.72852
1570.384, 0.0000000E+00
##END=



