##NAMES=Whitlockite
##RRUFFID=R070675
##IDEAL CHEMISTRY=Ca_9_Mg(PO_4_)_6_(PO_3_OH)
##LOCALITY=Palermo mine, North Groton, New Hampshire, USA
##OWNER=RRUFF
##SOURCE=Rock Currier
##DESCRIPTION=Colorless blocky modified rhombic crystals
##STATUS=The identification of this mineral is confirmed by single-crystal X-ray diffraction and chemical analysis.
##URL=rruff.info/R070675
##MEASURED CHEMISTRY=(Ca_8.70_Na_0.27_Sr_0.02_Mn_0.01_)_Σ=9_(Mg_0.73_Fe^3+^_0.19_Al_0.08_)_Σ=1_(P_1.00_O_4_)_6_(P_1.00_O_3_((OH)_0.58_F_0.42_)_Σ=1_); OH estimated by charge balance
##PIN_ID=M00691
##ORIENTATION=Laser parallel to a* (1 0 0). Fiducial mark perpendicular to laser is parallel to c [0 0 1]
132.3880, 0.0000000E+00
133.6270, 131.9001
134.8650, 179.9104
136.1040, 273.1746
137.3420, 309.6089
138.5800, 288.3044
139.8180, 273.1477
141.0560, 283.2454
142.2940, 249.1738
143.5310, 327.9121
144.7680, 333.0049
146.0050, 330.5369
147.2420, 430.2595
148.4790, 431.9592
149.7150, 438.5593
150.9510, 526.1475
152.1870, 553.7891
153.4230, 568.3679
154.6590, 507.2804
155.8940, 551.0964
157.1300, 455.8796
158.3650, 381.7964
159.6000, 391.4818
160.8340, 321.4263
162.0690, 235.1794
163.3030, 202.5610
164.5370, 111.8319
165.7710, 144.5862
167.0050, 96.58228
168.2380, 37.11292
169.4720, 33.91479
170.7050, 12.36768
171.9380, 20.19836
173.1700, 23.60400
174.4030, 8.095581
175.6350, 24.16125
176.8680, 20.71045
178.1000, 28.24780
179.3310, 46.74341
180.5630, 34.79004
181.7940, 16.37183
183.0260, 10.62207
184.2570, 41.55200
185.4870, 124.2931
186.7180, 113.1664
187.9480, 140.2749
189.1790, 158.2863
190.4090, 187.3466
191.6390, 205.4425
192.8680, 164.6747
194.0980, 193.0179
195.3270, 167.3920
196.5560, 191.7378
197.7850, 170.0460
199.0140, 158.3137
200.2420, 207.5433
201.4710, 163.7366
202.6990, 185.8953
203.9270, 144.0208
205.1550, 144.1146
206.3820, 102.2058
207.6090, 87.37976
208.8370, 153.6327
210.0640, 81.95459
211.2900, 185.3344
212.5170, 72.75952
213.7440, 180.2179
214.9700, 139.6998
216.1960, 139.1938
217.4220, 207.6855
218.6470, 148.1622
219.8730, 184.6185
221.0980, 250.0543
222.3230, 274.4630
223.5480, 228.8380
224.7730, 226.1632
225.9970, 194.3964
227.2220, 185.5242
228.4460, 183.5519
229.6700, 184.4674
230.8940, 177.1707
232.1170, 153.8602
233.3400, 167.4209
234.5640, 156.9940
235.7870, 147.8683
237.0100, 170.3752
238.2320, 170.1726
239.4550, 166.4000
240.6770, 208.6862
241.8990, 164.0099
243.1210, 231.4886
244.3420, 202.8938
245.5640, 261.6841
246.7850, 240.2854
248.0060, 235.7163
249.2270, 248.2554
250.4480, 285.2661
251.6690, 335.1265
252.8890, 404.4961
254.1090, 359.3754
255.3290, 516.8221
256.5490, 469.9119
257.7680, 620.7394
258.9880, 554.3120
260.2070, 628.0874
261.4260, 704.3506
262.6450, 768.6129
263.8640, 744.8734
265.0820, 799.1321
266.3000, 785.3884
267.5180, 803.6417
268.7360, 878.8921
269.9540, 903.1387
271.1720, 995.3823
272.3890, 978.6228
273.6060, 1075.861
274.8230, 1199.095
276.0400, 1254.327
277.2560, 1429.556
278.4730, 1558.782
279.6890, 1674.400
280.9050, 1897.153
282.1210, 1992.901
283.3370, 2219.583
284.5520, 2220.168
285.7670, 2479.630
286.9820, 2392.959
288.1970, 2427.151
289.4120, 2438.194
290.6270, 2403.066
291.8410, 2281.761
293.0550, 2193.297
294.2690, 2161.696
295.4830, 2057.948
296.6970, 1953.064
297.9100, 1864.008
299.1230, 1809.675
300.3360, 1696.103
301.5490, 1584.301
302.7620, 1495.247
303.9740, 1371.123
305.1860, 1212.910
306.3990, 1069.678
307.6110, 1004.435
308.8220, 850.1064
310.0340, 804.6479
311.2450, 713.7612
312.4560, 595.0713
313.6670, 540.2041
314.8780, 438.4757
316.0890, 395.8314
317.2990, 364.4246
318.5090, 311.5725
319.7200, 278.5503
320.9290, 267.5447
322.1390, 224.5502
323.3490, 181.8695
324.5580, 165.7335
325.7670, 133.4788
326.9760, 108.0294
328.1850, 152.3141
329.3930, 94.44275
330.6020, 48.12476
331.8100, 16.40344
333.0180, 95.63721
334.2260, 38.98584
335.4340, 63.41052
336.6410, 45.95728
337.8480, 50.57983
339.0550, 14.03088
340.2620, 33.59790
341.4690, 25.05518
342.6760, 17.61182
343.8820, 30.92468
345.0880, 12.47961
346.2940, 21.84106
347.5000, 22.67444
348.7060, 4.638550
349.9110, 54.23743
351.1160, 43.16345
352.3210, 15.67871
353.5260, 13.45642
354.7310, 13.19849
355.9360, 12.93127
357.1400, 3.112915
358.3440, 7.044189
359.5480, 10.59290
360.7520, 6.886597
361.9550, 28.32117
363.1590, 1.927124
364.3620, 10.32739
365.5650, 22.05017
366.7680, 1.187012
367.9710, 35.18665
369.1730, 30.25806
370.3760, 14.13391
371.5780, 17.35010
372.7800, 37.90491
373.9810, 4.455566
375.1830, 28.16187
376.3840, 36.82910
377.5860, 33.47620
378.7870, 3.753174
379.9880, 32.02588
381.1880, 53.21436
382.3890, 62.49316
383.5890, 70.76758
384.7890, 32.00317
385.9890, 55.25757
387.1890, 132.4255
388.3880, 119.6418
389.5880, 174.8478
390.7870, 177.0468
391.9860, 198.2344
393.1850, 286.4165
394.3840, 300.5930
395.5820, 373.7566
396.7800, 407.8948
397.9790, 492.0227
399.1770, 573.1348
400.3740, 611.9854
401.5720, 658.3083
402.7690, 703.3914
403.9670, 753.4730
405.1640, 786.5527
406.3600, 745.6322
407.5570, 714.7114
408.7540, 732.7904
409.9500, 733.8696
411.1460, 736.1960
412.3420, 712.0276
413.5380, 773.1057
414.7330, 748.1836
415.9290, 798.2610
417.1240, 792.3372
418.3190, 904.4128
419.5140, 955.4911
420.7090, 1009.569
421.9030, 1043.645
423.0970, 1108.722
424.2920, 1282.784
425.4860, 1289.831
426.6790, 1411.864
427.8730, 1518.881
429.0660, 1448.885
430.2600, 1547.873
431.4530, 1509.848
432.6460, 1485.821
433.8380, 1529.782
435.0310, 1478.737
436.2230, 1433.681
437.4150, 1387.615
438.6070, 1343.540
439.7990, 1287.454
440.9910, 1140.359
442.1820, 1142.255
443.3730, 1184.143
444.5640, 1077.026
445.7550, 1168.905
446.9460, 1106.784
448.1370, 1037.662
449.3270, 1027.544
450.5170, 963.0287
451.7070, 926.3054
452.8970, 882.1853
454.0870, 863.0625
455.2760, 841.9475
456.4650, 767.8311
457.6550, 729.7168
458.8430, 689.6051
460.0320, 614.4956
461.2210, 625.3972
462.4090, 549.3149
463.5970, 522.2490
464.7850, 466.1980
465.9730, 390.1608
467.1610, 379.1360
468.3480, 435.1245
469.5360, 399.1317
470.7230, 374.0725
471.9100, 347.1017
473.0970, 313.3025
474.2830, 284.4900
475.4700, 253.3489
476.6560, 221.2826
477.8420, 200.9844
479.0280, 172.6304
480.2140, 160.9607
481.3990, 153.2726
482.5850, 140.8783
483.7700, 147.5710
484.9550, 137.2263
486.1400, 100.8489
487.3240, 74.71924
488.5090, 32.33386
489.6930, 30.86755
490.8770, 11.44177
492.0610, 36.77319
493.2450, 30.20923
494.4290, 45.94568
495.6120, 34.38147
496.7950, 52.43396
497.9780, 27.44092
499.1610, 11.89087
500.3440, 30.56799
501.5260, 44.87231
502.7090, 46.96887
503.8910, 4.663208
505.0730, 12.38306
506.2550, 12.97717
507.4360, 8.625000
508.6180, 10.86157
509.7990, 15.35620
510.9800, 14.30713
512.1610, 56.26562
513.3420, 11.90112
514.5230, 25.65234
515.7030, 71.14697
516.8830, 33.73706
518.0630, 48.85034
519.2430, 17.42944
520.4230, 55.15039
521.6020, 26.74487
522.7820, 125.4727
523.9610, 95.29761
525.1400, 99.17847
526.3190, 153.0906
527.4970, 250.8552
528.6760, 211.7371
529.8540, 331.7856
531.0320, 415.8286
532.2100, 452.9187
533.3880, 474.9648
534.5660, 543.0051
535.7430, 633.2065
536.9200, 717.2510
538.0970, 802.0691
539.2740, 952.3396
540.4510, 991.4392
541.6270, 1132.505
542.8040, 1254.618
543.9800, 1299.935
545.1560, 1515.093
546.3320, 1583.333
547.5080, 1770.406
548.6830, 1928.552
549.8580, 1948.719
551.0340, 2025.938
552.2090, 1964.087
553.3830, 1784.144
554.5580, 1596.227
555.7320, 1310.297
556.9070, 1260.345
558.0810, 1101.330
559.2550, 963.3076
560.4280, 901.0930
561.6020, 905.0544
562.7750, 841.0085
563.9490, 961.1133
565.1220, 887.0510
566.2950, 943.3728
567.4670, 885.3823
568.6400, 1009.555
569.8120, 934.5044
570.9840, 975.4785
572.1560, 892.5161
573.3280, 839.1985
574.5000, 731.4185
575.6710, 691.4001
576.8430, 668.6919
578.0140, 588.8816
579.1850, 598.8235
580.3560, 505.6504
581.5260, 439.5063
582.6970, 467.3154
583.8670, 428.2883
585.0370, 506.1777
586.2070, 432.3516
587.3770, 459.2905
588.5460, 514.0024
589.7160, 532.2808
590.8850, 581.4541
592.0540, 571.7419
593.2230, 513.7351
594.3920, 538.6365
595.5600, 505.4312
596.7290, 480.3228
597.8970, 520.7395
599.0650, 618.7388
600.2330, 659.5320
601.4000, 612.6089
602.5680, 761.3970
603.7350, 765.0288
604.9020, 825.3330
606.0690, 909.4399
607.2360, 991.5903
608.4030, 1004.422
609.5690, 1109.438
610.7360, 1141.141
611.9020, 1155.215
613.0680, 1319.059
614.2340, 1337.580
615.3990, 1341.066
616.5650, 1428.146
617.7300, 1547.894
618.8950, 1614.594
620.0600, 1719.948
621.2250, 1925.541
622.3890, 2201.987
623.5540, 2514.061
624.7180, 2858.473
625.8820, 3275.776
627.0460, 3769.486
628.2100, 4249.596
629.3730, 4774.870
630.5370, 5393.344
631.7000, 5952.515
632.8630, 6299.274
634.0260, 6260.369
635.1890, 5782.673
636.3510, 5045.715
637.5140, 4125.945
638.6760, 3123.055
639.8380, 2268.833
641.0000, 1826.022
642.1610, 1307.820
643.3230, 973.0017
644.4840, 852.2576
645.6450, 758.2939
646.8060, 614.6079
647.9670, 516.4353
649.1280, 432.0798
650.2880, 320.6626
651.4490, 316.2952
652.6090, 272.8765
653.7690, 198.8789
654.9290, 276.1553
656.0880, 163.2720
657.2480, 192.3689
658.4070, 187.6890
659.5660, 144.4062
660.7250, 116.5183
661.8840, 144.7139
663.0430, 140.0371
664.2010, 133.7764
665.3600, 123.7830
666.5180, 129.0776
667.6760, 108.7336
668.8330, 126.1665
669.9910, 129.1030
671.1480, 102.3508
672.3060, 127.2505
673.4630, 159.1335
674.6200, 69.99585
675.7770, 108.0215
676.9330, 138.7368
678.0900, 106.6792
679.2460, 101.3870
680.4020, 110.8528
681.5580, 97.60010
682.7140, 64.10449
683.8690, 89.14893
685.0250, 76.14160
686.1800, 109.8059
687.3350, 90.45020
688.4900, 83.07422
689.6450, 74.22363
690.7990, 83.80566
691.9540, 103.3672
693.1080, 96.23340
694.2620, 97.35913
695.4160, 101.2734
696.5700, 130.7725
697.7230, 144.3616
698.8770, 37.67725
700.0300, 141.0933
701.1830, 118.4902
702.3360, 73.86743
703.4890, 118.2244
704.6410, 53.56201
705.7930, 85.87671
706.9460, 61.17188
708.0980, 94.44507
709.2500, 85.69922
710.4010, 69.93335
711.5530, 6.852783
712.7040, 52.31787
713.8560, 24.15649
715.0070, 46.58618
716.1580, 50.68286
717.3080, 71.75806
718.4590, 108.8135
719.6090, 85.85059
720.7590, 104.8687
721.9090, 58.86841
723.0590, 67.84790
724.2090, 43.80859
725.3590, 18.74683
726.5080, 23.65649
727.6570, 10.24976
728.8060, 39.39087
729.9550, 10.21997
731.1040, 42.01831
732.2530, 49.79517
733.4010, 1.447998
734.5490, 47.27319
735.6970, 24.97461
736.8450, 38.65137
737.9930, 49.30786
739.1400, 32.94556
740.2880, 12.56226
741.4350, 15.15088
742.5820, 1.713379
743.7290, 27.24316
744.8760, 24.75171
746.0220, 35.23804
747.1690, 26.70483
748.3150, 7.848877
749.4610, 14.43823
750.6070, 28.93335
751.7530, 75.28589
752.8980, 9.622070
754.0440, 17.93311
755.1890, 3.222656
756.3340, 27.48438
757.4790, 8.728271
758.6240, 28.94751
759.7680, 10.84985
760.9130, 5.680908
762.0570, 56.45752
763.2010, 24.58154
764.3450, 14.31128
765.4890, 9.237305
766.6320, 50.80566
767.7760, 17.83545
768.9190, 47.84888
770.0620, 8.849121
771.2050, 1.831299
772.3480, 17.20850
773.4900, 78.27930
774.6330, 17.41309
775.7750, 65.57764
776.9170, 3.796875
778.0590, 16.96362
779.2010, 30.28784
780.3420, 40.57471
781.4840, 6.108643
782.6250, 7.222168
783.7660, 12.57373
784.9070, 36.05200
786.0480, 5.332764
787.1890, 31.26562
788.3290, 39.85645
789.4690, 2.560791
790.6100, 35.68481
791.7490, 17.43579
792.8890, 51.09985
794.0290, 3.625977
795.1680, 19.85913
796.3080, 44.36597
797.4470, 2.093506
798.5860, 69.45728
799.7250, 40.05420
800.8630, 79.68066
802.0020, 7.642578
803.1400, 70.04199
804.2780, 86.76978
805.4160, 11.55103
806.5540, 15.65649
807.6920, 63.14355
808.8300, 12.98169
809.9670, 3.138184
811.1040, 4.288086
812.2410, 29.73560
813.3780, 43.62109
814.5150, 5.519531
815.6510, 79.44580
816.7880, 42.44873
817.9240, 13.56177
819.0600, 45.48486
820.1960, 37.75464
821.3320, 56.88403
822.4670, 10.88477
823.6030, 16.80835
824.7380, 16.65039
825.8730, 22.53931
827.0080, 22.20557
828.1430, 43.01099
829.2770, 26.10156
830.4120, 16.25220
831.5460, 20.40210
832.6800, 0.4592290
833.8140, 32.37427
834.9480, 41.28760
836.0810, 35.38452
837.2150, 26.29614
838.3480, 42.16895
839.4810, 56.95923
840.6140, 69.87036
841.7470, 50.38892
842.8800, 68.21216
844.0120, 120.8650
845.1450, 101.7334
846.2770, 142.5703
847.4090, 115.3367
848.5410, 156.4519
849.6720, 197.0227
850.8040, 155.8257
851.9350, 275.3127
853.0660, 238.8960
854.1970, 197.7214
855.3280, 304.6562
856.4590, 266.5571
857.5900, 295.5000
858.7200, 293.2739
859.8500, 264.1265
860.9800, 237.6904
862.1100, 235.4722
863.2400, 217.8674
864.3700, 235.9495
865.4990, 207.4978
866.6280, 234.9990
867.7570, 237.6499
868.8860, 240.4595
870.0150, 190.3735
871.1440, 237.1873
872.2720, 275.4734
873.4010, 234.1743
874.5290, 317.0791
875.6570, 331.6980
876.7850, 264.6033
877.9120, 342.6628
879.0400, 357.0476
880.1670, 392.6287
881.2940, 522.1643
882.4210, 562.0166
883.5480, 691.6833
884.6750, 769.6626
885.8020, 900.2695
886.9280, 1039.105
888.0540, 1139.264
889.1800, 1222.458
890.3060, 1453.060
891.4320, 1474.993
892.5580, 1743.976
893.6830, 1837.305
894.8080, 1974.397
895.9330, 2124.639
897.0580, 2253.255
898.1830, 2275.542
899.3080, 2298.705
900.4320, 2272.955
901.5570, 2417.580
902.6810, 2409.976
903.8050, 2503.201
904.9290, 2379.677
906.0520, 2382.707
907.1760, 2424.416
908.2990, 2564.992
909.4230, 2622.813
910.5460, 2842.524
911.6690, 3059.278
912.7910, 3321.979
913.9140, 3707.696
915.0360, 4151.890
916.1590, 4625.506
917.2810, 4994.099
918.4030, 5432.950
919.5240, 5745.533
920.6460, 6116.398
921.7680, 6058.574
922.8890, 5729.482
924.0100, 5386.411
925.1310, 4798.928
926.2520, 4191.900
927.3730, 3570.679
928.4930, 3057.716
929.6130, 2587.762
930.7340, 2290.630
931.8540, 2125.039
932.9740, 1948.143
934.0930, 1976.161
935.2130, 1943.103
936.3320, 1972.635
937.4520, 1985.919
938.5710, 2157.229
939.6900, 2280.578
940.8090, 2442.470
941.9270, 2687.865
943.0460, 2828.965
944.1640, 3137.421
945.2820, 3460.905
946.4000, 3889.418
947.5180, 4328.775
948.6360, 5229.451
949.7530, 6420.909
950.8710, 7878.621
951.9880, 9757.583
953.1050, 12444.27
954.2220, 15646.22
955.3390, 19772.63
956.4550, 24997.12
957.5720, 30724.92
958.6880, 37333.76
959.8040, 43224.64
960.9200, 48506.98
962.0360, 52479.91
963.1520, 54987.89
964.2670, 56813.27
965.3820, 57430.00
966.4980, 57006.64
967.6130, 54955.76
968.7280, 52123.83
969.8420, 47436.98
970.9570, 41625.16
972.0710, 35146.38
973.1850, 28827.62
974.3000, 22774.90
975.4140, 17676.21
976.5270, 13506.55
977.6410, 10488.92
978.7540, 8210.326
979.8680, 6610.760
980.9810, 5476.227
982.0940, 4602.729
983.2070, 4194.274
984.3200, 4092.854
985.4320, 3937.471
986.5440, 3921.120
987.6570, 3836.803
988.7690, 3771.519
989.8810, 3753.266
990.9920, 3789.044
992.1040, 3543.855
993.2160, 3457.699
994.3270, 3310.575
995.4380, 3080.485
996.5490, 2831.433
997.6600, 2590.417
998.7710, 2399.440
999.8810, 2243.498
1000.991, 2014.593
1002.102, 1853.723
1003.212, 1668.886
1004.322, 1594.092
1005.431, 1385.330
1006.541, 1397.604
1007.651, 1315.912
1008.760, 1268.254
1009.869, 1185.633
1010.978, 1248.050
1012.087, 1232.504
1013.195, 1111.999
1014.304, 1212.529
1015.412, 1271.095
1016.521, 1317.696
1017.629, 1288.332
1018.737, 1267.011
1019.844, 1225.739
1020.952, 1301.501
1022.059, 1268.296
1023.167, 1239.130
1024.274, 1183.998
1025.381, 1183.908
1026.488, 1216.854
1027.594, 1034.839
1028.701, 1021.856
1029.807, 918.2192
1030.913, 809.4644
1032.019, 826.1082
1033.125, 814.1943
1034.231, 723.2439
1035.337, 609.7515
1036.442, 658.7495
1037.548, 687.1877
1038.653, 659.7727
1039.758, 689.9333
1040.863, 636.4331
1041.967, 638.5110
1043.072, 682.8706
1044.176, 628.5649
1045.280, 649.4492
1046.384, 555.5789
1047.488, 671.1323
1048.592, 593.8582
1049.696, 507.4927
1050.799, 551.3005
1051.903, 439.1411
1053.006, 481.2822
1054.109, 485.1858
1055.212, 379.1211
1056.314, 514.0869
1057.417, 520.0815
1058.519, 600.1064
1059.621, 553.2651
1060.724, 717.5439
1061.826, 732.8008
1062.927, 773.6338
1064.029, 838.2002
1065.130, 993.4431
1066.232, 1075.319
1067.333, 1140.607
1068.434, 1195.932
1069.535, 1273.541
1070.636, 1391.939
1071.736, 1664.558
1072.837, 1721.737
1073.937, 2056.312
1075.037, 2160.537
1076.137, 2530.117
1077.237, 2684.531
1078.337, 3074.159
1079.436, 3274.811
1080.535, 3641.491
1081.635, 4021.203
1082.734, 4324.421
1083.833, 4644.199
1084.931, 4873.098
1086.030, 4884.876
1087.128, 4994.739
1088.227, 4733.633
1089.325, 4595.560
1090.423, 4423.510
1091.521, 4045.482
1092.618, 3922.476
1093.716, 3631.493
1094.813, 3392.959
1095.911, 3097.019
1097.008, 3135.133
1098.105, 2969.240
1099.202, 2909.369
1100.298, 2783.519
1101.395, 2838.688
1102.491, 2709.879
1103.587, 2660.089
1104.683, 2537.317
1105.779, 2439.564
1106.875, 2358.830
1107.971, 2260.114
1109.066, 2106.416
1110.161, 1925.737
1111.256, 1880.077
1112.351, 1587.434
1113.446, 1432.952
1114.541, 1375.893
1115.636, 1333.301
1116.730, 1150.726
1117.824, 994.1672
1118.918, 873.6279
1120.012, 877.1040
1121.106, 697.5967
1122.200, 706.1050
1123.293, 581.6287
1124.387, 622.1675
1125.480, 551.7214
1126.573, 509.2900
1127.666, 406.8726
1128.759, 389.4697
1129.851, 368.0811
1130.944, 363.7063
1132.036, 269.3525
1133.128, 273.0127
1134.220, 243.6863
1135.312, 222.3721
1136.404, 207.2046
1137.495, 192.7817
1138.587, 165.5046
1139.678, 149.0405
1140.769, 131.6460
1141.860, 98.40405
1142.951, 118.1733
1144.041, 102.9531
1145.132, 83.83862
1146.222, 92.84570
1147.313, 51.80542
1148.403, 8.679688
1149.493, 5.334229
1150.582, 28.49438
1151.672, 23.66992
1152.761, 45.52930
1153.851, 78.65723
1154.940, 69.53320
1156.029, 47.95020
1157.118, 55.67529
1158.207, 32.71069
1159.295, 33.61670
1160.384, 11.30591
1161.472, 32.33032
1162.560, 16.36792
1163.648, 66.44678
1164.736, 23.46094
1165.824, 123.5728
1166.911, 96.26611
1167.999, 119.3779
1169.086, 120.4690
1170.173, 58.83594
1171.260, 25.15405
1172.347, 88.64600
1173.434, 38.00830
1174.520, 23.38501
1175.606, 25.52075
1176.693, 47.91455
1177.779, 71.67285
1178.865, 8.173340
1179.951, 33.95581
1181.036, 22.49219
1182.122, 23.03418
1183.207, 0.2766110
1184.292, 51.36353
1185.377, 38.06226
1186.462, 18.21973
1187.547, 24.20947
1188.632, 34.77197
1189.716, 32.61914
1190.800, 33.53711
1191.885, 32.03638
1192.969, 4.500000
1194.052, 1.970947
1195.136, 12.45410
1196.220, 120.0842
1197.303, 20.46631
1198.387, 33.10156
1199.470, 28.92554
1200.553, 58.45581
1201.636, 8.997803
1202.718, 0.4653320
1203.801, 16.80273
1204.883, 16.47144
1205.966, 38.01514
1207.048, 0.3237300
1208.130, 63.64624
1209.211, 96.97485
1210.293, 51.28125
1211.375, 60.61230
1212.456, 26.09619
1213.537, 92.16309
1214.618, 22.48169
1215.699, 1.728760
1216.780, 62.78857
1217.861, 85.38550
1218.941, 62.85767
1220.022, 79.55029
1221.102, 88.75977
1222.182, 83.27271
1223.262, 58.46826
1224.342, 2.094727
1225.422, 95.08203
1226.501, 34.38550
1227.580, 91.67017
1228.660, 152.9822
1229.739, 74.18799
1230.818, 122.5378
1231.896, 79.98950
1232.975, 47.10132
1234.054, 93.20459
1235.132, 120.2993
1236.210, 115.4260
1237.288, 128.5024
1238.366, 116.5701
1239.444, 48.09351
1240.521, 113.1421
1241.599, 161.1914
1242.676, 39.30127
1243.753, 26.32910
1244.830, 71.34082
1245.907, 53.34253
1246.984, 106.3491
1248.061, 123.9626
1249.137, 106.9329
1250.214, 154.0889
1251.290, 135.0376
1252.366, 96.05591
1253.442, 117.9919
1254.517, 164.9070
1255.593, 112.8103
1256.668, 109.7034
1257.744, 87.67798
1258.819, 130.5476
1259.894, 123.4485
1260.969, 108.0386
1262.044, 80.01123
1263.118, 92.33765
1264.193, 86.15137
1265.267, 95.51196
1266.341, 105.2988
1267.415, 77.07275
1268.489, 90.87842
1269.563, 39.62646
1270.636, 121.3552
1271.710, 94.08179
1272.783, 74.78442
1273.856, 59.54297
1274.929, 64.21631
1276.002, 62.87476
1277.075, 70.51782
1278.147, 55.14722
1279.220, 41.04956
1280.292, 57.64087
1281.364, 97.34766
1282.436, 61.91602
1283.508, 85.45923
1284.580, 51.98804
1285.652, 50.49756
1286.723, 59.21777
1287.794, 92.45776
1288.865, 70.96289
1289.936, 78.09961
1291.007, 78.39966
1292.078, 83.29688
1293.149, 73.19775
1294.219, 83.69092
1295.289, 48.79272
1296.360, 64.64185
1297.430, 54.95752
1298.499, 21.02930
1299.569, 70.54077
1300.639, 31.23560
1301.708, 73.38696
1302.778, 56.76953
1303.847, 36.10498
1304.916, 90.03369
1305.985, 2.272949
1307.053, 28.08032
1308.122, 1.308838
1309.190, 7.774658
1310.259, 55.91406
1311.327, 36.05786
1312.395, 39.91406
1313.463, 35.95654
1314.531, 15.98413
1315.598, 22.03589
1316.666, 49.98438
1317.733, 44.96265
1318.800, 16.82056
1319.867, 78.76294
1320.934, 41.55396
1322.001, 57.78516
1323.067, 46.30444
1324.134, 54.16846
1325.200, 3.582764
1326.266, 21.03882
1327.333, 7.129395
1328.398, 40.72266
1329.464, 23.53882
1330.530, 28.16577
1331.595, 48.26538
1332.661, 10.98584
1333.726, 22.06909
1334.791, 66.82446
1335.856, 37.75903
1336.921, 39.41211
1337.985, 44.12769
1339.050, 37.83032
1340.114, 46.52026
1341.178, 66.11963
1342.242, 33.78540
1343.306, 67.40283
1344.370, 1.756104
1345.434, 9.868896
1346.497, 17.05835
1347.561, 5.658691
1348.624, 62.24365
1349.687, 13.81738
1350.750, 70.37866
1351.813, 17.92896
1352.876, 47.03662
1353.938, 25.55908
1355.000, 27.04028
1356.063, 23.62183
1357.125, 35.10767
1358.187, 19.61401
1359.249, 12.06616
1360.310, 102.5618
1361.372, 104.9893
1362.433, 93.40552
1363.495, 42.81055
1364.556, 78.20410
1365.617, 71.68579
1366.678, 5.056885
1367.738, 90.41235
1368.799, 110.1431
1369.859, 39.47583
1370.920, 79.65356
1371.980, 104.4155
1373.040, 104.7373
1374.100, 53.02612
1375.159, 0.3232420
1376.219, 83.58350
1377.278, 23.83228
1378.338, 67.06958
1379.397, 38.29639
1380.456, 55.51074
1381.515, 97.71436
1382.574, 95.90576
1383.632, 102.6396
1384.691, 36.49854
1385.749, 67.65869
1386.807, 49.43091
1387.865, 18.42993
1388.923, 31.69214
1389.981, 43.80396
1391.039, 119.0847
1392.096, 95.17798
1393.154, 86.26196
1394.211, 65.33691
1395.268, 49.40283
1396.325, 68.44189
1397.382, 59.81177
1398.439, 56.82837
1399.495, 78.95703
1400.552, 42.95361
1401.608, 163.7485
1402.664, 121.6060
1403.720, 77.42041
1404.776, 74.60205
1405.832, 13.32178
1406.887, 116.4673
1407.943, 29.10791
1408.998, 56.02393
1410.053, 124.6714
1411.108, 78.62183
1412.163, 124.9487
1413.218, 61.20801
1414.272, 61.67310
1415.327, 44.50708
1416.381, 87.16797
1417.435, 50.92700
1418.489, 93.69165
1419.543, 1.488525
1420.597, 58.20508
1421.651, 83.08862
1422.704, 14.43604
1423.758, 28.17456
1424.811, 111.9717
1425.864, 111.9033
1426.917, 46.76904
1427.970, 103.7974
1429.023, 75.67114
1430.075, 5.540039
1431.128, 48.15430
1432.180, 63.01416
1433.232, 31.26807
1434.284, 25.79907
1435.336, 7.348633
1436.388, 34.32129
1437.439, 30.18115
1438.491, 31.88574
1439.542, 62.63330
1440.593, 75.31372
1441.644, 70.53125
1442.695, 82.91235
1443.746, 113.7178
1444.797, 117.4744
1445.847, 9.745361
1446.898, 140.5867
1447.948, 46.38306
1448.998, 46.24976
1450.048, 78.21729
1451.098, 76.96191
1452.147, 98.73169
1453.197, 136.2454
1454.246, 133.8328
1455.296, 84.83179
1456.345, 65.91382
1457.394, 80.52930
1458.443, 79.15186
1459.491, 61.35327
1460.540, 100.9209
1461.588, 73.01147
1462.637, 32.02686
1463.685, 56.26172
1464.733, 106.9343
1465.781, 122.0515
1466.829, 5.477295
1467.876, 51.22021
1468.924, 34.10571
1469.971, 13.58105
1471.019, 96.48022
1472.066, 10.12207
1473.113, 71.12036
1474.160, 76.83008
1475.206, 117.2769
1476.253, 83.50659
1477.299, 72.65601
1478.346, 135.3569
1479.392, 68.96558
1480.438, 86.76294
1481.484, 27.66479
1482.529, 62.43457
1483.575, 40.25854
1484.620, 84.64258
1485.666, 32.38232
1486.711, 71.19922
1487.756, 100.9473
1488.801, 73.75146
1489.846, 82.53613
1490.891, 22.23145
1491.935, 48.02222
1492.980, 69.38745
1494.024, 41.01880
1495.068, 95.75366
1496.112, 84.53833
1497.156, 60.33374
1498.200, 41.05420
1499.243, 104.8174
1500.287, 41.00049
1501.330, 85.42993
1502.373, 72.03223
1503.416, 96.77368
1504.459, 94.69604
1505.502, 50.99390
1506.545, 54.71069
1507.587, 77.02393
1508.630, 0.6821290
1509.672, 90.44775
1510.714, 86.33716
1511.756, 11.76099
1512.798, 86.79468
1513.840, 87.69629
1514.881, 112.5935
1515.923, 9.491699
1516.964, 95.41455
1518.005, 98.34497
1519.046, 116.2747
1520.087, 128.1943
1521.128, 92.97119
1522.169, 63.83008
1523.209, 87.78882
1524.249, 17.50610
1525.290, 101.0051
1526.330, 146.4707
1527.370, 85.27661
1528.410, 70.07422
1529.449, 2.115723
1530.489, 15.91431
1531.528, 129.1946
1532.568, 37.89453
1533.607, 123.7446
1534.646, 116.5952
1535.685, 36.16016
1536.724, 90.97852
1537.762, 57.66309
1538.801, 46.27197
1539.839, 99.87891
1540.878, 80.56494
1541.916, 98.24512
1542.954, 116.9275
1543.992, 55.75317
1545.029, 59.40771
1546.067, 22.68921
1547.104, 60.23584
1548.142, 58.03149
1549.179, 17.49023
1550.216, 100.9880
1551.253, 120.5508
1552.290, 119.5464
1553.326, 144.0713
1554.363, 70.25903
1555.399, 114.0422
1556.436, 129.2285
1557.472, 72.28369
1558.508, 145.9485
1559.544, 84.60840
1560.579, 44.25879
1561.615, 114.9211
1562.651, 50.01392
1563.686, 71.85400
1564.721, 64.78516
1565.756, 76.67773
1566.791, 79.69580
1567.826, 56.94019
1568.861, 86.65747
1569.895, 106.7456
1570.930, 121.5317
1571.964, 66.67480
1572.998, 65.26392
1574.032, 42.32861
1575.066, 1.909912
1576.100, 137.4956
1577.134, 15.12158
1578.167, 0.0000000E+00
##END=



