##NAMES=Witherite
##RRUFFID=R040040
##IDEAL CHEMISTRY=BaCO_3_
##LOCALITY=Cave-in-Rock, Hardin County, Illinois, USA
##OWNER=RRUFF
##SOURCE=University of Arizona Mineral Museum
##DESCRIPTION=Tan colored prismatic group of columnar crystals
##STATUS=The identification of this mineral has been confirmed by X-ray diffraction and chemical analysis
##URL=rruff.info/R040040
##MEASURED CHEMISTRY=(Ba_0.98_Sr_0.02_)_Î£=1_CO_3_; CO_2_ estimated by difference
##PIN_ID=L00241
##ORIENTATION=Laser parallel to -a* (-1 0 0). Fiducial mark perpendicular to laser is parallel to -c [0 0 -1]
102.428, 0.000
103.820, 2.973
105.212, 80.665
106.604, 11.697
107.995, 68.276
109.387, 67.566
110.777, 204.205
112.168, 104.214
113.559, 240.266
114.949, 335.521
116.339, 328.269
117.729, 544.913
119.119, 393.969
120.508, 651.051
121.897, 552.848
123.286, 746.240
124.675, 822.416
126.063, 1091.121
127.452, 1309.062
128.840, 1581.019
130.228, 2379.818
131.615, 3025.329
133.003, 4287.454
134.390, 5920.106
135.777, 7303.218
137.164, 8346.728
138.550, 7500.594
139.937, 6434.773
141.323, 5569.233
142.709, 5624.377
144.094, 6242.312
145.480, 6792.069
146.865, 7472.089
148.250, 6241.843
149.635, 5531.361
151.019, 4420.674
152.403, 4159.811
153.788, 4058.791
155.171, 3667.636
156.555, 3136.366
157.939, 2237.995
159.322, 1875.545
160.705, 1529.082
162.088, 1143.566
163.470, 903.990
164.853, 551.366
166.235, 451.699
167.617, 257.998
168.998, 228.268
170.380, 194.511
171.761, 129.730
173.142, 104.931
174.523, 33.115
175.904, 180.286
177.284, 201.447
178.664, 297.601
180.044, 303.750
181.424, 389.458
182.803, 460.858
184.183, 417.620
185.562, 385.855
186.940, 271.208
188.319, 297.828
189.698, 257.393
191.076, 246.930
192.454, 234.538
193.831, 252.221
195.209, 303.984
196.586, 254.827
197.963, 290.750
199.340, 313.755
200.717, 231.839
202.093, 287.003
203.470, 124.244
204.846, 344.562
206.221, 182.954
207.597, 125.418
208.972, 153.952
210.347, 265.553
211.722, 349.219
213.097, 121.948
214.472, 174.896
215.846, 213.744
217.220, 280.283
218.594, 335.293
219.967, 375.278
221.341, 354.315
222.714, 289.404
224.087, 274.543
225.460, 446.758
226.832, 433.016
228.204, 490.305
229.577, 357.625
230.948, 487.975
232.320, 240.580
233.692, 402.986
235.063, 197.420
236.434, 332.887
237.805, 259.390
239.175, 127.926
240.545, 376.490
241.916, 67.079
243.286, 285.695
244.655, 298.336
246.025, 156.002
247.394, 257.694
248.763, 69.410
250.132, 318.151
251.501, 148.929
252.869, 247.743
254.237, 230.583
255.605, 133.446
256.973, 231.329
258.340, 12.241
259.708, 152.183
261.075, 99.856
262.442, 92.813
263.808, 143.754
265.175, 219.744
266.541, 118.849
267.907, 326.621
269.273, 72.796
270.639, 136.522
272.004, 128.075
273.369, 50.177
274.734, 51.040
276.099, 109.294
277.463, 132.812
278.828, 130.485
280.192, 216.299
281.556, 126.235
282.919, 280.279
284.283, 95.419
285.646, 244.657
287.009, 128.966
288.372, 225.346
289.734, 175.788
291.097, 52.287
292.459, 306.835
293.821, 146.450
295.183, 273.105
296.544, 188.800
297.905, 154.529
299.266, 211.289
300.627, 96.081
301.988, 259.899
303.348, 133.745
304.709, 120.616
306.069, 209.510
307.428, 79.428
308.788, 244.355
310.147, 154.281
311.507, 288.207
312.865, 94.131
314.224, 72.088
315.583, 175.046
316.941, 54.007
318.299, 271.970
319.657, 162.936
321.015, 236.905
322.372, 129.879
323.729, 39.858
325.086, 210.840
326.443, 81.825
327.800, 167.815
329.156, 8.935
330.512, 178.930
331.868, 140.927
333.224, 19.932
334.579, 226.940
335.935, 129.955
337.290, 196.975
338.645, 142.999
339.999, 64.029
341.354, 280.064
342.708, 75.104
344.062, 382.151
345.416, 60.553
346.769, 297.507
348.123, 302.419
349.476, 206.010
350.829, 274.512
352.182, 101.941
353.534, 195.360
354.887, 176.992
356.239, 226.444
357.591, 331.912
358.942, 48.396
360.294, 252.895
361.645, 232.415
362.996, 148.949
364.347, 363.499
365.698, 136.070
367.048, 268.646
368.398, 90.919
369.748, 253.522
371.098, 241.899
372.448, 227.526
373.797, 321.166
375.146, 109.817
376.495, 282.479
377.844, 181.152
379.192, 236.835
380.540, 281.519
381.889, 141.217
383.236, 346.917
384.584, 208.626
385.932, 216.347
387.279, 329.075
388.626, 146.845
389.973, 411.591
391.319, 117.348
392.666, 266.111
394.012, 219.885
395.358, 182.664
396.704, 260.452
398.049, 126.998
399.394, 351.801
400.740, 104.611
402.084, 333.750
403.429, 247.575
404.774, 223.407
406.118, 382.248
407.462, 73.095
408.806, 270.955
410.150, 168.821
411.493, 145.055
412.836, 371.935
414.179, 220.821
415.522, 266.713
416.865, 127.611
418.207, 265.634
419.549, 253.543
420.891, 221.189
422.233, 373.130
423.575, 143.438
424.916, 265.161
426.257, 197.075
427.598, 121.372
428.939, 260.646
430.279, 123.931
431.619, 323.882
432.959, 36.229
434.299, 174.045
435.639, 212.959
436.978, 69.826
438.318, 327.889
439.657, 118.959
440.996, 276.039
442.334, 169.403
443.673, 106.504
445.011, 193.610
446.349, 18.722
447.687, 292.450
449.024, 126.572
450.361, 220.698
451.699, 269.896
453.036, 71.029
454.372, 323.216
455.709, 50.356
457.045, 171.500
458.381, 360.645
459.717, 89.793
461.053, 399.247
462.388, 118.399
463.724, 257.553
465.059, 106.707
466.394, 95.864
467.728, 226.188
469.063, 55.350
470.397, 354.514
471.731, 163.677
473.065, 82.844
474.398, 239.682
475.732, 138.856
477.065, 318.031
478.398, 157.206
479.731, 176.400
481.063, 235.722
482.396, 164.916
483.728, 364.110
485.060, 33.248
486.391, 192.447
487.723, 251.646
489.054, 20.843
490.385, 268.899
491.716, 48.097
493.047, 157.292
494.377, 136.631
495.708, 155.826
497.038, 295.029
498.368, 64.231
499.697, 223.445
501.027, 132.659
502.356, 181.873
503.685, 281.087
505.014, 29.700
506.342, 229.492
507.671, 21.845
508.999, 161.036
510.327, 170.229
511.655, 119.421
512.982, 178.619
514.310, 17.817
515.637, 267.017
516.964, 176.266
518.291, 45.517
519.617, 344.590
520.944, 145.379
522.270, 294.633
523.596, 113.900
524.921, 33.170
526.247, 292.438
527.572, 1.708
528.897, 260.972
530.222, 0.250
531.547, 119.521
532.871, 178.793
534.196, 38.065
535.520, 247.337
536.844, 76.609
538.167, 175.881
539.491, 245.152
540.814, 34.426
542.137, 273.699
543.460, 162.973
544.783, 152.247
546.105, 211.521
547.427, 30.797
548.749, 300.072
550.071, 49.365
551.393, 158.640
552.714, 57.912
554.035, 57.192
555.356, 306.470
556.677, 34.252
557.998, 245.000
559.318, 154.252
560.638, 13.501
561.958, 172.746
563.278, 171.991
564.597, 201.234
565.917, 60.477
567.236, 161.133
568.555, 200.396
569.874, 10.345
571.192, 248.900
572.511, 218.145
573.829, 217.509
575.147, 206.752
576.464, 104.006
577.782, 285.172
579.099, 114.348
580.416, 138.351
581.733, 287.534
583.050, 3.259
584.366, 315.961
585.683, 14.787
586.999, 124.657
588.315, 183.972
589.630, 86.638
590.946, 302.716
592.261, 62.101
593.576, 131.514
594.891, 290.936
596.206, 70.368
597.520, 339.798
598.834, 59.223
600.148, 20.116
601.462, 269.530
602.776, 48.941
604.089, 308.347
605.402, 7.740
606.715, 297.337
608.028, 176.725
609.341, 36.107
610.653, 195.485
611.965, 65.142
613.277, 204.182
614.589, 153.503
615.901, 62.818
617.212, 202.238
618.523, 21.545
619.834, 240.843
621.145, 50.135
622.456, 69.423
623.766, 278.945
625.076, 1.775
626.386, 307.986
627.696, 107.242
629.006, 116.494
630.315, 375.983
631.624, 104.767
632.933, 245.827
634.242, 54.998
635.551, 84.166
636.859, 287.596
638.167, 36.752
639.475, 245.916
640.783, 85.058
642.090, 44.193
643.398, 293.900
644.705, 113.025
646.012, 342.143
647.318, 101.129
648.625, 250.238
649.931, 319.343
651.237, 8.440
652.543, 287.525
653.849, 78.069
655.155, 147.142
656.460, 269.176
657.765, 68.235
659.070, 267.286
660.375, 126.588
661.679, 215.625
662.984, 212.578
664.288, 28.399
665.592, 320.477
666.895, 79.685
668.199, 198.661
669.502, 217.959
670.805, 76.923
672.108, 395.686
673.411, 86.241
674.713, 155.185
676.016, 364.162
677.318, 3.090
678.620, 352.003
679.921, 133.808
681.223, 162.704
682.524, 351.603
683.825, 170.502
685.126, 278.709
686.427, 251.042
687.727, 269.154
689.028, 348.040
690.328, 126.902
691.628, 495.756
692.927, 374.600
694.227, 573.437
695.526, 822.268
696.825, 361.521
698.124, 630.328
699.423, 319.357
700.721, 388.158
702.020, 456.951
703.318, 176.530
704.616, 425.275
705.913, 84.043
707.211, 282.801
708.508, 371.550
709.805, 111.792
711.102, 350.522
712.399, 269.366
713.695, 185.330
714.992, 224.035
716.288, 122.800
717.584, 341.168
718.879, 250.104
720.175, 118.772
721.470, 307.432
722.765, 11.578
724.060, 510.207
725.355, 168.826
726.649, 286.279
727.944, 454.880
729.238, 74.296
730.532, 262.878
731.825, 161.449
733.119, 222.894
734.412, 511.447
735.705, 47.276
736.998, 491.217
738.291, 149.701
739.584, 207.756
740.876, 356.221
742.168, 63.232
743.460, 481.678
744.752, 190.113
746.043, 302.730
747.334, 501.146
748.626, 129.552
749.916, 397.948
751.207, 216.333
752.498, 134.774
753.788, 483.139
755.078, 1.491
756.368, 329.613
757.658, 177.934
758.947, 136.242
760.237, 334.541
761.526, 52.217
762.815, 300.703
764.104, 258.970
765.392, 117.160
766.680, 425.406
767.969, 98.592
769.257, 357.173
770.544, 285.390
771.832, 73.596
773.119, 351.790
774.406, 159.670
775.693, 217.973
776.980, 196.138
778.267, 44.294
779.553, 522.992
780.839, 19.960
782.125, 308.079
783.411, 306.190
784.697, 44.290
785.982, 514.333
787.267, 5.259
788.552, 232.796
789.837, 280.842
791.122, 51.122
792.406, 417.172
793.690, 95.026
794.974, 202.998
796.258, 430.960
797.542, 8.863
798.825, 416.922
800.108, 144.855
801.391, 202.780
802.674, 440.695
803.957, 128.603
805.239, 396.502
806.522, 153.493
807.804, 8.627
809.085, 329.229
810.367, 32.923
811.649, 324.888
812.930, 232.690
814.211, 40.486
815.492, 368.271
816.772, 36.049
818.053, 423.825
819.333, 189.205
820.613, 46.983
821.893, 274.751
823.173, 22.509
824.452, 150.262
825.732, 288.557
827.011, 173.705
828.290, 503.923
829.568, 91.543
830.847, 169.155
832.125, 226.478
833.403, 35.927
834.681, 401.637
835.959, 143.564
837.236, 231.112
838.514, 268.742
839.791, 43.725
841.068, 453.771
842.345, 102.429
843.621, 129.910
844.898, 357.386
846.174, 144.854
847.450, 402.320
848.726, 280.728
850.001, 8.177
851.277, 365.630
852.552, 53.687
853.827, 241.120
855.102, 309.081
856.376, 3.498
857.651, 393.910
858.925, 161.631
860.199, 219.002
861.473, 386.388
862.746, 16.236
864.020, 371.121
865.293, 78.698
866.566, 116.039
867.839, 303.390
869.112, 90.733
870.384, 278.068
871.656, 45.403
872.928, 192.729
874.200, 500.053
875.472, 82.408
876.744, 333.462
878.015, 110.744
879.286, 58.019
880.557, 475.290
881.828, 7.441
883.098, 279.695
884.369, 266.945
885.639, 164.282
886.909, 431.551
888.178, 41.183
889.448, 361.235
890.717, 318.465
891.987, 4.306
893.256, 392.915
894.524, 40.134
895.793, 167.193
897.061, 464.405
898.330, 11.631
899.598, 378.875
900.865, 206.111
902.133, 183.346
903.401, 300.575
904.668, 87.800
905.935, 225.018
907.202, 252.230
908.468, 87.969
909.735, 435.174
911.001, 132.372
912.267, 269.569
913.533, 366.760
914.799, 53.743
916.064, 340.925
917.330, 208.101
918.595, 165.271
919.860, 442.437
921.124, 19.616
922.389, 476.790
923.653, 313.957
924.918, 281.008
926.182, 498.162
927.445, 75.313
928.709, 262.457
929.972, 449.594
931.236, 3.516
932.499, 543.604
933.761, 180.225
935.024, 297.678
936.286, 464.785
937.549, 38.358
938.811, 538.718
940.073, 184.405
941.334, 311.502
942.596, 568.595
943.857, 31.413
945.118, 598.822
946.379, 145.880
947.640, 382.946
948.900, 540.010
950.161, 76.489
951.421, 394.825
952.681, 441.872
953.940, 108.914
955.200, 516.395
956.459, 193.428
957.719, 210.451
958.978, 427.479
960.236, 163.033
961.495, 450.132
962.753, 324.174
964.012, 211.177
965.270, 509.034
966.527, 125.772
967.785, 462.904
969.043, 219.942
970.300, 13.080
971.557, 688.229
972.814, 144.980
974.071, 221.949
975.327, 600.304
976.583, 2.739
977.840, 414.205
979.095, 309.540
980.351, 116.473
981.607, 373.864
982.862, 29.204
984.117, 187.717
985.372, 352.555
986.627, 90.522
987.882, 446.885
989.136, 83.758
990.390, 110.625
991.644, 594.756
992.898, 28.387
994.152, 428.439
995.405, 106.105
996.659, 273.013
997.912, 561.718
999.165, 21.388
1000.417, 335.494
1001.670, 385.613
1002.922, 7.505
1004.174, 639.411
1005.426, 2.890
1006.678, 333.967
1007.930, 380.994
1009.181, 37.837
1010.432, 544.730
1011.683, 212.019
1012.934, 258.950
1014.185, 594.883
1015.435, 61.831
1016.685, 548.710
1017.935, 297.215
1019.185, 314.201
1020.435, 451.164
1021.684, 269.735
1022.934, 326.499
1024.183, 504.809
1025.432, 72.163
1026.680, 663.677
1027.929, 196.586
1029.177, 443.587
1030.425, 580.389
1031.673, 178.447
1032.921, 484.610
1034.169, 482.307
1035.416, 109.644
1036.663, 626.654
1037.911, 464.949
1039.157, 659.212
1040.404, 886.225
1041.650, 354.750
1042.897, 761.129
1044.143, 408.945
1045.389, 435.721
1046.634, 732.686
1047.880, 554.584
1049.125, 701.146
1050.371, 868.084
1051.615, 596.045
1052.860, 1232.957
1054.105, 1040.496
1055.349, 1387.689
1056.593, 2394.573
1057.837, 4892.415
1059.081, 23139.225
1060.325, 47476.090
1061.568, 42254.227
1062.812, 18471.068
1064.055, 5858.375
1065.298, 2364.983
1066.540, 1521.790
1067.783, 559.107
1069.025, 965.893
1070.267, 612.664
1071.509, 479.676
1072.751, 966.422
1073.993, 283.156
1075.234, 789.876
1076.475, 556.580
1077.716, 283.276
1078.957, 719.956
1080.198, 376.619
1081.438, 292.995
1082.679, 639.649
1083.919, 96.294
1085.159, 552.933
1086.398, 269.555
1087.638, 254.241
1088.877, 630.866
1090.116, 257.480
1091.355, 244.507
1092.594, 591.101
1093.833, 107.392
1095.071, 463.967
1096.309, 290.525
1097.547, 217.694
1098.785, 744.218
1100.023, 19.394
1101.260, 607.610
1102.498, 704.076
1103.735, 90.523
1104.972, 787.659
1106.208, 254.070
1107.445, 311.197
1108.681, 637.577
1109.918, 183.945
1111.154, 580.669
1112.389, 507.013
1113.625, 3.337
1114.860, 720.511
1116.096, 176.813
1117.331, 133.434
1118.566, 659.694
1119.800, 74.837
1121.035, 532.132
1122.269, 368.295
1123.503, 25.561
1124.737, 601.071
1125.971, 226.608
1127.205, 312.673
1128.438, 478.766
1129.671, 104.837
1130.904, 583.797
1132.137, 268.562
1133.370, 34.560
1134.602, 734.048
1135.834, 105.630
1137.066, 271.834
1138.298, 447.964
1139.530, 63.844
1140.762, 590.355
1141.993, 315.379
1143.224, 41.198
1144.455, 656.271
1145.686, 17.967
1146.917, 577.757
1148.147, 353.512
1149.377, 50.814
1150.607, 707.855
1151.837, 202.834
1153.067, 68.396
1154.296, 645.494
1155.526, 41.002
1156.755, 556.771
1157.984, 396.174
1159.213, 191.596
1160.441, 680.010
1161.670, 192.764
1162.898, 358.098
1164.126, 937.541
1165.354, 23.482
1166.581, 549.174
1167.809, 467.041
1169.036, 32.213
1170.263, 719.131
1171.490, 66.756
1172.717, 261.809
1173.943, 777.971
1175.170, 56.170
1176.396, 398.756
1177.622, 536.908
1178.848, 101.766
1180.073, 796.580
1181.299, 203.275
1182.524, 288.020
1183.749, 883.596
1184.974, 89.387
1186.199, 554.014
1187.423, 640.395
1188.648, 64.961
1189.872, 679.502
1191.096, 175.504
1192.320, 359.947
1193.543, 734.557
1194.767, 30.195
1195.990, 544.094
1197.213, 389.439
1198.436, 133.654
1199.659, 857.844
1200.881, 234.033
1202.104, 298.141
1203.326, 942.203
1204.548, 158.096
1205.770, 802.076
1206.991, 627.064
1208.213, 111.498
1209.434, 715.352
1210.655, 280.803
1211.876, 484.578
1213.096, 818.314
1214.317, 273.729
1215.537, 697.383
1216.757, 701.004
1217.977, 255.787
1219.197, 779.324
1220.417, 433.297
1221.636, 456.754
1222.855, 830.172
1224.074, 374.764
1225.293, 698.100
1226.512, 531.393
1227.731, 349.459
1228.949, 1022.670
1230.167, 476.635
1231.385, 712.633
1232.603, 715.719
1233.820, 496.572
1235.038, 729.600
1236.255, 782.598
1237.472, 328.389
1238.689, 951.328
1239.906, 574.238
1241.122, 476.789
1242.338, 1039.641
1243.555, 282.461
1244.771, 665.297
1245.986, 798.055
1247.202, 310.096
1248.417, 872.789
1249.633, 735.451
1250.848, 268.334
1252.063, 990.928
1253.277, 263.492
1254.492, 537.068
1255.706, 849.555
1256.920, 351.928
1258.134, 894.334
1259.348, 556.705
1260.562, 243.115
1261.775, 1115.418
1262.988, 367.443
1264.201, 539.570
1265.414, 771.652
1266.627, 259.373
1267.839, 751.381
1269.052, 743.271
1270.264, 323.338
1271.476, 885.041
1272.688, 466.625
1273.899, 518.311
1275.111, 949.736
1276.322, 40.600
1277.533, 891.908
1278.744, 523.162
1279.955, 23.559
1281.165, 1034.648
1282.376, 385.176
1283.586, 376.182
1284.796, 957.145
1286.006, 297.338
1287.215, 368.512
1288.425, 929.336
1289.634, 230.713
1290.843, 960.543
1292.052, 589.330
1293.261, 209.877
1294.469, 701.102
1295.678, 37.877
1296.886, 488.367
1298.094, 708.439
1299.302, 87.893
1300.509, 469.457
1301.717, 378.674
1302.924, 151.182
1304.131, 739.375
1305.338, 131.100
1306.545, 41.340
1307.752, 587.867
1308.958, 152.520
1310.164, 286.988
1311.370, 335.098
1312.576, 125.496
1313.782, 814.082
1314.987, 111.775
1316.193, 60.959
1317.398, 528.877
1318.603, 157.596
1319.807, 236.545
1321.012, 619.822
1322.216, 28.658
1323.421, 637.422
1324.625, 515.072
1325.829, 116.266
1327.032, 561.627
1328.236, 199.820
1329.439, 178.277
1330.642, 845.582
1331.845, 103.943
1333.048, 582.246
1334.251, 418.977
1335.453, 127.178
1336.656, 684.480
1337.858, 372.502
1339.060, 210.535
1340.261, 733.557
1341.463, 171.457
1342.664, 499.309
1343.866, 799.686
1345.067, 77.441
1346.267, 574.510
1347.468, 651.795
1348.669, 89.400
1349.869, 735.986
1351.069, 173.713
1352.269, 281.176
1353.469, 867.309
1354.668, 104.686
1355.868, 491.541
1357.067, 749.012
1358.266, 96.266
1359.465, 782.961
1360.664, 511.615
1361.862, 148.631
1363.061, 1004.992
1364.259, 281.926
1365.457, 578.809
1366.655, 725.652
1367.852, 142.447
1369.050, 799.066
1370.247, 465.658
1371.444, 7.799
1372.641, 808.414
1373.838, 195.129
1375.035, 21.510
1376.231, 427.756
1377.427, 56.092
1378.623, 603.918
1379.819, 823.441
1381.015, 33.320
1382.211, 933.146
1383.406, 622.266
1384.601, 431.436
1385.796, 1061.102
1386.991, 559.951
1388.185, 368.695
1389.380, 1157.762
1390.574, 237.178
1391.768, 715.549
1392.962, 934.424
1394.156, 212.754
1395.350, 1031.934
1396.543, 830.475
1397.736, 159.562
1398.929, 1165.174
1400.122, 384.141
1401.315, 648.857
1402.507, 1126.986
1403.700, 5.006
1404.892, 763.309
1406.084, 937.879
1407.276, 275.027
1408.467, 829.498
1409.659, 787.809
1410.850, 363.332
1412.041, 1282.295
1413.232, 482.844
1414.423, 610.564
1415.614, 1157.574
1416.804, 226.715
1417.994, 1161.229
1419.184, 1234.604
1420.374, 1028.299
1421.564, 2790.422
1422.753, 2297.172
1423.943, 1806.199
1425.132, 2129.520
1426.321, 873.188
1427.510, 789.443
1428.698, 1083.328
1429.887, 167.795
1431.075, 1022.217
1432.263, 708.301
1433.451, 90.953
1434.639, 943.770
1435.827, 407.848
1437.014, 72.725
1438.201, 905.604
1439.388, 198.199
1440.575, 303.738
1441.762, 1207.025
1442.949, 11.545
1444.135, 614.590
1445.321, 839.840
1446.507, 75.691
1447.693, 902.785
1448.879, 531.916
1450.064, 256.318
1451.250, 1064.662
1452.435, 288.582
1453.620, 132.299
1454.805, 995.717
1455.989, 97.689
1457.174, 829.174
1458.358, 661.988
1459.542, 132.119
1460.726, 934.488
1461.910, 594.506
1463.093, 66.402
1464.277, 1117.498
1465.460, 329.205
1466.643, 521.283
1467.826, 1053.771
1469.009, 166.135
1470.191, 819.041
1471.373, 891.906
1472.556, 65.064
1473.738, 1118.158
1474.919, 610.178
1476.101, 253.041
1477.283, 1163.807
1478.464, 233.975
1479.645, 506.145
1480.826, 948.568
1482.007, 195.875
1483.187, 775.861
1484.368, 828.438
1485.548, 58.744
1486.728, 913.385
1487.908, 694.887
1489.088, 207.654
1490.268, 1120.068
1491.447, 562.041
1492.626, 15.555
1493.805, 1349.176
1494.984, 252.879
1496.163, 345.492
1497.341, 1139.240
1498.520, 23.137
1499.698, 637.365
1500.876, 1041.957
1502.054, 12.861
1503.232, 900.709
1504.409, 644.139
1505.586, 207.652
1506.763, 1208.604
1507.940, 661.676
1509.117, 271.963
1510.294, 1423.801
1511.470, 159.797
1512.647, 560.260
1513.823, 969.455
1514.999, 3.383
1516.174, 700.043
1517.350, 612.707
1518.526, 0.000
##END=



