##NAMES=Witherite
##RRUFFID=R040040
##IDEAL CHEMISTRY=BaCO_3_
##LOCALITY=Cave-in-Rock, Hardin County, Illinois, USA
##OWNER=RRUFF
##SOURCE=University of Arizona Mineral Museum
##DESCRIPTION=Tan colored prismatic group of columnar crystals
##STATUS=The identification of this mineral has been confirmed by X-ray diffraction and chemical analysis
##URL=rruff.info/R040040
##MEASURED CHEMISTRY=(Ba_0.98_Sr_0.02_)_Î£=1_CO_3_; CO_2_ estimated by difference
##PIN_ID=L00180
##ORIENTATION=Laser parallel to -c* (0 0 -1). Fiducial mark perpendicular to laser is parallel to -a [-1 0 0]
124.675, 0.000
126.063, 3.272
127.452, 127.044
128.840, 144.372
130.228, 271.520
131.615, 395.547
133.003, 494.658
134.390, 497.820
135.777, 534.134
137.164, 642.952
138.550, 423.820
139.937, 386.400
141.323, 210.795
142.709, 456.863
144.094, 393.897
145.480, 521.801
146.865, 660.451
148.250, 649.788
149.635, 779.760
151.019, 970.309
152.403, 1211.374
153.788, 1832.909
155.171, 2504.867
156.555, 3948.405
157.939, 5276.809
159.322, 6733.138
160.705, 5646.100
162.088, 4269.511
163.470, 2764.034
164.853, 1568.067
166.235, 1182.348
167.617, 516.853
168.998, 541.620
170.380, 256.635
171.761, 301.857
173.142, 187.467
174.523, 113.207
175.904, 199.069
177.284, 5.056
178.664, 131.160
180.044, 127.372
181.424, 213.685
182.803, 130.097
184.183, 6.603
185.562, 263.199
186.940, 20.115
188.319, 126.657
189.698, 6.486
191.076, 59.542
192.454, 57.501
193.831, 45.363
195.209, 41.918
196.586, 29.301
197.963, 129.987
199.340, 187.537
200.717, 47.705
202.093, 14.673
203.470, 103.006
204.846, 160.740
206.221, 68.593
207.597, 216.484
208.972, 314.341
210.347, 332.214
211.722, 460.106
213.097, 421.294
214.472, 1039.204
215.846, 1137.609
217.220, 1375.552
218.594, 1405.312
219.967, 1220.310
221.341, 1328.256
222.714, 1296.234
224.087, 1284.245
225.460, 1322.286
226.832, 1120.359
228.204, 908.465
229.577, 757.024
230.948, 575.204
232.320, 473.416
233.692, 491.659
235.063, 389.934
236.434, 328.240
237.805, 326.577
239.175, 164.958
240.545, 243.378
241.916, 141.816
243.286, 180.277
244.655, 168.767
246.025, 117.282
247.394, 155.840
248.763, 14.439
250.132, 173.062
251.501, 121.743
252.869, 190.491
254.237, 109.261
255.605, 88.147
256.973, 166.961
258.340, 45.793
259.708, 166.384
261.075, 55.237
262.442, 54.143
263.808, 166.539
265.175, 35.480
266.541, 194.459
267.907, 6.910
269.273, 225.933
270.639, 51.749
272.004, 87.312
273.369, 156.407
274.734, 44.478
276.099, 94.653
277.463, 73.801
278.828, 82.965
280.192, 72.134
281.556, 121.311
282.919, 80.493
284.283, 129.693
285.646, 151.864
287.009, 52.396
288.372, 11.600
289.734, 178.500
291.097, 174.989
292.459, 43.149
293.821, 70.626
295.183, 80.937
296.544, 88.788
297.905, 146.784
299.266, 166.003
300.627, 55.763
301.988, 234.298
303.348, 72.711
304.709, 101.205
306.069, 10.228
307.428, 68.401
308.788, 167.091
310.147, 34.163
311.507, 174.627
312.865, 103.335
314.224, 75.532
315.583, 184.443
316.941, 113.394
318.299, 152.382
319.657, 91.406
321.015, 220.459
322.372, 139.519
323.729, 38.594
325.086, 177.700
326.443, 76.835
327.800, 165.994
329.156, 45.179
330.512, 124.389
331.868, 143.622
333.224, 7.121
334.579, 283.137
335.935, 112.434
337.290, 271.749
338.645, 151.082
339.999, 150.432
341.354, 179.802
342.708, 189.188
344.062, 148.592
345.416, 148.010
346.769, 57.441
348.123, 156.889
349.476, 36.350
350.829, 275.591
352.182, 37.794
353.534, 207.238
354.887, 245.630
356.239, 235.157
357.591, 153.935
358.942, 73.482
360.294, 233.042
361.645, 52.595
362.996, 122.156
364.347, 171.717
365.698, 71.112
367.048, 290.688
368.398, 22.909
369.748, 242.500
371.098, 82.100
372.448, 91.705
373.797, 131.318
375.146, 83.849
376.495, 313.461
377.844, 16.732
379.192, 156.354
380.540, 205.983
381.889, 75.887
383.236, 135.487
384.584, 5.096
385.932, 174.709
387.279, 214.338
388.626, 193.964
389.973, 273.596
391.319, 26.765
392.666, 212.908
394.012, 62.587
395.358, 152.292
396.704, 162.004
398.049, 28.047
399.394, 137.785
400.740, 52.474
402.084, 257.332
403.429, 77.115
404.774, 68.405
406.118, 278.201
407.462, 51.985
408.806, 98.407
410.150, 18.198
411.493, 85.241
412.836, 145.037
414.179, 45.166
415.522, 114.623
416.865, 74.414
418.207, 46.097
419.549, 145.922
420.891, 76.091
422.233, 255.919
423.575, 115.747
424.916, 105.653
426.257, 135.466
427.598, 35.278
428.939, 225.092
430.279, 24.889
431.619, 324.879
432.959, 93.239
434.299, 63.114
435.639, 232.894
436.978, 101.481
438.318, 252.020
439.657, 211.791
440.996, 321.772
442.334, 121.552
443.673, 38.672
445.011, 171.546
446.349, 8.695
447.687, 291.042
449.024, 30.770
450.361, 160.493
451.699, 190.226
453.036, 0.033
454.372, 139.706
455.709, 30.550
457.045, 209.176
458.381, 108.903
459.717, 1.365
461.053, 448.356
462.388, 13.681
463.724, 206.031
465.059, 125.743
466.394, 35.455
467.728, 304.901
469.063, 44.612
470.397, 294.321
471.731, 263.002
473.065, 37.294
474.398, 338.320
475.732, 57.991
477.065, 387.660
478.398, 67.325
479.731, 106.992
481.063, 306.786
482.396, 66.445
483.728, 136.252
485.060, 205.905
486.391, 205.563
487.723, 255.219
489.054, 114.870
490.385, 254.517
491.716, 104.159
493.047, 253.799
494.377, 3.163
495.708, 42.782
497.038, 222.406
498.368, 62.023
499.697, 251.648
501.027, 121.942
502.356, 141.555
503.685, 331.370
505.014, 170.973
506.342, 420.567
507.671, 220.311
508.999, 319.893
510.327, 249.469
511.655, 20.960
512.982, 378.579
514.310, 149.017
515.637, 248.546
516.964, 268.069
518.291, 107.701
519.617, 387.211
520.944, 96.808
522.270, 216.303
523.596, 165.966
524.921, 175.465
526.247, 384.959
527.572, 15.555
528.897, 243.898
530.222, 173.342
531.547, 142.779
532.871, 312.209
534.196, 18.373
535.520, 371.012
536.844, 29.611
538.167, 239.727
539.491, 319.053
540.814, 38.373
542.137, 377.682
543.460, 116.980
544.783, 326.404
546.105, 55.686
547.427, 105.271
548.749, 344.535
550.071, 74.416
551.393, 181.125
552.714, 200.361
554.035, 175.021
555.356, 334.234
556.677, 62.072
557.998, 367.064
559.318, 116.191
560.638, 83.859
561.958, 452.963
563.278, 23.398
564.597, 162.465
565.917, 91.520
567.236, 48.045
568.555, 297.068
569.874, 73.607
571.192, 285.406
572.511, 114.332
573.829, 151.510
575.147, 410.410
576.464, 17.521
577.782, 456.389
579.099, 65.246
580.416, 196.592
581.733, 165.418
583.050, 94.230
584.366, 343.398
585.683, 192.186
586.999, 241.480
588.315, 400.236
589.630, 78.980
590.946, 297.893
592.261, 96.617
593.576, 295.660
594.891, 314.354
596.206, 53.039
597.520, 311.703
598.834, 80.355
600.148, 391.828
601.462, 300.449
602.776, 66.148
604.089, 304.846
605.402, 252.104
606.715, 340.664
608.028, 249.211
609.341, 167.742
610.653, 546.271
611.965, 143.850
613.277, 452.594
614.589, 308.451
615.901, 186.922
617.212, 445.791
618.523, 243.139
619.834, 412.375
621.145, 299.062
622.456, 177.473
623.766, 536.137
625.076, 264.516
626.386, 522.973
627.696, 241.322
629.006, 299.662
630.315, 488.035
631.624, 213.150
632.933, 401.469
634.242, 379.771
635.551, 288.061
636.859, 427.145
638.167, 105.408
639.475, 443.842
640.783, 102.076
642.090, 290.295
643.398, 530.949
644.705, 239.137
646.012, 547.311
647.318, 315.949
648.625, 314.094
649.931, 412.646
651.237, 350.760
652.543, 437.875
653.849, 378.246
655.155, 276.324
656.460, 537.031
657.765, 55.082
659.070, 613.107
660.375, 101.666
661.679, 309.662
662.984, 367.641
664.288, 115.604
665.592, 463.549
666.895, 242.021
668.199, 339.938
669.502, 275.121
670.805, 43.008
672.108, 380.879
673.411, 298.846
674.713, 126.688
676.016, 384.514
677.318, 132.326
678.620, 460.170
679.921, 123.061
681.223, 230.875
682.524, 428.680
683.825, 206.467
685.126, 551.604
686.427, 939.363
687.727, 2187.105
689.028, 4124.859
690.328, 4012.596
691.628, 3327.416
692.927, 1075.545
694.227, 669.590
695.526, 527.277
696.825, 305.156
698.124, 382.531
699.423, 240.371
700.721, 107.994
702.020, 335.602
703.318, 83.311
704.616, 280.885
705.913, 48.445
707.211, 104.014
708.508, 363.441
709.805, 49.117
711.102, 468.262
712.399, 34.375
713.695, 176.625
714.992, 343.920
716.288, 148.662
717.584, 538.496
718.879, 15.662
720.175, 201.307
721.470, 168.434
722.765, 45.529
724.060, 252.031
725.355, 79.121
726.649, 128.949
727.944, 406.012
729.238, 13.061
730.532, 490.100
731.825, 102.877
733.119, 264.697
734.412, 391.625
735.705, 11.803
736.998, 525.076
738.291, 231.939
739.584, 58.713
740.876, 465.547
742.168, 32.371
743.460, 249.174
744.752, 245.967
746.043, 102.551
747.334, 499.314
748.626, 65.967
749.916, 212.701
751.207, 349.424
752.498, 145.369
753.788, 472.066
755.078, 21.459
756.368, 425.188
757.658, 211.820
758.947, 117.998
760.237, 364.619
761.526, 201.232
762.815, 417.838
764.104, 254.426
765.392, 213.328
766.680, 519.896
767.969, 86.455
769.257, 503.000
770.544, 479.547
771.832, 46.078
773.119, 522.869
774.406, 9.383
775.693, 365.934
776.980, 302.422
778.267, 78.898
779.553, 335.359
780.839, 121.811
782.125, 408.248
783.411, 354.674
784.697, 131.090
785.982, 307.914
787.267, 294.318
788.552, 170.715
789.837, 397.098
791.122, 3.469
792.406, 430.902
793.690, 97.113
794.974, 173.443
796.258, 529.852
797.542, 23.842
798.825, 392.631
800.108, 158.895
801.391, 25.150
802.674, 471.387
803.957, 37.619
805.239, 353.832
806.522, 270.037
807.804, 23.764
809.085, 495.158
810.367, 28.686
811.649, 257.441
812.930, 472.879
814.211, 9.018
815.492, 494.932
816.772, 381.045
818.053, 407.152
819.333, 203.092
820.613, 9.201
821.893, 475.383
823.173, 141.740
824.452, 367.828
825.732, 414.795
827.011, 110.867
828.290, 537.154
829.568, 163.547
830.847, 299.592
832.125, 477.418
833.403, 66.559
834.681, 599.262
835.959, 186.514
837.236, 182.471
838.514, 319.070
839.791, 205.020
841.068, 510.959
842.345, 292.264
843.621, 338.186
844.898, 736.201
846.174, 52.115
847.450, 648.014
848.726, 283.971
850.001, 99.867
851.277, 755.752
852.552, 101.631
853.827, 537.496
855.102, 403.148
856.376, 118.998
857.651, 744.527
858.925, 360.922
860.199, 586.119
861.473, 573.109
862.746, 228.943
864.020, 789.332
865.293, 145.348
866.566, 266.664
867.839, 712.498
869.112, 98.416
870.384, 592.760
871.656, 478.576
872.928, 253.039
874.200, 418.857
875.472, 284.672
876.744, 369.975
878.015, 365.803
879.286, 321.566
880.557, 637.336
881.828, 133.195
883.098, 387.889
884.369, 663.734
885.639, 48.334
886.909, 637.484
888.178, 283.299
889.448, 336.602
890.717, 642.406
891.987, 148.432
893.256, 533.859
894.524, 179.660
895.793, 174.932
897.061, 590.721
898.330, 116.512
899.598, 612.111
900.865, 487.893
902.133, 203.377
903.401, 809.191
904.668, 165.006
905.935, 410.820
907.202, 326.629
908.468, 329.609
909.735, 655.420
911.001, 141.229
912.267, 386.932
913.533, 542.746
914.799, 278.551
916.064, 544.355
917.330, 49.846
918.595, 255.930
919.860, 441.701
921.124, 267.225
922.389, 322.992
923.653, 338.754
924.918, 44.104
926.182, 659.855
927.445, 94.797
928.709, 660.543
929.972, 406.285
931.236, 131.752
932.499, 637.484
933.761, 293.123
935.024, 248.850
936.286, 544.572
937.549, 10.238
938.811, 485.951
940.073, 331.660
941.334, 227.363
942.596, 463.062
943.857, 22.049
945.118, 443.840
946.379, 509.330
947.640, 55.004
948.900, 870.672
950.161, 63.883
951.421, 400.303
952.681, 495.961
953.940, 181.129
955.200, 647.324
956.459, 302.543
957.719, 188.186
958.978, 613.828
960.236, 62.822
961.495, 633.594
962.753, 216.557
964.012, 132.156
965.270, 465.600
966.527, 210.648
967.785, 406.686
969.043, 292.576
970.300, 138.164
971.557, 389.441
972.814, 104.490
974.071, 60.076
975.327, 376.295
976.583, 38.133
977.840, 508.039
979.095, 73.475
980.351, 19.012
981.607, 455.172
982.862, 209.303
984.117, 506.598
985.372, 197.793
986.627, 26.795
987.882, 469.547
989.136, 5.062
990.390, 130.324
991.644, 356.146
992.898, 108.477
994.152, 237.225
995.405, 47.455
996.659, 147.906
997.912, 332.848
999.165, 118.197
1000.417, 553.770
1001.670, 619.615
1002.922, 184.955
1004.174, 700.086
1005.426, 136.176
1006.678, 231.543
1007.930, 397.639
1009.181, 2.996
1010.432, 468.348
1011.683, 130.451
1012.934, 315.830
1014.185, 561.297
1015.435, 96.682
1016.685, 332.061
1017.935, 708.785
1019.185, 124.162
1020.435, 679.480
1021.684, 206.354
1022.934, 461.803
1024.183, 789.602
1025.432, 195.668
1026.680, 611.104
1027.929, 622.545
1029.177, 97.961
1030.425, 823.391
1031.673, 282.775
1032.921, 658.186
1034.169, 403.852
1035.416, 89.289
1036.663, 692.268
1037.911, 398.543
1039.157, 393.992
1040.404, 939.484
1041.650, 116.684
1042.897, 792.146
1044.143, 448.631
1045.389, 204.553
1046.634, 990.043
1047.880, 267.225
1049.125, 632.693
1050.371, 848.191
1051.615, 633.697
1052.860, 1129.168
1054.105, 1136.217
1055.349, 1611.748
1056.593, 3977.266
1057.837, 14185.154
1059.081, 34590.703
1060.325, 31626.242
1061.568, 11534.191
1062.812, 4729.701
1064.055, 1505.260
1065.298, 1361.133
1066.540, 1046.605
1067.783, 460.518
1069.025, 955.986
1070.267, 851.445
1071.509, 478.086
1072.751, 973.516
1073.993, 398.936
1075.234, 824.160
1076.475, 749.549
1077.716, 335.523
1078.957, 890.914
1080.198, 416.291
1081.438, 441.971
1082.679, 907.359
1083.919, 422.793
1085.159, 848.152
1086.398, 693.494
1087.638, 599.369
1088.877, 864.678
1090.116, 349.965
1091.355, 545.262
1092.594, 990.541
1093.833, 184.721
1095.071, 739.963
1096.309, 445.188
1097.547, 300.525
1098.785, 895.707
1100.023, 60.678
1101.260, 526.461
1102.498, 621.594
1103.735, 116.705
1104.972, 682.809
1106.208, 527.877
1107.445, 263.857
1108.681, 898.885
1109.918, 61.145
1111.154, 496.822
1112.389, 451.801
1113.625, 123.248
1114.860, 541.738
1116.096, 156.586
1117.331, 193.482
1118.566, 668.287
1119.800, 86.932
1121.035, 580.379
1122.269, 604.979
1123.503, 119.365
1124.737, 774.320
1125.971, 127.139
1127.205, 531.717
1128.438, 536.213
1129.671, 130.291
1130.904, 405.182
1132.137, 157.773
1133.370, 72.225
1134.602, 797.867
1135.834, 51.029
1137.066, 496.070
1138.298, 501.643
1139.530, 176.008
1140.762, 691.156
1141.993, 190.824
1143.224, 295.105
1144.455, 633.506
1145.686, 437.734
1146.917, 431.938
1148.147, 247.326
1149.377, 131.469
1150.607, 806.824
1151.837, 351.404
1153.067, 125.453
1154.296, 841.076
1155.526, 115.170
1156.755, 449.109
1157.984, 774.494
1159.213, 91.629
1160.441, 972.871
1161.670, 306.619
1162.898, 370.336
1164.126, 683.818
1165.354, 27.467
1166.581, 431.068
1167.809, 334.611
1169.036, 28.143
1170.263, 872.643
1171.490, 13.299
1172.717, 200.092
1173.943, 745.260
1175.170, 71.432
1176.396, 551.787
1177.622, 470.014
1178.848, 36.842
1180.073, 687.158
1181.299, 320.742
1182.524, 393.732
1183.749, 528.947
1184.974, 182.523
1186.199, 655.398
1187.423, 618.195
1188.648, 30.990
1189.872, 863.510
1191.096, 168.959
1192.320, 301.605
1193.543, 904.979
1194.767, 49.195
1195.990, 591.695
1197.213, 843.504
1198.436, 113.742
1199.659, 908.541
1200.881, 101.465
1202.104, 643.648
1203.326, 845.957
1204.548, 29.107
1205.770, 971.131
1206.991, 714.783
1208.213, 27.426
1209.434, 999.289
1210.655, 443.734
1211.876, 365.945
1213.096, 907.666
1214.317, 286.500
1215.537, 798.133
1216.757, 1000.486
1217.977, 184.145
1219.197, 905.625
1220.417, 518.059
1221.636, 450.656
1222.855, 1181.994
1224.074, 331.555
1225.293, 522.795
1226.512, 884.428
1227.731, 426.877
1228.949, 1067.973
1230.167, 480.738
1231.385, 712.625
1232.603, 1373.607
1233.820, 265.570
1235.038, 836.836
1236.255, 937.668
1237.472, 645.307
1238.689, 896.051
1239.906, 556.760
1241.122, 687.705
1242.338, 1208.352
1243.555, 419.049
1244.771, 819.621
1245.986, 980.154
1247.202, 362.088
1248.417, 952.547
1249.633, 842.975
1250.848, 273.373
1252.063, 1343.717
1253.277, 294.014
1254.492, 554.805
1255.706, 1065.027
1256.920, 354.416
1258.134, 984.576
1259.348, 664.693
1260.562, 488.188
1261.775, 1238.223
1262.988, 107.766
1264.201, 839.582
1265.414, 1099.404
1266.627, 63.490
1267.839, 743.857
1269.052, 863.477
1270.264, 442.609
1271.476, 1142.141
1272.688, 581.016
1273.899, 481.326
1275.111, 910.744
1276.322, 429.441
1277.533, 649.398
1278.744, 768.191
1279.955, 236.582
1281.165, 914.041
1282.376, 382.148
1283.586, 151.604
1284.796, 950.551
1286.006, 338.947
1287.215, 358.762
1288.425, 717.070
1289.634, 174.295
1290.843, 915.041
1292.052, 653.324
1293.261, 231.561
1294.469, 1019.447
1295.678, 236.775
1296.886, 415.012
1298.094, 792.939
1299.302, 99.996
1300.509, 507.715
1301.717, 634.514
1302.924, 132.113
1304.131, 699.594
1305.338, 346.688
1306.545, 557.939
1307.752, 682.193
1308.958, 724.258
1310.164, 958.773
1311.370, 674.430
1312.576, 78.635
1313.782, 1218.164
1314.987, 283.504
1316.193, 380.209
1317.398, 1334.500
1318.603, 150.451
1319.807, 566.967
1321.012, 847.410
1322.216, 6.205
1323.421, 950.074
1324.625, 292.322
1325.829, 91.525
1327.032, 1204.301
1328.236, 70.271
1329.439, 356.170
1330.642, 841.184
1331.845, 83.156
1333.048, 552.391
1334.251, 646.152
1335.453, 128.443
1336.656, 775.859
1337.858, 320.648
1339.060, 155.801
1340.261, 829.186
1341.463, 75.787
1342.664, 419.143
1343.866, 804.174
1345.067, 261.008
1346.267, 1052.170
1347.468, 446.797
1348.669, 108.629
1349.869, 1243.510
1351.069, 137.938
1352.269, 312.309
1353.469, 904.207
1354.668, 48.480
1355.868, 372.652
1357.067, 906.492
1358.266, 49.363
1359.465, 933.973
1360.664, 288.406
1361.862, 82.434
1363.061, 895.238
1364.259, 229.215
1365.457, 183.180
1366.655, 1097.043
1367.852, 69.004
1369.050, 594.297
1370.247, 358.398
1371.444, 117.660
1372.641, 965.984
1373.838, 125.555
1375.035, 259.523
1376.231, 1063.609
1377.427, 217.801
1378.623, 370.004
1379.819, 952.594
1381.015, 45.273
1382.211, 952.070
1383.406, 899.359
1384.601, 346.203
1385.796, 1503.371
1386.991, 439.812
1388.185, 525.777
1389.380, 1141.746
1390.574, 78.645
1391.768, 604.730
1392.962, 1181.402
1394.156, 325.895
1395.350, 892.578
1396.543, 876.332
1397.736, 332.566
1398.929, 1249.102
1400.122, 755.383
1401.315, 671.352
1402.507, 1036.301
1403.700, 181.777
1404.892, 845.734
1406.084, 1209.938
1407.276, 66.020
1408.467, 1221.758
1409.659, 505.859
1410.850, 289.273
1412.041, 1259.988
1413.232, 385.195
1414.423, 867.852
1415.614, 1082.156
1416.804, 227.422
1417.994, 872.652
1419.184, 954.102
1420.374, 256.879
1421.564, 1169.324
1422.753, 754.293
1423.943, 78.312
1425.132, 1609.957
1426.321, 290.848
1427.510, 494.477
1428.698, 1084.078
1429.887, 129.039
1431.075, 1041.965
1432.263, 1093.465
1433.451, 152.160
1434.639, 1302.922
1435.827, 536.137
1437.014, 471.391
1438.201, 1290.613
1439.388, 249.324
1440.575, 841.629
1441.762, 1712.168
1442.949, 549.863
1444.135, 1070.781
1445.321, 1601.223
1446.507, 348.480
1447.693, 1568.676
1448.879, 1207.277
1450.064, 507.273
1451.250, 1746.043
1452.435, 543.727
1453.620, 944.805
1454.805, 1864.684
1455.989, 655.156
1457.174, 1240.871
1458.358, 1511.004
1459.542, 589.672
1460.726, 1538.156
1461.910, 1147.566
1463.093, 826.727
1464.277, 1782.594
1465.460, 825.871
1466.643, 794.512
1467.826, 1591.414
1469.009, 609.320
1470.191, 1135.184
1471.373, 1463.113
1472.556, 549.035
1473.738, 1282.695
1474.919, 1288.520
1476.101, 565.555
1477.283, 1409.527
1478.464, 1123.984
1479.645, 421.902
1480.826, 1650.094
1482.007, 407.305
1483.187, 895.551
1484.368, 1473.680
1485.548, 92.422
1486.728, 1441.449
1487.908, 1070.664
1489.088, 300.004
1490.268, 1359.352
1491.447, 888.742
1492.626, 458.168
1493.805, 1637.660
1494.984, 207.504
1496.163, 867.531
1497.341, 1447.832
1498.520, 119.051
1499.698, 1251.363
1500.876, 1164.453
1502.054, 48.180
1503.232, 1282.594
1504.409, 796.336
1505.586, 382.152
1506.763, 1458.844
1507.940, 296.590
1509.117, 515.633
1510.294, 1676.219
1511.470, 157.988
1512.647, 966.855
1513.823, 1472.594
1514.999, 39.062
1516.174, 1292.363
1517.350, 753.074
1518.526, 353.090
1519.701, 1441.492
1520.876, 229.066
1522.051, 0.000
##END=



