##NAMES=Witherite
##RRUFFID=R040040
##IDEAL CHEMISTRY=BaCO_3_
##LOCALITY=Cave-in-Rock, Hardin County, Illinois, USA
##OWNER=RRUFF
##SOURCE=University of Arizona Mineral Museum
##DESCRIPTION=Tan colored prismatic group of columnar crystals
##STATUS=The identification of this mineral has been confirmed by X-ray diffraction and chemical analysis
##URL=rruff.info/R040040
##MEASURED CHEMISTRY=(Ba_0.98_Sr_0.02_)_Î£=1_CO_3_; CO_2_ estimated by difference
##PIN_ID=L00180
##ORIENTATION=Laser parallel to -c* (0 0 -1). Fiducial mark perpendicular to laser is parallel to -a [-1 0 0]
121.897, 0.000
123.286, 69.366
124.675, 3.852
126.063, 47.351
127.452, 180.329
128.840, 205.519
130.228, 270.347
131.615, 482.801
133.003, 546.156
134.390, 521.883
135.777, 596.591
137.164, 530.978
138.550, 445.805
139.937, 452.983
141.323, 238.239
142.709, 445.448
144.094, 458.506
145.480, 545.340
146.865, 542.873
148.250, 506.041
149.635, 703.784
151.019, 780.046
152.403, 1153.783
153.788, 1397.949
155.171, 2082.515
156.555, 3298.589
157.939, 4413.885
159.322, 5859.461
160.705, 5155.341
162.088, 4111.513
163.470, 2587.955
164.853, 1544.639
166.235, 1111.540
167.617, 668.846
168.998, 606.348
170.380, 323.021
171.761, 284.856
173.142, 193.899
174.523, 174.105
175.904, 210.471
177.284, 124.947
178.664, 221.532
180.044, 145.222
181.424, 152.014
182.803, 106.925
184.183, 48.948
185.562, 162.063
186.940, 4.271
188.319, 154.587
189.698, 50.986
191.076, 24.531
192.454, 73.101
193.831, 1.041
195.209, 136.092
196.586, 58.026
197.963, 116.033
199.340, 49.110
200.717, 61.256
202.093, 89.811
203.470, 136.084
204.846, 242.431
206.221, 38.739
207.597, 148.030
208.972, 176.322
210.347, 277.623
211.722, 243.788
213.097, 345.483
214.472, 605.858
215.846, 736.183
217.220, 876.542
218.594, 867.829
219.967, 848.253
221.341, 1048.714
222.714, 961.658
224.087, 1052.163
225.460, 1032.707
226.832, 975.737
228.204, 746.528
229.577, 587.156
230.948, 467.824
232.320, 338.530
233.692, 359.277
235.063, 310.066
236.434, 290.894
237.805, 341.761
239.175, 82.674
240.545, 263.631
241.916, 74.625
243.286, 117.282
244.655, 118.330
246.025, 99.418
247.394, 180.545
248.763, 61.707
250.132, 232.901
251.501, 84.386
252.869, 126.397
254.237, 107.712
255.605, 19.057
256.973, 210.431
258.340, 31.902
259.708, 133.401
261.075, 24.950
262.442, 73.184
263.808, 114.750
265.175, 3.599
266.541, 148.077
267.907, 10.180
269.273, 102.600
270.639, 14.425
272.004, 56.318
273.369, 138.238
274.734, 10.178
276.099, 162.134
277.463, 4.106
278.828, 86.098
280.192, 11.896
281.556, 90.276
282.919, 72.316
284.283, 34.371
285.646, 108.501
287.009, 27.719
288.372, 87.173
289.734, 36.779
291.097, 146.777
292.459, 46.975
293.821, 17.359
295.183, 127.892
296.544, 38.552
297.905, 119.327
299.266, 50.207
300.627, 98.818
301.988, 144.676
303.348, 34.196
304.709, 2.999
306.069, 18.267
307.428, 29.596
308.788, 200.984
310.147, 52.430
311.507, 134.091
312.865, 24.360
314.224, 117.233
315.583, 69.087
316.941, 30.769
318.299, 172.489
319.657, 4.250
321.015, 186.041
322.372, 52.132
323.729, 129.722
325.086, 121.607
326.443, 33.525
327.800, 195.473
329.156, 52.550
330.512, 179.448
331.868, 71.472
333.224, 6.479
334.579, 275.594
335.935, 37.689
337.290, 179.809
338.645, 81.949
339.999, 134.112
341.354, 86.295
342.708, 28.500
344.062, 90.738
345.416, 83.228
346.769, 175.504
348.123, 77.805
349.476, 70.122
350.829, 122.458
352.182, 44.950
353.534, 187.318
354.887, 80.874
356.239, 83.281
357.591, 185.688
358.942, 48.120
360.294, 250.567
361.645, 36.961
362.996, 65.518
364.347, 38.013
365.698, 70.519
367.048, 253.036
368.398, 6.494
369.748, 209.034
371.098, 91.588
372.448, 14.152
373.797, 176.729
375.146, 39.292
376.495, 181.860
377.844, 5.552
379.192, 107.038
380.540, 0.360
381.889, 14.334
383.236, 198.281
384.584, 100.907
385.932, 123.532
387.279, 146.169
388.626, 98.815
389.973, 191.462
391.319, 30.782
392.666, 203.451
394.012, 6.128
395.358, 18.823
396.704, 211.527
398.049, 99.157
399.394, 261.909
400.740, 115.330
402.084, 127.991
403.429, 130.758
404.774, 29.533
406.118, 172.309
407.462, 55.091
408.806, 77.880
410.150, 120.675
411.493, 82.493
412.836, 135.300
414.179, 11.359
415.522, 111.451
416.865, 24.267
418.207, 132.217
419.549, 145.044
420.891, 48.351
422.233, 131.229
423.575, 24.110
424.916, 86.966
426.257, 159.824
427.598, 42.649
428.939, 195.514
430.279, 78.252
431.619, 141.117
432.959, 53.983
434.299, 116.853
435.639, 229.723
436.978, 12.595
438.318, 215.467
439.657, 158.339
440.996, 231.213
442.334, 173.922
443.673, 26.796
445.011, 139.672
446.349, 27.452
447.687, 235.406
449.024, 58.278
450.361, 171.163
451.699, 204.061
453.036, 206.968
454.372, 74.127
455.709, 47.052
457.045, 189.983
458.381, 112.921
459.717, 95.864
461.053, 378.814
462.388, 31.437
463.724, 181.504
465.059, 103.663
466.394, 116.564
467.728, 189.516
469.063, 122.480
470.397, 285.447
471.731, 18.416
473.065, 121.397
474.398, 213.855
475.732, 16.840
477.065, 289.823
478.398, 72.808
479.731, 165.793
481.063, 218.778
482.396, 81.766
483.728, 103.248
485.060, 186.235
486.391, 99.261
487.723, 102.286
489.054, 185.311
490.385, 86.769
491.716, 59.793
493.047, 302.816
494.377, 105.709
495.708, 128.730
497.038, 161.753
498.368, 54.774
499.697, 147.823
501.027, 141.064
502.356, 54.107
503.685, 250.430
505.014, 23.471
506.342, 306.506
507.671, 121.015
508.999, 204.045
510.327, 207.071
511.655, 30.096
512.982, 343.113
514.310, 2.354
515.637, 290.646
516.964, 103.641
518.291, 46.633
519.617, 309.621
520.944, 205.140
522.270, 146.914
523.596, 160.738
524.921, 213.716
526.247, 236.688
527.572, 9.656
528.897, 232.611
530.222, 85.563
531.547, 168.510
532.871, 301.451
534.196, 64.388
535.520, 207.320
536.844, 50.249
538.167, 322.969
539.491, 55.888
540.814, 31.271
542.137, 211.091
543.460, 113.964
544.783, 186.833
546.105, 129.697
547.427, 122.555
548.749, 255.407
550.071, 80.698
551.393, 162.086
552.714, 194.863
554.035, 89.274
555.356, 232.040
556.677, 47.591
557.998, 295.120
559.318, 67.823
560.638, 28.571
561.958, 331.257
563.278, 66.027
564.597, 196.591
565.917, 149.201
567.236, 231.805
568.555, 314.400
569.874, 112.947
571.192, 419.557
572.511, 32.053
573.829, 154.216
575.147, 326.691
576.464, 50.534
577.782, 371.882
579.099, 34.291
580.416, 136.856
581.733, 149.243
583.050, 111.622
584.366, 283.991
585.683, 106.353
586.999, 258.706
588.315, 201.050
589.630, 83.386
590.946, 425.715
592.261, 78.034
593.576, 290.346
594.891, 162.647
596.206, 104.797
597.520, 357.081
598.834, 89.356
600.148, 381.688
601.462, 203.946
602.776, 96.195
604.089, 278.435
605.402, 118.604
606.715, 330.826
608.028, 303.038
609.341, 215.240
610.653, 447.514
611.965, 30.301
613.277, 331.954
614.589, 254.081
615.901, 116.199
617.212, 408.374
618.523, 250.473
619.834, 332.879
621.145, 322.526
622.456, 304.608
623.766, 506.903
625.076, 168.972
626.386, 353.242
627.696, 295.289
629.006, 237.326
630.315, 381.849
631.624, 253.865
632.933, 315.874
634.242, 207.655
635.551, 169.642
636.859, 341.618
638.167, 93.584
639.475, 395.539
640.783, 177.483
642.090, 239.423
643.398, 500.350
644.705, 212.268
646.012, 324.176
647.318, 326.236
648.625, 368.127
649.931, 400.251
651.237, 192.118
652.543, 663.976
653.849, 316.360
655.155, 288.195
656.460, 486.637
657.765, 78.447
659.070, 410.245
660.375, 7.788
661.679, 253.958
662.984, 455.458
664.288, 27.181
665.592, 418.877
666.895, 220.693
668.199, 122.367
669.502, 323.932
670.805, 25.582
672.108, 375.838
673.411, 127.490
674.713, 149.132
676.016, 250.763
677.318, 2.382
678.620, 324.018
679.921, 46.758
681.223, 268.368
682.524, 269.967
683.825, 231.556
685.126, 602.236
686.427, 534.005
687.727, 1795.590
689.028, 3337.211
690.328, 3478.818
691.628, 2950.416
692.927, 1132.323
694.227, 673.889
695.526, 345.450
696.825, 157.109
698.124, 415.229
699.423, 136.947
700.721, 188.465
702.020, 449.975
703.318, 141.473
704.616, 402.959
705.913, 34.435
707.211, 189.226
708.508, 290.668
709.805, 12.102
711.102, 323.506
712.399, 85.102
713.695, 141.330
714.992, 312.637
716.288, 25.939
717.584, 374.775
718.879, 106.041
720.175, 241.297
721.470, 292.539
722.765, 143.771
724.060, 384.994
725.355, 96.205
726.649, 238.391
727.944, 369.582
729.238, 30.234
730.532, 581.404
731.825, 42.566
733.119, 328.588
734.412, 289.727
735.705, 139.588
736.998, 431.445
738.291, 232.471
739.584, 103.488
740.876, 454.496
742.168, 115.494
743.460, 466.482
744.752, 227.463
746.043, 178.754
747.334, 289.715
748.626, 110.670
749.916, 321.615
751.207, 322.551
752.498, 113.480
753.788, 344.400
755.078, 85.311
756.368, 306.213
757.658, 157.107
758.947, 107.992
760.237, 318.869
761.526, 119.748
762.815, 380.617
764.104, 111.479
765.392, 82.471
766.680, 353.316
767.969, 69.908
769.257, 560.734
770.544, 261.555
771.832, 82.363
773.119, 533.168
774.406, 23.963
775.693, 284.885
776.980, 175.672
778.267, 46.451
779.553, 327.221
780.839, 22.018
782.125, 228.717
783.411, 309.441
784.697, 29.840
785.982, 310.865
787.267, 191.545
788.552, 232.217
789.837, 422.887
791.122, 143.547
792.406, 444.197
793.690, 104.846
794.974, 125.486
796.258, 436.117
797.542, 133.258
798.825, 197.283
800.108, 277.818
801.391, 58.348
802.674, 408.867
803.957, 39.381
805.239, 349.887
806.522, 150.383
807.804, 0.875
809.085, 381.354
810.367, 98.156
811.649, 292.271
812.930, 302.496
814.211, 52.914
815.492, 580.355
816.772, 150.760
818.053, 481.160
819.333, 220.348
820.613, 60.744
821.893, 431.277
823.173, 81.764
824.452, 242.143
825.732, 300.334
827.011, 150.717
828.290, 561.273
829.568, 131.785
830.847, 262.152
832.125, 302.250
833.403, 7.395
834.681, 552.104
835.959, 112.664
837.236, 232.994
838.514, 281.102
839.791, 71.424
841.068, 461.736
842.345, 262.934
843.621, 223.234
844.898, 543.635
846.174, 43.924
847.450, 484.205
848.726, 204.477
850.001, 94.744
851.277, 555.010
852.552, 75.281
853.827, 495.547
855.102, 356.406
856.376, 226.662
857.651, 626.910
858.925, 287.314
860.199, 356.502
861.473, 496.766
862.746, 167.025
864.020, 745.639
865.293, 225.883
866.566, 388.516
867.839, 608.775
869.112, 79.029
870.384, 505.539
871.656, 295.820
872.928, 216.062
874.200, 346.365
875.472, 236.664
876.744, 396.957
878.015, 277.268
879.286, 237.514
880.557, 447.854
881.828, 128.244
883.098, 278.031
884.369, 338.371
885.639, 118.414
886.909, 588.766
888.178, 99.125
889.448, 289.312
890.717, 639.666
891.987, 140.020
893.256, 620.371
894.524, 260.723
895.793, 191.070
897.061, 401.414
898.330, 21.764
899.598, 632.109
900.865, 402.453
902.133, 172.818
903.401, 673.184
904.668, 123.549
905.935, 403.910
907.202, 474.271
908.468, 194.566
909.735, 604.924
911.001, 195.279
912.267, 455.637
913.533, 385.990
914.799, 176.342
916.064, 516.689
917.330, 67.033
918.595, 297.297
919.860, 357.641
921.124, 147.883
922.389, 448.242
923.653, 248.598
924.918, 118.885
926.182, 569.236
927.445, 69.266
928.709, 659.613
929.972, 309.957
931.236, 130.082
932.499, 520.420
933.761, 388.545
935.024, 218.881
936.286, 519.211
937.549, 96.881
938.811, 517.215
940.073, 357.545
941.334, 227.871
942.596, 388.195
943.857, 118.518
945.118, 489.152
946.379, 439.469
947.640, 259.783
948.900, 740.100
950.161, 141.416
951.421, 422.152
952.681, 362.465
953.940, 162.605
955.200, 583.020
956.459, 303.084
957.719, 143.389
958.978, 483.693
960.236, 183.457
961.495, 618.059
962.753, 151.740
964.012, 252.037
965.270, 433.070
966.527, 23.182
967.785, 424.068
969.043, 194.383
970.300, 34.691
971.557, 387.049
972.814, 67.232
974.071, 77.543
975.327, 308.217
976.583, 161.479
977.840, 309.791
979.095, 60.018
980.351, 70.242
981.607, 491.586
982.862, 208.195
984.117, 472.059
985.372, 281.711
986.627, 51.830
987.882, 472.688
989.136, 137.199
990.390, 222.848
991.644, 323.070
992.898, 186.883
994.152, 403.219
995.405, 83.244
996.659, 183.238
997.912, 363.080
999.165, 163.066
1000.417, 593.406
1001.670, 534.230
1002.922, 274.219
1004.174, 504.012
1005.426, 5.627
1006.678, 174.396
1007.930, 384.893
1009.181, 74.904
1010.432, 354.918
1011.683, 175.811
1012.934, 135.824
1014.185, 456.229
1015.435, 216.246
1016.685, 386.340
1017.935, 347.080
1019.185, 277.195
1020.435, 617.203
1021.684, 315.660
1022.934, 395.805
1024.183, 616.688
1025.432, 176.906
1026.680, 667.037
1027.929, 542.086
1029.177, 262.203
1030.425, 762.336
1031.673, 123.557
1032.921, 693.674
1034.169, 404.648
1035.416, 134.916
1036.663, 635.061
1037.911, 337.230
1039.157, 427.328
1040.404, 787.514
1041.650, 188.484
1042.897, 688.650
1044.143, 479.742
1045.389, 170.084
1046.634, 950.262
1047.880, 432.299
1049.125, 702.141
1050.371, 812.299
1051.615, 538.998
1052.860, 989.131
1054.105, 850.400
1055.349, 1530.541
1056.593, 3880.672
1057.837, 13042.029
1059.081, 32022.186
1060.325, 28942.340
1061.568, 10473.328
1062.812, 4093.469
1064.055, 1293.760
1065.298, 973.877
1066.540, 723.982
1067.783, 395.002
1069.025, 875.156
1070.267, 585.301
1071.509, 446.094
1072.751, 896.215
1073.993, 336.324
1075.234, 766.422
1076.475, 656.508
1077.716, 397.066
1078.957, 807.143
1080.198, 317.203
1081.438, 507.447
1082.679, 847.527
1083.919, 417.611
1085.159, 647.684
1086.398, 717.742
1087.638, 368.805
1088.877, 768.852
1090.116, 298.885
1091.355, 348.926
1092.594, 898.953
1093.833, 118.961
1095.071, 688.953
1096.309, 388.932
1097.547, 249.713
1098.785, 659.658
1100.023, 99.627
1101.260, 550.039
1102.498, 339.975
1103.735, 179.895
1104.972, 650.484
1106.208, 220.375
1107.445, 330.510
1108.681, 500.367
1109.918, 59.787
1111.154, 400.449
1112.389, 310.250
1113.625, 40.031
1114.860, 530.057
1116.096, 79.492
1117.331, 251.795
1118.566, 711.508
1119.800, 19.066
1121.035, 581.623
1122.269, 401.121
1123.503, 130.637
1124.737, 640.834
1125.971, 1.080
1127.205, 380.633
1128.438, 550.309
1129.671, 0.322
1130.904, 439.869
1132.137, 187.062
1133.370, 66.674
1134.602, 526.332
1135.834, 45.506
1137.066, 425.207
1138.298, 298.613
1139.530, 137.945
1140.762, 658.490
1141.993, 176.896
1143.224, 196.166
1144.455, 547.967
1145.686, 187.197
1146.917, 536.402
1148.147, 147.369
1149.377, 6.523
1150.607, 666.793
1151.837, 385.895
1153.067, 144.977
1154.296, 536.395
1155.526, 135.422
1156.755, 534.480
1157.984, 404.994
1159.213, 43.938
1160.441, 904.164
1161.670, 164.100
1162.898, 332.953
1164.126, 571.672
1165.354, 130.469
1166.581, 389.230
1167.809, 444.047
1169.036, 107.248
1170.263, 711.986
1171.490, 111.053
1172.717, 269.592
1173.943, 639.637
1175.170, 51.887
1176.396, 626.514
1177.622, 480.514
1178.848, 38.855
1180.073, 607.104
1181.299, 115.533
1182.524, 283.758
1183.749, 643.088
1184.974, 2.049
1186.199, 590.156
1187.423, 542.689
1188.648, 130.730
1189.872, 668.744
1191.096, 115.150
1192.320, 293.072
1193.543, 682.205
1194.767, 11.334
1195.990, 479.131
1197.213, 518.080
1198.436, 63.936
1199.659, 713.699
1200.881, 77.775
1202.104, 485.330
1203.326, 803.084
1204.548, 71.764
1205.770, 719.199
1206.991, 637.986
1208.213, 157.629
1209.434, 854.951
1210.655, 323.600
1211.876, 460.994
1213.096, 1008.203
1214.317, 143.312
1215.537, 770.438
1216.757, 768.201
1217.977, 225.711
1219.197, 872.725
1220.417, 490.564
1221.636, 428.113
1222.855, 875.016
1224.074, 245.943
1225.293, 602.768
1226.512, 759.611
1227.731, 367.656
1228.949, 964.379
1230.167, 432.166
1231.385, 440.074
1232.603, 986.691
1233.820, 165.076
1235.038, 791.945
1236.255, 568.477
1237.472, 470.650
1238.689, 937.129
1239.906, 523.576
1241.122, 620.268
1242.338, 876.662
1243.555, 223.383
1244.771, 749.717
1245.986, 756.025
1247.202, 313.289
1248.417, 929.527
1249.633, 715.729
1250.848, 262.773
1252.063, 938.914
1253.277, 365.029
1254.492, 541.686
1255.706, 877.736
1256.920, 319.553
1258.134, 755.535
1259.348, 511.480
1260.562, 368.963
1261.775, 1094.783
1262.988, 29.982
1264.201, 537.016
1265.414, 912.723
1266.627, 186.408
1267.839, 842.430
1269.052, 557.949
1270.264, 294.197
1271.476, 1119.529
1272.688, 473.793
1273.899, 359.701
1275.111, 724.934
1276.322, 269.000
1277.533, 454.893
1278.744, 399.900
1279.955, 384.299
1281.165, 839.992
1282.376, 364.182
1283.586, 59.654
1284.796, 734.484
1286.006, 148.918
1287.215, 475.008
1288.425, 579.596
1289.634, 135.824
1290.843, 839.756
1292.052, 574.029
1293.261, 68.420
1294.469, 792.406
1295.678, 175.621
1296.886, 580.369
1298.094, 634.443
1299.302, 141.918
1300.509, 512.010
1301.717, 435.389
1302.924, 79.111
1304.131, 592.873
1305.338, 135.588
1306.545, 199.133
1307.752, 1022.188
1308.958, 254.418
1310.164, 838.842
1311.370, 521.436
1312.576, 35.410
1313.782, 1127.658
1314.987, 292.363
1316.193, 325.326
1317.398, 1087.488
1318.603, 90.232
1319.807, 533.004
1321.012, 750.783
1322.216, 36.570
1323.421, 755.988
1324.625, 467.396
1325.829, 110.156
1327.032, 1041.367
1328.236, 163.537
1329.439, 245.764
1330.642, 925.898
1331.845, 22.006
1333.048, 530.018
1334.251, 431.178
1335.453, 86.914
1336.656, 704.004
1337.858, 135.613
1339.060, 127.330
1340.261, 527.135
1341.463, 148.758
1342.664, 370.336
1343.866, 546.217
1345.067, 62.285
1346.267, 798.033
1347.468, 369.492
1348.669, 139.146
1349.869, 890.945
1351.069, 92.197
1352.269, 3.414
1353.469, 864.451
1354.668, 95.615
1355.868, 386.602
1357.067, 748.396
1358.266, 250.477
1359.465, 859.582
1360.664, 261.514
1361.862, 312.531
1363.061, 682.902
1364.259, 213.955
1365.457, 274.994
1366.655, 996.553
1367.852, 32.377
1369.050, 488.043
1370.247, 411.137
1371.444, 147.783
1372.641, 743.186
1373.838, 168.844
1375.035, 123.861
1376.231, 687.928
1377.427, 40.902
1378.623, 354.826
1379.819, 958.682
1381.015, 57.510
1382.211, 1065.391
1383.406, 798.609
1384.601, 292.262
1385.796, 1205.123
1386.991, 348.383
1388.185, 551.400
1389.380, 1004.885
1390.574, 98.018
1391.768, 718.475
1392.962, 1020.598
1394.156, 203.854
1395.350, 856.365
1396.543, 769.146
1397.736, 301.426
1398.929, 1094.295
1400.122, 417.045
1401.315, 537.393
1402.507, 888.795
1403.700, 1.658
1404.892, 798.473
1406.084, 878.807
1407.276, 119.893
1408.467, 1162.402
1409.659, 387.762
1410.850, 307.674
1412.041, 978.105
1413.232, 138.840
1414.423, 573.484
1415.614, 906.775
1416.804, 237.588
1417.994, 808.605
1419.184, 788.072
1420.374, 201.527
1421.564, 893.115
1422.753, 579.418
1423.943, 207.830
1425.132, 1222.301
1426.321, 233.523
1427.510, 611.406
1428.698, 868.406
1429.887, 37.492
1431.075, 738.080
1432.263, 1038.305
1433.451, 79.814
1434.639, 1138.039
1435.827, 424.619
1437.014, 342.416
1438.201, 1150.602
1439.388, 159.291
1440.575, 568.301
1441.762, 1365.326
1442.949, 297.264
1444.135, 916.697
1445.321, 1213.848
1446.507, 258.121
1447.693, 1213.260
1448.879, 821.197
1450.064, 467.605
1451.250, 1364.340
1452.435, 411.344
1453.620, 738.902
1454.805, 1353.062
1455.989, 317.934
1457.174, 904.793
1458.358, 1250.033
1459.542, 356.160
1460.726, 1386.516
1461.910, 822.623
1463.093, 645.086
1464.277, 1529.430
1465.460, 521.887
1466.643, 387.965
1467.826, 1352.057
1469.009, 435.549
1470.191, 891.277
1471.373, 1124.908
1472.556, 328.801
1473.738, 1130.068
1474.919, 1085.543
1476.101, 327.713
1477.283, 1013.463
1478.464, 777.668
1479.645, 313.998
1480.826, 1390.305
1482.007, 386.934
1483.187, 774.090
1484.368, 1091.648
1485.548, 19.238
1486.728, 1077.010
1487.908, 844.920
1489.088, 223.127
1490.268, 1131.730
1491.447, 730.801
1492.626, 350.293
1493.805, 1340.305
1494.984, 90.924
1496.163, 852.385
1497.341, 1264.732
1498.520, 117.965
1499.698, 1152.088
1500.876, 927.174
1502.054, 84.846
1503.232, 1140.961
1504.409, 829.074
1505.586, 408.803
1506.763, 1400.648
1507.940, 252.549
1509.117, 585.449
1510.294, 1501.900
1511.470, 56.500
1512.647, 897.479
1513.823, 1236.912
1514.999, 4.117
1516.174, 0.000
##END=



