##NAMES=Witherite
##RRUFFID=R040040
##IDEAL CHEMISTRY=BaCO_3_
##LOCALITY=Cave-in-Rock, Hardin County, Illinois, USA
##OWNER=RRUFF
##SOURCE=University of Arizona Mineral Museum
##DESCRIPTION=Tan colored prismatic group of columnar crystals
##STATUS=The identification of this mineral has been confirmed by X-ray diffraction and chemical analysis
##URL=rruff.info/R040040
##MEASURED CHEMISTRY=(Ba_0.98_Sr_0.02_)_Î£=1_CO_3_; CO_2_ estimated by difference
##PIN_ID=L00180
##ORIENTATION=Laser parallel to -c* (0 0 -1). Fiducial mark perpendicular to laser is parallel to -a [-1 0 0]
119.119, 0.000
120.508, 84.891
121.897, 2.962
123.286, 11.069
124.675, 15.135
126.063, 11.950
127.452, 133.626
128.840, 96.622
130.228, 190.508
131.615, 318.921
133.003, 369.601
134.390, 342.352
135.777, 444.020
137.164, 633.735
138.550, 459.325
139.937, 567.454
141.323, 648.074
142.709, 948.153
144.094, 904.650
145.480, 1140.530
146.865, 1324.760
148.250, 1153.308
149.635, 1326.149
151.019, 1433.256
152.403, 1838.614
153.788, 2168.212
155.171, 2664.358
156.555, 3704.151
157.939, 4684.176
159.322, 5834.379
160.705, 4834.765
162.088, 3825.355
163.470, 2486.096
164.853, 1409.124
166.235, 990.267
167.617, 566.517
168.998, 531.903
170.380, 324.418
171.761, 307.037
173.142, 210.738
174.523, 195.549
175.904, 170.436
177.284, 76.396
178.664, 193.426
180.044, 163.523
181.424, 165.687
182.803, 121.912
184.183, 42.245
185.562, 48.745
186.940, 82.294
188.319, 164.891
189.698, 3.535
191.076, 64.750
192.454, 124.011
193.831, 97.847
195.209, 109.752
196.586, 0.724
197.963, 136.735
199.340, 94.788
200.717, 90.878
202.093, 185.992
203.470, 74.126
204.846, 234.199
206.221, 89.272
207.597, 204.354
208.972, 168.441
210.347, 363.473
211.722, 415.522
213.097, 549.601
214.472, 955.697
215.846, 1025.818
217.220, 1369.729
218.594, 1453.751
219.967, 1336.923
221.341, 1371.536
222.714, 1384.757
224.087, 1568.002
225.460, 1481.273
226.832, 1374.570
228.204, 1138.993
229.577, 872.395
230.948, 696.820
232.320, 583.267
233.692, 513.737
235.063, 464.230
236.434, 463.745
237.805, 303.274
239.175, 265.817
240.545, 157.396
241.916, 273.994
243.286, 212.614
244.655, 206.254
246.025, 216.915
247.394, 141.595
248.763, 254.514
250.132, 312.165
251.501, 127.856
252.869, 69.565
254.237, 158.294
255.605, 88.043
256.973, 108.808
258.340, 141.590
259.708, 127.410
261.075, 11.447
262.442, 199.322
263.808, 126.268
265.175, 86.229
266.541, 114.645
267.907, 136.689
269.273, 197.747
270.639, 117.171
272.004, 110.269
273.369, 164.380
274.734, 62.499
276.099, 60.629
277.463, 18.770
278.828, 160.922
280.192, 16.083
281.556, 65.252
282.919, 128.432
284.283, 99.200
285.646, 50.573
287.009, 24.077
288.372, 122.818
289.734, 8.843
291.097, 110.978
292.459, 34.206
293.821, 33.521
295.183, 141.214
296.544, 6.672
297.905, 78.808
299.266, 21.757
300.627, 5.374
301.988, 99.038
303.348, 32.747
304.709, 16.800
306.069, 40.586
307.428, 124.408
308.788, 78.264
310.147, 12.151
311.507, 56.070
312.865, 19.982
314.224, 23.989
315.583, 22.012
316.941, 152.009
318.299, 56.054
319.657, 160.092
321.015, 124.153
322.372, 31.764
323.729, 13.642
325.086, 47.762
326.443, 91.899
327.800, 76.056
329.156, 10.228
330.512, 124.417
331.868, 38.622
333.224, 102.842
334.579, 232.484
335.935, 23.270
337.290, 240.988
338.645, 135.259
339.999, 59.542
341.354, 93.839
342.708, 148.145
344.062, 102.479
345.416, 126.825
346.769, 121.184
348.123, 85.552
349.476, 149.930
350.829, 54.318
352.182, 138.714
353.534, 113.119
354.887, 136.131
356.239, 120.554
357.591, 94.983
358.942, 80.458
360.294, 124.898
361.645, 109.355
362.996, 113.819
364.347, 148.290
365.698, 102.768
367.048, 137.245
368.398, 21.730
369.748, 96.221
371.098, 60.718
372.448, 105.198
373.797, 99.687
375.146, 72.993
376.495, 171.493
377.844, 54.015
379.192, 70.474
380.540, 14.963
381.889, 29.452
383.236, 163.948
384.584, 18.443
385.932, 102.944
387.279, 77.805
388.626, 182.316
389.973, 86.834
391.319, 51.387
392.666, 115.915
394.012, 130.453
395.358, 104.995
396.704, 39.542
398.049, 148.021
399.394, 112.584
400.740, 21.340
402.084, 143.241
403.429, 127.826
404.774, 77.951
406.118, 112.690
407.462, 97.318
408.806, 52.100
410.150, 23.293
411.493, 38.716
412.836, 63.290
414.179, 17.906
415.522, 42.485
416.865, 17.064
418.207, 34.817
419.549, 9.771
420.891, 55.182
422.233, 169.796
423.575, 44.405
424.916, 49.016
426.257, 23.628
427.598, 18.238
428.939, 82.844
430.279, 67.446
431.619, 72.289
432.959, 36.880
434.299, 81.635
435.639, 116.225
436.978, 60.812
438.318, 145.398
439.657, 79.983
440.996, 104.567
442.334, 89.157
443.673, 103.745
445.011, 150.585
446.349, 4.824
447.687, 189.765
449.024, 63.832
450.361, 148.434
451.699, 83.038
453.036, 147.647
454.372, 182.430
455.709, 7.044
457.045, 81.654
458.381, 136.266
459.717, 38.164
461.053, 212.798
462.388, 97.449
463.724, 192.100
465.059, 6.750
466.394, 61.396
467.728, 306.040
469.063, 160.686
470.397, 245.331
471.731, 69.976
473.065, 84.618
474.398, 158.800
475.732, 73.438
477.065, 207.549
478.398, 32.182
479.731, 136.813
481.063, 191.442
482.396, 86.070
483.728, 10.189
485.060, 184.420
486.391, 109.025
487.723, 63.629
489.054, 168.230
490.385, 172.842
491.716, 27.450
493.047, 192.055
494.377, 73.344
495.708, 71.206
497.038, 125.076
498.368, 39.629
499.697, 124.178
501.027, 78.774
502.356, 103.315
503.685, 91.717
505.014, 136.272
506.342, 141.118
507.671, 205.695
508.999, 150.236
510.327, 94.771
511.655, 89.301
512.982, 273.825
514.310, 48.650
515.637, 163.170
516.964, 137.684
518.291, 2.296
519.617, 206.790
520.944, 82.277
522.270, 126.760
523.596, 91.332
524.921, 195.804
526.247, 190.270
527.572, 84.731
528.897, 229.188
530.222, 63.635
531.547, 108.078
532.871, 172.514
534.196, 23.058
535.520, 128.027
536.844, 52.417
538.167, 204.445
539.491, 108.822
540.814, 103.192
542.137, 157.555
543.460, 101.911
544.783, 166.508
546.105, 20.850
547.427, 135.406
548.749, 129.730
550.071, 44.377
551.393, 140.031
552.714, 54.333
554.035, 90.162
555.356, 254.447
556.677, 39.498
557.998, 215.088
559.318, 0.686
560.638, 156.474
561.958, 120.670
563.278, 62.776
564.597, 41.355
565.917, 65.517
567.236, 39.784
568.555, 223.887
569.874, 93.023
571.192, 210.996
572.511, 65.008
573.829, 169.367
575.147, 163.359
576.464, 28.986
577.782, 252.839
579.099, 16.743
580.416, 116.532
581.733, 190.439
583.050, 154.669
584.366, 218.837
585.683, 142.715
586.999, 186.584
588.315, 230.442
589.630, 44.291
590.946, 208.128
592.261, 51.956
593.576, 155.898
594.891, 259.781
596.206, 143.577
597.520, 167.462
598.834, 101.237
600.148, 216.618
601.462, 160.373
602.776, 5.884
604.089, 217.966
605.402, 130.855
606.715, 234.875
608.028, 178.559
609.341, 142.498
610.653, 316.209
611.965, 59.861
613.277, 253.865
614.589, 267.193
615.901, 170.812
617.212, 259.227
618.523, 132.835
619.834, 320.307
621.145, 293.909
622.456, 347.483
623.766, 410.742
625.076, 254.293
626.386, 378.146
627.696, 361.980
629.006, 435.497
630.315, 369.000
631.624, 182.493
632.933, 255.975
634.242, 189.499
635.551, 182.960
636.859, 386.654
638.167, 140.092
639.475, 333.535
640.783, 227.210
642.090, 229.311
643.398, 442.948
644.705, 236.330
646.012, 439.698
647.318, 316.584
648.625, 429.929
649.931, 353.464
651.237, 296.783
652.543, 194.682
653.849, 320.250
655.155, 293.535
656.460, 437.224
657.765, 110.485
659.070, 493.732
660.375, 26.977
661.679, 306.213
662.984, 59.390
664.288, 122.552
665.592, 305.700
666.895, 168.940
668.199, 182.067
669.502, 215.311
670.805, 58.659
672.108, 281.746
673.411, 205.095
674.713, 108.155
676.016, 150.396
677.318, 23.862
678.620, 226.922
679.921, 110.409
681.223, 143.441
682.524, 306.496
683.825, 270.054
685.126, 483.083
686.427, 766.103
687.727, 2059.106
689.028, 3812.115
690.328, 3875.110
691.628, 3055.271
692.927, 1138.259
694.227, 671.235
695.526, 334.210
696.825, 257.174
698.124, 270.123
699.423, 333.060
700.721, 75.982
702.020, 278.893
703.318, 81.528
704.616, 164.410
705.913, 57.280
707.211, 10.099
708.508, 272.929
709.805, 5.739
711.102, 218.529
712.399, 1.308
713.695, 50.135
714.992, 252.870
716.288, 35.917
717.584, 186.763
718.879, 10.569
720.175, 136.539
721.470, 119.022
722.765, 91.609
724.060, 204.031
725.355, 66.618
726.649, 191.775
727.944, 224.343
729.238, 36.860
730.532, 289.404
731.825, 38.064
733.119, 250.904
734.412, 223.394
735.705, 74.950
736.998, 237.466
738.291, 39.871
739.584, 52.460
740.876, 214.840
742.168, 147.210
743.460, 219.569
744.752, 121.917
746.043, 164.394
747.334, 166.722
748.626, 88.873
749.916, 101.180
751.207, 193.476
752.498, 95.761
753.788, 218.035
755.078, 9.700
756.368, 182.540
757.658, 204.770
758.947, 84.735
760.237, 166.944
761.526, 39.146
762.815, 301.337
764.104, 53.518
765.392, 105.945
766.680, 228.104
767.969, 30.081
769.257, 332.217
770.544, 154.346
771.832, 63.536
773.119, 328.892
774.406, 49.050
775.693, 113.067
776.980, 195.072
778.267, 147.069
779.553, 139.057
780.839, 41.035
782.125, 43.004
783.411, 264.958
784.697, 226.904
785.982, 169.033
787.267, 160.960
788.552, 102.880
789.837, 194.789
791.122, 56.688
792.406, 338.577
793.690, 110.457
794.974, 52.329
796.258, 324.557
797.542, 56.413
798.825, 148.260
800.108, 150.096
801.391, 48.075
802.674, 313.714
803.957, 65.497
805.239, 167.269
806.522, 139.035
807.804, 29.186
809.085, 332.564
810.367, 14.312
811.649, 256.050
812.930, 277.724
814.211, 90.541
815.492, 207.435
816.772, 259.105
818.053, 250.520
819.333, 222.141
820.613, 83.789
821.893, 346.129
823.173, 77.762
824.452, 49.391
825.732, 240.975
827.011, 42.588
828.290, 394.191
829.568, 58.801
830.847, 10.395
832.125, 318.359
833.403, 9.932
834.681, 261.494
835.959, 120.131
837.236, 1.691
838.514, 174.369
839.791, 226.016
841.068, 407.551
842.345, 302.613
843.621, 214.184
844.898, 506.596
846.174, 148.111
847.450, 379.615
848.726, 281.201
850.001, 122.689
851.277, 544.174
852.552, 195.646
853.827, 447.117
855.102, 318.398
856.376, 99.877
857.651, 571.100
858.925, 392.727
860.199, 593.830
861.473, 463.941
862.746, 325.391
864.020, 595.297
865.293, 246.734
866.566, 246.387
867.839, 517.477
869.112, 288.912
870.384, 446.377
871.656, 217.818
872.928, 166.889
874.200, 328.369
875.472, 299.807
876.744, 361.125
878.015, 292.596
879.286, 223.885
880.557, 315.373
881.828, 196.859
883.098, 347.982
884.369, 459.457
885.639, 127.328
886.909, 488.811
888.178, 140.285
889.448, 305.893
890.717, 417.365
891.987, 58.500
893.256, 279.686
894.524, 171.141
895.793, 142.691
897.061, 394.137
898.330, 15.588
899.598, 437.037
900.865, 338.477
902.133, 149.830
903.401, 481.227
904.668, 222.701
905.935, 304.068
907.202, 315.531
908.468, 155.377
909.735, 516.834
911.001, 128.285
912.267, 449.611
913.533, 441.070
914.799, 282.195
916.064, 363.641
917.330, 44.818
918.595, 176.209
919.860, 337.646
921.124, 138.715
922.389, 300.145
923.653, 381.570
924.918, 18.188
926.182, 349.604
927.445, 77.143
928.709, 378.535
929.972, 319.941
931.236, 231.340
932.499, 302.738
933.761, 313.816
935.024, 234.898
936.286, 306.283
937.549, 57.662
938.811, 289.043
940.073, 240.416
941.334, 361.732
942.596, 213.096
943.857, 144.213
945.118, 295.568
946.379, 396.898
947.640, 17.982
948.900, 699.324
950.161, 160.416
951.421, 291.748
952.681, 373.078
953.940, 210.873
955.200, 332.730
956.459, 253.848
957.719, 105.164
958.978, 386.889
960.236, 195.920
961.495, 438.518
962.753, 229.400
964.012, 150.689
965.270, 165.602
966.527, 70.828
967.785, 372.764
969.043, 94.061
970.300, 155.354
971.557, 297.541
972.814, 11.271
974.071, 120.006
975.327, 172.053
976.583, 43.076
977.840, 245.168
979.095, 146.152
980.351, 62.594
981.607, 398.711
982.862, 130.490
984.117, 230.664
985.372, 94.459
986.627, 124.402
987.882, 317.451
989.136, 21.998
990.390, 89.061
991.644, 300.822
992.898, 68.129
994.152, 103.059
995.405, 15.881
996.659, 155.146
997.912, 226.166
999.165, 97.182
1000.417, 578.189
1001.670, 569.891
1002.922, 260.895
1004.174, 381.891
1005.426, 103.465
1006.678, 114.500
1007.930, 275.688
1009.181, 77.014
1010.432, 388.037
1011.683, 176.252
1012.934, 237.271
1014.185, 408.389
1015.435, 229.848
1016.685, 170.889
1017.935, 512.420
1019.185, 143.490
1020.435, 454.521
1021.684, 418.879
1022.934, 259.914
1024.183, 567.422
1025.432, 199.223
1026.680, 370.250
1027.929, 552.260
1029.177, 123.271
1030.425, 544.287
1031.673, 226.426
1032.921, 447.422
1034.169, 418.496
1035.416, 130.070
1036.663, 461.090
1037.911, 532.928
1039.157, 464.555
1040.404, 855.582
1041.650, 307.652
1042.897, 468.463
1044.143, 549.500
1045.389, 130.523
1046.634, 741.535
1047.880, 384.883
1049.125, 486.100
1050.371, 747.090
1051.615, 618.125
1052.860, 919.094
1054.105, 1111.000
1055.349, 1581.977
1056.593, 4272.943
1057.837, 16305.201
1059.081, 40226.184
1060.325, 38247.141
1061.568, 14479.340
1062.812, 5300.285
1064.055, 1811.367
1065.298, 1192.447
1066.540, 843.359
1067.783, 645.225
1069.025, 776.195
1070.267, 667.152
1071.509, 438.969
1072.751, 639.906
1073.993, 360.963
1075.234, 612.223
1076.475, 653.141
1077.716, 264.252
1078.957, 635.295
1080.198, 536.188
1081.438, 477.418
1082.679, 668.309
1083.919, 429.186
1085.159, 560.057
1086.398, 610.910
1087.638, 362.314
1088.877, 613.145
1090.116, 323.955
1091.355, 364.758
1092.594, 725.541
1093.833, 316.309
1095.071, 497.064
1096.309, 317.801
1097.547, 248.469
1098.785, 429.168
1100.023, 229.854
1101.260, 461.131
1102.498, 421.783
1103.735, 82.432
1104.972, 483.883
1106.208, 464.494
1107.445, 115.143
1108.681, 525.721
1109.918, 3.711
1111.154, 266.826
1112.389, 507.344
1113.625, 42.158
1114.860, 428.295
1116.096, 68.613
1117.331, 251.354
1118.566, 591.727
1119.800, 12.125
1121.035, 463.816
1122.269, 413.479
1123.503, 13.814
1124.737, 504.920
1125.971, 34.941
1127.205, 235.207
1128.438, 355.508
1129.671, 162.615
1130.904, 242.814
1132.137, 266.018
1133.370, 33.822
1134.602, 416.281
1135.834, 39.309
1137.066, 289.379
1138.298, 249.430
1139.530, 59.352
1140.762, 380.230
1141.993, 187.527
1143.224, 217.430
1144.455, 324.625
1145.686, 244.539
1146.917, 254.430
1148.147, 255.035
1149.377, 74.881
1150.607, 655.771
1151.837, 335.992
1153.067, 105.758
1154.296, 457.871
1155.526, 198.389
1156.755, 188.068
1157.984, 469.182
1159.213, 91.193
1160.441, 639.232
1161.670, 240.033
1162.898, 159.514
1164.126, 376.189
1165.354, 155.613
1166.581, 265.006
1167.809, 435.727
1169.036, 24.939
1170.263, 575.041
1171.490, 74.650
1172.717, 94.512
1173.943, 594.850
1175.170, 44.381
1176.396, 313.441
1177.622, 295.885
1178.848, 24.885
1180.073, 413.844
1181.299, 280.609
1182.524, 159.506
1183.749, 539.248
1184.974, 98.893
1186.199, 147.684
1187.423, 478.832
1188.648, 48.035
1189.872, 686.717
1191.096, 734.664
1192.320, 663.281
1193.543, 671.768
1194.767, 2.205
1195.990, 170.975
1197.213, 480.574
1198.436, 120.166
1199.659, 408.139
1200.881, 104.564
1202.104, 332.793
1203.326, 591.066
1204.548, 45.605
1205.770, 603.721
1206.991, 482.598
1208.213, 52.805
1209.434, 590.801
1210.655, 299.695
1211.876, 298.711
1213.096, 786.602
1214.317, 85.223
1215.537, 423.035
1216.757, 730.977
1217.977, 150.441
1219.197, 728.139
1220.417, 326.270
1221.636, 195.131
1222.855, 782.715
1224.074, 291.801
1225.293, 329.363
1226.512, 566.877
1227.731, 291.561
1228.949, 688.959
1230.167, 387.043
1231.385, 416.039
1232.603, 963.336
1233.820, 192.139
1235.038, 449.961
1236.255, 717.143
1237.472, 425.883
1238.689, 572.988
1239.906, 600.064
1241.122, 538.391
1242.338, 745.416
1243.555, 302.412
1244.771, 459.379
1245.986, 696.318
1247.202, 233.873
1248.417, 740.756
1249.633, 727.609
1250.848, 184.830
1252.063, 811.611
1253.277, 368.361
1254.492, 406.293
1255.706, 772.984
1256.920, 428.350
1258.134, 544.984
1259.348, 661.586
1260.562, 435.537
1261.775, 862.078
1262.988, 27.941
1264.201, 476.006
1265.414, 752.398
1266.627, 87.859
1267.839, 535.658
1269.052, 581.949
1270.264, 197.838
1271.476, 903.982
1272.688, 519.266
1273.899, 375.721
1275.111, 781.721
1276.322, 417.400
1277.533, 294.168
1278.744, 630.102
1279.955, 372.904
1281.165, 570.234
1282.376, 425.289
1283.586, 121.062
1284.796, 746.879
1286.006, 181.838
1287.215, 188.314
1288.425, 513.691
1289.634, 70.854
1290.843, 475.049
1292.052, 440.447
1293.261, 195.756
1294.469, 451.078
1295.678, 135.564
1296.886, 290.701
1298.094, 755.785
1299.302, 139.902
1300.509, 194.906
1301.717, 579.414
1302.924, 53.824
1304.131, 508.555
1305.338, 175.977
1306.545, 90.494
1307.752, 744.850
1308.958, 61.188
1310.164, 663.141
1311.370, 566.932
1312.576, 81.125
1313.782, 735.309
1314.987, 216.135
1316.193, 130.230
1317.398, 847.805
1318.603, 91.033
1319.807, 274.971
1321.012, 787.871
1322.216, 8.287
1323.421, 525.492
1324.625, 388.078
1325.829, 78.262
1327.032, 735.258
1328.236, 148.223
1329.439, 181.697
1330.642, 674.289
1331.845, 7.033
1333.048, 260.332
1334.251, 582.561
1335.453, 104.250
1336.656, 448.855
1337.858, 391.912
1339.060, 14.922
1340.261, 305.539
1341.463, 97.857
1342.664, 170.725
1343.866, 483.840
1345.067, 93.375
1346.267, 718.426
1347.468, 341.100
1348.669, 66.260
1349.869, 755.037
1351.069, 167.578
1352.269, 0.082
1353.469, 751.305
1354.668, 133.732
1355.868, 95.982
1357.067, 649.229
1358.266, 298.436
1359.465, 452.648
1360.664, 315.330
1361.862, 7.514
1363.061, 568.807
1364.259, 240.949
1365.457, 62.934
1366.655, 824.354
1367.852, 26.457
1369.050, 338.264
1370.247, 341.023
1371.444, 86.918
1372.641, 544.768
1373.838, 178.242
1375.035, 10.281
1376.231, 492.342
1377.427, 25.277
1378.623, 206.361
1379.819, 788.201
1381.015, 23.492
1382.211, 680.805
1383.406, 675.260
1384.601, 59.660
1385.796, 983.691
1386.991, 397.367
1388.185, 381.617
1389.380, 844.953
1390.574, 199.033
1391.768, 413.133
1392.962, 887.191
1394.156, 131.229
1395.350, 472.680
1396.543, 515.133
1397.736, 18.984
1398.929, 541.895
1400.122, 475.594
1401.315, 369.312
1402.507, 542.512
1403.700, 116.078
1404.892, 608.338
1406.084, 830.834
1407.276, 23.293
1408.467, 786.727
1409.659, 408.996
1410.850, 30.887
1412.041, 803.533
1413.232, 189.713
1414.423, 350.531
1415.614, 782.293
1416.804, 243.506
1417.994, 576.730
1419.184, 597.629
1420.374, 129.365
1421.564, 540.611
1422.753, 441.027
1423.943, 8.748
1425.132, 961.340
1426.321, 312.564
1427.510, 292.391
1428.698, 761.213
1429.887, 112.809
1431.075, 600.947
1432.263, 780.129
1433.451, 189.984
1434.639, 990.750
1435.827, 529.793
1437.014, 261.229
1438.201, 761.707
1439.388, 339.855
1440.575, 548.129
1441.762, 1244.049
1442.949, 274.855
1444.135, 712.861
1445.321, 1130.781
1446.507, 228.889
1447.693, 1059.549
1448.879, 1056.695
1450.064, 332.639
1451.250, 1310.010
1452.435, 559.086
1453.620, 766.082
1454.805, 1353.502
1455.989, 773.338
1457.174, 953.029
1458.358, 1311.178
1459.542, 538.482
1460.726, 1157.678
1461.910, 1083.018
1463.093, 581.811
1464.277, 1258.059
1465.460, 656.449
1466.643, 550.822
1467.826, 1345.264
1469.009, 521.781
1470.191, 759.854
1471.373, 1366.852
1472.556, 462.523
1473.738, 980.254
1474.919, 1003.613
1476.101, 190.900
1477.283, 915.852
1478.464, 863.465
1479.645, 449.459
1480.826, 1246.869
1482.007, 504.598
1483.187, 622.771
1484.368, 1061.354
1485.548, 109.689
1486.728, 1058.424
1487.908, 907.467
1489.088, 236.568
1490.268, 875.744
1491.447, 674.904
1492.626, 224.145
1493.805, 973.543
1494.984, 303.096
1496.163, 392.994
1497.341, 993.195
1498.520, 16.312
1499.698, 964.594
1500.876, 805.812
1502.054, 97.734
1503.232, 730.176
1504.409, 783.104
1505.586, 223.920
1506.763, 1107.770
1507.940, 262.248
1509.117, 297.494
1510.294, 1343.631
1511.470, 58.982
1512.647, 666.070
1513.823, 1047.471
1514.999, 5.889
1516.174, 1025.693
1517.350, 626.660
1518.526, 129.023
1519.701, 1132.498
1520.876, 386.377
1522.051, 2.395
1523.226, 0.000
##END=



