##NAMES=Witherite
##RRUFFID=R050148
##IDEAL CHEMISTRY=BaCO_3_
##LOCALITY=Settlingstones mine, Fourstones, Northumberland, England
##OWNER=RRUFF
##SOURCE=Jim McGlasson
##DESCRIPTION=Tan colored crystal fragment
##STATUS=The identification of this mineral has been confirmed by X-ray diffraction and chemical analysis
##URL=rruff.info/R050148
##MEASURED CHEMISTRY=(Ba_0.96_Sr_0.04_)CO_3_
##PIN_ID=M00358
##ORIENTATION=Laser parallel to a* (1 0 0). Fiducial mark perpendicular to laser is parallel to -b [0 -1 0]
50.765, 0.000
52.166, 5.630
53.566, 53.165
54.966, 74.056
56.365, 70.157
57.765, 117.124
59.164, 108.882
60.563, 70.098
61.962, 29.781
63.360, 13.174
64.758, 20.877
66.157, 9.438
67.554, 3.046
68.952, 88.488
70.349, 94.813
71.747, 11.956
73.144, 72.856
74.540, 117.457
75.937, 193.704
77.333, 315.549
78.729, 988.949
80.125, 1654.868
81.521, 1127.273
82.916, 1099.136
84.311, 1054.432
85.706, 1094.139
87.101, 962.236
88.496, 1081.706
89.890, 1088.534
91.284, 1156.705
92.678, 1158.204
94.071, 1175.014
95.465, 1370.109
96.858, 1290.464
98.251, 1412.061
99.644, 1402.888
101.036, 1476.932
102.428, 1514.187
103.820, 1590.643
105.212, 1674.296
106.604, 1632.139
107.995, 1652.168
109.387, 1611.381
110.777, 1666.771
112.168, 1722.335
113.559, 1733.069
114.949, 1758.968
116.339, 1677.031
117.729, 1801.252
119.119, 1866.630
120.508, 1996.160
121.897, 2086.842
123.286, 2178.674
124.675, 2120.656
126.063, 2160.785
127.452, 2329.057
128.840, 2394.471
130.228, 2674.026
131.615, 2861.718
133.003, 3158.547
134.390, 3834.494
135.777, 4476.488
137.164, 5736.519
138.550, 6813.570
139.937, 7790.640
141.323, 7840.695
142.709, 7341.765
144.094, 7040.882
145.480, 6813.058
146.865, 7695.294
148.250, 8055.592
149.635, 8731.953
151.019, 8578.392
152.403, 7914.910
153.788, 7403.498
155.171, 7203.158
156.555, 7702.890
157.939, 7542.706
159.322, 6868.604
160.705, 5680.582
162.088, 4479.644
163.470, 3677.795
164.853, 2968.042
166.235, 2656.375
167.617, 2031.782
168.998, 1777.260
170.380, 1478.811
171.761, 1300.446
173.142, 1269.153
174.523, 1042.932
175.904, 1091.784
177.284, 995.708
178.664, 1014.704
180.044, 967.777
181.424, 973.920
182.803, 1108.133
184.183, 1067.417
185.562, 1161.772
186.940, 1015.196
188.319, 964.691
189.698, 938.259
191.076, 819.910
192.454, 797.665
193.831, 807.507
195.209, 812.444
196.586, 814.447
197.963, 773.551
199.340, 836.687
200.717, 759.894
202.093, 798.161
203.470, 733.521
204.846, 730.943
206.221, 695.432
207.597, 670.986
208.972, 693.597
210.347, 675.295
211.722, 727.062
213.097, 595.887
214.472, 673.851
215.846, 724.807
217.220, 631.073
218.594, 668.934
219.967, 595.746
221.341, 698.352
222.714, 704.794
224.087, 753.832
225.460, 761.945
226.832, 787.105
228.204, 947.109
229.577, 885.796
230.948, 988.577
232.320, 843.669
233.692, 893.616
235.063, 803.717
236.434, 649.920
237.805, 681.221
239.175, 596.822
240.545, 633.309
241.916, 547.883
243.286, 528.556
244.655, 487.311
246.025, 462.145
247.394, 500.058
248.763, 382.046
250.132, 493.481
251.501, 406.615
252.869, 392.819
254.237, 403.090
255.605, 368.548
256.973, 418.954
258.340, 388.424
259.708, 403.957
261.075, 355.558
262.442, 289.071
263.808, 392.793
265.175, 315.572
266.541, 368.355
267.907, 308.257
269.273, 327.213
270.639, 332.227
272.004, 251.900
273.369, 286.338
274.734, 275.510
276.099, 309.336
277.463, 275.611
278.828, 259.919
280.192, 273.291
281.556, 237.710
282.919, 307.176
284.283, 232.694
285.646, 290.257
287.009, 265.865
288.372, 267.518
289.734, 282.044
291.097, 229.783
292.459, 297.574
293.821, 177.400
295.183, 199.267
296.544, 213.175
297.905, 187.128
299.266, 208.335
300.627, 193.380
301.988, 255.464
303.348, 204.587
304.709, 210.750
306.069, 162.508
307.428, 172.752
308.788, 217.034
310.147, 150.355
311.507, 190.715
312.865, 181.113
314.224, 106.552
315.583, 210.388
316.941, 117.901
318.299, 192.451
319.657, 128.038
321.015, 64.661
322.372, 148.486
323.729, 39.180
325.086, 149.440
326.443, 75.207
327.800, 147.009
329.156, 120.935
330.512, 66.804
331.868, 187.049
333.224, 42.985
334.579, 158.957
335.935, 139.979
337.290, 91.015
338.645, 141.322
339.999, 37.422
341.354, 167.551
342.708, 4.266
344.062, 112.924
345.416, 65.911
346.769, 92.161
348.123, 158.445
349.476, 49.757
350.829, 162.099
352.182, 58.873
353.534, 69.272
354.887, 132.951
356.239, 92.405
357.591, 156.885
358.942, 84.020
360.294, 136.552
361.645, 117.111
362.996, 41.695
364.347, 127.304
365.698, 10.170
367.048, 128.828
368.398, 86.051
369.748, 64.767
371.098, 111.656
372.448, 49.423
373.797, 157.212
375.146, 8.285
376.495, 123.548
377.844, 124.403
379.192, 40.504
380.540, 96.411
381.889, 52.022
383.236, 89.992
384.584, 40.995
385.932, 96.031
387.279, 53.103
388.626, 101.426
389.973, 126.567
391.319, 5.137
392.666, 131.089
394.012, 56.448
395.358, 43.796
396.704, 156.128
398.049, 57.732
399.394, 115.124
400.740, 16.454
402.084, 33.404
403.429, 77.880
404.774, 51.538
406.118, 61.071
407.462, 72.630
408.806, 62.432
410.150, 27.064
411.493, 58.118
412.836, 50.552
414.179, 6.246
415.522, 67.976
416.865, 9.279
418.207, 16.307
419.549, 64.106
420.891, 29.133
422.233, 79.587
423.575, 38.539
424.916, 43.049
426.257, 23.963
427.598, 39.777
428.939, 94.172
430.279, 5.141
431.619, 41.048
432.959, 56.942
434.299, 16.574
435.639, 31.464
436.978, 55.479
438.318, 4.301
439.657, 37.619
440.996, 40.469
442.334, 44.584
443.673, 11.717
445.011, 77.080
446.349, 36.249
447.687, 82.562
449.024, 40.767
450.361, 30.012
451.699, 111.229
453.036, 1.476
454.372, 76.446
455.709, 11.724
457.045, 15.016
458.381, 87.824
459.717, 7.848
461.053, 98.300
462.388, 23.653
463.724, 69.020
465.059, 45.465
466.394, 17.141
467.728, 157.964
469.063, 22.378
470.397, 112.805
471.731, 105.245
473.065, 19.698
474.398, 113.675
475.732, 8.848
477.065, 55.636
478.398, 9.132
479.731, 25.642
481.063, 121.163
482.396, 1.305
483.728, 22.235
485.060, 10.791
486.391, 82.764
487.723, 90.329
489.054, 65.090
490.385, 154.472
491.716, 87.956
493.047, 69.590
494.377, 77.945
495.708, 60.492
497.038, 143.052
498.368, 0.604
499.697, 33.173
501.027, 28.749
502.356, 9.333
503.685, 105.890
505.014, 31.477
506.342, 51.113
507.671, 39.654
508.999, 416.256
510.327, 161.865
511.655, 60.272
512.982, 58.320
514.310, 5.021
515.637, 59.621
516.964, 98.236
518.291, 23.144
519.617, 125.467
520.944, 26.245
522.270, 96.865
523.596, 80.490
524.921, 50.863
526.247, 157.742
527.572, 17.121
528.897, 52.479
530.222, 14.933
531.547, 73.556
532.871, 124.182
534.196, 36.188
535.520, 72.348
536.844, 40.960
538.167, 15.575
539.491, 118.189
540.814, 33.193
542.137, 81.402
543.460, 75.000
544.783, 116.600
546.105, 120.201
547.427, 22.195
548.749, 147.389
550.071, 1.025
551.393, 32.500
552.714, 27.076
554.035, 16.285
555.356, 111.273
556.677, 23.831
557.998, 65.764
559.318, 90.318
560.638, 19.766
561.958, 147.313
563.278, 33.140
564.597, 57.761
565.917, 91.279
567.236, 32.636
568.555, 110.157
569.874, 35.676
571.192, 81.819
572.511, 124.331
573.829, 46.233
575.147, 158.740
576.464, 16.125
577.782, 96.667
579.099, 37.158
580.416, 1.283
581.733, 197.750
583.050, 22.187
584.366, 106.638
585.683, 9.914
586.999, 78.998
588.315, 128.416
589.630, 17.829
590.946, 183.229
592.261, 35.017
593.576, 75.795
594.891, 142.177
596.206, 22.949
597.520, 163.336
598.834, 58.712
600.148, 112.868
601.462, 162.215
602.776, 12.557
604.089, 195.412
605.402, 50.731
606.715, 125.367
608.028, 125.671
609.341, 61.140
610.653, 156.727
611.965, 28.002
613.277, 112.302
614.589, 67.566
615.901, 9.823
617.212, 131.108
618.523, 12.876
619.834, 106.322
621.145, 76.512
622.456, 62.695
623.766, 220.869
625.076, 32.478
626.386, 211.630
627.696, 158.774
629.006, 120.910
630.315, 306.387
631.624, 41.506
632.933, 177.612
634.242, 131.349
635.551, 122.438
636.859, 149.179
638.167, 84.251
639.475, 217.363
640.783, 97.253
642.090, 48.299
643.398, 232.849
644.705, 94.873
646.012, 213.326
647.318, 131.242
648.625, 123.238
649.931, 256.420
651.237, 30.398
652.543, 232.359
653.849, 99.293
655.155, 161.236
656.460, 172.518
657.765, 127.441
659.070, 205.355
660.375, 100.383
661.679, 71.279
662.984, 136.399
664.288, 25.274
665.592, 243.138
666.895, 124.992
668.199, 54.837
669.502, 111.440
670.805, 61.263
672.108, 208.827
673.411, 92.697
674.713, 147.494
676.016, 109.652
677.318, 58.428
678.620, 187.201
679.921, 106.963
681.223, 73.715
682.524, 235.235
683.825, 9.021
685.126, 105.163
686.427, 27.030
687.727, 126.570
689.028, 164.251
690.328, 95.921
691.628, 179.891
692.927, 81.541
694.227, 179.181
695.526, 401.586
696.825, 346.208
698.124, 555.146
699.423, 358.748
700.721, 329.339
702.020, 486.919
703.318, 466.516
704.616, 608.859
705.913, 202.410
707.211, 140.830
708.508, 217.350
709.805, 3.972
711.102, 207.471
712.399, 149.958
713.695, 38.193
714.992, 191.657
716.288, 57.110
717.584, 121.145
718.879, 96.579
720.175, 35.148
721.470, 210.558
722.765, 49.942
724.060, 185.211
725.355, 104.550
726.649, 83.751
727.944, 212.077
729.238, 36.580
730.532, 156.873
731.825, 82.165
733.119, 6.333
734.412, 271.921
735.705, 0.039
736.998, 188.579
738.291, 17.789
739.584, 89.290
740.876, 149.476
742.168, 30.327
743.460, 164.495
744.752, 103.652
746.043, 64.884
747.334, 133.022
748.626, 4.195
749.916, 214.918
751.207, 125.022
752.498, 55.406
753.788, 251.498
755.078, 6.416
756.368, 119.646
757.658, 181.699
758.947, 22.604
760.237, 202.633
761.526, 31.527
762.815, 205.537
764.104, 179.536
765.392, 32.517
766.680, 274.498
767.969, 50.762
769.257, 106.832
770.544, 175.786
771.832, 3.231
773.119, 194.158
774.406, 118.268
775.693, 105.178
776.980, 147.080
778.267, 73.909
779.553, 179.870
780.839, 57.046
782.125, 80.917
783.411, 205.780
784.697, 22.634
785.982, 222.477
787.267, 67.800
788.552, 141.626
789.837, 101.447
791.122, 8.259
792.406, 230.276
793.690, 41.067
794.974, 72.848
796.258, 149.624
797.542, 40.966
798.825, 254.728
800.108, 8.519
801.391, 158.214
802.674, 180.953
803.957, 9.684
805.239, 172.421
806.522, 89.349
807.804, 67.072
809.085, 204.800
810.367, 28.479
811.649, 121.214
812.930, 111.899
814.211, 28.577
815.492, 193.354
816.772, 83.993
818.053, 163.668
819.333, 144.574
820.613, 49.237
821.893, 198.182
823.173, 24.583
824.452, 87.237
825.732, 210.542
827.011, 21.815
828.290, 186.803
829.568, 84.415
830.847, 107.028
832.125, 160.199
833.403, 54.799
834.681, 181.393
835.959, 122.651
837.236, 94.246
838.514, 181.893
839.791, 55.518
841.068, 271.204
842.345, 129.935
843.621, 51.477
844.898, 223.014
846.174, 110.557
847.450, 230.095
848.726, 196.183
850.001, 121.710
851.277, 177.248
852.552, 141.791
853.827, 203.328
855.102, 182.859
856.376, 45.384
857.651, 247.911
858.925, 97.441
860.199, 173.966
861.473, 257.492
862.746, 11.012
864.020, 273.461
865.293, 119.398
866.566, 134.911
867.839, 235.059
869.112, 99.667
870.384, 193.083
871.656, 173.720
872.928, 5.232
874.200, 263.370
875.472, 27.117
876.744, 231.543
878.015, 152.033
879.286, 37.519
880.557, 295.000
881.828, 7.479
883.098, 114.560
884.369, 202.028
885.639, 35.525
886.909, 250.940
888.178, 115.403
889.448, 105.222
890.717, 202.686
891.987, 114.317
893.256, 236.777
894.524, 125.234
895.793, 75.273
897.061, 215.735
898.330, 52.195
899.598, 310.656
900.865, 117.113
902.133, 191.861
903.401, 212.315
904.668, 94.770
905.935, 130.200
907.202, 92.652
908.468, 101.299
909.735, 238.747
911.001, 19.192
912.267, 128.110
913.533, 171.556
914.799, 35.677
916.064, 299.121
917.330, 103.562
918.595, 76.710
919.860, 257.152
921.124, 10.567
922.389, 199.007
923.653, 95.444
924.918, 94.840
926.182, 192.282
927.445, 46.734
928.709, 172.186
929.972, 196.636
931.236, 17.084
932.499, 238.531
933.761, 102.979
935.024, 155.425
936.286, 141.871
937.549, 62.965
938.811, 274.407
940.073, 61.852
941.334, 175.364
942.596, 216.807
943.857, 3.411
945.118, 230.029
946.379, 117.419
947.640, 34.856
948.900, 311.294
950.161, 61.690
951.421, 292.127
952.681, 154.125
953.940, 96.561
955.200, 230.997
956.459, 57.896
957.719, 75.330
958.978, 189.768
960.236, 65.206
961.495, 199.651
962.753, 97.502
964.012, 115.938
965.270, 193.377
966.527, 6.670
967.785, 193.790
969.043, 151.227
970.300, 27.336
971.557, 298.318
972.814, 6.252
974.071, 171.174
975.327, 163.427
976.583, 19.146
977.840, 262.437
979.095, 72.791
980.351, 47.209
981.607, 172.794
982.862, 37.787
984.117, 94.749
985.372, 144.235
986.627, 53.360
987.882, 199.109
989.136, 15.508
990.390, 68.878
991.644, 157.670
992.898, 29.922
994.152, 260.495
995.405, 36.950
996.659, 109.348
997.912, 154.167
999.165, 15.435
1000.417, 211.958
1001.670, 144.947
1002.922, 45.342
1004.174, 354.736
1005.426, 113.129
1006.678, 229.525
1007.930, 270.439
1009.181, 38.834
1010.432, 270.231
1011.683, 124.776
1012.934, 91.201
1014.185, 290.364
1015.435, 33.054
1016.685, 305.378
1017.935, 235.977
1019.185, 22.407
1020.435, 304.049
1021.684, 14.931
1022.934, 125.360
1024.183, 229.558
1025.432, 111.027
1026.680, 380.377
1027.929, 96.372
1029.177, 131.838
1030.425, 285.331
1031.673, 169.797
1032.921, 302.073
1034.169, 272.541
1035.416, 37.008
1036.663, 325.437
1037.911, 66.472
1039.157, 168.944
1040.404, 437.491
1041.650, 417.998
1042.897, 673.496
1044.143, 308.290
1045.389, 251.911
1046.634, 318.426
1047.880, 179.185
1049.125, 391.696
1050.371, 376.232
1051.615, 363.001
1052.860, 606.541
1054.105, 353.586
1055.349, 594.125
1056.593, 861.660
1057.837, 908.539
1059.081, 1844.080
1060.325, 3895.621
1061.568, 15378.354
1062.812, 45240.898
1064.055, 48613.840
1065.298, 27376.377
1066.540, 10148.916
1067.783, 3842.451
1069.025, 2077.987
1070.267, 913.523
1071.509, 689.951
1072.751, 769.482
1073.993, 299.347
1075.234, 539.895
1076.475, 496.439
1077.716, 275.311
1078.957, 617.852
1080.198, 197.391
1081.438, 222.853
1082.679, 370.388
1083.919, 165.182
1085.159, 398.724
1086.398, 241.264
1087.638, 204.909
1088.877, 416.495
1090.116, 50.078
1091.355, 316.985
1092.594, 227.562
1093.833, 155.245
1095.071, 324.818
1096.309, 208.388
1097.547, 220.300
1098.785, 412.862
1100.023, 81.421
1101.260, 287.044
1102.498, 324.604
1103.735, 84.354
1104.972, 340.906
1106.208, 88.457
1107.445, 237.274
1108.681, 359.817
1109.918, 75.356
1111.154, 324.445
1112.389, 196.991
1113.625, 140.092
1114.860, 219.751
1116.096, 47.819
1117.331, 166.025
1118.566, 251.527
1119.800, 28.840
1121.035, 217.635
1122.269, 167.831
1123.503, 108.441
1124.737, 326.121
1125.971, 46.834
1127.205, 160.388
1128.438, 280.858
1129.671, 48.323
1130.904, 338.503
1132.137, 57.227
1133.370, 69.794
1134.602, 292.702
1135.834, 67.444
1137.066, 119.184
1138.298, 231.016
1139.530, 29.574
1140.762, 339.956
1141.993, 89.174
1143.224, 80.568
1144.455, 414.806
1145.686, 0.186
1146.917, 269.888
1148.147, 224.693
1149.377, 60.954
1150.607, 374.410
1151.837, 103.723
1153.067, 165.027
1154.296, 385.154
1155.526, 26.556
1156.755, 253.082
1157.984, 234.758
1159.213, 70.009
1160.441, 279.377
1161.670, 156.611
1162.898, 77.836
1164.126, 304.965
1165.354, 64.829
1166.581, 335.332
1167.809, 67.988
1169.036, 11.129
1170.263, 328.566
1171.490, 104.684
1172.717, 111.792
1173.943, 308.934
1175.170, 2.029
1176.396, 316.223
1177.622, 114.948
1178.848, 156.007
1180.073, 302.055
1181.299, 142.031
1182.524, 358.059
1183.749, 331.703
1184.974, 2.707
1186.199, 316.695
1187.423, 127.260
1188.648, 137.225
1189.872, 403.259
1191.096, 71.285
1192.320, 113.213
1193.543, 375.815
1194.767, 87.827
1195.990, 222.715
1197.213, 162.103
1198.436, 97.964
1199.659, 378.818
1200.881, 35.488
1202.104, 157.303
1203.326, 426.120
1204.548, 76.389
1205.770, 299.163
1206.991, 206.638
1208.213, 96.382
1209.434, 415.114
1210.655, 66.233
1211.876, 244.931
1213.096, 383.079
1214.317, 0.231
1215.537, 325.868
1216.757, 253.904
1217.977, 252.027
1219.197, 488.615
1220.417, 96.480
1221.636, 312.051
1222.855, 372.613
1224.074, 96.891
1225.293, 381.436
1226.512, 216.610
1227.731, 180.645
1228.949, 599.164
1230.167, 121.882
1231.385, 233.766
1232.603, 476.256
1233.820, 181.111
1235.038, 350.581
1236.255, 213.422
1237.472, 119.507
1238.689, 572.945
1239.906, 121.370
1241.122, 306.785
1242.338, 404.188
1243.555, 118.882
1244.771, 374.264
1245.986, 333.634
1247.202, 188.784
1248.417, 532.131
1249.633, 159.465
1250.848, 232.973
1252.063, 470.284
1253.277, 143.941
1254.492, 388.204
1255.706, 323.452
1256.920, 80.025
1258.134, 513.244
1259.348, 79.449
1260.562, 185.469
1261.775, 462.644
1262.988, 133.082
1264.201, 263.291
1265.414, 381.366
1266.627, 143.263
1267.839, 461.652
1269.052, 186.660
1270.264, 170.193
1271.476, 477.171
1272.688, 198.971
1273.899, 322.459
1275.111, 424.395
1276.322, 57.116
1277.533, 487.982
1278.744, 194.685
1279.955, 112.422
1281.165, 588.177
1282.376, 150.836
1283.586, 282.567
1284.796, 427.283
1286.006, 33.587
1287.215, 470.065
1288.425, 247.686
1289.634, 47.248
1290.843, 432.847
1292.052, 150.973
1293.261, 249.588
1294.469, 489.098
1295.678, 24.986
1296.886, 395.682
1298.094, 357.097
1299.302, 51.374
1300.509, 490.146
1301.717, 143.826
1302.924, 133.200
1304.131, 480.376
1305.338, 81.626
1306.545, 237.102
1307.752, 309.171
1308.958, 20.938
1310.164, 236.450
1311.370, 304.253
1312.576, 92.190
1313.782, 413.539
1314.987, 131.972
1316.193, 263.825
1317.398, 286.738
1318.603, 49.514
1319.807, 268.226
1321.012, 209.413
1322.216, 80.102
1323.421, 431.111
1324.625, 290.745
1325.829, 42.353
1327.032, 492.425
1328.236, 80.975
1329.439, 333.493
1330.642, 399.756
1331.845, 41.810
1333.048, 339.932
1334.251, 221.284
1335.453, 27.608
1336.656, 428.558
1337.858, 27.302
1339.060, 215.903
1340.261, 464.621
1341.463, 72.228
1342.664, 437.870
1343.866, 242.212
1345.067, 59.231
1346.267, 495.716
1347.468, 240.666
1348.669, 129.573
1349.869, 392.349
1351.069, 75.153
1352.269, 295.877
1353.469, 305.726
1354.668, 12.332
1355.868, 509.479
1357.067, 137.627
1358.266, 132.689
1359.465, 418.562
1360.664, 151.531
1361.862, 122.861
1363.061, 354.646
1364.259, 34.947
1365.457, 493.429
1366.655, 296.115
1367.852, 81.781
1369.050, 640.137
1370.247, 103.619
1371.444, 136.086
1372.641, 442.176
1373.838, 15.759
1375.035, 167.257
1376.231, 418.628
1377.427, 161.099
1378.623, 432.006
1379.819, 171.996
1381.015, 95.271
1382.211, 392.874
1383.406, 281.287
1384.601, 297.082
1385.796, 493.267
1386.991, 196.062
1388.185, 379.795
1389.380, 517.801
1390.574, 87.891
1391.768, 605.051
1392.962, 301.342
1394.156, 227.959
1395.350, 693.962
1396.543, 179.525
1397.736, 310.319
1398.929, 676.771
1400.122, 30.656
1401.315, 465.113
1402.507, 513.820
1403.700, 87.145
1404.892, 572.389
1406.084, 309.886
1407.276, 236.684
1408.467, 506.321
1409.659, 254.086
1410.850, 187.069
1412.041, 605.913
1413.232, 135.254
1414.423, 393.726
1415.614, 581.708
1416.804, 136.091
1417.994, 609.532
1419.184, 431.301
1420.374, 298.648
1421.564, 851.597
1422.753, 680.596
1423.943, 1128.249
1425.132, 1555.744
1426.321, 1114.703
1427.510, 1252.788
1428.698, 950.399
1429.887, 296.644
1431.075, 774.631
1432.263, 472.571
1433.451, 339.607
1434.639, 589.728
1435.827, 228.392
1437.014, 325.455
1438.201, 581.492
1439.388, 12.839
1440.575, 440.164
1441.762, 450.083
1442.949, 95.027
1444.135, 632.342
1445.321, 179.551
1446.507, 235.907
1447.693, 700.877
1448.879, 67.676
1450.064, 363.854
1451.250, 589.477
1452.435, 122.272
1453.620, 518.557
1454.805, 482.303
1455.989, 58.167
1457.174, 604.108
1458.358, 339.102
1459.542, 173.337
1460.726, 637.329
1461.910, 262.962
1463.093, 338.638
1464.277, 724.373
1465.460, 110.125
1466.643, 485.712
1467.826, 401.201
1469.009, 86.527
1470.191, 621.589
1471.373, 296.854
1472.556, 116.523
1473.738, 690.150
1474.919, 105.254
1476.101, 381.120
1477.283, 633.586
1478.464, 7.133
1479.645, 472.828
1480.826, 394.560
1482.007, 29.087
1483.187, 544.682
1484.368, 340.238
1485.548, 82.610
1486.728, 603.790
1487.908, 238.724
1489.088, 230.684
1490.268, 581.575
1491.447, 4.414
1492.626, 289.398
1493.805, 511.973
1494.984, 4.514
1496.163, 465.574
1497.341, 484.576
1498.520, 59.515
1499.698, 610.214
1500.876, 264.200
1502.054, 0.143
1503.232, 0.000
##END=



