##NAMES=Wulfenite
##RRUFFID=R050024
##IDEAL CHEMISTRY=Pb^2+^Mo^6+^O_4_
##LOCALITY=Old Yuma mine, Tucson, Arizona, USA
##OWNER=RRUFF
##SOURCE=Eugene Schlepp
##DESCRIPTION=Orange flat tabular crystals
##STATUS=The identification of this mineral has been confirmed by X-ray diffraction.
##URL=rruff.info/R050024
##PIN_ID=L00102
##ORIENTATION=Laser parallel to a* (1 0 0). Fiducial mark perpendicular to laser is parallel to -c [0 0 -1]
55.677, 0.000
57.079, 6.614
58.480, 4.365
59.882, 9.895
61.283, 3.510
62.683, 6.178
64.084, 21.645
65.484, 11.711
66.884, 4.261
68.284, 10.986
69.684, 1.823
71.083, 12.722
72.482, 15.741
73.881, 13.824
75.280, 23.030
76.678, 14.353
78.076, 9.786
79.474, 2.321
80.872, 2.048
82.270, 5.672
83.667, 3.477
85.064, 3.641
86.461, 7.684
87.858, 10.657
89.254, 1.563
90.650, 7.595
92.046, 29.813
93.442, 43.090
94.838, 58.423
96.233, 80.810
97.628, 113.250
99.023, 180.739
100.418, 269.274
101.812, 352.851
103.206, 379.469
104.600, 379.125
105.994, 332.816
107.387, 271.540
108.781, 244.297
110.174, 193.086
111.566, 175.905
112.959, 158.754
114.351, 155.632
115.744, 170.538
117.136, 143.473
118.527, 154.435
119.919, 161.424
121.310, 152.440
122.701, 174.482
124.092, 171.549
125.482, 170.643
126.873, 194.760
128.263, 189.903
129.653, 203.070
131.042, 216.261
132.432, 208.476
133.821, 213.715
135.210, 206.977
136.599, 235.263
137.987, 224.571
139.376, 230.899
140.764, 253.232
142.152, 277.574
143.539, 276.923
144.927, 303.279
146.314, 329.644
147.701, 362.015
149.088, 395.395
150.474, 419.783
151.861, 467.179
153.247, 501.583
154.633, 570.993
156.018, 697.404
157.404, 775.826
158.789, 918.260
160.174, 1088.706
161.559, 1216.164
162.943, 1408.635
164.327, 1540.120
165.711, 1693.618
167.095, 1793.129
168.479, 1752.653
169.862, 1676.190
171.246, 1555.740
172.628, 1386.303
174.011, 1199.879
175.394, 1014.468
176.776, 844.070
178.158, 707.685
179.540, 625.314
180.922, 597.956
182.303, 555.610
183.684, 553.277
185.065, 554.957
186.446, 558.649
187.826, 597.354
189.207, 632.071
190.587, 640.800
191.967, 650.541
193.346, 634.297
194.726, 605.064
196.105, 550.843
197.484, 471.633
198.862, 398.438
200.241, 348.255
201.619, 277.086
202.997, 244.928
204.375, 193.782
205.753, 190.646
207.130, 151.527
208.507, 153.422
209.884, 128.330
211.261, 120.250
212.638, 127.180
214.014, 100.123
215.390, 95.079
216.766, 112.046
218.141, 95.026
219.517, 91.019
220.892, 92.026
222.267, 91.621
223.642, 90.235
225.016, 79.864
226.391, 95.502
227.765, 78.150
229.139, 103.803
230.512, 81.463
231.886, 84.133
233.259, 96.812
234.632, 84.492
236.005, 88.149
237.377, 91.836
238.749, 103.516
240.122, 117.212
241.493, 135.924
242.865, 131.654
244.237, 131.398
245.608, 133.139
246.979, 142.733
248.350, 149.519
249.720, 146.320
251.090, 155.974
252.461, 169.467
253.830, 177.851
255.200, 176.673
256.570, 171.541
257.939, 204.420
259.308, 198.311
260.677, 221.214
262.045, 203.130
263.414, 212.056
264.782, 222.996
266.150, 248.947
267.517, 239.908
268.885, 254.880
270.252, 254.899
271.619, 259.920
272.986, 312.955
274.353, 303.968
275.719, 313.992
277.085, 317.022
278.451, 354.061
279.817, 364.111
281.182, 372.170
282.548, 420.239
283.913, 403.315
285.278, 474.401
286.642, 505.498
288.007, 538.603
289.371, 611.721
290.735, 681.842
292.099, 697.971
293.462, 785.110
294.826, 865.256
296.189, 958.410
297.552, 1072.573
298.914, 1236.741
300.277, 1402.919
301.639, 1638.163
303.001, 1870.354
304.363, 2226.552
305.724, 2715.756
307.086, 3339.965
308.447, 4256.183
309.808, 5385.404
311.168, 6968.636
312.529, 9038.873
313.889, 11763.115
315.249, 14553.363
316.609, 16843.617
317.969, 17803.879
319.328, 17484.143
320.687, 15544.420
322.046, 12794.692
323.405, 10074.981
324.764, 7754.270
326.122, 5901.563
327.480, 4471.026
328.838, 3438.326
330.196, 2680.645
331.553, 2187.951
332.910, 1769.262
334.267, 1498.576
335.624, 1242.901
336.981, 1098.238
338.337, 974.866
339.693, 871.203
341.049, 825.551
342.405, 771.984
343.760, 816.478
345.116, 861.909
346.471, 965.251
347.826, 1141.627
349.180, 1232.058
350.535, 1244.406
351.889, 1138.769
353.243, 994.156
354.597, 862.895
355.950, 739.948
357.304, 687.305
358.657, 603.920
360.010, 543.285
361.362, 449.027
362.715, 401.451
364.067, 353.877
365.419, 277.335
366.771, 251.708
368.123, 221.171
369.474, 210.048
370.825, 192.677
372.176, 166.191
373.527, 146.709
374.877, 169.188
376.228, 149.953
377.578, 133.481
378.928, 130.441
380.277, 130.834
381.627, 105.427
382.976, 105.715
384.325, 103.109
385.674, 91.157
387.023, 84.774
388.371, 93.168
389.719, 85.742
391.067, 67.445
392.415, 73.218
393.762, 77.000
395.110, 59.477
396.457, 42.277
397.804, 53.275
399.150, 49.907
400.497, 46.295
401.843, 16.768
403.189, 20.178
404.535, 37.977
405.881, 36.600
407.226, 33.045
408.571, 35.476
409.916, 27.025
411.261, 26.945
412.605, 30.349
413.950, 22.756
415.294, 21.839
416.638, 10.624
417.981, 23.736
419.325, 24.422
420.668, 28.002
422.011, 15.841
423.354, 15.945
424.697, 3.624
426.039, 8.757
427.381, 10.779
428.723, 16.281
430.065, 4.398
431.406, 3.784
432.748, 3.330
434.089, 3.541
435.430, 0.125
436.770, 0.074
438.111, 0.662
439.451, 12.644
440.791, 2.457
442.131, 3.538
443.471, 3.261
444.810, 10.941
446.149, 9.827
447.488, 5.173
448.827, 7.036
450.166, 0.606
451.504, 7.485
452.842, 5.221
454.180, 7.417
455.518, 7.194
456.855, 3.056
458.193, 6.065
459.530, 11.408
460.867, 0.399
462.203, 3.776
463.540, 16.009
464.876, 8.629
466.212, 4.272
467.548, 1.064
468.883, 16.755
470.219, 2.058
471.554, 9.173
472.889, 17.874
474.224, 1.726
475.558, 10.225
476.892, 4.750
478.227, 9.426
479.561, 10.756
480.894, 0.111
482.228, 6.374
483.561, 0.781
484.894, 4.154
486.227, 7.422
487.559, 2.334
488.892, 5.966
490.224, 1.200
491.556, 10.428
492.888, 15.652
494.220, 4.990
495.551, 3.206
496.882, 2.415
498.213, 3.382
499.544, 3.920
500.874, 3.111
502.205, 0.296
503.535, 0.525
504.865, 0.647
506.194, 6.813
507.524, 2.973
508.853, 1.128
510.182, 10.277
511.511, 5.420
512.840, 3.558
514.168, 3.310
515.496, 8.187
516.824, 12.925
518.152, 0.969
519.480, 8.130
520.807, 2.777
522.134, 3.307
523.461, 3.385
524.788, 2.457
526.114, 8.522
527.441, 2.582
528.767, 4.364
530.093, 0.321
531.418, 1.714
532.744, 1.742
534.069, 2.763
535.394, 2.222
536.719, 1.783
538.044, 5.219
539.368, 7.769
540.693, 0.750
542.017, 10.276
543.340, 7.684
544.664, 6.361
545.987, 0.582
547.311, 8.517
548.634, 1.446
549.956, 0.632
551.279, 1.719
552.601, 1.816
553.923, 4.079
555.245, 2.033
556.567, 5.155
557.889, 0.712
559.210, 11.572
560.531, 4.425
561.852, 8.272
563.173, 1.886
564.493, 0.946
565.813, 5.770
567.133, 6.588
568.453, 2.400
569.773, 3.796
571.092, 8.999
572.412, 8.787
573.731, 6.430
575.049, 1.658
576.368, 6.896
577.686, 0.146
579.005, 1.596
580.323, 2.670
581.640, 6.945
582.958, 0.232
584.275, 7.528
585.593, 5.835
586.909, 2.847
588.226, 7.478
589.543, 2.815
590.859, 3.803
592.175, 2.579
593.491, 5.026
594.807, 9.345
596.122, 0.273
597.438, 6.114
598.753, 3.512
600.068, 7.919
601.382, 2.338
602.697, 1.765
604.011, 5.200
605.325, 12.645
606.639, 5.103
607.952, 5.428
609.266, 9.051
610.579, 3.536
611.892, 11.029
613.205, 4.535
614.518, 6.049
615.830, 8.574
617.142, 2.892
618.454, 8.648
619.766, 6.199
621.078, 5.819
622.389, 3.387
623.700, 3.963
625.011, 6.546
626.322, 5.138
627.632, 1.262
628.943, 12.342
630.253, 5.958
631.563, 8.582
632.872, 3.215
634.182, 3.855
635.491, 6.501
636.800, 1.154
638.109, 1.813
639.418, 6.519
640.726, 19.148
642.035, 2.834
643.343, 0.520
644.651, 0.790
645.958, 2.071
647.266, 1.231
648.573, 5.515
649.880, 8.811
651.187, 3.898
652.494, 0.390
653.800, 4.666
655.106, 7.931
656.412, 4.096
657.718, 15.169
659.024, 5.422
660.329, 3.589
661.634, 0.695
662.939, 5.865
664.244, 19.123
665.549, 7.347
666.853, 17.515
668.157, 14.767
669.461, 14.002
670.765, 23.214
672.069, 21.073
673.372, 20.617
674.675, 16.857
675.978, 21.839
677.281, 20.071
678.583, 34.925
679.886, 25.096
681.188, 35.265
682.490, 14.401
683.792, 37.622
685.093, 24.751
686.394, 29.466
687.696, 39.430
688.997, 45.506
690.297, 31.578
691.598, 36.690
692.898, 40.513
694.198, 42.573
695.498, 54.200
696.798, 49.394
698.097, 47.386
699.397, 47.683
700.696, 54.872
701.995, 70.410
703.293, 49.379
704.592, 65.573
705.890, 67.588
707.188, 65.476
708.486, 65.294
709.784, 67.105
711.081, 72.223
712.378, 78.020
713.675, 80.622
714.972, 92.592
716.269, 115.807
717.565, 109.939
718.862, 125.136
720.158, 135.946
721.453, 157.932
722.749, 181.097
724.045, 204.278
725.340, 237.343
726.635, 271.039
727.930, 308.254
729.224, 386.469
730.519, 457.009
731.813, 525.852
733.107, 675.369
734.401, 798.314
735.694, 1030.368
736.988, 1446.167
738.281, 1937.703
739.574, 2609.665
740.867, 3454.173
742.160, 4341.793
743.452, 4943.936
744.744, 5088.463
746.036, 4463.291
747.328, 3800.485
748.620, 2955.348
749.911, 2267.584
751.202, 1761.043
752.493, 1412.114
753.784, 1106.792
755.075, 936.641
756.365, 835.222
757.655, 742.162
758.945, 716.147
760.235, 696.926
761.525, 717.246
762.814, 800.050
764.103, 941.362
765.392, 1135.943
766.681, 1251.884
767.969, 1527.366
769.258, 1130.272
770.546, 968.097
771.834, 797.777
773.122, 659.128
774.409, 545.836
775.697, 480.711
776.984, 430.628
778.271, 380.713
779.558, 351.777
780.844, 334.695
782.131, 336.719
783.417, 330.135
784.703, 310.739
785.989, 321.760
787.274, 313.632
788.560, 324.856
789.845, 338.056
791.130, 340.106
792.415, 346.504
793.699, 349.878
794.983, 376.345
796.268, 399.668
797.552, 445.027
798.835, 447.492
800.119, 513.980
801.402, 536.414
802.686, 586.915
803.969, 660.421
805.251, 724.934
806.534, 783.332
807.816, 850.854
809.098, 976.384
810.380, 1134.920
811.662, 1286.356
812.944, 1472.906
814.225, 1682.461
815.506, 1820.023
816.787, 1912.592
818.068, 1872.168
819.349, 1807.750
820.629, 1659.339
821.909, 1562.934
823.189, 1498.536
824.469, 1438.144
825.749, 1390.760
827.028, 1394.383
828.307, 1455.016
829.586, 1463.656
830.865, 1470.303
832.144, 1505.957
833.422, 1562.619
834.700, 1680.289
835.978, 1744.968
837.256, 1794.654
838.534, 1873.348
839.811, 2006.049
841.088, 2010.758
842.365, 2069.476
843.642, 2204.201
844.919, 2295.935
846.195, 2413.677
847.472, 2531.427
848.748, 2743.185
850.023, 2980.953
851.299, 3280.727
852.575, 3679.509
853.850, 4055.302
855.125, 4631.104
856.400, 5313.918
857.674, 6206.810
858.949, 7413.637
860.223, 8913.539
861.497, 10901.384
862.771, 14021.236
864.045, 18511.381
865.318, 24741.365
866.591, 33401.621
867.864, 44421.508
869.137, 53331.426
870.410, 56561.625
871.682, 51671.539
872.955, 42761.477
874.227, 31961.402
875.499, 23691.342
876.770, 16931.359
878.042, 12411.311
879.313, 9561.447
880.584, 7225.903
881.855, 5942.877
883.126, 4660.879
884.396, 3907.087
885.667, 3270.089
886.937, 2773.456
888.207, 2416.855
889.476, 2101.444
890.746, 1910.808
892.015, 1665.855
893.284, 1419.911
894.553, 1369.976
895.822, 1211.136
897.090, 1161.322
898.359, 1047.453
899.627, 967.004
900.895, 890.377
902.163, 824.782
903.430, 786.713
904.698, 748.082
905.965, 680.431
907.232, 644.585
908.499, 625.747
909.765, 601.950
911.032, 575.229
912.298, 542.418
913.564, 483.662
914.830, 502.871
916.095, 461.442
917.361, 421.155
918.626, 421.138
919.891, 399.650
921.156, 383.886
922.420, 370.523
923.685, 349.368
924.949, 331.369
926.213, 323.523
927.477, 332.975
928.740, 302.738
930.004, 274.482
931.267, 284.147
932.530, 268.967
933.793, 283.001
935.056, 259.191
936.318, 257.548
937.581, 274.066
938.843, 239.570
940.104, 229.944
941.366, 256.325
942.628, 222.927
943.889, 208.391
945.150, 211.847
946.411, 227.274
947.672, 213.687
948.932, 214.111
950.193, 182.540
951.453, 199.975
952.713, 169.416
953.973, 170.863
955.232, 174.314
956.491, 166.771
957.751, 151.233
959.010, 133.702
960.268, 133.175
961.527, 108.654
962.785, 104.138
964.044, 84.628
965.302, 61.123
966.559, 65.624
967.817, 87.131
969.075, 48.642
970.332, 47.158
971.589, 41.692
972.846, 35.219
974.102, 50.750
975.359, 41.296
976.615, 50.836
977.871, 26.394
979.127, 31.026
980.383, 19.581
981.638, 35.141
982.893, 38.706
984.149, 40.274
985.404, 47.047
986.658, 41.886
987.913, 28.635
989.167, 18.222
990.421, 28.848
991.675, 16.450
992.929, 27.052
994.183, 22.659
995.436, 21.505
996.689, 21.121
997.942, 13.741
999.195, 20.365
1000.448, 9.995
1001.700, 24.627
1002.952, 13.262
1004.204, 11.901
1005.456, 8.543
1006.708, 0.189
1007.959, 4.160
1009.210, 3.494
1010.461, 3.848
1011.712, 7.812
1012.963, 8.476
1014.213, 9.857
1015.464, 5.189
1016.714, 11.519
1017.964, 0.150
1019.214, 1.177
1020.463, 9.501
1021.712, 4.174
1022.962, 1.146
1024.210, 4.537
1025.459, 1.222
1026.708, 3.090
1027.956, 2.600
1029.204, 5.708
1030.452, 12.016
1031.700, 1.675
1032.948, 0.633
1034.195, 5.938
1035.442, 7.756
1036.689, 8.548
1037.936, 8.852
1039.183, 12.159
1040.429, 7.467
1041.676, 11.224
1042.922, 6.916
1044.168, 13.610
1045.413, 1.694
1046.659, 1.998
1047.904, 0.302
1049.149, 8.605
1050.394, 4.910
1051.639, 5.217
1052.884, 14.525
1054.128, 3.840
1055.372, 3.155
1056.616, 2.529
1057.860, 3.213
1059.104, 0.899
1060.347, 0.416
1061.590, 3.270
1062.833, 0.957
1064.076, 4.643
1065.319, 4.670
1066.561, 6.985
1067.803, 11.304
1069.046, 2.630
1070.287, 14.958
1071.529, 4.294
1072.771, 7.634
1074.012, 9.978
1075.253, 12.329
1076.494, 0.313
1077.735, 5.046
1078.975, 4.409
1080.216, 2.776
1081.456, 5.146
1082.696, 8.521
1083.936, 10.903
1085.175, 5.708
1086.415, 1.318
1087.654, 1.926
1088.893, 8.533
1090.132, 15.138
1091.371, 0.743
1092.609, 4.346
1093.847, 4.987
1095.085, 6.586
1096.323, 12.185
1097.561, 11.782
1098.799, 9.390
1100.036, 15.039
1101.273, 18.634
1102.510, 29.228
1103.747, 19.820
1104.983, 23.412
1106.220, 17.003
1107.456, 23.750
1108.692, 19.368
1109.928, 13.966
1111.163, 22.571
1112.399, 29.161
1113.634, 25.743
1114.869, 22.780
1116.104, 22.391
1117.339, 38.982
1118.573, 39.558
1119.808, 11.290
1121.042, 21.883
1122.276, 25.532
1123.509, 12.153
1124.743, 38.739
1125.976, 12.390
1127.210, 8.993
1128.443, 19.600
1129.675, 19.361
1130.908, 19.939
1132.141, 21.514
1133.373, 6.208
1134.605, 4.861
1135.837, 7.430
1137.068, 16.989
1138.300, 13.253
1139.531, 15.827
1140.762, 31.455
1141.993, 26.158
1143.224, 6.949
1144.455, 24.640
1145.685, 21.225
1146.915, 24.751
1148.145, 17.353
1149.375, 29.886
1150.605, 27.513
1151.834, 40.061
1153.063, 30.679
1154.292, 32.196
1155.521, 39.095
1156.750, 36.665
1157.978, 30.428
1159.207, 42.915
1160.435, 48.481
1161.663, 58.071
1162.891, 38.343
1164.118, 48.891
1165.345, 56.022
1166.573, 54.704
1167.800, 56.270
1169.026, 51.451
1170.253, 55.479
1171.480, 56.051
1172.706, 61.507
1173.932, 66.976
1175.158, 65.422
1176.383, 54.910
1177.609, 55.243
1178.834, 59.231
1180.059, 56.685
1181.284, 47.196
1182.509, 53.403
1183.734, 58.881
1184.958, 70.061
1186.182, 53.122
1187.406, 53.286
1188.630, 50.503
1189.854, 48.913
1191.077, 49.371
1192.301, 45.794
1193.524, 44.113
1194.747, 44.451
1195.969, 38.832
1197.192, 49.847
1198.414, 43.014
1199.636, 48.113
1200.858, 42.707
1202.080, 43.926
1203.302, 36.087
1204.523, 48.476
1205.744, 38.907
1206.966, 40.267
1208.186, 36.607
1209.407, 40.009
1210.628, 44.312
1211.848, 31.676
1213.068, 36.781
1214.288, 34.645
1215.508, 30.224
1216.727, 37.314
1217.947, 38.678
1219.166, 31.718
1220.385, 35.462
1221.604, 39.088
1222.822, 31.591
1224.041, 28.907
1225.259, 24.786
1226.477, 29.881
1227.695, 26.818
1228.913, 32.634
1230.130, 33.231
1231.348, 27.711
1232.565, 29.048
1233.782, 30.185
1234.999, 26.314
1236.215, 23.592
1237.432, 27.868
1238.648, 24.956
1239.864, 11.132
1241.080, 17.349
1242.296, 17.692
1243.511, 23.942
1244.726, 15.192
1245.942, 10.456
1247.156, 20.717
1248.371, 20.997
1249.586, 25.265
1250.800, 21.481
1252.014, 22.716
1253.228, 4.936
1254.442, 13.261
1255.656, 16.474
1256.869, 14.671
1258.083, 17.869
1259.296, 23.078
1260.509, 1.720
1261.722, 13.479
1262.934, 16.707
1264.147, 19.892
1265.359, 5.069
1266.571, 15.215
1267.783, 9.407
1268.994, 11.568
1270.206, 15.701
1271.417, 8.925
1272.628, 13.051
1273.839, 12.111
1275.050, 3.255
1276.260, 15.387
1277.471, 15.499
1278.681, 5.643
1279.891, 7.553
1281.101, 14.457
1282.310, 15.385
1283.520, 6.516
1284.729, 12.581
1285.938, 7.667
1287.147, 3.740
1288.356, 0.873
1289.564, 3.701
1290.773, 9.776
1291.981, 17.860
1293.189, 7.910
1294.397, 14.956
1295.604, 5.997
1296.812, 12.044
1298.019, 6.075
1299.226, 16.102
1300.433, 1.861
1301.640, 4.167
1302.846, 0.195
1304.053, 9.200
1305.259, 8.209
1306.465, 6.204
1307.671, 8.195
1308.876, 2.184
1310.082, 13.178
1311.287, 1.170
1312.492, 5.146
1313.697, 15.128
1314.902, 4.905
1316.106, 4.057
1317.310, 19.020
1318.515, 15.023
1319.719, 7.982
1320.922, 10.924
1322.126, 7.865
1323.329, 12.414
1324.533, 15.347
1325.736, 6.275
1326.939, 24.235
1328.141, 10.167
1329.344, 5.083
1330.546, 13.996
1331.748, 1.095
1332.950, 3.813
1334.152, 18.725
1335.354, 9.631
1336.555, 13.526
1337.757, 17.416
1338.958, 10.304
1340.159, 12.188
1341.359, 7.068
1342.560, 9.945
1343.760, 16.820
1344.960, 12.693
1346.160, 6.565
1347.360, 18.434
1348.560, 12.303
1349.759, 7.165
1350.959, 11.008
1352.158, 5.848
1353.357, 8.682
1354.555, 16.512
1355.754, 12.338
1356.952, 3.159
1358.151, 12.977
1359.349, 17.792
1360.546, 10.607
1361.744, 11.417
1362.941, 4.228
1364.139, 16.034
1365.336, 9.839
1366.533, 6.643
1367.730, 0.447
1368.926, 9.248
1370.123, 0.852
1371.319, 18.952
1372.515, 11.749
1373.711, 13.546
1374.906, 8.323
1376.102, 6.089
1377.297, 10.843
1378.492, 16.900
1379.687, 13.953
1380.882, 13.963
1382.077, 9.010
1383.271, 22.041
1384.465, 13.023
1385.659, 3.055
1386.853, 17.083
1388.047, 15.903
1389.240, 11.887
1390.434, 11.893
1391.627, 8.358
1392.820, 9.343
1394.013, 22.136
1395.205, 13.974
1396.398, 16.836
1397.590, 2.713
1398.782, 16.422
1399.974, 20.194
1401.166, 18.001
1402.357, 13.057
1403.549, 13.839
1404.740, 12.241
1405.931, 6.884
1407.122, 13.691
1408.313, 14.437
1409.503, 18.153
1410.693, 8.515
1411.883, 13.863
1413.073, 25.559
1414.263, 3.194
1415.453, 15.777
1416.642, 13.185
1417.831, 10.228
1419.020, 11.881
1420.209, 15.591
1421.398, 7.256
1422.587, 14.002
1423.775, 3.684
1424.963, 17.246
1426.151, 12.545
1427.339, 5.132
1428.526, 11.801
1429.714, 18.499
1430.901, 3.103
1432.088, 19.783
1433.275, 10.375
1434.462, 7.090
1435.648, 16.663
1436.835, 13.170
1438.021, 19.859
1439.207, 11.342
1440.393, 16.009
1441.579, 14.502
1442.764, 10.137
1443.949, 10.400
1445.135, 8.571
1446.320, 17.228
1447.504, 10.784
1448.689, 19.265
1449.873, 16.898
1451.058, 12.428
1452.242, 10.044
1453.426, 9.415
1454.609, 13.952
1455.793, 9.386
1456.976, 12.900
1458.159, 17.435
1459.342, 9.724
1460.525, 2.303
1461.708, 8.795
1462.890, 15.186
1464.073, 10.687
1465.255, 8.835
1466.437, 19.714
1467.619, 12.048
1468.800, 3.529
1469.982, 8.070
1471.163, 12.523
1472.344, 22.896
1473.525, 12.288
1474.706, 18.813
1475.886, 8.156
1477.066, 8.543
1478.247, 11.067
1479.427, 13.562
1480.607, 18.092
1481.786, 14.518
1482.966, 23.986
1484.145, 20.488
1485.324, 12.018
1486.503, 19.453
1487.682, 25.935
1488.860, 26.466
1490.039, 8.716
1491.217, 14.192
1492.395, 21.449
1493.573, 29.833
1494.751, 22.934
1495.928, 17.286
1497.106, 12.629
1498.283, 21.861
1499.460, 18.170
1500.637, 18.453
1501.814, 13.708
1502.990, 16.925
1504.166, 8.095
1505.342, 6.183
1506.518, 11.554
1507.694, 15.948
1508.870, 18.352
1510.045, 14.780
1511.221, 0.749
1512.396, 3.818
1513.571, 6.477
1514.745, 16.242
1515.920, 18.053
1517.094, 10.759
1518.269, 0.000
##END=



