##NAMES=Zoisite
##RRUFFID=R050038
##IDEAL CHEMISTRY=Ca_2_Al_3_(Si_2_O_7_)(SiO_4_)O(OH)
##LOCALITY=Elf Shooting Creek, Clay County, North Carolina, USA
##OWNER=RRUFF
##SOURCE=University of Arizona Mineral Museum
##DESCRIPTION=Tan colored fragments of single crystals
##STATUS=The identification of this mineral has been confirmed by X-ray diffraction and chemical analysis
##URL=rruff.info/R050038
##MEASURED CHEMISTRY=(Ca_.998_Na_.002_)_2_(Al_.982_Fe^3+^_.018_)_3_(Si_.982_Fe^3+^_.018_)_3_O_12_(OH)
##PIN_ID=L00073
##ORIENTATION=Laser parallel to -b* (0 -1 0). Fiducial mark perpendicular to laser is parallel to c [0 0 1]
105.994, 0.000
107.387, 5.792
108.781, 139.883
110.174, 600.944
111.566, 1286.995
112.959, 1990.673
114.351, 3052.126
115.744, 4470.085
117.136, 6005.686
118.527, 8009.536
119.919, 8904.839
121.310, 8959.228
122.701, 8267.082
124.092, 6354.360
125.482, 4683.602
126.873, 3053.343
128.263, 1762.879
129.653, 1071.600
131.042, 349.093
132.432, 37.020
133.821, 8.853
135.210, 24.669
136.599, 98.751
137.987, 40.500
139.376, 550.672
140.764, 1145.606
142.152, 2001.008
143.539, 3162.875
144.927, 4780.113
146.314, 6223.073
147.701, 7793.238
149.088, 7721.834
150.474, 6907.592
151.861, 5800.204
153.247, 4249.984
154.633, 3407.178
156.018, 2423.996
157.404, 1730.716
158.789, 1318.037
160.174, 1127.703
161.559, 969.052
162.943, 777.684
164.327, 700.019
165.711, 716.045
167.095, 892.493
168.479, 828.350
169.862, 901.553
171.246, 1183.818
172.628, 1361.306
174.011, 1742.292
175.394, 1990.145
176.776, 2184.146
178.158, 2508.101
179.540, 2784.259
180.922, 3217.686
182.303, 3612.746
183.684, 4176.891
185.065, 4870.757
186.446, 5669.586
187.826, 6217.815
189.207, 6696.239
190.587, 7384.976
191.967, 7179.438
193.346, 6800.316
194.726, 6056.922
196.105, 5240.122
197.484, 4493.446
198.862, 3668.303
200.241, 3074.142
201.619, 2558.876
202.997, 2192.794
204.375, 1506.771
205.753, 1160.812
207.130, 904.955
208.507, 633.182
209.884, 354.470
211.261, 85.808
212.638, 64.182
214.014, 10.578
215.390, 140.986
216.766, 141.332
218.141, 192.810
219.517, 246.071
220.892, 252.325
222.267, 247.499
223.642, 165.568
225.016, 162.518
226.391, 91.343
227.765, 32.046
229.139, 21.628
230.512, 74.911
231.886, 13.648
233.259, 84.931
234.632, 201.087
236.005, 149.843
237.377, 233.560
238.749, 257.836
240.122, 188.805
241.493, 240.004
242.865, 128.740
244.237, 186.640
245.608, 107.049
246.979, 80.600
248.350, 10.043
249.720, 186.810
251.090, 161.794
252.461, 403.267
253.830, 528.268
255.200, 807.744
256.570, 1055.713
257.939, 1328.246
259.308, 1675.417
260.677, 1682.364
262.045, 1609.202
263.414, 1205.978
264.782, 912.728
266.150, 634.459
267.517, 441.176
268.885, 166.863
270.252, 63.515
271.619, 53.875
272.986, 67.837
274.353, 29.062
275.719, 5.167
277.085, 293.391
278.451, 484.716
279.817, 575.729
281.182, 720.444
282.548, 904.874
283.913, 1033.023
285.278, 1142.805
286.642, 1158.944
288.007, 1052.789
289.371, 976.382
290.735, 969.713
292.099, 936.775
293.462, 898.575
294.826, 937.110
296.189, 1079.397
297.552, 1276.570
298.914, 1552.195
300.277, 2089.691
301.639, 2722.838
303.001, 3630.443
304.363, 4959.031
305.724, 6697.295
307.086, 8885.224
308.447, 10872.825
309.808, 12940.137
311.168, 14187.167
312.529, 14303.937
313.889, 13200.478
315.249, 11476.779
316.609, 9702.865
317.969, 7778.744
319.328, 6404.422
320.687, 5129.904
322.046, 4325.139
323.405, 3779.990
324.764, 3164.363
326.122, 2878.377
327.480, 2621.939
328.838, 2474.818
330.196, 2257.375
331.553, 2180.154
332.910, 2242.055
334.267, 2173.630
335.624, 2274.971
336.981, 2525.660
338.337, 2545.771
339.693, 2835.399
341.049, 3244.644
342.405, 3513.679
343.760, 3912.582
345.116, 3741.409
346.471, 3500.193
347.826, 2928.938
349.180, 2277.646
350.535, 1836.297
351.889, 1501.849
353.243, 1162.212
354.597, 849.386
355.950, 625.430
357.304, 586.400
358.657, 491.316
360.010, 380.188
361.362, 371.016
362.715, 346.792
364.067, 262.510
365.419, 300.177
366.771, 233.793
368.123, 293.359
369.474, 279.252
370.825, 292.047
372.176, 342.674
373.527, 400.890
374.877, 381.145
376.228, 402.665
377.578, 356.631
378.928, 379.663
380.277, 298.746
381.627, 319.847
382.976, 167.779
384.325, 129.797
385.674, 144.758
387.023, 243.495
388.371, 265.205
389.719, 272.409
391.067, 485.531
392.415, 639.232
393.762, 595.069
395.110, 841.537
396.457, 921.934
397.804, 1010.127
399.150, 1047.618
400.497, 1319.938
401.843, 1478.818
403.189, 1782.119
404.535, 2232.300
405.881, 2659.559
407.226, 3333.281
408.571, 3822.094
409.916, 4382.656
411.261, 4847.745
412.605, 4758.139
413.950, 5138.261
415.294, 5320.779
416.638, 6184.151
417.981, 5888.710
419.325, 5884.324
420.668, 5830.224
422.011, 5506.117
423.354, 5282.010
424.697, 5157.898
426.039, 4853.785
427.381, 4958.955
428.723, 5192.988
430.065, 5596.239
431.406, 5827.291
432.748, 5961.485
434.089, 6231.010
435.430, 6154.904
436.770, 6043.886
438.111, 5821.673
439.451, 5403.594
440.791, 5116.676
442.131, 4520.070
443.471, 4133.994
444.810, 4108.626
446.149, 3413.727
447.488, 3058.895
448.827, 2873.997
450.166, 2878.983
451.504, 2953.600
452.842, 3018.127
454.180, 3422.668
455.518, 3476.915
456.855, 3123.890
458.193, 2549.175
459.530, 2054.029
460.867, 1563.780
462.203, 1358.383
463.540, 1277.854
464.876, 1393.654
466.212, 1537.988
467.548, 1762.122
468.883, 2199.623
470.219, 2466.304
471.554, 2991.548
472.889, 3518.536
474.224, 4042.154
475.558, 4609.562
476.892, 5079.271
478.227, 5659.334
479.561, 6507.523
480.894, 7335.890
482.228, 8863.105
483.561, 10999.112
484.894, 13435.053
486.227, 16850.203
487.559, 20495.990
488.892, 23950.137
490.224, 25644.023
491.556, 25837.881
492.888, 23821.738
494.220, 20875.662
495.551, 17079.488
496.882, 13363.292
498.213, 10517.072
499.544, 8360.899
500.874, 6604.656
502.205, 5218.396
503.535, 4282.119
504.865, 3735.828
506.194, 3199.521
507.524, 2793.205
508.853, 2626.870
510.182, 2190.522
511.511, 2264.166
512.840, 2187.795
514.168, 2131.408
515.496, 2254.617
516.824, 2346.896
518.152, 2679.021
519.480, 2970.758
520.807, 3292.040
522.134, 3813.291
523.461, 4364.453
524.788, 4865.271
526.114, 5116.256
527.441, 5166.971
528.767, 5137.947
530.093, 4658.877
531.418, 4389.881
532.744, 3791.114
534.069, 3402.630
535.394, 2864.138
536.719, 2485.817
538.044, 2187.404
539.368, 1849.148
540.693, 1540.612
542.017, 1382.217
543.340, 1073.211
544.664, 913.949
545.987, 784.873
547.311, 726.343
548.634, 567.957
549.956, 529.665
551.279, 442.348
552.601, 465.757
553.923, 489.115
555.245, 353.085
556.567, 467.121
557.889, 491.254
559.210, 545.470
560.531, 769.789
561.852, 684.219
563.173, 828.739
564.493, 1013.364
565.813, 1068.064
567.133, 1082.854
568.453, 1167.711
569.773, 1177.991
571.092, 1162.242
572.412, 1182.569
573.731, 1067.565
575.049, 972.570
576.368, 857.579
577.686, 732.588
579.005, 747.591
580.323, 712.588
581.640, 607.577
582.958, 732.562
584.275, 817.539
585.593, 862.510
586.909, 1087.716
588.226, 1412.684
589.543, 1937.943
590.859, 2564.535
592.175, 3440.197
593.491, 4507.586
594.807, 4617.521
596.122, 4643.876
597.438, 4566.277
598.753, 3681.637
600.068, 2729.291
601.382, 1854.581
602.697, 1212.426
604.011, 889.497
605.325, 644.643
606.639, 500.205
607.952, 327.365
609.266, 166.438
610.579, 172.300
611.892, 50.928
613.205, 70.319
614.518, 81.499
615.830, 5.135
617.142, 66.308
618.454, 128.130
619.766, 111.561
621.078, 122.078
622.389, 35.101
623.700, 61.166
625.011, 23.737
626.322, 76.592
627.632, 62.521
628.943, 21.777
630.253, 70.925
631.563, 189.112
632.872, 77.532
634.182, 121.845
635.491, 125.583
636.800, 89.157
638.109, 91.428
639.418, 67.681
640.726, 41.377
642.035, 39.347
643.343, 19.579
644.651, 36.205
645.958, 80.223
647.266, 134.564
648.573, 168.899
649.880, 149.165
651.187, 114.097
652.494, 284.636
653.800, 168.986
655.106, 273.286
656.412, 131.540
657.718, 285.824
659.024, 220.101
660.329, 144.370
661.634, 288.765
662.939, 283.020
664.244, 288.126
665.549, 402.368
666.853, 416.602
668.157, 552.316
669.461, 586.535
670.765, 770.747
672.069, 1064.951
673.372, 1089.148
674.675, 1333.346
675.978, 1487.541
677.281, 1491.738
678.583, 1535.937
679.886, 1380.138
681.188, 1204.342
682.490, 978.549
683.792, 982.761
685.093, 886.976
686.394, 731.195
687.696, 905.418
688.997, 709.644
690.297, 1003.871
691.598, 1118.100
692.898, 1072.330
694.198, 1166.560
695.498, 1120.790
696.798, 1025.021
698.097, 929.251
699.397, 799.282
700.696, 717.717
701.995, 531.956
703.293, 426.197
704.592, 370.439
705.890, 344.684
707.188, 428.925
708.486, 343.162
709.784, 537.393
711.081, 331.615
712.378, 315.829
713.675, 500.031
714.972, 454.224
716.269, 558.404
717.565, 482.575
718.862, 586.732
720.158, 610.877
721.453, 755.009
722.749, 749.129
724.045, 803.234
725.340, 847.326
726.635, 831.402
727.930, 575.467
729.224, 649.515
730.519, 433.548
731.813, 447.568
733.107, 321.572
734.401, 155.562
735.694, 229.538
736.988, 193.499
738.281, 107.445
739.574, 111.377
740.867, 135.295
742.160, 49.199
743.452, 133.084
744.744, 46.956
746.036, 10.809
747.328, 34.632
748.620, 1.566
749.911, 3.592
751.202, 64.076
752.493, 40.419
753.784, 53.179
755.075, 3.240
756.365, 60.303
757.655, 6.172
758.945, 7.313
760.235, 100.765
761.525, 44.201
762.814, 2.382
764.103, 19.003
765.392, 34.329
766.681, 2.360
767.969, 20.705
769.258, 63.822
770.546, 65.702
771.834, 16.910
773.122, 39.878
774.409, 7.880
775.697, 40.959
776.984, 0.873
778.271, 60.891
779.558, 71.725
780.844, 35.615
782.131, 107.204
783.417, 17.812
784.703, 49.791
785.989, 139.966
787.274, 106.549
788.560, 73.055
789.845, 59.698
791.130, 82.881
792.415, 24.273
793.699, 55.904
794.983, 26.456
796.268, 35.859
797.552, 15.261
798.835, 116.074
800.119, 113.274
801.402, 78.947
802.686, 41.382
803.969, 96.192
805.251, 3.826
806.534, 101.570
807.816, 10.716
809.098, 72.992
810.380, 64.737
811.662, 367.439
812.944, 419.659
814.225, 751.870
815.506, 4.075
816.787, 56.268
818.068, 11.545
819.349, 50.624
820.629, 52.788
821.909, 25.055
823.189, 87.079
824.469, 159.209
825.749, 171.332
827.028, 243.447
828.307, 195.559
829.586, 127.663
830.865, 469.765
832.144, 301.864
833.422, 293.964
834.700, 436.062
835.978, 368.159
837.256, 440.250
838.534, 512.336
839.811, 514.419
841.088, 476.497
842.365, 448.569
843.642, 560.637
844.919, 532.699
846.195, 604.758
847.472, 526.812
848.748, 488.868
850.023, 596.411
851.299, 702.968
852.575, 805.012
853.850, 917.051
855.125, 1059.087
856.400, 1341.119
857.674, 1403.146
858.949, 1485.170
860.223, 1657.197
861.497, 2049.222
862.771, 2341.243
864.045, 2783.262
865.318, 3381.847
866.591, 4057.291
867.864, 4739.305
869.137, 5531.317
870.410, 6303.328
871.682, 6405.336
872.955, 6367.344
874.227, 5929.350
875.499, 5041.356
876.770, 4533.363
878.042, 3915.369
879.313, 3447.377
880.584, 3239.383
881.855, 3131.392
883.126, 3293.399
884.396, 3045.423
885.667, 3157.446
886.937, 3299.471
888.207, 2961.494
889.476, 3203.521
890.746, 3065.549
892.015, 2817.580
893.284, 2649.611
894.553, 2461.650
895.822, 2243.452
897.090, 2115.495
898.359, 2047.260
899.627, 2027.710
900.895, 1739.144
902.163, 1838.878
903.430, 1678.481
904.698, 1404.391
905.965, 1701.777
907.232, 1383.657
908.499, 1543.253
909.765, 1345.220
911.032, 1534.637
912.298, 1524.829
913.564, 1416.947
914.830, 1448.648
916.095, 1458.284
917.361, 1506.946
918.626, 1778.353
919.891, 1777.997
921.156, 1878.880
922.420, 2320.979
923.685, 2306.886
924.949, 2477.715
926.213, 2549.428
927.477, 2529.994
928.740, 2091.893
930.004, 1942.156
931.267, 1704.460
932.530, 1696.789
933.793, 1215.172
935.056, 1117.525
936.318, 1079.016
937.581, 761.398
938.843, 993.814
940.104, 678.429
941.366, 770.927
942.628, 838.832
943.889, 565.554
945.150, 705.920
946.411, 544.605
947.672, 645.147
948.932, 585.230
950.193, 606.576
951.453, 599.316
952.713, 575.005
953.973, 557.785
955.232, 650.586
956.491, 557.463
957.751, 699.684
959.010, 626.312
960.268, 759.139
961.527, 822.024
962.785, 710.969
964.044, 803.892
965.302, 1006.831
966.559, 959.790
967.817, 1142.636
969.075, 1175.630
970.332, 1427.786
971.589, 1590.817
972.846, 1783.868
974.102, 2155.449
975.359, 2388.537
976.615, 2951.643
977.871, 3364.770
979.127, 3747.914
980.383, 4271.078
981.638, 4454.857
982.893, 4778.572
984.149, 4633.518
985.404, 4496.963
986.658, 4041.498
987.913, 3744.785
989.167, 2918.097
990.421, 2761.681
991.675, 2225.034
992.929, 1748.409
994.183, 1791.820
995.436, 1225.238
996.689, 1228.676
997.942, 1102.238
999.195, 867.157
1000.448, 950.658
1001.700, 814.179
1002.952, 707.738
1004.204, 631.318
1005.456, 484.921
1006.708, 578.588
1007.959, 422.275
1009.210, 525.994
1010.461, 421.013
1011.712, 364.793
1012.963, 378.639
1014.213, 382.521
1015.464, 246.478
1016.714, 380.462
1017.964, 244.717
1019.214, 208.778
1020.463, 272.858
1021.712, 66.962
1022.962, 411.124
1024.210, 155.309
1025.459, 199.513
1026.708, 373.766
1027.956, 238.234
1029.204, 322.530
1030.452, 246.958
1031.700, 211.299
1032.948, 305.678
1034.195, 293.086
1035.442, 287.508
1036.689, 481.968
1037.936, 236.448
1039.183, 440.952
1040.429, 395.477
1041.676, 310.022
1042.922, 514.590
1044.168, 370.063
1045.413, 574.674
1046.659, 639.307
1047.904, 585.367
1049.149, 740.043
1050.394, 847.044
1051.639, 780.495
1052.884, 859.890
1054.128, 591.336
1055.372, 906.181
1056.616, 621.073
1057.860, 735.987
1059.104, 970.935
1060.347, 855.908
1061.590, 1390.916
1062.833, 1435.953
1064.076, 1611.021
1065.319, 2086.109
1066.561, 2351.231
1067.803, 2606.391
1069.046, 3151.572
1070.287, 3126.787
1071.529, 3232.028
1072.771, 3297.291
1074.012, 2742.796
1075.253, 2948.138
1076.494, 2253.502
1077.735, 2038.903
1078.975, 2004.326
1080.216, 1779.783
1081.456, 1745.259
1082.696, 1740.755
1083.936, 1646.299
1085.175, 2001.865
1086.415, 1967.453
1087.654, 2293.066
1088.893, 2538.697
1090.132, 2494.396
1091.371, 2708.595
1092.609, 2670.250
1093.847, 2751.674
1095.085, 2457.504
1096.323, 2213.369
1097.561, 1799.264
1098.799, 1685.187
1100.036, 1211.136
1101.273, 1157.101
1102.510, 1043.116
1103.747, 849.447
1104.983, 787.687
1106.220, 631.588
1107.456, 558.553
1108.692, 514.709
1109.928, 360.883
1111.163, 348.981
1112.399, 353.297
1113.634, 279.536
1114.869, 295.791
1116.104, 282.064
1117.339, 308.353
1118.573, 164.659
1119.808, 110.983
1121.042, 297.323
1122.276, 83.679
1123.509, 180.057
1124.743, 46.449
1125.976, 182.854
1127.210, 169.326
1128.443, 85.765
1129.675, 37.784
1130.908, 33.790
1132.141, 74.745
1133.373, 17.243
1134.605, 60.753
1135.837, 85.736
1137.068, 123.502
1138.300, 19.985
1139.531, 56.536
1140.762, 173.786
1141.993, 0.329
1143.224, 87.087
1144.455, 103.712
1145.685, 9.713
1146.915, 62.882
1148.145, 133.877
1149.375, 30.467
1150.605, 151.468
1151.834, 18.077
1153.063, 44.850
1154.292, 161.830
1155.521, 8.465
1156.750, 307.346
1157.978, 51.613
1159.207, 105.106
1160.435, 162.457
1161.663, 42.593
1162.891, 101.849
1164.118, 89.911
1165.345, 12.743
1166.573, 101.239
1167.800, 17.971
1169.026, 104.662
1170.253, 60.290
1171.480, 56.990
1172.706, 173.884
1173.932, 146.777
1175.158, 6.514
1176.383, 330.382
1177.609, 2.778
1178.834, 123.933
1180.059, 244.801
1181.284, 68.483
1182.509, 128.205
1183.734, 218.922
1184.958, 15.614
1186.182, 322.412
1187.406, 29.319
1188.630, 246.013
1189.854, 162.807
1191.077, 20.501
1192.301, 216.182
1193.524, 53.088
1194.747, 30.189
1195.969, 406.477
1197.192, 46.595
1198.414, 120.047
1199.636, 166.922
1200.858, 113.560
1202.080, 170.196
1203.302, 128.067
1204.523, 144.697
1205.744, 261.325
1206.966, 29.453
1208.186, 146.074
1209.407, 292.691
1210.628, 11.126
1211.848, 297.734
1213.068, 194.579
1214.288, 61.179
1215.508, 397.774
1216.727, 134.437
1217.947, 81.121
1219.166, 307.702
1220.385, 5.183
1221.604, 331.748
1222.822, 188.308
1224.041, 67.033
1225.259, 343.580
1226.477, 241.062
1227.695, 57.708
1228.913, 234.237
1230.130, 143.510
1231.348, 310.303
1232.565, 296.810
1233.782, 74.446
1234.999, 330.938
1236.215, 290.863
1237.432, 47.339
1238.648, 373.814
1239.864, 190.777
1241.080, 287.251
1242.296, 283.724
1243.511, 60.195
1244.726, 276.662
1245.942, 133.123
1247.156, 119.752
1248.371, 356.208
1249.586, 22.660
1250.800, 259.465
1252.014, 315.910
1253.228, 12.359
1254.442, 338.793
1255.656, 365.222
1256.869, 141.691
1258.083, 368.105
1259.296, 164.516
1260.509, 180.999
1261.722, 147.392
1262.934, 183.774
1264.147, 240.150
1265.359, 206.521
1266.571, 182.883
1267.783, 309.214
1268.994, 245.482
1270.206, 281.730
1271.417, 217.946
1272.628, 84.073
1273.839, 261.138
1275.050, 447.119
1276.260, 22.496
1277.471, 117.893
1278.681, 302.027
1279.891, 161.820
1281.101, 286.378
1282.310, 22.164
1283.520, 287.995
1284.729, 193.473
1285.938, 39.187
1287.147, 274.883
1288.356, 70.548
1289.564, 106.214
1290.773, 291.864
1291.981, 67.393
1293.189, 81.562
1294.397, 257.157
1295.604, 27.274
1296.812, 218.247
1298.019, 93.751
1299.226, 120.762
1300.433, 174.665
1301.640, 10.067
1302.846, 24.490
1304.053, 119.573
1305.259, 125.130
1306.465, 9.749
1307.671, 154.574
1308.876, 30.520
1310.082, 55.620
1311.287, 69.616
1312.492, 135.346
1313.697, 170.285
1314.902, 94.797
1316.106, 170.060
1317.310, 104.892
1318.515, 50.302
1319.719, 264.454
1320.922, 108.992
1322.126, 123.696
1323.329, 258.266
1324.533, 17.083
1325.736, 287.524
1326.939, 179.097
1328.141, 16.357
1329.344, 178.148
1330.546, 132.634
1331.748, 107.047
1332.950, 261.434
1334.152, 135.801
1335.354, 170.146
1336.555, 243.582
1337.757, 107.882
1338.958, 152.156
1340.159, 265.003
1341.359, 99.231
1342.560, 241.142
1343.760, 105.321
1344.960, 229.476
1346.160, 253.606
1347.360, 37.717
1348.560, 291.798
1349.759, 375.858
1350.959, 29.897
1352.158, 353.908
1353.357, 277.898
1354.555, 21.868
1355.754, 365.812
1356.952, 109.735
1358.151, 183.641
1359.349, 347.928
1360.546, 151.804
1361.744, 145.662
1362.941, 339.508
1364.139, 53.341
1365.336, 366.969
1366.533, 330.776
1367.730, 14.576
1368.926, 408.361
1370.123, 52.593
1371.319, 146.344
1372.515, 240.220
1373.711, 3.969
1374.906, 107.710
1376.102, 341.403
1377.297, 45.080
1378.492, 278.742
1379.687, 6.622
1380.882, 276.097
1382.077, 481.629
1383.271, 87.137
1384.465, 352.622
1385.659, 458.086
1386.853, 253.524
1388.047, 368.621
1389.240, 273.102
1390.434, 148.456
1391.627, 583.784
1392.820, 219.086
1394.013, 114.362
1395.205, 449.612
1396.398, 194.837
1397.590, 310.036
1398.782, 315.150
1399.974, 190.291
1401.166, 374.073
1402.357, 229.171
1403.549, 182.741
1404.740, 497.780
1405.931, 221.933
1407.122, 216.601
1408.313, 351.265
1409.503, 276.008
1410.693, 255.388
1411.883, 236.828
1413.073, 268.643
1414.263, 397.476
1415.453, 303.350
1416.642, 29.046
1417.831, 442.414
1419.020, 206.332
1420.209, 217.942
1421.398, 442.808
1422.587, 43.808
1423.775, 489.625
1424.963, 307.193
1426.151, 104.812
1427.339, 158.074
1428.526, 341.134
1429.714, 264.330
1430.901, 537.314
1432.088, 220.557
1433.275, 253.442
1434.462, 276.354
1435.648, 267.592
1436.835, 340.786
1438.021, 311.437
1439.207, 231.446
1440.393, 444.056
1441.579, 217.038
1442.764, 179.682
1443.949, 440.960
1445.135, 103.813
1446.320, 182.605
1447.504, 443.337
1448.689, 70.713
1449.873, 512.676
1451.058, 292.879
1452.242, 88.328
1453.426, 379.473
1454.609, 261.470
1455.793, 193.339
1456.976, 444.729
1458.159, 186.341
1459.342, 187.010
1460.525, 438.287
1461.708, 199.317
1462.890, 290.314
1464.073, 390.961
1465.255, 101.656
1466.437, 372.173
1467.619, 372.767
1468.800, 183.453
1469.982, 591.915
1471.163, 263.398
1472.344, 155.166
1473.525, 514.996
1474.706, 186.362
1475.886, 257.963
1477.066, 529.477
1478.247, 120.896
1479.427, 402.247
1480.607, 253.550
1481.786, 144.878
1482.966, 426.106
1484.145, 107.038
1485.324, 218.253
1486.503, 458.931
1487.682, 80.127
1488.860, 241.656
1490.039, 403.155
1491.217, 64.657
1492.395, 246.184
1493.573, 257.747
1494.751, 239.378
1495.928, 291.089
1497.106, 252.968
1498.283, 175.147
1499.460, 337.690
1500.637, 9.677
1501.814, 143.081
1502.990, 275.991
1504.166, 99.112
1505.342, 212.502
1506.518, 126.146
1507.694, 60.086
1508.870, 414.391
1510.045, 149.122
1511.221, 5.687
1512.396, 384.425
1513.571, 39.987
1514.745, 86.062
1515.920, 352.686
1517.094, 107.876
1518.269, 309.399
1519.443, 352.614
1520.616, 0.615
1521.790, 0.000
##END=



